// General information: 
//  MT Manager version: 2019.0.1 
//  XDA version: 2019.0.1 build 2740 rev 84096 built on 2019-01-30
// Device information: 
//  DeviceId: 00B43876
//  ProductCode: MTW2-3A7G6
//  Firmware Version: 4.3.4
//  Hardware Version: 1.1.0
// Device settings: 
//  Filter Profile: human(46.1)
//  Option Flags: Orientation Smoother Disabled, AHS Disabled, ICC Disabled
// Coordinate system: ENU
PacketCounter,SampleTimeFine,Acc_X,Acc_Y,Acc_Z,FreeAcc_E,FreeAcc_N,FreeAcc_U,Gyr_X,Gyr_Y,Gyr_Z,Quat_q0,Quat_q1,Quat_q2,Quat_q3,Roll,Pitch,Yaw
46550,NaN,-0.094005,-9.475298,-1.047023,0.428253,-0.208048,-0.291150,-0.134860,0.095005,0.006267,-0.671689,0.731196,0.069307,-0.096871,-94.530756,2.783239,13.400776
46551,NaN,-0.478304,-9.573783,-1.067191,0.058934,-0.295262,-0.172443,-0.138032,0.031803,-0.014890,-0.671201,0.731665,0.069318,-0.096695,-94.609936,2.776749,13.386062
46552,NaN,-0.734360,-9.603410,-1.147088,-0.174877,-0.416846,-0.123713,-0.139509,-0.063346,-0.035326,-0.670685,0.732087,0.069724,-0.096799,-94.687388,2.763041,13.426698
46553,NaN,-0.795348,-9.452986,-1.233649,-0.222976,-0.515969,-0.262952,-0.158725,-0.147067,-0.046447,-0.670074,0.732527,0.070460,-0.097165,-94.773435,2.746943,13.515746
46554,NaN,-0.709278,-9.333706,-1.285663,-0.136173,-0.543070,-0.380796,-0.189589,-0.173359,-0.061703,-0.669346,0.733052,0.071356,-0.097566,-94.876542,2.723603,13.620577
46555,NaN,-0.742199,-9.322382,-1.342650,-0.162776,-0.590216,-0.384777,-0.226720,-0.161888,-0.079839,-0.668495,0.733698,0.072297,-0.097850,-95.001149,2.689500,13.719796
46556,NaN,-0.820879,-9.141505,-1.223435,-0.281974,-0.492685,-0.570639,-0.232791,-0.142142,-0.087613,-0.667630,0.734371,0.073204,-0.098033,-95.129893,2.650234,13.808195
46557,NaN,-0.847849,-9.138328,-1.103811,-0.347670,-0.364929,-0.582726,-0.250817,-0.141337,-0.086821,-0.666699,0.735102,0.074114,-0.098209,-95.268958,2.611534,13.896185
46558,NaN,-0.932463,-9.300493,-1.062165,-0.447117,-0.308207,-0.421101,-0.269706,-0.169414,-0.083251,-0.665683,0.735883,0.075113,-0.098493,-95.418267,2.576640,14.000110
46559,NaN,-0.986792,-9.440649,-1.060825,-0.508011,-0.284704,-0.279284,-0.260412,-0.206334,-0.086805,-0.664688,0.736610,0.076244,-0.098904,-95.561276,2.541964,14.125404
46560,NaN,-0.890941,-9.527924,-0.990362,-0.442216,-0.164370,-0.203665,-0.250922,-0.248566,-0.103865,-0.663718,0.737277,0.077572,-0.099418,-95.697909,2.500284,14.275831
46561,NaN,-0.709621,-9.509726,-0.975547,-0.282915,-0.089260,-0.231347,-0.228408,-0.290912,-0.119215,-0.662820,0.737839,0.079087,-0.100045,-95.820590,2.452591,14.451416
46562,NaN,-0.597401,-9.589143,-0.992611,-0.181127,-0.052860,-0.155660,-0.207497,-0.310841,-0.120916,-0.661989,0.738318,0.080663,-0.100748,-95.931029,2.405492,14.638537
46563,NaN,-0.548986,-9.610126,-0.991775,-0.145942,-0.023789,-0.137067,-0.170427,-0.320049,-0.120159,-0.661289,0.738667,0.082248,-0.101501,-96.020074,2.359664,14.830970
46564,NaN,-0.368876,-9.491486,-0.974620,0.010769,0.035971,-0.264241,-0.135155,-0.323531,-0.131155,-0.660721,0.738891,0.083866,-0.102246,-96.089050,2.308081,15.026079
46565,NaN,-0.255294,-9.474357,-0.928254,0.096924,0.115280,-0.290735,-0.098250,-0.311357,-0.131284,-0.660292,0.738997,0.085426,-0.102960,-96.137245,2.255848,15.214333
46566,NaN,-0.310342,-9.491324,-0.873288,0.018733,0.159653,-0.277577,-0.066660,-0.289734,-0.132990,-0.659988,0.739007,0.086904,-0.103602,-96.168075,2.201478,15.390362
46567,NaN,-0.365542,-9.420767,-0.839229,-0.054674,0.170475,-0.349247,-0.032970,-0.268318,-0.139412,-0.659819,0.738911,0.088318,-0.104158,-96.180138,2.142162,15.554625
46568,NaN,-0.401119,-9.349170,-0.773003,-0.118186,0.213953,-0.426226,-0.007745,-0.244496,-0.152493,-0.659759,0.738738,0.089688,-0.104594,-96.178486,2.073974,15.706082
46569,NaN,-0.392794,-9.215611,-0.653052,-0.155426,0.311231,-0.572168,0.009714,-0.201709,-0.164954,-0.659789,0.738522,0.090954,-0.104838,-96.167774,1.996003,15.833942
46570,NaN,-0.465978,-9.122749,-0.599567,-0.253545,0.325642,-0.667698,0.025010,-0.171152,-0.176115,-0.659893,0.738266,0.092151,-0.104939,-96.149142,1.909796,15.945008
46571,NaN,-0.508457,-8.922622,-0.550021,-0.321432,0.331615,-0.870600,0.029528,-0.143954,-0.174469,-0.660025,0.738009,0.093251,-0.104948,-96.128503,1.822791,16.040484
46572,NaN,-0.557772,-8.844914,-0.427578,-0.415371,0.418833,-0.959527,0.032933,-0.118354,-0.167603,-0.660177,0.737756,0.094239,-0.104886,-96.106619,1.738130,16.120864
46573,NaN,-0.543899,-8.824666,-0.322588,-0.442690,0.513388,-0.991402,0.035511,-0.095048,-0.145408,-0.660338,0.737516,0.095067,-0.104812,-96.083701,1.664641,16.186638
46574,NaN,0.143294,-9.081776,-0.969010,0.388437,0.110562,-0.687171,0.024828,-0.108592,-0.114978,-0.660436,0.737320,0.095832,-0.104884,-96.066913,1.609311,16.258193
46575,NaN,-1.765473,-11.706145,-0.234343,-1.658773,0.568254,1.897615,-0.108389,-0.070472,0.063957,-0.659967,0.737667,0.095882,-0.105342,-96.127281,1.653607,16.297218
46576,NaN,-0.832660,-12.870493,-0.929953,-0.566964,0.306472,3.102124,-0.067206,-0.050871,0.027235,-0.659678,0.737872,0.095981,-0.105627,-96.164398,1.675839,16.327219
46577,NaN,-0.722519,-12.553602,-1.539470,-0.285413,-0.276126,2.849351,0.028474,-0.106989,0.000318,-0.659730,0.737718,0.096314,-0.106076,-96.145576,1.686183,16.390965
46578,NaN,-0.248385,-12.344082,-1.108198,0.049038,0.236403,2.581176,0.107247,-0.046467,-0.046324,-0.660125,0.737314,0.096577,-0.106185,-96.082674,1.666223,16.422960
46579,NaN,-0.329764,-11.226069,-0.857053,-0.096765,0.314688,1.446065,0.143838,0.002913,-0.025613,-0.660669,0.736824,0.096582,-0.106199,-95.999545,1.655040,16.425646
46580,NaN,-0.492888,-9.980273,-0.603258,-0.320222,0.359572,0.186356,0.156049,0.022777,-0.024543,-0.661265,0.736306,0.096511,-0.106148,-95.909872,1.643287,16.416814
46581,NaN,-0.167974,-8.896484,-0.476756,-0.041495,0.442882,-0.912965,0.117296,0.000987,-0.042895,-0.661719,0.735894,0.096600,-0.106099,-95.841886,1.622364,16.421592
46582,NaN,-0.047344,-8.356428,-0.413697,0.056566,0.470300,-1.459311,0.092690,-0.006659,-0.048590,-0.662080,0.735557,0.096747,-0.106047,-95.787999,1.598634,16.430913
46583,NaN,-0.299259,-7.958529,-0.267348,-0.226373,0.490264,-1.862366,0.058322,-0.001777,-0.024156,-0.662305,0.735347,0.096808,-0.106041,-95.753788,1.588544,16.436154
46584,NaN,-0.310189,-7.851398,-0.387069,-0.202371,0.358319,-1.956407,0.026614,-0.019707,-0.008132,-0.662395,0.735242,0.096885,-0.106139,-95.737622,1.588616,16.450566
46585,NaN,-0.290688,-7.883998,-0.479281,-0.156668,0.278386,-1.915246,-0.003303,-0.043504,0.006381,-0.662357,0.735229,0.097004,-0.106358,-95.738098,1.598325,16.477860
46586,NaN,-0.198037,-8.090335,-0.547781,-0.047273,0.261485,-1.705765,-0.008212,-0.027846,0.016447,-0.662302,0.735246,0.097036,-0.106550,-95.741791,1.612874,16.495505
46587,NaN,-0.191633,-8.507263,-0.753193,0.018231,0.112160,-1.270754,-0.016691,-0.025527,0.009908,-0.662222,0.735289,0.097090,-0.106709,-95.750218,1.623568,16.512349
46588,NaN,-0.167468,-9.000272,-1.254961,0.184952,-0.306096,-0.730839,-0.020084,-0.070066,0.000075,-0.662111,0.735315,0.097329,-0.106996,-95.759996,1.631214,16.555010
46589,NaN,-0.076829,-9.541062,-1.695321,0.397939,-0.640539,-0.151257,-0.039267,-0.110713,-0.005996,-0.661915,0.735378,0.097735,-0.107404,-95.779943,1.637754,16.621342
46590,NaN,-0.012540,-10.095147,-2.018083,0.551925,-0.865396,0.430909,-0.079154,-0.116852,-0.003891,-0.661566,0.735572,0.098174,-0.107821,-95.822784,1.645884,16.690906
46591,NaN,-0.496036,-11.220808,-2.014293,0.084754,-0.867229,1.564951,-0.188432,-0.078173,0.011376,-0.660827,0.736155,0.098489,-0.108093,-95.928756,1.660530,16.737628
46592,NaN,-0.210072,-13.585632,-2.171780,0.394984,-0.647559,3.926113,-0.335470,-0.043103,0.046626,-0.659542,0.737259,0.098637,-0.108279,-96.119732,1.693280,16.762083
46593,NaN,-1.088128,-13.050796,-1.922446,-0.521647,-0.694626,3.395207,-0.085883,-0.017432,-0.027945,-0.659230,0.737515,0.098841,-0.108249,-96.167883,1.682015,16.776513
46594,NaN,-0.440759,-10.437973,-0.755750,-0.240503,0.305873,0.654655,0.151264,0.053324,-0.157107,-0.659896,0.736964,0.099158,-0.107648,-96.081214,1.592849,16.758413
46595,NaN,0.039809,-8.722602,-0.365405,0.101968,0.608703,-1.104190,0.166001,0.070789,-0.199549,-0.660648,0.736351,0.099567,-0.106851,-95.986154,1.478473,16.732883
46596,NaN,-0.147316,-8.162368,-0.504897,-0.044535,0.346325,-1.640850,0.113327,0.041334,-0.156358,-0.661167,0.735918,0.099942,-0.106277,-95.920994,1.390500,16.721309
46597,NaN,-0.456154,-8.341333,-0.586785,-0.326113,0.189414,-1.446804,0.036610,-0.002055,-0.110574,-0.661358,0.735737,0.100333,-0.105977,-95.899130,1.331185,16.731815
46598,NaN,-1.020626,-8.865448,-0.858275,-0.799645,-0.177968,-0.885013,-0.060852,-0.063662,-0.086993,-0.661145,0.735857,0.100891,-0.105932,-95.932469,1.288952,16.775940
46599,NaN,-0.842607,-9.619400,-1.113051,-0.569938,-0.285013,-0.113427,-0.101457,-0.088192,-0.080055,-0.660768,0.736102,0.101528,-0.105981,-95.988673,1.252171,16.833797
46600,NaN,-0.573334,-10.018211,-1.205660,-0.298573,-0.246319,0.286671,-0.094686,-0.064565,-0.095432,-0.660435,0.736329,0.102139,-0.105894,-96.041437,1.205260,16.879015
46601,NaN,-0.520417,-10.017729,-1.096208,-0.291394,-0.122674,0.273314,-0.062620,-0.039078,-0.126560,-0.660249,0.736446,0.102763,-0.105628,-96.076002,1.139117,16.911767
46602,NaN,-0.444455,-9.784193,-0.951083,-0.271864,0.013370,0.023899,-0.042449,-0.029933,-0.151371,-0.660155,0.736490,0.103438,-0.105256,-96.099250,1.058289,16.940708
46603,NaN,-0.380010,-9.551912,-1.004565,-0.205434,-0.043532,-0.202876,-0.048470,-0.042643,-0.143705,-0.660028,0.736549,0.104130,-0.104954,-96.125737,0.982632,16.976605
46604,NaN,-0.237454,-9.517112,-1.078123,-0.060319,-0.073531,-0.232234,-0.078361,-0.050834,-0.131685,-0.659780,0.736709,0.104820,-0.104704,-96.169459,0.914331,17.016329
46605,NaN,-0.102825,-9.549477,-1.228161,0.099049,-0.168434,-0.185992,-0.099471,-0.063434,-0.120807,-0.659441,0.736937,0.105523,-0.104527,-96.225090,0.853057,17.062766
46606,NaN,0.121151,-9.651591,-1.330789,0.329280,-0.182988,-0.076314,-0.098035,-0.073681,-0.114619,-0.659098,0.737158,0.106235,-0.104408,-96.279997,0.795975,17.114563
46607,NaN,0.025825,-9.669901,-1.392503,0.244586,-0.262336,-0.049590,-0.075743,-0.069201,-0.111655,-0.658839,0.737309,0.106911,-0.104295,-96.322093,0.740356,17.163810
46608,NaN,-0.051048,-9.737666,-1.336434,0.142724,-0.221162,0.012866,-0.053083,-0.062862,-0.107510,-0.658663,0.737391,0.107538,-0.104183,-96.351425,0.686714,17.209078
46609,NaN,0.133484,-9.963278,-1.109396,0.236805,0.075087,0.209975,-0.040281,-0.065874,-0.111850,-0.658535,0.737425,0.108185,-0.104076,-96.373323,0.630822,17.256490
46610,NaN,0.086890,-10.070838,-1.024477,0.153962,0.152891,0.308171,-0.010395,-0.057532,-0.123859,-0.658527,0.737360,0.108832,-0.103914,-96.378308,0.567562,17.299799
46611,NaN,-0.202325,-9.890639,-0.896919,-0.166563,0.163599,0.117852,0.031811,-0.063947,-0.135567,-0.658678,0.737144,0.109523,-0.103760,-96.359001,0.498044,17.347621
46612,NaN,-0.268895,-9.739624,-1.017101,-0.201715,0.006103,-0.018489,0.036934,-0.069122,-0.150014,-0.658852,0.736902,0.110280,-0.103580,-96.336908,0.420604,17.399156
46613,NaN,-0.115419,-9.795975,-0.998776,-0.074395,0.067971,0.034233,0.028118,-0.051022,-0.158971,-0.659007,0.736691,0.111016,-0.103300,-96.319881,0.336911,17.441051
46614,NaN,-0.071009,-9.802105,-0.848527,-0.090355,0.217263,0.023517,0.025676,-0.032039,-0.164185,-0.659166,0.736496,0.111709,-0.102930,-96.304492,0.249033,17.472310
46615,NaN,-0.115776,-9.750926,-0.768112,-0.169715,0.268091,-0.036018,0.011929,-0.017773,-0.167758,-0.659284,0.736351,0.112375,-0.102489,-96.296932,0.158226,17.495786
46616,NaN,0.143485,-9.805910,-0.802220,0.070998,0.315011,0.021728,-0.018757,-0.023107,-0.169679,-0.659286,0.736302,0.113082,-0.102044,-96.307109,0.066652,17.522288
46617,NaN,0.291629,-9.759808,-0.792572,0.195436,0.361468,-0.025032,-0.028898,-0.014929,-0.161429,-0.659252,0.736295,0.113737,-0.101590,-96.323012,-0.020724,17.543773
46618,NaN,0.242803,-9.800509,-0.833655,0.145330,0.311245,0.020212,-0.043802,-0.007086,-0.140517,-0.659155,0.736354,0.114296,-0.101167,-96.347606,-0.096689,17.559361
46619,NaN,0.419330,-9.888763,-0.858874,0.304868,0.351556,0.111253,-0.070040,-0.010934,-0.119435,-0.658949,0.736507,0.114803,-0.100814,-96.387124,-0.160389,17.575981
46620,NaN,0.591448,-9.913158,-0.951287,0.483947,0.322164,0.146603,-0.071398,0.004582,-0.099059,-0.658736,0.736685,0.115185,-0.100468,-96.427534,-0.213476,17.582370
46621,NaN,0.515315,-9.787749,-0.952688,0.406810,0.288683,0.022166,-0.067744,0.010177,-0.073913,-0.658528,0.736868,0.115454,-0.100188,-96.465706,-0.252600,17.584121
46622,NaN,0.500377,-9.848444,-0.981623,0.391293,0.267616,0.085852,-0.066109,0.010747,-0.057505,-0.658316,0.737055,0.115660,-0.099960,-96.503067,-0.282420,17.584383
46623,NaN,0.535000,-9.847279,-1.070318,0.445430,0.198443,0.095033,-0.056817,0.013535,-0.031023,-0.658128,0.737228,0.115755,-0.099815,-96.534956,-0.297352,17.581473
46624,NaN,0.540428,-9.871195,-1.116921,0.461009,0.162384,0.124172,-0.037073,0.025127,-0.004048,-0.658006,0.737358,0.115701,-0.099727,-96.555620,-0.297682,17.570090
46625,NaN,0.438570,-9.884283,-1.091695,0.355692,0.159339,0.133733,-0.014837,0.041042,0.010630,-0.657968,0.737430,0.115531,-0.099642,-96.563363,-0.290715,17.548794
46626,NaN,0.398910,-9.817126,-1.133611,0.335544,0.100732,0.071513,0.019752,0.040080,0.035957,-0.658043,0.737403,0.115253,-0.099663,-96.551418,-0.269254,17.526282
46627,NaN,0.416446,-9.755960,-1.108241,0.352260,0.122022,0.007771,0.034450,0.047331,0.053701,-0.658169,0.737341,0.114878,-0.099724,-96.530911,-0.238178,17.498588
46628,NaN,0.348706,-9.777674,-1.040947,0.274004,0.166228,0.021201,0.033895,0.048431,0.076274,-0.658281,0.737295,0.114417,-0.099855,-96.510860,-0.194297,17.468713
46629,NaN,0.228898,-9.750559,-1.006145,0.159445,0.159166,-0.010271,0.039351,0.044279,0.091063,-0.658404,0.737237,0.113912,-0.100054,-96.487586,-0.141739,17.440347
46630,NaN,0.206723,-9.613954,-0.941981,0.134629,0.198076,-0.153453,0.033956,0.036812,0.107156,-0.658494,0.737202,0.113375,-0.100329,-96.467563,-0.079502,17.415124
46631,NaN,0.300019,-9.664958,-0.901885,0.221624,0.271078,-0.107420,0.002288,0.031077,0.128077,-0.658453,0.737279,0.112796,-0.100677,-96.465590,-0.005006,17.391915
46632,NaN,0.252049,-9.712514,-0.793010,0.154877,0.370010,-0.072851,-0.022994,0.018936,0.149747,-0.658301,0.737446,0.112189,-0.101126,-96.478259,0.082635,17.374124
46633,NaN,0.131266,-9.649424,-0.813454,0.061580,0.315256,-0.133477,-0.042834,0.003935,0.159675,-0.658063,0.737675,0.111605,-0.101653,-96.502176,0.176865,17.364287
46634,NaN,0.048128,-9.665686,-0.814196,-0.003446,0.301168,-0.117328,-0.059448,-0.008645,0.175895,-0.657746,0.737962,0.111011,-0.102269,-96.535734,0.281170,17.360424
46635,NaN,0.017844,-9.683592,-0.811669,-0.018379,0.308733,-0.100047,-0.089667,-0.025860,0.185282,-0.657304,0.738342,0.110455,-0.102964,-96.586428,0.391914,17.365757
46636,NaN,0.001303,-9.539317,-0.792915,-0.020237,0.322038,-0.245916,-0.144302,-0.049641,0.206834,-0.656635,0.738902,0.109924,-0.103786,-96.668452,0.516531,17.382983
46637,NaN,0.022082,-9.674897,-0.951979,0.059432,0.214085,-0.093585,-0.177397,-0.069926,0.220055,-0.655824,0.739565,0.109429,-0.104709,-96.769156,0.650029,17.410762
46638,NaN,0.110990,-9.786258,-1.037133,0.183968,0.196703,0.025311,-0.183449,-0.062951,0.234105,-0.654985,0.740258,0.108862,-0.105647,-96.873462,0.791124,17.433284
46639,NaN,0.209217,-9.951087,-1.147143,0.325294,0.165218,0.199837,-0.162956,-0.044875,0.243241,-0.654227,0.740896,0.108191,-0.106561,-96.966001,0.936175,17.444744
46640,NaN,0.019758,-9.833946,-1.097234,0.151889,0.161103,0.079822,-0.093567,-0.028015,0.236575,-0.653736,0.741312,0.107451,-0.107427,-97.019057,1.076304,17.446802
46641,NaN,-0.070339,-9.585501,-0.969715,0.053092,0.239113,-0.181120,-0.068855,-0.013331,0.243709,-0.653340,0.741656,0.106625,-0.108275,-97.057990,1.219427,17.439983
46642,NaN,-0.220463,-9.687681,-1.096306,-0.032430,0.102279,-0.061273,-0.100581,-0.003328,0.260845,-0.652821,0.742119,0.105718,-0.109125,-97.115415,1.371613,17.426055
46643,NaN,-0.138727,-9.680238,-1.073816,0.060831,0.163832,-0.073656,-0.093672,0.010130,0.263148,-0.652333,0.742565,0.104756,-0.109936,-97.168980,1.524103,17.404252
46644,NaN,-0.223793,-9.627250,-1.003722,-0.018710,0.214553,-0.133068,-0.097133,0.021443,0.264920,-0.651835,0.743028,0.103751,-0.110708,-97.224913,1.676801,17.375651
46645,NaN,-0.344483,-9.600393,-1.034224,-0.102735,0.163718,-0.152542,-0.113555,0.021630,0.266555,-0.651274,0.743544,0.102749,-0.111477,-97.290202,1.830350,17.346753
46646,NaN,-0.324678,-9.656100,-1.094565,-0.045004,0.138748,-0.090423,-0.127002,0.024564,0.262886,-0.650665,0.744103,0.101758,-0.112215,-97.363468,1.981599,17.316175
46647,NaN,-0.419026,-9.687037,-1.205060,-0.081645,0.030173,-0.042385,-0.135382,0.027039,0.256582,-0.650028,0.744684,0.100788,-0.112920,-97.441511,2.129009,17.284550
46648,NaN,-0.439290,-9.720285,-1.281583,-0.058444,-0.023989,0.001350,-0.126128,0.038688,0.248122,-0.649435,0.745237,0.099805,-0.113558,-97.514713,2.270737,17.246638
46649,NaN,-0.603114,-9.663833,-1.387947,-0.163698,-0.162288,-0.033801,-0.113472,0.039839,0.241031,-0.648893,0.745744,0.098838,-0.114175,-97.580624,2.408272,17.208532
46650,NaN,-0.699832,-9.645559,-1.411488,-0.230414,-0.198530,-0.044048,-0.102210,0.040142,0.229069,-0.648398,0.746208,0.097907,-0.114756,-97.640292,2.538981,17.170906
46651,NaN,-0.749464,-9.632131,-1.569378,-0.212914,-0.347649,-0.033303,-0.110472,0.014030,0.220136,-0.647864,0.746677,0.097099,-0.115403,-97.703935,2.666545,17.148766
46652,NaN,-0.809707,-9.618329,-1.614894,-0.239290,-0.394861,-0.037077,-0.083402,0.002615,0.212724,-0.647428,0.747048,0.096340,-0.116081,-97.751931,2.790788,17.133455
46653,NaN,-0.896100,-9.598922,-1.495199,-0.340139,-0.296582,-0.067215,-0.070895,0.007977,0.202854,-0.647047,0.747375,0.095594,-0.116713,-97.792772,2.908975,17.115872
46654,NaN,-0.917311,-9.572450,-1.458660,-0.354569,-0.260361,-0.096340,-0.055289,-0.004089,0.192750,-0.646723,0.747640,0.094914,-0.117364,-97.824455,3.022379,17.105751
46655,NaN,-0.733504,-9.636794,-1.556209,-0.133234,-0.278401,-0.028398,-0.059067,-0.016664,0.177504,-0.646389,0.747901,0.094335,-0.118012,-97.857739,3.128089,17.104019
46656,NaN,-0.740102,-9.699821,-1.607824,-0.108208,-0.310478,0.041816,-0.034313,-0.016814,0.160348,-0.646155,0.748074,0.093805,-0.118616,-97.876906,3.224091,17.103558
46657,NaN,-0.715635,-9.590751,-1.472310,-0.112038,-0.184239,-0.085621,-0.019470,-0.024484,0.153941,-0.645977,0.748190,0.093316,-0.119235,-97.887157,3.317042,17.108050
46658,NaN,-0.563115,-9.740507,-1.522319,0.064531,-0.157697,0.060659,-0.033033,-0.030286,0.140916,-0.645753,0.748341,0.092901,-0.119827,-97.905056,3.403076,17.116732
46659,NaN,-0.539161,-9.727022,-1.445133,0.077100,-0.074196,0.035287,-0.001147,-0.021891,0.127201,-0.645660,0.748386,0.092492,-0.120358,-97.904761,3.480649,17.121823
46660,NaN,-0.656401,-9.621235,-1.396422,-0.038829,-0.074857,-0.068874,0.002118,-0.025455,0.116926,-0.645583,0.748414,0.092131,-0.120871,-97.902550,3.552689,17.129641
46661,NaN,-0.687889,-9.608916,-1.403541,-0.055467,-0.089416,-0.078043,-0.001474,-0.034595,0.109019,-0.645494,0.748444,0.091831,-0.121391,-97.901890,3.620944,17.143393
46662,NaN,-0.605011,-9.624769,-1.362205,0.022234,-0.020304,-0.073236,-0.003876,-0.033977,0.102058,-0.645400,0.748479,0.091557,-0.121885,-97.902710,3.685217,17.157234
46663,NaN,-0.629633,-9.630188,-1.331658,-0.000192,0.005298,-0.070499,-0.002530,-0.025813,0.096851,-0.645317,0.748511,0.091275,-0.122332,-97.902887,3.745875,17.166953
46664,NaN,-0.745320,-9.589168,-1.218736,-0.135684,0.074329,-0.118926,0.004684,-0.014145,0.092980,-0.645269,0.748526,0.090965,-0.122726,-97.899468,3.803433,17.170234
46665,NaN,-0.738451,-9.683095,-1.249433,-0.108850,0.064325,-0.022247,-0.007822,-0.008949,0.085506,-0.645181,0.748581,0.090674,-0.123071,-97.903238,3.856326,17.171263
46666,NaN,-0.655653,-9.628441,-1.331735,0.001707,0.005495,-0.070499,0.001452,-0.014504,0.074653,-0.645132,0.748597,0.090436,-0.123406,-97.901553,3.903512,17.176195
46667,NaN,-0.759741,-9.563534,-1.287762,-0.104946,0.008778,-0.133554,-0.004607,-0.009050,0.069392,-0.645066,0.748633,0.090204,-0.123701,-97.903387,3.947268,17.178554
46668,NaN,-0.896201,-9.605326,-1.242020,-0.241233,0.020431,-0.089033,-0.005323,-0.014699,0.059224,-0.645000,0.748664,0.090028,-0.123983,-97.905485,3.985714,17.184814
46669,NaN,-1.076398,-9.528916,-1.291786,-0.394312,-0.088988,-0.145000,-0.010852,-0.026063,0.046735,-0.644917,0.748700,0.089940,-0.124266,-97.910093,4.017955,17.198645
46670,NaN,-1.039152,-9.474725,-1.321201,-0.347170,-0.111346,-0.196925,-0.024011,-0.030774,0.031816,-0.644791,0.748769,0.089930,-0.124512,-97.922097,4.042117,17.216211
46671,NaN,-0.931381,-9.520836,-1.376816,-0.223727,-0.121996,-0.151193,-0.027251,-0.034604,0.019290,-0.644659,0.748839,0.089982,-0.124731,-97.935591,4.059470,17.237073
46672,NaN,-0.920155,-9.490699,-1.366856,-0.215160,-0.111334,-0.183064,-0.020951,-0.022733,0.008662,-0.644562,0.748893,0.090031,-0.124874,-97.946026,4.069863,17.251893
46673,NaN,-0.918793,-9.549640,-1.224319,-0.254979,0.034720,-0.144568,-0.028134,-0.028620,-0.003726,-0.644445,0.748959,0.090151,-0.124996,-97.960131,4.073694,17.271179
46674,NaN,-0.951602,-9.656158,-1.224765,-0.283936,0.043135,-0.036978,-0.028839,-0.034663,-0.015446,-0.644328,0.749020,0.090333,-0.125102,-97.974465,4.071362,17.294699
46675,NaN,-0.978456,-9.490422,-1.208331,-0.320694,0.027094,-0.201133,-0.030936,-0.041902,-0.033586,-0.644212,0.749074,0.090609,-0.125176,-97.989471,4.059320,17.323929
46676,NaN,-0.969288,-9.484121,-1.382173,-0.262675,-0.132908,-0.183990,-0.045032,-0.049451,-0.047856,-0.644049,0.749162,0.090971,-0.125226,-98.012315,4.039793,17.358453
46677,NaN,-0.887736,-9.637280,-1.438111,-0.168769,-0.135165,-0.030732,-0.048960,-0.048427,-0.055069,-0.643876,0.749260,0.091360,-0.125248,-98.037283,4.016111,17.393132
46678,NaN,-0.816325,-9.601241,-1.403586,-0.117739,-0.084647,-0.076198,-0.041468,-0.043831,-0.067027,-0.643740,0.749332,0.091773,-0.125216,-98.058230,3.985285,17.426014
46679,NaN,-0.723691,-9.577007,-1.361349,-0.049435,-0.019523,-0.112520,-0.037362,-0.044146,-0.076422,-0.643625,0.749385,0.092221,-0.125158,-98.076637,3.949173,17.459997
46680,NaN,-0.892861,-9.489796,-1.391015,-0.210086,-0.110921,-0.182947,-0.030039,-0.054199,-0.081410,-0.643536,0.749406,0.092714,-0.125124,-98.090591,3.911044,17.499953
46681,NaN,-0.857237,-9.465937,-1.434132,-0.170873,-0.143872,-0.203023,-0.045068,-0.064206,-0.093471,-0.643394,0.749463,0.093295,-0.125083,-98.112592,3.866903,17.546742
46682,NaN,-0.680224,-9.753934,-1.552085,0.031886,-0.155806,0.086081,-0.044804,-0.073551,-0.091075,-0.643246,0.749515,0.093896,-0.125083,-98.134271,3.824886,17.598506
46683,NaN,-0.507411,-9.651948,-1.437811,0.150863,-0.011529,-0.042224,-0.025776,-0.056453,-0.098483,-0.643182,0.749512,0.094459,-0.125006,-98.145555,3.777305,17.641320
46684,NaN,-0.398978,-9.609515,-1.403855,0.234623,0.046186,-0.095919,-0.024059,-0.048758,-0.092009,-0.643124,0.749512,0.094970,-0.124920,-98.156348,3.732769,17.679083
46685,NaN,-0.429346,-9.698756,-1.441752,0.211559,0.014445,-0.000252,-0.016433,-0.038349,-0.087308,-0.643096,0.749494,0.095427,-0.124815,-98.163071,3.690065,17.710702
46686,NaN,-0.433756,-9.740368,-1.476374,0.211890,-0.014133,0.046192,-0.011127,-0.034685,-0.079494,-0.643085,0.749467,0.095838,-0.124723,-98.167087,3.651491,17.739454
46687,NaN,-0.427380,-9.574496,-1.539864,0.228784,-0.099289,-0.108945,0.001619,-0.029084,-0.074758,-0.643122,0.749404,0.096207,-0.124632,-98.163911,3.615151,17.764778
46688,NaN,-0.399845,-9.533869,-1.366501,0.195305,0.063972,-0.175280,-0.003489,-0.013827,-0.059327,-0.643136,0.749374,0.096471,-0.124530,-98.164433,3.586317,17.780030
46689,NaN,-0.176572,-9.732047,-1.306343,0.387453,0.218429,-0.001846,-0.014957,-0.016269,-0.049924,-0.643101,0.749384,0.096715,-0.124463,-98.171363,3.563016,17.796039
46690,NaN,-0.125998,-9.772952,-1.255174,0.416818,0.287951,0.028312,-0.003128,-0.016221,-0.035674,-0.643101,0.749363,0.096898,-0.124447,-98.171725,3.547794,17.810725
46691,NaN,-0.317965,-9.646487,-1.164858,0.202667,0.294246,-0.097491,-0.001206,-0.003949,-0.017202,-0.643103,0.749352,0.096972,-0.124445,-98.171383,3.542041,17.817055
46692,NaN,-0.343416,-9.694205,-1.168528,0.179916,0.291191,-0.048270,-0.020030,-0.012234,-0.000456,-0.643020,0.749405,0.097020,-0.124519,-98.181750,3.546469,17.826601
46693,NaN,-0.305429,-9.757680,-1.301235,0.258932,0.190071,0.030871,-0.021039,-0.000370,0.012913,-0.642931,0.749474,0.096982,-0.124591,-98.193047,3.557501,17.828434
46694,NaN,-0.516517,-9.625634,-1.159792,0.014058,0.239926,-0.106659,-0.005946,0.008498,0.020324,-0.642897,0.749505,0.096877,-0.124661,-98.196179,3.572023,17.824498
46695,NaN,-0.609294,-9.437189,-1.184113,-0.067131,0.161878,-0.283617,-0.027162,0.000056,0.027026,-0.642777,0.749601,0.096788,-0.124774,-98.211070,3.591023,17.824928
46696,NaN,-0.522268,-9.611372,-1.395243,0.086292,0.021850,-0.086948,-0.053736,0.002282,0.037136,-0.642550,0.749790,0.096670,-0.124897,-98.241452,3.615586,17.823135
46697,NaN,-0.455966,-9.709924,-1.426125,0.163380,0.033749,0.010577,-0.032922,0.019332,0.044686,-0.642406,0.749925,0.096457,-0.124992,-98.260427,3.643014,17.811144
46698,NaN,-0.398066,-9.537266,-1.326141,0.188126,0.122980,-0.178060,-0.032772,0.044045,0.051684,-0.642270,0.750079,0.096137,-0.125016,-98.280391,3.672383,17.784403
46699,NaN,-0.422289,-9.613923,-1.316363,0.167200,0.141992,-0.102356,-0.043725,0.042243,0.057693,-0.642088,0.750269,0.095808,-0.125061,-98.306479,3.705280,17.758292
46700,NaN,-0.445566,-9.636493,-1.391894,0.173403,0.073264,-0.067820,-0.039176,0.037968,0.065770,-0.641915,0.750447,0.095459,-0.125150,-98.329996,3.743116,17.733806
46701,NaN,-0.497812,-9.760694,-1.385329,0.129155,0.089121,0.057139,-0.042607,0.034217,0.072969,-0.641724,0.750635,0.095098,-0.125275,-98.355264,3.785315,17.710947
46702,NaN,-0.726758,-9.720803,-1.446053,-0.064487,-0.038287,0.041633,-0.024310,0.023274,0.070841,-0.641596,0.750758,0.094768,-0.125442,-98.369775,3.827231,17.694355
46703,NaN,-0.647448,-9.606440,-1.424490,0.007953,-0.006674,-0.079654,-0.044813,0.009663,0.070672,-0.641386,0.750937,0.094495,-0.125651,-98.395393,3.870163,17.685605
46704,NaN,-0.525091,-9.869081,-1.559146,0.176594,-0.047642,0.190909,-0.048397,0.013702,0.069344,-0.641165,0.751130,0.094216,-0.125838,-98.423354,3.912018,17.674540
46705,NaN,-0.690296,-9.746280,-1.495417,0.002728,-0.052369,0.071643,-0.016065,0.019204,0.057855,-0.641075,0.751216,0.093943,-0.125983,-98.432815,3.946876,17.661411
46706,NaN,-1.023490,-9.577692,-1.461070,-0.323025,-0.144721,-0.076716,-0.014787,0.011138,0.053405,-0.640989,0.751292,0.093711,-0.126144,-98.441341,3.979909,17.653124
46707,NaN,-1.065320,-9.599927,-1.563162,-0.326409,-0.246196,-0.036705,-0.028626,-0.005727,0.041502,-0.640850,0.751395,0.093587,-0.126325,-98.456933,4.007596,17.655528
46708,NaN,-0.788595,-9.702578,-1.610755,-0.043329,-0.187009,0.052382,-0.025219,0.001533,0.028511,-0.640735,0.751487,0.093486,-0.126437,-98.470915,4.027326,17.654787
46709,NaN,-0.892892,-9.709360,-1.584243,-0.148545,-0.190503,0.062555,-0.003508,0.014059,0.012631,-0.640719,0.751508,0.093391,-0.126463,-98.472734,4.036985,17.648385
46710,NaN,-1.081557,-9.421897,-1.496147,-0.360202,-0.211445,-0.220716,0.015996,0.015154,0.001025,-0.640783,0.751463,0.093324,-0.126455,-98.463484,4.039990,17.642229
46711,NaN,-0.886447,-9.497830,-1.420736,-0.196264,-0.068937,-0.170604,-0.024480,0.004502,-0.005047,-0.640694,0.751538,0.093339,-0.126450,-98.476833,4.040441,17.642757
46712,NaN,-0.567824,-9.819376,-1.514832,0.141660,-0.007517,0.138050,-0.013704,0.014858,-0.016474,-0.640657,0.751580,0.093357,-0.126374,-98.484483,4.033553,17.638250
46713,NaN,-0.791392,-9.491883,-1.339331,-0.133352,0.036502,-0.195160,0.013418,0.023607,-0.014461,-0.640726,0.751541,0.093323,-0.126285,-98.476825,4.027056,17.628722
46714,NaN,-0.782620,-9.444243,-1.365259,-0.119062,0.007029,-0.238977,-0.019011,0.008505,-0.015398,-0.640665,0.751596,0.093361,-0.126234,-98.487267,4.021314,17.627733
46715,NaN,-0.444881,-9.754123,-1.409609,0.220898,0.119239,0.049605,-0.026291,0.018151,-0.011890,-0.640580,0.751682,0.093359,-0.126154,-98.502156,4.016736,17.621092
46716,NaN,-0.337098,-9.652590,-1.378656,0.310481,0.165571,-0.062661,-0.002796,0.048367,-0.007298,-0.640594,0.751714,0.093228,-0.125987,-98.504941,4.012206,17.596774
46717,NaN,-0.478862,-9.573325,-1.177593,0.111332,0.299248,-0.160608,-0.005309,0.064109,0.000087,-0.640602,0.751767,0.093022,-0.125783,-98.509706,4.010513,17.563003
46718,NaN,-0.609331,-9.578786,-1.319910,0.031089,0.128579,-0.125113,-0.021452,0.034262,0.005950,-0.640531,0.751857,0.092898,-0.125702,-98.522697,4.014681,17.545572
46719,NaN,-0.507374,-9.749243,-1.309619,0.129192,0.199419,0.034333,-0.029721,0.022070,0.019695,-0.640415,0.751971,0.092768,-0.125708,-98.539895,4.027656,17.534010
46720,NaN,-0.610050,-9.690209,-1.347276,0.043461,0.126209,-0.011175,-0.011202,0.018369,0.020716,-0.640366,0.752024,0.092633,-0.125739,-98.546474,4.041536,17.524344
46721,NaN,-0.707831,-9.560227,-1.366996,-0.043922,0.059523,-0.129601,-0.021383,0.004362,0.031435,-0.640266,0.752105,0.092510,-0.125853,-98.558260,4.062666,17.521831
46722,NaN,-0.748795,-9.659985,-1.427584,-0.059054,0.009726,-0.019301,-0.024928,-0.012136,0.033530,-0.640143,0.752189,0.092433,-0.126033,-98.571557,4.086406,17.528390
46723,NaN,-0.511394,-9.610643,-1.364000,0.149568,0.136571,-0.094382,-0.033090,-0.025887,0.041090,-0.639979,0.752294,0.092378,-0.126286,-98.588884,4.115591,17.542222
46724,NaN,-0.361885,-9.751857,-1.284963,0.274734,0.283492,0.022197,-0.034434,-0.016653,0.050203,-0.639807,0.752413,0.092259,-0.126532,-98.607540,4.149167,17.549901
46725,NaN,-0.537043,-9.604080,-1.318099,0.120049,0.180248,-0.106130,-0.032396,-0.022646,0.061746,-0.639634,0.752526,0.092115,-0.126840,-98.624716,4.189780,17.560094
46726,NaN,-0.482462,-9.650119,-1.322195,0.180158,0.206274,-0.064315,-0.049904,-0.023089,0.071738,-0.639387,0.752700,0.091945,-0.127172,-98.652095,4.236113,17.569547
46727,NaN,-0.400894,-9.760746,-1.347031,0.274690,0.232957,0.042141,-0.051447,-0.007619,0.085889,-0.639133,0.752895,0.091675,-0.127491,-98.680962,4.289111,17.569078
46728,NaN,-0.305621,-9.775834,-1.423074,0.396514,0.200592,0.060914,-0.056478,0.010735,0.094080,-0.638863,0.753121,0.091317,-0.127764,-98.713686,4.345177,17.557332
46729,NaN,-0.494276,-9.729448,-1.347513,0.201020,0.214596,0.017663,-0.037666,0.028550,0.109565,-0.638662,0.753305,0.090833,-0.128028,-98.736387,4.408433,17.534194
46730,NaN,-0.627405,-9.633890,-1.351442,0.082679,0.162769,-0.065969,-0.055250,0.011885,0.120273,-0.638379,0.753540,0.090372,-0.128381,-98.768666,4.479221,17.519449
46731,NaN,-0.499750,-9.766330,-1.474765,0.256106,0.117082,0.072987,-0.064766,0.010903,0.131178,-0.638054,0.753808,0.089880,-0.128769,-98.806316,4.556232,17.504361
46732,NaN,-0.641415,-9.729446,-1.475812,0.131806,0.076740,0.047752,-0.046990,0.016228,0.134842,-0.637795,0.754025,0.089345,-0.129156,-98.834209,4.634869,17.485777
46733,NaN,-0.876028,-9.685223,-1.538333,-0.061685,-0.050968,0.032668,-0.051147,0.003009,0.136083,-0.637513,0.754246,0.088851,-0.129595,-98.863775,4.715334,17.474649
46734,NaN,-0.999568,-9.597921,-1.674439,-0.128008,-0.222588,-0.022028,-0.032918,-0.008452,0.132373,-0.637297,0.754401,0.088395,-0.130073,-98.882483,4.794737,17.470227
46735,NaN,-1.159268,-9.470449,-1.721056,-0.257760,-0.329303,-0.126592,-0.029908,-0.027826,0.124251,-0.637089,0.754528,0.088029,-0.130599,-98.898353,4.871228,17.477607
46736,NaN,-1.147033,-9.661514,-1.868753,-0.182519,-0.425311,0.083704,-0.020760,-0.032575,0.116398,-0.636917,0.754620,0.087702,-0.131123,-98.908816,4.943725,17.488269
46737,NaN,-1.491885,-9.523695,-1.784773,-0.529730,-0.470599,-0.034660,0.021031,-0.047282,0.095845,-0.636911,0.754559,0.087473,-0.131655,-98.894309,5.005866,17.509220
46738,NaN,-1.998093,-9.147118,-1.414610,-1.128569,-0.340554,-0.417283,0.027718,-0.073830,0.076628,-0.636930,0.754452,0.087395,-0.132228,-98.874604,5.059498,17.546884
46739,NaN,-1.870842,-9.100069,-1.377537,-1.012421,-0.275503,-0.479520,-0.016441,-0.120705,0.057796,-0.636775,0.754445,0.087568,-0.132900,-98.877528,5.106594,17.612993
46740,NaN,-1.228806,-9.631322,-1.685861,-0.279987,-0.276520,0.034119,-0.024703,-0.124596,0.044859,-0.636595,0.754456,0.087807,-0.133541,-98.884965,5.146731,17.682341
46741,NaN,-1.307031,-9.678695,-1.300552,-0.466482,0.068942,0.028783,0.042144,-0.081081,0.038511,-0.636690,0.754280,0.087887,-0.134027,-98.856099,5.179413,17.727666
46742,NaN,-1.468622,-9.446462,-0.952417,-0.731108,0.302473,-0.238056,0.045616,-0.057220,0.046141,-0.636803,0.754113,0.087859,-0.134449,-98.826638,5.214294,17.758635
46743,NaN,-1.315047,-9.639564,-1.145318,-0.509514,0.199368,-0.031944,0.039192,-0.040016,0.067705,-0.636886,0.753986,0.087700,-0.134872,-98.801760,5.259865,17.778097
46744,NaN,-0.795376,-9.756807,-1.148623,-0.001358,0.372013,0.036619,0.066558,0.005997,0.088447,-0.637077,0.753813,0.087298,-0.135199,-98.763903,5.313139,17.769440
46745,NaN,-0.233882,-9.844725,-1.221390,0.568521,0.486319,0.082026,0.066204,0.049542,0.097454,-0.637280,0.753673,0.086723,-0.135391,-98.728486,5.367736,17.735431
46746,NaN,0.030292,-9.835486,-1.297189,0.853960,0.490323,0.059026,0.070361,0.092249,0.108717,-0.637509,0.753554,0.085967,-0.135459,-98.693241,5.425016,17.676007
46747,NaN,-0.233381,-9.707549,-1.365667,0.631889,0.321665,-0.032439,0.057101,0.134305,0.128493,-0.637692,0.753513,0.085011,-0.135427,-98.667947,5.489891,17.591115
46748,NaN,-0.409519,-9.591629,-1.455326,0.500214,0.164162,-0.116923,0.039442,0.173332,0.150290,-0.637809,0.753564,0.083860,-0.135309,-98.655339,5.563774,17.481982
46749,NaN,-0.435703,-9.435627,-1.565208,0.514833,0.028225,-0.252096,0.015821,0.189207,0.157504,-0.637839,0.753702,0.082648,-0.135144,-98.657207,5.640374,17.363320
46750,NaN,-0.601179,-9.551555,-1.506849,0.357405,0.058344,-0.131104,-0.007087,0.191702,0.164795,-0.637777,0.753917,0.081415,-0.134983,-98.672713,5.720881,17.242439
46751,NaN,-0.841469,-9.647426,-1.462356,0.132741,0.051798,-0.019880,-0.002627,0.196338,0.169115,-0.637731,0.754121,0.080149,-0.134821,-98.686000,5.803387,17.118632
46752,NaN,-1.084554,-9.573741,-1.620634,-0.041208,-0.174387,-0.044007,-0.013164,0.172500,0.165880,-0.637636,0.754341,0.078977,-0.134732,-98.704237,5.886108,17.008511
46753,NaN,-0.968638,-9.266627,-1.618209,0.063882,-0.184590,-0.358108,-0.029667,0.111443,0.151432,-0.637464,0.754565,0.078066,-0.134823,-98.728231,5.965891,16.934494
46754,NaN,-0.788648,-9.358622,-1.568077,0.235394,-0.059776,-0.293988,-0.076875,0.074158,0.139743,-0.637106,0.754910,0.077349,-0.134997,-98.777191,6.042275,16.882546
46755,NaN,-1.003674,-9.494442,-1.507299,0.029864,-0.029574,-0.147184,-0.073200,0.059526,0.138790,-0.636757,0.755232,0.076680,-0.135225,-98.823094,6.119340,16.839060
46756,NaN,-1.335418,-9.516356,-1.676391,-0.223066,-0.269450,-0.064237,-0.067914,0.029635,0.138434,-0.636415,0.755517,0.076104,-0.135567,-98.864342,6.198823,16.812444
46757,NaN,-1.330597,-9.395381,-1.689836,-0.210651,-0.292421,-0.181004,-0.058993,-0.007491,0.126955,-0.636102,0.755742,0.075683,-0.136016,-98.897978,6.275057,16.808053
46758,NaN,-1.030782,-9.598020,-1.660585,0.087660,-0.133551,-0.018990,-0.057735,-0.013999,0.108856,-0.635802,0.755953,0.075350,-0.136432,-98.930453,6.341639,16.808822
46759,NaN,-0.837816,-9.786399,-1.641367,0.286034,-0.018599,0.141581,-0.034397,0.000428,0.104203,-0.635599,0.756097,0.074974,-0.136788,-98.950293,6.404286,16.801878
46760,NaN,-1.224228,-9.719936,-1.659473,-0.070843,-0.154244,0.122146,0.003602,-0.004102,0.089025,-0.635547,0.756111,0.074642,-0.137126,-98.948060,6.458762,16.798748
46761,NaN,-1.568732,-9.447347,-1.672968,-0.402409,-0.313819,-0.104356,0.020154,-0.007221,0.078109,-0.635565,0.756066,0.074352,-0.137449,-98.935905,6.507320,16.798491
46762,NaN,-1.346772,-9.437338,-1.614925,-0.201888,-0.197266,-0.148038,0.020478,-0.022814,0.055510,-0.635594,0.756002,0.074195,-0.137758,-98.922454,6.544491,16.809040
46763,NaN,-1.209223,-9.725142,-1.676697,-0.028414,-0.164890,0.128335,0.029155,-0.022879,0.033169,-0.635671,0.755900,0.074117,-0.138000,-98.903663,6.569006,16.821751
46764,NaN,-1.589286,-9.648008,-1.666291,-0.392997,-0.282580,0.094487,0.075060,-0.018817,0.016574,-0.635934,0.755650,0.074057,-0.138190,-98.858789,6.583774,16.833521
46765,NaN,-1.922447,-9.468415,-1.514508,-0.763563,-0.274248,-0.066807,0.055960,-0.037448,-0.003761,-0.636132,0.755440,0.074147,-0.138380,-98.823304,6.588651,16.857844
46766,NaN,-1.766275,-9.791071,-1.747793,-0.522323,-0.397585,0.267426,0.068671,-0.032819,-0.035169,-0.636401,0.755181,0.074331,-0.138456,-98.780648,6.575333,16.882182
46767,NaN,-2.138499,-9.642028,-1.524247,-0.954638,-0.330987,0.129360,0.090424,-0.041300,-0.067450,-0.636772,0.754835,0.074650,-0.138470,-98.724537,6.544454,16.914310
46768,NaN,-2.114796,-9.493674,-1.790374,-0.864621,-0.612093,0.020187,0.076470,-0.055154,-0.108315,-0.637112,0.754508,0.075176,-0.138401,-98.675274,6.491601,16.957734
46769,NaN,-1.935238,-9.585670,-1.813090,-0.688976,-0.578124,0.092290,0.101157,-0.037564,-0.151730,-0.637582,0.754097,0.075794,-0.138137,-98.612498,6.412614,16.994992
46770,NaN,-1.900774,-9.652906,-1.628957,-0.719603,-0.399507,0.125499,0.126351,-0.022836,-0.192703,-0.638180,0.753601,0.076501,-0.137695,-98.536025,6.309095,17.027116
46771,NaN,-1.899985,-9.658285,-1.644029,-0.728448,-0.432232,0.131041,0.147623,-0.018663,-0.228060,-0.638884,0.753024,0.077313,-0.137134,-98.447249,6.185168,17.059883
46772,NaN,-2.053984,-9.686788,-1.426915,-0.957158,-0.290819,0.141608,0.166570,-0.019262,-0.272314,-0.639687,0.752368,0.078281,-0.136440,-98.347411,6.036127,17.096332
46773,NaN,-1.777894,-9.770253,-1.558175,-0.671573,-0.343870,0.211149,0.149617,-0.016791,-0.310737,-0.640452,0.751750,0.079397,-0.135608,-98.257100,5.865078,17.134499
46774,NaN,-1.307973,-9.963101,-1.734373,-0.185997,-0.366183,0.376199,0.189598,0.047610,-0.339461,-0.641410,0.751035,0.080387,-0.134455,-98.147615,5.672370,17.137816
46775,NaN,-1.095021,-9.920989,-1.542360,-0.072390,-0.159271,0.285491,0.206241,0.098312,-0.360302,-0.642463,0.750288,0.081281,-0.133054,-98.031154,5.463793,17.113738
46776,NaN,-0.991675,-9.869962,-1.440060,-0.037348,-0.072519,0.210611,0.234190,0.123413,-0.376848,-0.643638,0.749458,0.082137,-0.131514,-97.899971,5.243839,17.076033
46777,NaN,-0.796541,-9.753803,-1.396512,0.099795,-0.026147,0.072179,0.240333,0.107912,-0.385196,-0.644832,0.748591,0.083071,-0.130008,-97.764193,5.020494,17.047511
46778,NaN,-0.589313,-9.861734,-1.506144,0.304590,-0.086247,0.175764,0.238455,0.116752,-0.385638,-0.646020,0.747732,0.083978,-0.128465,-97.629977,4.796239,17.013272
46779,NaN,-0.742639,-9.807384,-1.272045,0.056611,0.046949,0.104410,0.271236,0.147848,-0.366789,-0.647328,0.746790,0.084693,-0.126882,-97.478336,4.580479,16.959522
46780,NaN,-0.566703,-9.681747,-1.175724,0.162760,0.136817,-0.045685,0.231010,0.147097,-0.360484,-0.648477,0.745977,0.085412,-0.125302,-97.349707,4.368443,16.905034
46781,NaN,-0.430108,-10.022324,-1.070007,0.245688,0.293224,0.268502,0.238006,0.150919,-0.350520,-0.649645,0.745144,0.086077,-0.123744,-97.216999,4.161960,16.847355
46782,NaN,-0.629904,-9.962484,-0.956170,-0.007706,0.302775,0.210797,0.225280,0.140552,-0.335701,-0.650749,0.744349,0.086727,-0.122266,-97.091192,3.964730,16.793890
46783,NaN,-0.513911,-10.144455,-1.025351,0.102807,0.265021,0.392433,0.216405,0.136504,-0.323789,-0.651808,0.743582,0.087351,-0.120838,-96.970092,3.774713,16.741662
46784,NaN,-0.589722,-10.322718,-1.051583,0.017128,0.212103,0.578014,0.211844,0.140217,-0.315093,-0.652844,0.742833,0.087933,-0.119421,-96.851759,3.589455,16.686149
46785,NaN,-0.839461,-10.429341,-1.131040,-0.222080,0.048870,0.708874,0.212381,0.150248,-0.320684,-0.653887,0.742083,0.088503,-0.117950,-96.733157,3.400492,16.625109
46786,NaN,-1.383414,-10.671774,-1.324912,-0.708773,-0.288276,1.002598,0.174949,0.114486,-0.330168,-0.654778,0.741427,0.089246,-0.116562,-96.634736,3.208593,16.584558
46787,NaN,-1.590846,-11.665551,-0.634992,-1.119812,0.403905,1.917691,0.181167,0.072745,-0.376077,-0.655698,0.740703,0.090293,-0.115182,-96.531046,2.993424,16.570682
46788,NaN,-1.907229,-11.507360,-0.881244,-1.392935,0.026859,1.801623,0.177464,0.038465,-0.429918,-0.656616,0.739943,0.091652,-0.113749,-96.428416,2.749799,16.579254
46789,NaN,-2.031647,-11.766117,-1.268667,-1.442394,-0.381537,2.101682,0.185398,0.078976,-0.493622,-0.657615,0.739147,0.093110,-0.111961,-96.322023,2.467375,16.568577
46790,NaN,-2.617983,-11.725084,-1.303548,-2.048735,-0.627872,2.080111,0.228207,0.092958,-0.582433,-0.658822,0.738170,0.094824,-0.109847,-96.191308,2.133451,16.554666
46791,NaN,-2.973270,-12.017442,-1.582359,-2.373300,-1.008038,2.398526,0.223962,0.116838,-0.679105,-0.660071,0.737166,0.096819,-0.107326,-96.063071,1.743123,16.532583
46792,NaN,-3.283987,-12.115420,-1.806722,-2.686607,-1.353913,2.507226,0.294778,0.178266,-0.802735,-0.661666,0.735890,0.099026,-0.104200,-95.894998,1.278642,16.481583
46793,NaN,-3.531428,-12.218895,-1.769681,-3.029720,-1.441898,2.582656,0.326678,0.234116,-0.927449,-0.663457,0.734459,0.101490,-0.100473,-95.708504,0.740135,16.404875
46794,NaN,-3.705810,-12.253311,-1.628722,-3.346435,-1.425141,2.568669,0.374157,0.261279,-1.052023,-0.665479,0.732800,0.104293,-0.096251,-95.494269,0.129208,16.317436
46795,NaN,-3.701151,-12.322223,-1.564566,-3.484003,-1.436516,2.588100,0.396290,0.242171,-1.173578,-0.667608,0.730968,0.107592,-0.091706,-95.266259,-0.549498,16.245480
46796,NaN,-3.171293,-11.998703,-1.673266,-3.065767,-1.507680,2.235191,0.430131,0.185343,-1.278171,-0.669848,0.728910,0.111442,-0.087031,-95.018689,-1.284857,16.208095
46797,NaN,-2.181976,-11.719838,-1.914070,-2.172157,-1.576102,1.959080,0.435557,0.129841,-1.332357,-0.672069,0.726744,0.115668,-0.082379,-94.768256,-2.048021,16.202331
46798,NaN,-0.946866,-11.281899,-2.546595,-0.921492,-1.964188,1.587024,0.507485,0.105379,-1.356045,-0.674513,0.724277,0.120026,-0.077770,-94.477186,-2.823791,16.207549
46799,NaN,-0.193004,-10.142827,-2.803676,-0.174753,-2.165296,0.485555,0.524713,0.117644,-1.367444,-0.676996,0.721710,0.124373,-0.073089,-94.175564,-3.606350,16.202727
46800,NaN,0.621174,-9.525726,-2.980997,0.587364,-2.226046,-0.080793,0.450205,0.154314,-1.338067,-0.679186,0.719391,0.128508,-0.068320,-93.914909,-4.373836,16.171351
46801,NaN,1.276618,-8.931296,-2.930957,1.146658,-2.098190,-0.632835,0.429713,0.186425,-1.308276,-0.681281,0.717136,0.132429,-0.063525,-93.663547,-5.125093,16.117410
46802,NaN,2.058401,-8.348580,-2.723917,1.797349,-1.773014,-1.153569,0.381330,0.195159,-1.260283,-0.683161,0.715047,0.136157,-0.058823,-93.438386,-5.849249,16.053078
46803,NaN,1.966120,-7.918051,-2.406421,1.580857,-1.567339,-1.603215,0.370284,0.201256,-1.185156,-0.684955,0.713020,0.139593,-0.054349,-93.217722,-6.530139,15.980202
46804,NaN,0.397599,-7.296582,-1.434976,-0.178704,-1.128939,-2.453997,0.351400,0.071462,-1.087665,-0.686540,0.711064,0.143126,-0.050653,-93.015366,-7.151179,15.976037
46805,NaN,-2.414576,-6.414711,0.229850,-3.251067,-0.355946,-3.784843,0.266665,-0.423968,-1.029568,-0.687432,0.709292,0.148170,-0.048859,-92.898015,-7.724092,16.254626
46806,NaN,-2.150862,-5.573563,-2.028857,-2.295519,-2.499164,-4.493690,-0.072012,-1.282831,-0.871601,-0.686416,0.708559,0.155681,-0.050397,-93.045318,-8.181271,17.024818
46807,NaN,-2.775181,-5.571409,-2.730837,-2.679746,-3.382514,-4.561295,-0.120709,-1.568149,-0.559714,-0.684883,0.708117,0.163070,-0.053980,-93.248000,-8.448441,17.952577
46808,NaN,-2.505488,-5.160592,-2.058428,-2.538992,-2.691000,-4.969316,-0.212824,-1.603025,-0.353244,-0.682891,0.708101,0.169859,-0.058310,-93.509004,-8.592896,18.894624
46809,NaN,-1.644083,-4.939256,-2.076214,-1.666301,-2.447580,-5.054258,-0.265386,-1.555510,-0.149174,-0.680650,0.708404,0.175769,-0.063124,-93.796335,-8.617622,19.803007
46810,NaN,-1.622261,-4.827183,-2.210940,-1.551983,-2.568056,-5.141713,-0.289364,-1.389713,0.118168,-0.678345,0.709036,0.180165,-0.068232,-94.080832,-8.491892,20.604459
46811,NaN,-1.753253,-4.786581,-2.061980,-1.679130,-2.467314,-5.194276,-0.304947,-1.175739,0.410035,-0.676048,0.710024,0.182797,-0.073559,-94.351449,-8.204219,21.269319
46812,NaN,-1.959336,-4.965736,-1.727629,-1.972137,-2.212436,-5.048468,-0.337047,-0.986449,0.696817,-0.673676,0.711423,0.183776,-0.079146,-94.619061,-7.758474,21.809578
46813,NaN,-1.931426,-5.335938,-1.333993,-2.096041,-1.805183,-4.681437,-0.364759,-0.831801,0.966282,-0.671212,0.713195,0.183279,-0.085067,-94.884051,-7.163355,22.245611
46814,NaN,-1.828632,-5.790243,-0.973495,-2.142863,-1.385584,-4.217488,-0.383778,-0.711614,1.191613,-0.668663,0.715253,0.181573,-0.091289,-95.145091,-6.444040,22.597324
46815,NaN,-1.982699,-6.259565,-0.633958,-2.406550,-1.069111,-3.764556,-0.404128,-0.634597,1.387167,-0.665983,0.717551,0.178910,-0.097871,-95.406891,-5.615221,22.891186
46816,NaN,-2.138041,-6.823502,-0.295585,-2.666255,-0.737001,-3.212264,-0.422982,-0.622978,1.556059,-0.663117,0.720019,0.175599,-0.104945,-95.673248,-4.689800,23.164207
46817,NaN,-2.272294,-7.411765,0.029566,-2.883513,-0.393426,-2.627456,-0.438842,-0.684055,1.708464,-0.660005,0.722581,0.171937,-0.112727,-95.945569,-3.672249,23.459125
46818,NaN,-2.264023,-8.075934,0.204888,-2.896256,-0.109538,-1.939554,-0.464658,-0.777593,1.834177,-0.656585,0.725214,0.168125,-0.121223,-96.229533,-2.576424,23.793872
46819,NaN,-2.101180,-8.746287,0.379406,-2.741871,0.255427,-1.241172,-0.476287,-0.891661,1.936695,-0.652890,0.727819,0.164306,-0.130452,-96.515307,-1.412832,24.182013
46820,NaN,-1.786745,-9.257649,0.307228,-2.313806,0.463947,-0.679287,-0.481566,-1.015205,2.015580,-0.648940,0.730334,0.160584,-0.140361,-96.796980,-0.194725,24.628589
46821,NaN,-1.470094,-9.845417,0.201098,-1.850799,0.673398,-0.053008,-0.503279,-1.109299,2.081750,-0.644697,0.732803,0.156921,-0.150798,-97.080954,1.070244,25.118812
46822,NaN,-1.282080,-10.585511,-0.033637,-1.429023,0.756962,0.726685,-0.490965,-1.155490,2.127954,-0.640333,0.735126,0.153202,-0.161533,-97.346559,2.366610,25.625350
46823,NaN,-0.527013,-10.946687,-0.397459,-0.404608,0.945153,1.105357,-0.431397,-1.128964,2.152057,-0.636089,0.737183,0.149241,-0.172277,-97.567499,3.677378,26.110787
46824,NaN,0.169886,-10.901251,-0.565852,0.494668,1.236975,1.022739,-0.320144,-1.019375,2.181237,-0.632217,0.738893,0.144703,-0.182758,-97.718920,4.997385,26.527206
46825,NaN,0.686921,-10.867848,-0.789613,1.258085,1.404400,0.941160,-0.277717,-0.910752,2.188824,-0.628480,0.740464,0.139736,-0.192874,-97.842684,6.314803,26.879565
46826,NaN,0.946137,-11.343766,-1.006175,1.809468,1.554270,1.362872,-0.255126,-0.812656,2.174048,-0.624822,0.741946,0.134471,-0.202561,-97.952594,7.616285,27.174352
46827,NaN,0.993739,-11.875847,-0.921659,2.052154,1.888373,1.810121,-0.174188,-0.691663,2.138212,-0.621498,0.743174,0.128864,-0.211723,-98.019067,8.888757,27.402338
46828,NaN,1.347934,-12.294263,-0.698860,2.502556,2.458192,2.067678,-0.096376,-0.523631,2.073777,-0.618565,0.744208,0.122875,-0.220077,-98.051419,10.110901,27.537741
46829,NaN,1.704966,-12.459527,-0.473739,2.933230,2.970493,2.059056,-0.024565,-0.308363,1.970455,-0.616078,0.745111,0.116514,-0.227338,-98.061126,11.257659,27.558146
46830,NaN,2.141090,-12.549315,-0.440778,3.508801,3.319017,1.974245,0.040380,-0.100396,1.826218,-0.614062,0.745899,0.109962,-0.233390,-98.055649,12.305422,27.469108
46831,NaN,2.624732,-12.613741,-0.567618,4.183271,3.526006,1.865573,0.048729,0.049142,1.617220,-0.612356,0.746664,0.103716,-0.238235,-98.062154,13.223019,27.310701
46832,NaN,3.074578,-12.894374,-0.854355,4.909222,3.612093,1.989752,0.009520,0.123575,1.334296,-0.610846,0.747451,0.098336,-0.241897,-98.098511,13.973660,27.130656
46833,NaN,3.270779,-12.884107,-1.033765,5.288685,3.595443,1.886376,-0.012553,0.125428,0.983699,-0.609656,0.748108,0.094286,-0.244467,-98.142607,14.525496,26.978404
46834,NaN,3.447118,-12.778366,-0.969403,5.476240,3.743917,1.680892,-0.069983,0.061866,0.609668,-0.608669,0.748674,0.091896,-0.246098,-98.203744,14.869914,26.893431
46835,NaN,3.918123,-12.407068,-1.179393,5.964078,3.705679,1.204373,-0.076853,0.001251,0.251116,-0.608066,0.749016,0.091042,-0.246864,-98.252061,15.016144,26.874562
46836,NaN,3.814364,-11.386374,-1.067380,5.661960,3.518835,0.232122,-0.026017,0.009221,-0.043957,-0.608021,0.749080,0.091204,-0.246722,-98.266195,14.994156,26.875534
46837,NaN,3.389714,-10.258019,-0.836963,4.988789,3.253008,-0.760202,0.008242,0.017514,-0.249842,-0.608362,0.748954,0.092071,-0.245941,-98.257255,14.854889,26.889586
46838,NaN,2.902985,-9.315659,-0.491493,4.228942,3.097756,-1.568281,0.040780,0.010957,-0.359175,-0.608954,0.748670,0.093326,-0.244864,-98.226564,14.654017,26.916304
46839,NaN,2.143151,-8.620699,-0.209909,3.303588,2.824715,-2.062797,0.083549,-0.041199,-0.389007,-0.609717,0.748175,0.094800,-0.243912,-98.163032,14.440530,26.976204
46840,NaN,1.196347,-7.936665,-0.162170,2.336044,2.268328,-2.474724,0.144612,-0.144132,-0.348211,-0.610607,0.747385,0.096359,-0.243496,-98.050888,14.258347,27.092275
46841,NaN,0.422512,-7.311829,0.040919,1.459359,1.937913,-2.901989,0.125905,-0.280463,-0.271583,-0.611266,0.746519,0.098072,-0.243814,-97.931684,14.130289,27.281631
46842,NaN,-1.717731,-8.532407,-4.200098,1.847037,-2.391242,-0.633159,-0.328831,-0.481750,-0.101533,-0.609917,0.746877,0.100318,-0.245178,-98.048117,14.114730,27.574476
46843,NaN,-3.396020,-7.846611,-4.676795,0.545062,-3.704520,-0.815239,-0.013595,-0.266688,0.028557,-0.609691,0.746598,0.101035,-0.246293,-98.017061,14.155957,27.730979
46844,NaN,-6.712746,-10.427924,-2.663518,-2.896706,-2.841777,2.205223,-0.454701,-0.266178,0.033900,-0.607809,0.747664,0.102274,-0.247197,-98.238971,14.200437,27.886505
46845,NaN,-6.383075,-15.378826,-0.920920,-2.769871,0.021428,6.631981,-0.478978,-0.431658,-0.217184,-0.606057,0.748464,0.104983,-0.247943,-98.445840,14.116914,28.160293
46846,NaN,-4.815736,-16.872925,-0.116445,-1.681283,1.778775,7.562840,-0.121224,-0.397247,-0.543069,-0.606058,0.748043,0.108362,-0.247757,-98.446708,13.846267,28.442016
46847,NaN,-2.998612,-11.383194,0.379220,-1.213002,1.663474,1.783580,0.020350,-0.263177,-0.746212,-0.606905,0.747238,0.111920,-0.246529,-98.382343,13.449133,28.662772
46848,NaN,-2.061592,-9.402476,-1.412135,0.159730,0.061484,-0.085350,-0.152907,-0.227357,-0.796338,-0.607176,0.746963,0.115766,-0.244912,-98.422846,13.020499,28.866257
46849,NaN,-1.154356,-8.460651,-1.178538,0.633568,0.441583,-1.227389,-0.210158,-0.155876,-0.769589,-0.607232,0.746952,0.119365,-0.243074,-98.507136,12.601260,29.026305
46850,NaN,-1.584336,-9.031371,-0.942692,0.147499,0.558095,-0.613187,-0.331712,-0.181984,-0.739493,-0.606771,0.747284,0.123075,-0.241346,-98.659541,12.201578,29.199203
46851,NaN,-1.073795,-9.650864,-1.044837,0.635370,0.851100,-0.104162,-0.315123,-0.342727,-0.662562,-0.606171,0.747406,0.126964,-0.240460,-98.785223,11.859881,29.459377
46852,NaN,-0.621018,-9.812603,-1.583040,1.251904,0.646071,0.046008,-0.283992,-0.376058,-0.618835,-0.605604,0.747410,0.130751,-0.239846,-98.891510,11.546351,29.735003
46853,NaN,-1.092351,-9.587927,-1.652116,0.809901,0.299890,-0.060511,-0.230132,-0.303077,-0.571353,-0.605221,0.747359,0.134074,-0.239136,-98.977323,11.253675,29.964678
46854,NaN,-1.086557,-9.806818,-1.527197,0.718104,0.450867,0.135550,-0.237145,-0.217992,-0.520309,-0.604801,0.747459,0.136954,-0.238254,-99.078750,10.982581,30.140611
46855,NaN,-1.070515,-9.981303,-1.486136,0.670931,0.528980,0.299225,-0.280838,-0.105694,-0.528059,-0.604299,0.747811,0.139576,-0.236898,-99.217829,10.697243,30.253237
46856,NaN,-1.256552,-9.902856,-1.856114,0.645777,0.103385,0.319572,-0.204561,-0.002550,-0.502923,-0.604118,0.748067,0.141699,-0.235283,-99.325129,10.416829,30.304454
46857,NaN,-1.062138,-9.479812,-1.421492,0.504689,0.457170,-0.192307,-0.135235,0.113135,-0.444614,-0.604208,0.748285,0.143174,-0.233459,-99.405559,10.158671,30.284321
46858,NaN,-1.134068,-9.637909,-1.280330,0.335960,0.566995,-0.046413,-0.157001,0.183559,-0.420736,-0.604234,0.748666,0.144370,-0.231426,-99.505903,9.907352,30.221696
46859,NaN,-1.197892,-9.602571,-1.457945,0.328395,0.370645,-0.039022,-0.129940,0.193261,-0.395849,-0.604337,0.748988,0.145412,-0.229452,-99.591585,9.669060,30.151780
46860,NaN,-1.401517,-9.279975,-1.330019,0.029686,0.296161,-0.338384,-0.120577,0.159987,-0.360983,-0.604408,0.749268,0.146412,-0.227712,-99.669130,9.453566,30.097715
46861,NaN,-0.813037,-9.209784,-1.524780,0.592589,0.404464,-0.469710,-0.192070,0.076413,-0.328882,-0.604111,0.749687,0.147627,-0.226330,-99.779946,9.264186,30.088935
46862,NaN,-0.648649,-9.376730,-1.931931,0.917254,0.183701,-0.262768,-0.213344,0.040313,-0.302393,-0.603675,0.750148,0.148873,-0.225145,-99.900160,9.093293,30.098353
46863,NaN,-1.184573,-9.476391,-2.145553,0.541163,-0.234942,-0.042301,-0.201604,0.032852,-0.279340,-0.603251,0.750579,0.150043,-0.224068,-100.013147,8.936139,30.110259
46864,NaN,-1.367335,-9.435151,-2.112937,0.334423,-0.305594,-0.058156,-0.169704,0.034980,-0.279002,-0.602945,0.750915,0.151168,-0.223005,-100.108204,8.779013,30.121010
46865,NaN,-1.260556,-9.445418,-2.112170,0.394291,-0.250438,-0.063435,-0.145952,0.072136,-0.292181,-0.602770,0.751209,0.152205,-0.221782,-100.192490,8.610684,30.112322
46866,NaN,-1.638000,-9.491559,-2.050539,0.009654,-0.379459,0.027702,-0.108676,0.082823,-0.303940,-0.602755,0.751391,0.153210,-0.220510,-100.256239,8.434662,30.098804
46867,NaN,-1.867456,-9.348821,-1.997132,-0.251240,-0.488117,-0.087724,-0.085322,0.091687,-0.326256,-0.602857,0.751493,0.154248,-0.219155,-100.306787,8.245103,30.082882
46868,NaN,-1.806408,-9.355919,-1.709543,-0.379882,-0.223823,-0.141888,-0.095630,0.085349,-0.343814,-0.602932,0.751605,0.155381,-0.217762,-100.362540,8.046320,30.072422
46869,NaN,-1.727438,-9.398863,-1.519214,-0.444267,-0.024028,-0.146633,-0.115729,0.085563,-0.372523,-0.602962,0.751751,0.156643,-0.216266,-100.429197,7.831295,30.065216
46870,NaN,-1.523419,-9.451304,-1.485951,-0.323321,0.108281,-0.130766,-0.130653,0.068982,-0.397151,-0.602946,0.751902,0.158062,-0.214745,-100.502874,7.604141,30.070134
46871,NaN,-1.285210,-9.508879,-1.538182,-0.130664,0.186731,-0.097521,-0.132363,0.045710,-0.407391,-0.602914,0.752022,0.159592,-0.213278,-100.575496,7.373640,30.089816
46872,NaN,-1.193121,-9.466670,-1.528008,-0.097949,0.222939,-0.152628,-0.143648,0.034235,-0.413796,-0.602834,0.752156,0.161191,-0.211825,-100.653867,7.140793,30.116820
46873,NaN,-1.115808,-9.515993,-1.636437,-0.015764,0.173457,-0.094323,-0.151028,0.012066,-0.406276,-0.602699,0.752290,0.162837,-0.210472,-100.734940,6.914550,30.156082
46874,NaN,-1.084752,-9.538390,-1.694889,0.000709,0.137721,-0.065324,-0.157639,0.010792,-0.405549,-0.602533,0.752440,0.164489,-0.209119,-100.819997,6.688933,30.196125
46875,NaN,-1.103808,-9.444637,-1.717055,-0.044947,0.081962,-0.150443,-0.153605,0.012837,-0.405882,-0.602383,0.752576,0.166132,-0.207760,-100.902832,6.462942,30.235535
46876,NaN,-1.140717,-9.453201,-1.879068,-0.033186,-0.077400,-0.107641,-0.154027,-0.001979,-0.400393,-0.602209,0.752700,0.167798,-0.206471,-100.985325,6.241731,30.282866
46877,NaN,-0.981608,-9.531901,-2.178284,0.217689,-0.237675,0.008800,-0.151532,-0.006493,-0.389374,-0.602028,0.752817,0.169433,-0.205235,-101.066233,6.027255,30.332008
46878,NaN,-0.791238,-9.555015,-2.180068,0.344626,-0.145405,0.012639,-0.128932,-0.015076,-0.372980,-0.601904,0.752869,0.171008,-0.204097,-101.134190,5.823031,30.384269
46879,NaN,-0.570065,-9.558282,-2.112777,0.465017,0.015556,-0.018150,-0.117234,-0.022008,-0.355161,-0.601799,0.752890,0.172525,-0.203050,-101.195258,5.629622,30.438834
46880,NaN,-0.516152,-9.496889,-1.992096,0.418022,0.123592,-0.105182,-0.110946,-0.037975,-0.326993,-0.601673,0.752899,0.173976,-0.202151,-101.252467,5.453909,30.499280
46881,NaN,-0.428596,-9.639858,-1.973241,0.451544,0.209290,0.023800,-0.115444,-0.052891,-0.285942,-0.601475,0.752939,0.175322,-0.201428,-101.311906,5.302959,30.563833
46882,NaN,-0.287459,-9.764730,-1.863607,0.487825,0.396489,0.112553,-0.112174,-0.075972,-0.236695,-0.601216,0.752989,0.176548,-0.200942,-101.369077,5.182377,30.635828
46883,NaN,-0.071244,-9.916769,-1.890084,0.661593,0.516185,0.247910,-0.102942,-0.088312,-0.190198,-0.600935,0.753037,0.177627,-0.200650,-101.420787,5.089331,30.709736
46884,NaN,0.065660,-9.931824,-1.802419,0.716736,0.662326,0.234290,-0.069090,-0.068298,-0.137442,-0.600745,0.753051,0.178413,-0.200471,-101.454869,5.023737,30.766267
46885,NaN,-0.078021,-9.766995,-1.560192,0.461220,0.756426,0.038686,-0.071104,-0.041952,-0.096743,-0.600531,0.753132,0.178969,-0.200314,-101.491712,4.977969,30.803451
46886,NaN,-0.225331,-9.718720,-1.753250,0.427297,0.512571,0.042913,-0.068292,-0.027814,-0.061353,-0.600303,0.753251,0.179345,-0.200211,-101.528150,4.950537,30.828511
46887,NaN,-0.491173,-9.722238,-1.874929,0.257022,0.279016,0.093604,-0.041948,-0.015989,-0.030809,-0.600155,0.753329,0.179545,-0.200180,-101.550230,4.938841,30.843525
46888,NaN,-0.732831,-9.506807,-1.909699,0.071313,0.082632,-0.088930,-0.039392,-0.000312,-0.023262,-0.600023,0.753423,0.179667,-0.200114,-101.571832,4.929655,30.848722
46889,NaN,-0.827051,-9.292203,-2.077848,0.080340,-0.148385,-0.256641,-0.063063,0.020741,-0.021229,-0.599819,0.753610,0.179742,-0.199954,-101.607885,4.919117,30.841945
46890,NaN,-1.086938,-9.435388,-2.164760,-0.106795,-0.318691,-0.077124,-0.059154,0.049663,-0.031369,-0.599665,0.753806,0.179764,-0.199658,-101.643139,4.899617,30.819943
46891,NaN,-1.491765,-9.357957,-2.056890,-0.513448,-0.450100,-0.139978,-0.045372,0.061928,-0.060408,-0.599603,0.753946,0.179845,-0.199241,-101.670640,4.862319,30.794531
46892,NaN,-1.738525,-9.333803,-2.166569,-0.676265,-0.673096,-0.121147,-0.027881,0.063840,-0.095153,-0.599643,0.754005,0.180034,-0.198728,-101.687993,4.805365,30.771990
46893,NaN,-1.596886,-9.292804,-2.128519,-0.584481,-0.581864,-0.181662,-0.013404,0.066961,-0.134939,-0.599781,0.753986,0.180349,-0.198097,-101.696638,4.725662,30.752466
46894,NaN,-1.250150,-9.393817,-2.084572,-0.327492,-0.353060,-0.121444,-0.014364,0.072254,-0.168418,-0.599951,0.753945,0.180775,-0.197345,-101.705872,4.626617,30.733759
46895,NaN,-0.958614,-9.330395,-1.969557,-0.150644,-0.130617,-0.230695,-0.002165,0.084149,-0.194015,-0.600204,0.753855,0.181251,-0.196482,-101.708231,4.511775,30.711482
46896,NaN,-0.963854,-9.419764,-1.872088,-0.225305,-0.042888,-0.163178,0.008086,0.080234,-0.199702,-0.600496,0.753726,0.181748,-0.195626,-101.704594,4.394249,30.691947
46897,NaN,-0.943554,-9.372177,-1.894596,-0.211297,-0.072222,-0.207085,0.007779,0.053791,-0.209573,-0.600773,0.753560,0.182363,-0.194840,-101.699735,4.274212,30.688566
46898,NaN,-0.900865,-9.434823,-1.871085,-0.206804,-0.027655,-0.154280,-0.016766,0.033091,-0.213873,-0.600941,0.753445,0.183079,-0.194096,-101.708185,4.154215,30.697204
46899,NaN,-0.757362,-9.423105,-1.952452,-0.059931,-0.033513,-0.159925,-0.034803,-0.019569,-0.223718,-0.601002,0.753321,0.184009,-0.193504,-101.724641,4.034780,30.736771
46900,NaN,-0.390063,-9.549839,-1.951223,0.230202,0.174300,-0.062024,-0.045655,-0.038468,-0.212584,-0.600993,0.753223,0.184963,-0.193006,-101.746892,3.923850,30.785563
46901,NaN,-0.376345,-9.630344,-2.052756,0.272623,0.106931,0.036840,-0.033119,-0.034348,-0.202442,-0.601026,0.753098,0.185854,-0.192535,-101.762140,3.818098,30.831016
46902,NaN,-0.378135,-9.549098,-1.981402,0.222151,0.141991,-0.056424,-0.029279,-0.033207,-0.186620,-0.601057,0.752978,0.186679,-0.192110,-101.775577,3.721146,30.873862
46903,NaN,-0.391002,-9.536976,-1.877379,0.142979,0.213904,-0.088228,-0.040292,-0.033053,-0.176745,-0.601038,0.752898,0.187476,-0.191705,-101.795327,3.629675,30.915614
46904,NaN,-0.435401,-9.604331,-1.896238,0.096339,0.185486,-0.015506,-0.055195,-0.036329,-0.157955,-0.600940,0.752878,0.188226,-0.191353,-101.823845,3.549195,30.956907
46905,NaN,-0.349223,-9.587677,-2.027733,0.224648,0.114136,-0.009948,-0.053267,-0.029347,-0.146706,-0.600846,0.752869,0.188912,-0.191011,-101.851486,3.474169,30.993113
46906,NaN,-0.430494,-9.564241,-2.082651,0.172193,0.019187,-0.016390,-0.038376,-0.022438,-0.129250,-0.600796,0.752838,0.189496,-0.190709,-101.871142,3.408186,31.023283
46907,NaN,-0.426530,-9.534423,-2.151920,0.202150,-0.046021,-0.031331,-0.021253,-0.012065,-0.122304,-0.600815,0.752771,0.190007,-0.190406,-101.881266,3.344825,31.046940
46908,NaN,-0.427084,-9.373727,-2.035765,0.141049,0.013326,-0.211989,-0.020787,-0.010289,-0.121098,-0.600835,0.752706,0.190507,-0.190099,-101.891359,3.281992,31.069347
46909,NaN,-0.407566,-9.533888,-2.102136,0.172117,-0.002296,-0.042812,-0.036377,0.005058,-0.119531,-0.600810,0.752703,0.190971,-0.189725,-101.910766,3.218170,31.083079
46910,NaN,-0.518522,-9.549487,-2.025332,0.026488,0.003945,-0.037064,-0.011801,0.006572,-0.115490,-0.600875,0.752632,0.191391,-0.189380,-101.916321,3.156497,31.095382
46911,NaN,-0.474529,-9.551373,-2.111615,0.098954,-0.049550,-0.019804,-0.008801,0.012344,-0.115259,-0.600956,0.752556,0.191790,-0.189018,-101.920209,3.094210,31.104532
46912,NaN,-0.539288,-9.539644,-2.106461,0.032494,-0.086440,-0.028809,0.003385,0.022824,-0.113069,-0.601090,0.752457,0.192137,-0.188633,-101.917593,3.031972,31.107429
46913,NaN,-0.581835,-9.538909,-2.098594,-0.016704,-0.108530,-0.028959,0.015116,0.025189,-0.118631,-0.601277,0.752318,0.192488,-0.188235,-101.908156,2.966274,31.109755
46914,NaN,-0.519524,-9.540992,-2.049811,0.002449,-0.042731,-0.040262,0.018235,0.031755,-0.121797,-0.601484,0.752173,0.192827,-0.187805,-101.897242,2.898087,31.108653
46915,NaN,-0.545433,-9.571209,-2.083382,-0.013502,-0.085879,-0.002568,0.022440,0.036196,-0.126093,-0.601715,0.752015,0.193166,-0.187350,-101.883881,2.826904,31.105656
46916,NaN,-0.669567,-9.568830,-2.036267,-0.153081,-0.119805,-0.008637,0.028491,0.034940,-0.132310,-0.601972,0.751832,0.193525,-0.186886,-101.867117,2.752448,31.103974
46917,NaN,-0.601356,-9.681194,-2.017522,-0.121337,-0.056137,0.093859,0.037511,0.039470,-0.138305,-0.602275,0.751618,0.193885,-0.186396,-101.845133,2.674036,31.100536
46918,NaN,-0.538245,-9.633898,-1.988707,-0.088844,-0.019875,0.038624,0.046989,0.039438,-0.149667,-0.602622,0.751366,0.194279,-0.185881,-101.817791,2.589319,31.098314
46919,NaN,-0.565586,-9.555096,-1.988154,-0.117386,-0.060927,-0.037465,0.049574,0.043898,-0.155531,-0.602989,0.751103,0.194679,-0.185334,-101.788908,2.500732,31.094340
46920,NaN,-0.656623,-9.495118,-1.970126,-0.211059,-0.116934,-0.096126,0.051302,0.037990,-0.165392,-0.603364,0.750820,0.195132,-0.184781,-101.758978,2.407366,31.094686
46921,NaN,-0.658689,-9.476852,-1.944983,-0.235701,-0.113620,-0.119439,0.056972,0.049029,-0.174429,-0.603781,0.750520,0.195580,-0.184165,-101.725875,2.307587,31.089947
46922,NaN,-0.516174,-9.440888,-1.920211,-0.136166,-0.040198,-0.165728,0.055806,0.058641,-0.189452,-0.604214,0.750218,0.196056,-0.183466,-101.693714,2.198321,31.081394
46923,NaN,-0.718293,-9.428457,-1.757479,-0.405455,-0.024916,-0.203555,0.042304,0.063356,-0.203160,-0.604615,0.749946,0.196583,-0.182694,-101.669175,2.080768,31.071844
46924,NaN,-0.740314,-9.551349,-1.909758,-0.371367,-0.153486,-0.052463,0.028774,0.054107,-0.221639,-0.604971,0.749688,0.197217,-0.181888,-101.652250,1.953973,31.069473
46925,NaN,-0.565157,-9.606577,-2.092564,-0.149922,-0.219179,0.031803,0.023722,0.053548,-0.235826,-0.605321,0.749429,0.197912,-0.181036,-101.638008,1.819235,31.069146
46926,NaN,-0.523454,-9.579101,-2.133411,-0.110686,-0.251568,0.011213,0.025173,0.074753,-0.253552,-0.605711,0.749167,0.198607,-0.180051,-101.623378,1.672148,31.058806
46927,NaN,-0.653382,-9.559960,-2.066583,-0.275518,-0.282492,-0.018060,0.037625,0.087955,-0.274328,-0.606179,0.748856,0.199329,-0.178967,-101.601585,1.511837,31.043526
46928,NaN,-0.757262,-9.622477,-2.073234,-0.389072,-0.348104,0.045871,0.040958,0.103584,-0.300354,-0.606697,0.748523,0.200096,-0.177748,-101.578123,1.335169,31.022285
46929,NaN,-0.784780,-9.554466,-1.933238,-0.503610,-0.277475,-0.049983,0.042494,0.104244,-0.337268,-0.607253,0.748145,0.200999,-0.176416,-101.553489,1.137677,31.004968
46930,NaN,-0.737264,-9.468004,-1.919429,-0.490403,-0.278270,-0.140416,0.036229,0.105288,-0.366156,-0.607809,0.747757,0.202011,-0.174985,-101.532476,0.923892,30.990174
46931,NaN,-0.762337,-9.491711,-1.900530,-0.554880,-0.293061,-0.122908,0.022207,0.114936,-0.406574,-0.608356,0.747375,0.203156,-0.173380,-101.519306,0.686289,30.974663
46932,NaN,-0.779214,-9.625035,-1.859848,-0.637996,-0.266671,-0.003039,0.002479,0.120023,-0.444255,-0.608864,0.747017,0.204443,-0.171621,-101.517502,0.426978,30.960441
46933,NaN,-0.699012,-9.780153,-2.063844,-0.520634,-0.393878,0.185965,0.009443,0.122198,-0.476567,-0.609425,0.746601,0.205837,-0.169762,-101.511482,0.149263,30.948825
46934,NaN,-0.436128,-9.778366,-2.033927,-0.352121,-0.261011,0.174863,0.024147,0.122836,-0.508498,-0.610064,0.746104,0.207333,-0.167817,-101.497125,-0.146435,30.940302
46935,NaN,-0.294493,-9.779795,-2.122236,-0.229751,-0.292061,0.192145,0.039720,0.104336,-0.532719,-0.610759,0.745514,0.208963,-0.165883,-101.473721,-0.453627,30.944986
46936,NaN,-0.668152,-9.958772,-2.262729,-0.543311,-0.605555,0.389340,0.064898,0.070007,-0.554820,-0.611525,0.744790,0.210757,-0.164033,-101.436294,-0.769318,30.971147
46937,NaN,-0.714446,-10.210983,-2.481593,-0.547218,-0.809164,0.674371,0.079484,0.037926,-0.583758,-0.612331,0.743957,0.212744,-0.162229,-101.390854,-1.097642,31.018540
46938,NaN,-0.438036,-10.271660,-2.737131,-0.236425,-0.913424,0.784490,0.117939,0.052283,-0.612264,-0.613312,0.742983,0.214759,-0.160323,-101.323691,-1.443646,31.060610
46939,NaN,-0.082477,-10.272365,-2.697355,-0.000818,-0.743286,0.782175,0.158741,0.126644,-0.641919,-0.614543,0.741902,0.216622,-0.158093,-101.232168,-1.814691,31.063886
46940,NaN,-0.130836,-10.286882,-2.285123,-0.301997,-0.470474,0.710896,0.182775,0.230152,-0.670380,-0.615989,0.740791,0.218250,-0.155415,-101.125075,-2.213248,31.011310
46941,NaN,-0.538756,-10.295446,-1.873822,-0.913173,-0.386909,0.618685,0.181976,0.321034,-0.711873,-0.617555,0.739695,0.219750,-0.152270,-101.015923,-2.645018,30.911538
46942,NaN,-0.219038,-10.197075,-1.518480,-0.862529,0.008597,0.462986,0.151928,0.409144,-0.754474,-0.619129,0.738701,0.221154,-0.148632,-100.921038,-3.110195,30.765837
46943,NaN,0.578279,-10.532264,-1.469691,-0.316134,0.445257,0.823293,0.132641,0.504494,-0.784326,-0.620746,0.737789,0.222383,-0.144525,-100.832844,-3.602212,30.568986
46944,NaN,0.426618,-10.839548,-1.397313,-0.598866,0.409740,1.100744,0.122208,0.562056,-0.805138,-0.622390,0.736911,0.223513,-0.140126,-100.746957,-4.111850,30.340874
46945,NaN,0.010002,-10.890826,-2.230590,-0.637911,-0.567335,1.271358,0.121883,0.553430,-0.808609,-0.624010,0.736006,0.224677,-0.135745,-100.659408,-4.622140,30.117268
46946,NaN,0.574490,-11.156755,-2.266763,-0.257130,-0.347773,1.578250,0.116018,0.612916,-0.810714,-0.625662,0.735140,0.225662,-0.131127,-100.570448,-5.139589,29.859128
46947,NaN,0.586794,-12.144819,-1.184722,-1.009018,0.633610,2.345598,0.166165,0.633331,-0.843470,-0.627525,0.734072,0.226664,-0.126386,-100.449364,-5.677102,29.591896
46948,NaN,-0.225667,-11.796121,-0.414942,-2.093810,0.785645,1.779089,0.252062,0.542530,-0.885286,-0.629610,0.732611,0.228044,-0.121940,-100.282305,-6.228200,29.378653
46949,NaN,-0.796895,-11.477249,-0.709155,-2.474751,0.143872,1.444267,0.218402,0.424108,-0.940201,-0.631452,0.731099,0.230013,-0.117715,-100.140341,-6.797588,29.236747
46950,NaN,-0.350448,-11.556181,-1.333906,-1.901573,-0.250700,1.666309,0.204356,0.363563,-0.998555,-0.633190,0.729509,0.232387,-0.113505,-100.009962,-7.393562,29.133381
46951,NaN,-0.428292,-11.560470,-1.503072,-1.984472,-0.517067,1.671226,0.259373,0.350998,-1.036824,-0.635117,0.727670,0.234903,-0.109283,-99.848010,-8.009518,29.039600
46952,NaN,-0.072765,-11.138623,-1.713581,-1.587847,-0.651711,1.325677,0.281786,0.350213,-1.080665,-0.637127,0.725686,0.237560,-0.104945,-99.672809,-8.649987,28.948305
46953,NaN,0.501106,-11.171673,-1.956049,-1.084902,-0.676750,1.467691,0.272473,0.377596,-1.132574,-0.639142,0.723657,0.240316,-0.100331,-99.499687,-9.321972,28.844557
46954,NaN,0.299971,-11.330942,-1.655447,-1.527045,-0.596944,1.524456,0.406194,0.401510,-1.135176,-0.641645,0.721183,0.242928,-0.095775,-99.246248,-9.997418,28.724279
46955,NaN,0.223064,-10.438407,-1.098296,-1.735342,-0.291987,0.537109,0.286288,0.413500,-1.167260,-0.643721,0.719030,0.245665,-0.090927,-99.058637,-10.691473,28.597531
46956,NaN,0.263912,-11.809275,-1.817357,-1.805476,-0.932199,1.964438,0.312277,0.421467,-1.207788,-0.645890,0.716720,0.248500,-0.085945,-98.854135,-11.408915,28.466808
46957,NaN,0.009966,-11.310842,-0.906813,-2.415548,-0.373156,1.267992,0.381746,0.419462,-1.274744,-0.648307,0.714066,0.251540,-0.080840,-98.608732,-12.163387,28.340359
46958,NaN,-0.331469,-11.941861,-1.157833,-2.874815,-0.840407,1.809930,0.302338,0.407500,-1.351878,-0.650423,0.711534,0.254914,-0.075420,-98.409629,-12.960270,28.223805
46959,NaN,-0.559885,-11.436311,-0.938378,-3.161853,-0.866362,1.197893,0.225154,0.424085,-1.451886,-0.652289,0.709091,0.258605,-0.069518,-98.251899,-13.814613,28.103617
46960,NaN,-0.219761,-12.257548,-1.654572,-2.924441,-1.444250,2.120122,0.298521,0.413360,-1.520159,-0.654383,0.706276,0.262531,-0.063517,-98.052786,-14.706693,27.991795
46961,NaN,0.037427,-11.445029,-1.466706,-2.698067,-1.281071,1.332607,0.274928,0.443514,-1.585039,-0.656413,0.703413,0.266579,-0.057168,-97.860985,-15.637290,27.864449
46962,NaN,0.306462,-11.703244,-2.235792,-2.365752,-1.963547,1.702644,0.264859,0.467356,-1.625242,-0.658403,0.700488,0.270673,-0.050580,-97.669146,-16.592453,27.721928
46963,NaN,1.032907,-10.544733,-1.464792,-1.868224,-1.047113,0.666543,0.224333,0.509742,-1.677460,-0.660273,0.697583,0.274801,-0.043619,-97.490562,-17.579661,27.554930
46964,NaN,1.147604,-11.198118,-2.355582,-1.764280,-1.912987,1.389461,0.043962,0.528434,-1.654614,-0.661483,0.695257,0.278805,-0.036411,-97.407857,-18.555278,27.371167
46965,NaN,0.992238,-11.494462,-2.307764,-2.177266,-2.057135,1.565235,0.308003,0.481659,-1.664355,-0.663499,0.691981,0.282930,-0.029706,-97.178755,-19.532142,27.212965
46966,NaN,1.098531,-10.590115,-2.179157,-1.974491,-1.975498,0.689780,0.264521,0.399089,-1.682315,-0.665198,0.688761,0.287374,-0.023156,-96.988249,-20.513235,27.100757
46967,NaN,1.816771,-10.414077,-2.265549,-1.420330,-1.847809,0.744385,0.282599,0.332077,-1.655288,-0.666812,0.685459,0.291926,-0.016958,-96.797717,-21.473536,27.023756
46968,NaN,2.228879,-10.246719,-2.482426,-1.066315,-1.967268,0.728460,0.274522,0.326864,-1.594185,-0.668337,0.682226,0.296264,-0.010961,-96.609000,-22.398928,26.941039
46969,NaN,2.569439,-9.335183,-2.516689,-0.548127,-1.894479,-0.005053,0.273944,0.327214,-1.573311,-0.669817,0.678979,0.300512,-0.005039,-96.416945,-23.311713,26.853331
46970,NaN,2.816445,-8.922610,-2.694466,-0.230164,-2.014400,-0.289411,0.232091,0.329193,-1.511831,-0.671112,0.675923,0.304525,0.000754,-96.244156,-24.189836,26.755792
46971,NaN,3.131756,-8.447400,-3.228041,0.322356,-2.415175,-0.558070,0.183336,0.391906,-1.479123,-0.672300,0.673038,0.308200,0.006717,-96.078944,-25.052413,26.613799
46972,NaN,3.996663,-7.841930,-2.995753,1.075962,-1.880846,-0.771285,0.255996,0.385721,-1.378282,-0.673687,0.670029,0.311541,0.012215,-95.867517,-25.857230,26.464366
46973,NaN,4.774535,-7.333052,-3.198269,1.907485,-1.784318,-0.869803,0.266498,0.359085,-1.292657,-0.675041,0.667086,0.314670,0.017311,-95.651188,-26.610692,26.322573
46974,NaN,4.884819,-6.632395,-2.766673,2.045247,-1.346624,-1.475592,0.234653,0.356121,-1.213642,-0.676260,0.664346,0.317529,0.022187,-95.448494,-27.318960,26.173223
46975,NaN,3.995810,-5.874329,-3.005341,1.702327,-1.889413,-2.529975,0.233986,0.371876,-1.052782,-0.677496,0.661837,0.319789,0.026565,-95.233555,-27.935339,26.000720
46976,NaN,-1.440554,-4.166999,-0.997936,-2.665847,-1.991693,-6.753068,0.478923,0.383425,-0.595444,-0.679604,0.659213,0.320520,0.029046,-94.859221,-28.290958,25.789759
46977,NaN,-4.518848,-2.185380,0.160776,-4.654597,-1.870238,-10.054845,0.282246,-0.027160,-0.255585,-0.680448,0.657853,0.321495,0.029328,-94.713344,-28.431560,25.824896
46978,NaN,-3.352733,-3.699288,-2.502523,-3.359874,-4.067170,-7.980339,-0.108858,-0.564088,0.024675,-0.679180,0.658350,0.323315,0.027525,-94.950244,-28.386713,26.192831
46979,NaN,-2.943778,-4.289271,-1.653829,-3.632797,-3.220381,-7.316555,-0.000770,-0.617979,0.324578,-0.678214,0.658965,0.324343,0.024344,-95.132475,-28.166221,26.578453
46980,NaN,-1.746925,-4.690163,-1.856488,-2.766746,-2.984769,-6.358406,-0.087756,-0.527523,0.591637,-0.677131,0.660288,0.324168,0.020703,-95.327191,-27.797542,26.887404
46981,NaN,-1.343254,-4.750768,-1.798102,-2.469256,-2.766059,-6.089950,-0.049827,-0.423962,0.871732,-0.676357,0.661911,0.322716,0.016386,-95.458156,-27.273241,27.110887
46982,NaN,-1.594292,-4.731658,-1.393822,-2.789744,-2.480689,-6.215986,-0.106622,-0.361876,1.178640,-0.675499,0.664197,0.320023,0.011336,-95.591901,-26.577533,27.272485
46983,NaN,-1.556616,-5.276808,-0.940840,-3.143569,-2.091939,-5.702440,-0.182474,-0.348716,1.427507,-0.674392,0.667105,0.316440,0.005601,-95.755117,-25.739595,27.407586
46984,NaN,-1.494738,-5.797630,-0.493469,-3.447698,-1.680691,-5.189044,-0.215168,-0.394406,1.647534,-0.673067,0.670430,0.312256,-0.000969,-95.939841,-24.773931,27.552800
46985,NaN,-1.333677,-6.180360,-0.182931,-3.536348,-1.322202,-4.737862,-0.254264,-0.483124,1.863624,-0.671414,0.674167,0.307620,-0.008511,-96.159345,-23.678547,27.734919
46986,NaN,-1.213549,-6.599558,-0.148874,-3.534621,-1.216606,-4.238306,-0.306022,-0.573425,2.063196,-0.669368,0.678309,0.302584,-0.016937,-96.419250,-22.463938,27.952027
46987,NaN,-0.991868,-7.096733,-0.280599,-3.383564,-1.201764,-3.605340,-0.333496,-0.668859,2.254464,-0.666981,0.682735,0.297181,-0.026294,-96.703981,-21.132418,28.206742
46988,NaN,-0.655486,-7.597593,-0.311036,-3.151432,-1.021468,-2.937229,-0.335503,-0.756232,2.429344,-0.664332,0.687313,0.291428,-0.036515,-96.995012,-19.695130,28.491450
46989,NaN,-0.431688,-8.015269,-0.446328,-2.903702,-0.955345,-2.377490,-0.333290,-0.817766,2.587581,-0.661455,0.691980,0.285284,-0.047481,-97.282452,-18.161251,28.791794
46990,NaN,-0.241451,-8.478860,-0.486961,-2.708923,-0.798574,-1.799833,-0.318495,-0.850996,2.729361,-0.658417,0.696656,0.278699,-0.059032,-97.553241,-16.543918,29.089551
46991,NaN,0.025682,-9.038334,-0.533248,-2.441969,-0.588248,-1.114329,-0.299926,-0.850644,2.855796,-0.655263,0.701296,0.271607,-0.071022,-97.799440,-14.852577,29.367857
46992,NaN,0.238852,-9.540540,-0.602258,-2.154716,-0.396909,-0.504928,-0.254198,-0.809906,2.965238,-0.652135,0.705787,0.263918,-0.083262,-98.001500,-13.102280,29.603511
46993,NaN,0.492321,-9.933945,-0.712914,-1.749366,-0.201807,0.001838,-0.221744,-0.750456,3.046027,-0.649006,0.710130,0.255673,-0.095590,-98.167367,-11.309198,29.791555
46994,NaN,0.732933,-10.309814,-0.738922,-1.359418,0.079773,0.459219,-0.205048,-0.653334,3.126770,-0.645859,0.714391,0.246753,-0.107820,-98.305686,-9.478847,29.909865
46995,NaN,0.795027,-10.686246,-0.922719,-1.018791,0.152943,0.892827,-0.180036,-0.546928,3.174695,-0.642738,0.718500,0.237241,-0.119841,-98.415316,-7.628894,29.959548
46996,NaN,0.897955,-10.844587,-0.955007,-0.650905,0.375775,1.084474,-0.156638,-0.427167,3.207232,-0.639656,0.722458,0.227151,-0.131519,-98.501531,-5.771566,29.933700
46997,NaN,0.796279,-10.762366,-0.870563,-0.467489,0.580977,0.987964,-0.139504,-0.312339,3.230430,-0.636580,0.726270,0.216539,-0.142855,-98.572620,-3.909830,29.839186
46998,NaN,0.596798,-11.440491,-1.046414,-0.338190,0.593209,1.670249,-0.230068,-0.219310,3.268362,-0.633080,0.730286,0.205500,-0.153824,-98.695910,-2.035840,29.684611
46999,NaN,0.573417,-12.264954,-1.352184,0.036075,0.622346,2.523592,-0.104730,-0.137131,3.312258,-0.629914,0.733811,0.193888,-0.164732,-98.751183,-0.143297,29.478046
47000,NaN,0.563414,-12.161992,-1.179229,0.303487,0.958992,2.377328,-0.035341,-0.072605,3.336193,-0.626872,0.736993,0.181874,-0.175487,-98.774396,1.755949,29.230460
47001,NaN,0.221103,-12.349789,-1.266059,0.393748,0.948781,2.560658,-0.063726,-0.026791,3.335420,-0.623590,0.740095,0.169693,-0.186009,-98.823091,3.651661,28.956660
47002,NaN,0.326027,-12.678335,-1.415817,0.912099,1.131863,2.864981,-0.067692,-0.022404,3.309141,-0.620151,0.742988,0.157553,-0.196365,-98.883571,5.530773,28.679173
47003,NaN,0.508421,-12.828527,-1.459823,1.456965,1.414014,2.947558,-0.066426,0.014919,3.265130,-0.616618,0.745676,0.145416,-0.206406,-98.954341,7.382401,28.382459
47004,NaN,0.511209,-13.011598,-1.500529,1.845346,1.618001,3.062755,-0.078972,0.067218,3.194539,-0.612991,0.748212,0.133356,-0.215958,-99.045944,9.187913,28.057210
47005,NaN,0.737753,-13.220624,-1.516508,2.416529,1.947962,3.148066,-0.063054,0.150154,3.077795,-0.609449,0.750523,0.121429,-0.224813,-99.145339,10.920354,27.691488
47006,NaN,1.547027,-13.480714,-1.515185,3.482608,2.559989,3.138130,-0.119096,0.297822,2.937261,-0.605809,0.752917,0.109614,-0.232587,-99.303609,12.557911,27.246473
47007,NaN,2.129470,-13.905621,-1.662084,4.427335,2.965806,3.311892,-0.173358,0.472570,2.705513,-0.602202,0.755395,0.098184,-0.238935,-99.524701,14.047614,26.715079
47008,NaN,3.152251,-14.245354,-1.887961,5.756567,3.446656,3.279470,-0.167499,0.628318,2.352237,-0.599017,0.757742,0.087594,-0.243582,-99.771705,15.319719,26.117241
47009,NaN,4.483034,-14.292783,-2.220367,7.318455,3.834412,2.877566,-0.107310,0.743608,1.933197,-0.596541,0.759767,0.078163,-0.246543,-100.004710,16.342376,25.486776
47010,NaN,4.861377,-13.670622,-2.314466,7.769742,3.785240,2.069046,-0.043579,0.787111,1.432993,-0.594891,0.761395,0.070415,-0.247840,-100.204949,17.075346,24.875357
47011,NaN,5.290083,-13.449790,-2.495808,8.313643,3.747452,1.674241,-0.020083,0.796492,0.946674,-0.593903,0.762751,0.064460,-0.247658,-100.385084,17.531943,24.306859
47012,NaN,5.174589,-12.611234,-2.221169,8.004144,3.683173,0.823132,0.042770,0.839961,0.513034,-0.593689,0.763813,0.059948,-0.246027,-100.526695,17.737465,23.756802
47013,NaN,4.625919,-11.077856,-1.672560,7.013081,3.477346,-0.558495,0.031732,0.858889,0.177730,-0.593837,0.764813,0.056674,-0.243325,-100.667871,17.751373,23.232374
47014,NaN,4.014948,-9.741703,-1.130335,5.984325,3.303336,-1.714913,0.038995,0.802568,-0.020952,-0.594229,0.765654,0.054316,-0.240241,-100.787757,17.657787,22.762965
47015,NaN,3.051091,-8.513936,-0.215299,4.498123,3.372459,-2.724955,0.089672,0.618623,-0.108561,-0.594862,0.766089,0.052779,-0.237616,-100.841703,17.534362,22.412912
47016,NaN,1.979343,-7.940635,0.752702,3.024084,3.658693,-3.103969,0.031092,0.272678,-0.141966,-0.595216,0.766275,0.052467,-0.236195,-100.866116,17.428867,22.270599
47017,NaN,1.033545,-7.838027,1.108781,2.009188,3.598811,-2.975730,-0.034026,-0.202323,-0.128656,-0.595179,0.766095,0.053596,-0.236619,-100.844169,17.382390,22.407339
47018,NaN,1.426379,-7.720854,0.627687,2.521839,3.287546,-3.113997,-0.112197,-0.661121,-0.118976,-0.594705,0.765602,0.056144,-0.238804,-100.786677,17.390321,22.813119
47019,NaN,2.189958,-8.047533,-0.629622,3.782254,2.575305,-2.811448,-0.197808,-1.070647,-0.146885,-0.593808,0.764851,0.060119,-0.242448,-100.704681,17.426032,23.464051
47020,NaN,2.365251,-10.317464,-4.035942,5.865346,0.368031,-0.127924,-0.663812,-1.249222,-0.336369,-0.591281,0.765178,0.065910,-0.246058,-100.852105,17.374367,24.241164
47021,NaN,5.389410,-10.165953,-7.064022,9.836992,-1.015366,-0.620631,-0.267476,-1.552239,-0.517768,-0.590358,0.763854,0.072800,-0.250409,-100.714293,17.253246,25.217177
47022,NaN,1.455303,-9.365860,-6.968083,6.244012,-2.655657,-0.202773,-0.609190,-1.317507,-0.789893,-0.588515,0.763682,0.080459,-0.252917,-100.807883,16.953377,26.084000
47023,NaN,-9.838428,-11.987950,-2.632156,-5.100767,-2.909790,4.780067,-0.346105,-1.008514,-0.602242,-0.587532,0.763161,0.086155,-0.254889,-100.813562,16.726572,26.747071
47024,NaN,-11.810953,-10.734604,1.114186,-8.852072,-1.052152,3.472777,-0.290364,-1.252876,-0.557769,-0.586575,0.762152,0.092324,-0.257937,-100.750086,16.550728,27.547946
47025,NaN,-4.434079,-14.417204,1.356574,-2.174521,3.405562,4.782836,-0.466961,-1.187256,-0.748592,-0.585190,0.761616,0.099251,-0.260082,-100.795998,16.260425,28.330767
47026,NaN,-0.472391,-15.235282,1.763342,0.956016,5.724854,4.391389,-0.023553,-0.617774,-1.094873,-0.586199,0.760317,0.105250,-0.259252,-100.675169,15.713825,28.816561
47027,NaN,-2.149932,-11.102365,2.198314,-1.411189,4.030810,0.886697,-0.028073,-0.382729,-1.145979,-0.587360,0.759278,0.110756,-0.257368,-100.597078,15.112860,29.168558
47028,NaN,-3.147430,-9.823108,0.592774,-1.692643,1.792296,0.220894,-0.256100,-0.534972,-1.029521,-0.587399,0.758752,0.116556,-0.256267,-100.633938,14.593347,29.595143
47029,NaN,-2.288024,-9.611778,-1.465978,0.000184,0.389842,0.168187,-0.317138,-0.647022,-0.936726,-0.587002,0.758288,0.122408,-0.255821,-100.695516,14.138404,30.076556
47030,NaN,-1.115277,-9.174111,-2.308207,1.310488,0.113647,-0.378427,-0.237863,-0.574962,-0.891494,-0.586873,0.757688,0.127770,-0.255273,-100.726932,13.701545,30.510308
47031,NaN,-0.959785,-9.349101,-2.323027,1.402585,0.204771,-0.235957,-0.203582,-0.487820,-0.840277,-0.586849,0.757109,0.132637,-0.254562,-100.754818,13.284498,30.887754
47032,NaN,-0.658732,-9.843875,-2.553477,1.769542,0.275777,0.219680,-0.041941,-0.508907,-0.758792,-0.587305,0.756068,0.137048,-0.254269,-100.692276,12.915393,31.267409
47033,NaN,-0.158813,-9.279502,-1.850477,1.699843,0.921994,-0.548842,-0.064385,-0.469547,-0.721698,-0.587645,0.755151,0.141229,-0.253918,-100.650800,12.562693,31.619686
47034,NaN,0.177005,-10.404375,-1.560004,1.860090,1.613019,0.417360,-0.155082,-0.355284,-0.642425,-0.587612,0.754691,0.144888,-0.253298,-100.679633,12.242444,31.896712
47035,NaN,-0.430666,-10.725386,-1.390427,1.232367,1.497337,0.835861,0.007232,-0.226131,-0.619878,-0.588251,0.753924,0.147875,-0.252373,-100.632924,11.921149,32.096768
47036,NaN,-1.253157,-9.891666,-0.721781,0.067908,1.359127,0.091064,-0.022509,-0.139311,-0.611415,-0.588824,0.753353,0.150610,-0.251120,-100.615025,11.595356,32.245318
47037,NaN,-1.607136,-9.712702,-1.149178,-0.051677,0.752847,0.070143,-0.134881,-0.122948,-0.604044,-0.588972,0.753131,0.153410,-0.249741,-100.664138,11.271979,32.383822
47038,NaN,-1.029893,-9.475546,-1.431529,0.513887,0.746331,-0.217140,-0.194113,-0.065562,-0.603135,-0.588933,0.753149,0.156109,-0.248099,-100.754510,10.943212,32.489315
47039,NaN,-1.018001,-9.555636,-1.569880,0.548560,0.646735,-0.112608,-0.217041,0.033371,-0.581659,-0.588854,0.753366,0.158464,-0.246129,-100.869316,10.616029,32.536497
47040,NaN,-1.147630,-9.418762,-1.937188,0.581780,0.231912,-0.148822,-0.189188,0.086598,-0.577686,-0.588911,0.753564,0.160610,-0.243989,-100.974170,10.285447,32.553144
47041,NaN,-1.313417,-9.285385,-2.183096,0.519311,-0.104551,-0.198716,-0.168832,0.109275,-0.573944,-0.589053,0.753724,0.162650,-0.241789,-101.069460,9.954444,32.557208
47042,NaN,-1.471635,-9.274148,-2.347368,0.424323,-0.341642,-0.148909,-0.144058,0.097269,-0.573350,-0.589272,0.753791,0.164691,-0.239654,-101.149582,9.625177,32.568347
47043,NaN,-1.211417,-9.135762,-2.445930,0.637780,-0.336940,-0.305233,-0.129512,0.083597,-0.571854,-0.589529,0.753793,0.166749,-0.237585,-101.219877,9.298207,32.587732
47044,NaN,-0.971143,-9.148744,-2.277669,0.693332,-0.089167,-0.360624,-0.119294,0.083076,-0.568465,-0.589814,0.753762,0.168780,-0.235533,-101.284613,8.973301,32.607205
47045,NaN,-1.126952,-9.141526,-1.890422,0.299123,0.118799,-0.415486,-0.091209,0.060049,-0.570247,-0.590183,0.753612,0.170853,-0.233586,-101.331065,8.649908,32.640445
47046,NaN,-1.141122,-9.195478,-1.671415,0.118490,0.280217,-0.402065,-0.100254,0.024901,-0.564136,-0.590475,0.753448,0.173015,-0.231778,-101.380219,8.334031,32.693024
47047,NaN,-1.120936,-9.395958,-1.614716,0.057419,0.366009,-0.220486,-0.139793,-0.004008,-0.553306,-0.590578,0.753369,0.175266,-0.230076,-101.449893,8.027472,32.761219
47048,NaN,-1.063833,-9.641445,-1.712278,0.110610,0.360077,0.030024,-0.161691,-0.023211,-0.535912,-0.590555,0.753343,0.177532,-0.228477,-101.531418,7.733057,32.838488
47049,NaN,-1.111996,-9.676197,-1.828246,0.085455,0.233465,0.094168,-0.155410,-0.035413,-0.511776,-0.590514,0.753299,0.179736,-0.226999,-101.608913,7.453595,32.920393
47050,NaN,-0.909348,-9.602075,-1.828344,0.206353,0.310529,-0.002979,-0.160831,-0.033243,-0.508432,-0.590445,0.753273,0.181924,-0.225515,-101.690295,7.175975,33.000854
47051,NaN,-0.804227,-9.648028,-1.808524,0.235265,0.380810,0.026084,-0.159343,-0.008283,-0.483292,-0.590374,0.753288,0.183942,-0.224012,-101.773025,6.909555,33.064770
47052,NaN,-0.709507,-9.712743,-1.832339,0.280638,0.415454,0.084115,-0.150164,0.010162,-0.463457,-0.590328,0.753310,0.185818,-0.222505,-101.852478,6.652295,33.116108
47053,NaN,-0.976106,-9.980565,-1.797733,-0.008973,0.346385,0.369457,-0.094656,0.040675,-0.451734,-0.590503,0.753208,0.187499,-0.220968,-101.902209,6.397947,33.149257
47054,NaN,-0.915622,-10.163982,-1.783933,-0.014079,0.414758,0.538877,-0.083119,0.098969,-0.459191,-0.590781,0.753127,0.189020,-0.219199,-101.949178,6.132665,33.150460
47055,NaN,-0.837678,-9.339912,-2.004897,0.149592,0.070573,-0.224794,-0.099141,0.164554,-0.471989,-0.591072,0.753147,0.190414,-0.217129,-102.008766,5.852288,33.116641
47056,NaN,-0.483331,-8.731189,-2.510675,0.699034,-0.299958,-0.746709,-0.127204,0.176020,-0.445788,-0.591235,0.753285,0.191703,-0.215065,-102.085434,5.585306,33.073407
47057,NaN,-0.576739,-8.951335,-2.726454,0.690127,-0.484881,-0.475609,-0.188150,0.161425,-0.392958,-0.591096,0.753631,0.192902,-0.213153,-102.196385,5.349471,33.032592
47058,NaN,-0.883797,-9.560915,-2.621913,0.314036,-0.437436,0.125951,-0.098622,0.092340,-0.352740,-0.591180,0.753677,0.194056,-0.211705,-102.252976,5.144613,33.025942
47059,NaN,-0.474305,-9.610099,-2.354079,0.474348,0.001514,0.081531,-0.076085,0.040738,-0.322178,-0.591267,0.753627,0.195224,-0.210563,-102.294179,4.963005,33.044856
47060,NaN,-0.670590,-9.231268,-2.161909,0.193358,-0.045430,-0.310039,-0.069137,0.040386,-0.309345,-0.591363,0.753568,0.196336,-0.209467,-102.331778,4.788776,33.062393
47061,NaN,-0.668844,-9.618979,-2.237962,0.189353,-0.028071,0.083972,-0.106482,0.042381,-0.290632,-0.591301,0.753637,0.197412,-0.208381,-102.390888,4.624642,33.076759
47062,NaN,-0.951797,-9.747082,-2.160925,-0.124024,-0.099991,0.215058,-0.061369,0.042503,-0.292162,-0.591408,0.753571,0.198444,-0.207334,-102.424377,4.459797,33.091267
47063,NaN,-0.724821,-9.735442,-2.181371,0.049801,-0.006328,0.190311,-0.066033,0.049708,-0.293538,-0.591505,0.753522,0.199465,-0.206251,-102.460665,4.293153,33.102104
47064,NaN,-0.620778,-9.758210,-2.271359,0.157294,-0.029244,0.224315,-0.038129,0.072140,-0.293099,-0.591727,0.753414,0.200389,-0.205112,-102.482121,4.124133,33.100280
47065,NaN,-0.519440,-9.533539,-2.009688,0.085862,0.176413,-0.057767,-0.051194,0.096129,-0.278747,-0.591910,0.753380,0.201201,-0.203912,-102.511924,3.960015,33.083397
47066,NaN,-0.691857,-9.618092,-2.077187,-0.051619,0.034184,0.051246,-0.018343,0.083915,-0.270539,-0.592193,0.753244,0.201983,-0.202814,-102.522662,3.802150,33.072300
47067,NaN,-0.658161,-9.439745,-2.132929,-0.004678,-0.043922,-0.112721,-0.024833,0.054046,-0.260230,-0.592411,0.753105,0.202823,-0.201853,-102.535876,3.653608,33.076796
47068,NaN,-0.610708,-9.501885,-2.058020,-0.031660,0.043920,-0.071474,-0.014698,0.034636,-0.257666,-0.592642,0.752920,0.203698,-0.200982,-102.542838,3.509068,33.091775
47069,NaN,-0.570928,-9.413644,-2.048032,-0.019261,0.042872,-0.162049,-0.028244,0.024441,-0.259655,-0.592815,0.752759,0.204626,-0.200130,-102.557034,3.364535,33.112838
47070,NaN,-0.586127,-9.452846,-2.162088,0.005422,-0.061003,-0.098231,-0.026232,0.019564,-0.264944,-0.592993,0.752583,0.205584,-0.199282,-102.570140,3.217809,33.137225
47071,NaN,-0.519148,-9.424333,-2.184335,0.053639,-0.060419,-0.124947,-0.023231,0.025350,-0.264666,-0.593189,0.752401,0.206523,-0.198416,-102.581562,3.070369,33.158463
47072,NaN,-0.339653,-9.377665,-2.124400,0.152930,0.064172,-0.192839,-0.016407,0.026902,-0.265145,-0.593410,0.752199,0.207450,-0.197549,-102.589375,2.922625,33.178815
47073,NaN,-0.185639,-9.287783,-2.295587,0.359770,-0.020449,-0.250408,-0.044096,-0.010931,-0.268478,-0.593491,0.752037,0.208530,-0.196786,-102.611824,2.777594,33.220896
47074,NaN,-0.530352,-9.266098,-2.247955,0.027930,-0.186169,-0.264930,-0.002339,-0.182677,-0.278795,-0.593557,0.751570,0.210115,-0.196680,-102.606041,2.648439,33.360328
47075,NaN,-0.374708,-9.438521,-2.164682,0.082282,-0.011609,-0.122229,0.037187,-0.221861,-0.278995,-0.593731,0.750944,0.211780,-0.196763,-102.576732,2.523862,33.521750
47076,NaN,-0.086484,-9.252038,-2.018144,0.242265,0.213372,-0.348210,0.014312,-0.188649,-0.274483,-0.593846,0.750423,0.213349,-0.196709,-102.561906,2.397766,33.663870
47077,NaN,-0.253599,-9.321554,-2.092591,0.120066,0.063770,-0.256742,-0.039036,-0.098154,-0.258040,-0.593842,0.750163,0.214642,-0.196307,-102.579911,2.269417,33.753361
47078,NaN,-0.322357,-9.411204,-2.122714,0.050300,0.009838,-0.159817,-0.049332,-0.039543,-0.277330,-0.593878,0.749970,0.215841,-0.195617,-102.605389,2.123161,33.812424
47079,NaN,-0.204231,-9.440460,-2.102127,0.111575,0.087883,-0.139906,-0.046324,0.002334,-0.266053,-0.593960,0.749819,0.216871,-0.194806,-102.629984,1.977824,33.846781
47080,NaN,-0.443969,-9.382294,-2.170638,-0.067799,-0.122956,-0.173370,-0.048479,0.038594,-0.277314,-0.594082,0.749698,0.217837,-0.193823,-102.656724,1.821831,33.862253
47081,NaN,-0.454857,-9.412473,-2.210095,-0.083053,-0.166052,-0.135316,-0.051105,0.057532,-0.287818,-0.594225,0.749588,0.218788,-0.192734,-102.685095,1.657421,33.868604
47082,NaN,-0.465352,-9.503240,-2.195793,-0.134858,-0.154343,-0.050129,-0.047624,0.082316,-0.295022,-0.594412,0.749484,0.219689,-0.191535,-102.712038,1.486038,33.862007
47083,NaN,-0.609694,-9.597586,-2.131646,-0.326660,-0.177918,0.030628,-0.034498,0.085674,-0.310438,-0.594667,0.749323,0.220625,-0.190291,-102.731243,1.305444,33.855624
47084,NaN,-0.597483,-9.639956,-2.060302,-0.388131,-0.120064,0.054705,-0.035663,0.066281,-0.326675,-0.594909,0.749129,0.221678,-0.189070,-102.751015,1.118394,33.862119
47085,NaN,-0.491208,-9.658913,-2.093781,-0.312343,-0.099959,0.077315,-0.028256,0.056335,-0.335700,-0.595175,0.748891,0.222789,-0.187866,-102.766246,0.927400,33.875454
47086,NaN,-0.512340,-9.601837,-2.087481,-0.356564,-0.134179,0.019407,-0.031334,0.051006,-0.355027,-0.595439,0.748634,0.223989,-0.186622,-102.783405,0.726446,33.894187
47087,NaN,-0.398528,-9.748155,-2.252276,-0.218601,-0.194158,0.195934,-0.007352,0.043398,-0.360217,-0.595789,0.748289,0.225210,-0.185416,-102.786633,0.523408,33.917953
47088,NaN,-0.327830,-9.590186,-2.139264,-0.232586,-0.113399,0.015259,0.011050,0.040461,-0.371067,-0.596211,0.747873,0.226460,-0.184210,-102.779583,0.314831,33.944640
47089,NaN,-0.259683,-9.727694,-2.324545,-0.120783,-0.221177,0.189080,0.015271,0.045878,-0.378623,-0.596662,0.747437,0.227719,-0.182965,-102.770017,0.101195,33.969316
47090,NaN,-0.315598,-9.616029,-2.117490,-0.296182,-0.128258,0.033484,0.024759,0.053665,-0.385241,-0.597159,0.746972,0.228970,-0.181681,-102.755310,-0.116983,33.990343
47091,NaN,-0.132940,-9.729247,-2.220120,-0.133415,-0.112038,0.166009,0.020636,0.073486,-0.392619,-0.597669,0.746523,0.230192,-0.180295,-102.742802,-0.341936,34.001267
47092,NaN,-0.058792,-9.569428,-2.159619,-0.115703,-0.074234,-0.003389,0.024151,0.083603,-0.401179,-0.598208,0.746062,0.231411,-0.178850,-102.728490,-0.572812,34.007473
47093,NaN,0.004566,-9.578751,-2.156760,-0.097861,-0.058971,0.005199,0.017460,0.098154,-0.405719,-0.598742,0.745625,0.232610,-0.177328,-102.717742,-0.808201,34.006162
47094,NaN,-0.021833,-9.544032,-2.081106,-0.189045,-0.042954,-0.046301,0.019142,0.115848,-0.417504,-0.599309,0.745182,0.233795,-0.175707,-102.706090,-1.052270,33.996307
47095,NaN,-0.028968,-9.625999,-2.224822,-0.162723,-0.175085,0.064216,0.021105,0.127253,-0.435815,-0.599911,0.744717,0.235014,-0.173989,-102.692981,-1.308142,33.982424
47096,NaN,0.110582,-9.659481,-2.273131,-0.061388,-0.157671,0.109819,0.025815,0.135326,-0.445467,-0.600544,0.744231,0.236237,-0.172217,-102.677230,-1.570287,33.965082
47097,NaN,0.195289,-9.696906,-2.257633,-0.041463,-0.120071,0.144657,0.036456,0.149921,-0.456671,-0.601242,0.743707,0.237449,-0.170369,-102.654894,-1.840653,33.940988
47098,NaN,0.176568,-9.741893,-2.278729,-0.089036,-0.170786,0.191860,0.055730,0.167748,-0.460782,-0.602031,0.743133,0.238604,-0.168463,-102.621273,-2.115411,33.907210
47099,NaN,0.146834,-9.668916,-2.243895,-0.158834,-0.202269,0.110932,0.044719,0.185774,-0.473950,-0.602810,0.742585,0.239762,-0.166438,-102.593254,-2.399895,33.864928
47100,NaN,0.088169,-9.838508,-2.258954,-0.265572,-0.252053,0.275553,0.034346,0.216426,-0.486783,-0.603592,0.742075,0.240882,-0.164246,-102.570471,-2.695235,33.806867
47101,NaN,0.087203,-9.933455,-2.314316,-0.294412,-0.316101,0.378011,0.036166,0.244825,-0.507184,-0.604429,0.741552,0.241989,-0.161888,-102.545464,-3.005617,33.735402
47102,NaN,0.261346,-10.112983,-2.240680,-0.264068,-0.166804,0.544123,0.026184,0.296979,-0.529567,-0.605304,0.741069,0.243027,-0.159256,-102.524511,-3.334856,33.637273
47103,NaN,0.258263,-10.379702,-2.189519,-0.387977,-0.124514,0.790732,0.036595,0.357534,-0.555549,-0.606307,0.740562,0.243968,-0.156332,-102.494916,-3.686209,33.508353
47104,NaN,0.110546,-10.441899,-2.351084,-0.489005,-0.372168,0.873519,0.074404,0.392614,-0.590162,-0.607511,0.739919,0.244897,-0.153217,-102.441986,-4.061064,33.363656
47105,NaN,-0.030561,-10.487540,-2.412080,-0.638431,-0.541340,0.916078,0.096284,0.436488,-0.632846,-0.608876,0.739179,0.245832,-0.149835,-102.373859,-4.465148,33.199240
47106,NaN,-0.438271,-10.549881,-2.285596,-1.116232,-0.702702,0.909983,0.105980,0.453123,-0.693026,-0.610331,0.738338,0.246927,-0.146218,-102.298967,-4.904651,33.032175
47107,NaN,-0.515503,-11.058498,-2.439121,-1.265566,-0.860241,1.419541,0.080565,0.475862,-0.771933,-0.611768,0.737479,0.248258,-0.142242,-102.236744,-5.390970,32.861439
47108,NaN,-0.762250,-11.434340,-2.619214,-1.532839,-1.157055,1.784556,0.089414,0.503264,-0.848464,-0.613311,0.736502,0.249775,-0.137939,-102.167476,-5.923202,32.683781
47109,NaN,-0.764763,-11.953645,-2.938416,-1.569368,-1.428275,2.336576,0.050556,0.559071,-0.907924,-0.614807,0.735587,0.251361,-0.133197,-102.115855,-6.495301,32.481276
47110,NaN,-0.281436,-13.346415,-1.763712,-2.151198,-0.100973,3.479306,0.110669,0.617772,-0.995116,-0.616636,0.734396,0.253039,-0.128041,-102.025102,-7.123013,32.255079
47111,NaN,-0.783301,-12.355153,-1.254051,-2.724931,-0.134781,2.327781,0.145914,0.669252,-1.053867,-0.618675,0.733026,0.254742,-0.122556,-101.908337,-7.789332,32.005521
47112,NaN,-0.849683,-12.754943,-1.145616,-3.040871,-0.116433,2.655695,-0.001775,0.657802,-1.140234,-0.620185,0.731968,0.256877,-0.116652,-101.875640,-8.502430,31.771293
47113,NaN,-1.557043,-12.988252,-0.858312,-3.966036,-0.296696,2.678743,-0.014981,0.550345,-1.277871,-0.621562,0.730676,0.259845,-0.110694,-101.859059,-9.279835,31.613926
47114,NaN,-1.413335,-13.086259,-0.945750,-3.979488,-0.368048,2.763773,-0.116717,0.470809,-1.397574,-0.622497,0.729466,0.263541,-0.104515,-101.908875,-10.115121,31.515764
47115,NaN,-1.644262,-13.280966,-1.057754,-4.340754,-0.649344,2.873483,-0.132056,0.475744,-1.542567,-0.623423,0.728069,0.267742,-0.097844,-101.968443,-11.032156,31.433126
47116,NaN,-1.914405,-13.588604,-1.614600,-4.575492,-1.332962,3.156713,-0.132478,0.495243,-1.678917,-0.624395,0.726451,0.272360,-0.090665,-102.028469,-12.028219,31.356302
47117,NaN,-1.966154,-13.698887,-2.151278,-4.603638,-1.921059,3.274085,-0.047059,0.502143,-1.811710,-0.625697,0.724327,0.277378,-0.083161,-102.040534,-13.099240,31.292512
47118,NaN,-1.596843,-13.407665,-2.355656,-4.326553,-2.058288,3.028759,0.086279,0.553515,-1.918321,-0.627537,0.721593,0.282540,-0.075309,-101.971297,-14.236426,31.210935
47119,NaN,-0.985668,-12.634339,-2.537941,-3.707670,-2.086851,2.391054,0.035735,0.619705,-2.014991,-0.629261,0.718829,0.287832,-0.066842,-101.921748,-15.435107,31.101660
47120,NaN,-0.648811,-12.237832,-2.811129,-3.396205,-2.301149,2.072268,-0.088223,0.686802,-2.081783,-0.630584,0.716301,0.293162,-0.057732,-101.932572,-16.679602,30.959939
47121,NaN,0.503853,-12.283683,-3.381225,-2.438205,-2.359510,2.477820,-0.001664,0.757981,-2.102420,-0.632253,0.713400,0.298280,-0.048429,-101.878260,-17.943452,30.778057
47122,NaN,1.081929,-11.760079,-3.264982,-2.051947,-2.136903,2.076257,0.156345,0.839314,-2.090132,-0.634522,0.709951,0.303021,-0.039097,-101.712996,-19.210177,30.542159
47123,NaN,1.442024,-11.032307,-3.245893,-1.699556,-2.108135,1.456240,0.177447,0.885525,-2.061114,-0.636853,0.706397,0.307471,-0.029728,-101.517674,-20.464577,30.269607
47124,NaN,1.529502,-9.732529,-3.028636,-1.395469,-2.018767,0.197659,0.242670,0.896348,-2.022629,-0.639344,0.702609,0.311702,-0.020531,-101.273196,-21.698253,29.977965
47125,NaN,1.830640,-9.027780,-3.259975,-0.931574,-2.204868,-0.339217,0.167103,0.864031,-1.937168,-0.641437,0.699109,0.315707,-0.011610,-101.066521,-22.878496,29.688532
47126,NaN,1.973052,-8.306937,-3.991406,-0.359851,-2.887174,-0.848249,0.074059,0.787425,-1.866612,-0.643009,0.695941,0.319683,-0.003026,-100.920975,-24.010581,29.430695
47127,NaN,3.337166,-8.968951,-3.810695,0.199904,-2.241477,0.238814,0.024859,0.760562,-1.776301,-0.644304,0.693006,0.323400,0.005244,-100.799034,-25.087618,29.174153
47128,NaN,3.137961,-9.143622,-3.433896,-0.350884,-2.113609,0.219784,0.135551,0.863083,-1.743708,-0.646088,0.689701,0.326647,0.013594,-100.577801,-26.157270,28.843390
47129,NaN,2.726253,-7.665925,-2.916260,-0.329223,-1.864779,-1.379686,0.217573,0.788238,-1.655934,-0.647982,0.686217,0.329809,0.021258,-100.316891,-27.167621,28.542128
47130,NaN,2.646324,-6.370049,-3.005228,0.159091,-1.992763,-2.559117,0.156802,0.689938,-1.465110,-0.649476,0.683204,0.332604,0.028074,-100.102113,-28.060060,28.273726
47131,NaN,1.271570,-5.850904,-2.337626,-0.998007,-1.993130,-3.783991,0.156819,0.649508,-1.261923,-0.650895,0.680495,0.334816,0.034082,-99.882234,-28.832090,28.002869
47132,NaN,0.567130,-4.986138,-2.260799,-1.194475,-2.199101,-4.910520,0.307093,0.603397,-0.989315,-0.652765,0.677732,0.336262,0.038801,-99.570549,-29.445422,27.725197
47133,NaN,-2.868310,-3.629599,0.569867,-4.272853,-0.931032,-8.199679,0.390514,0.467320,-0.607928,-0.654746,0.675346,0.336867,0.041664,-99.229569,-29.828162,27.490107
47134,NaN,-2.682120,-3.752284,-1.161449,-3.531606,-2.452794,-7.779487,0.000680,-0.023376,-0.358734,-0.654629,0.674751,0.338152,0.042720,-99.256702,-30.025139,27.546326
47135,NaN,-3.440577,-4.528978,-1.071729,-4.545636,-2.748169,-7.514302,0.024026,-0.262737,-0.031765,-0.654255,0.674682,0.339121,0.041848,-99.331165,-30.014038,27.724760
47136,NaN,-3.100773,-4.714071,-0.538221,-4.577806,-2.147027,-7.251267,0.015984,-0.293639,0.317077,-0.653871,0.675235,0.339013,0.039755,-99.401390,-29.803659,27.885018
47137,NaN,-1.706401,-5.004839,-0.805184,-3.536125,-1.846336,-6.249640,0.005668,-0.226452,0.594098,-0.653618,0.676273,0.337744,0.036988,-99.439883,-29.441715,27.971689
47138,NaN,-1.417489,-4.896338,-0.943465,-3.179663,-1.833921,-6.152109,0.021524,-0.165718,0.872678,-0.653561,0.677708,0.335333,0.033500,-99.434932,-28.929155,27.987901
47139,NaN,-1.552471,-4.999481,-0.965708,-3.291983,-1.900465,-6.085984,0.021633,-0.144163,1.181100,-0.653575,0.679637,0.331796,0.029064,-99.407151,-28.243025,27.958107
47140,NaN,-1.542940,-5.389777,-0.503626,-3.611716,-1.482037,-5.757750,0.017578,-0.162452,1.440856,-0.653552,0.681983,0.327422,0.023735,-99.375231,-27.409602,27.912427
47141,NaN,-1.411115,-6.048134,-0.154069,-3.899620,-1.122631,-5.108788,-0.001292,-0.233850,1.670967,-0.653336,0.684733,0.322473,0.017425,-99.364421,-26.438041,27.889467
47142,NaN,-1.176047,-6.586627,0.008223,-3.947357,-0.868015,-4.480671,0.011700,-0.351258,1.894720,-0.652940,0.687755,0.317117,0.009975,-99.369017,-25.330417,27.916554
47143,NaN,-0.867781,-6.892388,-0.110231,-3.689946,-0.809960,-3.982018,0.024001,-0.464634,2.090992,-0.652348,0.690982,0.311422,0.001458,-99.386618,-24.099751,27.994414
47144,NaN,-0.504534,-7.158048,-0.154744,-3.373746,-0.645569,-3.510704,0.021286,-0.585018,2.273300,-0.651477,0.694415,0.305453,-0.008050,-99.426022,-22.756227,28.125506
47145,NaN,-0.167333,-7.581142,-0.330318,-3.061197,-0.598625,-2.893250,0.009709,-0.695813,2.445223,-0.650293,0.698038,0.299199,-0.018500,-99.486571,-21.303396,28.305055
47146,NaN,0.025483,-7.988763,-0.466694,-2.842860,-0.558572,-2.353384,0.008552,-0.799973,2.603328,-0.648819,0.701771,0.292683,-0.029806,-99.558936,-19.752765,28.526871
47147,NaN,0.349572,-8.487244,-0.598074,-2.517073,-0.433884,-1.689600,-0.010911,-0.876311,2.746409,-0.647017,0.705625,0.285855,-0.041828,-99.644893,-18.112029,28.776388
47148,NaN,0.741249,-9.136856,-0.852278,-2.094015,-0.358577,-0.855100,-0.030482,-0.923571,2.869797,-0.644910,0.709556,0.278689,-0.054360,-99.738642,-16.398373,29.035297
47149,NaN,1.122787,-9.731972,-1.152511,-1.592844,-0.297297,-0.082984,-0.008683,-0.928609,2.962774,-0.642696,0.713376,0.271135,-0.067247,-99.808896,-14.629616,29.284024
47150,NaN,1.350620,-10.051200,-1.157339,-1.227950,-0.030850,0.320079,0.019232,-0.911909,3.037786,-0.640420,0.717039,0.263186,-0.080317,-99.851118,-12.821672,29.510600
47151,NaN,1.526293,-10.487019,-1.259138,-0.868169,0.146460,0.822530,0.022135,-0.875182,3.088345,-0.638019,0.720589,0.254867,-0.093420,-99.878201,-10.986859,29.709318
47152,NaN,1.694406,-10.861882,-1.241100,-0.526724,0.438086,1.228693,0.032698,-0.836247,3.112788,-0.635527,0.723968,0.246267,-0.106431,-99.888823,-9.143818,29.880284
47153,NaN,1.864466,-11.129649,-1.182084,-0.158048,0.771650,1.505939,0.027579,-0.809005,3.120930,-0.632881,0.727198,0.237487,-0.119355,-99.893949,-7.297019,30.034960
47154,NaN,2.057172,-11.336721,-1.224867,0.302699,1.033115,1.723483,0.014378,-0.768277,3.115190,-0.630073,0.730300,0.228548,-0.132046,-99.899642,-5.459277,30.165073
47155,NaN,2.174037,-11.590273,-1.422850,0.777689,1.135653,1.984726,0.025806,-0.694081,3.120466,-0.627226,0.733230,0.219287,-0.144481,-99.890718,-3.624056,30.253539
47156,NaN,2.282809,-11.588557,-1.539415,1.254323,1.276480,1.962757,0.069235,-0.599999,3.114311,-0.624486,0.735901,0.209669,-0.156543,-99.852191,-1.803397,30.288801
47157,NaN,2.229517,-11.659954,-1.560877,1.537632,1.421406,1.975657,0.083032,-0.500931,3.108156,-0.621748,0.738413,0.199698,-0.168216,-99.803261,0.005842,30.271330
47158,NaN,2.030371,-11.784226,-1.626178,1.714359,1.459475,2.042860,0.110477,-0.420779,3.083094,-0.619060,0.740702,0.189501,-0.179482,-99.740370,1.791382,30.211555
47159,NaN,1.919569,-11.768878,-1.683136,1.974086,1.522175,1.968599,0.142460,-0.360520,3.055080,-0.616422,0.742739,0.179145,-0.190444,-99.661830,3.557070,30.123814
47160,NaN,1.842081,-11.771805,-1.787400,2.282653,1.557033,1.914092,0.174477,-0.296198,3.032648,-0.613838,0.744546,0.168603,-0.201063,-99.570662,5.302345,30.002988
47161,NaN,1.818587,-11.855504,-1.693385,2.534355,1.795403,1.895020,0.185264,-0.222263,2.983600,-0.611263,0.746179,0.157965,-0.211237,-99.480155,7.014728,29.848499
47162,NaN,1.966247,-12.145178,-1.800419,3.040115,1.984625,2.079364,0.207103,-0.139445,2.930469,-0.608757,0.747629,0.147216,-0.220892,-99.387702,8.687905,29.652754
47163,NaN,2.190893,-12.157833,-1.813982,3.554657,2.222754,1.948126,0.247649,-0.015244,2.849841,-0.606453,0.748872,0.136313,-0.229837,-99.287215,10.305827,29.396618
47164,NaN,2.155462,-12.300156,-1.827273,3.846022,2.349905,1.975232,0.254428,0.125440,2.743313,-0.604274,0.750037,0.125350,-0.237875,-99.203752,11.849412,29.069552
47165,NaN,2.113150,-12.367389,-1.732151,4.061048,2.535753,1.912800,0.288966,0.223029,2.598524,-0.602345,0.750985,0.114568,-0.245104,-99.117621,13.304097,28.701159
47166,NaN,2.512375,-12.297000,-1.544307,4.570683,2.959555,1.600263,0.230775,0.282964,2.414022,-0.600364,0.751957,0.104354,-0.251463,-99.078524,14.647936,28.313393
47167,NaN,3.055067,-12.457395,-1.533329,5.294172,3.344505,1.485588,0.130547,0.296896,2.153760,-0.598257,0.753008,0.095187,-0.256917,-99.100950,15.844603,27.940916
47168,NaN,3.772157,-12.622929,-1.376726,6.059594,3.921764,1.294035,0.025152,0.251434,1.821148,-0.596100,0.754084,0.087535,-0.261457,-99.175627,16.855664,27.622594
47169,NaN,4.636862,-12.939370,-1.606131,7.128420,4.264652,1.255408,-0.065795,0.139682,1.418569,-0.594035,0.755054,0.081846,-0.265173,-99.276553,17.649926,27.407022
47170,NaN,5.392155,-13.060477,-1.819646,8.014568,4.502494,1.071026,-0.049474,0.020929,0.968239,-0.592560,0.755609,0.078186,-0.267984,-99.336417,18.199193,27.302908
47171,NaN,6.214918,-12.710328,-2.062285,8.831295,4.588647,0.452924,-0.015262,-0.036289,0.515469,-0.591788,0.755794,0.076359,-0.269688,-99.352450,18.498554,27.277458
47172,NaN,6.762580,-12.013392,-2.291311,9.295176,4.441159,-0.369173,0.040315,0.031264,0.106943,-0.591801,0.755750,0.075801,-0.269940,-99.337252,18.559857,27.250943
47173,NaN,6.620274,-10.805378,-2.560868,9.063361,3.786766,-1.406853,0.097999,0.167913,-0.215692,-0.592520,0.755594,0.075980,-0.268748,-99.304379,18.426566,27.175204
47174,NaN,5.986460,-9.593026,-2.469399,8.220687,3.208852,-2.323694,0.133276,0.321393,-0.437264,-0.593724,0.755454,0.076493,-0.266325,-99.273371,18.153342,27.029015
47175,NaN,5.256320,-8.600266,-2.300130,7.295563,2.713675,-3.008690,0.128517,0.411901,-0.566464,-0.595113,0.755390,0.077232,-0.263177,-99.256660,17.798963,26.842119
47176,NaN,4.559264,-7.854995,-2.220079,6.489710,2.229092,-3.462019,0.159054,0.426407,-0.613638,-0.596675,0.755228,0.078064,-0.259837,-99.222827,17.416453,26.650965
47177,NaN,2.517140,-7.609832,-1.763466,4.445849,1.642135,-3.112475,0.063836,0.352917,-0.665445,-0.597910,0.755222,0.079435,-0.256582,-99.227549,17.011403,26.508864
47178,NaN,-2.421516,-8.752876,-5.169425,2.033638,-3.120330,-0.049125,0.035528,0.140925,-0.522667,-0.598762,0.755079,0.080935,-0.254538,-99.215521,16.706613,26.478333
47179,NaN,-7.610283,-5.678812,-2.291528,-4.391479,-3.707308,-1.914138,0.164405,-0.030013,-0.307795,-0.599757,0.754414,0.081971,-0.253834,-99.106383,16.538860,26.528084
47180,NaN,-8.886335,-8.415286,-1.966086,-5.160224,-3.260410,0.975791,-0.389421,-0.408919,-0.253996,-0.598434,0.754948,0.084643,-0.254491,-99.252912,16.436315,26.796108
47181,NaN,-8.191749,-12.688077,-1.764983,-3.934766,-1.652768,4.781592,-0.581265,-0.833178,-0.448076,-0.596443,0.755418,0.089559,-0.256085,-99.434077,16.264300,27.333234
47182,NaN,-5.404096,-17.013783,-0.083913,-1.750297,2.171252,7.819673,-0.652732,-0.913835,-0.824202,-0.594603,0.755800,0.096224,-0.256818,-99.635475,15.889077,27.954582
47183,NaN,-0.934825,-16.752903,1.467564,1.036165,5.395935,6.108782,-0.422729,-0.720996,-1.261438,-0.594255,0.755494,0.103668,-0.255622,-99.728869,15.249992,28.506346
47184,NaN,-0.001867,-13.153103,1.209163,1.233057,4.573496,2.517199,-0.255255,-0.440843,-1.327656,-0.594738,0.754975,0.110310,-0.253241,-99.773435,14.546836,28.899800
47185,NaN,-1.460159,-9.338025,0.265947,-0.166130,2.017901,-0.576840,-0.049205,-0.136700,-1.205847,-0.595988,0.754261,0.115323,-0.250180,-99.750850,13.883022,29.103165
47186,NaN,-2.275365,-7.499208,-1.085579,-0.480542,-0.032014,-1.915772,-0.220906,-0.052254,-1.132734,-0.596525,0.754182,0.120018,-0.246908,-99.842534,13.252341,29.249639
47187,NaN,-1.533368,-8.367327,-2.086318,0.676408,-0.314376,-1.085776,-0.559523,-0.267312,-1.076724,-0.595568,0.754852,0.125558,-0.244405,-100.102278,12.675071,29.516938
47188,NaN,0.539371,-9.854236,-2.456015,2.676485,0.762697,-0.030945,-0.656824,-0.303401,-1.022943,-0.594130,0.755774,0.131116,-0.242124,-100.416974,12.133091,29.801448
47189,NaN,0.968247,-10.097823,-2.654644,3.059449,0.881043,0.177970,-0.529941,-0.165976,-0.923595,-0.593123,0.756523,0.135733,-0.239697,-100.679113,11.634031,29.998754
47190,NaN,-0.229973,-9.602431,-3.207081,2.204568,-0.290369,0.066583,-0.375086,-0.176298,-0.776174,-0.592502,0.756885,0.139633,-0.237843,-100.856163,11.219828,30.187196
47191,NaN,-0.171451,-9.682764,-3.166392,2.170895,-0.213030,0.139843,-0.210655,-0.171611,-0.664686,-0.592367,0.756829,0.142901,-0.236413,-100.942611,10.868152,30.361602
47192,NaN,0.420876,-9.798187,-1.928644,1.969070,1.125662,-0.078387,-0.187091,-0.031431,-0.597262,-0.592332,0.756910,0.145467,-0.234666,-101.033161,10.539472,30.448391
47193,NaN,-0.487587,-10.179265,-1.937264,1.166677,0.750855,0.467533,-0.185947,0.061831,-0.575146,-0.592341,0.757105,0.147673,-0.232631,-101.133180,10.212908,30.480033
47194,NaN,-1.383744,-9.761813,-1.605376,0.154779,0.456763,0.164895,-0.122959,0.004283,-0.533156,-0.592489,0.757073,0.149814,-0.230982,-101.192616,9.916564,30.540053
47195,NaN,-1.104829,-9.670725,-1.923610,0.505425,0.295826,0.091890,-0.177271,-0.056773,-0.506779,-0.592354,0.757144,0.152099,-0.229600,-101.277670,9.641713,30.632393
47196,NaN,-0.984144,-9.872723,-2.540912,0.894764,-0.115418,0.389337,-0.128614,-0.038230,-0.486066,-0.592387,0.757104,0.154193,-0.228244,-101.337696,9.376752,30.711925
47197,NaN,-1.079627,-9.642966,-2.246069,0.606519,0.004240,0.128598,-0.015639,0.035729,-0.477102,-0.592893,0.756815,0.155905,-0.226721,-101.339949,9.108294,30.748565
47198,NaN,-0.882334,-9.416015,-1.729979,0.452998,0.452947,-0.219871,-0.050052,0.096665,-0.474092,-0.593308,0.756697,0.157462,-0.224948,-101.367860,8.834907,30.750111
47199,NaN,-0.877318,-9.534272,-1.704654,0.403935,0.486937,-0.108183,-0.077629,0.136929,-0.480983,-0.593656,0.756694,0.158957,-0.222978,-101.414575,8.552829,30.729871
47200,NaN,-1.218841,-9.475808,-1.699324,0.064212,0.286389,-0.113313,-0.070842,0.154791,-0.486641,-0.594045,0.756683,0.160410,-0.220929,-101.458970,8.265793,30.700258
47201,NaN,-1.459781,-9.473643,-1.905676,-0.078375,-0.024767,-0.039995,-0.084145,0.140753,-0.485901,-0.594369,0.756691,0.161918,-0.218923,-101.509368,7.980472,30.678904
47202,NaN,-1.463271,-9.423991,-1.932249,-0.114340,-0.077211,-0.082985,-0.099583,0.124543,-0.483011,-0.594613,0.756725,0.163477,-0.216973,-101.567582,7.698890,30.666568
47203,NaN,-1.290483,-9.521123,-2.031495,0.038691,-0.064549,0.007609,-0.117309,0.118677,-0.493878,-0.594795,0.756791,0.165114,-0.214996,-101.634922,7.411595,30.659256
47204,NaN,-1.216408,-9.437478,-2.087223,0.082391,-0.108611,-0.071880,-0.115058,0.108311,-0.500852,-0.594979,0.756830,0.166803,-0.213039,-101.700372,7.121856,30.658842
47205,NaN,-1.156137,-9.482242,-2.164195,0.125738,-0.146520,-0.020047,-0.127120,0.104149,-0.497669,-0.595108,0.756895,0.168506,-0.211095,-101.772129,6.834109,30.660870
47206,NaN,-0.829157,-9.575442,-2.099488,0.322650,0.081075,0.019584,-0.141793,0.101579,-0.483514,-0.595158,0.757011,0.170176,-0.209190,-101.852602,6.554883,30.662948
47207,NaN,-0.677344,-9.703996,-2.180065,0.445562,0.108371,0.145654,-0.128899,0.117509,-0.462835,-0.595248,0.757116,0.171707,-0.207295,-101.926621,6.285088,30.654062
47208,NaN,-0.599236,-9.466137,-2.061073,0.408398,0.179032,-0.116511,-0.122483,0.152159,-0.438300,-0.595361,0.757257,0.173033,-0.205347,-101.999608,6.025203,30.622960
47209,NaN,-0.474370,-9.331037,-2.201123,0.546546,0.085451,-0.229784,-0.169464,0.136068,-0.406193,-0.595248,0.757542,0.174335,-0.203513,-102.098490,5.784887,30.597558
47210,NaN,-0.331071,-9.685201,-2.368391,0.707531,0.093016,0.137821,-0.114460,0.114486,-0.361483,-0.595274,0.757680,0.175472,-0.201941,-102.165365,5.572480,30.579164
47211,NaN,-0.372124,-9.769803,-2.329070,0.615600,0.114507,0.218261,-0.066326,0.104043,-0.311215,-0.595423,0.757703,0.176403,-0.200599,-102.204300,5.389147,30.560814
47212,NaN,-0.406442,-9.656872,-2.186351,0.487773,0.178304,0.083308,-0.019087,0.097703,-0.279622,-0.595709,0.757607,0.177184,-0.199418,-102.216432,5.224590,30.542199
47213,NaN,-0.504849,-9.511504,-2.102614,0.340311,0.153894,-0.065636,-0.038323,0.096331,-0.250002,-0.595894,0.757590,0.177877,-0.198311,-102.239491,5.076436,30.520858
47214,NaN,-0.440040,-9.543611,-2.125073,0.383898,0.166675,-0.034402,-0.042496,0.084501,-0.221444,-0.596020,0.757600,0.178499,-0.197331,-102.264901,4.946045,30.502693
47215,NaN,-0.388077,-9.645036,-2.114386,0.399501,0.216377,0.058558,-0.017411,0.074339,-0.203248,-0.596216,0.757539,0.179060,-0.196465,-102.275306,4.826714,30.488104
47216,NaN,-0.443338,-9.512844,-2.056763,0.310061,0.197271,-0.076880,0.003422,0.073359,-0.191909,-0.596476,0.757426,0.179558,-0.195656,-102.274106,4.714209,30.472646
47217,NaN,-0.611596,-9.525869,-2.161351,0.202553,0.017483,-0.027683,0.018297,0.087581,-0.183934,-0.596800,0.757287,0.179970,-0.194828,-102.264790,4.604064,30.448255
47218,NaN,-0.774032,-9.450781,-2.143213,0.041809,-0.078345,-0.091482,0.046395,0.090669,-0.189634,-0.597234,0.757063,0.180366,-0.193999,-102.239703,4.490733,30.422757
47219,NaN,-0.949664,-9.336535,-2.059122,-0.161755,-0.136243,-0.207066,0.057988,0.085555,-0.199766,-0.597720,0.756787,0.180805,-0.193167,-102.207322,4.371984,30.401346
47220,NaN,-1.159694,-9.261726,-2.088007,-0.339908,-0.297809,-0.258633,0.053902,0.069258,-0.226542,-0.598198,0.756485,0.181396,-0.192315,-102.176596,4.240601,30.392240
47221,NaN,-1.231237,-9.282376,-2.038255,-0.444677,-0.303507,-0.244876,0.047382,0.049129,-0.244389,-0.598652,0.756164,0.182123,-0.191477,-102.148323,4.101289,30.396569
47222,NaN,-1.050849,-9.350893,-1.997598,-0.332007,-0.179621,-0.200646,0.037462,0.034861,-0.268346,-0.599075,0.755837,0.182991,-0.190615,-102.125270,3.950643,30.411703
47223,NaN,-0.907497,-9.347829,-2.037649,-0.208819,-0.158493,-0.205988,0.043713,0.027583,-0.293945,-0.599540,0.755458,0.183972,-0.189706,-102.097910,3.786171,30.433982
47224,NaN,-0.942593,-9.419723,-1.995436,-0.285637,-0.144274,-0.143202,0.054236,0.024323,-0.304389,-0.600049,0.755035,0.184991,-0.188790,-102.064681,3.616579,30.459211
47225,NaN,-1.002697,-9.421580,-1.900918,-0.407462,-0.114551,-0.158370,0.045091,0.005665,-0.311256,-0.600513,0.754612,0.186101,-0.187913,-102.035787,3.445015,30.495687
47226,NaN,-0.890713,-9.546626,-1.932692,-0.325226,-0.077204,-0.037468,0.033877,-0.001359,-0.325555,-0.600938,0.754203,0.187295,-0.187010,-102.013392,3.266603,30.537687
47227,NaN,-0.723427,-9.542025,-1.894911,-0.225468,0.019515,-0.060100,0.020635,0.003428,-0.339302,-0.601331,0.753821,0.188540,-0.186034,-101.998486,3.079572,30.578627
47228,NaN,-0.655402,-9.545343,-1.977580,-0.151913,-0.032816,-0.043875,0.015242,0.014289,-0.346420,-0.601716,0.753458,0.189781,-0.184991,-101.987374,2.887580,30.614219
47229,NaN,-0.459141,-9.549129,-1.993296,-0.002819,0.036357,-0.047008,0.012579,0.030006,-0.343421,-0.602104,0.753117,0.190968,-0.183893,-101.978058,2.695068,30.640648
47230,NaN,-0.251029,-9.581626,-1.996574,0.148464,0.128042,-0.024003,0.018846,0.056861,-0.331748,-0.602527,0.752792,0.192022,-0.182736,-101.966286,2.506227,30.650527
47231,NaN,-0.297296,-9.642623,-2.013087,0.086549,0.084355,0.041570,0.029047,0.073034,-0.320873,-0.602994,0.752458,0.192978,-0.181559,-101.948840,2.321229,30.650043
47232,NaN,-0.407635,-9.624802,-2.112143,0.018001,-0.077107,0.049249,0.038054,0.084068,-0.305637,-0.603488,0.752122,0.193834,-0.180396,-101.926846,2.143794,30.641446
47233,NaN,-0.414129,-9.576892,-2.047299,-0.041472,-0.054099,-0.010899,0.030620,0.093284,-0.307611,-0.603966,0.751811,0.194676,-0.179184,-101.908964,1.963833,30.627901
47234,NaN,-0.291955,-9.607833,-2.013220,0.019498,0.024444,0.008091,0.035317,0.114037,-0.296180,-0.604468,0.751515,0.195407,-0.177933,-101.889075,1.788166,30.601257
47235,NaN,-0.252738,-9.569050,-1.921666,-0.014094,0.095450,-0.049798,0.033872,0.128753,-0.296198,-0.604979,0.751233,0.196096,-0.176624,-101.869879,1.610429,30.566350
47236,NaN,-0.311487,-9.562153,-2.049222,-0.024583,-0.060716,-0.028684,0.027047,0.133581,-0.295598,-0.605465,0.750976,0.196772,-0.175293,-101.854859,1.432804,30.528567
47237,NaN,-0.347332,-9.534864,-2.054118,-0.075654,-0.105992,-0.053762,0.028697,0.125808,-0.300114,-0.605955,0.750700,0.197488,-0.173977,-101.838362,1.253238,30.495675
47238,NaN,-0.382971,-9.507816,-2.059549,-0.126703,-0.151200,-0.078831,0.018432,0.121993,-0.305586,-0.606402,0.750445,0.198243,-0.172649,-101.827887,1.071392,30.465480
47239,NaN,-0.274221,-9.517513,-2.061051,-0.059395,-0.112854,-0.071546,0.014752,0.118843,-0.315965,-0.606843,0.750185,0.199050,-0.171297,-101.819074,0.883774,30.438287
47240,NaN,-0.262111,-9.569096,-2.061934,-0.080303,-0.115751,-0.021470,0.018750,0.114147,-0.325935,-0.607299,0.749899,0.199904,-0.169937,-101.808127,0.691446,30.414822
47241,NaN,-0.256500,-9.491059,-1.986455,-0.133338,-0.082347,-0.113856,0.026574,0.104632,-0.339565,-0.607786,0.749563,0.200832,-0.168577,-101.792248,0.492271,30.398289
47242,NaN,-0.224734,-9.512599,-2.029040,-0.115607,-0.117509,-0.084904,0.014526,0.106659,-0.355960,-0.608240,0.749248,0.201823,-0.167148,-101.783507,0.283990,30.382454
47243,NaN,-0.307470,-9.548102,-2.029748,-0.220457,-0.173818,-0.050427,0.026761,0.094611,-0.376911,-0.608745,0.748861,0.202920,-0.165711,-101.767369,0.065053,30.375824
47244,NaN,-0.400504,-9.625053,-2.064860,-0.323192,-0.258186,0.030811,0.016195,0.095631,-0.396240,-0.609223,0.748486,0.204093,-0.164201,-101.757559,-0.164527,30.370787
47245,NaN,-0.370865,-9.628326,-2.196709,-0.266914,-0.376233,0.059231,0.019623,0.094447,-0.419677,-0.609732,0.748070,0.205355,-0.162626,-101.745484,-0.407420,30.369149
47246,NaN,-0.278302,-9.748702,-2.331561,-0.169695,-0.447133,0.203396,0.035000,0.104672,-0.445494,-0.610324,0.747588,0.206667,-0.160951,-101.724863,-0.665682,30.364671
47247,NaN,-0.203548,-9.769910,-2.401205,-0.111112,-0.492163,0.237367,0.054248,0.126536,-0.465860,-0.611027,0.747038,0.207973,-0.159149,-101.692763,-0.938201,30.350216
47248,NaN,0.010305,-9.701345,-2.222426,-0.045614,-0.273909,0.136085,0.062837,0.151097,-0.483758,-0.611795,0.746459,0.209262,-0.157210,-101.655736,-1.223310,30.323845
47249,NaN,0.141571,-9.535370,-1.920164,-0.100471,-0.010172,-0.085410,0.078736,0.180406,-0.502564,-0.612666,0.745829,0.210519,-0.155118,-101.608840,-1.522622,30.283020
47250,NaN,0.047353,-9.594153,-1.744731,-0.316842,0.068871,-0.066472,0.047529,0.220905,-0.526278,-0.613475,0.745297,0.211761,-0.152770,-101.579290,-1.839597,30.221943
47251,NaN,-0.074622,-9.760343,-2.061100,-0.336083,-0.265539,0.153969,0.005479,0.246580,-0.546885,-0.614167,0.744883,0.213033,-0.150217,-101.572776,-2.171348,30.148746
47252,NaN,0.009705,-9.869530,-2.146150,-0.288201,-0.308882,0.278640,-0.004163,0.300155,-0.571494,-0.614890,0.744508,0.214236,-0.147377,-101.570518,-2.522788,30.048200
47253,NaN,-0.004470,-10.206899,-2.256982,-0.349930,-0.390424,0.627595,-0.022392,0.342917,-0.587469,-0.615599,0.744194,0.215380,-0.144307,-101.576743,-2.888374,29.925488
47254,NaN,-0.132211,-10.448301,-2.569819,-0.405525,-0.720596,0.915979,0.030222,0.361912,-0.623257,-0.616541,0.743685,0.216556,-0.141112,-101.551943,-3.275951,29.796074
47255,NaN,-0.076392,-10.380383,-2.436225,-0.473545,-0.629389,0.820868,0.052547,0.371988,-0.652961,-0.617591,0.743071,0.217794,-0.137810,-101.513029,-3.681521,29.664175
47256,NaN,-0.114426,-10.722352,-2.215943,-0.728288,-0.454856,1.103102,0.067442,0.375129,-0.684417,-0.618711,0.742370,0.219125,-0.134414,-101.465002,-4.104776,29.533697
47257,NaN,-0.143813,-11.028457,-2.283385,-0.841466,-0.531316,1.406509,0.034484,0.392136,-0.726838,-0.619748,0.741723,0.220581,-0.130785,-101.434212,-4.553903,29.398161
47258,NaN,-0.327628,-11.629558,-2.562911,-1.047116,-0.832883,2.025027,0.092359,0.403247,-0.761456,-0.621021,0.740854,0.222087,-0.127069,-101.369216,-5.023412,29.259789
47259,NaN,-0.271466,-11.278535,-2.557267,-1.020886,-0.904852,1.674559,0.122380,0.456908,-0.790545,-0.622473,0.739877,0.223512,-0.123095,-101.283048,-5.515279,29.093762
47260,NaN,0.102566,-11.910093,-1.352201,-1.443999,0.334972,2.082311,0.155091,0.513346,-0.834206,-0.624120,0.738769,0.224897,-0.118810,-101.174130,-6.037539,28.899713
47261,NaN,-0.035573,-11.227977,-0.659769,-1.834712,0.719702,1.260658,0.214066,0.504845,-0.881010,-0.625990,0.737399,0.226442,-0.114474,-101.030282,-6.584856,28.714393
47262,NaN,0.297441,-11.307590,-0.757646,-1.597496,0.735808,1.386853,0.117791,0.456011,-0.920038,-0.627453,0.736240,0.228331,-0.110083,-100.943764,-7.148312,28.559640
47263,NaN,0.081049,-11.253317,-0.998870,-1.756336,0.352324,1.342200,0.114918,0.401877,-0.967444,-0.628855,0.734985,0.230561,-0.105738,-100.861513,-7.732402,28.439866
47264,NaN,0.026128,-11.149421,-1.316997,-1.736775,-0.026981,1.279041,0.074425,0.362662,-1.029755,-0.630076,0.733746,0.233157,-0.101291,-100.805517,-8.347135,28.348159
47265,NaN,-0.183013,-11.429939,-1.547122,-1.981165,-0.366095,1.545575,0.081405,0.341264,-1.094821,-0.631313,0.732372,0.236050,-0.096723,-100.746902,-8.996100,28.275062
47266,NaN,-0.358647,-11.431246,-1.507041,-2.264380,-0.483498,1.488213,0.075622,0.327374,-1.184340,-0.632531,0.730882,0.239307,-0.091912,-100.693884,-9.693916,28.218635
47267,NaN,-0.373082,-11.532182,-1.577015,-2.392622,-0.616047,1.567616,0.031982,0.308777,-1.275171,-0.633587,0.729380,0.242967,-0.086829,-100.668196,-10.440766,28.182209
