// General information: 
//  MT Manager version: 2019.0.1 
//  XDA version: 2019.0.1 build 2740 rev 84096 built on 2019-01-30
// Device information: 
//  DeviceId: 00B43876
//  ProductCode: MTW2-3A7G6
//  Firmware Version: 4.3.4
//  Hardware Version: 1.1.0
// Device settings: 
//  Filter Profile: human(46.1)
//  Option Flags: Orientation Smoother Disabled, AHS Disabled, ICC Disabled
// Coordinate system: ENU
PacketCounter,SampleTimeFine,Acc_X,Acc_Y,Acc_Z,FreeAcc_E,FreeAcc_N,FreeAcc_U,Gyr_X,Gyr_Y,Gyr_Z,Quat_q0,Quat_q1,Quat_q2,Quat_q3,Roll,Pitch,Yaw
54371,NaN,-0.547998,-10.004293,-2.016924,0.990655,0.160726,0.358199,0.034514,0.183879,0.160093,0.609206,-0.747637,-0.148550,0.218724,-99.428299,8.398473,29.598252
54372,NaN,-0.923189,-10.093864,-1.780662,0.565410,0.202542,0.460988,0.025652,0.248666,0.201568,0.609263,-0.747980,-0.146982,0.218448,-99.436537,8.492969,29.436214
54373,NaN,-0.930328,-10.335586,-1.614743,0.502962,0.401283,0.669832,0.014598,0.262679,0.243479,0.609237,-0.748396,-0.145249,0.218256,-99.453085,8.609688,29.265438
54374,NaN,-1.029263,-10.443528,-1.477847,0.373375,0.504715,0.766372,0.021061,0.236120,0.252734,0.609209,-0.748776,-0.143522,0.218173,-99.464462,8.734522,29.104159
54375,NaN,-1.207830,-10.601401,-1.378238,0.196858,0.549556,0.930091,0.015346,0.208932,0.228653,0.609159,-0.749116,-0.142006,0.218137,-99.476400,8.847855,28.965371
54376,NaN,-0.874165,-10.636618,-1.373610,0.501995,0.732482,0.911120,-0.009848,0.174048,0.193535,0.609036,-0.749478,-0.140716,0.218077,-99.499741,8.944949,28.844007
54377,NaN,0.836789,-10.787826,-2.102693,2.364604,0.971477,0.909420,-0.077431,0.136384,0.121089,0.608702,-0.749943,-0.139924,0.217918,-99.557220,9.004244,28.756863
54378,NaN,1.796853,-11.073994,-2.960910,3.639317,0.769248,1.177883,-0.115396,0.183128,0.045795,0.608347,-0.750526,-0.139291,0.217307,-99.639723,9.016237,28.646455
54379,NaN,1.491212,-11.395867,-2.852959,3.329966,0.793584,1.523556,-0.109051,0.268683,-0.034004,0.608154,-0.751121,-0.138714,0.216158,-99.724838,8.974958,28.498623
54380,NaN,0.749424,-11.755457,-2.103035,2.319563,1.163447,1.868115,-0.074814,0.320938,-0.108202,0.608226,-0.751625,-0.138154,0.214556,-99.793317,8.886279,28.318445
54381,NaN,0.057568,-11.703585,-1.580796,1.436631,1.269389,1.840673,-0.052443,0.334201,-0.181354,0.608447,-0.752012,-0.137869,0.212751,-99.849032,8.755054,28.147927
54382,NaN,-0.255720,-11.203644,-1.628640,1.133333,0.961444,1.413647,-0.025459,0.319866,-0.258822,0.608869,-0.752256,-0.137804,0.210710,-99.885597,8.580934,27.980435
54383,NaN,-0.350399,-10.382007,-1.601718,0.964259,0.744621,0.627139,-0.004844,0.316946,-0.333181,0.609412,-0.752369,-0.138091,0.208538,-99.909288,8.365489,27.835213
54384,NaN,-0.461178,-9.562714,-1.294944,0.644812,0.760323,-0.203263,-0.017727,0.304488,-0.405322,0.609982,-0.752456,-0.138679,0.206157,-99.937197,8.109492,27.700630
54385,NaN,-0.511200,-8.976246,-1.161608,0.472117,0.707484,-0.787165,-0.034732,0.284486,-0.466242,0.610520,-0.752525,-0.139594,0.203679,-99.972276,7.822028,27.587617
54386,NaN,-0.686062,-8.494429,-1.047274,0.203288,0.605150,-1.250265,-0.049377,0.254566,-0.509406,0.611025,-0.752571,-0.140783,0.201163,-100.012145,7.512097,27.496309
54387,NaN,-0.650816,-8.064395,-1.098895,0.200809,0.469002,-1.663753,-0.072847,0.236130,-0.544971,0.611456,-0.752640,-0.142178,0.198596,-100.063250,7.184882,27.419314
54388,NaN,-0.508714,-7.759812,-1.148422,0.295252,0.410888,-1.968190,-0.083445,0.243166,-0.595979,0.611899,-0.752703,-0.143759,0.195831,-100.119637,6.827090,27.343964
54389,NaN,-0.404101,-7.548675,-1.179899,0.349905,0.370449,-2.178681,-0.084309,0.271547,-0.641847,0.612396,-0.752758,-0.145419,0.192822,-100.177455,6.441515,27.257460
54390,NaN,-0.305961,-7.496533,-1.208870,0.399375,0.361392,-2.232277,-0.086848,0.312401,-0.672364,0.612936,-0.752825,-0.147076,0.189556,-100.238104,6.033454,27.151485
54391,NaN,-0.267914,-7.650411,-1.305421,0.426856,0.308113,-2.064961,-0.099858,0.372445,-0.692188,0.613479,-0.752966,-0.148627,0.185997,-100.308786,5.609002,27.013953
54392,NaN,-0.274819,-7.927096,-1.570440,0.487699,0.111003,-1.742361,-0.085469,0.441118,-0.700820,0.614129,-0.753106,-0.149991,0.182154,-100.373539,5.171401,26.839154
54393,NaN,-0.254643,-8.252267,-1.748320,0.525906,0.007357,-1.389840,-0.056416,0.530054,-0.709504,0.614948,-0.753220,-0.151078,0.177974,-100.424673,4.720591,26.615400
54394,NaN,-0.231908,-8.692449,-1.806166,0.504351,0.025747,-0.945941,0.000004,0.617244,-0.717563,0.616043,-0.753213,-0.151881,0.173474,-100.445289,4.254979,26.343754
54395,NaN,-0.358238,-9.107590,-1.596939,0.225426,0.199118,-0.564132,0.072317,0.688866,-0.722150,0.617451,-0.753028,-0.152408,0.168747,-100.425203,3.780421,26.032177
54396,NaN,-0.824918,-9.222396,-1.287847,-0.397487,0.248460,-0.476124,0.146766,0.691710,-0.729054,0.619135,-0.752588,-0.152892,0.164034,-100.359767,3.300829,25.719645
54397,NaN,-1.222829,-9.180593,-0.993857,-0.944714,0.285338,-0.550291,0.201532,0.629608,-0.728578,0.620959,-0.751912,-0.153511,0.159600,-100.258690,2.829408,25.441456
54398,NaN,-1.567409,-9.015445,-0.840668,-1.374091,0.199296,-0.728995,0.245469,0.514674,-0.720378,0.622842,-0.750995,-0.154424,0.155649,-100.127117,2.373782,25.226575
54399,NaN,-1.823590,-8.676222,-0.789160,-1.667179,0.032492,-1.069452,0.255941,0.382435,-0.693579,0.624628,-0.749952,-0.155631,0.152288,-99.985422,1.948067,25.082545
54400,NaN,-2.051146,-8.426087,-0.996665,-1.821250,-0.332934,-1.282073,0.245817,0.258417,-0.641448,0.626232,-0.748872,-0.157041,0.149539,-99.846307,1.563387,25.002472
54401,NaN,-2.213895,-8.184897,-1.067678,-1.967656,-0.543355,-1.514093,0.223289,0.164313,-0.581979,0.627624,-0.747833,-0.158532,0.147315,-99.718709,1.222611,24.968794
54402,NaN,-2.185087,-8.117807,-1.218507,-1.909313,-0.710453,-1.566006,0.186352,0.108330,-0.502504,0.628772,-0.746922,-0.159933,0.145514,-99.611386,0.931299,24.958463
54403,NaN,-2.064599,-8.188354,-1.294638,-1.801010,-0.745142,-1.494707,0.152013,0.070605,-0.418419,0.629694,-0.746157,-0.161157,0.144096,-99.523772,0.691985,24.960885
54404,NaN,-1.783283,-8.306446,-1.439595,-1.515675,-0.761861,-1.364504,0.129520,0.034383,-0.334063,0.630442,-0.745500,-0.162200,0.143054,-99.448660,0.502980,24.975514
54405,NaN,-1.396816,-8.589724,-1.661187,-1.108103,-0.773612,-1.056685,0.104481,0.000094,-0.259022,0.631011,-0.744958,-0.163085,0.142361,-99.388114,0.360368,25.002225
54406,NaN,-1.279962,-8.979098,-1.843299,-0.964181,-0.844407,-0.646579,0.077776,-0.006074,-0.185561,0.631424,-0.744553,-0.163738,0.141897,-99.342684,0.259132,25.025471
54407,NaN,-0.634015,-9.525386,-1.754072,-0.462701,-0.422290,-0.126652,0.049145,0.004117,-0.160639,0.631719,-0.744267,-0.164283,0.141453,-99.313988,0.171729,25.040545
54408,NaN,-2.537000,-10.680180,-2.968813,-1.760951,-2.153046,1.213640,0.064879,-0.036052,-0.059584,0.631970,-0.743984,-0.164570,0.141488,-99.276010,0.144518,25.068956
54409,NaN,-5.178581,-11.085346,-3.771540,-3.834166,-3.931645,1.753143,-0.044652,-0.175017,0.131118,0.631561,-0.744107,-0.164662,0.142555,-99.300813,0.238643,25.158279
54410,NaN,-2.081548,-12.526682,-3.477917,-1.233176,-2.118975,3.123140,-0.240769,-0.174354,0.123795,0.630429,-0.744840,-0.164920,0.143433,-99.437670,0.328219,25.247799
54411,NaN,-0.307263,-13.121873,-4.005818,0.559697,-1.709356,3.792065,-0.222935,-0.023068,0.091468,0.629508,-0.745600,-0.164806,0.143662,-99.564877,0.385898,25.254655
54412,NaN,0.364563,-12.446119,-3.477706,0.988698,-1.036165,3.035739,-0.040379,0.137229,0.056169,0.629426,-0.745869,-0.164191,0.143331,-99.587995,0.407946,25.174270
54413,NaN,-0.508802,-10.715952,-2.065722,-0.282059,-0.414026,1.100916,0.059441,0.199847,0.033416,0.629782,-0.745850,-0.163389,0.142778,-99.554268,0.411599,25.060641
54414,NaN,-0.460776,-9.600712,-1.254427,-0.505135,0.157117,-0.133859,0.012705,0.170789,0.028496,0.629944,-0.745953,-0.162733,0.142278,-99.547148,0.414859,24.963945
54415,NaN,0.477840,-9.089768,-0.715155,0.154529,0.958087,-0.734040,-0.029810,0.150337,0.030781,0.629928,-0.746177,-0.162160,0.141829,-99.564369,0.421762,24.878541
54416,NaN,1.105628,-9.057288,-0.492014,0.633757,1.418438,-0.807947,-0.024056,0.114440,0.001771,0.629925,-0.746332,-0.161807,0.141425,-99.578041,0.415257,24.816219
54417,NaN,0.487992,-8.837657,-0.507674,0.092665,1.110451,-1.017327,0.018905,0.030257,-0.033931,0.630039,-0.746265,-0.161819,0.141260,-99.566808,0.397015,24.804824
54418,NaN,-0.080187,-8.935578,-0.620175,-0.384013,0.782968,-0.897807,0.037043,-0.025258,-0.038037,0.630180,-0.746097,-0.162012,0.141300,-99.544834,0.381284,24.825212
54419,NaN,0.780969,-8.893717,-0.616177,0.396687,1.136201,-0.944798,0.057024,-0.010672,-0.066721,0.630425,-0.745853,-0.162248,0.141215,-99.511585,0.348406,24.840040
54420,NaN,0.845972,-8.693817,-0.902666,0.585300,0.866229,-1.093743,0.136297,0.059060,-0.083403,0.631037,-0.745394,-0.162274,0.140879,-99.432971,0.299041,24.817021
54421,NaN,0.375423,-8.539763,-0.886150,0.160655,0.644567,-1.244581,0.177748,0.130041,-0.075183,0.631852,-0.744862,-0.162013,0.140340,-99.330953,0.248198,24.753010
54422,NaN,0.313771,-8.463902,-0.788796,0.069603,0.676316,-1.333536,0.202883,0.200262,-0.076774,0.632820,-0.744295,-0.161521,0.139552,-99.214430,0.189599,24.649359
54423,NaN,0.669179,-8.401596,-0.411258,0.241503,1.134003,-1.454492,0.207796,0.246791,-0.092307,0.633851,-0.743733,-0.160933,0.138549,-99.095235,0.118681,24.520668
54424,NaN,-1.102262,-8.399041,-1.988452,-0.725067,-1.035109,-1.203644,0.134283,0.148412,-0.078112,0.634520,-0.743343,-0.160657,0.137893,-99.017704,0.064373,24.446250
54425,NaN,-2.128513,-8.344512,-2.593726,-1.410314,-2.020670,-1.163018,0.048981,0.004447,-0.030164,0.634721,-0.743165,-0.160716,0.137860,-98.989155,0.050692,24.448943
54426,NaN,-0.942602,-8.999344,-3.952118,0.180662,-2.653290,-0.303569,-0.162000,-0.074526,-0.019927,0.634069,-0.743608,-0.161135,0.137980,-99.081267,0.049473,24.495420
54427,NaN,-0.134292,-9.999671,-4.052784,0.885860,-2.247821,0.703920,-0.205446,0.118032,0.034664,0.633371,-0.744367,-0.160769,0.137524,-99.198562,0.062132,24.427992
54428,NaN,-0.255838,-10.036373,-3.739770,0.631413,-1.994333,0.694644,-0.189380,0.339970,0.019905,0.632920,-0.745212,-0.159745,0.136206,-99.306695,0.045456,24.236434
54429,NaN,-0.767367,-9.997353,-3.014499,-0.144458,-1.541866,0.542256,-0.185365,0.466777,0.030105,0.632575,-0.746137,-0.158276,0.134453,-99.412577,0.022783,23.972226
54430,NaN,-0.937558,-9.955220,-2.185482,-0.647445,-0.855308,0.366261,-0.137231,0.535962,0.006318,0.632476,-0.746931,-0.156646,0.132401,-99.490733,-0.020653,23.671254
54431,NaN,-0.815604,-9.438681,-1.232844,-0.893063,-0.012039,-0.300796,-0.104620,0.545511,-0.007961,0.632511,-0.747612,-0.155014,0.130295,-99.549945,-0.073037,23.366228
54432,NaN,-0.334772,-9.177674,-0.827207,-0.603742,0.514382,-0.625907,-0.085758,0.489829,-0.036274,0.632587,-0.748170,-0.153652,0.128320,-99.598108,-0.136740,23.095465
54433,NaN,0.028353,-9.001648,-0.552119,-0.373614,0.883844,-0.845272,-0.069155,0.398708,-0.062746,0.632669,-0.748594,-0.152665,0.126616,-99.636599,-0.206537,22.878702
54434,NaN,0.305404,-9.061972,-0.432023,-0.177670,1.110666,-0.805240,-0.038408,0.279721,-0.091951,0.632792,-0.748819,-0.152145,0.125286,-99.657462,-0.281850,22.732032
54435,NaN,0.248242,-9.159284,-0.606631,-0.180861,0.942112,-0.680228,-0.010600,0.161316,-0.122080,0.632947,-0.748859,-0.152092,0.124326,-99.662620,-0.362499,22.655113
54436,NaN,-0.161178,-11.095889,0.257770,-1.036230,1.866384,1.080154,-0.091694,0.043548,-0.130981,0.632714,-0.749074,-0.152498,0.123716,-99.714525,-0.437197,22.645636
54437,NaN,0.043501,-13.072902,-0.928380,-0.560652,1.173002,3.228564,-0.115950,-0.140756,-0.159490,0.632266,-0.749230,-0.153607,0.123690,-99.781283,-0.509784,22.743049
54438,NaN,-1.096438,-11.946944,-2.559739,-0.927296,-0.932310,2.383819,0.110353,-0.266387,-0.233923,0.632615,-0.748532,-0.155253,0.124070,-99.719133,-0.612539,22.918638
54439,NaN,-0.296221,-10.318383,-3.347891,0.223788,-1.609811,0.916874,0.214895,-0.248840,-0.271451,0.633389,-0.747485,-0.156917,0.124348,-99.597518,-0.738129,23.087758
54440,NaN,0.185307,-9.433858,-2.788248,0.510212,-1.071297,-0.045482,0.189548,-0.030352,-0.225007,0.634209,-0.746686,-0.157732,0.123935,-99.488894,-0.858863,23.128766
54441,NaN,0.323286,-9.322840,-1.659259,0.197729,-0.031839,-0.339946,0.152928,0.092306,-0.240637,0.634997,-0.746066,-0.158238,0.122987,-99.400351,-0.999741,23.101692
54442,NaN,0.692378,-9.551994,-0.727741,0.144827,0.969888,-0.258220,0.138982,0.112640,-0.241333,0.635748,-0.745500,-0.158691,0.121948,-99.319434,-1.143162,23.062997
54443,NaN,0.640971,-9.694006,-0.454814,-0.034586,1.194703,-0.160596,0.169348,0.071112,-0.250342,0.636583,-0.744804,-0.159290,0.121061,-99.221612,-1.287489,23.048376
54444,NaN,0.352311,-9.331077,-0.751825,-0.172000,0.738258,-0.475466,0.141140,0.016224,-0.250119,0.637269,-0.744163,-0.160080,0.120354,-99.140522,-1.426963,23.064572
54445,NaN,0.099496,-9.335909,-1.452504,-0.153246,-0.014080,-0.365194,0.041188,-0.006763,-0.230183,0.637550,-0.743841,-0.160928,0.119718,-99.117150,-1.552771,23.091827
54446,NaN,0.204773,-9.791326,-1.840540,0.034375,-0.273152,0.148425,-0.021793,0.025541,-0.205170,0.637609,-0.743758,-0.161619,0.118988,-99.129200,-1.667677,23.098519
54447,NaN,0.496583,-10.046356,-1.779905,0.237648,-0.073661,0.399168,-0.048584,0.060390,-0.183934,0.637581,-0.743799,-0.162134,0.118177,-99.156107,-1.773430,23.083592
54448,NaN,0.712875,-9.864114,-1.461766,0.312949,0.271851,0.175997,-0.021523,0.072103,-0.180089,0.637662,-0.743762,-0.162583,0.117355,-99.167129,-1.878393,23.061725
54449,NaN,0.896063,-9.674519,-1.186381,0.377292,0.563928,-0.048142,-0.024521,0.070090,-0.162166,0.637718,-0.743748,-0.162972,0.116597,-99.179945,-1.972727,23.039373
54450,NaN,0.885825,-9.634897,-1.218886,0.369754,0.521754,-0.081673,-0.035713,0.048041,-0.132087,0.637698,-0.743780,-0.163327,0.116005,-99.199342,-2.048369,23.026777
54451,NaN,0.800333,-9.625568,-1.409235,0.352265,0.313557,-0.063040,-0.062784,0.017571,-0.107266,0.637537,-0.743901,-0.163702,0.115585,-99.234919,-2.106851,23.029176
54452,NaN,0.844603,-9.658278,-1.647798,0.470022,0.121289,0.009496,-0.086789,0.017513,-0.074876,0.637268,-0.744124,-0.163971,0.115248,-99.283993,-2.147362,23.028667
54453,NaN,0.798469,-9.734979,-1.631729,0.405417,0.133579,0.081134,-0.085662,0.023780,-0.051164,0.636994,-0.744368,-0.164130,0.114965,-99.332357,-2.174694,23.022443
54454,NaN,0.648505,-9.717352,-1.529209,0.223370,0.171762,0.041579,-0.081179,0.022301,-0.036618,0.636728,-0.744607,-0.164238,0.114736,-99.377983,-2.194041,23.015731
54455,NaN,0.643362,-9.722462,-1.477368,0.192947,0.222954,0.037990,-0.064190,0.008613,-0.033147,0.636510,-0.744788,-0.164366,0.114585,-99.414306,-2.209779,23.016442
54456,NaN,0.640098,-9.752257,-1.497708,0.190682,0.211973,0.070534,-0.058793,0.000923,-0.015476,0.636297,-0.744961,-0.164451,0.114521,-99.447491,-2.215188,23.019861
54457,NaN,0.527997,-9.738507,-1.609784,0.128758,0.068908,0.071005,-0.050794,0.002738,-0.012340,0.636113,-0.745113,-0.164512,0.114469,-99.476192,-2.218613,23.021951
54458,NaN,0.498911,-9.712940,-1.696756,0.135991,-0.021254,0.058997,-0.036306,0.008621,0.003001,0.635980,-0.745233,-0.164491,0.114453,-99.496254,-2.214311,23.019275
54459,NaN,0.388272,-9.704132,-1.715034,0.041758,-0.079528,0.049067,-0.020592,0.012911,0.004120,0.635907,-0.745309,-0.164441,0.114441,-99.507369,-2.209395,23.014056
54460,NaN,0.362702,-9.646208,-1.581914,-0.026323,0.025183,-0.030969,-0.008265,0.016329,0.004632,0.635884,-0.745346,-0.164374,0.114425,-99.511196,-2.204902,23.006867
54461,NaN,0.399887,-9.544924,-1.566294,0.012538,0.041610,-0.131940,-0.020314,0.012243,0.009265,0.635808,-0.745424,-0.164307,0.114431,-99.522149,-2.197017,23.001537
54462,NaN,0.450479,-9.602865,-1.547440,0.046874,0.089621,-0.076041,-0.036369,0.012520,0.021965,0.635667,-0.745563,-0.164203,0.114461,-99.542100,-2.182369,22.994853
54463,NaN,0.482617,-9.693491,-1.576588,0.079732,0.092739,0.019268,-0.042973,0.005711,0.028418,0.635491,-0.745725,-0.164098,0.114534,-99.566108,-2.163045,22.991389
54464,NaN,0.572888,-9.577576,-1.492662,0.144439,0.193404,-0.105580,-0.039134,-0.008042,0.038708,0.635313,-0.745874,-0.163998,0.114692,-99.588022,-2.136984,22.994721
54465,NaN,0.564480,-9.590241,-1.549439,0.159824,0.145642,-0.084103,-0.041850,-0.014731,0.042743,0.635115,-0.746033,-0.163904,0.114888,-99.611766,-2.107617,23.001428
54466,NaN,0.606708,-9.661512,-1.583877,0.208940,0.145709,-0.006736,-0.018638,-0.024021,0.059904,0.634989,-0.746125,-0.163765,0.115189,-99.622184,-2.068058,23.011744
54467,NaN,0.661574,-9.556787,-1.504335,0.245171,0.229773,-0.121455,-0.028573,-0.016170,0.069197,0.634824,-0.746262,-0.163569,0.115485,-99.638251,-2.023605,23.016712
54468,NaN,0.613345,-9.712778,-1.611487,0.233007,0.140460,0.048201,-0.016317,0.000290,0.085169,0.634711,-0.746381,-0.163256,0.115778,-99.646756,-1.972114,23.010844
54469,NaN,0.539464,-9.655055,-1.463094,0.122910,0.242672,-0.036300,0.002664,0.011835,0.102052,0.634667,-0.746461,-0.162831,0.116099,-99.644272,-1.911790,22.996815
54470,NaN,0.599993,-9.663749,-1.433565,0.176339,0.298820,-0.030931,-0.012870,0.011406,0.111753,0.634560,-0.746597,-0.162382,0.116437,-99.650520,-1.846358,22.982107
54471,NaN,0.585591,-9.699693,-1.359505,0.141774,0.372670,-0.008799,-0.041975,0.009492,0.128519,0.634332,-0.746839,-0.161891,0.116814,-99.673606,-1.770864,22.966840
54472,NaN,0.521185,-9.581431,-1.388179,0.115437,0.313363,-0.122952,-0.042073,0.015934,0.143701,0.634101,-0.747095,-0.161326,0.117213,-99.696443,-1.687844,22.946449
54473,NaN,0.464534,-9.515702,-1.474514,0.113348,0.214699,-0.175281,-0.091440,0.035883,0.159611,0.633689,-0.747534,-0.160664,0.117551,-99.747398,-1.597361,22.913185
54474,NaN,0.554380,-9.716657,-1.510912,0.202892,0.260097,0.030826,-0.099554,0.063117,0.176992,0.633261,-0.748025,-0.159858,0.117832,-99.802414,-1.500171,22.862773
54475,NaN,0.423338,-9.640506,-1.428175,0.069660,0.289103,-0.062314,-0.114893,0.087487,0.186716,0.632786,-0.748588,-0.158944,0.118044,-99.866110,-1.399502,22.797539
54476,NaN,0.421116,-9.602206,-1.482568,0.104097,0.249402,-0.091338,-0.108165,0.107072,0.202535,0.632343,-0.749151,-0.157908,0.118234,-99.925583,-1.292337,22.719592
54477,NaN,0.488219,-9.573010,-1.507069,0.191445,0.265781,-0.115017,-0.123968,0.111642,0.219512,0.631832,-0.749781,-0.156800,0.118451,-99.994356,-1.175697,22.637258
54478,NaN,0.452886,-9.609790,-1.474300,0.158125,0.305743,-0.086013,-0.120208,0.111574,0.232063,0.631328,-0.750405,-0.155646,0.118708,-100.060925,-1.052509,22.553584
54479,NaN,0.433706,-9.692267,-1.556436,0.180199,0.255412,0.008355,-0.129706,0.091592,0.242262,0.630764,-0.751055,-0.154519,0.119067,-100.133492,-0.921219,22.480003
54480,NaN,0.422822,-9.481084,-1.765621,0.282484,0.048317,-0.163596,-0.143000,0.080113,0.264746,0.630128,-0.751754,-0.153354,0.119528,-100.213708,-0.776637,22.410457
54481,NaN,0.436040,-9.695705,-2.112211,0.426025,-0.207947,0.108677,-0.103543,0.085001,0.286277,0.629628,-0.752349,-0.152066,0.120070,-100.271641,-0.620046,22.335781
54482,NaN,0.275052,-9.626775,-2.001306,0.262928,-0.161914,0.018908,-0.065034,0.103710,0.293257,0.629282,-0.752834,-0.150672,0.120590,-100.307413,-0.461957,22.249730
54483,NaN,0.293014,-9.734289,-2.165464,0.355388,-0.271765,0.153819,-0.059206,0.132427,0.303898,0.628971,-0.753327,-0.149141,0.121042,-100.340165,-0.300409,22.146293
54484,NaN,0.035373,-9.567947,-2.165012,0.153033,-0.383664,-0.011490,0.009977,0.153828,0.310906,0.628931,-0.753616,-0.147477,0.121484,-100.333341,-0.137601,22.030058
54485,NaN,-0.076129,-9.416573,-1.956281,0.009120,-0.250752,-0.198029,0.009905,0.149245,0.320267,0.628879,-0.753909,-0.145789,0.121975,-100.327077,0.031434,21.915443
54486,NaN,-0.104757,-9.624552,-1.931951,-0.014927,-0.193256,0.002494,-0.030714,0.135354,0.307106,0.628671,-0.754308,-0.144221,0.122444,-100.344233,0.194007,21.810020
54487,NaN,-0.066098,-9.605732,-1.921164,0.042643,-0.159733,-0.017896,-0.018856,0.123769,0.299107,0.628501,-0.754656,-0.142709,0.122943,-100.355024,0.353699,21.711885
54488,NaN,0.062414,-9.471384,-2.145661,0.276211,-0.327923,-0.110575,-0.031159,0.125261,0.304373,0.628282,-0.755044,-0.141183,0.123441,-100.372989,0.515725,21.612351
54489,NaN,-0.042895,-9.632389,-2.261315,0.235984,-0.433849,0.069333,0.006280,0.162114,0.319210,0.628218,-0.755347,-0.139459,0.123875,-100.370184,0.682754,21.490465
54490,NaN,-0.191368,-9.607753,-2.054408,0.049810,-0.294585,0.009574,0.023437,0.174093,0.304414,0.628236,-0.755589,-0.137744,0.124226,-100.357820,0.839770,21.363404
54491,NaN,-0.229535,-9.680342,-1.900076,-0.019961,-0.147170,0.053917,0.028193,0.166059,0.295705,0.628268,-0.755804,-0.136082,0.124586,-100.343130,0.993189,21.241766
54492,NaN,-0.203047,-9.563908,-1.679702,-0.043548,0.049787,-0.100503,0.055507,0.132949,0.279107,0.628391,-0.755898,-0.134572,0.125035,-100.312595,1.140252,21.140592
54493,NaN,-0.157944,-9.493687,-1.572769,-0.011661,0.156483,-0.189591,0.044297,0.092617,0.268119,0.628448,-0.755994,-0.133234,0.125596,-100.288369,1.285751,21.063313
54494,NaN,-0.066234,-9.639705,-1.768337,0.162080,0.040612,-0.013333,0.043550,0.072750,0.267110,0.628490,-0.756077,-0.131965,0.126226,-100.264359,1.432297,20.997435
54495,NaN,-0.254787,-9.634107,-1.854302,0.042171,-0.102165,0.000931,0.055596,0.081406,0.270007,0.628579,-0.756129,-0.130647,0.126842,-100.233890,1.580073,20.926407
54496,NaN,-0.456465,-9.563716,-1.862405,-0.115645,-0.191520,-0.061202,0.088076,0.112429,0.258211,0.628818,-0.756088,-0.129258,0.127323,-100.185318,1.717648,20.839214
54497,NaN,-0.542818,-9.508674,-1.615709,-0.258477,-0.004800,-0.155919,0.086693,0.128492,0.236359,0.629074,-0.756047,-0.127900,0.127675,-100.138083,1.841795,20.745238
54498,NaN,-0.574549,-9.645905,-1.564629,-0.289129,0.055234,-0.028262,0.081750,0.105342,0.213340,0.629311,-0.755989,-0.126706,0.128037,-100.093226,1.954929,20.666776
54499,NaN,-0.595460,-9.538806,-1.413757,-0.338528,0.167884,-0.158710,0.073113,0.062256,0.193523,0.629499,-0.755919,-0.125726,0.128496,-100.052679,2.061694,20.614664
54500,NaN,-0.586872,-9.555308,-1.506894,-0.279729,0.088799,-0.125949,0.055781,0.028400,0.173026,0.629613,-0.755866,-0.124944,0.129005,-100.021230,2.159888,20.583811
54501,NaN,-0.673699,-9.470373,-1.516452,-0.338637,0.035393,-0.204071,0.053059,-0.001832,0.151949,0.629711,-0.755790,-0.124335,0.129562,-99.990796,2.249636,20.572147
54502,NaN,-0.618814,-9.520214,-1.605797,-0.241919,-0.018421,-0.141228,0.049529,-0.035422,0.129701,0.629789,-0.755688,-0.123921,0.130172,-99.961402,2.329764,20.581738
54503,NaN,-0.772183,-9.468737,-1.590892,-0.375323,-0.068419,-0.187792,0.060908,-0.078300,0.109647,0.629895,-0.755511,-0.123708,0.130890,-99.924544,2.403217,20.617552
54504,NaN,-0.658627,-9.426189,-1.536840,-0.274532,0.012553,-0.243300,0.041909,-0.116582,0.089705,0.629920,-0.755354,-0.123705,0.131676,-99.897369,2.468779,20.677030
54505,NaN,-0.678413,-9.587246,-1.560513,-0.276637,0.010591,-0.079544,0.053311,-0.139926,0.067268,0.629986,-0.755132,-0.123851,0.132488,-99.863080,2.524330,20.751916
54506,NaN,-0.812052,-9.517160,-1.550398,-0.393837,-0.042469,-0.144048,0.046586,-0.169864,0.041893,0.630027,-0.754895,-0.124193,0.133327,-99.831560,2.568069,20.846267
54507,NaN,-0.712226,-9.713158,-1.484963,-0.320129,0.084859,0.033537,0.031374,-0.181198,0.020636,0.630014,-0.754685,-0.124659,0.134135,-99.808464,2.601248,20.949102
54508,NaN,-0.691812,-9.623016,-1.436480,-0.311422,0.118286,-0.064173,0.028487,-0.181947,-0.003252,0.630008,-0.754467,-0.125221,0.134866,-99.786689,2.620611,21.054727
54509,NaN,-0.830204,-9.398879,-1.373610,-0.455689,0.084439,-0.289023,0.015939,-0.176612,-0.020676,0.629967,-0.754282,-0.125839,0.135516,-99.772297,2.629944,21.159022
54510,NaN,-0.647196,-9.526142,-1.414001,-0.272294,0.134733,-0.165235,-0.023473,-0.175893,-0.036758,0.629790,-0.754210,-0.126544,0.136086,-99.780257,2.629776,21.264492
54511,NaN,-0.431815,-9.634832,-1.633062,0.004690,0.032363,-0.030956,-0.030314,-0.162332,-0.046205,0.629600,-0.754163,-0.127244,0.136572,-99.792620,2.623317,21.363204
54512,NaN,-0.332806,-9.540077,-1.598809,0.083775,0.085104,-0.134580,-0.039615,-0.134593,-0.047540,0.629394,-0.754161,-0.127870,0.136942,-99.810865,2.613085,21.446380
54513,NaN,-0.314925,-9.633952,-1.660370,0.118320,0.054503,-0.032500,-0.043763,-0.104890,-0.039742,0.629185,-0.754199,-0.128374,0.137223,-99.832471,2.604722,21.511999
54514,NaN,-0.210305,-9.592208,-1.683488,0.221815,0.067926,-0.074362,-0.055356,-0.082658,-0.038778,0.628947,-0.754287,-0.128814,0.137415,-99.861132,2.594410,21.564975
54515,NaN,-0.066695,-9.803013,-1.696918,0.352493,0.150019,0.128957,-0.059434,-0.065445,-0.026655,0.628695,-0.754410,-0.129156,0.137579,-99.892802,2.589620,21.607025
54516,NaN,-0.320870,-9.632396,-1.707441,0.121541,0.021050,-0.025648,-0.042666,-0.051433,-0.022382,0.628513,-0.754490,-0.129427,0.137712,-99.915074,2.585526,21.640753
54517,NaN,-0.382084,-9.474752,-1.675603,0.054394,0.003947,-0.183482,-0.059179,-0.051607,-0.016142,0.628263,-0.754627,-0.129685,0.137856,-99.947002,2.585342,21.673950
54518,NaN,-0.121138,-9.803953,-1.875754,0.361288,-0.018620,0.163271,-0.067491,-0.038220,-0.012531,0.627990,-0.754801,-0.129895,0.137955,-99.983883,2.585531,21.699240
54519,NaN,-0.193495,-9.759865,-1.928537,0.313244,-0.097265,0.132366,-0.021515,-0.004802,-0.007288,0.627906,-0.754858,-0.129947,0.137975,-99.995463,2.585725,21.705119
54520,NaN,-0.643309,-9.446154,-1.758976,-0.160315,-0.163687,-0.185373,0.001194,0.000286,-0.004790,0.627911,-0.754848,-0.129959,0.137996,-99.994014,2.586455,21.707893
54521,NaN,-0.603507,-9.557021,-1.917469,-0.067361,-0.273374,-0.050603,-0.015822,-0.013056,-0.014249,0.627849,-0.754876,-0.130059,0.138030,-100.002091,2.583544,21.719127
54522,NaN,-0.487621,-9.627843,-1.956792,0.052465,-0.253851,0.020674,0.006796,-0.012483,-0.017497,0.627875,-0.754831,-0.130156,0.138063,-99.997059,2.578385,21.730379
54523,NaN,-0.453761,-9.602213,-1.784138,0.020388,-0.090277,-0.036033,0.025193,-0.021012,-0.014798,0.627963,-0.754726,-0.130254,0.138152,-99.981433,2.575952,21.746161
54524,NaN,-0.400502,-9.516837,-1.783455,0.072359,-0.088024,-0.122574,0.032049,-0.036535,-0.014952,0.628067,-0.754586,-0.130399,0.138301,-99.961342,2.574614,21.770746
54525,NaN,-0.330444,-9.578479,-1.693650,0.104059,0.027744,-0.080612,0.031977,-0.046347,-0.006224,0.628158,-0.754447,-0.130540,0.138516,-99.941224,2.579518,21.799989
54526,NaN,-0.285637,-9.683370,-1.703590,0.149433,0.050653,0.022279,0.042177,-0.051443,0.000540,0.628280,-0.754276,-0.130667,0.138776,-99.915021,2.588376,21.831465
54527,NaN,-0.272925,-9.534170,-1.487951,0.087341,0.222238,-0.162202,0.042449,-0.052090,0.005751,0.628397,-0.754107,-0.130774,0.139058,-99.888800,2.600579,21.862776
54528,NaN,0.013555,-9.696277,-1.473973,0.347930,0.368291,-0.018103,0.017773,-0.051623,0.026681,0.628409,-0.754029,-0.130819,0.139385,-99.876674,2.624181,21.891788
54529,NaN,0.148458,-9.724118,-1.411216,0.454053,0.480737,-0.007853,0.018638,-0.051311,0.045170,0.628410,-0.753962,-0.130791,0.139771,-99.864269,2.658542,21.918791
54530,NaN,0.081938,-9.638637,-1.390707,0.393593,0.461030,-0.092778,0.006247,-0.047788,0.074958,0.628347,-0.753954,-0.130651,0.140228,-99.859024,2.708988,21.940905
54531,NaN,0.009504,-9.589167,-1.498194,0.376754,0.331472,-0.120166,-0.017626,-0.046470,0.100929,0.628175,-0.754040,-0.130423,0.140748,-99.867742,2.774345,21.959699
54532,NaN,0.035047,-9.854812,-1.745587,0.498556,0.168907,0.181737,-0.022849,-0.015076,0.123127,0.627989,-0.754178,-0.130018,0.141213,-99.880251,2.848752,21.958580
54533,NaN,-0.280617,-9.710356,-1.750819,0.222954,0.026053,0.055683,0.012247,0.014781,0.134840,0.627945,-0.754235,-0.129449,0.141628,-99.873718,2.927236,21.939407
54534,NaN,-0.527154,-9.532221,-1.780652,0.021730,-0.120210,-0.102028,-0.000303,0.016851,0.141580,0.627851,-0.754335,-0.128859,0.142045,-99.874343,3.008909,21.918429
54535,NaN,-0.426368,-9.763435,-1.815162,0.137798,-0.068782,0.126001,0.028133,0.028097,0.142374,0.627870,-0.754355,-0.128208,0.142443,-99.859201,3.090342,21.890998
54536,NaN,-0.659265,-9.608384,-1.882709,-0.036242,-0.243250,-0.002501,0.054777,0.035572,0.138554,0.627998,-0.754293,-0.127531,0.142816,-99.828891,3.168485,21.859775
54537,NaN,-0.864439,-9.434135,-1.921475,-0.195429,-0.386866,-0.155858,0.077657,0.038183,0.129900,0.628217,-0.754157,-0.126860,0.143168,-99.785695,3.241919,21.827941
54538,NaN,-0.602476,-9.688960,-1.914809,0.055903,-0.240223,0.078954,0.075508,0.027814,0.124981,0.628427,-0.754015,-0.126243,0.143541,-99.743266,3.313207,21.802533
54539,NaN,-0.648519,-9.692006,-2.004582,0.060848,-0.341484,0.099607,0.087810,0.023871,0.116979,0.628685,-0.753827,-0.125658,0.143913,-99.693779,3.380778,21.780156
54540,NaN,-1.030226,-9.375139,-1.741458,-0.375356,-0.304345,-0.233870,0.115882,0.018924,0.104451,0.629055,-0.753538,-0.125118,0.144279,-99.627866,3.441375,21.761886
54541,NaN,-0.814333,-9.378728,-1.775886,-0.149995,-0.260152,-0.237341,0.078556,-0.004187,0.089198,0.629279,-0.753340,-0.124733,0.144664,-99.582598,3.495978,21.758181
54542,NaN,-0.714805,-9.558697,-1.746683,-0.058482,-0.169450,-0.071107,0.095305,-0.004526,0.081429,0.629573,-0.753084,-0.124368,0.145033,-99.527560,3.545849,21.755488
54543,NaN,-0.505150,-9.507276,-1.522994,0.063308,0.097478,-0.171657,0.096755,0.007559,0.077489,0.629882,-0.752830,-0.123976,0.145348,-99.472211,3.592731,21.746342
54544,NaN,-0.497593,-9.536759,-1.463664,0.058401,0.154077,-0.152846,0.089578,0.014231,0.074410,0.630170,-0.752600,-0.123583,0.145621,-99.421083,3.636879,21.733784
54545,NaN,-0.430007,-9.539582,-1.372416,0.096700,0.258281,-0.169244,0.074061,0.017366,0.073525,0.630402,-0.752422,-0.123191,0.145872,-99.379076,3.680619,21.719536
54546,NaN,-0.202155,-9.841326,-1.496097,0.363395,0.278449,0.133230,0.071117,0.047761,0.077939,0.630639,-0.752276,-0.122692,0.146019,-99.339782,3.723653,21.687719
54547,NaN,-0.465273,-9.449527,-1.536359,0.144185,0.071963,-0.229136,0.087399,0.077827,0.078479,0.630953,-0.752103,-0.122082,0.146066,-99.292417,3.764607,21.638815
54548,NaN,-0.604107,-9.479275,-1.554523,0.031251,0.005086,-0.187869,0.075376,0.093921,0.080576,0.631232,-0.751978,-0.121424,0.146050,-99.252464,3.804908,21.580659
54549,NaN,-0.352299,-9.733529,-1.668535,0.316873,0.033464,0.063960,0.077612,0.114317,0.085024,0.631527,-0.751865,-0.120681,0.145975,-99.212193,3.846280,21.510526
54550,NaN,-0.345603,-9.809273,-1.554119,0.290269,0.149544,0.119580,0.076748,0.115991,0.091205,0.631815,-0.751758,-0.119913,0.145910,-99.172447,3.890650,21.438937
54551,NaN,-0.614727,-9.829617,-1.471595,0.020189,0.125557,0.144655,0.101079,0.113086,0.090854,0.632192,-0.751573,-0.119135,0.145871,-99.118822,3.935538,21.369026
54552,NaN,-1.136754,-9.531391,-1.364432,-0.495613,-0.023037,-0.129964,0.100440,0.097128,0.085894,0.632562,-0.751373,-0.118428,0.145875,-99.064832,3.978731,21.308688
54553,NaN,-1.380487,-9.644939,-1.306759,-0.732930,-0.043924,-0.009673,0.090125,0.085279,0.077752,0.632890,-0.751193,-0.117795,0.145893,-99.016400,4.018836,21.255806
54554,NaN,-1.849358,-9.870192,-1.166574,-1.209685,-0.052078,0.224028,0.107960,0.070520,0.060071,0.633290,-0.750933,-0.117264,0.145918,-98.956945,4.049934,21.212948
54555,NaN,-1.879916,-9.646998,-1.445052,-1.128870,-0.366110,0.050295,0.164540,0.064306,0.039550,0.633912,-0.750479,-0.116786,0.145938,-98.864843,4.070396,21.175455
54556,NaN,-1.711018,-9.343390,-1.261777,-1.033540,-0.201815,-0.288527,0.180760,0.060107,0.029254,0.634601,-0.749962,-0.116350,0.145947,-98.763079,4.085140,21.141303
54557,NaN,-0.916302,-9.729559,-1.671790,-0.132370,-0.242719,0.098032,0.183354,0.085413,0.010801,0.635326,-0.749446,-0.115899,0.145807,-98.660885,4.087618,21.094396
54558,NaN,-0.430084,-9.744975,-1.546329,0.280470,0.031877,0.059543,0.206295,0.113071,-0.005041,0.636165,-0.748865,-0.115404,0.145524,-98.546422,4.078547,21.033161
54559,NaN,-0.196935,-9.623558,-1.556645,0.505393,0.067139,-0.075396,0.198912,0.170106,0.005612,0.636999,-0.748356,-0.114692,0.145059,-98.438692,4.071098,20.938590
54560,NaN,0.212108,-9.390245,-1.579119,0.896333,0.137793,-0.331501,0.155518,0.195768,0.011356,0.637681,-0.748004,-0.113909,0.144489,-98.356744,4.064607,20.828960
54561,NaN,-0.032159,-9.429156,-1.208623,0.540106,0.387357,-0.329596,0.097755,0.186667,0.043359,0.638118,-0.747848,-0.113076,0.144024,-98.307858,4.077445,20.721815
54562,NaN,-0.303206,-9.580812,-1.049925,0.237620,0.456961,-0.183516,0.048531,0.153631,0.049138,0.638348,-0.747827,-0.112363,0.143671,-98.285762,4.096022,20.632997
54563,NaN,-0.295984,-9.645365,-1.213715,0.309341,0.319139,-0.096916,-0.011441,0.096223,0.072968,0.638302,-0.747970,-0.111786,0.143577,-98.296010,4.133197,20.574814
54564,NaN,-0.254511,-9.616881,-1.306841,0.387247,0.248382,-0.114990,-0.039707,0.081333,0.099837,0.638125,-0.748207,-0.111178,0.143606,-98.321898,4.186470,20.522872
54565,NaN,-0.260250,-9.605228,-1.167059,0.339973,0.381021,-0.146799,-0.043646,0.063612,0.119803,0.637907,-0.748455,-0.110553,0.143765,-98.349630,4.252860,20.479288
54566,NaN,-0.059104,-9.801970,-1.216788,0.559070,0.446145,0.038763,-0.058146,0.044206,0.139268,0.637611,-0.748744,-0.109929,0.144049,-98.384867,4.331511,20.445093
54567,NaN,-0.385600,-9.735568,-1.336758,0.307036,0.218673,0.014560,-0.006808,0.045513,0.138046,0.637507,-0.748871,-0.109267,0.144354,-98.390945,4.409715,20.410200
54568,NaN,-0.575862,-9.624129,-1.467007,0.186040,0.021427,-0.062175,-0.040158,0.033262,0.161409,0.637255,-0.749107,-0.108582,0.144759,-98.415633,4.501792,20.380312
54569,NaN,-0.643759,-9.801178,-1.646386,0.204191,-0.129679,0.143696,-0.027754,0.031136,0.170031,0.637041,-0.749306,-0.107861,0.145208,-98.433391,4.599308,20.350842
54570,NaN,-0.750400,-9.578095,-1.517268,0.068299,-0.076784,-0.086716,-0.004934,0.026161,0.166660,0.636913,-0.749426,-0.107153,0.145675,-98.437716,4.694937,20.324490
54571,NaN,-0.664988,-9.585548,-1.478915,0.149946,-0.003660,-0.092111,-0.015498,0.009249,0.173054,0.636729,-0.749571,-0.106481,0.146222,-98.447547,4.795999,20.307173
54572,NaN,-0.787060,-9.520233,-1.465193,0.044779,-0.037374,-0.148440,-0.001253,0.003671,0.169411,0.636600,-0.749663,-0.105832,0.146784,-98.448799,4.895072,20.293354
54573,NaN,-0.998553,-9.616323,-1.470343,-0.132699,-0.092494,-0.034829,-0.014424,-0.010424,0.169470,0.636412,-0.749787,-0.105235,0.147394,-98.457085,4.995757,20.287508
54574,NaN,-1.218611,-9.495099,-1.553013,-0.297147,-0.258711,-0.122563,-0.001985,-0.025046,0.160690,0.636270,-0.749854,-0.104710,0.148035,-98.457308,5.092310,20.290745
54575,NaN,-0.993382,-9.320012,-1.402934,-0.131475,-0.065716,-0.336610,-0.019347,-0.020079,0.141848,0.636078,-0.749972,-0.104251,0.148590,-98.467734,5.178154,20.292712
54576,NaN,-0.816247,-9.485151,-1.298731,0.013929,0.126293,-0.205144,-0.030051,-0.000476,0.122951,0.635871,-0.750126,-0.103811,0.149004,-98.485015,5.251260,20.285135
54577,NaN,-1.191026,-9.414125,-1.255789,-0.344183,0.031395,-0.247028,-0.034825,0.001969,0.104350,0.635660,-0.750289,-0.103433,0.149350,-98.505172,5.313989,20.277694
54578,NaN,-1.172195,-9.149937,-1.204640,-0.346206,0.046952,-0.516211,-0.046738,-0.009348,0.088855,0.635411,-0.750471,-0.103161,0.149680,-98.531289,5.368530,20.278015
54579,NaN,-0.436680,-9.309668,-1.016667,0.285498,0.510699,-0.455771,-0.094486,-0.007019,0.086901,0.634983,-0.750807,-0.102923,0.149973,-98.585028,5.422131,20.277112
54580,NaN,-0.387859,-9.803041,-0.939305,0.326802,0.696364,0.012820,-0.108614,0.011272,0.101304,0.634503,-0.751208,-0.102584,0.150233,-98.647813,5.481954,20.264529
54581,NaN,-0.935571,-9.717044,-1.028140,-0.149751,0.424257,-0.007032,-0.105660,0.005174,0.108524,0.634023,-0.751598,-0.102234,0.150543,-98.708815,5.546746,20.254696
54582,NaN,-1.065168,-9.451940,-1.389084,-0.145885,0.014497,-0.201142,-0.124012,0.009359,0.106554,0.633479,-0.752048,-0.101894,0.150819,-98.780383,5.609672,20.242601
54583,NaN,-0.672350,-9.429743,-1.372304,0.219509,0.176786,-0.264082,-0.137864,0.027533,0.105886,0.632890,-0.752555,-0.101507,0.151019,-98.861101,5.670982,20.220117
54584,NaN,-0.476486,-9.671659,-1.466548,0.449930,0.216937,-0.031620,-0.146281,0.052636,0.106670,0.632284,-0.753107,-0.101045,0.151122,-98.947916,5.730100,20.183214
54585,NaN,-1.048854,-9.830690,-1.562544,-0.039015,-0.022891,0.196410,-0.120846,0.070002,0.117395,0.631771,-0.753597,-0.100468,0.151207,-99.021478,5.794059,20.135357
54586,NaN,-1.109844,-9.550429,-1.908883,0.021554,-0.399080,-0.018478,-0.107426,0.058224,0.108120,0.631311,-0.754029,-0.099954,0.151312,-99.086462,5.853391,20.094982
54587,NaN,-0.725298,-9.656379,-1.992732,0.420439,-0.312172,0.059924,-0.096893,0.080573,0.110751,0.630898,-0.754447,-0.099349,0.151348,-99.146971,5.912522,20.041561
54588,NaN,-0.716463,-9.732376,-1.769717,0.359399,-0.077751,0.098374,-0.070990,0.091822,0.117912,0.630584,-0.754794,-0.098665,0.151375,-99.193264,5.974242,19.981054
54589,NaN,-0.903976,-9.664022,-1.755444,0.183959,-0.131031,0.048401,-0.049179,0.093447,0.121175,0.630349,-0.755075,-0.097944,0.151420,-99.227428,6.038001,19.919242
54590,NaN,-1.064643,-9.543897,-1.822157,0.060021,-0.260832,-0.041912,-0.040249,0.090778,0.115513,0.630152,-0.755322,-0.097249,0.151458,-99.256170,6.098379,19.859462
54591,NaN,-1.077532,-9.684717,-1.859522,0.075014,-0.265620,0.103786,-0.033321,0.092252,0.110128,0.629983,-0.755547,-0.096562,0.151479,-99.281204,6.155938,19.799275
54592,NaN,-1.368929,-9.751273,-1.823710,-0.199964,-0.312360,0.194792,-0.003794,0.107028,0.093697,0.629947,-0.755680,-0.095870,0.151405,-99.289969,6.202436,19.732225
54593,NaN,-1.405074,-9.487827,-1.727406,-0.273993,-0.282536,-0.075022,0.024456,0.114588,0.058243,0.630046,-0.755713,-0.095265,0.151206,-99.282847,6.228573,19.664132
54594,NaN,-1.386280,-9.226712,-1.701407,-0.274738,-0.300816,-0.337309,0.018341,0.117740,0.032346,0.630145,-0.755755,-0.094754,0.150909,-99.279044,6.239412,19.596688
54595,NaN,-1.525911,-9.497172,-1.670778,-0.402717,-0.267956,-0.061678,0.016560,0.129906,0.015653,0.630253,-0.755804,-0.094267,0.150514,-99.276992,6.240060,19.523839
54596,NaN,-1.430887,-9.271006,-1.540449,-0.370120,-0.159406,-0.314816,0.032295,0.105678,-0.007253,0.630428,-0.755774,-0.093933,0.150144,-99.264056,6.229651,19.466934
54597,NaN,-1.142150,-9.488742,-1.610160,-0.066682,-0.088442,-0.121399,-0.000067,0.081853,-0.013251,0.630473,-0.755825,-0.093719,0.149832,-99.268256,6.218404,19.424104
54598,NaN,-1.117723,-9.647246,-1.505881,-0.073998,0.044862,0.014767,0.020721,0.077750,-0.013984,0.630595,-0.755806,-0.093508,0.149541,-99.260145,6.206783,19.383708
54599,NaN,-1.341097,-9.565833,-1.362024,-0.338069,0.087349,-0.064001,0.019948,0.081934,-0.011707,0.630714,-0.755795,-0.093273,0.149243,-99.252881,6.196409,19.340690
54600,NaN,-1.050553,-9.582154,-1.434595,-0.041034,0.117793,-0.067748,0.010154,0.086530,-0.006662,0.630795,-0.755820,-0.093014,0.148937,-99.251417,6.188138,19.294618
54601,NaN,-0.927322,-9.593262,-1.328364,0.037422,0.258586,-0.087108,-0.001258,0.097327,-0.006799,0.630837,-0.755889,-0.092728,0.148586,-99.257282,6.179122,19.242390
54602,NaN,-0.836119,-9.643620,-1.448063,0.164632,0.188241,-0.028371,-0.019293,0.098160,-0.001265,0.630808,-0.756017,-0.092433,0.148239,-99.273435,6.172819,19.189204
54603,NaN,-0.982119,-9.545339,-1.351766,-0.011474,0.213516,-0.124570,-0.016613,0.108197,0.002271,0.630790,-0.756147,-0.092090,0.147869,-99.288840,6.167903,19.129956
54604,NaN,-0.936469,-9.505165,-1.424124,0.052830,0.156888,-0.157334,-0.035956,0.088025,0.010451,0.630685,-0.756325,-0.091795,0.147589,-99.314025,6.169127,19.081447
54605,NaN,-0.591971,-9.677225,-1.623426,0.451455,0.120526,0.006492,-0.038007,0.086829,0.017010,0.630565,-0.756513,-0.091479,0.147336,-99.340530,6.174481,19.032978
54606,NaN,-0.722973,-9.749653,-1.476803,0.282643,0.231167,0.067902,-0.017555,0.093247,0.032596,0.630515,-0.756647,-0.091071,0.147115,-99.355724,6.187689,18.979425
54607,NaN,-0.766723,-9.684076,-1.502761,0.249314,0.183098,0.012372,-0.003282,0.097108,0.042122,0.630512,-0.756744,-0.090602,0.146918,-99.363240,6.206255,18.922752
54608,NaN,-1.135295,-9.557742,-1.646459,-0.052539,-0.090141,-0.048505,-0.016644,0.088348,0.042431,0.630456,-0.756875,-0.090171,0.146747,-99.377739,6.225449,18.871054
54609,NaN,-1.093536,-9.580186,-1.590012,-0.029154,-0.016747,-0.040134,-0.015075,0.103744,0.037730,0.630414,-0.757012,-0.089707,0.146506,-99.392414,6.240887,18.811008
54610,NaN,-1.181576,-9.562632,-1.692381,-0.078000,-0.140619,-0.031157,-0.007615,0.136359,0.020515,0.630429,-0.757140,-0.089201,0.146088,-99.404510,6.243179,18.734061
54611,NaN,-1.184866,-9.348882,-1.677849,-0.097557,-0.167042,-0.242773,0.002218,0.153382,0.005673,0.630498,-0.757243,-0.088688,0.145565,-99.412024,6.235824,18.648803
54612,NaN,-1.023986,-9.446593,-1.744388,0.078298,-0.158310,-0.153580,-0.004322,0.170418,-0.004805,0.630559,-0.757373,-0.088168,0.144940,-99.424061,6.220593,18.554879
54613,NaN,-1.301584,-9.471952,-1.678923,-0.207754,-0.180123,-0.109329,0.010018,0.183487,-0.022687,0.630690,-0.757460,-0.087663,0.144217,-99.428619,6.194357,18.455188
54614,NaN,-1.331067,-9.381907,-1.598735,-0.271694,-0.132617,-0.207665,0.013566,0.171745,-0.039529,0.630843,-0.757519,-0.087257,0.143485,-99.430056,6.159363,18.363800
54615,NaN,-1.250850,-9.383568,-1.603607,-0.200763,-0.112941,-0.214018,0.006288,0.148506,-0.056621,0.630969,-0.757577,-0.086993,0.142786,-99.434160,6.117221,18.287216
54616,NaN,-1.318169,-9.584837,-1.597970,-0.263869,-0.091963,-0.010540,0.001592,0.140351,-0.062790,0.631079,-0.757640,-0.086783,0.142094,-99.440199,6.072031,18.215888
54617,NaN,-1.388439,-9.631406,-1.539370,-0.355203,-0.052068,0.032744,0.009251,0.133009,-0.076162,0.631222,-0.757668,-0.086639,0.141393,-99.441359,6.020289,18.149978
54618,NaN,-1.248333,-9.651686,-1.541825,-0.230167,-0.009873,0.038075,0.016433,0.150309,-0.086560,0.631409,-0.757679,-0.086477,0.140594,-99.439119,5.960739,18.075249
54619,NaN,-1.291613,-9.592851,-1.509438,-0.294941,-0.007232,-0.020732,0.012920,0.180064,-0.104138,0.631605,-0.757716,-0.086288,0.139628,-99.440523,5.888764,17.985258
54620,NaN,-1.536987,-9.485820,-1.491260,-0.550453,-0.089133,-0.104135,0.016787,0.176037,-0.124278,0.631829,-0.757727,-0.086187,0.138613,-99.439016,5.805491,17.899491
54621,NaN,-1.081571,-9.498937,-1.656374,-0.079826,-0.103717,-0.110831,-0.024640,0.168006,-0.119676,0.631888,-0.757865,-0.086121,0.137627,-99.460853,5.725853,17.817856
54622,NaN,-0.693392,-9.925310,-1.830086,0.347484,-0.070834,0.297506,0.012150,0.196245,-0.117789,0.632097,-0.757906,-0.085934,0.136554,-99.462953,5.644327,17.720051
54623,NaN,-0.785482,-9.680502,-1.658371,0.183316,0.009737,0.038484,0.062920,0.223036,-0.099920,0.632496,-0.757812,-0.085559,0.135459,-99.437631,5.570677,17.605321
54624,NaN,-0.757120,-9.471058,-1.447673,0.125753,0.169177,-0.204073,0.050828,0.212926,-0.080409,0.632832,-0.757756,-0.085152,0.134457,-99.418584,5.508763,17.494497
54625,NaN,-0.493676,-9.689516,-1.637262,0.435813,0.105372,0.016352,0.029590,0.206084,-0.060669,0.633069,-0.757771,-0.084704,0.133536,-99.411548,5.458959,17.385675
54626,NaN,-0.436690,-9.666584,-1.631181,0.480827,0.119327,-0.012236,0.033461,0.175371,-0.039282,0.633295,-0.757760,-0.084271,0.132799,-99.400605,5.423840,17.292303
54627,NaN,-0.553178,-9.619353,-1.614606,0.359477,0.088302,-0.050111,0.025135,0.153794,-0.011256,0.633459,-0.757774,-0.083804,0.132230,-99.393629,5.406893,17.208525
54628,NaN,-0.566789,-9.536713,-1.610605,0.340604,0.071004,-0.130583,0.016365,0.118115,0.006066,0.633565,-0.757798,-0.083392,0.131846,-99.389763,5.402770,17.143404
54629,NaN,-0.699445,-9.674629,-1.696223,0.246879,-0.023778,0.031261,0.014988,0.090438,0.025334,0.633640,-0.757817,-0.082994,0.131629,-99.385523,5.412442,17.092164
54630,NaN,-0.709130,-9.633198,-1.693797,0.237751,-0.032409,-0.008977,0.018607,0.066082,0.036713,0.633712,-0.757812,-0.082629,0.131540,-99.377874,5.430505,17.053715
54631,NaN,-0.761580,-9.627747,-1.714382,0.198012,-0.068930,-0.006125,0.031597,0.058947,0.048606,0.633821,-0.757767,-0.082232,0.131523,-99.362659,5.456286,17.018176
54632,NaN,-0.618122,-9.586237,-1.680531,0.327795,-0.004464,-0.066164,0.035663,0.050024,0.053361,0.633940,-0.757704,-0.081844,0.131554,-99.344555,5.485269,16.987298
54633,NaN,-0.875987,-9.663182,-1.696530,0.096780,-0.082602,0.036499,0.051744,0.049797,0.062906,0.634112,-0.757595,-0.081408,0.131625,-99.317462,5.520009,16.955636
54634,NaN,-0.935348,-9.518951,-1.591068,0.009180,-0.029817,-0.116512,0.051208,0.034960,0.064296,0.634276,-0.757477,-0.081016,0.131755,-99.289762,5.556592,16.932322
54635,NaN,-0.796803,-9.575061,-1.678068,0.177062,-0.063342,-0.060907,0.040097,0.031967,0.063640,0.634396,-0.757392,-0.080642,0.131891,-99.268401,5.593423,16.910750
54636,NaN,-0.865093,-9.590431,-1.567009,0.086462,0.021335,-0.057056,0.061475,0.034616,0.063787,0.634599,-0.757241,-0.080246,0.132024,-99.234825,5.629770,16.887711
54637,NaN,-1.014984,-9.505341,-1.489246,-0.076138,0.032290,-0.138354,0.054027,0.016141,0.060687,0.634767,-0.757101,-0.079924,0.132216,-99.204595,5.666405,16.875442
54638,NaN,-0.973458,-9.566557,-1.549424,-0.008413,-0.003982,-0.072705,0.045418,0.002874,0.056131,0.634902,-0.756976,-0.079668,0.132439,-99.178388,5.701353,16.871184
54639,NaN,-1.027104,-9.619436,-1.530623,-0.056113,0.004868,-0.018397,0.050688,0.003416,0.043810,0.635063,-0.756831,-0.079452,0.132624,-99.149207,5.729615,16.867730
54640,NaN,-1.167101,-9.575599,-1.454620,-0.209008,0.024440,-0.059439,0.050832,0.004138,0.031752,0.635234,-0.756680,-0.079282,0.132767,-99.119748,5.750664,16.865017
54641,NaN,-1.219759,-9.583548,-1.525349,-0.233363,-0.059931,-0.035119,0.052856,-0.001082,0.011271,0.635423,-0.756512,-0.079202,0.132867,-99.088771,5.760928,16.867115
54642,NaN,-1.196129,-9.521058,-1.581133,-0.194916,-0.122250,-0.090120,0.066297,0.014870,-0.010747,0.635686,-0.756302,-0.079147,0.132840,-99.050673,5.756975,16.862179
54643,NaN,-1.111047,-9.479662,-1.509180,-0.137035,-0.043608,-0.150630,0.061346,0.026244,-0.021427,0.635939,-0.756112,-0.079098,0.132736,-99.016091,5.746277,16.851706
54644,NaN,-0.864290,-9.506615,-1.514351,0.100194,0.021250,-0.148036,0.060923,0.025487,-0.033316,0.636200,-0.755917,-0.079099,0.132595,-98.981473,5.728616,16.842758
54645,NaN,-1.008347,-9.520107,-1.558136,-0.024262,-0.065868,-0.113612,0.068894,0.027405,-0.034958,0.636492,-0.755699,-0.079093,0.132447,-98.942508,5.710169,16.832825
54646,NaN,-1.133757,-9.431477,-1.537601,-0.155458,-0.105749,-0.191512,0.070535,0.013759,-0.040015,0.636789,-0.755463,-0.079150,0.132333,-98.901659,5.689771,16.831124
54647,NaN,-0.900805,-9.462551,-1.484574,0.050303,0.009898,-0.192258,0.054200,0.001026,-0.046796,0.637022,-0.755268,-0.079282,0.132241,-98.869518,5.666970,16.837227
54648,NaN,-0.822481,-9.580520,-1.406323,0.105228,0.120434,-0.095949,0.057953,-0.004545,-0.042814,0.637265,-0.755059,-0.079416,0.132182,-98.834831,5.646608,16.846163
54649,NaN,-1.012738,-9.620025,-1.330000,-0.098328,0.137661,-0.049962,0.059688,-0.021658,-0.040239,0.637506,-0.754834,-0.079592,0.132198,-98.798342,5.629504,16.864564
54650,NaN,-0.937408,-9.576956,-1.416291,-0.004130,0.064197,-0.086508,0.050504,-0.023043,-0.045862,0.637716,-0.754635,-0.079801,0.132197,-98.766870,5.609024,16.884266
54651,NaN,-0.794415,-9.566335,-1.395005,0.123221,0.117696,-0.114087,0.049921,-0.016364,-0.047498,0.637926,-0.754442,-0.079994,0.132166,-98.736224,5.587327,16.900270
54652,NaN,-0.732821,-9.643287,-1.349785,0.169999,0.185767,-0.051103,0.044301,-0.007730,-0.040715,0.638116,-0.754275,-0.080139,0.132120,-98.709211,5.568409,16.910786
54653,NaN,-0.818813,-9.661409,-1.338974,0.084305,0.169044,-0.026450,0.043531,-0.009313,-0.033741,0.638296,-0.754112,-0.080262,0.132104,-98.682744,5.553879,16.921559
54654,NaN,-0.899341,-9.676532,-1.419613,0.031736,0.067773,0.008402,0.035326,-0.018936,-0.028729,0.638439,-0.753971,-0.080403,0.132136,-98.660360,5.542702,16.937394
54655,NaN,-0.939240,-9.626466,-1.495732,0.013753,-0.028209,-0.025591,0.035058,-0.023735,-0.027728,0.638577,-0.753828,-0.080555,0.132190,-98.638011,5.532811,16.955841
54656,NaN,-0.920817,-9.580715,-1.515686,0.034436,-0.053792,-0.069422,0.036428,-0.028815,-0.033039,0.638722,-0.753675,-0.080744,0.132245,-98.614426,5.520031,16.977662
54657,NaN,-0.909630,-9.551501,-1.497100,0.037409,-0.042632,-0.102039,0.041596,-0.026636,-0.030392,0.638886,-0.753508,-0.080910,0.132304,-98.588159,5.508864,16.997981
54658,NaN,-0.996092,-9.598775,-1.467488,-0.052283,-0.036714,-0.051636,0.041001,-0.030442,-0.033112,0.639048,-0.753339,-0.081102,0.132367,-98.561877,5.496163,17.020721
54659,NaN,-1.065174,-9.556948,-1.427406,-0.133322,-0.031288,-0.092164,0.042308,-0.024491,-0.042609,0.639223,-0.753166,-0.081307,0.132380,-98.535229,5.477873,17.040853
54660,NaN,-1.076018,-9.561815,-1.366159,-0.164250,0.019447,-0.095427,0.024255,-0.028321,-0.050121,0.639334,-0.753045,-0.081566,0.132373,-98.518535,5.455340,17.063825
54661,NaN,-1.000621,-9.590246,-1.470815,-0.062498,-0.056332,-0.059212,0.028158,-0.022729,-0.057119,0.639466,-0.752912,-0.081830,0.132327,-98.499990,5.428665,17.084176
54662,NaN,-0.970660,-9.644138,-1.454514,-0.039949,-0.027816,-0.011421,0.034123,-0.016616,-0.058546,0.639624,-0.752764,-0.082077,0.132254,-98.478226,5.400358,17.101185
54663,NaN,-0.861477,-9.594825,-1.534154,0.082527,-0.084314,-0.058585,0.040688,-0.011926,-0.057784,0.639808,-0.752598,-0.082300,0.132170,-98.453095,5.372379,17.115420
54664,NaN,-0.701181,-9.565688,-1.519493,0.225880,-0.033685,-0.104406,0.036125,-0.010293,-0.057690,0.639976,-0.752447,-0.082523,0.132076,-98.430549,5.344015,17.128730
54665,NaN,-0.726583,-9.617070,-1.434026,0.174922,0.042707,-0.063843,0.043605,0.002464,-0.049960,0.640171,-0.752285,-0.082669,0.131964,-98.404586,5.319251,17.134089
54666,NaN,-0.866560,-9.561739,-1.339075,0.008140,0.076116,-0.119131,0.051152,-0.003385,-0.041445,0.640388,-0.752097,-0.082798,0.131903,-98.373938,5.299499,17.142080
54667,NaN,-0.905247,-9.541364,-1.395745,-0.013796,0.002822,-0.127389,0.037292,-0.019577,-0.036499,0.640541,-0.751946,-0.082968,0.131914,-98.350544,5.284197,17.158837
54668,NaN,-1.065373,-9.531186,-1.402408,-0.165748,-0.056455,-0.121733,0.031383,-0.028582,-0.032684,0.640667,-0.751808,-0.083158,0.131968,-98.329975,5.271500,17.180422
54669,NaN,-0.756540,-9.541208,-1.517988,0.162775,-0.075810,-0.123567,0.014601,-0.023039,-0.026608,0.640727,-0.751731,-0.083317,0.132014,-98.319484,5.262082,17.198315
54670,NaN,-0.847391,-9.749353,-1.357130,0.035536,0.080267,0.066688,0.032800,0.001917,-0.023806,0.640865,-0.751613,-0.083375,0.131982,-98.299773,5.251884,17.201792
54671,NaN,-0.642032,-9.594623,-1.344053,0.219599,0.124635,-0.106415,0.019726,0.015284,-0.015065,0.640952,-0.751550,-0.083364,0.131924,-98.288436,5.245834,17.196902
54672,NaN,-0.714232,-9.666836,-1.355563,0.157539,0.102524,-0.026980,0.017801,0.034075,-0.002774,0.641033,-0.751509,-0.083250,0.131832,-98.279151,5.244898,17.180325
54673,NaN,-0.827776,-9.560559,-1.345312,0.042372,0.059620,-0.122795,0.023536,0.045332,0.003095,0.641136,-0.751461,-0.083072,0.131720,-98.267333,5.246669,17.156820
54674,NaN,-0.810500,-9.529191,-1.296150,0.043564,0.104535,-0.162321,0.013936,0.043667,0.011060,0.641197,-0.751445,-0.082878,0.131635,-98.260871,5.252794,17.133630
54675,NaN,-0.673497,-9.559057,-1.313203,0.182334,0.133087,-0.143008,0.010959,0.033330,0.021100,0.641235,-0.751437,-0.082679,0.131621,-98.255774,5.265768,17.115472
54676,NaN,-0.554268,-9.577642,-1.344130,0.308941,0.141821,-0.131284,0.010833,0.027447,0.032630,0.641264,-0.751429,-0.082458,0.131664,-98.250411,5.285456,17.099742
54677,NaN,-0.672097,-9.614333,-1.364629,0.208906,0.094138,-0.081458,0.014430,0.024157,0.046313,0.641295,-0.751414,-0.082192,0.131767,-98.243048,5.313484,17.084728
54678,NaN,-0.854103,-9.563946,-1.282495,0.013860,0.110563,-0.126051,0.009166,0.018430,0.058099,0.641297,-0.751416,-0.081905,0.131925,-98.238372,5.348348,17.072040
54679,NaN,-0.802074,-9.609855,-1.260404,0.064663,0.156031,-0.088865,-0.009337,0.017232,0.061790,0.641225,-0.751478,-0.081618,0.132094,-98.244394,5.385722,17.059694
54680,NaN,-0.653752,-9.621715,-1.284900,0.219466,0.181674,-0.087741,-0.023017,0.024459,0.064915,0.641104,-0.751590,-0.081308,0.132238,-98.258542,5.423951,17.042994
54681,NaN,-0.772137,-9.528896,-1.208159,0.084791,0.209199,-0.179166,-0.040056,0.025232,0.071984,0.640913,-0.751760,-0.080977,0.132397,-98.282697,5.466439,17.025227
54682,NaN,-0.902120,-9.565428,-1.267763,-0.013571,0.127659,-0.122385,-0.051448,0.022624,0.072849,0.640679,-0.751965,-0.080662,0.132562,-98.313125,5.509302,17.008874
54683,NaN,-0.836544,-9.578087,-1.327636,0.072779,0.099761,-0.107693,-0.059196,0.015557,0.067191,0.640415,-0.752188,-0.080393,0.132734,-98.347707,5.549858,16.996970
54684,NaN,-0.949086,-9.654520,-1.355311,-0.017396,0.060709,-0.017617,-0.047817,0.021070,0.063988,0.640200,-0.752376,-0.080113,0.132878,-98.375918,5.587807,16.982197
54685,NaN,-1.020553,-9.636742,-1.396731,-0.069167,0.004278,-0.022163,-0.046169,0.015543,0.057161,0.639992,-0.752553,-0.079873,0.133023,-98.402973,5.622667,16.971099
54686,NaN,-1.017127,-9.576498,-1.405588,-0.062361,-0.007307,-0.080494,-0.045419,0.009533,0.046775,0.639792,-0.752718,-0.079694,0.133156,-98.429044,5.651816,16.964307
54687,NaN,-1.112331,-9.548592,-1.493632,-0.124535,-0.117331,-0.085686,-0.038372,0.008637,0.038685,0.639622,-0.752858,-0.079540,0.133271,-98.451104,5.676775,16.958673
54688,NaN,-1.230213,-9.525723,-1.556850,-0.216636,-0.210517,-0.087187,-0.037720,0.000826,0.020130,0.639466,-0.752983,-0.079484,0.133354,-98.472060,5.691560,16.959076
54689,NaN,-1.231430,-9.525039,-1.560071,-0.215980,-0.210459,-0.087171,-0.030473,-0.005207,0.004704,0.639343,-0.753074,-0.079497,0.133416,-98.488529,5.698427,16.964194
54690,NaN,-0.995968,-9.479029,-1.591257,0.015207,-0.176546,-0.151184,-0.030010,-0.021260,-0.005228,0.639223,-0.753149,-0.079601,0.133505,-98.503610,5.700723,16.979324
54691,NaN,-0.890124,-9.674187,-1.578613,0.121610,-0.099084,0.028534,-0.009826,-0.007575,-0.011260,0.639188,-0.753167,-0.079669,0.133533,-98.507981,5.698748,16.987147
54692,NaN,-1.079604,-9.512999,-1.390428,-0.124326,-0.004687,-0.138986,0.006966,-0.016071,-0.014966,0.639216,-0.753123,-0.079768,0.133586,-98.502094,5.695089,17.000150
54693,NaN,-1.110816,-9.548226,-1.380697,-0.155805,0.001164,-0.102663,-0.015038,-0.033059,-0.018935,0.639156,-0.753138,-0.079950,0.133683,-98.507948,5.690923,17.023138
54694,NaN,-1.069440,-9.597374,-1.426281,-0.101586,-0.020946,-0.051704,-0.014033,-0.044743,-0.031402,0.639104,-0.753135,-0.080217,0.133783,-98.512342,5.680390,17.053871
54695,NaN,-1.185988,-9.493087,-1.327168,-0.250182,0.020456,-0.157449,-0.013024,-0.051182,-0.043331,0.639061,-0.753122,-0.080547,0.133871,-98.515824,5.663943,17.089258
54696,NaN,-1.071725,-9.498302,-1.465193,-0.102323,-0.074967,-0.143301,-0.025880,-0.050480,-0.045311,0.638972,-0.753147,-0.080892,0.133943,-98.526578,5.646029,17.124436
54697,NaN,-1.099298,-9.562731,-1.437925,-0.137738,-0.046420,-0.081254,-0.012972,-0.036574,-0.061931,0.638947,-0.753135,-0.081246,0.133917,-98.530715,5.617809,17.153096
54698,NaN,-0.953879,-9.537213,-1.370570,-0.026186,0.055056,-0.130587,-0.025495,-0.036868,-0.060177,0.638874,-0.753163,-0.081603,0.133891,-98.541921,5.590330,17.181811
54699,NaN,-0.682728,-9.641716,-1.476693,0.264085,0.053528,-0.038394,-0.029761,-0.028086,-0.058184,0.638786,-0.753211,-0.081926,0.133838,-98.556205,5.563521,17.205325
54700,NaN,-0.839253,-9.645593,-1.417558,0.092716,0.064509,-0.028081,-0.022225,-0.028719,-0.049145,0.638722,-0.753238,-0.082214,0.133817,-98.566091,5.541606,17.228440
54701,NaN,-0.849872,-9.577964,-1.346855,0.054038,0.117599,-0.104086,-0.034346,-0.030574,-0.038405,0.638603,-0.753308,-0.082474,0.133835,-98.583047,5.526225,17.251683
54702,NaN,-0.806421,-9.583948,-1.361239,0.096648,0.120583,-0.100249,-0.047967,-0.031478,-0.033403,0.638430,-0.753421,-0.082728,0.133864,-98.607677,5.513480,17.275021
54703,NaN,-0.730049,-9.641445,-1.330532,0.159574,0.185923,-0.055602,-0.056936,-0.021757,-0.019262,0.638216,-0.753577,-0.082903,0.133900,-98.638224,5.508206,17.291607
54704,NaN,-0.754167,-9.659538,-1.363947,0.145864,0.155071,-0.030537,-0.049397,-0.004348,-0.005723,0.638030,-0.753724,-0.082968,0.133916,-98.665384,5.508815,17.297136
54705,NaN,-0.722021,-9.623451,-1.379391,0.178607,0.149377,-0.066887,-0.067472,-0.007091,0.006996,0.637765,-0.753934,-0.083004,0.133976,-98.702988,5.517162,17.303100
54706,NaN,-0.422533,-9.663682,-1.394920,0.469782,0.237654,-0.053901,-0.079217,-0.025666,0.019847,0.637441,-0.754173,-0.083060,0.134140,-98.746281,5.534110,17.318516
54707,NaN,-0.897110,-9.597164,-1.384578,0.013561,0.103904,-0.075314,-0.092421,-0.046174,0.029323,0.637051,-0.754444,-0.083153,0.134409,-98.796217,5.558523,17.344743
54708,NaN,-0.934369,-9.572575,-1.421192,-0.010053,0.064315,-0.090405,-0.110769,-0.074081,0.035632,0.636576,-0.754757,-0.083325,0.134793,-98.855029,5.588676,17.386296
54709,NaN,-0.910872,-9.675926,-1.596798,0.073298,-0.064302,0.035839,-0.109904,-0.083488,0.032866,0.636101,-0.755060,-0.083535,0.135206,-98.912919,5.618448,17.433386
54710,NaN,-0.972368,-9.656322,-1.608612,0.019798,-0.087034,0.024472,-0.092804,-0.084791,0.031007,0.635693,-0.755306,-0.083747,0.135623,-98.960765,5.647019,17.481379
54711,NaN,-0.975824,-9.583113,-1.600581,0.012717,-0.084601,-0.048322,-0.088338,-0.088157,0.022765,0.635304,-0.755533,-0.083995,0.136030,-99.005907,5.671574,17.531985
54712,NaN,-0.898219,-9.623064,-1.611471,0.093414,-0.055937,-0.014977,-0.084597,-0.080343,0.025491,0.634931,-0.755753,-0.084208,0.136417,-99.049222,5.696702,17.577907
54713,NaN,-0.885073,-9.603944,-1.623463,0.110112,-0.058739,-0.033160,-0.077416,-0.070566,0.011680,0.634598,-0.755951,-0.084435,0.136727,-99.088963,5.713472,17.619484
54714,NaN,-0.995068,-9.485702,-1.441434,-0.056068,0.064043,-0.167005,-0.068884,-0.077615,0.008726,0.634297,-0.756116,-0.084691,0.137056,-99.123254,5.728929,17.665353
54715,NaN,-0.960691,-9.588245,-1.580929,0.025600,-0.030766,-0.047694,-0.080594,-0.079180,0.005951,0.633951,-0.756315,-0.084969,0.137379,-99.164254,5.743295,17.712331
54716,NaN,-1.050881,-9.533185,-1.563672,-0.067744,-0.045395,-0.095466,-0.066170,-0.077223,-0.000810,0.633667,-0.756467,-0.085259,0.137678,-99.196905,5.753385,17.758828
54717,NaN,-1.141302,-9.520558,-1.580185,-0.149347,-0.085047,-0.096153,-0.066391,-0.073130,-0.013655,0.633391,-0.756617,-0.085582,0.137922,-99.229917,5.756165,17.804159
54718,NaN,-1.222409,-9.448926,-1.600065,-0.224892,-0.136352,-0.155176,-0.067173,-0.075726,-0.026887,0.633120,-0.756761,-0.085966,0.138132,-99.262986,5.751428,17.852214
54719,NaN,-1.129420,-9.518321,-1.558294,-0.149849,-0.051154,-0.103041,-0.072740,-0.068708,-0.034979,0.632837,-0.756925,-0.086360,0.138289,-99.299696,5.741795,17.897008
54720,NaN,-0.946970,-9.540879,-1.542580,0.015264,0.028360,-0.101681,-0.065708,-0.067209,-0.040221,0.632585,-0.757065,-0.086766,0.138425,-99.332303,5.728797,17.941468
54721,NaN,-0.813076,-9.587205,-1.530499,0.136243,0.093859,-0.071505,-0.065752,-0.064286,-0.042549,0.632334,-0.757206,-0.087170,0.138545,-99.365207,5.714525,17.984467
54722,NaN,-0.890678,-9.574408,-1.513574,0.052829,0.087950,-0.079087,-0.063981,-0.073235,-0.041821,0.632087,-0.757334,-0.087600,0.138699,-99.396489,5.701233,18.032513
54723,NaN,-0.987976,-9.533579,-1.581034,-0.023064,-0.008193,-0.098559,-0.065352,-0.093711,-0.044524,0.631826,-0.757452,-0.088105,0.138924,-99.427505,5.688649,18.092427
54724,NaN,-0.938155,-9.622499,-1.634094,0.041242,-0.021466,-0.007550,-0.064460,-0.095560,-0.043863,0.631568,-0.757565,-0.088613,0.139156,-99.457807,5.676353,18.153357
54725,NaN,-0.913978,-9.629062,-1.716661,0.087471,-0.085956,0.010045,-0.052591,-0.088565,-0.047325,0.631359,-0.757645,-0.089103,0.139358,-99.481800,5.661762,18.210624
54726,NaN,-0.973185,-9.586309,-1.649518,0.004431,-0.047013,-0.037050,-0.044383,-0.074278,-0.046538,0.631188,-0.757708,-0.089541,0.139510,-99.501798,5.645995,18.259731
54727,NaN,-1.009905,-9.580128,-1.641476,-0.036923,-0.049917,-0.040823,-0.041395,-0.064446,-0.051254,0.631035,-0.757767,-0.089961,0.139613,-99.520716,5.626941,18.303684
54728,NaN,-1.079870,-9.550915,-1.659769,-0.102519,-0.092505,-0.059643,-0.038667,-0.054195,-0.054431,0.630899,-0.757822,-0.090361,0.139666,-99.538516,5.604844,18.342148
54729,NaN,-0.937770,-9.580167,-1.684035,0.036274,-0.063616,-0.040808,-0.034743,-0.049145,-0.056178,0.630781,-0.757868,-0.090747,0.139699,-99.554456,5.581581,18.377892
54730,NaN,-0.785949,-9.608842,-1.674790,0.173238,-0.000967,-0.028902,-0.026792,-0.039664,-0.054436,0.630698,-0.757896,-0.091093,0.139703,-99.566286,5.558122,18.408116
54731,NaN,-0.794304,-9.572117,-1.583818,0.130430,0.074776,-0.079126,-0.020000,-0.041438,-0.043798,0.630630,-0.757906,-0.091398,0.139752,-99.574343,5.541134,18.438308
54732,NaN,-0.789156,-9.559496,-1.532519,0.115353,0.122572,-0.100478,-0.024782,-0.050628,-0.031192,0.630533,-0.757930,-0.091689,0.139871,-99.584653,5.531859,18.472535
54733,NaN,-0.820367,-9.636896,-1.559496,0.095727,0.103373,-0.017027,-0.022687,-0.057690,-0.029125,0.630437,-0.757944,-0.091991,0.140027,-99.593507,5.524722,18.510549
54734,NaN,-0.847414,-9.566949,-1.643777,0.093877,0.004431,-0.069085,-0.022233,-0.061629,-0.023068,0.630338,-0.757956,-0.092284,0.140215,-99.601838,5.521094,18.550243
54735,NaN,-0.911959,-9.579254,-1.662207,0.038299,-0.029389,-0.047731,-0.027421,-0.058552,-0.025064,0.630222,-0.757986,-0.092577,0.140384,-99.613401,5.516345,18.588358
54736,NaN,-0.983687,-9.579627,-1.660210,-0.031213,-0.049295,-0.040799,-0.012376,-0.048163,-0.023389,0.630167,-0.757976,-0.092822,0.140524,-99.616824,5.511259,18.620441
54737,NaN,-1.023239,-9.544459,-1.667767,-0.068651,-0.074911,-0.070263,-0.021072,-0.042837,-0.028468,0.630083,-0.757995,-0.093074,0.140626,-99.625582,5.503091,18.649965
54738,NaN,-1.122089,-9.575885,-1.746520,-0.136664,-0.173466,-0.016861,-0.007611,-0.038949,-0.035984,0.630059,-0.757970,-0.093334,0.140694,-99.626671,5.490017,18.678031
54739,NaN,-1.043389,-9.491947,-1.679744,-0.089462,-0.103343,-0.117917,0.004348,-0.045286,-0.038311,0.630078,-0.757903,-0.093613,0.140786,-99.620653,5.476525,18.709891
54740,NaN,-0.847059,-9.580268,-1.734491,0.115193,-0.076601,-0.040873,0.005537,-0.045265,-0.036309,0.630101,-0.757832,-0.093885,0.140884,-99.613882,5.463875,18.741569
54741,NaN,-0.895399,-9.567995,-1.609536,0.026394,0.018804,-0.069083,0.029689,-0.045618,-0.038471,0.630216,-0.757685,-0.094148,0.140988,-99.593340,5.450312,18.773626
54742,NaN,-0.885346,-9.580755,-1.626682,0.040913,0.004920,-0.054660,0.020129,-0.051974,-0.036177,0.630291,-0.757563,-0.094430,0.141118,-99.577866,5.438359,18.809092
54743,NaN,-0.954709,-9.611510,-1.602054,-0.032465,0.007729,-0.021975,0.030631,-0.045170,-0.034925,0.630406,-0.757415,-0.094677,0.141233,-99.556855,5.426738,18.840546
54744,NaN,-0.985162,-9.618690,-1.606742,-0.059953,-0.009176,-0.011275,0.033484,-0.033235,-0.029973,0.630536,-0.757267,-0.094868,0.141317,-99.534806,5.416485,18.864774
54745,NaN,-0.999346,-9.608158,-1.615901,-0.071391,-0.028917,-0.018782,0.042868,-0.028552,-0.040413,0.630710,-0.757089,-0.095075,0.141357,-99.507638,5.400163,18.887308
54746,NaN,-1.019681,-9.585888,-1.604104,-0.096782,-0.034744,-0.040709,0.056700,-0.009837,-0.049337,0.630952,-0.756875,-0.095248,0.141303,-99.473377,5.376739,18.900080
54747,NaN,-0.921268,-9.521947,-1.664153,0.011727,-0.076862,-0.102921,0.046089,-0.000997,-0.048879,0.631157,-0.756702,-0.095398,0.141214,-99.445770,5.353013,18.907754
54748,NaN,-0.778636,-9.551557,-1.681834,0.150475,-0.047877,-0.084268,0.050866,-0.012836,-0.056943,0.631381,-0.756501,-0.095614,0.141145,-99.414641,5.325561,18.922920
54749,NaN,-0.847481,-9.474206,-1.512443,0.023779,0.066629,-0.181422,0.045930,-0.033542,-0.058818,0.631577,-0.756301,-0.095904,0.141147,-99.385338,5.299254,18.949979
54750,NaN,-0.851095,-9.576587,-1.539863,0.030227,0.053293,-0.076015,0.033001,-0.045801,-0.057796,0.631718,-0.756132,-0.096240,0.141191,-99.362732,5.274380,18.983912
54751,NaN,-0.880330,-9.626125,-1.579250,0.014624,0.011395,-0.018253,0.031524,-0.047700,-0.061139,0.631854,-0.755966,-0.096593,0.141232,-99.340952,5.248057,19.019201
54752,NaN,-0.922333,-9.609574,-1.543962,-0.040700,0.022368,-0.036375,0.031647,-0.047502,-0.067907,0.631996,-0.755795,-0.096974,0.141250,-99.318981,5.217599,19.055021
54753,NaN,-0.901980,-9.563503,-1.563768,-0.020143,-0.003096,-0.080313,0.032706,-0.046862,-0.071143,0.632143,-0.755620,-0.097362,0.141257,-99.296521,5.185514,19.090741
54754,NaN,-0.934030,-9.588500,-1.530070,-0.065454,0.016630,-0.058289,0.032888,-0.041262,-0.084134,0.632304,-0.755442,-0.097783,0.141201,-99.274067,5.145278,19.124496
54755,NaN,-0.964855,-9.550679,-1.624038,-0.069317,-0.093367,-0.077679,0.033053,-0.038759,-0.088000,0.632468,-0.755263,-0.098208,0.141124,-99.251731,5.102886,19.157147
54756,NaN,-0.852145,-9.514993,-1.634660,0.033388,-0.078996,-0.121145,0.035648,-0.030804,-0.094111,0.632652,-0.755078,-0.098632,0.140998,-99.228195,5.056023,19.185849
54757,NaN,-0.781937,-9.549520,-1.558337,0.068467,0.014402,-0.105563,0.041225,-0.026538,-0.096967,0.632859,-0.754878,-0.099047,0.140851,-99.201768,5.007411,19.212347
54758,NaN,-0.721376,-9.584712,-1.514896,0.105344,0.073998,-0.083073,0.039796,-0.026132,-0.097401,0.633062,-0.754681,-0.099465,0.140698,-99.176114,4.958235,19.238653
54759,NaN,-0.793560,-9.688889,-1.537910,0.041805,0.040679,0.029369,0.042374,-0.021268,-0.094394,0.633274,-0.754481,-0.099853,0.140540,-99.149356,4.910573,19.261875
54760,NaN,-0.795019,-9.619813,-1.550036,0.036287,0.009290,-0.036489,0.048266,-0.022623,-0.099329,0.633512,-0.754259,-0.100262,0.140373,-99.119053,4.859960,19.286315
54761,NaN,-0.795636,-9.622203,-1.578457,0.038784,-0.024384,-0.029577,0.044205,-0.021860,-0.102205,0.633736,-0.754048,-0.100679,0.140192,-99.091202,4.807910,19.310533
54762,NaN,-0.760625,-9.604750,-1.546298,0.053535,0.006612,-0.054722,0.041982,-0.022508,-0.100924,0.633951,-0.753844,-0.101098,0.140016,-99.064542,4.756360,19.334997
54763,NaN,-0.824393,-9.607856,-1.538049,-0.015909,-0.013327,-0.047664,0.041379,-0.018750,-0.100184,0.634163,-0.753646,-0.101500,0.139829,-99.038519,4.705151,19.357213
54764,NaN,-0.905103,-9.600004,-1.542855,-0.097477,-0.053144,-0.048090,0.043199,-0.019354,-0.108010,0.634389,-0.753436,-0.101934,0.139619,-99.011305,4.649286,19.380475
54765,NaN,-0.766755,-9.629092,-1.594462,0.043162,-0.057798,-0.022671,0.043609,-0.017265,-0.113401,0.634620,-0.753225,-0.102380,0.139386,-98.984024,4.590443,19.402985
54766,NaN,-0.682149,-9.700139,-1.610398,0.121868,-0.039975,0.043019,0.044278,-0.018682,-0.111208,0.634852,-0.753010,-0.102823,0.139164,-98.956253,4.532689,19.426096
54767,NaN,-0.664493,-9.713760,-1.625365,0.136468,-0.053794,0.057417,0.055133,-0.012774,-0.106303,0.635123,-0.752768,-0.103220,0.138942,-98.922669,4.477441,19.445358
54768,NaN,-0.696678,-9.681249,-1.625988,0.098965,-0.079473,0.028027,0.062751,-0.000467,-0.100245,0.635426,-0.752512,-0.103551,0.138695,-98.885246,4.424249,19.457083
54769,NaN,-0.749839,-9.684142,-1.582140,0.027672,-0.065648,0.028193,0.075132,0.002948,-0.104532,0.635779,-0.752218,-0.103878,0.138430,-98.840941,4.368590,19.467185
54770,NaN,-0.799740,-9.683559,-1.628223,-0.010000,-0.136186,0.038371,0.089871,0.004143,-0.107720,0.636190,-0.751875,-0.104203,0.138156,-98.788161,4.310743,19.476868
54771,NaN,-0.779310,-9.684689,-1.586584,-0.011211,-0.102304,0.031456,0.088291,-0.000246,-0.107137,0.636592,-0.751535,-0.104540,0.137901,-98.736193,4.253869,19.488912
54772,NaN,-0.822420,-9.625301,-1.635261,-0.042956,-0.184470,-0.016720,0.105519,0.004304,-0.122214,0.637072,-0.751134,-0.104909,0.137589,-98.674393,4.187783,19.499654
54773,NaN,-0.893739,-9.674310,-1.687954,-0.098578,-0.263212,0.044351,0.113558,0.006583,-0.130716,0.637588,-0.750705,-0.105296,0.137246,-98.608117,4.116941,19.509732
54774,NaN,-0.952718,-9.637619,-1.638155,-0.179969,-0.258210,0.004432,0.123570,0.013037,-0.148047,0.638157,-0.750237,-0.105721,0.136828,-98.536216,4.035456,19.517572
54775,NaN,-0.993599,-9.697240,-1.642426,-0.225363,-0.283335,0.066085,0.139619,0.009899,-0.161693,0.638793,-0.749710,-0.106195,0.136388,-98.454997,3.946753,19.528213
54776,NaN,-0.928390,-9.675554,-1.626398,-0.180707,-0.269105,0.037100,0.144252,0.019923,-0.186232,0.639468,-0.749159,-0.106727,0.135833,-98.371341,3.843039,19.535114
54777,NaN,-1.028012,-9.780158,-1.625598,-0.286093,-0.305539,0.146008,0.159435,0.034051,-0.207226,0.640220,-0.748558,-0.107281,0.135167,-98.279480,3.726488,19.535551
54778,NaN,-1.101687,-9.794374,-1.579651,-0.385469,-0.308778,0.157005,0.188438,0.038999,-0.234365,0.641100,-0.747851,-0.107902,0.134409,-98.171012,3.593908,19.535243
54779,NaN,-1.011472,-9.827278,-1.579964,-0.316739,-0.299665,0.182539,0.187863,0.044317,-0.257458,0.641995,-0.747136,-0.108591,0.133559,-98.063000,3.448034,19.533492
54780,NaN,-0.994057,-9.877658,-1.627925,-0.302262,-0.358350,0.236518,0.206920,0.053654,-0.279646,0.642980,-0.746351,-0.109322,0.132611,-97.944262,3.288611,19.528000
54781,NaN,-0.953942,-9.808139,-1.650496,-0.277846,-0.406497,0.166850,0.228705,0.085217,-0.304323,0.644077,-0.745501,-0.110026,0.131479,-97.813965,3.112935,19.506081
54782,NaN,-0.888664,-9.923492,-1.578721,-0.262824,-0.332370,0.265909,0.217720,0.110474,-0.321034,0.645156,-0.744692,-0.110721,0.130191,-97.690587,2.925660,19.470811
54783,NaN,-0.890844,-9.997496,-1.560524,-0.296086,-0.337647,0.335068,0.226996,0.141463,-0.343763,0.646298,-0.743856,-0.111391,0.128720,-97.562591,2.723407,19.419147
54784,NaN,-1.106329,-9.982051,-1.504061,-0.545657,-0.389899,0.320308,0.190293,0.146557,-0.351028,0.647308,-0.743135,-0.112097,0.127184,-97.455550,2.516564,19.364771
54785,NaN,-1.156498,-10.158184,-1.537015,-0.612925,-0.445417,0.498197,0.226168,0.148151,-0.400425,0.648481,-0.742268,-0.112956,0.125504,-97.327663,2.281836,19.312672
54786,NaN,-1.083218,-10.116100,-1.382659,-0.629939,-0.319031,0.430444,0.237879,0.154758,-0.453948,0.649731,-0.741332,-0.113986,0.123630,-97.192838,2.016167,19.260188
54787,NaN,-1.041556,-10.258158,-1.401442,-0.625133,-0.343365,0.568531,0.242201,0.174819,-0.495549,0.651028,-0.740365,-0.115100,0.121549,-97.055595,1.725708,19.198604
54788,NaN,-1.175855,-10.304590,-1.465394,-0.774851,-0.481994,0.621945,0.240937,0.185057,-0.521241,0.652337,-0.739387,-0.116276,0.119344,-96.918871,1.419938,19.132322
54789,NaN,-1.308575,-10.428558,-1.574188,-0.914513,-0.656677,0.755060,0.285735,0.199316,-0.587282,0.653853,-0.738226,-0.117621,0.116896,-96.756214,1.075934,19.061623
54790,NaN,-1.561392,-10.751192,-1.084987,-1.374233,-0.294065,1.014489,0.323332,0.199287,-0.660247,0.655541,-0.736889,-0.119213,0.114230,-96.571500,0.690527,18.994774
54791,NaN,-1.795950,-11.557330,-0.496962,-1.870637,0.215207,1.741446,0.296095,0.134209,-0.719562,0.657115,-0.735558,-0.121250,0.111592,-96.401596,0.275871,18.967612
54792,NaN,-1.669266,-11.658933,-0.139548,-1.940819,0.539358,1.792401,0.344359,0.045551,-0.801020,0.658846,-0.733957,-0.123849,0.109039,-96.203763,-0.179550,18.994733
54793,NaN,-1.838282,-11.190961,-0.689337,-1.981029,-0.148735,1.374115,0.332347,-0.045019,-0.865095,0.660499,-0.732293,-0.126985,0.106599,-96.013457,-0.666000,19.075820
54794,NaN,-1.114030,-11.281085,-1.031452,-1.270481,-0.295530,1.495068,0.340061,-0.055658,-0.923012,0.662190,-0.730543,-0.130361,0.104009,-95.819515,-1.185074,19.164743
54795,NaN,-1.102149,-11.122286,-1.146670,-1.298659,-0.488403,1.336691,0.379690,-0.036672,-0.975022,0.664048,-0.728619,-0.133840,0.101200,-95.603504,-1.735221,19.243988
54796,NaN,-1.110604,-11.032585,-1.227733,-1.362613,-0.652904,1.240569,0.396269,-0.026368,-1.012987,0.665973,-0.726600,-0.137411,0.098236,-95.378505,-2.307815,19.317306
54797,NaN,-0.964606,-11.079490,-1.115130,-1.355620,-0.576470,1.266922,0.418664,-0.018897,-1.050172,0.667983,-0.724462,-0.141078,0.095133,-95.141270,-2.902379,19.386064
54798,NaN,-1.058831,-11.130405,-1.149372,-1.531231,-0.721106,1.298659,0.426629,-0.040683,-1.086368,0.670002,-0.722238,-0.144939,0.091992,-94.900804,-3.516667,19.466604
54799,NaN,-0.884364,-11.110497,-1.444393,-1.365377,-1.030041,1.295182,0.455774,-0.057194,-1.120849,0.672106,-0.719858,-0.148962,0.088811,-94.645134,-4.150322,19.555670
54800,NaN,-0.703336,-10.992633,-1.609320,-1.227397,-1.221468,1.183791,0.465211,-0.063730,-1.141488,0.674224,-0.717402,-0.153071,0.085590,-94.385156,-4.795680,19.646577
54801,NaN,-0.284947,-10.989268,-1.766433,-0.880866,-1.320328,1.207511,0.470379,-0.037790,-1.149103,0.676357,-0.714906,-0.157112,0.082250,-94.121727,-5.447084,19.720103
54802,NaN,-0.099068,-11.035202,-1.978058,-0.740543,-1.547164,1.266777,0.479568,0.025363,-1.135820,0.678542,-0.712389,-0.160882,0.078734,-93.849850,-6.093510,19.753792
54803,NaN,-0.100840,-10.898749,-2.152748,-0.764850,-1.807542,1.122280,0.481530,0.043479,-1.122729,0.680718,-0.709856,-0.164538,0.075196,-93.575676,-6.733511,19.773553
54804,NaN,0.056694,-10.821729,-2.652986,-0.537477,-2.316406,1.072867,0.457872,0.031800,-1.118774,0.682774,-0.707377,-0.168221,0.071691,-93.315755,-7.370653,19.796899
54805,NaN,0.147727,-10.641159,-2.776894,-0.479647,-2.491897,0.889005,0.471935,-0.014330,-1.120634,0.684816,-0.704805,-0.172058,0.068351,-93.051181,-8.007771,19.844052
54806,NaN,0.748574,-10.007465,-2.877229,0.119716,-2.465966,0.330871,0.394167,-0.019829,-1.064806,0.686537,-0.702523,-0.175736,0.065155,-92.831619,-8.612649,19.890080
54807,NaN,1.451843,-9.731683,-3.033785,0.786026,-2.445325,0.158218,0.355058,0.053560,-1.019319,0.688150,-0.700416,-0.179012,0.061818,-92.627712,-9.193986,19.890144
54808,NaN,1.793026,-9.324880,-3.057127,1.097852,-2.411449,-0.195351,0.294018,0.139030,-0.966943,0.689589,-0.698576,-0.181823,0.058309,-92.450274,-9.747172,19.837352
54809,NaN,1.994891,-8.543295,-3.207552,1.396141,-2.526967,-0.928968,0.225390,0.206016,-0.897950,0.690814,-0.697035,-0.184180,0.054737,-92.304126,-10.262642,19.742233
54810,NaN,2.243392,-8.535137,-2.791297,1.419823,-2.097822,-0.910138,0.117073,0.322631,-0.823056,0.691732,-0.695958,-0.185897,0.050918,-92.206617,-10.737342,19.576345
54811,NaN,2.410120,-8.616498,-2.264687,1.317817,-1.590190,-0.817375,0.075300,0.473779,-0.752344,0.692615,-0.695113,-0.186853,0.046777,-92.114192,-11.174872,19.319591
54812,NaN,1.107235,-7.941452,-1.362256,-0.107685,-1.178552,-1.766107,0.124212,0.629741,-0.647646,0.693774,-0.694222,-0.186890,0.042503,-91.973701,-11.554833,18.968465
54813,NaN,-3.675638,-6.307859,0.321736,-4.787426,-1.071080,-4.396405,0.087618,0.408526,-0.536768,0.694567,-0.693500,-0.187314,0.039344,-91.877280,-11.866623,18.743123
54814,NaN,-5.891949,-4.933080,-0.234447,-6.403319,-2.260529,-6.208151,-0.232363,-0.530101,-0.507959,0.693353,-0.693726,-0.190958,0.039242,-92.077637,-12.143172,19.066896
54815,NaN,-5.007047,-4.480773,-2.435153,-4.775117,-4.076785,-6.398645,-0.630323,-1.450740,-0.298919,0.689815,-0.695321,-0.197139,0.042675,-92.620180,-12.276763,19.926806
54816,NaN,-4.666609,-5.457546,-2.972601,-4.447969,-4.526274,-5.326442,-0.797719,-1.795262,0.009750,0.685230,-0.697670,-0.203453,0.048205,-93.300704,-12.213935,20.980758
54817,NaN,-3.724045,-5.592689,-2.986242,-3.551608,-4.220839,-4.951165,-0.809859,-1.822629,0.254164,0.680451,-0.700230,-0.208994,0.054647,-93.986425,-11.998700,22.040085
54818,NaN,-2.400414,-5.535267,-3.120142,-2.227351,-3.839331,-4.671264,-0.812131,-1.605390,0.555867,0.675740,-0.703110,-0.212716,0.061352,-94.639007,-11.607542,22.955664
54819,NaN,-1.811172,-5.830731,-3.141424,-1.688782,-3.589328,-4.208205,-0.763519,-1.204531,0.870788,0.671479,-0.706223,-0.213949,0.067754,-95.205718,-11.047637,23.616082
54820,NaN,-1.964945,-6.202004,-2.718805,-2.002313,-3.199998,-3.857221,-0.666949,-0.782912,1.178831,0.667857,-0.709443,-0.212627,0.073806,-95.660656,-10.328204,24.008404
54821,NaN,-2.114703,-6.612660,-2.060791,-2.405473,-2.582977,-3.489171,-0.606727,-0.427226,1.459907,0.664685,-0.712840,-0.209089,0.079589,-96.035900,-9.467509,24.171820
54822,NaN,-2.133980,-7.123901,-1.405896,-2.696002,-1.899249,-3.000691,-0.544954,-0.137589,1.685523,0.661892,-0.716337,-0.203739,0.085154,-96.344617,-8.494187,24.148638
54823,NaN,-2.365777,-7.386502,-0.623362,-3.163663,-1.179714,-2.802443,-0.496187,0.023191,1.860437,0.659310,-0.719851,-0.197198,0.090758,-96.610141,-7.432868,24.016581
54824,NaN,-2.557370,-7.896155,0.022434,-3.562354,-0.542122,-2.335842,-0.507787,0.044731,1.997767,0.656575,-0.723482,-0.190071,0.096724,-96.882286,-6.294310,23.858330
54825,NaN,-2.812892,-8.523274,0.505836,-3.946847,-0.052983,-1.736118,-0.521043,-0.070808,2.094004,0.653567,-0.727107,-0.182965,0.103393,-97.169994,-5.094886,23.753957
54826,NaN,-2.765665,-8.975236,0.850799,-3.951647,0.432775,-1.261584,-0.542735,-0.309740,2.162528,0.650141,-0.730657,-0.176374,0.111129,-97.482660,-3.838331,23.774728
54827,NaN,-2.688377,-9.436667,0.919225,-3.800708,0.688798,-0.746299,-0.572691,-0.616477,2.218180,0.646222,-0.734080,-0.170576,0.120118,-97.820522,-2.527969,23.958448
54828,NaN,-2.638830,-9.783792,0.885080,-3.604120,0.837449,-0.337756,-0.600060,-0.948825,2.246815,0.641800,-0.737310,-0.165730,0.130387,-98.176024,-1.172364,24.320427
54829,NaN,-2.358176,-9.983828,0.615852,-3.076293,0.858127,-0.044734,-0.615029,-1.268909,2.252775,0.636950,-0.740256,-0.161878,0.141811,-98.532416,0.214081,24.854760
54830,NaN,-1.845158,-10.249057,0.243560,-2.285904,0.907037,0.309290,-0.645071,-1.522556,2.262840,0.631653,-0.742991,-0.158780,0.154165,-98.891142,1.633060,25.523212
54831,NaN,-1.361040,-10.776611,-0.305509,-1.438669,0.854019,0.924002,-0.658190,-1.690898,2.274952,0.626039,-0.745492,-0.156154,0.167131,-99.236797,3.076666,26.277702
54832,NaN,-0.981139,-11.096306,-0.990553,-0.590173,0.636223,1.336858,-0.619939,-1.774916,2.280436,0.620359,-0.747648,-0.153696,0.180430,-99.539054,4.537021,27.072013
54833,NaN,-0.673888,-11.120508,-1.357308,0.072795,0.633934,1.392141,-0.553144,-1.771312,2.298795,0.614782,-0.749448,-0.151073,0.193776,-99.783349,6.009609,27.857227
54834,NaN,-0.215766,-11.380184,-1.527688,0.785077,0.932370,1.606427,-0.521517,-1.691322,2.296681,0.609249,-0.751067,-0.148140,0.206806,-99.995437,7.477784,28.593286
54835,NaN,0.421229,-11.974409,-1.741964,1.690551,1.369809,2.097650,-0.463470,-1.487060,2.299924,0.603963,-0.752568,-0.144491,0.219071,-100.172498,8.928213,29.210145
54836,NaN,0.986544,-12.144881,-1.778061,2.434129,1.841932,2.116587,-0.340928,-1.169861,2.278736,0.599278,-0.753897,-0.139796,0.230137,-100.294514,10.337481,29.646253
54837,NaN,1.251254,-12.114976,-1.585280,2.784389,2.300485,1.926112,-0.231507,-0.810578,2.246195,0.595203,-0.755169,-0.134007,0.239782,-100.382237,11.690753,29.878873
54838,NaN,1.566473,-12.192064,-1.583271,3.277253,2.631612,1.846421,-0.145584,-0.453178,2.194780,0.591670,-0.756478,-0.127219,0.247958,-100.458661,12.979706,29.909810
54839,NaN,1.996495,-12.243756,-1.640060,3.889567,2.940652,1.711351,-0.046299,-0.086770,2.104005,0.588790,-0.757798,-0.119561,0.254505,-100.525343,14.177960,29.736744
54840,NaN,2.430846,-12.233028,-1.922003,4.607680,3.019307,1.540647,0.014055,0.267462,1.992310,0.586427,-0.759245,-0.111186,0.259397,-100.610919,15.277058,29.366894
54841,NaN,2.865009,-12.294426,-2.354805,5.399898,2.961047,1.455654,0.062431,0.556480,1.840861,0.584552,-0.760766,-0.102473,0.262743,-100.717580,16.258438,28.840989
54842,NaN,3.049453,-12.464387,-2.656690,5.911017,2.898826,1.517436,0.060701,0.731903,1.625454,0.582989,-0.762347,-0.094054,0.264774,-100.857383,17.099663,28.231392
54843,NaN,3.288860,-12.519916,-2.734611,6.309295,2.992185,1.424776,0.051790,0.816270,1.343833,0.581766,-0.763878,-0.086473,0.265633,-101.016576,17.770779,27.599460
54844,NaN,3.402252,-12.214393,-2.372698,6.283846,3.267904,0.968286,0.045719,0.838564,1.015333,0.580932,-0.765275,-0.080081,0.265440,-101.179004,18.253777,26.988352
54845,NaN,3.382251,-12.072376,-1.984497,6.127336,3.544041,0.723689,0.002476,0.837723,0.638513,0.580415,-0.766618,-0.075192,0.264124,-101.356569,18.522665,26.419446
54846,NaN,3.369195,-11.658608,-1.742545,5.961602,3.601427,0.276912,-0.001039,0.836068,0.250243,0.580381,-0.767806,-0.071797,0.261683,-101.523134,18.572551,25.896632
54847,NaN,3.412357,-11.020073,-1.616244,5.822652,3.499636,-0.349729,-0.020070,0.840579,-0.099672,0.580724,-0.768914,-0.069758,0.258195,-101.687364,18.423619,25.413731
54848,NaN,3.292309,-10.395805,-1.632308,5.590158,3.203380,-0.864801,0.003290,0.877718,-0.352750,0.581484,-0.769899,-0.068551,0.253834,-101.833367,18.127379,24.941043
54849,NaN,2.766531,-9.582560,-1.400648,4.841056,2.893241,-1.467996,0.035300,0.888540,-0.528826,0.582582,-0.770726,-0.067950,0.248923,-101.952889,17.729875,24.485510
54850,NaN,1.271056,-9.761674,-0.668448,3.192409,2.953228,-0.956095,-0.013668,0.786882,-0.662292,0.583607,-0.771503,-0.068218,0.243991,-102.073773,17.268801,24.108372
54851,NaN,2.599388,-9.873330,1.131782,3.494302,5.034691,-1.568803,-0.008249,0.499103,-0.808028,0.584719,-0.771845,-0.069880,0.239741,-102.133171,16.760081,23.919884
54852,NaN,-1.348167,-10.113924,-0.717195,0.851643,1.937917,0.194411,-0.019050,0.252646,-0.767524,0.585644,-0.771923,-0.072119,0.236550,-102.157509,16.303469,23.871195
54853,NaN,-4.266805,-8.264852,-1.501839,-1.723253,-0.473914,-0.562044,-0.008485,-0.269730,-0.694301,0.586325,-0.771366,-0.075590,0.235592,-102.093374,15.950917,24.117852
54854,NaN,-3.757587,-9.093536,-2.114736,-0.910060,-0.587201,0.192850,-0.265421,-0.616816,-0.614157,0.585780,-0.771171,-0.080072,0.236105,-102.125520,15.684760,24.556128
54855,NaN,-4.197893,-10.848321,-2.028082,-1.110592,-0.185768,1.941176,-0.305927,-0.840470,-0.647178,0.585013,-0.770797,-0.085381,0.237362,-102.146923,15.427397,25.128122
54856,NaN,-3.322599,-12.146687,-1.632263,-0.399884,0.874207,2.849118,-0.327103,-0.994329,-0.739366,0.584188,-0.770236,-0.091519,0.238924,-102.156701,15.136989,25.800316
54857,NaN,-1.314111,-13.285316,-0.980868,1.108078,2.589021,3.273824,-0.249511,-0.821412,-0.849124,0.583849,-0.769575,-0.097477,0.239527,-102.148362,14.764369,26.384903
54858,NaN,-0.857294,-12.739987,-0.715719,1.202709,2.810205,2.605428,-0.076690,-0.529897,-0.938759,0.584405,-0.768689,-0.102719,0.238822,-102.084951,14.305972,26.810579
54859,NaN,-1.693436,-10.173698,-1.505756,0.462109,0.965523,0.555178,-0.001209,-0.309784,-0.967081,0.585382,-0.767811,-0.107334,0.237221,-102.012171,13.805044,27.111121
54860,NaN,-1.800473,-8.302737,-1.538981,0.101486,0.302466,-1.184631,-0.084258,-0.167729,-0.916413,0.586044,-0.767352,-0.111435,0.235172,-102.010302,13.315174,27.322594
54861,NaN,-1.148146,-8.717911,-1.462405,0.601650,0.751860,-0.950911,-0.219033,-0.085984,-0.858882,0.586153,-0.767401,-0.115231,0.232899,-102.099706,12.848126,27.479930
54862,NaN,-0.665573,-9.439930,-1.282159,0.925870,1.309348,-0.398493,-0.212731,-0.051977,-0.810134,0.586240,-0.767485,-0.118732,0.230636,-102.192106,12.404298,27.612208
54863,NaN,-0.842067,-9.280772,-1.416926,0.753941,1.053523,-0.476161,-0.216830,-0.099192,-0.750676,0.586203,-0.767549,-0.122145,0.228724,-102.283639,11.999934,27.764649
54864,NaN,-1.439757,-9.063097,-1.499666,0.196075,0.636211,-0.538093,-0.245428,-0.199980,-0.670378,0.585897,-0.767620,-0.125577,0.227412,-102.382569,11.652823,27.965171
54865,NaN,-1.641874,-8.949934,-1.751351,0.082613,0.291222,-0.551347,-0.297281,-0.323888,-0.588990,0.585211,-0.767742,-0.129116,0.226779,-102.500247,11.367190,28.226622
54866,NaN,-1.296568,-9.100585,-2.072167,0.502230,0.223285,-0.405598,-0.336051,-0.380203,-0.528480,0.584266,-0.767943,-0.132631,0.226510,-102.636362,11.122698,28.512897
54867,NaN,-0.904786,-9.587644,-2.088060,0.829575,0.537221,-0.008376,-0.367731,-0.319983,-0.479773,0.583175,-0.768327,-0.135816,0.226130,-102.799563,10.898854,28.759037
54868,NaN,-0.658516,-9.862903,-2.094405,1.009707,0.735510,0.214092,-0.342371,-0.178709,-0.454690,0.582244,-0.768806,-0.138464,0.225294,-102.964621,10.671353,28.922063
54869,NaN,-1.078994,-9.661377,-1.873034,0.475212,0.669995,0.053404,-0.306987,-0.034426,-0.437085,0.581523,-0.769351,-0.140582,0.223979,-103.125503,10.435790,29.001378
54870,NaN,-1.433040,-9.423169,-1.933004,0.140807,0.389353,-0.095970,-0.318596,0.043218,-0.419128,0.580790,-0.770023,-0.142418,0.222405,-103.301428,10.199955,29.034933
54871,NaN,-1.651064,-9.407896,-2.278140,0.078295,0.000721,0.006584,-0.313706,0.091120,-0.404348,0.580088,-0.770741,-0.144051,0.220694,-103.479784,9.966454,29.040084
54872,NaN,-1.878351,-9.251306,-2.527583,-0.045357,-0.353207,-0.046597,-0.301886,0.119006,-0.394485,0.579438,-0.771456,-0.145553,0.218909,-103.654062,9.734361,29.028857
54873,NaN,-1.862840,-9.039917,-2.874205,0.090545,-0.688207,-0.170628,-0.279651,0.103210,-0.377853,0.578839,-0.772098,-0.147009,0.217251,-103.814463,9.513997,29.024941
54874,NaN,-1.401895,-8.966815,-3.087859,0.550510,-0.661722,-0.264763,-0.246490,0.107379,-0.366929,0.578358,-0.772652,-0.148376,0.215628,-103.956273,9.298781,29.017752
54875,NaN,-1.332497,-9.128247,-3.219638,0.638517,-0.690155,-0.087341,-0.197470,0.129393,-0.355543,0.578067,-0.773093,-0.149579,0.213992,-104.072240,9.087170,28.997051
54876,NaN,-1.314546,-9.177879,-3.135353,0.573310,-0.600181,-0.060615,-0.132418,0.154517,-0.334176,0.578021,-0.773385,-0.150560,0.212365,-104.153401,8.883536,28.959591
54877,NaN,-1.227418,-9.202550,-2.886700,0.487497,-0.350305,-0.108768,-0.118948,0.181058,-0.318847,0.578028,-0.773676,-0.151388,0.210692,-104.229359,8.684989,28.905321
54878,NaN,-1.271028,-9.490889,-2.674508,0.309753,-0.118762,0.123877,-0.103627,0.205036,-0.322527,0.578115,-0.773942,-0.152145,0.208924,-104.298183,8.480589,28.838415
54879,NaN,-1.316269,-9.649311,-2.466679,0.131144,0.069466,0.232418,-0.078563,0.219485,-0.324589,0.578309,-0.774146,-0.152841,0.207114,-104.353565,8.273281,28.763935
54880,NaN,-1.466278,-9.715946,-2.235173,-0.150105,0.199544,0.261195,-0.061044,0.209222,-0.331362,0.578569,-0.774280,-0.153575,0.205335,-104.397601,8.063247,28.696426
54881,NaN,-1.745862,-9.526289,-2.031495,-0.528952,0.171690,0.067383,-0.059801,0.164938,-0.337557,0.578803,-0.774359,-0.154458,0.203712,-104.437148,7.856408,28.654789
54882,NaN,-1.876162,-9.475985,-1.877156,-0.752937,0.214059,-0.003246,-0.080797,0.128034,-0.343554,0.578932,-0.774452,-0.155494,0.202195,-104.485584,7.651135,28.634882
54883,NaN,-1.781455,-9.515203,-2.266885,-0.513113,-0.064216,0.116256,-0.090415,0.071301,-0.347550,0.578981,-0.774511,-0.156716,0.200881,-104.535252,7.452128,28.647464
54884,NaN,-1.431760,-9.444346,-2.577674,-0.088657,-0.186884,0.079083,-0.073892,0.056246,-0.347027,0.579081,-0.774505,-0.157965,0.199637,-104.574332,7.255255,28.668552
54885,NaN,-1.427837,-9.406256,-2.526932,-0.142408,-0.165108,0.028761,-0.048625,0.057673,-0.358037,0.579288,-0.774416,-0.159225,0.198376,-104.598973,7.052416,28.690531
54886,NaN,-1.413657,-9.445540,-2.601794,-0.127291,-0.223525,0.082751,-0.044664,0.078826,-0.370892,0.579539,-0.774323,-0.160470,0.196997,-104.622544,6.839077,28.702656
54887,NaN,-1.232530,-9.443469,-2.636586,0.013235,-0.182515,0.067404,-0.012970,0.116285,-0.380765,0.579949,-0.774165,-0.161612,0.195471,-104.630348,6.615173,28.695349
54888,NaN,-1.348785,-9.404694,-2.578837,-0.150436,-0.218212,0.028425,-0.006299,0.144501,-0.386183,0.580412,-0.774007,-0.162688,0.193823,-104.635924,6.383861,28.673130
54889,NaN,-1.297277,-9.402928,-2.527404,-0.165988,-0.170421,0.007141,0.014007,0.151037,-0.397061,0.580966,-0.773786,-0.163764,0.192135,-104.630067,6.145893,28.648847
54890,NaN,-1.204828,-9.573117,-2.527862,-0.126140,-0.100833,0.160278,0.005678,0.143432,-0.399997,0.581483,-0.773574,-0.164883,0.190459,-104.628327,5.907089,28.629238
54891,NaN,-1.062668,-9.514648,-2.589964,-0.005906,-0.122390,0.104496,0.034109,0.144089,-0.411761,0.582117,-0.773268,-0.166016,0.188771,-104.610147,5.661981,28.610928
54892,NaN,-0.896207,-9.408186,-2.638518,0.131838,-0.135775,-0.002337,0.049729,0.148237,-0.408100,0.582811,-0.772920,-0.167109,0.187087,-104.583162,5.418006,28.589698
54893,NaN,-0.706606,-9.481864,-2.710596,0.295103,-0.110637,0.069260,0.054443,0.161258,-0.401174,0.583523,-0.772572,-0.168130,0.185378,-104.554219,5.176311,28.560091
54894,NaN,-0.601939,-9.531294,-2.699693,0.345995,-0.064468,0.105589,0.088233,0.176257,-0.388310,0.584365,-0.772147,-0.169028,0.183675,-104.506652,4.939306,28.520140
54895,NaN,-0.546261,-9.421265,-2.575266,0.309343,0.010260,-0.035434,0.116459,0.173482,-0.374809,0.585297,-0.771645,-0.169853,0.182046,-104.442857,4.710535,28.479562
54896,NaN,-0.544397,-9.493544,-2.570830,0.276568,0.005080,0.033950,0.119147,0.171462,-0.363933,0.586227,-0.771139,-0.170640,0.180457,-104.377369,4.487817,28.438324
54897,NaN,-0.473547,-9.442734,-2.495681,0.278517,0.061082,-0.038412,0.130100,0.191787,-0.332767,0.587185,-0.770643,-0.171236,0.178891,-104.306722,4.279880,28.381065
54898,NaN,-0.297937,-9.542913,-2.574483,0.440047,0.075225,0.065800,0.136365,0.227614,-0.305110,0.588171,-0.770180,-0.171615,0.177272,-104.233996,4.081987,28.299715
54899,NaN,-0.437272,-9.454224,-2.342057,0.189395,0.156161,-0.065974,0.146317,0.237787,-0.287027,0.589185,-0.769711,-0.171884,0.175675,-104.155927,3.893141,28.209895
54900,NaN,-0.651508,-9.384635,-2.364486,-0.006230,-0.006893,-0.112871,0.125204,0.226052,-0.278484,0.590100,-0.769297,-0.172174,0.174129,-104.089281,3.710461,28.125213
54901,NaN,-0.514960,-9.395185,-2.327747,0.074253,0.067442,-0.120270,0.108613,0.205935,-0.272653,0.590925,-0.768918,-0.172512,0.172664,-104.031275,3.534248,28.050720
54902,NaN,-0.468618,-9.442370,-2.214264,0.036840,0.174498,-0.104493,0.097538,0.196407,-0.280851,0.591705,-0.768553,-0.172922,0.171199,-103.978961,3.354535,27.982536
54903,NaN,-0.573841,-9.388972,-2.236629,-0.064749,0.071747,-0.144431,0.087984,0.184145,-0.283425,0.592438,-0.768202,-0.173383,0.169768,-103.931551,3.175481,27.921374
54904,NaN,-0.549941,-9.449176,-2.343259,-0.021256,-0.014251,-0.061817,0.073577,0.171503,-0.286797,0.593106,-0.767878,-0.173909,0.168359,-103.891758,2.996003,27.867610
54905,NaN,-0.463926,-9.374276,-2.358434,0.042726,-0.025262,-0.135295,0.076397,0.155192,-0.301221,0.593781,-0.767517,-0.174533,0.166975,-103.849674,2.811117,27.824778
54906,NaN,-0.484359,-9.375264,-2.365929,0.003411,-0.062129,-0.131580,0.077869,0.148261,-0.310993,0.594462,-0.767134,-0.175216,0.165587,-103.806317,2.621440,27.787032
54907,NaN,-0.411659,-9.420914,-2.303476,0.010181,0.014524,-0.105542,0.068614,0.146962,-0.315491,0.595108,-0.766773,-0.175925,0.164184,-103.768133,2.429800,27.750478
54908,NaN,-0.319755,-9.456027,-2.268238,0.046892,0.074529,-0.083569,0.069332,0.136871,-0.316677,0.595748,-0.766396,-0.176669,0.162814,-103.729137,2.238565,27.719600
54909,NaN,-0.276104,-9.410789,-2.171243,0.018752,0.147120,-0.151870,0.058896,0.135356,-0.314849,0.596343,-0.766050,-0.177417,0.161448,-103.696048,2.048906,27.689184
54910,NaN,-0.152443,-9.414807,-2.169323,0.101272,0.187704,-0.152345,0.049742,0.133787,-0.311166,0.596897,-0.765731,-0.178164,0.160089,-103.668043,1.861191,27.659060
54911,NaN,-0.115867,-9.485639,-2.188116,0.110615,0.185879,-0.079664,0.041472,0.135152,-0.307852,0.597415,-0.765438,-0.178899,0.158728,-103.644769,1.675484,27.627631
54912,NaN,-0.086351,-9.424756,-2.295090,0.165068,0.076421,-0.113835,0.038316,0.136381,-0.297078,0.597914,-0.765163,-0.179593,0.157389,-103.623208,1.495284,27.594007
54913,NaN,-0.074923,-9.415336,-2.301809,0.153667,0.056718,-0.121166,0.031889,0.150200,-0.293996,0.598395,-0.764919,-0.180236,0.156003,-103.605481,1.315287,27.552196
54914,NaN,-0.164890,-9.432385,-2.434294,0.107064,-0.112323,-0.071091,0.041209,0.147578,-0.294929,0.598910,-0.764642,-0.180885,0.154629,-103.582194,1.134794,27.511925
54915,NaN,-0.154685,-9.462614,-2.478842,0.108191,-0.156826,-0.031416,0.037333,0.163453,-0.285224,0.599414,-0.764396,-0.181450,0.153223,-103.561244,0.957932,27.461423
54916,NaN,-0.129491,-9.454535,-2.453149,0.094619,-0.142820,-0.045727,0.053634,0.182193,-0.283650,0.599995,-0.764115,-0.181942,0.151761,-103.530910,0.779110,27.400211
54917,NaN,-0.148134,-9.397966,-2.350477,0.012363,-0.093519,-0.124577,0.049720,0.182685,-0.287567,0.600563,-0.763840,-0.182447,0.150284,-103.502675,0.598416,27.339143
54918,NaN,-0.141156,-9.361106,-2.259910,-0.043746,-0.038118,-0.181801,0.043929,0.159838,-0.297578,0.601094,-0.763554,-0.183066,0.148857,-103.477394,0.414883,27.292080
54919,NaN,-0.041866,-9.344173,-2.134989,-0.035859,0.094278,-0.228156,0.028485,0.138376,-0.314555,0.601557,-0.763281,-0.183822,0.147448,-103.460775,0.225115,27.259156
54920,NaN,-0.199007,-9.355110,-2.183898,-0.182796,-0.033909,-0.205792,0.004124,0.092555,-0.335568,0.601899,-0.763026,-0.184816,0.146125,-103.457893,0.029414,27.254553
54921,NaN,-0.250965,-9.463357,-2.355411,-0.194316,-0.198823,-0.061345,-0.011380,0.086893,-0.355287,0.602188,-0.762793,-0.185911,0.144753,-103.463933,-0.176179,27.255723
54922,NaN,-0.116634,-9.550686,-2.455040,-0.072530,-0.221572,0.046417,-0.001969,0.098048,-0.371458,0.602534,-0.762521,-0.187029,0.143295,-103.464518,-0.392602,27.252862
54923,NaN,-0.129230,-9.533189,-2.395074,-0.142272,-0.197086,0.014598,0.011664,0.121986,-0.392202,0.602967,-0.762204,-0.188141,0.141698,-103.457234,-0.623446,27.239400
54924,NaN,0.029822,-9.493150,-2.293318,-0.076611,-0.064180,-0.046933,0.017941,0.132073,-0.410339,0.603444,-0.761855,-0.189289,0.140011,-103.446214,-0.866061,27.222714
54925,NaN,0.028344,-9.487093,-2.141450,-0.180673,0.044381,-0.088657,0.024488,0.130823,-0.428090,0.603953,-0.761465,-0.190501,0.138282,-103.431464,-1.118076,27.209017
54926,NaN,0.001026,-9.499583,-2.128676,-0.249961,0.024092,-0.080775,0.008316,0.126371,-0.441604,0.604404,-0.761103,-0.191789,0.136512,-103.425968,-1.377344,27.199568
54927,NaN,-0.100372,-9.650240,-2.385095,-0.286541,-0.236410,0.121481,0.001392,0.130450,-0.457977,0.604839,-0.760746,-0.193130,0.134671,-103.424436,-1.645962,27.189993
54928,NaN,-0.049531,-9.764872,-2.722350,-0.151220,-0.506278,0.310898,0.006201,0.162570,-0.473459,0.605331,-0.760376,-0.194429,0.132664,-103.419563,-1.927785,27.164565
54929,NaN,0.197781,-9.738348,-2.614964,-0.019435,-0.330068,0.267145,0.023879,0.222806,-0.486142,0.605953,-0.759976,-0.195580,0.130407,-103.403320,-2.224371,27.107161
54930,NaN,0.231691,-9.842243,-2.379450,-0.152841,-0.116733,0.313910,0.018228,0.284785,-0.493946,0.606615,-0.759619,-0.196577,0.127882,-103.388582,-2.533813,27.016142
54931,NaN,0.220702,-10.045673,-2.311039,-0.270373,-0.051340,0.494065,0.011693,0.330941,-0.500855,0.607297,-0.759300,-0.197460,0.125156,-103.375951,-2.852911,26.900173
54932,NaN,-0.076627,-10.204752,-2.387070,-0.577556,-0.250724,0.648871,0.016014,0.359441,-0.510683,0.608024,-0.758967,-0.198292,0.122293,-103.359380,-3.181518,26.769499
54933,NaN,-0.136363,-10.419687,-2.613829,-0.621491,-0.465681,0.902587,0.009288,0.376554,-0.527337,0.608746,-0.758643,-0.199135,0.119308,-103.345499,-3.521354,26.631332
54934,NaN,-0.179755,-10.775456,-2.805650,-0.694145,-0.620564,1.284478,0.021166,0.408762,-0.553848,0.609555,-0.758266,-0.199973,0.116130,-103.322991,-3.880441,26.478534
54935,NaN,-0.388399,-11.225057,-3.074495,-0.905291,-0.905876,1.761619,0.047450,0.431274,-0.590194,0.610500,-0.757777,-0.200861,0.112782,-103.283902,-4.262421,26.317683
54936,NaN,-0.294093,-11.550200,-2.954101,-0.995748,-0.746101,2.047814,0.112436,0.469356,-0.646473,0.611752,-0.757042,-0.201808,0.109179,-103.205313,-4.680842,26.142474
54937,NaN,-0.343091,-11.796354,-2.215926,-1.460050,-0.127913,2.105079,0.160167,0.514194,-0.697503,0.613246,-0.756123,-0.202779,0.105299,-103.096428,-5.133074,25.948025
54938,NaN,-0.281727,-11.502783,-1.324688,-1.790922,0.579594,1.615527,0.207491,0.533797,-0.757230,0.614959,-0.754991,-0.203889,0.101206,-102.958400,-5.620931,25.749215
54939,NaN,-0.156608,-11.004725,-1.000493,-1.793140,0.783041,1.063903,0.159653,0.515261,-0.804394,0.616482,-0.753933,-0.205252,0.096989,-102.847647,-6.132155,25.565640
54940,NaN,0.064192,-11.032759,-1.065660,-1.653778,0.768589,1.120517,0.130631,0.480496,-0.856189,0.617871,-0.752876,-0.206927,0.092709,-102.754566,-6.667701,25.407104
54941,NaN,-0.024420,-10.845209,-1.265615,-1.702083,0.467785,0.962474,0.132805,0.408947,-0.914518,0.619205,-0.751701,-0.209036,0.088520,-102.664463,-7.226453,25.295249
54942,NaN,0.294212,-10.547119,-1.942850,-1.178989,-0.104577,0.850379,0.137957,0.339961,-0.974170,0.620497,-0.750396,-0.211575,0.084408,-102.576113,-7.809824,25.228755
54943,NaN,0.456431,-10.177680,-2.401300,-0.867825,-0.559628,0.603281,0.163102,0.316241,-1.008670,0.621856,-0.748947,-0.214301,0.080302,-102.475158,-8.409358,25.178983
54944,NaN,0.452351,-10.114133,-2.603037,-0.872738,-0.813535,0.572469,0.152917,0.314638,-1.051646,0.623174,-0.747461,-0.217190,0.076055,-102.380159,-9.032693,25.134296
54945,NaN,0.591234,-9.977746,-2.545890,-0.835735,-0.785971,0.437637,0.172504,0.319761,-1.098138,0.624569,-0.745842,-0.220223,0.071664,-102.273854,-9.682563,25.091345
54946,NaN,0.617695,-9.999513,-2.330512,-0.999907,-0.644372,0.404298,0.151493,0.335531,-1.147885,0.625899,-0.744213,-0.223392,0.067033,-102.178262,-10.362123,25.044241
54947,NaN,0.493746,-10.405737,-2.201181,-1.367513,-0.600470,0.729428,0.158979,0.328971,-1.204933,0.627245,-0.742467,-0.226783,0.062253,-102.079702,-11.072775,25.006658
54948,NaN,0.347510,-10.487206,-1.992085,-1.711219,-0.537107,0.715951,0.187502,0.316564,-1.278311,0.628680,-0.740514,-0.230467,0.057319,-101.967104,-11.822943,24.983599
54949,NaN,0.231481,-10.798316,-2.173528,-1.952283,-0.793692,1.001107,0.137957,0.290809,-1.349690,0.629893,-0.738593,-0.234500,0.052197,-101.887383,-12.610091,24.982683
54950,NaN,0.162273,-11.270980,-2.274372,-2.239877,-0.953622,1.425874,0.252017,0.269117,-1.420613,0.631490,-0.736187,-0.238820,0.047063,-101.746555,-13.434340,25.001146
54951,NaN,0.154037,-11.286679,-2.238547,-2.401320,-1.023454,1.394786,0.326758,0.266288,-1.500686,0.633340,-0.733407,-0.243414,0.041772,-101.565422,-14.303366,25.028561
54952,NaN,0.213578,-11.293535,-2.287815,-2.474253,-1.153976,1.384054,0.376035,0.299878,-1.584266,0.635389,-0.730329,-0.248181,0.036152,-101.353114,-15.223019,25.043227
54953,NaN,0.286220,-11.029751,-2.300354,-2.472551,-1.263631,1.110479,0.250446,0.343254,-1.663112,0.637002,-0.727508,-0.253105,0.029964,-101.207974,-16.192092,25.038947
54954,NaN,0.616708,-11.518745,-2.887322,-2.294470,-1.742624,1.723924,0.240106,0.392779,-1.712799,0.638601,-0.724611,-0.258031,0.023423,-101.061107,-17.194248,25.008620
54955,NaN,0.978461,-11.291705,-2.945843,-2.053386,-1.774525,1.578926,0.255211,0.446322,-1.748224,0.640275,-0.721567,-0.262895,0.016592,-100.895903,-18.222405,24.947825
54956,NaN,1.165456,-11.702843,-3.200617,-2.120139,-2.041324,2.014927,0.412678,0.491232,-1.756712,0.642523,-0.717951,-0.267608,0.009779,-100.629627,-19.259505,24.856727
54957,NaN,1.338469,-10.437923,-2.430906,-1.943950,-1.434579,0.713970,0.360056,0.566670,-1.796029,0.644628,-0.714391,-0.272201,0.002495,-100.376324,-20.326648,24.719361
54958,NaN,1.297319,-11.175298,-3.056165,-2.209565,-2.132443,1.433505,0.312080,0.601712,-1.786900,0.646551,-0.710935,-0.276621,-0.004947,-100.138069,-21.391148,24.553896
54959,NaN,1.426485,-10.581707,-3.152705,-1.999070,-2.301283,0.894829,0.357197,0.616933,-1.790735,0.648595,-0.707261,-0.280985,-0.012395,-99.865512,-22.459134,24.373372
54960,NaN,1.270062,-10.458055,-3.427740,-2.147109,-2.739095,0.704766,0.405383,0.584946,-1.801509,0.650705,-0.703353,-0.285464,-0.019693,-99.567508,-23.528654,24.206339
54961,NaN,2.126060,-10.437172,-3.204759,-1.656848,-2.340826,0.934254,0.510568,0.552226,-1.769832,0.653080,-0.699086,-0.289925,-0.026625,-99.210093,-24.576922,24.048362
54962,NaN,2.169237,-9.502366,-2.953759,-1.444312,-2.197657,0.026341,0.417518,0.567556,-1.737344,0.655098,-0.695106,-0.294181,-0.033632,-98.894547,-25.606615,23.869405
54963,NaN,2.143037,-9.643882,-3.352480,-1.540220,-2.690789,0.148271,0.273079,0.516122,-1.685952,0.656493,-0.691625,-0.298381,-0.040506,-98.667888,-26.602642,23.710984
54964,NaN,2.211325,-9.841156,-3.587634,-1.641858,-2.994350,0.333484,0.303765,0.458949,-1.634360,0.657869,-0.688081,-0.302570,-0.046959,-98.432979,-27.563192,23.578132
54965,NaN,2.838731,-9.427493,-3.145000,-1.219595,-2.437592,0.157035,0.304003,0.444065,-1.562528,0.659193,-0.684597,-0.306544,-0.053126,-98.194575,-28.482080,23.442472
54966,NaN,3.376217,-9.066781,-2.817440,-0.846180,-2.016258,0.023977,0.256888,0.501800,-1.447637,0.660433,-0.681388,-0.309898,-0.059175,-97.955645,-29.339057,23.253365
54967,NaN,2.960478,-8.380333,-2.847339,-0.937646,-2.228910,-0.798640,0.298510,0.502798,-1.303768,0.661823,-0.678224,-0.312758,-0.064691,-97.680653,-30.114573,23.044698
54968,NaN,3.570557,-7.391526,-2.715564,-0.083873,-1.904489,-1.379264,0.285641,0.470680,-1.204998,0.663118,-0.675240,-0.315367,-0.069782,-97.414359,-30.829772,22.842852
54969,NaN,5.872543,-7.221785,-3.342921,1.939182,-1.788641,-0.280891,0.173985,0.541533,-1.109773,0.664156,-0.672719,-0.317371,-0.074975,-97.178489,-31.496174,22.580621
54970,NaN,2.243494,-6.953376,-1.466819,-1.448114,-1.261847,-2.612385,0.414682,0.829690,-0.833039,0.666537,-0.669709,-0.317562,-0.079828,-96.685943,-32.022745,22.096667
54971,NaN,-3.570260,-4.601293,1.881627,-5.849544,0.215237,-8.025050,0.551481,0.476500,-0.559328,0.668907,-0.666795,-0.318062,-0.082372,-96.223040,-32.368206,21.821817
54972,NaN,-3.877436,-3.435383,-0.833709,-4.608904,-2.349108,-8.934576,0.066199,-0.480607,-0.346205,0.668213,-0.666231,-0.320843,-0.081777,-96.374539,-32.530445,22.175282
54973,NaN,-3.957813,-4.276909,-0.931607,-5.078759,-2.576884,-8.266761,-0.043596,-0.978408,-0.033753,0.666473,-0.666723,-0.324202,-0.078660,-96.757020,-32.481881,22.841430
54974,NaN,-2.730442,-5.043259,-0.651559,-4.609262,-2.012259,-6.980772,-0.141538,-1.147946,0.204474,0.664204,-0.667980,-0.327277,-0.074334,-97.244571,-32.280481,23.600791
54975,NaN,-0.602379,-5.574101,-1.454347,-2.953207,-2.097624,-5.293062,-0.112602,-1.146469,0.353999,0.662068,-0.669356,-0.329853,-0.069473,-97.702794,-31.990215,24.341846
54976,NaN,-0.535071,-4.935576,-1.407740,-2.545994,-1.958977,-5.774358,-0.022239,-1.053236,0.595601,0.660445,-0.670779,-0.331324,-0.063965,-98.058265,-31.564288,24.993097
54977,NaN,-1.034992,-5.133368,-1.225057,-3.062866,-1.975547,-5.858042,-0.050015,-1.001271,0.871376,0.658879,-0.672702,-0.331683,-0.057772,-98.389491,-30.984343,25.576846
54978,NaN,-0.865752,-5.826935,-0.939014,-3.348253,-1.692716,-5.175028,-0.023746,-0.947552,1.129161,0.657530,-0.674922,-0.330981,-0.050854,-98.665413,-30.258717,26.092295
54979,NaN,-0.454936,-6.205800,-0.609650,-3.282430,-1.240244,-4.638003,0.033768,-0.884996,1.363956,0.656499,-0.677279,-0.329284,-0.043287,-98.866117,-29.405302,26.535603
54980,NaN,-0.273715,-6.479759,-0.607399,-3.203025,-1.155762,-4.259760,0.028704,-0.840099,1.577593,0.655522,-0.679951,-0.326682,-0.035166,-99.035802,-28.432061,26.921041
54981,NaN,-0.074496,-6.854584,-0.762588,-3.079379,-1.201842,-3.759253,0.019909,-0.828089,1.764190,0.654511,-0.682888,-0.323384,-0.026496,-99.188481,-27.355077,27.272794
54982,NaN,-0.177747,-7.321605,-0.791981,-3.262525,-1.247257,-3.327076,0.017346,-0.835018,1.944083,0.653434,-0.686060,-0.319451,-0.017203,-99.327285,-26.173142,27.603718
54983,NaN,-0.205350,-7.888966,-0.664165,-3.468992,-1.111343,-2.780788,0.007744,-0.862129,2.105992,0.652217,-0.689435,-0.315021,-0.007313,-99.462277,-24.898243,27.928263
54984,NaN,-0.053422,-8.269933,-0.660077,-3.372000,-0.985741,-2.297023,0.003023,-0.891705,2.254006,0.650850,-0.692970,-0.310123,0.003167,-99.591800,-23.534303,28.249008
54985,NaN,0.176118,-8.537149,-0.794505,-3.081537,-0.928520,-1.863890,-0.019400,-0.912507,2.402979,0.649271,-0.696693,-0.304739,0.014157,-99.723105,-22.085483,28.560252
54986,NaN,0.346675,-8.921122,-1.147306,-2.768133,-1.075261,-1.315661,-0.047527,-0.907442,2.542446,0.647475,-0.700605,-0.298790,0.025549,-99.854214,-20.555713,28.846913
54987,NaN,0.446910,-9.402544,-1.461994,-2.532160,-1.197142,-0.708065,-0.068619,-0.881161,2.679520,0.645506,-0.704653,-0.292232,0.037244,-99.977591,-18.952627,29.097019
54988,NaN,0.637491,-9.802963,-1.696740,-2.189301,-1.182577,-0.159454,-0.055058,-0.807802,2.803820,0.643532,-0.708712,-0.284925,0.049107,-100.067163,-17.284142,29.284834
54989,NaN,0.786060,-9.938820,-1.682174,-1.870305,-0.952181,0.077484,-0.048496,-0.715193,2.901487,0.641551,-0.712750,-0.276921,0.060942,-100.128199,-15.571785,29.404089
54990,NaN,1.006368,-10.183829,-1.709444,-1.489291,-0.710834,0.430055,-0.066409,-0.616035,2.980221,0.639470,-0.716828,-0.268248,0.072650,-100.178623,-13.822697,29.454447
54991,NaN,0.997034,-10.552470,-1.700323,-1.333684,-0.528812,0.825561,-0.079291,-0.522358,3.036144,0.637300,-0.720882,-0.259029,0.084153,-100.221032,-12.053770,29.443095
54992,NaN,0.886329,-10.819826,-1.602947,-1.255903,-0.309826,1.084129,-0.101464,-0.467070,3.081468,0.634946,-0.724919,-0.249405,0.095567,-100.269203,-10.262650,29.393763
54993,NaN,0.819309,-10.884373,-1.466020,-1.097681,-0.038625,1.145121,-0.140850,-0.461911,3.123404,0.632281,-0.728952,-0.239582,0.107008,-100.339983,-8.450751,29.335675
54994,NaN,0.676283,-10.949010,-1.419518,-0.958540,0.125370,1.205851,-0.191003,-0.480740,3.168758,0.629222,-0.733006,-0.229606,0.118588,-100.441812,-6.609115,29.280923
54995,NaN,0.548148,-11.067767,-1.516425,-0.746057,0.186843,1.344956,-0.242137,-0.522204,3.190599,0.625754,-0.737025,-0.219664,0.130285,-100.576411,-4.753278,29.243902
54996,NaN,0.600586,-11.201513,-1.609252,-0.373302,0.352711,1.507608,-0.284925,-0.582101,3.206135,0.621882,-0.740963,-0.209808,0.142183,-100.738557,-2.880108,29.234143
54997,NaN,0.657907,-11.511072,-1.823958,0.048184,0.453611,1.851101,-0.333552,-0.630945,3.228050,0.617598,-0.744836,-0.200014,0.154227,-100.929534,-0.991724,29.243943
54998,NaN,0.702671,-11.827519,-2.186301,0.549065,0.440600,2.214566,-0.336941,-0.651072,3.251185,0.613089,-0.748525,-0.190129,0.166386,-101.122117,0.914233,29.256024
54999,NaN,0.579641,-11.878212,-2.165880,0.759113,0.636028,2.234076,-0.295004,-0.642997,3.271627,0.608559,-0.751897,-0.180069,0.178555,-101.290693,2.828475,29.255468
55000,NaN,0.474153,-12.177598,-2.268669,1.039903,0.785148,2.514250,-0.281953,-0.621112,3.276842,0.603918,-0.755046,-0.169846,0.190634,-101.453009,4.745463,29.236288
55001,NaN,0.459673,-12.571737,-2.386997,1.423234,0.992952,2.873172,-0.230726,-0.577393,3.261725,0.599357,-0.757855,-0.159466,0.202479,-101.589400,6.646607,29.189287
55002,NaN,0.528698,-12.819127,-2.451473,1.871952,1.256217,3.052837,-0.160768,-0.496550,3.237086,0.594983,-0.760311,-0.148809,0.213957,-101.693443,8.526714,29.095021
55003,NaN,0.575861,-12.902522,-2.494132,2.293640,1.480047,3.054375,-0.096976,-0.363838,3.188561,0.590849,-0.762481,-0.137848,0.224764,-101.775999,10.361743,28.927628
55004,NaN,0.699569,-13.078207,-2.647907,2.841313,1.659078,3.137233,-0.039933,-0.203200,3.117134,0.586970,-0.764422,-0.126573,0.234743,-101.847984,12.139790,28.673273
55005,NaN,1.216809,-13.181285,-2.767458,3.698732,2.015202,3.037634,0.005505,-0.014181,3.014732,0.583369,-0.766205,-0.115064,0.243660,-101.924042,13.835657,28.318710
55006,NaN,2.080521,-13.326218,-3.121921,4.960297,2.320873,2.901871,0.003525,0.184334,2.861066,0.579932,-0.767982,-0.103529,0.251325,-102.036747,15.423214,27.862497
55007,NaN,3.644390,-13.466319,-3.465789,6.781988,2.913917,2.521760,-0.062754,0.344654,2.588827,0.576560,-0.769865,-0.092652,0.257492,-102.217516,16.835844,27.339541
55008,NaN,5.220386,-13.910604,-3.994267,8.706760,3.410531,2.404692,-0.202754,0.440702,2.181815,0.573127,-0.771974,-0.083219,0.262024,-102.493908,18.008628,26.802923
55009,NaN,5.988281,-14.351715,-4.592983,9.927456,3.467897,2.529977,-0.300950,0.449958,1.677207,0.569927,-0.774086,-0.075839,0.264996,-102.819290,18.893703,26.318168
55010,NaN,6.276038,-14.048832,-4.350205,10.127830,3.755205,1.977401,-0.282000,0.402070,1.121556,0.567480,-0.775827,-0.070708,0.266569,-103.108008,19.473565,25.930087
55011,NaN,5.860711,-13.313553,-3.412572,9.244664,4.160615,1.163163,-0.267121,0.373041,0.605044,0.565759,-0.777283,-0.067650,0.266780,-103.362245,19.766050,25.627298
55012,NaN,5.461635,-12.387675,-2.609175,8.356944,4.367316,0.246129,-0.167988,0.404769,0.165956,0.565010,-0.778345,-0.066069,0.265662,-103.546514,19.809494,25.366332
55013,NaN,5.378083,-11.030634,-1.728848,7.586861,4.586587,-1.152998,-0.059167,0.509730,-0.181541,0.565181,-0.779119,-0.065406,0.263183,-103.672153,19.643655,25.093111
55014,NaN,4.702031,-9.644765,-0.787847,6.268746,4.593730,-2.372829,0.015671,0.614495,-0.398992,0.565956,-0.779741,-0.065190,0.259706,-103.763972,19.342659,24.790044
55015,NaN,3.375001,-8.515257,0.106731,4.467161,4.398699,-3.133815,0.041743,0.584788,-0.483614,0.566927,-0.780212,-0.065357,0.256107,-103.828967,18.997643,24.517815
55016,NaN,1.836634,-7.474823,0.562876,2.711798,3.795469,-3.664233,0.085296,0.370394,-0.456819,0.567956,-0.780285,-0.065970,0.253433,-103.827956,18.697092,24.368442
55017,NaN,0.481803,-6.480431,0.933516,1.167936,3.220537,-4.212367,0.121945,0.038854,-0.334244,0.568862,-0.779869,-0.067000,0.252410,-103.748785,18.509780,24.396090
55018,NaN,-0.537593,-5.781970,1.128071,0.056898,2.733619,-4.567043,0.099466,-0.416832,-0.192690,0.569345,-0.778987,-0.068801,0.253559,-103.604272,18.463169,24.670581
55019,NaN,-2.028418,-6.708200,-1.313756,0.095302,0.372205,-2.692803,-0.213061,-0.970767,-0.098156,0.568293,-0.778312,-0.072208,0.257022,-103.539772,18.543000,25.256962
55020,NaN,6.340229,-6.584809,-4.504419,8.787745,1.083390,-4.768087,-0.429351,-1.623907,-0.224658,0.566298,-0.777328,-0.078235,0.262578,-103.470068,18.639282,26.245493
55021,NaN,12.413702,-10.393801,-8.200407,16.420905,2.079644,-2.369726,-1.076908,-1.423114,-0.445229,0.562110,-0.778295,-0.085397,0.266453,-103.798744,18.587557,27.147395
55022,NaN,3.087972,-15.814521,-7.900863,9.229145,0.425163,5.572323,-0.629901,-0.754639,-0.677515,0.560222,-0.778750,-0.090985,0.267248,-103.987410,18.318247,27.690445
55023,NaN,-11.826562,-15.833722,-2.390315,-6.238736,-1.596989,9.023837,-0.195370,-0.511830,-0.614649,0.560038,-0.778320,-0.095064,0.267466,-103.976726,18.051360,28.081817
55024,NaN,-9.076564,-19.424085,4.130747,-6.897075,6.175381,9.961918,-0.203414,-0.352467,-0.673553,0.559968,-0.778087,-0.098937,0.266888,-103.998899,17.729369,28.388058
55025,NaN,-1.355071,-16.953342,3.484948,-0.598941,8.164946,5.496382,0.128237,-0.362954,-1.237510,0.561919,-0.776608,-0.104585,0.264931,-103.807520,17.095054,28.780444
55026,NaN,-0.190396,-8.343258,0.229534,0.785852,2.977483,-2.052885,-0.450942,-0.435716,-1.475763,0.561872,-0.776494,-0.112127,0.262268,-103.930945,16.337656,29.247416
55027,NaN,-0.271872,-7.426632,-3.408266,2.438074,-0.348169,-2.016611,-0.642417,-0.197677,-1.247779,0.560882,-0.777315,-0.118357,0.259201,-104.216536,15.675726,29.544814
55028,NaN,0.133580,-9.359614,-2.306958,2.305552,1.382637,-0.554487,-0.075822,0.141214,-0.978458,0.561927,-0.777115,-0.121854,0.255895,-104.242393,15.116016,29.608644
55029,NaN,-0.618345,-8.211523,-0.632959,0.585706,1.971104,-1.813734,-0.440199,0.138716,-0.861525,0.561389,-0.777990,-0.125365,0.252702,-104.481494,14.622117,29.657878
55030,NaN,-2.749636,-10.182436,-3.920322,0.648109,-1.049804,1.371626,-0.407180,-0.229936,-0.704084,0.560540,-0.778387,-0.129256,0.251398,-104.654588,14.268336,29.896541
55031,NaN,-2.267852,-8.823005,-4.535530,1.221547,-1.783491,0.131481,-0.157173,-0.447112,-0.643206,0.560436,-0.777838,-0.133200,0.251270,-104.657797,13.980630,30.250445
55032,NaN,-1.141925,-8.219897,-4.048641,1.822583,-1.058217,-0.822669,-0.153348,-0.254741,-0.599398,0.560414,-0.777538,-0.136431,0.250512,-104.688346,13.688894,30.487650
55033,NaN,-1.848266,-8.451515,-2.420648,0.320079,-0.033465,-0.834941,-0.205559,-0.031707,-0.596625,0.560331,-0.777659,-0.139087,0.248860,-104.779987,13.366933,30.597318
55034,NaN,-2.498579,-9.962924,-2.513627,-0.137207,0.058451,0.760792,-0.204488,0.042102,-0.626597,0.560335,-0.777839,-0.141653,0.246832,-104.880032,13.017206,30.669934
55035,NaN,-2.807212,-9.829662,-2.601253,-0.421292,-0.234011,0.724699,-0.083191,0.125218,-0.692010,0.560943,-0.777726,-0.144087,0.244383,-104.919314,12.619622,30.705541
55036,NaN,-2.569784,-8.890815,-2.446306,-0.415823,-0.333635,-0.254959,-0.007327,0.184292,-0.701553,0.561895,-0.777456,-0.146300,0.241727,-104.922174,12.207544,30.709214
55037,NaN,-2.156982,-8.736288,-2.440267,-0.140280,-0.205100,-0.492384,-0.068181,0.240390,-0.713562,0.562657,-0.777406,-0.148471,0.238774,-104.966183,11.781040,30.683099
55038,NaN,-2.296595,-8.678003,-2.587837,-0.248011,-0.440644,-0.484086,-0.129630,0.269947,-0.770156,0.563262,-0.777510,-0.150853,0.235494,-105.046659,11.318310,30.649392
55039,NaN,-1.928139,-9.201670,-2.888791,0.165383,-0.359655,0.014635,-0.142290,0.256280,-0.807577,0.563840,-0.777592,-0.153428,0.232152,-105.131469,10.837362,30.629793
55040,NaN,-1.549773,-9.479465,-3.155462,0.556739,-0.329982,0.276889,-0.078755,0.228525,-0.806441,0.564634,-0.777449,-0.156003,0.228963,-105.176712,10.360696,30.626242
55041,NaN,-1.234917,-9.414636,-3.136794,0.740518,-0.218285,0.157433,0.044360,0.182652,-0.804292,0.565858,-0.776895,-0.158553,0.226053,-105.146956,9.892575,30.648186
55042,NaN,-0.823600,-9.391250,-2.677224,0.781759,0.307235,-0.048701,0.073973,0.139114,-0.747111,0.567089,-0.776241,-0.160971,0.223490,-105.097781,9.462076,30.685553
55043,NaN,-0.830430,-9.362474,-2.352570,0.544996,0.516539,-0.152674,0.017034,0.112887,-0.725842,0.568046,-0.775726,-0.163440,0.221044,-105.079734,9.047731,30.734084
55044,NaN,-1.130000,-9.654492,-2.149723,0.124219,0.581015,0.124818,-0.013710,0.045341,-0.693892,0.568787,-0.775239,-0.166011,0.218920,-105.074550,8.660590,30.815498
55045,NaN,-0.908433,-10.084619,-2.297722,0.330209,0.666187,0.543523,0.006234,-0.002376,-0.660647,0.569522,-0.774663,-0.168562,0.217092,-105.055319,8.299461,30.918411
55046,NaN,-0.570881,-9.750233,-2.050160,0.439149,0.902358,0.116496,0.077976,0.003622,-0.628631,0.570500,-0.773907,-0.170896,0.215388,-104.996767,7.954539,31.012848
55047,NaN,-0.586267,-9.632799,-2.349289,0.539466,0.585278,0.087811,-0.015414,-0.003101,-0.567288,0.571039,-0.773457,-0.173108,0.213806,-104.993075,7.645063,31.101577
55048,NaN,-0.321919,-9.676221,-2.784022,0.948042,0.357012,0.210148,-0.043749,-0.008114,-0.499439,0.571389,-0.773134,-0.175103,0.212407,-105.006969,7.373305,31.182941
55049,NaN,-0.375646,-9.900733,-2.734340,0.830361,0.411665,0.423675,0.003284,0.032439,-0.437948,0.571886,-0.772771,-0.176692,0.211071,-104.998358,7.130150,31.232435
55050,NaN,-0.492077,-9.844101,-2.620188,0.637709,0.402163,0.358118,0.066286,0.098484,-0.426203,0.572672,-0.772303,-0.177982,0.209564,-104.958530,6.883073,31.243237
55051,NaN,-0.589827,-8.960073,-2.499574,0.489371,0.174400,-0.506311,0.058761,0.149203,-0.411413,0.573454,-0.771921,-0.179073,0.207900,-104.926717,6.637306,31.223383
55052,NaN,-0.670033,-8.538151,-2.614020,0.466819,-0.098419,-0.870968,-0.004925,0.147373,-0.365679,0.573940,-0.771755,-0.180062,0.206312,-104.931925,6.416486,31.197727
55053,NaN,-0.748838,-9.320015,-2.895919,0.488004,-0.168726,-0.038073,0.010378,0.089778,-0.306002,0.574368,-0.771539,-0.180966,0.205134,-104.925766,6.237852,31.195277
55054,NaN,-0.753893,-9.355534,-2.563046,0.285703,0.089640,-0.087779,0.088431,0.041905,-0.278571,0.575026,-0.771072,-0.181825,0.204287,-104.872430,6.080801,31.215356
55055,NaN,-0.726650,-9.416308,-2.638294,0.328196,0.038023,-0.012369,0.089725,0.031218,-0.263364,0.575661,-0.770603,-0.182651,0.203529,-104.818068,5.934382,31.238963
55056,NaN,-1.004888,-9.010301,-2.396966,-0.033005,-0.041130,-0.435166,0.107560,0.043139,-0.295414,0.576409,-0.770063,-0.183551,0.202644,-104.753735,5.767769,31.260509
55057,NaN,-1.260700,-9.052889,-2.260152,-0.343606,-0.073962,-0.403711,0.097884,0.057405,-0.323524,0.577158,-0.769539,-0.184524,0.201618,-104.695438,5.584150,31.278014
55058,NaN,-1.512655,-9.395360,-2.402792,-0.524191,-0.252224,-0.014941,0.047716,0.047045,-0.346440,0.577727,-0.769124,-0.185668,0.200515,-104.665054,5.388659,31.304506
55059,NaN,-1.176485,-9.411568,-2.341776,-0.297618,-0.048359,-0.047719,0.075089,0.055226,-0.384486,0.578444,-0.768602,-0.186904,0.199300,-104.619035,5.171535,31.331814
55060,NaN,-0.985457,-9.444489,-2.377199,-0.146950,0.002630,-0.025000,0.095954,0.080548,-0.410131,0.579290,-0.768016,-0.188146,0.197928,-104.562067,4.935870,31.348558
55061,NaN,-1.187574,-9.306429,-2.445834,-0.304636,-0.223910,-0.124604,0.111278,0.107150,-0.428601,0.580233,-0.767393,-0.189364,0.196417,-104.497465,4.686763,31.352882
55062,NaN,-1.083271,-9.300050,-2.351091,-0.295600,-0.125414,-0.164436,0.108141,0.108331,-0.437076,0.581172,-0.766766,-0.190615,0.194870,-104.434621,4.432148,31.357507
55063,NaN,-0.888682,-9.262451,-2.361048,-0.154313,-0.072652,-0.214352,0.085329,0.106005,-0.451007,0.582031,-0.766188,-0.191945,0.193272,-104.384675,4.170761,31.365145
55064,NaN,-0.785854,-9.360847,-2.331774,-0.122709,-0.000370,-0.134621,0.066725,0.098699,-0.458597,0.582816,-0.765644,-0.193345,0.191657,-104.345040,3.905574,31.377742
55065,NaN,-0.668746,-9.438581,-2.308661,-0.075361,0.069184,-0.073421,0.070908,0.093911,-0.461698,0.583612,-0.765077,-0.194763,0.190058,-104.302911,3.639955,31.393230
55066,NaN,-0.469522,-9.465479,-2.345083,0.075295,0.120225,-0.050779,0.053266,0.107298,-0.469558,0.584359,-0.764561,-0.196191,0.188364,-104.271321,3.367453,31.402227
55067,NaN,-0.721208,-9.350497,-2.396861,-0.140083,-0.107140,-0.134588,0.009305,0.075991,-0.458924,0.584892,-0.764151,-0.197706,0.186779,-104.264107,3.105890,31.427020
55068,NaN,-0.366920,-9.774199,-2.531819,0.159998,0.039299,0.289410,0.086302,0.091069,-0.457921,0.585732,-0.763527,-0.199104,0.185211,-104.213301,2.842132,31.443164
55069,NaN,-0.478387,-9.440141,-2.428442,0.006297,-0.043843,-0.053574,0.089779,0.087528,-0.464570,0.586583,-0.762878,-0.200530,0.183644,-104.160491,2.575778,31.461954
55070,NaN,-0.329835,-9.544180,-2.438575,0.094356,0.018412,0.043143,0.079768,0.110085,-0.453525,0.587406,-0.762286,-0.201859,0.182008,-104.114076,2.311771,31.466435
55071,NaN,-0.379378,-9.478460,-2.399334,0.003823,-0.020522,-0.027938,0.081218,0.123612,-0.448898,0.588240,-0.761704,-0.203126,0.180338,-104.067209,2.049061,31.462514
55072,NaN,-0.301019,-9.531556,-2.392122,0.027107,0.008922,0.019018,0.059008,0.120573,-0.444999,0.588981,-0.761182,-0.204408,0.178664,-104.032980,1.788327,31.459573
55073,NaN,-0.108269,-9.494792,-2.344034,0.135880,0.111902,-0.033826,0.075610,0.134282,-0.444552,0.589794,-0.760622,-0.205629,0.176959,-103.989489,1.526559,31.448752
55074,NaN,-0.378195,-9.492113,-2.273426,-0.165032,-0.000515,-0.046199,0.062590,0.143680,-0.447905,0.590568,-0.760100,-0.206849,0.175190,-103.953491,1.261014,31.433004
55075,NaN,-0.360713,-9.673102,-2.335016,-0.174248,-0.031688,0.143204,0.052954,0.147329,-0.451360,0.591308,-0.759602,-0.208075,0.173390,-103.923012,0.993673,31.415536
55076,NaN,-0.470314,-9.639278,-2.327237,-0.305739,-0.118867,0.109263,0.054368,0.160210,-0.469200,0.592080,-0.759088,-0.209332,0.171485,-103.891671,0.714033,31.393231
55077,NaN,-0.610660,-9.545875,-2.381154,-0.427419,-0.285378,0.031203,0.029556,0.175938,-0.490019,0.592787,-0.758635,-0.210638,0.169435,-103.874534,0.421274,31.364909
55078,NaN,-0.746280,-9.612669,-2.477741,-0.545767,-0.452488,0.116898,0.043792,0.197231,-0.534572,0.593605,-0.758104,-0.212039,0.167183,-103.849074,0.100224,31.330763
55079,NaN,-0.447422,-9.519554,-2.459931,-0.336069,-0.334228,0.018304,0.023488,0.224378,-0.585551,0.594412,-0.757597,-0.213565,0.164657,-103.835078,-0.252302,31.288380
55080,NaN,-0.311552,-9.701641,-2.746616,-0.153020,-0.499434,0.261516,0.010627,0.284248,-0.623102,0.595259,-0.757128,-0.215067,0.161774,-103.827921,-0.634481,31.217777
55081,NaN,-0.270564,-9.559582,-2.595627,-0.232748,-0.418409,0.085112,0.037076,0.328764,-0.657914,0.596274,-0.756570,-0.216540,0.158649,-103.804869,-1.041532,31.127049
55082,NaN,-0.121951,-9.595883,-2.668580,-0.134906,-0.435454,0.137633,0.027848,0.357488,-0.684546,0.597299,-0.756023,-0.218037,0.155319,-103.786142,-1.467844,31.023829
55083,NaN,0.165731,-9.512047,-2.346557,-0.098429,-0.075683,-0.014885,0.035686,0.363033,-0.710778,0.598369,-0.755417,-0.219603,0.151901,-103.762180,-1.908920,30.920908
55084,NaN,0.208351,-9.696340,-2.246132,-0.201418,0.020699,0.140505,0.072947,0.340492,-0.720809,0.599556,-0.754659,-0.221246,0.148572,-103.716558,-2.352990,30.831629
55085,NaN,0.472622,-9.251682,-1.798830,-0.185179,0.405948,-0.386488,0.051420,0.322090,-0.728785,0.600635,-0.753932,-0.222984,0.145266,-103.683096,-2.798400,30.753336
55086,NaN,0.503651,-9.461432,-1.827923,-0.240066,0.394005,-0.174207,0.008323,0.312895,-0.738924,0.601542,-0.753303,-0.224818,0.141911,-103.674010,-3.248717,30.681360
55087,NaN,0.447770,-9.603885,-2.103223,-0.242897,0.117824,0.025263,0.025741,0.272876,-0.747810,0.602464,-0.752573,-0.226787,0.138701,-103.655835,-3.698011,30.632760
55088,NaN,0.518093,-9.433663,-2.443765,-0.053332,-0.203917,-0.056177,0.012279,0.256169,-0.743608,0.603306,-0.751864,-0.228800,0.135545,-103.645530,-4.143226,30.592783
55089,NaN,0.376361,-9.841407,-3.051218,-0.024684,-0.762587,0.469440,0.006523,0.289139,-0.758956,0.604164,-0.751167,-0.230768,0.132214,-103.637011,-4.600903,30.536373
55090,NaN,0.373928,-10.033931,-3.324251,-0.004674,-1.009503,0.715867,0.038620,0.331232,-0.778395,0.605195,-0.750364,-0.232660,0.128697,-103.607828,-5.075586,30.458895
