// General information: 
//  MT Manager version: 2019.0.1 
//  XDA version: 2019.0.1 build 2740 rev 84096 built on 2019-01-30
// Device information: 
//  DeviceId: 00B43876
//  ProductCode: MTW2-3A7G6
//  Firmware Version: 4.3.4
//  Hardware Version: 1.1.0
// Device settings: 
//  Filter Profile: human(46.1)
//  Option Flags: Orientation Smoother Disabled, AHS Disabled, ICC Disabled
// Coordinate system: ENU
PacketCounter,SampleTimeFine,Acc_X,Acc_Y,Acc_Z,FreeAcc_E,FreeAcc_N,FreeAcc_U,Gyr_X,Gyr_Y,Gyr_Z,Quat_q0,Quat_q1,Quat_q2,Quat_q3,Roll,Pitch,Yaw
57959,NaN,-0.868560,-9.549517,-1.581914,-0.062409,-0.061604,-0.094538,0.001083,-0.002539,0.002934,0.180196,-0.139090,0.750602,-0.620306,-99.572736,5.621401,-154.250008
57960,NaN,-0.877365,-9.569935,-1.608301,-0.067228,-0.038484,-0.069276,0.001542,0.004132,0.003639,0.180218,-0.139061,0.750598,-0.620312,-99.571045,5.625168,-154.250764
57961,NaN,-0.858677,-9.568608,-1.592672,-0.077980,-0.060127,-0.075004,0.004187,0.001665,0.002005,0.180260,-0.139039,0.750584,-0.620321,-99.568036,5.629945,-154.249422
57962,NaN,-0.885314,-9.556114,-1.638772,-0.074945,-0.005678,-0.077030,-0.003410,0.003459,0.003415,0.180289,-0.139028,0.750592,-0.620305,-99.569142,5.633652,-154.248136
57963,NaN,-0.842104,-9.563859,-1.691882,-0.138265,0.020443,-0.064894,0.000743,0.003070,0.006424,0.180337,-0.138988,0.750594,-0.620298,-99.568226,5.640792,-154.248014
57964,NaN,-0.867216,-9.554666,-1.623541,-0.086092,-0.027319,-0.082763,0.000024,0.004085,0.003100,0.180352,-0.138958,0.750594,-0.620300,-99.567419,5.644249,-154.249486
57965,NaN,-0.867511,-9.554635,-1.623567,-0.086725,-0.027493,-0.082769,-0.000011,0.002031,0.004103,0.180396,-0.138930,0.750596,-0.620292,-99.566855,5.650176,-154.248552
57966,NaN,-0.878301,-9.535529,-1.612391,-0.072581,-0.029132,-0.102311,0.001507,0.002078,0.004642,0.180433,-0.138909,0.750589,-0.620294,-99.565086,5.654729,-154.247458
57967,NaN,-0.833379,-9.546631,-1.550882,-0.086747,-0.105224,-0.106023,-0.000740,0.005077,0.004882,0.180468,-0.138870,0.750596,-0.620284,-99.565117,5.660807,-154.248328
57968,NaN,-0.831064,-9.551795,-1.592970,-0.108383,-0.070611,-0.094237,-0.003915,-0.003235,0.007817,0.180535,-0.138863,0.750603,-0.620258,-99.566188,5.667666,-154.243852
57969,NaN,-0.834915,-9.546394,-1.551516,-0.087773,-0.105398,-0.106034,-0.005079,-0.002774,0.010992,0.180614,-0.138829,0.750620,-0.620221,-99.568323,5.677943,-154.240849
57970,NaN,-0.892971,-9.550222,-1.598081,-0.057855,-0.040980,-0.088852,-0.004397,-0.005844,0.015319,0.180714,-0.138801,0.750631,-0.620185,-99.569586,5.689307,-154.235694
57971,NaN,-0.894233,-9.549990,-1.598760,-0.058488,-0.041152,-0.088857,-0.010360,0.000133,0.010155,0.180776,-0.138766,0.750667,-0.620131,-99.574902,5.698834,-154.234263
57972,NaN,-0.925452,-9.566248,-1.599744,-0.031986,-0.031178,-0.069652,-0.009596,-0.000859,0.008372,0.180832,-0.138754,0.750694,-0.620085,-99.579378,5.705769,-154.231285
57973,NaN,-0.908194,-9.598938,-1.581191,-0.040480,-0.062690,-0.042374,-0.012195,0.001634,0.004900,0.180871,-0.138736,0.750734,-0.620030,-99.585780,5.712184,-154.230204
57974,NaN,-0.915872,-9.584901,-1.612965,-0.047586,-0.029716,-0.050123,-0.009079,0.003806,-0.000132,0.180883,-0.138741,0.750757,-0.619997,-99.590117,5.713924,-154.228978
57975,NaN,-0.938520,-9.615132,-1.583078,-0.014628,-0.052885,-0.023167,-0.006762,0.004916,-0.002378,0.180892,-0.138734,0.750778,-0.619971,-99.593521,5.715915,-154.229063
57976,NaN,-0.916398,-9.618995,-1.609990,-0.046399,-0.039753,-0.017118,-0.001446,0.004063,-0.002544,0.180890,-0.138727,0.750779,-0.619972,-99.593476,5.716288,-154.229897
57977,NaN,-0.914969,-9.584697,-1.614689,-0.049274,-0.030061,-0.050133,-0.007879,0.005401,-0.004309,0.180889,-0.138727,0.750802,-0.619944,-99.597530,5.717141,-154.230072
57978,NaN,-0.932262,-9.551762,-1.634648,-0.041826,0.001279,-0.077412,0.001272,0.005704,-0.006182,0.180885,-0.138742,0.750790,-0.619956,-99.595999,5.715285,-154.229043
57979,NaN,-0.947396,-9.595959,-1.573422,-0.002168,-0.054857,-0.042701,-0.003314,0.011655,0.004512,0.180891,-0.138686,0.750811,-0.619941,-99.597875,5.720525,-154.233616
57980,NaN,-0.977639,-9.578024,-1.578200,0.022074,-0.035009,-0.056493,-0.006222,0.001770,0.017265,0.180960,-0.138620,0.750838,-0.619904,-99.600643,5.732311,-154.234365
57981,NaN,-0.826454,-9.642741,-1.645264,-0.146608,-0.055360,0.003005,-0.003016,-0.007905,0.027068,0.181110,-0.138539,0.750855,-0.619857,-99.601456,5.752162,-154.229999
57982,NaN,-0.940754,-9.583223,-1.476459,0.028808,-0.145704,-0.071997,-0.024087,-0.010170,0.039555,0.181288,-0.138452,0.750940,-0.619721,-99.613976,5.777714,-154.224686
57983,NaN,-1.010436,-9.606557,-1.552354,0.053973,-0.058335,-0.029518,-0.048161,-0.042708,0.044175,0.181590,-0.138456,0.751078,-0.619465,-99.638824,5.810565,-154.202215
57984,NaN,-0.809537,-9.405792,-1.866247,-0.265572,0.163400,-0.194480,-0.052904,-0.044963,0.058872,0.181928,-0.138417,0.751236,-0.619183,-99.666038,5.850384,-154.181056
57985,NaN,-0.684328,-9.503520,-1.792188,-0.351419,0.017863,-0.123864,-0.040111,-0.017484,0.074298,0.182234,-0.138222,0.751393,-0.618946,-99.688009,5.897839,-154.175850
57986,NaN,-0.511871,-9.906400,-1.633420,-0.447274,-0.280765,0.226633,-0.017076,0.041684,0.061250,0.182286,-0.137882,0.751519,-0.618854,-99.699794,5.930622,-154.202761
57987,NaN,-1.100711,-9.552222,-1.604233,0.094464,0.014008,-0.064818,0.001095,0.068318,0.071412,0.182289,-0.137395,0.751623,-0.618834,-99.703172,5.968165,-154.246014
57988,NaN,-1.235981,-9.237748,-1.780054,0.137925,0.286151,-0.329475,0.010242,0.046568,0.074040,0.182382,-0.136970,0.751678,-0.618835,-99.699759,6.007684,-154.276648
57989,NaN,-0.898026,-9.256297,-1.697161,-0.133822,0.060817,-0.360480,-0.006624,0.027719,0.056688,0.182487,-0.136671,0.751759,-0.618772,-99.705047,6.040831,-154.295422
57990,NaN,-0.689620,-9.433011,-1.519296,-0.248584,-0.223211,-0.239083,-0.012962,0.020986,0.033399,0.182542,-0.136507,0.751832,-0.618703,-99.713065,6.059829,-154.306196
57991,NaN,-0.812024,-9.685311,-1.199190,-0.004034,-0.504612,-0.032706,-0.019305,-0.007800,0.014617,0.182642,-0.136488,0.751891,-0.618605,-99.723069,6.072646,-154.300717
57992,NaN,-1.051293,-9.860313,-1.280741,0.170178,-0.365352,0.177751,-0.009163,-0.058606,-0.012754,0.182845,-0.136727,0.751851,-0.618542,-99.723591,6.073344,-154.263754
57993,NaN,-1.152053,-9.961815,-1.573703,0.127973,-0.083429,0.337100,0.002120,-0.097659,-0.023788,0.183179,-0.137111,0.751735,-0.618499,-99.715524,6.073166,-154.203506
57994,NaN,-0.986431,-10.122071,-1.840037,-0.142571,0.049479,0.521350,0.010419,-0.102509,-0.025991,0.183532,-0.137534,0.751581,-0.618487,-99.702070,6.070565,-154.137962
57995,NaN,-0.887902,-10.231140,-1.988776,-0.300189,0.118157,0.642730,0.016320,-0.062406,-0.020637,0.183753,-0.137783,0.751456,-0.618518,-99.688020,6.068739,-154.098043
57996,NaN,-1.110666,-10.361578,-1.970044,-0.095780,0.176648,0.790924,0.047659,0.019921,-0.017863,0.183686,-0.137750,0.751307,-0.618726,-99.660696,6.058905,-154.104777
57997,NaN,-1.058687,-10.381514,-1.674235,-0.011252,-0.103741,0.755605,0.065126,0.037382,-0.026453,0.183547,-0.137667,0.751119,-0.619015,-99.624612,6.044180,-154.120982
57998,NaN,-0.766643,-10.374803,-1.520704,-0.205381,-0.356851,0.692896,0.076153,0.050432,-0.004571,0.183428,-0.137464,0.750919,-0.619338,-99.582852,6.039075,-154.146199
57999,NaN,-0.924584,-10.080575,-1.417933,-0.015323,-0.313681,0.404197,0.090522,0.045758,-0.004621,0.183343,-0.137250,0.750673,-0.619707,-99.532935,6.035913,-154.169273
58000,NaN,-0.942125,-9.901413,-1.361824,0.025886,-0.312001,0.221360,0.093923,0.016197,-0.011713,0.183346,-0.137166,0.750381,-0.620079,-99.478832,6.030079,-154.173865
58001,NaN,-0.842808,-9.648123,-1.378996,-0.068562,-0.282964,-0.034473,0.078662,-0.010378,-0.010547,0.183445,-0.137160,0.750117,-0.620371,-99.432298,6.028892,-154.164480
58002,NaN,-0.813350,-9.376283,-1.546929,-0.167382,-0.088778,-0.276792,0.073080,-0.017746,0.003843,0.183591,-0.137119,0.749872,-0.620633,-99.388180,6.035141,-154.154587
58003,NaN,-0.734419,-9.126273,-1.738819,-0.322384,0.098442,-0.499359,0.049043,-0.011857,0.021455,0.183774,-0.137024,0.749720,-0.620783,-99.358842,6.052170,-154.147366
58004,NaN,-0.611626,-9.032375,-1.781976,-0.453764,0.102878,-0.597655,0.022040,0.026200,0.043713,0.183842,-0.136740,0.749701,-0.620848,-99.346977,6.076907,-154.166752
58005,NaN,-0.666671,-8.827773,-1.967900,-0.486731,0.328505,-0.762724,-0.000316,0.064428,0.057364,0.183817,-0.136320,0.749797,-0.620832,-99.350872,6.107135,-154.206257
58006,NaN,-0.614242,-8.823191,-1.923693,-0.517355,0.264036,-0.780013,-0.031957,0.096245,0.075895,0.183695,-0.135760,0.750030,-0.620709,-99.374574,6.143505,-154.266592
58007,NaN,-0.642947,-8.851972,-1.897171,-0.484378,0.240901,-0.753030,-0.049493,0.109044,0.096320,0.183590,-0.135100,0.750346,-0.620503,-99.409819,6.191552,-154.335155
58008,NaN,-0.748537,-8.922390,-1.815882,-0.359426,0.191913,-0.685763,-0.080050,0.112277,0.109012,0.183462,-0.134389,0.750768,-0.620184,-99.462514,6.245116,-154.410963
58009,NaN,-0.704435,-8.908862,-1.580589,-0.298196,-0.043977,-0.742327,-0.107025,0.118229,0.110159,0.183326,-0.133701,0.751279,-0.619755,-99.531573,6.299991,-154.486166
58010,NaN,-0.574129,-8.908670,-1.567761,-0.411671,-0.125248,-0.759139,-0.139746,0.118429,0.105636,0.183137,-0.133057,0.751885,-0.619213,-99.619060,6.350739,-154.562534
58011,NaN,-0.001109,-9.074854,-1.774797,-1.021810,-0.236496,-0.625586,-0.176156,0.141672,0.092143,0.182811,-0.132428,0.752617,-0.618555,-99.729163,6.392949,-154.649500
58012,NaN,0.648209,-9.350768,-1.564477,-1.517269,-0.769542,-0.463339,-0.175168,0.196812,0.056269,0.182159,-0.131770,0.753369,-0.617973,-99.841506,6.407848,-154.764111
58013,NaN,0.833298,-9.595967,-1.248725,-1.546988,-1.188826,-0.297973,-0.144852,0.245105,0.012998,0.181219,-0.131090,0.754044,-0.617570,-99.939412,6.394880,-154.902152
58014,NaN,0.791944,-9.810018,-1.036898,-1.415348,-1.409317,-0.119938,-0.104597,0.284520,-0.040018,0.179977,-0.130453,0.754592,-0.617399,-100.015723,6.346160,-155.058266
58015,NaN,0.535306,-10.015773,-0.826632,-1.087998,-1.531901,0.074431,-0.061091,0.292224,-0.088894,0.178599,-0.129935,0.754981,-0.617433,-100.067221,6.270638,-155.212751
58016,NaN,0.299208,-10.100173,-0.755097,-0.833118,-1.511063,0.172090,-0.018306,0.276820,-0.135559,0.177151,-0.129613,0.755188,-0.617664,-100.092091,6.168314,-155.353456
58017,NaN,0.018419,-10.202719,-0.697518,-0.541642,-1.458902,0.294762,0.019175,0.260278,-0.181060,0.175660,-0.129470,0.755237,-0.618060,-100.094127,6.043871,-155.480383
58018,NaN,-0.315398,-10.236312,-0.651006,-0.202768,-1.356833,0.357033,0.059696,0.233997,-0.211598,0.174190,-0.129500,0.755112,-0.618623,-100.070224,5.902889,-155.588910
58019,NaN,-0.654476,-10.322081,-0.738916,0.084006,-1.139658,0.493318,0.103414,0.189815,-0.238467,0.172841,-0.129717,0.754798,-0.619337,-100.018742,5.753207,-155.670152
58020,NaN,-0.883250,-10.285971,-0.771006,0.297526,-0.988552,0.488281,0.140393,0.144867,-0.250816,0.171647,-0.130113,0.754314,-0.620176,-99.942599,5.599025,-155.722549
58021,NaN,-1.027594,-10.110615,-0.908664,0.391030,-0.747509,0.355616,0.175431,0.113748,-0.253986,0.170583,-0.130561,0.753698,-0.621124,-99.845159,5.448286,-155.759473
58022,NaN,-1.143028,-9.920122,-1.043418,0.457994,-0.516217,0.203686,0.191868,0.086084,-0.240327,0.169664,-0.131041,0.753009,-0.622109,-99.736223,5.305900,-155.782126
58023,NaN,-1.153800,-9.812997,-1.256459,0.393388,-0.274147,0.135924,0.200738,0.068463,-0.224256,0.168879,-0.131496,0.752291,-0.623094,-99.622069,5.176453,-155.796792
58024,NaN,-1.101541,-9.644199,-1.513777,0.251870,-0.007434,0.008307,0.195732,0.066772,-0.195747,0.168174,-0.131865,0.751599,-0.624042,-99.510220,5.061225,-155.813302
58025,NaN,-1.020152,-9.501579,-1.694684,0.113513,0.171591,-0.109580,0.182622,0.088496,-0.174284,0.167456,-0.132084,0.750985,-0.624927,-99.407835,4.958191,-155.844550
58026,NaN,-0.756795,-9.442538,-1.819619,-0.167927,0.208374,-0.170405,0.154802,0.124594,-0.156731,0.166628,-0.132159,0.750492,-0.625724,-99.322534,4.859728,-155.897919
58027,NaN,-0.536595,-9.448825,-1.928478,-0.403855,0.233570,-0.165430,0.126731,0.156042,-0.146016,0.165709,-0.132107,0.750126,-0.626418,-99.255527,4.766524,-155.970416
58028,NaN,-0.388389,-9.503400,-2.025806,-0.569093,0.267574,-0.108366,0.110493,0.164757,-0.138686,0.164757,-0.132026,0.749815,-0.627058,-99.197502,4.674710,-156.048459
58029,NaN,-0.617336,-9.525834,-2.068816,-0.368431,0.410204,-0.060837,0.107891,0.159576,-0.129369,0.163863,-0.131915,0.749519,-0.627669,-99.141361,4.590750,-156.124664
58030,NaN,-0.811535,-9.689827,-1.989890,-0.150808,0.403089,0.103247,0.099347,0.158758,-0.110410,0.163014,-0.131755,0.749255,-0.628238,-99.089490,4.515621,-156.202032
58031,NaN,-0.713916,-9.738323,-1.924120,-0.204062,0.308659,0.132659,0.077139,0.185763,-0.109475,0.162064,-0.131513,0.749089,-0.628733,-99.052075,4.440682,-156.295029
58032,NaN,-0.613796,-9.683641,-1.873235,-0.263517,0.244080,0.063021,0.071606,0.202681,-0.121373,0.160998,-0.131279,0.748939,-0.629234,-99.017770,4.355526,-156.396424
58033,NaN,-0.563789,-9.649649,-1.725386,-0.236897,0.108733,0.002738,0.070805,0.215705,-0.139759,0.159836,-0.131061,0.748795,-0.629748,-98.984786,4.260878,-156.503760
58034,NaN,-0.789896,-9.663558,-1.445451,0.095723,-0.043065,-0.010312,0.089951,0.197078,-0.145936,0.158724,-0.130920,0.748564,-0.630331,-98.939276,4.162454,-156.599858
58035,NaN,-0.856715,-9.603340,-1.242059,0.251275,-0.176136,-0.096381,0.092623,0.179761,-0.159419,0.157649,-0.130871,0.748307,-0.630917,-98.891844,4.060030,-156.685161
58036,NaN,-0.906011,-9.389635,-1.185565,0.332196,-0.155958,-0.312321,0.125447,0.180430,-0.169619,0.156548,-0.130843,0.747934,-0.631639,-98.824837,3.949873,-156.769871
58037,NaN,-1.018587,-9.144129,-1.024964,0.511693,-0.198217,-0.571366,0.149694,0.194192,-0.176882,0.155400,-0.130769,0.747493,-0.632459,-98.744847,3.836492,-156.862044
58038,NaN,-1.114507,-8.930879,-0.842567,0.683600,-0.271617,-0.803164,0.169377,0.214516,-0.175025,0.154183,-0.130618,0.747001,-0.633369,-98.653565,3.720606,-156.965917
58039,NaN,-1.242740,-8.837485,-0.646410,0.888559,-0.364793,-0.916580,0.191270,0.219478,-0.167116,0.152998,-0.130394,0.746451,-0.634350,-98.550383,3.610885,-157.073621
58040,NaN,-1.373040,-8.743820,-0.449503,1.093765,-0.457738,-1.029989,0.206414,0.204442,-0.154515,0.151908,-0.130170,0.745843,-0.635373,-98.437201,3.507925,-157.173908
58041,NaN,-1.317270,-8.761679,-0.296212,1.108084,-0.601283,-1.037693,0.211624,0.130821,-0.137308,0.151161,-0.130100,0.745177,-0.636346,-98.319112,3.422923,-157.234163
58042,NaN,-1.230608,-8.979840,-0.438106,0.976867,-0.519236,-0.806026,0.202213,0.050650,-0.118959,0.150754,-0.130233,0.744485,-0.637225,-98.202986,3.353288,-157.250435
58043,NaN,-1.104276,-9.220883,-0.727307,0.749816,-0.320761,-0.533252,0.211081,-0.033239,-0.110518,0.150702,-0.130586,0.743712,-0.638067,-98.079801,3.297042,-157.220001
58044,NaN,-0.529309,-9.437324,-1.071154,0.086432,-0.239839,-0.303450,0.231379,-0.061972,-0.095231,0.150810,-0.130967,0.742855,-0.638961,-97.943342,3.250012,-157.174475
58045,NaN,-0.960857,-9.917186,-1.986742,0.124187,0.710735,0.321432,0.187781,-0.039357,-0.072934,0.150885,-0.131217,0.742174,-0.639682,-97.833541,3.215443,-157.143775
58046,NaN,-2.097630,-10.355426,-2.618203,0.920496,1.680374,0.902670,0.154598,-0.011420,-0.034699,0.150947,-0.131270,0.741639,-0.640277,-97.743033,3.198707,-157.131882
58047,NaN,-1.190244,-10.535873,-2.940186,-0.044102,1.612508,1.071423,0.165339,-0.006648,-0.043010,0.150982,-0.131321,0.741073,-0.640913,-97.647284,3.178516,-157.122201
58048,NaN,-1.561575,-10.017893,-3.359202,0.129193,2.231991,0.631566,0.193713,0.028826,-0.040053,0.150904,-0.131234,0.740440,-0.641681,-97.535754,3.155767,-157.132850
58049,NaN,-1.423254,-9.762547,-3.019894,0.132523,1.924885,0.322891,0.181251,0.080470,-0.046926,0.150614,-0.131007,0.739885,-0.642435,-97.433600,3.126815,-157.172515
58050,NaN,-1.166353,-9.389465,-2.830382,-0.029536,1.722605,-0.088222,0.162578,0.112581,-0.050369,0.150173,-0.130713,0.739407,-0.643148,-97.342627,3.092174,-157.230137
58051,NaN,-1.163482,-8.796131,-2.585284,0.065432,1.595722,-0.710013,0.152767,0.144658,-0.059213,0.149587,-0.130347,0.738982,-0.643847,-97.258660,3.051692,-157.305528
58052,NaN,-0.882825,-8.162804,-2.325695,-0.088647,1.350454,-1.387249,0.120086,0.163018,-0.055074,0.148917,-0.129939,0.738675,-0.644437,-97.193605,3.010982,-157.391607
58053,NaN,-0.958497,-7.793316,-2.293745,-0.001684,1.408427,-1.754643,0.043836,0.155241,-0.054740,0.148234,-0.129603,0.738611,-0.644736,-97.172280,2.972440,-157.473421
58054,NaN,-0.660505,-7.611420,-2.674029,-0.415529,1.668339,-1.902922,-0.057206,0.109219,-0.079311,0.147570,-0.129589,0.738819,-0.644652,-97.207138,2.921924,-157.527153
58055,NaN,0.552657,-7.796940,-2.676443,-1.524359,1.180219,-1.778732,-0.105275,0.161109,-0.097775,0.146631,-0.129504,0.739211,-0.644435,-97.271112,2.858417,-157.609150
58056,NaN,1.059292,-8.438728,-1.838096,-1.654036,0.133573,-1.271076,-0.085979,0.394612,-0.114036,0.144780,-0.128720,0.739697,-0.644452,-97.330326,2.767262,-157.822625
58057,NaN,-0.644865,-8.885264,-0.803717,0.335361,-0.232823,-0.877195,-0.088799,0.550023,-0.151675,0.142238,-0.127567,0.740278,-0.644580,-97.394846,2.644395,-158.121751
58058,NaN,-1.527506,-11.116352,2.458061,2.404431,-3.211295,0.950903,-0.070378,0.530948,-0.159848,0.139744,-0.126501,0.740773,-0.644767,-97.447590,2.516626,-158.409134
58059,NaN,-2.065759,-12.580285,3.483640,3.307042,-4.157573,2.288746,0.076995,0.272502,-0.222207,0.138106,-0.126387,0.740571,-0.645375,-97.408793,2.373902,-158.545011
58060,NaN,-1.584151,-11.436117,0.038797,1.603707,-0.985253,1.578233,0.153105,-0.057951,-0.326076,0.137397,-0.127677,0.739823,-0.646129,-97.317749,2.195347,-158.485390
58061,NaN,0.404671,-10.447129,-2.198735,-1.051647,0.511483,0.806773,0.218255,-0.072300,-0.422228,0.136478,-0.129318,0.738794,-0.647174,-97.189522,1.964295,-158.411083
58062,NaN,-0.659122,-9.010947,-3.181250,-0.416923,2.026095,-0.459991,0.186593,0.029808,-0.408424,0.135199,-0.130604,0.737938,-0.648160,-97.081164,1.732468,-158.396247
58063,NaN,-1.972180,-9.338783,-2.858197,0.960579,2.186137,-0.139548,-0.104386,0.166192,-0.323888,0.133507,-0.131326,0.738173,-0.648097,-97.142462,1.540226,-158.465159
58064,NaN,-1.536083,-10.119188,-2.362537,0.793213,1.466025,0.558451,-0.230164,0.252900,-0.296826,0.131494,-0.131757,0.738886,-0.647609,-97.276568,1.355920,-158.584905
58065,NaN,-0.591204,-10.102122,-1.698592,0.198919,0.500411,0.434139,-0.222310,0.301259,-0.326950,0.129214,-0.132131,0.739583,-0.647195,-97.406629,1.151775,-158.729582
58066,NaN,0.293230,-10.091613,-0.961414,-0.315478,-0.502600,0.311475,-0.134757,0.328124,-0.371905,0.126741,-0.132532,0.739979,-0.647150,-97.485931,0.918822,-158.885722
58067,NaN,0.298414,-9.616576,-0.746769,-0.218121,-0.635904,-0.185998,-0.052463,0.306243,-0.398286,0.124324,-0.133043,0.740074,-0.647405,-97.517479,0.673378,-159.027302
58068,NaN,-0.103400,-8.925073,-1.143594,0.028945,-0.027421,-0.814148,-0.044678,0.245591,-0.403363,0.122112,-0.133769,0.740096,-0.647651,-97.543329,0.428494,-159.133842
58069,NaN,-0.228602,-8.929128,-1.891095,-0.080939,0.715829,-0.711109,-0.102529,0.195745,-0.379627,0.120129,-0.134597,0.740290,-0.647629,-97.602034,0.201815,-159.213755
58070,NaN,-0.147862,-9.500000,-2.313442,-0.241117,1.010213,-0.089259,-0.128690,0.174556,-0.363821,0.118251,-0.135457,0.740560,-0.647486,-97.675137,-0.015386,-159.282503
58071,NaN,0.146918,-10.160710,-2.058905,-0.355483,0.590405,0.532631,-0.106956,0.171024,-0.369009,0.116390,-0.136328,0.740754,-0.647419,-97.735795,-0.234321,-159.348669
58072,NaN,0.319765,-10.429993,-1.722733,-0.345706,0.192838,0.756039,-0.017895,0.156614,-0.374428,0.114619,-0.137219,0.740643,-0.647674,-97.745037,-0.456272,-159.406021
58073,NaN,0.200853,-9.940116,-1.562261,-0.168975,0.164028,0.248690,0.088859,0.142906,-0.384986,0.112943,-0.138126,0.740169,-0.648317,-97.693160,-0.682130,-159.454943
58074,NaN,0.391386,-9.254767,-1.261797,-0.251243,-0.075924,-0.467795,0.114886,0.136160,-0.372073,0.111345,-0.138998,0.739611,-0.649043,-97.626054,-0.901107,-159.501172
58075,NaN,0.840984,-9.497833,-1.393159,-0.674263,-0.118420,-0.200808,0.093694,0.116540,-0.338029,0.109922,-0.139813,0.739134,-0.649654,-97.571230,-1.098196,-159.539156
58076,NaN,0.932152,-9.750290,-1.247382,-0.666342,-0.296601,0.034188,0.059552,0.098711,-0.303108,0.108647,-0.140581,0.738779,-0.650107,-97.535840,-1.275128,-159.569711
58077,NaN,1.038788,-10.160683,-1.220858,-0.704617,-0.389371,0.442110,0.060927,0.073201,-0.277955,0.107555,-0.141332,0.738423,-0.650530,-97.500023,-1.434790,-159.587857
58078,NaN,0.922024,-9.915666,-1.060960,-0.534282,-0.452695,0.177595,0.085913,0.064735,-0.260652,0.106562,-0.142040,0.737989,-0.651031,-97.449769,-1.585089,-159.602510
58079,NaN,0.893481,-9.955195,-0.853312,-0.413353,-0.623630,0.190939,0.080964,0.065368,-0.239632,0.105637,-0.142663,0.737588,-0.651499,-97.402416,-1.722369,-159.619301
58080,NaN,0.664381,-9.780273,-0.851055,-0.192540,-0.511680,0.011798,0.068429,0.063567,-0.206559,0.104811,-0.143184,0.737247,-0.651904,-97.361969,-1.841869,-159.637519
58081,NaN,0.708814,-9.764834,-0.769737,-0.191595,-0.589378,-0.011524,0.036840,0.071384,-0.184653,0.104012,-0.143608,0.737031,-0.652184,-97.339574,-1.948326,-159.661946
58082,NaN,0.890300,-9.928991,-0.779827,-0.337227,-0.651469,0.159648,0.021432,0.075069,-0.170126,0.103228,-0.143982,0.736873,-0.652404,-97.325620,-2.047970,-159.689478
58083,NaN,0.844590,-9.827412,-0.675360,-0.252920,-0.715404,0.044882,-0.002165,0.066213,-0.140166,0.102565,-0.144279,0.736812,-0.652512,-97.325478,-2.128758,-159.714267
58084,NaN,0.629795,-9.824705,-0.768468,-0.071385,-0.550852,0.046495,-0.033087,0.063907,-0.109070,0.101982,-0.144492,0.736870,-0.652491,-97.342706,-2.192925,-159.739925
58085,NaN,0.561007,-9.727939,-0.687290,0.022907,-0.593245,-0.062435,-0.061718,0.062871,-0.080158,0.101484,-0.144609,0.737044,-0.652346,-97.376535,-2.239383,-159.767175
58086,NaN,0.654099,-9.739547,-0.603275,-0.025223,-0.710752,-0.058470,-0.127864,0.061613,-0.067728,0.100975,-0.144725,0.737439,-0.651953,-97.447909,-2.279936,-159.794509
58087,NaN,0.536113,-9.913685,-0.662084,0.090539,-0.645730,0.116146,-0.177510,0.045294,-0.061044,0.100520,-0.144888,0.737994,-0.651358,-97.548391,-2.314288,-159.813085
58088,NaN,0.549703,-9.860403,-0.904748,0.003118,-0.433556,0.094900,-0.196717,0.028013,-0.055141,0.100127,-0.145101,0.738604,-0.650680,-97.659869,-2.345243,-159.822154
58089,NaN,0.629818,-9.711596,-1.029470,-0.116966,-0.343846,-0.033135,-0.169214,0.021820,-0.027151,0.099875,-0.145211,0.739144,-0.650080,-97.756026,-2.358614,-159.829873
58090,NaN,0.682952,-9.769183,-1.112083,-0.182949,-0.304755,0.036867,-0.134081,0.010729,-0.015445,0.099720,-0.145302,0.739569,-0.649600,-97.831864,-2.365728,-159.832115
58091,NaN,0.591037,-9.764340,-1.275869,-0.147408,-0.131430,0.050399,-0.120826,-0.004243,-0.008365,0.099660,-0.145403,0.739952,-0.649151,-97.900846,-2.366415,-159.826465
58092,NaN,0.508311,-9.780632,-1.578894,-0.166264,0.167020,0.104797,-0.108939,-0.012467,-0.006549,0.099637,-0.145524,0.740290,-0.648742,-97.962785,-2.366662,-159.816223
58093,NaN,0.545903,-9.668185,-1.682801,-0.242875,0.255376,0.009707,-0.075963,-0.007323,-0.012986,0.099606,-0.145629,0.740522,-0.648458,-98.006151,-2.369714,-159.808455
58094,NaN,0.534013,-9.664511,-1.780342,-0.261705,0.344292,0.019429,-0.070391,-0.024077,-0.016601,0.099623,-0.145806,0.740721,-0.648189,-98.046339,-2.374718,-159.790813
58095,NaN,0.657261,-9.621704,-1.809522,-0.388655,0.328321,-0.013468,-0.049364,-0.040375,-0.010463,0.099742,-0.145996,0.740852,-0.647978,-98.075234,-2.373673,-159.764477
58096,NaN,0.647437,-9.708484,-1.919365,-0.408083,0.420513,0.087537,-0.015188,-0.046819,-0.008095,0.099910,-0.146188,0.740867,-0.647891,-98.084343,-2.372009,-159.734598
58097,NaN,0.494158,-9.640299,-1.960384,-0.285524,0.520261,0.019426,0.039008,-0.057495,-0.004636,0.100176,-0.146367,0.740708,-0.647992,-98.062985,-2.366275,-159.699012
58098,NaN,0.556960,-9.494611,-1.947458,-0.355587,0.508134,-0.124251,0.073841,-0.055926,-0.004547,0.100454,-0.146531,0.740433,-0.648226,-98.021335,-2.361892,-159.664234
58099,NaN,0.576971,-9.392531,-1.847506,-0.353991,0.427144,-0.238867,0.103041,-0.058240,0.007839,0.100810,-0.146634,0.740074,-0.648557,-97.963258,-2.349072,-159.629212
58100,NaN,0.563310,-9.507021,-1.766333,-0.309930,0.351526,-0.137923,0.109792,-0.050806,0.021845,0.101181,-0.146665,0.739704,-0.648914,-97.900845,-2.330187,-159.599411
58101,NaN,0.570759,-9.533446,-1.690768,-0.296908,0.285464,-0.122415,0.142352,-0.035855,0.032656,0.101563,-0.146584,0.739247,-0.649394,-97.819629,-2.305115,-159.579022
58102,NaN,0.431127,-9.450109,-1.397588,-0.082690,0.082519,-0.250783,0.153183,-0.016893,0.046905,0.101922,-0.146391,0.738771,-0.649922,-97.731523,-2.274719,-159.570371
58103,NaN,0.473187,-9.557807,-1.300766,-0.090148,-0.023296,-0.155623,0.135465,-0.012986,0.053633,0.102283,-0.146161,0.738362,-0.650382,-97.653659,-2.239550,-159.564515
58104,NaN,0.753328,-9.554616,-1.185414,-0.323703,-0.218232,-0.163284,0.127563,-0.001773,0.066689,0.102632,-0.145859,0.737991,-0.650816,-97.579842,-2.199085,-159.565872
58105,NaN,0.886999,-9.624747,-1.018692,-0.397607,-0.420274,-0.110856,0.095082,0.027828,0.090520,0.102932,-0.145381,0.737760,-0.651137,-97.524126,-2.146053,-159.585908
58106,NaN,0.604106,-9.679972,-0.662856,-0.019341,-0.649923,-0.113029,0.161004,0.052774,0.085971,0.103166,-0.144812,0.737321,-0.651723,-97.429938,-2.098725,-159.619610
58107,NaN,0.569350,-9.718988,-0.549572,0.041980,-0.740325,-0.089773,0.064234,0.029352,0.105341,0.103487,-0.144290,0.737202,-0.651923,-97.391867,-2.037335,-159.641476
58108,NaN,0.854117,-9.513579,-0.498875,-0.235342,-0.863016,-0.289747,0.037380,0.029695,0.110795,0.103798,-0.143769,0.737171,-0.652024,-97.368921,-1.974156,-159.663807
58109,NaN,0.611841,-9.983623,-0.780820,-0.080648,-0.569984,0.203568,-0.009221,0.026839,0.137338,0.104179,-0.143176,0.737312,-0.651934,-97.372957,-1.894385,-159.686554
58110,NaN,0.550775,-9.548808,-0.464433,0.038852,-0.801568,-0.270426,-0.013259,0.039090,0.139881,0.104513,-0.142543,0.737471,-0.651840,-97.378789,-1.815391,-159.716364
58111,NaN,0.672610,-9.807725,-0.604723,-0.116304,-0.750258,0.007350,-0.076503,0.043092,0.155153,0.104845,-0.141866,0.737852,-0.651503,-97.421113,-1.726708,-159.749703
58112,NaN,0.649074,-9.689817,-0.532470,-0.089698,-0.811072,-0.120863,-0.137669,0.052679,0.166043,0.105125,-0.141157,0.738440,-0.650945,-97.497970,-1.633920,-159.789306
58113,NaN,0.550674,-9.782525,-0.754494,-0.076541,-0.599964,-0.004301,-0.169711,0.058502,0.167687,0.105374,-0.140432,0.739140,-0.650268,-97.593531,-1.539363,-159.832567
58114,NaN,0.385198,-9.889953,-1.049307,-0.023523,-0.302588,0.135600,-0.187963,0.048330,0.179846,0.105680,-0.139712,0.739896,-0.649512,-97.699312,-1.438551,-159.871060
58115,NaN,0.392607,-9.646453,-1.316025,-0.148326,-0.051327,-0.070232,-0.186726,0.053811,0.190901,0.106010,-0.138925,0.740662,-0.648754,-97.804786,-1.330608,-159.913788
58116,NaN,0.422210,-9.612128,-1.590904,-0.282193,0.175203,-0.066310,-0.198144,0.057027,0.199707,0.106340,-0.138108,0.741468,-0.647953,-97.916382,-1.219349,-159.959153
58117,NaN,0.483020,-9.740273,-1.689222,-0.375909,0.207206,0.075457,-0.169040,0.058896,0.204730,0.106707,-0.137243,0.742186,-0.647254,-98.011801,-1.104122,-160.006261
58118,NaN,0.305524,-9.896632,-1.759142,-0.235756,0.292494,0.236694,-0.146169,0.057486,0.209718,0.107104,-0.136360,0.742827,-0.646639,-98.093799,-0.987382,-160.053056
58119,NaN,0.118099,-9.606222,-1.876445,-0.132350,0.484678,-0.037104,-0.092995,0.042061,0.204399,0.107584,-0.135510,0.743288,-0.646209,-98.145989,-0.871110,-160.090896
58120,NaN,0.057492,-9.531514,-1.962244,-0.123905,0.580446,-0.099235,-0.082408,0.026845,0.199841,0.108106,-0.134728,0.743698,-0.645813,-98.191938,-0.757563,-160.119738
58121,NaN,0.139147,-9.744488,-1.917000,-0.188244,0.470795,0.106596,-0.045150,0.028815,0.188921,0.108618,-0.133952,0.743985,-0.645558,-98.216969,-0.649040,-160.148969
58122,NaN,-0.065034,-9.703924,-1.818867,0.017993,0.446203,0.050335,0.004955,0.012387,0.178642,0.109183,-0.133247,0.744090,-0.645488,-98.213126,-0.546340,-160.167959
58123,NaN,-0.179494,-9.508615,-1.763881,0.116315,0.455239,-0.151607,0.028190,-0.006445,0.162121,0.109788,-0.132645,0.744101,-0.645496,-98.196434,-0.450132,-160.175003
58124,NaN,-0.133828,-9.463679,-1.826521,0.034087,0.502352,-0.186589,0.048120,-0.023509,0.148420,0.110418,-0.132145,0.744027,-0.645577,-98.168121,-0.361602,-160.171107
58125,NaN,-0.085957,-9.711646,-1.627070,0.053262,0.268050,0.030895,0.067695,-0.038542,0.138800,0.111094,-0.131711,0.743876,-0.645723,-98.128929,-0.276009,-160.157957
58126,NaN,-0.054371,-9.693619,-1.394142,0.084758,0.045602,-0.019652,0.094470,-0.058214,0.126976,0.111814,-0.131377,0.743618,-0.645965,-98.074170,-0.196820,-160.132514
58127,NaN,-0.101347,-9.491243,-1.188649,0.171945,-0.098855,-0.248823,0.100062,-0.088681,0.117116,0.112627,-0.131167,0.743320,-0.646209,-98.016480,-0.119531,-160.089026
58128,NaN,-0.031211,-9.549331,-1.009114,0.154489,-0.293716,-0.215873,0.076011,-0.122254,0.117246,0.113542,-0.131086,0.743077,-0.646344,-97.972279,-0.040788,-160.026324
58129,NaN,0.236199,-9.829395,-1.078368,-0.121402,-0.355842,0.071355,0.050851,-0.141688,0.116452,0.114517,-0.131077,0.742906,-0.646370,-97.942665,0.040262,-159.952588
58130,NaN,0.303577,-9.744857,-0.996864,-0.175420,-0.443769,-0.023897,0.054420,-0.144475,0.122154,0.115517,-0.131062,0.742723,-0.646407,-97.910619,0.123475,-159.877572
58131,NaN,0.178161,-9.660713,-0.869042,-0.032526,-0.510207,-0.124810,0.021853,-0.149790,0.131970,0.116553,-0.131038,0.742649,-0.646310,-97.897392,0.213901,-159.800384
58132,NaN,0.202923,-9.806074,-0.912430,-0.077908,-0.502444,0.024704,-0.020297,-0.136952,0.133581,0.117512,-0.130999,0.742717,-0.646066,-97.907919,0.302963,-159.730503
58133,NaN,0.070319,-9.705681,-1.026832,-0.010460,-0.345195,-0.058700,-0.038949,-0.129503,0.140933,0.118462,-0.130912,0.742857,-0.645750,-97.929359,0.396894,-159.665558
58134,NaN,-0.099044,-9.477966,-0.994933,0.137472,-0.295895,-0.287717,-0.068147,-0.121317,0.139123,0.119349,-0.130830,0.743090,-0.645334,-97.967124,0.487911,-159.605062
58135,NaN,0.078061,-9.740938,-1.173590,-0.091027,-0.240527,-0.004369,-0.118477,-0.112202,0.141560,0.120184,-0.130732,0.743496,-0.644732,-98.034015,0.580911,-159.550115
58136,NaN,0.059396,-9.761391,-1.211346,-0.096302,-0.217499,0.020880,-0.109409,-0.086711,0.139632,0.120917,-0.130560,0.743882,-0.644184,-98.095428,0.669563,-159.509481
58137,NaN,-0.302447,-9.512420,-1.239368,0.213209,-0.046336,-0.217584,-0.116534,-0.082459,0.132962,0.121615,-0.130397,0.744292,-0.643612,-98.161238,0.755398,-159.470915
58138,NaN,-0.467363,-9.414997,-1.396242,0.300600,0.154158,-0.289246,-0.143681,-0.093922,0.123630,0.122301,-0.130329,0.744772,-0.642940,-98.242088,0.835673,-159.425098
58139,NaN,-0.084875,-9.854323,-1.647601,-0.136576,0.172768,0.176353,-0.163849,-0.069672,0.116814,0.122868,-0.130213,0.745329,-0.642209,-98.334993,0.911404,-159.392688
58140,NaN,-0.310819,-9.585110,-1.464310,0.122443,0.104416,-0.112726,-0.099764,-0.040005,0.106498,0.123326,-0.130008,0.745689,-0.641745,-98.391060,0.977625,-159.376238
58141,NaN,-0.617284,-9.399754,-1.354936,0.434811,0.123880,-0.306488,-0.127724,-0.050922,0.090031,0.123761,-0.129909,0.746123,-0.641176,-98.463343,1.036680,-159.352390
58142,NaN,-0.474420,-9.613904,-1.683756,0.188740,0.332572,-0.048415,-0.123210,-0.067232,0.074011,0.124201,-0.129927,0.746519,-0.640627,-98.532481,1.086871,-159.317919
58143,NaN,-0.442162,-9.543119,-1.710735,0.142676,0.343575,-0.114501,-0.102500,-0.065050,0.060125,0.124609,-0.129969,0.746844,-0.640160,-98.590067,1.130243,-159.283650
58144,NaN,-0.425091,-9.536699,-1.570937,0.172535,0.198683,-0.141703,-0.088628,-0.082262,0.047472,0.125043,-0.130112,0.747102,-0.639745,-98.639151,1.166791,-159.238489
58145,NaN,-0.155366,-9.694611,-1.650078,-0.104769,0.142963,0.020977,-0.088807,-0.090023,0.034247,0.125470,-0.130322,0.747349,-0.639330,-98.688511,1.197722,-159.187915
58146,NaN,-0.202036,-9.611052,-1.560300,-0.034514,0.080980,-0.074108,-0.055613,-0.096961,0.029159,0.125922,-0.130560,0.747480,-0.639039,-98.718438,1.225261,-159.132896
58147,NaN,-0.234673,-9.662887,-1.563723,-0.006499,0.081094,-0.021617,-0.061523,-0.123562,0.031763,0.126485,-0.130869,0.747617,-0.638705,-98.751698,1.257767,-159.063146
58148,NaN,-0.030914,-9.661038,-1.602458,-0.213921,0.037758,-0.022014,-0.045031,-0.118134,0.031308,0.127029,-0.131159,0.747701,-0.638438,-98.775253,1.288438,-158.996350
58149,NaN,0.156200,-9.689751,-1.480761,-0.347733,-0.151812,-0.016548,-0.044378,-0.110222,0.034244,0.127561,-0.131406,0.747793,-0.638174,-98.798790,1.321244,-158.934401
58150,NaN,0.087319,-9.789254,-1.439396,-0.269281,-0.185758,0.076800,-0.032365,-0.106763,0.041851,0.128105,-0.131612,0.747851,-0.637955,-98.815193,1.356924,-158.874991
58151,NaN,-0.051847,-9.673818,-1.467831,-0.158635,-0.097299,-0.029777,-0.032940,-0.102647,0.050010,0.128665,-0.131769,0.747920,-0.637728,-98.832234,1.398030,-158.818735
58152,NaN,-0.097176,-9.501465,-1.356705,-0.087439,-0.162509,-0.216133,-0.036908,-0.099300,0.058331,0.129231,-0.131892,0.748008,-0.637486,-98.851298,1.442408,-158.765023
58153,NaN,0.005504,-9.763799,-1.393271,-0.193226,-0.213360,0.045818,-0.064948,-0.095524,0.060923,0.129779,-0.132006,0.748191,-0.637136,-98.886721,1.489107,-158.713796
58154,NaN,0.066751,-9.751808,-1.330501,-0.233180,-0.299582,0.022369,-0.052334,-0.075828,0.067303,0.130275,-0.132031,0.748347,-0.636846,-98.914903,1.536531,-158.674214
58155,NaN,-0.070822,-9.656144,-1.256306,-0.087108,-0.311377,-0.080273,-0.064549,-0.076202,0.076390,0.130799,-0.132025,0.748551,-0.636500,-98.950348,1.590322,-158.635354
58156,NaN,-0.195663,-9.618986,-1.360803,-0.015566,-0.173719,-0.097517,-0.081248,-0.073119,0.072689,0.131283,-0.132040,0.748804,-0.636099,-98.995070,1.640590,-158.597847
58157,NaN,-0.335375,-9.536199,-1.388780,0.097097,-0.095110,-0.171018,-0.099365,-0.061228,0.067963,0.131702,-0.132040,0.749123,-0.635638,-99.050620,1.688328,-158.566789
58158,NaN,-0.341883,-9.684836,-1.479878,0.071183,-0.044342,-0.009835,-0.109270,-0.041426,0.060409,0.132009,-0.132019,0.749477,-0.635160,-99.111834,1.728862,-158.546207
58159,NaN,-0.553573,-9.483033,-1.522681,0.243877,0.092717,-0.195784,-0.097475,-0.030583,0.051227,0.132261,-0.131983,0.749798,-0.634737,-99.166742,1.764407,-158.531065
58160,NaN,-0.523735,-9.399490,-1.580975,0.191154,0.136740,-0.269683,-0.130071,-0.034234,0.042541,0.132471,-0.132019,0.750211,-0.634197,-99.239927,1.794243,-158.513005
58161,NaN,-0.340731,-9.605428,-1.749914,-0.034937,0.178642,-0.044914,-0.120583,-0.026710,0.036568,0.132647,-0.132041,0.750597,-0.633699,-99.308088,1.821177,-158.498783
58162,NaN,-0.171376,-9.611585,-1.586450,-0.132067,-0.046777,-0.070557,-0.125729,-0.012404,0.037742,0.132763,-0.132023,0.751007,-0.633193,-99.379164,1.846332,-158.492701
58163,NaN,0.070604,-9.665167,-1.663837,-0.383924,-0.085931,-0.012993,-0.115958,0.002821,0.045038,0.132857,-0.131917,0.751403,-0.632725,-99.445232,1.875321,-158.496038
58164,NaN,-0.167352,-9.476384,-1.536443,-0.122414,-0.096263,-0.212362,-0.108638,0.010021,0.053858,0.132951,-0.131756,0.751784,-0.632286,-99.506986,1.907471,-158.504215
58165,NaN,-0.110343,-9.716145,-1.680291,-0.222427,-0.038245,0.045714,-0.131671,0.002177,0.063135,0.133094,-0.131594,0.752240,-0.631746,-99.582109,1.946738,-158.508976
58166,NaN,0.095430,-9.808993,-1.787822,-0.452435,-0.044120,0.147990,-0.109004,0.028118,0.072211,0.133178,-0.131307,0.752646,-0.631306,-99.644500,1.987500,-158.529218
58167,NaN,-0.151083,-9.538431,-1.698457,-0.201920,-0.001807,-0.125146,-0.086221,0.030031,0.079995,0.133299,-0.130963,0.752988,-0.630943,-99.694201,2.033599,-158.551430
58168,NaN,-0.322812,-9.561888,-1.747032,-0.063449,0.090376,-0.087780,-0.095352,0.021053,0.085533,0.133460,-0.130639,0.753353,-0.630540,-99.748717,2.082514,-158.569046
58169,NaN,-0.340184,-9.601659,-1.809705,-0.073931,0.136282,-0.037281,-0.078552,0.009093,0.084418,0.133680,-0.130339,0.753660,-0.630189,-99.793646,2.133107,-158.579941
58170,NaN,-0.181883,-9.600913,-1.845369,-0.239936,0.101440,-0.037815,-0.068329,-0.010178,0.090431,0.133991,-0.130077,0.753922,-0.629864,-99.832079,2.187816,-158.580470
58171,NaN,-0.060315,-9.648189,-1.837216,-0.355851,0.032347,0.002549,-0.053539,-0.018211,0.096901,0.134369,-0.129799,0.754139,-0.629581,-99.862150,2.248117,-158.577233
58172,NaN,-0.067046,-9.669534,-1.737467,-0.320846,-0.067957,0.006457,-0.035164,-0.022936,0.105930,0.134798,-0.129497,0.754298,-0.629361,-99.881376,2.312817,-158.572132
58173,NaN,-0.294056,-9.628034,-1.667462,-0.094877,-0.049083,-0.037489,-0.031216,-0.038430,0.112551,0.135316,-0.129209,0.754440,-0.629138,-99.898246,2.383943,-158.559058
58174,NaN,-0.180332,-9.662553,-1.688121,-0.217515,-0.085148,-0.004903,-0.036997,-0.042445,0.115868,0.135849,-0.128931,0.754598,-0.628891,-99.918092,2.456172,-158.543957
58175,NaN,-0.079492,-9.678882,-1.698696,-0.325544,-0.122806,0.008289,-0.029232,-0.032641,0.122310,0.136377,-0.128587,0.754744,-0.628672,-99.933979,2.532243,-158.535162
58176,NaN,-0.227991,-9.620963,-1.501013,-0.126935,-0.245955,-0.076603,-0.025713,-0.020894,0.120773,0.136851,-0.128215,0.754883,-0.628478,-99.947892,2.605102,-158.532759
58177,NaN,-0.392484,-9.662157,-1.553328,-0.003465,-0.152361,-0.019786,-0.027624,-0.029912,0.125607,0.137380,-0.127848,0.755027,-0.628264,-99.962922,2.682768,-158.525871
58178,NaN,-0.430669,-9.486920,-1.552769,0.017785,-0.115726,-0.190604,-0.047891,-0.042514,0.125500,0.137936,-0.127542,0.755223,-0.627969,-99.988970,2.760442,-158.511768
58179,NaN,-0.293958,-9.767421,-1.744059,-0.184963,-0.050736,0.111720,-0.057753,-0.044060,0.124576,0.138496,-0.127244,0.755450,-0.627632,-100.020853,2.838940,-158.496851
58180,NaN,-0.525622,-9.666971,-1.782207,0.003708,0.078473,0.030924,-0.027195,-0.038078,0.119384,0.139029,-0.126933,0.755580,-0.627421,-100.035102,2.912734,-158.484714
58181,NaN,-0.716548,-9.507283,-1.761368,0.175516,0.151353,-0.119878,-0.028670,-0.036421,0.108884,0.139529,-0.126650,0.755711,-0.627210,-100.050427,2.981625,-158.472592
58182,NaN,-0.686805,-9.543888,-1.939653,0.073446,0.290354,-0.054099,-0.026476,-0.033979,0.093110,0.139965,-0.126424,0.755824,-0.627022,-100.064230,3.040214,-158.460175
58183,NaN,-0.636651,-9.541821,-1.930959,0.021577,0.259933,-0.060137,0.001115,-0.017715,0.081615,0.140328,-0.126164,0.755857,-0.626954,-100.062884,3.091853,-158.455911
58184,NaN,-0.734244,-9.534886,-1.874651,0.125546,0.242962,-0.071399,0.000960,-0.014389,0.066985,0.140625,-0.125957,0.755881,-0.626900,-100.061426,3.133764,-158.451947
58185,NaN,-0.833742,-9.505492,-1.921323,0.193818,0.326128,-0.086585,0.020529,-0.014666,0.048347,0.140884,-0.125800,0.755834,-0.626930,-100.048861,3.166329,-158.446065
58186,NaN,-0.948673,-9.547054,-1.975591,0.275984,0.411154,-0.029847,0.030701,-0.013843,0.026416,0.141071,-0.125722,0.755740,-0.627017,-100.030169,3.185327,-158.438334
58187,NaN,-1.035253,-9.314840,-1.912000,0.373044,0.430501,-0.264429,0.058417,-0.013141,0.004327,0.141210,-0.125700,0.755547,-0.627222,-99.995694,3.192898,-158.428898
58188,NaN,-0.934396,-9.624244,-1.868344,0.297514,0.302316,0.026518,0.044002,-0.020406,-0.017805,0.141292,-0.125801,0.755379,-0.627386,-99.968950,3.187632,-158.413042
58189,NaN,-0.975172,-9.633537,-1.782317,0.366859,0.243616,0.022897,0.075994,-0.019973,-0.041814,0.141323,-0.125962,0.755097,-0.627686,-99.923938,3.169829,-158.395162
58190,NaN,-0.913493,-9.471404,-1.713303,0.334056,0.195499,-0.152069,0.066050,-0.033323,-0.059061,0.141338,-0.126243,0.754825,-0.627954,-99.883958,3.142570,-158.367943
58191,NaN,-0.713346,-9.535951,-1.652555,0.173875,0.063109,-0.110114,0.067376,-0.032037,-0.072071,0.141314,-0.126562,0.754542,-0.628234,-99.843368,3.108846,-158.340294
58192,NaN,-0.364651,-9.751239,-1.549278,-0.105404,-0.189528,0.065210,0.064997,-0.031115,-0.070944,0.141283,-0.126882,0.754266,-0.628508,-99.804032,3.074655,-158.313202
58193,NaN,-0.131974,-9.848725,-1.622052,-0.345553,-0.217363,0.161239,0.087487,-0.016055,-0.046514,0.141292,-0.127040,0.753948,-0.628856,-99.752568,3.053765,-158.297133
58194,NaN,-0.063289,-9.682772,-1.664767,-0.428669,-0.163836,0.001634,0.117113,-0.018778,-0.027210,0.141385,-0.127120,0.753544,-0.629303,-99.683985,3.043016,-158.281315
58195,NaN,0.186353,-9.766140,-1.618131,-0.645008,-0.303581,0.062654,0.088754,-0.011720,-0.002672,0.141516,-0.127098,0.753252,-0.629627,-99.632157,3.046439,-158.271962
58196,NaN,-0.071527,-9.822164,-1.759065,-0.462604,-0.080458,0.154953,0.114022,0.005147,0.018181,0.141659,-0.126933,0.752904,-0.630045,-99.566298,3.058977,-158.274038
58197,NaN,-0.360100,-9.694997,-1.681105,-0.174476,-0.012676,0.032014,0.128439,0.016310,0.029350,0.141811,-0.126675,0.752526,-0.630514,-99.492740,3.077814,-158.283581
58198,NaN,-0.602250,-9.783789,-1.797668,0.000008,0.179014,0.151488,0.138411,0.024717,0.030858,0.141935,-0.126383,0.752122,-0.631026,-99.413575,3.095665,-158.297891
58199,NaN,-1.187119,-9.740311,-1.682647,0.576596,0.311316,0.121335,0.190259,0.036104,0.021749,0.142028,-0.126047,0.751558,-0.631744,-99.305167,3.108389,-158.317875
58200,NaN,-1.600820,-9.616255,-1.748942,0.926655,0.563136,0.032003,0.205715,0.025239,-0.003872,0.142083,-0.125836,0.750919,-0.632533,-99.187293,3.106641,-158.329213
58201,NaN,-1.654969,-9.753411,-1.545804,1.047229,0.396133,0.137377,0.262084,0.035540,-0.037772,0.142034,-0.125674,0.750088,-0.633562,-99.037418,3.085830,-158.343414
58202,NaN,-1.595584,-9.572874,-1.564893,0.978948,0.448251,-0.041538,0.282837,0.033949,-0.077355,0.141873,-0.125656,0.749162,-0.634696,-98.875268,3.041867,-158.353138
58203,NaN,-1.229289,-9.554897,-1.624864,0.613860,0.400782,-0.070519,0.306323,0.017871,-0.103360,0.141709,-0.125763,0.748134,-0.635923,-98.699203,2.985545,-158.351688
58204,NaN,-0.294111,-9.475937,-1.640242,-0.261922,0.114484,-0.195594,0.309321,0.032898,-0.114663,0.141450,-0.125868,0.747096,-0.637178,-98.521687,2.920676,-158.357878
58205,NaN,0.086293,-9.585297,-1.620016,-0.607339,-0.028628,-0.110108,0.321306,0.070391,-0.120232,0.141045,-0.125860,0.746043,-0.638503,-98.338487,2.850372,-158.385166
58206,NaN,0.230810,-9.597089,-1.407928,-0.662620,-0.245515,-0.135899,0.298133,0.099459,-0.116154,0.140525,-0.125765,0.745083,-0.639756,-98.169251,2.779199,-158.429414
58207,NaN,0.197586,-9.826505,-1.367736,-0.615356,-0.273353,0.087639,0.290046,0.121651,-0.098128,0.139979,-0.125533,0.744175,-0.640977,-98.005397,2.717466,-158.488014
58208,NaN,0.136120,-9.599513,-1.199002,-0.498966,-0.342674,-0.156585,0.282093,0.124546,-0.079489,0.139472,-0.125232,0.743303,-0.642157,-97.846079,2.665327,-158.549806
58209,NaN,0.017581,-9.640446,-1.073981,-0.344860,-0.393706,-0.126720,0.242985,0.117553,-0.060486,0.139032,-0.124905,0.742563,-0.643171,-97.709127,2.625598,-158.609327
58210,NaN,0.063560,-9.761761,-1.141959,-0.414659,-0.341992,0.001137,0.215588,0.112852,-0.041401,0.138648,-0.124547,0.741918,-0.644068,-97.587652,2.596247,-158.667621
58211,NaN,0.171242,-9.648966,-1.281144,-0.570956,-0.216984,-0.096716,0.198068,0.113051,-0.009939,0.138359,-0.124077,0.741349,-0.644875,-97.476442,2.585822,-158.728550
58212,NaN,0.354616,-9.657065,-1.199917,-0.717974,-0.341012,-0.107397,0.190009,0.153037,0.012034,0.137982,-0.123409,0.740844,-0.645663,-97.370803,2.584050,-158.813764
58213,NaN,0.267897,-9.629204,-1.100165,-0.609055,-0.380984,-0.143790,0.183773,0.170251,0.041188,0.137637,-0.122575,0.740390,-0.646416,-97.269427,2.598730,-158.911006
58214,NaN,-0.009857,-9.724779,-1.000539,-0.324017,-0.370889,-0.048983,0.175029,0.177428,0.073054,0.137356,-0.121612,0.739986,-0.647120,-97.173238,2.630137,-159.014496
58215,NaN,-0.090819,-9.499813,-1.296890,-0.368219,-0.024925,-0.231436,0.170371,0.143980,0.093445,0.137269,-0.120679,0.739587,-0.647769,-97.079124,2.676723,-159.100459
58216,NaN,-0.169816,-9.552944,-1.271851,-0.298870,-0.015886,-0.178603,0.145205,0.105435,0.111204,0.137360,-0.119828,0.739251,-0.648291,-96.998369,2.735187,-159.165549
58217,NaN,0.004004,-9.657389,-1.250860,-0.469008,-0.102473,-0.086469,0.126544,0.086288,0.137722,0.137602,-0.118947,0.738980,-0.648711,-96.928098,2.811206,-159.221617
58218,NaN,-0.057481,-9.697270,-1.356803,-0.466909,0.019533,-0.031949,0.137450,0.087400,0.157924,0.137906,-0.117988,0.738682,-0.649160,-96.851603,2.897634,-159.279498
58219,NaN,-0.242533,-9.631372,-1.255208,-0.277165,0.007104,-0.100798,0.156422,0.085402,0.176815,0.138296,-0.116945,0.738334,-0.649662,-96.764484,2.996105,-159.337523
58220,NaN,-0.337914,-9.676326,-1.189108,-0.186046,-0.018186,-0.059510,0.157950,0.075844,0.186486,0.138747,-0.115903,0.737977,-0.650158,-96.676187,3.099714,-159.390483
58221,NaN,-0.326322,-9.693689,-1.165487,-0.211291,-0.038454,-0.046097,0.161806,0.061236,0.197226,0.139295,-0.114859,0.737604,-0.650649,-96.585494,3.211579,-159.435791
58222,NaN,-0.340725,-9.706689,-1.117648,-0.204794,-0.071411,-0.038336,0.166240,0.051924,0.208128,0.139909,-0.113809,0.737214,-0.651145,-96.491941,3.329231,-159.476205
58223,NaN,-0.388220,-9.673586,-1.011034,-0.146995,-0.141662,-0.080810,0.168000,0.042331,0.212695,0.140580,-0.112765,0.736813,-0.651634,-96.397284,3.451265,-159.511373
58224,NaN,-0.467117,-9.641878,-1.011722,-0.098195,-0.101413,-0.107658,0.172518,0.028201,0.216950,0.141313,-0.111755,0.736388,-0.652131,-96.299484,3.575571,-159.538426
58225,NaN,-0.595345,-9.566615,-0.971102,0.011695,-0.076876,-0.178815,0.175988,0.014490,0.219206,0.142112,-0.110771,0.735943,-0.652627,-96.199395,3.703169,-159.557705
58226,NaN,-0.484416,-9.647955,-1.002166,-0.130834,-0.088793,-0.102025,0.166948,0.001589,0.222004,0.142956,-0.109833,0.735516,-0.653082,-96.103895,3.832084,-159.569451
58227,NaN,-0.354136,-9.806340,-0.970982,-0.272573,-0.175123,0.042641,0.168798,-0.007352,0.230309,0.143866,-0.108885,0.735082,-0.653530,-96.007181,3.967393,-159.576503
58228,NaN,-0.452935,-9.811064,-0.981898,-0.212107,-0.123202,0.054734,0.178938,-0.008518,0.235589,0.144798,-0.107920,0.734613,-0.654011,-95.904484,4.104681,-159.582842
58229,NaN,-0.664580,-9.794705,-0.988037,-0.044481,-0.033596,0.053971,0.180274,-0.008240,0.236111,0.145737,-0.106945,0.734141,-0.654493,-95.801182,4.243373,-159.589248
58230,NaN,-0.955662,-9.769774,-1.054306,0.177256,0.140992,0.057569,0.181905,-0.011577,0.220106,0.146629,-0.106045,0.733649,-0.654992,-95.696578,4.372031,-159.592446
58231,NaN,-1.241614,-9.823246,-1.075056,0.409543,0.262773,0.135010,0.181420,0.010094,0.188324,0.147344,-0.105183,0.733158,-0.655520,-95.593209,4.482464,-159.606133
58232,NaN,-1.416623,-10.002472,-1.006640,0.569076,0.249898,0.320587,0.185133,0.038919,0.129238,0.147756,-0.104448,0.732641,-0.656121,-95.488617,4.556555,-159.632707
58233,NaN,-1.848884,-9.952940,-1.062275,0.939276,0.471063,0.311720,0.196136,0.050887,0.073187,0.147951,-0.103863,0.732070,-0.656808,-95.378183,4.599153,-159.663063
58234,NaN,-1.955402,-9.811788,-1.312663,0.947144,0.773264,0.203441,0.189070,0.074118,-0.003890,0.147799,-0.103496,0.731496,-0.657539,-95.272400,4.595596,-159.702408
58235,NaN,-2.210347,-10.172358,-1.181995,1.215310,0.717089,0.568467,0.193185,0.114176,-0.095795,0.147205,-0.103324,0.730891,-0.658371,-95.165820,4.538590,-159.759995
58236,NaN,-2.445782,-10.111705,-0.961477,1.523670,0.622490,0.504470,0.212070,0.098305,-0.193202,0.146353,-0.103552,0.730160,-0.659336,-95.047129,4.426016,-159.803515
58237,NaN,-2.206366,-10.147060,-1.218747,1.224760,0.803046,0.539665,0.198979,0.084933,-0.285230,0.145245,-0.104163,0.729414,-0.660310,-94.935036,4.262570,-159.835102
58238,NaN,-2.020295,-10.268107,-1.293156,1.045385,0.826830,0.647294,0.222125,0.107024,-0.373403,0.143772,-0.105011,0.728557,-0.661443,-94.810105,4.046999,-159.875272
58239,NaN,-2.037760,-10.449415,-1.247953,1.105189,0.807610,0.818691,0.221673,0.130991,-0.460065,0.141929,-0.106090,0.727670,-0.662644,-94.686051,3.781674,-159.925586
58240,NaN,-2.069235,-10.534700,-1.404534,1.121384,0.995822,0.910411,0.233049,0.155918,-0.547117,0.139707,-0.107398,0.726711,-0.663957,-94.555837,3.464920,-159.986631
58241,NaN,-2.232604,-10.554295,-1.574927,1.267507,1.251883,0.942955,0.235078,0.193820,-0.613476,0.137131,-0.108815,0.725729,-0.665336,-94.425285,3.109377,-160.067157
58242,NaN,-2.626807,-11.401777,-1.230893,1.797368,1.033974,1.768136,0.247251,0.232021,-0.684577,0.134181,-0.110357,0.724684,-0.666821,-94.288198,2.711182,-160.167170
58243,NaN,-2.461823,-11.904456,-0.344776,2.008690,0.161977,2.180375,0.324227,0.227350,-0.796608,0.130918,-0.112263,0.723305,-0.668646,-94.106009,2.250004,-160.260952
58244,NaN,-2.777792,-11.657940,-0.901420,2.202538,0.877788,1.969226,0.332934,0.170699,-0.886897,0.127558,-0.114679,0.721794,-0.670515,-93.916802,1.739392,-160.320129
58245,NaN,-2.876601,-11.651399,-1.153965,2.301134,1.222382,1.958922,0.369912,0.134117,-0.981310,0.124034,-0.117530,0.720064,-0.672540,-93.705305,1.176814,-160.356606
58246,NaN,-2.494411,-11.602433,-1.179391,2.031827,1.200471,1.877418,0.355845,0.090039,-1.065306,0.120373,-0.120838,0.718283,-0.674521,-93.501081,0.567710,-160.366858
58247,NaN,-2.036729,-11.360655,-1.320804,1.656509,1.276214,1.614600,0.361404,0.046695,-1.146925,0.116593,-0.124577,0.716384,-0.676521,-93.293468,-0.086345,-160.351761
58248,NaN,-1.634936,-11.050959,-1.565288,1.299774,1.469406,1.295716,0.330957,-0.001860,-1.204431,0.112768,-0.128699,0.714497,-0.678391,-93.103705,-0.771851,-160.309304
58249,NaN,-1.310279,-10.766761,-1.631291,1.075526,1.514322,0.997009,0.309887,-0.028180,-1.246742,0.108877,-0.133068,0.712611,-0.680165,-92.926784,-1.480848,-160.252709
58250,NaN,-0.738628,-10.513175,-1.857873,0.564138,1.619286,0.750562,0.273834,-0.017812,-1.261482,0.104870,-0.137468,0.710815,-0.681797,-92.771081,-2.198673,-160.203657
58251,NaN,-0.183062,-10.138981,-2.219416,0.011374,1.854098,0.400982,0.273746,0.039870,-1.239602,0.100728,-0.141589,0.709035,-0.683430,-92.614355,-2.905723,-160.190190
58252,NaN,0.102483,-9.831157,-2.002994,-0.097417,1.630006,0.087132,0.284575,0.110144,-1.214937,0.096426,-0.145370,0.707244,-0.685110,-92.449366,-3.600342,-160.219583
58253,NaN,0.426006,-9.636774,-1.720431,-0.218197,1.323109,-0.106537,0.240387,0.156397,-1.185094,0.092025,-0.148904,0.705620,-0.686629,-92.307130,-4.279022,-160.278151
58254,NaN,0.728746,-9.457764,-1.662627,-0.399007,1.228053,-0.269296,0.204052,0.178839,-1.139913,0.087672,-0.152212,0.704142,-0.687989,-92.184103,-4.932051,-160.352189
58255,NaN,0.656944,-9.337826,-1.730402,-0.270513,1.370217,-0.396252,0.163896,0.176325,-1.092930,0.083454,-0.155377,0.702812,-0.689165,-92.082860,-5.558131,-160.427208
58256,NaN,0.614181,-9.304710,-1.593734,-0.098222,1.304968,-0.443514,0.164178,0.157990,-1.042176,0.079475,-0.158422,0.701495,-0.690284,-91.981922,-6.154486,-160.493799
58257,NaN,-0.117798,-9.084364,-0.887263,0.878741,0.927208,-0.774203,0.177403,0.122285,-0.968682,0.075882,-0.161323,0.700155,-0.691376,-91.874342,-6.708103,-160.542504
58258,NaN,-3.061870,-8.050085,-0.037562,3.858878,1.133871,-2.196706,0.152288,-0.189347,-0.927000,0.073503,-0.165160,0.698804,-0.692093,-91.802788,-7.231837,-160.412998
58259,NaN,-5.096824,-6.205065,-0.549544,5.395082,2.320140,-4.308876,-0.156498,-1.069332,-0.885723,0.074083,-0.172007,0.698204,-0.690968,-91.974891,-7.715416,-159.775554
58260,NaN,-5.086069,-5.459287,-2.319687,4.673733,4.028045,-5.018574,-0.581064,-1.941488,-0.691799,0.078009,-0.181330,0.698861,-0.687479,-92.464398,-8.064384,-158.634839
58261,NaN,-4.973200,-5.769446,-2.952575,4.337862,4.636350,-4.672303,-0.778838,-2.345941,-0.442380,0.084013,-0.191226,0.700167,-0.682745,-93.104796,-8.248776,-157.263215
58262,NaN,-4.194252,-5.789009,-2.975614,3.551252,4.396489,-4.519523,-0.891006,-2.442877,-0.208655,0.091039,-0.200646,0.701928,-0.677310,-93.819840,-8.279042,-155.841185
58263,NaN,-3.252636,-5.857563,-3.276311,2.518219,4.292926,-4.258085,-0.978619,-2.317527,0.070766,0.098462,-0.208673,0.704203,-0.671460,-94.571113,-8.137901,-154.503350
58264,NaN,-2.722222,-5.977169,-3.634633,1.837989,4.357832,-3.983644,-0.975852,-1.983461,0.397700,0.105804,-0.214389,0.706881,-0.665705,-95.286741,-7.808262,-153.376945
58265,NaN,-2.449903,-6.173990,-3.567246,1.583771,4.117454,-3.698556,-0.912397,-1.530261,0.729811,0.112698,-0.217373,0.709858,-0.660417,-95.919727,-7.302872,-152.535159
58266,NaN,-2.458572,-6.540173,-3.051969,1.810140,3.582176,-3.330155,-0.843730,-1.051883,1.054846,0.119042,-0.217559,0.713180,-0.655646,-96.469160,-6.631698,-151.994410
58267,NaN,-2.417690,-7.100808,-2.574201,2.009020,3.033090,-2.765983,-0.775989,-0.603208,1.325854,0.124730,-0.215259,0.716783,-0.651405,-96.941387,-5.833208,-151.735679
58268,NaN,-2.389448,-7.636002,-1.814601,2.336397,2.223530,-2.269061,-0.676396,-0.201469,1.552582,0.129826,-0.210753,0.720514,-0.647756,-97.330111,-4.930637,-151.728870
58269,NaN,-2.548520,-8.194588,-0.863738,2.901994,1.313994,-1.797575,-0.600312,0.071377,1.736249,0.134593,-0.204643,0.724303,-0.644508,-97.660577,-3.945965,-151.897081
58270,NaN,-2.664425,-8.799264,-0.035592,3.352482,0.466648,-1.264714,-0.547627,0.194901,1.879386,0.139428,-0.197553,0.728096,-0.641412,-97.959727,-2.888523,-152.151846
58271,NaN,-2.783363,-9.341378,0.611755,3.685451,-0.233683,-0.771548,-0.497027,0.164506,1.987133,0.144742,-0.190123,0.731728,-0.638340,-98.233817,-1.770866,-152.403159
58272,NaN,-2.880266,-9.814899,1.098221,3.890719,-0.809180,-0.323854,-0.468367,0.017189,2.059835,0.150852,-0.182844,0.735160,-0.635100,-98.498941,-0.598635,-152.582139
58273,NaN,-2.902227,-10.431860,1.386666,3.926201,-1.271889,0.293372,-0.438798,-0.203767,2.103330,0.157909,-0.176075,0.738278,-0.631671,-98.749893,0.614124,-152.644893
58274,NaN,-2.596816,-10.929520,1.379502,3.504037,-1.616602,0.827081,-0.399104,-0.441020,2.122276,0.165932,-0.169920,0.741019,-0.628081,-98.977433,1.860754,-152.580186
58275,NaN,-2.184006,-11.260566,1.262132,2.910416,-1.892462,1.192159,-0.354766,-0.634232,2.122539,0.174674,-0.164325,0.743361,-0.624420,-99.172851,3.122754,-152.410508
58276,NaN,-1.690476,-11.407001,0.957081,2.140305,-2.012735,1.379127,-0.270843,-0.758132,2.112588,0.183907,-0.159046,0.745236,-0.620892,-99.312508,4.393622,-152.173395
58277,NaN,-1.202525,-11.139745,0.673170,1.375915,-2.070687,1.132989,-0.166501,-0.790177,2.102496,0.193273,-0.153802,0.746648,-0.617663,-99.385131,5.659602,-151.918901
58278,NaN,-0.797566,-10.878421,0.384722,0.686799,-2.078251,0.879790,-0.088910,-0.746676,2.104975,0.202534,-0.148304,0.747774,-0.614671,-99.410786,6.925757,-151.690163
58279,NaN,-0.295007,-10.668205,0.017878,-0.121368,-2.067742,0.656480,-0.022739,-0.656765,2.102797,0.211461,-0.142468,0.748688,-0.611926,-99.399889,8.179664,-151.511789
58280,NaN,0.401199,-10.473057,-0.320179,-1.077820,-2.171988,0.388544,0.005503,-0.577904,2.084603,0.220047,-0.136396,0.749500,-0.609282,-99.375593,9.418417,-151.376115
58281,NaN,1.209971,-10.823875,-0.802110,-2.229967,-2.326538,0.621575,-0.019954,-0.490762,2.055166,0.228159,-0.130198,0.750376,-0.606570,-99.370968,10.629808,-151.286616
58282,NaN,1.524909,-11.401083,-1.216860,-2.949397,-2.362830,1.119115,0.014230,-0.375150,1.999065,0.235679,-0.123791,0.751165,-0.604055,-99.356781,11.801047,-151.258109
58283,NaN,1.590813,-11.512239,-1.333026,-3.269190,-2.422820,1.154414,0.056516,-0.215703,1.931424,0.242384,-0.117109,0.751894,-0.601822,-99.336034,12.916844,-151.314708
58284,NaN,1.698735,-11.670741,-1.451389,-3.628879,-2.501870,1.222092,0.094013,-0.003308,1.845574,0.248045,-0.110042,0.752652,-0.599900,-99.321615,13.966456,-151.486684
58285,NaN,2.180744,-11.631232,-1.586077,-4.282360,-2.673961,1.006960,0.128211,0.253273,1.726985,0.252371,-0.102613,0.753496,-0.598350,-99.325216,14.923158,-151.797524
58286,NaN,2.969124,-11.443366,-1.829183,-5.211562,-2.828730,0.577090,0.135846,0.505983,1.562366,0.255247,-0.095021,0.754499,-0.597119,-99.364591,15.764881,-152.242490
58287,NaN,3.785447,-11.154653,-2.072237,-6.121160,-2.933330,0.034908,0.140259,0.706864,1.332666,0.256657,-0.087694,0.755587,-0.596259,-99.434460,16.455847,-152.785605
58288,NaN,4.263532,-10.913835,-2.045301,-6.585895,-3.100334,-0.406013,0.107622,0.777550,1.032463,0.256884,-0.081320,0.756695,-0.595660,-99.532811,16.970966,-153.343726
58289,NaN,4.732335,-10.892793,-1.904084,-6.993964,-3.405450,-0.638791,0.029031,0.692183,0.666066,0.256296,-0.076693,0.757753,-0.595182,-99.655050,17.284964,-153.816893
58290,NaN,4.434510,-11.474482,-2.269560,-7.064061,-3.118255,0.028807,-0.107592,0.507747,0.238085,0.255080,-0.074406,0.758805,-0.594653,-99.812167,17.374742,-154.138928
58291,NaN,7.413501,-11.776594,-2.153226,-9.622008,-4.533595,-0.585127,-0.039375,0.186271,-0.278449,0.253568,-0.074952,0.759048,-0.594921,-99.857734,17.203131,-154.217954
58292,NaN,9.600805,-11.885112,-2.057488,-11.432076,-5.544405,-1.081674,-0.180732,0.098444,-0.754090,0.250920,-0.077742,0.759415,-0.595217,-99.954395,16.771675,-154.195786
58293,NaN,8.361952,-12.221066,-2.256778,-10.437068,-4.921691,-0.262192,0.036451,0.189413,-1.106230,0.246957,-0.081324,0.759096,-0.596802,-99.931558,16.132452,-154.190584
58294,NaN,-3.994241,-10.250821,0.269299,1.869433,-1.338941,0.949151,0.314639,0.273421,-1.034155,0.242991,-0.084042,0.758056,-0.599370,-99.765207,15.524872,-154.243041
58295,NaN,-10.095389,-7.550759,-0.158406,7.477654,2.383005,0.054472,0.121877,-0.188899,-0.865232,0.241201,-0.087732,0.757083,-0.600791,-99.642211,15.058273,-154.043267
58296,NaN,-8.078242,-8.759405,-1.407289,5.005839,2.364920,0.832200,-0.419465,-0.694620,-0.870595,0.241062,-0.093614,0.757103,-0.599933,-99.755101,14.636956,-153.547879
58297,NaN,-3.256937,-13.872110,-1.938967,-0.073492,-0.558815,4.556830,-0.673440,-0.974321,-1.139429,0.241047,-0.101651,0.757384,-0.598275,-99.970356,14.093189,-152.862176
58298,NaN,-0.100956,-14.932204,-1.965217,-2.784627,-2.179042,4.827579,-0.267373,-0.870469,-1.404428,0.240035,-0.109887,0.756388,-0.598486,-99.968228,13.390516,-152.210535
58299,NaN,0.901521,-11.097633,-0.624319,-2.359992,-2.726142,0.739873,-0.036518,-0.536064,-1.432798,0.237786,-0.116944,0.755039,-0.599749,-99.885466,12.638636,-151.752256
58300,NaN,0.000903,-9.410257,-0.825765,-1.378593,-1.658644,-0.615846,-0.143026,-0.299958,-1.346300,0.234827,-0.123089,0.754300,-0.600614,-99.900615,11.911536,-151.440799
58301,NaN,-1.927871,-7.995201,-1.146777,0.353932,-0.087920,-1.516831,-0.154550,-0.283028,-1.228610,0.232143,-0.128745,0.753655,-0.601281,-99.930613,11.249849,-151.151508
58302,NaN,-0.980602,-7.931023,-1.133408,-0.362378,-0.498730,-1.764915,-0.319974,-0.234563,-1.093197,0.229565,-0.133935,0.753622,-0.601178,-100.066183,10.659563,-150.903390
58303,NaN,1.000611,-10.319667,-0.706369,-1.928782,-2.363412,0.121534,-0.357354,0.052835,-1.012162,0.226119,-0.137992,0.754063,-0.601013,-100.256736,10.087221,-150.827201
58304,NaN,-0.025492,-10.531125,-0.967833,-1.087714,-1.678939,0.571869,-0.246525,0.248531,-0.972469,0.222121,-0.141185,0.754398,-0.601342,-100.403840,9.516658,-150.865454
58305,NaN,-0.664683,-9.290079,-1.044124,-0.416583,-0.991752,-0.502485,-0.269263,0.214287,-0.827492,0.218671,-0.143953,0.754850,-0.601384,-100.562874,9.031955,-150.897933
58306,NaN,-0.167750,-9.170962,-1.037870,-0.759084,-1.200135,-0.691565,-0.404357,0.099430,-0.697692,0.215939,-0.146726,0.755660,-0.600683,-100.790650,8.631626,-150.877150
58307,NaN,-0.021805,-9.585714,-1.631913,-1.125468,-0.871313,-0.193789,-0.449435,0.012907,-0.634246,0.213692,-0.149561,0.756549,-0.599668,-101.038178,8.277262,-150.812524
58308,NaN,0.135752,-9.611940,-2.221553,-1.489141,-0.467137,-0.070666,-0.440478,-0.009664,-0.545931,0.211795,-0.152123,0.757440,-0.598570,-101.280047,7.974438,-150.743432
58309,NaN,0.180641,-9.607077,-2.545266,-1.628728,-0.229046,-0.009555,-0.417487,0.045834,-0.457349,0.209972,-0.154152,0.758383,-0.597499,-101.514860,7.716253,-150.714778
58310,NaN,-0.096253,-9.619366,-2.558891,-1.340881,-0.099001,0.050445,-0.354795,0.097259,-0.410008,0.208137,-0.155786,0.759220,-0.596653,-101.718088,7.477831,-150.719693
58311,NaN,-0.516796,-9.743073,-2.660501,-0.980273,0.152272,0.251532,-0.276459,0.107683,-0.362062,0.206470,-0.157120,0.759869,-0.596055,-101.878035,7.266047,-150.735484
58312,NaN,-0.625433,-9.914814,-3.013432,-1.021418,0.457638,0.508291,-0.183298,0.125642,-0.320099,0.204927,-0.158149,0.760287,-0.595783,-101.986186,7.074579,-150.765837
58313,NaN,-0.636823,-9.757967,-3.053283,-0.994819,0.539078,0.368945,-0.070328,0.180074,-0.290665,0.203359,-0.158783,0.760447,-0.595948,-102.033837,6.894120,-150.830274
58314,NaN,-0.792784,-9.657135,-2.646304,-0.625913,0.308185,0.207534,0.002078,0.235537,-0.273998,0.201680,-0.159119,0.760456,-0.596417,-102.043606,6.715259,-150.927802
58315,NaN,-1.225521,-9.525872,-2.076506,0.059422,0.082815,0.013073,0.027916,0.225996,-0.265724,0.200089,-0.159420,0.760385,-0.596963,-102.037892,6.543253,-151.021000
58316,NaN,-1.278268,-9.557877,-2.008321,0.165311,0.056453,0.035650,-0.012183,0.201059,-0.264195,0.198558,-0.159836,0.760406,-0.597336,-102.053200,6.373994,-151.100172
58317,NaN,-1.299828,-9.575846,-1.984426,0.222682,0.053920,0.049957,-0.016018,0.164772,-0.273860,0.197139,-0.160394,0.760394,-0.597671,-102.068207,6.204727,-151.157755
58318,NaN,-1.432214,-9.433483,-1.905747,0.402513,0.095325,-0.091446,-0.036274,0.098546,-0.288063,0.195906,-0.161229,0.760363,-0.597891,-102.090368,6.034362,-151.176136
58319,NaN,-1.164765,-9.471151,-2.140215,0.082618,0.166913,-0.034899,-0.054375,0.053436,-0.307482,0.194779,-0.162285,0.760326,-0.598021,-102.120074,5.859592,-151.166779
58320,NaN,-1.105106,-9.350432,-2.109671,0.072562,0.152154,-0.165199,-0.026882,0.043626,-0.329680,0.193637,-0.163433,0.760176,-0.598270,-102.133113,5.672537,-151.149056
58321,NaN,-1.035423,-9.348420,-2.041376,0.074628,0.074508,-0.188704,-0.038528,0.035436,-0.348714,0.192466,-0.164682,0.760036,-0.598483,-102.152321,5.476847,-151.124467
58322,NaN,-1.120629,-9.386614,-2.047973,0.177808,0.125597,-0.142577,-0.046686,0.033950,-0.365825,0.191236,-0.166014,0.759901,-0.598680,-102.175902,5.270742,-151.096808
58323,NaN,-0.996985,-9.368409,-2.009358,0.121867,0.050266,-0.180393,-0.069836,0.038499,-0.382165,0.189926,-0.167411,0.759826,-0.598804,-102.212998,5.055970,-151.069716
58324,NaN,-0.715854,-9.510219,-2.082816,-0.119615,-0.043604,-0.051616,-0.086681,0.061112,-0.384452,0.188502,-0.168769,0.759816,-0.598886,-102.260802,4.836192,-151.054812
58325,NaN,-0.580183,-9.472912,-2.061413,-0.192243,-0.107662,-0.103237,-0.079650,0.089497,-0.378415,0.187000,-0.170007,0.759815,-0.599007,-102.306099,4.617345,-151.056509
58326,NaN,-0.581949,-9.608402,-2.006184,-0.122487,-0.172897,0.017867,-0.084942,0.109196,-0.372794,0.185429,-0.171174,0.759849,-0.599120,-102.355228,4.398228,-151.069686
58327,NaN,-0.594534,-9.623782,-2.228290,-0.182283,0.028577,0.081844,-0.084062,0.120974,-0.366419,0.183838,-0.172274,0.759895,-0.599236,-102.404444,4.182225,-151.090155
58328,NaN,-0.482516,-9.711646,-2.284052,-0.267301,0.013458,0.172002,-0.069567,0.122424,-0.354318,0.182283,-0.173316,0.759906,-0.599398,-102.445329,3.971790,-151.112668
58329,NaN,-0.320635,-9.619460,-2.262804,-0.367985,-0.050970,0.067544,-0.067693,0.122629,-0.339916,0.180778,-0.174295,0.759922,-0.599549,-102.485279,3.770380,-151.137018
58330,NaN,-0.314473,-9.605612,-2.313364,-0.365893,0.003385,0.065792,-0.048358,0.115898,-0.322417,0.179361,-0.175215,0.759886,-0.599752,-102.513864,3.578558,-151.159550
58331,NaN,-0.306374,-9.567834,-2.249969,-0.314550,-0.033723,0.015818,-0.023540,0.102409,-0.307429,0.178068,-0.176090,0.759776,-0.600021,-102.527899,3.397806,-151.176405
58332,NaN,-0.298370,-9.397867,-2.560631,-0.453252,0.275783,-0.082107,-0.020866,0.057566,-0.292783,0.176985,-0.177047,0.759627,-0.600248,-102.538918,3.229784,-151.169824
58333,NaN,-0.394316,-9.949040,-2.138802,-0.109511,-0.142014,0.369705,0.012315,0.091979,-0.285951,0.175827,-0.177839,0.759415,-0.600622,-102.532131,3.062338,-151.183460
58334,NaN,-0.459423,-9.262209,-2.141728,-0.071314,0.053637,-0.295409,0.008871,0.049453,-0.253382,0.174918,-0.178644,0.759203,-0.600917,-102.526182,2.917355,-151.177250
58335,NaN,-0.095669,-9.688890,-2.281287,-0.409275,-0.081109,0.132858,0.013177,0.073086,-0.258462,0.173914,-0.179387,0.758993,-0.601251,-102.518476,2.767634,-151.183759
58336,NaN,-0.309399,-9.515770,-2.076773,-0.113950,-0.101644,-0.069216,0.022110,0.076449,-0.240414,0.172953,-0.180050,0.758774,-0.601608,-102.505769,2.626545,-151.194320
58337,NaN,-0.254291,-9.532586,-2.071704,-0.139197,-0.122175,-0.056025,0.033976,0.074660,-0.238996,0.172020,-0.180696,0.758518,-0.602003,-102.486264,2.487521,-151.204194
58338,NaN,-0.353495,-9.472072,-2.079213,-0.041201,-0.041149,-0.108833,0.034862,0.071295,-0.229663,0.171122,-0.181322,0.758263,-0.602393,-102.466135,2.353087,-151.213288
58339,NaN,-0.323303,-9.513124,-2.158084,-0.084219,0.017061,-0.052874,0.037933,0.063673,-0.235140,0.170245,-0.181982,0.757988,-0.602788,-102.444094,2.217586,-151.217584
58340,NaN,-0.312364,-9.371988,-2.079229,-0.047421,-0.011606,-0.207871,0.038066,0.064626,-0.241723,0.169339,-0.182670,0.757704,-0.603192,-102.421895,2.077238,-151.221554
58341,NaN,-0.323304,-9.321253,-2.039065,-0.003075,-0.015778,-0.265554,0.029684,0.064248,-0.253364,0.168397,-0.183404,0.757435,-0.603571,-102.404495,1.931471,-151.224025
58342,NaN,-0.338335,-9.292511,-2.069945,0.014008,0.037275,-0.286499,0.008982,0.052187,-0.263195,0.167445,-0.184236,0.757206,-0.603869,-102.398631,1.780646,-151.218463
58343,NaN,-0.278977,-9.434021,-2.129077,-0.033545,0.043941,-0.137543,0.017136,0.052332,-0.272686,0.166478,-0.185089,0.756945,-0.604203,-102.388140,1.625532,-151.211935
58344,NaN,-0.392386,-9.443649,-2.107596,0.099532,0.092449,-0.129717,0.010436,0.047852,-0.281921,0.165487,-0.186002,0.756688,-0.604517,-102.381350,1.464767,-151.201690
58345,NaN,-0.296601,-9.511642,-2.141188,0.029306,0.075837,-0.058852,0.008334,0.061582,-0.299916,0.164394,-0.186937,0.756433,-0.604846,-102.375984,1.293276,-151.197036
58346,NaN,-0.315924,-9.532100,-2.114370,0.086822,0.073422,-0.044459,0.005076,0.075601,-0.314713,0.163193,-0.187893,0.756181,-0.605189,-102.372571,1.110764,-151.198329
58347,NaN,-0.391903,-9.616926,-2.200647,0.147312,0.182888,0.057797,0.007309,0.076126,-0.327794,0.161959,-0.188890,0.755911,-0.605549,-102.367906,0.921886,-151.198419
58348,NaN,-0.341531,-9.581528,-2.186950,0.135502,0.171106,0.018758,0.014514,0.082624,-0.349097,0.160636,-0.189946,0.755600,-0.605959,-102.359077,0.719287,-151.199459
58349,NaN,-0.248608,-9.575002,-2.140496,0.106006,0.106032,0.000651,0.007776,0.091993,-0.366900,0.159222,-0.191041,0.755299,-0.606362,-102.354188,0.506577,-151.203680
58350,NaN,-0.211584,-9.512520,-2.228559,0.057992,0.194231,-0.042423,0.011910,0.101782,-0.375770,0.157743,-0.192141,0.754981,-0.606798,-102.346898,0.286720,-151.212221
58351,NaN,-0.019592,-9.461961,-2.192148,-0.065413,0.099466,-0.100823,0.010028,0.124473,-0.385016,0.156153,-0.193202,0.754676,-0.607251,-102.340735,0.059893,-151.232450
58352,NaN,-0.019995,-9.497127,-2.135323,-0.000828,0.064153,-0.078666,0.008754,0.141518,-0.392815,0.154467,-0.194246,0.754376,-0.607721,-102.335174,-0.174355,-151.261193
58353,NaN,0.027081,-9.477340,-2.107416,0.003936,0.040992,-0.103925,-0.001528,0.160408,-0.401100,0.152680,-0.195266,0.754112,-0.608173,-102.335373,-0.414581,-151.299601
58354,NaN,0.107552,-9.559458,-2.099925,-0.017793,0.000549,-0.024735,-0.004992,0.174057,-0.405748,0.150818,-0.196269,0.753860,-0.608628,-102.337292,-0.660042,-151.344983
58355,NaN,0.077018,-9.485265,-2.180830,-0.000024,0.117993,-0.080364,-0.005417,0.187939,-0.409315,0.148897,-0.197238,0.753613,-0.609093,-102.339195,-0.908239,-151.397788
58356,NaN,0.058332,-9.489221,-2.143521,0.072489,0.114280,-0.085153,-0.011678,0.205038,-0.424018,0.146854,-0.198218,0.753379,-0.609560,-102.344277,-1.167715,-151.458257
58357,NaN,0.030160,-9.644116,-2.254653,0.104550,0.216347,0.088596,-0.013396,0.215875,-0.438004,0.144731,-0.199213,0.753141,-0.610037,-102.349999,-1.435400,-151.523156
58358,NaN,-0.096430,-9.636978,-2.355100,0.210934,0.386491,0.098572,-0.003989,0.224591,-0.457961,0.142517,-0.200255,0.752855,-0.610570,-102.349926,-1.716262,-151.590389
58359,NaN,-0.034169,-9.676361,-2.436895,0.167787,0.444628,0.154534,0.007568,0.232967,-0.484398,0.140207,-0.201354,0.752510,-0.611169,-102.342873,-2.012007,-151.659193
58360,NaN,-0.013300,-9.670697,-2.282629,0.265246,0.329321,0.114744,0.026212,0.237196,-0.513726,0.137804,-0.202543,0.752074,-0.611859,-102.324803,-2.325576,-151.726756
58361,NaN,0.181443,-9.660134,-2.140137,0.204452,0.144878,0.080150,0.037183,0.224565,-0.540148,0.135383,-0.203854,0.751564,-0.612590,-102.300524,-2.651462,-151.784238
58362,NaN,0.180812,-9.668607,-2.140648,0.254858,0.175357,0.086859,0.045203,0.214503,-0.570092,0.132909,-0.205307,0.750985,-0.613356,-102.271757,-2.993734,-151.832496
58363,NaN,0.149125,-9.786763,-2.379068,0.243477,0.410265,0.248873,0.042831,0.200842,-0.592687,0.130420,-0.206881,0.750375,-0.614108,-102.244630,-3.346096,-151.870618
58364,NaN,0.243329,-9.713354,-2.388900,0.198313,0.421004,0.182230,0.063803,0.227586,-0.614138,0.127779,-0.208443,0.749687,-0.614975,-102.204471,-3.714538,-151.921264
58365,NaN,0.231990,-10.002198,-2.331827,0.334921,0.367975,0.448268,0.043543,0.270871,-0.635560,0.124893,-0.209957,0.749059,-0.615817,-102.174091,-4.099336,-151.993952
58366,NaN,0.276256,-10.222147,-2.160445,0.468693,0.203073,0.626409,0.053530,0.333115,-0.667554,0.121679,-0.211396,0.748395,-0.616774,-102.135145,-4.510332,-152.097908
58367,NaN,0.024784,-10.582194,-1.758810,0.994452,-0.043589,0.868393,0.021961,0.376811,-0.705153,0.118156,-0.212852,0.747806,-0.617673,-102.111832,-4.946779,-152.222263
58368,NaN,-0.296487,-11.323493,-2.215599,1.280052,0.437410,1.649761,0.007697,0.397822,-0.741109,0.114421,-0.214387,0.747221,-0.618552,-102.095018,-5.406611,-152.354256
58369,NaN,-0.370018,-11.841638,-2.546605,1.378528,0.734008,2.204237,0.036110,0.410518,-0.798285,0.110495,-0.216071,0.746482,-0.619572,-102.060783,-5.899180,-152.486900
58370,NaN,-0.356190,-12.261486,-2.202489,1.686085,0.423454,2.528243,0.085425,0.438538,-0.856591,0.106330,-0.217858,0.745525,-0.620826,-101.996096,-6.428314,-152.628817
58371,NaN,-0.275250,-12.747888,-1.487428,2.114919,-0.242822,2.846842,0.110046,0.436321,-0.934188,0.101962,-0.219919,0.744388,-0.622194,-101.917099,-6.999843,-152.761098
58372,NaN,-0.492441,-12.778511,-1.529734,2.401238,-0.037677,2.840534,0.155200,0.426022,-1.003231,0.097460,-0.222243,0.743008,-0.623738,-101.812448,-7.609201,-152.880413
58373,NaN,-0.428571,-12.449613,-1.541342,2.383885,0.062022,2.510616,0.141406,0.434210,-1.083091,0.092663,-0.224834,0.741564,-0.625257,-101.714955,-8.263560,-152.996241
58374,NaN,-0.505150,-12.403525,-1.745388,2.476598,0.362507,2.470720,0.133609,0.416624,-1.164949,0.087662,-0.227782,0.740015,-0.626744,-101.623167,-8.962019,-153.093799
58375,NaN,-0.701218,-11.916650,-1.610597,2.722219,0.465044,1.911795,0.109908,0.382025,-1.259803,0.082463,-0.231188,0.738389,-0.628119,-101.548680,-9.709200,-153.161824
58376,NaN,-0.729761,-12.153276,-1.577994,2.955424,0.503460,2.092533,0.036890,0.360032,-1.364865,0.076925,-0.235071,0.736826,-0.629215,-101.519118,-10.513008,-153.205987
58377,NaN,-0.926651,-12.296160,-1.683386,3.273689,0.753489,2.170646,0.048647,0.333024,-1.483814,0.071124,-0.239459,0.735039,-0.630333,-101.487848,-11.380263,-153.221358
58378,NaN,-1.075668,-12.087291,-1.893448,3.429400,1.110526,1.928157,-0.031908,0.321409,-1.597645,0.064906,-0.244315,0.733318,-0.631144,-101.506300,-12.310126,-153.217044
58379,NaN,-0.894682,-12.678141,-2.672331,3.300642,1.771585,2.622748,0.069658,0.334138,-1.709612,0.058407,-0.249493,0.731093,-0.632333,-101.468138,-13.304285,-153.206993
58380,NaN,-0.533587,-11.732004,-2.409065,3.001080,1.559602,1.688845,0.183791,0.386558,-1.810680,0.051537,-0.254818,0.728337,-0.633985,-101.359749,-14.360947,-153.216882
58381,NaN,-0.519110,-11.343142,-2.799114,2.901976,2.034071,1.332182,-0.027520,0.467194,-1.900134,0.043814,-0.260247,0.726092,-0.634934,-101.362883,-15.477165,-153.264094
58382,NaN,-0.040870,-11.527397,-3.411121,2.511377,2.466768,1.681715,0.002805,0.541030,-1.973067,0.035629,-0.265671,0.723601,-0.636044,-101.337771,-16.642231,-153.346576
58383,NaN,0.198044,-11.808026,-4.208849,2.301634,3.188266,2.091719,0.185723,0.598527,-1.986703,0.027429,-0.270904,0.720443,-0.637825,-101.196272,-17.821720,-153.463382
58384,NaN,0.759616,-10.452761,-3.436119,1.838616,2.436559,0.785522,0.298454,0.701555,-2.034047,0.018861,-0.275928,0.716795,-0.640088,-100.968616,-19.038149,-153.640708
58385,NaN,1.202537,-10.487108,-3.738329,1.556821,2.650975,0.955056,0.130793,0.806283,-2.026522,0.009704,-0.280578,0.713619,-0.641817,-100.810383,-20.261770,-153.886960
58386,NaN,1.787966,-10.683151,-4.411093,1.093290,3.144250,1.398796,0.155127,0.880448,-1.968649,0.000506,-0.284744,0.710369,-0.643659,-100.612887,-21.459152,-154.190605
58387,NaN,1.589552,-10.877073,-4.491234,1.501898,3.444061,1.451676,0.544972,0.900129,-1.878499,-0.007922,-0.288498,0.705907,-0.646839,-100.174413,-22.607002,-154.525762
58388,NaN,2.136028,-8.775437,-3.101017,0.837123,2.090561,-0.533002,0.404261,0.978543,-1.855121,-0.016747,-0.291872,0.701854,-0.649562,-99.785944,-23.746182,-154.923410
58389,NaN,2.687572,-9.564943,-3.574112,0.710990,2.453094,0.432232,0.290692,1.044457,-1.763665,-0.025676,-0.294675,0.698218,-0.651920,-99.429819,-24.838597,-155.383010
58390,NaN,2.714474,-9.399124,-3.591879,0.770380,2.586655,0.253371,0.321144,1.155062,-1.674657,-0.034647,-0.296774,0.694530,-0.654487,-99.009998,-25.886876,-155.932997
58391,NaN,2.020309,-9.071504,-3.758053,1.285402,3.112855,-0.370690,0.383273,1.161200,-1.630311,-0.043405,-0.298684,0.690626,-0.657221,-98.535503,-26.907761,-156.505202
58392,NaN,2.249156,-8.233330,-2.862386,1.136868,2.274759,-1.177278,0.369182,1.019813,-1.579377,-0.051516,-0.300845,0.686814,-0.659639,-98.093461,-27.882706,-157.005976
58393,NaN,2.951829,-7.838076,-2.355425,0.658182,1.636471,-1.293082,0.274798,0.885983,-1.467885,-0.058946,-0.303021,0.683454,-0.661509,-97.728231,-28.781881,-157.442764
58394,NaN,3.422629,-7.316140,-2.117860,0.200244,1.309388,-1.568312,0.200317,0.779005,-1.291911,-0.065529,-0.304902,0.680599,-0.662968,-97.422487,-29.569461,-157.834507
58395,NaN,3.421584,-7.492871,-2.267600,0.334395,1.537221,-1.415284,0.172690,0.752690,-1.141847,-0.071572,-0.306340,0.678031,-0.664310,-97.126055,-30.269334,-158.229475
58396,NaN,4.479932,-7.547318,-2.705686,-0.534446,1.692449,-0.801512,0.155827,0.831833,-1.059373,-0.077623,-0.307211,0.675592,-0.665711,-96.802342,-30.924604,-158.690186
58397,NaN,-0.316104,-7.237603,-0.198448,3.962436,0.854154,-3.805080,0.479118,0.878072,-0.791632,-0.082447,-0.307140,0.672436,-0.668354,-96.257734,-31.428785,-159.210987
58398,NaN,-3.847533,-4.945115,1.125384,5.999216,0.514263,-7.746545,0.386048,0.077069,-0.695652,-0.084390,-0.309371,0.670056,-0.669472,-96.037763,-31.824702,-159.208887
58399,NaN,-2.938908,-4.771698,-1.610236,4.363185,2.845597,-7.192711,-0.022633,-0.822096,-0.429308,-0.083068,-0.313547,0.669816,-0.667933,-96.360172,-32.014729,-158.622734
58400,NaN,-3.539102,-5.819371,-1.144120,5.523757,2.710593,-6.675809,-0.075298,-1.151510,-0.136004,-0.079732,-0.317802,0.670338,-0.665801,-96.820578,-32.010944,-157.835805
58401,NaN,-1.764192,-6.301411,-1.541143,4.242018,2.579645,-5.279925,-0.133893,-1.275747,0.019999,-0.075562,-0.321921,0.671319,-0.663316,-97.350108,-31.905719,-156.979419
58402,NaN,0.279852,-6.037815,-1.972118,2.342598,2.276014,-4.357903,-0.098475,-1.188278,0.175287,-0.071097,-0.325219,0.672382,-0.661120,-97.818722,-31.710419,-156.197584
58403,NaN,0.018322,-5.696906,-2.165533,2.271442,2.497435,-4.738459,-0.065466,-1.022104,0.432433,-0.066298,-0.327114,0.673663,-0.659378,-98.192153,-31.379772,-155.554586
58404,NaN,-0.250926,-6.160737,-2.246561,2.657080,2.685343,-4.446756,-0.048085,-0.877247,0.684014,-0.061113,-0.327668,0.675240,-0.657989,-98.487687,-30.912984,-155.036722
58405,NaN,-0.168842,-6.449227,-1.878808,2.820083,2.314328,-4.169857,0.034620,-0.753607,0.906775,-0.055489,-0.327089,0.676838,-0.657133,-98.675705,-30.331064,-154.627729
58406,NaN,-0.074871,-6.526294,-1.465287,2.870790,1.877316,-4.069965,0.059413,-0.667838,1.120617,-0.049394,-0.325487,0.678666,-0.656530,-98.805296,-29.631951,-154.300609
58407,NaN,-0.152716,-6.638811,-1.323903,2.967996,1.755061,-3.985180,0.061750,-0.616706,1.316802,-0.042838,-0.323047,0.680748,-0.656039,-98.901238,-28.828314,-154.030707
58408,NaN,-0.281227,-6.718429,-1.104880,3.107768,1.574415,-3.956137,0.064941,-0.588170,1.485218,-0.035802,-0.319909,0.683058,-0.655598,-98.974061,-27.928748,-153.799567
58409,NaN,-0.473804,-6.819345,-0.723156,3.362770,1.267847,-3.953153,0.045499,-0.604333,1.631376,-0.028277,-0.316313,0.685608,-0.655049,-99.050353,-26.947559,-153.576394
58410,NaN,-0.557491,-6.961416,-0.545501,3.468459,1.102467,-3.827482,-0.023915,-0.696754,1.762776,-0.020095,-0.312517,0.688560,-0.654075,-99.181802,-25.880272,-153.312062
58411,NaN,-0.496033,-7.271327,-0.605084,3.434067,1.092980,-3.449101,-0.111048,-0.836696,1.897015,-0.011144,-0.308692,0.691941,-0.652535,-99.386902,-24.726466,-152.979962
58412,NaN,-0.388686,-7.633083,-0.843475,3.297025,1.210850,-2.972534,-0.192481,-0.989971,2.035917,-0.001314,-0.304828,0.695740,-0.650403,-99.662294,-23.475156,-152.575901
58413,NaN,-0.174320,-7.958395,-1.167727,2.999079,1.336843,-2.467931,-0.261386,-1.111286,2.190617,0.009316,-0.300794,0.699889,-0.647759,-99.986333,-22.125969,-152.125003
58414,NaN,-0.078128,-8.245663,-1.420876,2.783214,1.423503,-2.051272,-0.294857,-1.180858,2.350852,0.020677,-0.296358,0.704280,-0.644774,-100.324174,-20.673566,-151.662266
58415,NaN,0.170987,-8.503062,-1.625677,2.423914,1.375169,-1.614939,-0.340494,-1.197366,2.510213,0.032518,-0.291382,0.708909,-0.641472,-100.669033,-19.130558,-151.220972
58416,NaN,0.394480,-8.996326,-1.802859,2.156160,1.284380,-0.978925,-0.367181,-1.158617,2.666650,0.044700,-0.285651,0.713723,-0.637969,-101.000904,-17.497655,-150.834368
58417,NaN,0.537154,-9.520949,-1.982484,1.930035,1.202975,-0.342312,-0.364709,-1.066412,2.801019,0.056953,-0.279103,0.718571,-0.634439,-101.296592,-15.801060,-150.530093
58418,NaN,0.618372,-9.920294,-1.993839,1.751723,0.982908,0.123476,-0.328741,-0.951623,2.912712,0.069207,-0.271693,0.723337,-0.631013,-101.539877,-14.049658,-150.316683
58419,NaN,0.735416,-10.416861,-1.968010,1.559533,0.689737,0.675771,-0.313162,-0.813123,3.018924,0.081277,-0.263410,0.728058,-0.627647,-101.744451,-12.257624,-150.204160
58420,NaN,0.800272,-10.944990,-1.847943,1.427791,0.316612,1.219029,-0.287854,-0.679600,3.114597,0.093198,-0.254263,0.732706,-0.624344,-101.912790,-10.423425,-150.186419
58421,NaN,0.813515,-11.352115,-1.767503,1.258561,-0.003399,1.635491,-0.266527,-0.563859,3.181397,0.104882,-0.244454,0.737226,-0.621080,-102.054971,-8.569362,-150.247400
58422,NaN,0.715496,-11.538781,-1.637373,1.131650,-0.300007,1.804263,-0.245755,-0.471839,3.236173,0.116419,-0.234059,0.741608,-0.617803,-102.179195,-6.691922,-150.371363
58423,NaN,0.629663,-11.657297,-1.523113,0.960979,-0.585185,1.906117,-0.245167,-0.408898,3.270868,0.127774,-0.223299,0.745855,-0.614420,-102.302474,-4.806872,-150.538295
58424,NaN,0.587369,-11.761624,-1.477566,0.709461,-0.834598,2.004726,-0.243054,-0.367258,3.281829,0.138999,-0.212286,0.749937,-0.610908,-102.428381,-2.917240,-150.733895
58425,NaN,0.503390,-11.799496,-1.525959,0.435653,-0.974819,2.047203,-0.257523,-0.350489,3.288588,0.150104,-0.201169,0.753866,-0.607195,-102.568247,-1.030286,-150.943449
58426,NaN,0.447554,-11.850771,-1.728649,0.062686,-1.000730,2.129289,-0.246861,-0.349429,3.284009,0.161184,-0.189981,0.757559,-0.603350,-102.709125,0.857359,-151.157871
58427,NaN,0.451652,-11.820185,-1.945613,-0.380164,-1.025580,2.124513,-0.228342,-0.322327,3.288178,0.172124,-0.178650,0.761006,-0.599439,-102.846847,2.739472,-151.392306
58428,NaN,0.398536,-11.839294,-2.162691,-0.771370,-1.030160,2.159599,-0.206143,-0.275713,3.288259,0.182881,-0.167088,0.764223,-0.595482,-102.981727,4.618936,-151.658064
58429,NaN,0.370149,-11.949006,-2.286368,-1.138943,-1.143101,2.250736,-0.172302,-0.193696,3.286063,0.193275,-0.155237,0.767197,-0.591570,-103.110560,6.482116,-151.974193
58430,NaN,0.424055,-12.087248,-2.358417,-1.560381,-1.341756,2.336190,-0.134016,-0.079686,3.272459,0.203190,-0.142999,0.769955,-0.587737,-103.236556,8.325844,-152.358391
58431,NaN,0.581468,-12.191819,-2.323730,-2.024658,-1.660882,2.332580,-0.085915,0.075271,3.247273,0.212392,-0.130338,0.772500,-0.584077,-103.361308,10.130545,-152.832245
58432,NaN,0.633901,-12.135927,-2.254108,-2.373452,-1.902511,2.166394,-0.019491,0.244596,3.213696,0.220851,-0.117186,0.774810,-0.580657,-103.481534,11.896570,-153.404647
58433,NaN,0.721964,-12.064565,-2.161627,-2.732603,-2.155308,1.961161,0.029263,0.427158,3.163520,0.228408,-0.103635,0.776946,-0.577447,-103.613730,13.605354,-154.081654
58434,NaN,1.091666,-12.074351,-2.126716,-3.364572,-2.483833,1.763313,0.060633,0.600741,3.107336,0.235105,-0.089720,0.778967,-0.574358,-103.772787,15.260963,-154.860273
58435,NaN,1.839408,-12.053248,-2.202849,-4.363957,-2.832565,1.431816,0.087378,0.774306,3.018449,0.240806,-0.075618,0.780879,-0.571421,-103.964795,16.837657,-155.737520
58436,NaN,2.402122,-12.076553,-2.246240,-5.178169,-3.111768,1.148736,0.086355,0.932060,2.902957,0.245520,-0.061482,0.782756,-0.568535,-104.206924,18.327970,-156.703628
58437,NaN,2.997966,-12.412740,-2.355050,-6.091547,-3.422757,1.131675,0.045648,1.033455,2.726504,0.249252,-0.047803,0.784643,-0.565619,-104.510736,19.698532,-157.717834
58438,NaN,3.773380,-12.908473,-2.257039,-7.090216,-4.003303,1.126041,0.027830,1.054192,2.435394,0.252040,-0.035204,0.786384,-0.562882,-104.840848,20.901958,-158.715878
58439,NaN,4.442245,-13.342743,-2.163618,-7.963758,-4.491557,1.088786,-0.015184,0.961386,2.016877,0.253956,-0.024576,0.787936,-0.560410,-105.173880,21.879536,-159.606392
58440,NaN,5.200462,-13.399445,-1.962029,-8.736727,-4.940494,0.660951,-0.048475,0.796056,1.505915,0.255073,-0.016452,0.789232,-0.558373,-105.473804,22.597175,-160.326077
58441,NaN,5.981555,-13.160111,-1.588048,-9.323624,-5.416215,-0.054478,-0.091039,0.614643,0.952417,0.255332,-0.011085,0.790327,-0.556836,-105.729046,23.032096,-160.851042
58442,NaN,6.510493,-12.452938,-1.385351,-9.579218,-5.475447,-1.001379,-0.096555,0.459387,0.414164,0.254708,-0.008275,0.791193,-0.555940,-105.919000,23.193990,-161.194757
58443,NaN,6.759866,-11.132363,-1.394176,-9.463990,-5.024036,-2.278701,-0.044911,0.316633,-0.027689,0.253414,-0.007552,0.791710,-0.555805,-106.016142,23.132885,-161.377514
58444,NaN,6.756245,-9.787005,-1.140744,-8.985161,-4.718228,-3.508826,-0.024196,0.189877,-0.330562,0.251783,-0.008351,0.791996,-0.556128,-106.051030,22.925479,-161.432205
58445,NaN,6.499598,-9.336105,-0.802143,-8.477321,-4.760855,-3.852815,-0.024680,0.079221,-0.498684,0.250118,-0.010127,0.792132,-0.556656,-106.048984,22.642400,-161.391642
58446,NaN,4.297951,-11.590169,-2.851229,-7.926046,-3.170807,-0.428823,-0.165224,0.117718,-0.729461,0.247649,-0.012886,0.792688,-0.556911,-106.121321,22.226168,-161.334291
58447,NaN,7.791454,-7.486038,-1.630872,-9.393489,-3.710740,-5.641435,0.471738,-0.157334,-0.880441,0.245885,-0.016220,0.791104,-0.559849,-105.758748,21.769919,-161.089199
58448,NaN,9.006725,-7.056198,-4.541478,-11.501045,-1.379147,-5.646324,-0.374157,-0.106033,-0.983563,0.243552,-0.020862,0.791922,-0.559559,-105.888259,21.247737,-160.858928
58449,NaN,-3.091168,-10.396218,-5.157877,-1.837168,1.605977,1.946790,0.090071,0.226547,-0.728163,0.240663,-0.022993,0.791856,-0.560818,-105.839548,20.814989,-160.868331
58450,NaN,-13.611492,-7.527802,-2.167392,9.399574,3.319155,2.322744,0.360061,-0.022982,-0.495834,0.239435,-0.024584,0.790751,-0.562831,-105.598325,20.548124,-160.770201
58451,NaN,-12.579559,-11.540461,-0.019171,8.480952,-0.295358,4.999929,-0.547172,-0.577013,-0.465973,0.240373,-0.028696,0.791527,-0.561144,-105.764863,20.384482,-160.351246
58452,NaN,-4.576743,-21.183852,0.465751,-0.405224,-6.783804,10.772027,-0.728132,-0.858572,-0.897648,0.241177,-0.035526,0.792381,-0.559199,-105.955003,20.027800,-159.695019
58453,NaN,0.060034,-18.668686,-0.185897,-3.981785,-6.763587,7.126910,-0.098169,-0.893225,-1.591716,0.240276,-0.044437,0.791255,-0.560543,-105.745144,19.294304,-158.905555
58454,NaN,1.387314,-10.349373,0.606359,-2.935091,-4.791104,-0.990583,-0.295001,-0.659007,-1.700389,0.238075,-0.053359,0.790870,-0.561247,-105.698138,18.462132,-158.240159
58455,NaN,0.954214,-12.623039,-2.470501,-4.143924,-2.796432,2.076814,-0.329004,-0.254941,-1.402707,0.235090,-0.060002,0.791087,-0.561528,-105.768332,17.732203,-157.860824
58456,NaN,-0.539275,-8.002196,-0.061724,-0.859335,-2.631075,-2.284879,0.028335,0.069472,-1.267501,0.231293,-0.064783,0.790684,-0.563139,-105.700907,17.025424,-157.692306
58457,NaN,-2.324289,-8.024404,-2.010767,-0.048935,-0.286244,-1.224817,-0.347626,-0.039955,-1.083179,0.228323,-0.069569,0.791246,-0.562990,-105.841658,16.438440,-157.491030
58458,NaN,-1.622166,-8.007475,-3.071722,-1.052064,0.381746,-1.156274,-0.416237,-0.223727,-0.967120,0.226369,-0.074496,0.791806,-0.562362,-105.998663,15.943708,-157.202122
58459,NaN,-1.019623,-9.009737,-4.479361,-2.271979,1.001034,-0.008850,-0.442268,-0.241496,-0.840083,0.224833,-0.078992,0.792448,-0.561460,-106.175987,15.523625,-156.923330
58460,NaN,-1.636419,-8.917118,-4.913345,-1.840594,1.633318,0.201202,-0.286931,-0.232214,-0.772907,0.223500,-0.083026,0.792671,-0.561094,-106.270028,15.138490,-156.660338
58461,NaN,-2.076871,-8.978780,-3.956169,-0.969588,0.970589,0.122135,-0.226641,-0.193279,-0.741619,0.222127,-0.086751,0.792771,-0.560935,-106.338628,14.765817,-156.424780
58462,NaN,-1.884482,-9.386196,-3.031199,-0.707433,-0.022311,0.204237,-0.175072,-0.088345,-0.725689,0.220395,-0.090067,0.792836,-0.561003,-106.394588,14.384003,-156.251319
58463,NaN,-2.034524,-9.464753,-2.992621,-0.497429,-0.006733,0.308018,-0.148018,0.019668,-0.754690,0.218170,-0.093157,0.792922,-0.561247,-106.450262,13.970122,-156.134320
58464,NaN,-1.721410,-9.565559,-2.994975,-0.714611,-0.139005,0.331402,-0.052484,0.106477,-0.773292,0.215583,-0.095978,0.792812,-0.561926,-106.462733,13.530762,-156.063131
58465,NaN,-1.632133,-9.333643,-2.749885,-0.591727,-0.272909,0.031982,-0.033279,0.198072,-0.750302,0.212710,-0.098422,0.792748,-0.562689,-106.477762,13.090407,-156.047670
58466,NaN,-2.194227,-8.943468,-2.480949,0.131165,-0.115437,-0.277260,-0.025598,0.213478,-0.753858,0.209759,-0.100835,0.792663,-0.563488,-106.490064,12.644323,-156.040066
58467,NaN,-2.059914,-8.810034,-2.614081,0.031587,0.016590,-0.395064,-0.082128,0.200351,-0.765672,0.206803,-0.103381,0.792707,-0.564057,-106.532983,12.195164,-156.023055
58468,NaN,-1.591806,-9.027285,-2.884594,-0.448311,0.009128,-0.213468,-0.126219,0.234707,-0.789248,0.203610,-0.105975,0.792885,-0.564487,-106.604159,11.726198,-156.020818
58469,NaN,-1.505695,-9.175824,-2.925755,-0.474944,-0.018963,-0.076344,-0.126606,0.229470,-0.812772,0.200375,-0.108669,0.793033,-0.564924,-106.674319,11.246444,-156.011270
58470,NaN,-1.259886,-9.341208,-3.144388,-0.723941,0.040026,0.097228,-0.029781,0.167929,-0.797399,0.197470,-0.111384,0.792840,-0.565690,-106.682721,10.783968,-155.969421
58471,NaN,-0.823870,-9.262998,-3.141094,-1.040535,-0.082048,-0.052642,-0.023782,0.162265,-0.720457,0.194812,-0.113795,0.792656,-0.566388,-106.689997,10.365944,-155.937430
58472,NaN,-0.970339,-9.491879,-2.993925,-0.789365,-0.196432,0.154199,0.011966,0.189182,-0.678534,0.192177,-0.115935,0.792410,-0.567199,-106.680720,9.965168,-155.927353
58473,NaN,-1.098875,-9.621849,-2.743225,-0.507581,-0.370397,0.233086,0.057414,0.190819,-0.658575,0.189624,-0.117938,0.792040,-0.568161,-106.646409,9.576406,-155.921831
58474,NaN,-0.981494,-9.547282,-2.679446,-0.524200,-0.416333,0.129389,0.030541,0.186615,-0.635915,0.187125,-0.119896,0.791745,-0.568990,-106.627606,9.199401,-155.917775
58475,NaN,-1.051099,-9.665854,-2.536786,-0.344945,-0.520133,0.216219,0.019349,0.164147,-0.616120,0.184771,-0.121841,0.791466,-0.569733,-106.614004,8.838315,-155.904778
58476,NaN,-1.121888,-9.456234,-2.665874,-0.278418,-0.286557,0.067898,0.018699,0.120611,-0.584783,0.182669,-0.123793,0.791159,-0.570417,-106.597805,8.500159,-155.872747
58477,NaN,-0.790423,-9.408861,-2.934478,-0.641213,-0.151608,0.052819,-0.021094,0.106792,-0.556844,0.180682,-0.125702,0.790965,-0.570900,-106.604354,8.181005,-155.837876
58478,NaN,-0.487231,-9.581408,-3.006062,-0.898625,-0.246192,0.197748,0.007188,0.111715,-0.501722,0.178842,-0.127360,0.790722,-0.571449,-106.596342,7.889883,-155.814727
58479,NaN,-0.513052,-9.564324,-2.953593,-0.811090,-0.250746,0.174419,0.095673,0.113810,-0.450591,0.177203,-0.128722,0.790258,-0.572296,-106.539261,7.627913,-155.801503
58480,NaN,-0.622016,-9.494203,-2.804487,-0.614200,-0.283467,0.083482,0.150975,0.125465,-0.403268,0.175680,-0.129822,0.789670,-0.573327,-106.452266,7.388551,-155.802687
58481,NaN,-0.731134,-9.166116,-2.683782,-0.434761,-0.212768,-0.246052,0.131666,0.131229,-0.383926,0.174185,-0.130837,0.789154,-0.574263,-106.377365,7.160366,-155.810715
58482,NaN,-0.804940,-8.960711,-2.688275,-0.342420,-0.090538,-0.429536,0.110850,0.132639,-0.354567,0.172745,-0.131759,0.788712,-0.575093,-106.314885,6.946598,-155.824409
58483,NaN,-0.920874,-8.961539,-2.769138,-0.245091,0.048328,-0.391285,0.093177,0.117528,-0.327111,0.171440,-0.132622,0.788326,-0.575815,-106.262228,6.751879,-155.834544
58484,NaN,-1.097050,-9.445563,-2.981608,-0.143790,0.179012,0.150211,0.102522,0.120043,-0.311951,0.170166,-0.133418,0.787920,-0.576563,-106.204468,6.563589,-155.848542
58485,NaN,-1.395863,-9.339480,-2.857333,0.203587,0.248908,0.048101,0.135713,0.136468,-0.322445,0.168827,-0.134171,0.787425,-0.577457,-106.128684,6.368438,-155.870325
58486,NaN,-1.357810,-9.053577,-2.735882,0.242087,0.238750,-0.263853,0.127689,0.145420,-0.346776,0.167368,-0.135009,0.786940,-0.578347,-106.057394,6.156997,-155.893263
58487,NaN,-1.223793,-8.975747,-2.617831,0.197038,0.127801,-0.386157,0.073304,0.145404,-0.357533,0.165850,-0.135926,0.786604,-0.579027,-106.017188,5.941159,-155.914834
58488,NaN,-1.149122,-9.450066,-2.730340,0.123475,0.078166,0.089711,0.088157,0.145731,-0.369388,0.164296,-0.136883,0.786212,-0.579776,-105.968067,5.717281,-155.934712
58489,NaN,-1.259913,-9.316316,-2.629740,0.294992,0.099640,-0.055661,0.114832,0.148035,-0.398822,0.162675,-0.137919,0.785723,-0.580650,-105.903440,5.478319,-155.951581
58490,NaN,-1.265654,-9.341447,-2.641276,0.330035,0.131628,-0.029311,0.111895,0.153690,-0.417279,0.160966,-0.139021,0.785229,-0.581532,-105.840303,5.226865,-155.968785
58491,NaN,-1.232234,-9.332366,-2.620389,0.344543,0.130310,-0.048364,0.112092,0.174727,-0.454824,0.159074,-0.140200,0.784722,-0.582452,-105.777675,4.952902,-155.992167
58492,NaN,-1.279109,-9.238129,-2.654132,0.409387,0.234713,-0.127613,0.121349,0.176668,-0.480715,0.157095,-0.141475,0.784165,-0.583431,-105.709237,4.662963,-156.012745
58493,NaN,-1.188266,-9.231141,-2.725113,0.337923,0.292229,-0.124944,0.123472,0.185563,-0.495977,0.155046,-0.142773,0.783594,-0.584429,-105.639872,4.364675,-156.036358
58494,NaN,-0.941323,-9.133658,-2.677996,0.171666,0.208190,-0.251914,0.089369,0.203636,-0.526995,0.152801,-0.144173,0.783107,-0.585328,-105.590162,4.045123,-156.065336
58495,NaN,-0.644929,-8.995338,-2.545737,-0.002143,0.035168,-0.441919,-0.027834,0.228476,-0.566492,0.150267,-0.145736,0.782949,-0.585809,-105.608119,3.701341,-156.102170
58496,NaN,-0.617632,-9.203320,-2.441732,0.082458,-0.105940,-0.271918,-0.115674,0.252056,-0.595089,0.147482,-0.147413,0.783035,-0.585982,-105.676531,3.336739,-156.147202
58497,NaN,-0.746271,-9.853563,-2.755725,0.170043,0.062638,0.444529,-0.041512,0.184999,-0.583345,0.145056,-0.149177,0.782857,-0.586378,-105.700369,2.990341,-156.156837
58498,NaN,-1.308750,-9.636780,-2.675987,0.756006,0.306027,0.240957,0.108622,0.091000,-0.588587,0.143085,-0.151135,0.782158,-0.587294,-105.635377,2.654241,-156.113732
58499,NaN,0.554043,-10.201902,-2.861371,-0.935267,-0.397419,0.748574,0.179564,0.102531,-0.522583,0.141323,-0.152741,0.781304,-0.588440,-105.530882,2.354088,-156.087803
58500,NaN,-0.430916,-8.975544,-2.114601,0.217576,-0.295578,-0.588662,0.164023,0.198661,-0.549684,0.139085,-0.154187,0.780535,-0.589617,-105.437164,2.022865,-156.111239
58501,NaN,-0.565970,-9.606937,-2.708831,0.197617,0.152169,0.181752,0.104681,0.165772,-0.556559,0.136916,-0.155789,0.779907,-0.590533,-105.376863,1.694240,-156.116021
58502,NaN,-0.064027,-9.497958,-2.534520,-0.151160,-0.144064,0.015598,0.085853,0.208837,-0.573121,0.134506,-0.157348,0.779343,-0.591418,-105.327725,1.348596,-156.142281
58503,NaN,-0.549146,-9.467387,-2.670307,0.288519,0.209681,0.032919,0.051227,0.224189,-0.594916,0.131951,-0.158961,0.778868,-0.592186,-105.298544,0.989944,-156.174083
58504,NaN,-0.216845,-9.591678,-2.651802,0.059134,0.057995,0.140812,0.042741,0.231959,-0.611483,0.129301,-0.160626,0.778401,-0.592935,-105.273880,0.619648,-156.207723
58505,NaN,0.040529,-9.615684,-2.702407,-0.136942,0.023039,0.174623,0.049172,0.281895,-0.597481,0.126511,-0.162076,0.777952,-0.593731,-105.245712,0.250905,-156.271365
58506,NaN,0.065135,-9.583024,-2.588811,-0.062228,-0.047377,0.113746,0.077548,0.309491,-0.591381,0.123644,-0.163408,0.777431,-0.594653,-105.200724,-0.119898,-156.351297
58507,NaN,0.049237,-9.463965,-2.339377,0.091885,-0.200905,-0.066273,0.062037,0.320319,-0.605947,0.120686,-0.164764,0.776944,-0.595522,-105.164246,-0.499002,-156.435412
58508,NaN,0.110889,-9.483131,-2.362979,0.085642,-0.178205,-0.040979,0.046834,0.310809,-0.614652,0.117717,-0.166198,0.776477,-0.596326,-105.135816,-0.882766,-156.513071
58509,NaN,0.115395,-9.560421,-2.425829,0.125481,-0.112040,0.049915,0.036518,0.302328,-0.631808,0.114728,-0.167719,0.776016,-0.597082,-105.113084,-1.273399,-156.583764
58510,NaN,0.125574,-9.619519,-2.460255,0.171288,-0.068536,0.115521,0.036756,0.305727,-0.641628,0.111687,-0.169274,0.775535,-0.597844,-105.089521,-1.671250,-156.654935
58511,NaN,0.101625,-9.701578,-2.560595,0.229943,0.040913,0.218893,-0.006442,0.322033,-0.663157,0.108489,-0.170879,0.775167,-0.598453,-105.090205,-2.082122,-156.732117
58512,NaN,-0.139939,-9.847554,-2.744607,0.470422,0.298051,0.395944,0.035353,0.339503,-0.686704,0.105178,-0.172504,0.774650,-0.599247,-105.065926,-2.509897,-156.815467
58513,NaN,-0.071805,-9.504404,-2.817514,0.401592,0.445289,0.082623,0.022481,0.353711,-0.711726,0.101733,-0.174181,0.774149,-0.600004,-105.048384,-2.952313,-156.903240
58514,NaN,0.306072,-9.682841,-3.072484,0.059375,0.520655,0.336996,0.043745,0.388777,-0.736040,0.098089,-0.175840,0.773565,-0.600880,-105.016883,-3.414602,-157.006960
58515,NaN,0.826311,-9.576923,-2.750901,-0.245374,0.091477,0.182239,0.073947,0.414418,-0.741027,0.094363,-0.177416,0.772887,-0.601884,-104.966547,-3.882132,-157.124633
58516,NaN,0.887485,-9.794657,-2.516642,-0.108893,-0.150578,0.337254,0.016822,0.429102,-0.738467,0.090528,-0.178969,0.772375,-0.602671,-104.947168,-4.351581,-157.251090
58517,NaN,0.994423,-9.863088,-2.215271,-0.015800,-0.438895,0.335384,0.078577,0.417834,-0.730482,0.086821,-0.180487,0.771667,-0.603670,-104.891931,-4.813627,-157.372949
58518,NaN,1.097167,-9.655154,-2.026475,-0.010212,-0.565843,0.097487,0.071257,0.391580,-0.725755,0.083215,-0.182073,0.770958,-0.604606,-104.840894,-5.270325,-157.481335
58519,NaN,1.108507,-9.680599,-2.115769,0.020990,-0.456708,0.147721,0.071134,0.364929,-0.720115,0.079734,-0.183708,0.770233,-0.605503,-104.790566,-5.718658,-157.576293
58520,NaN,0.938099,-9.676873,-2.448036,0.130718,-0.055127,0.211991,0.038528,0.338103,-0.705715,0.076362,-0.185386,0.769595,-0.606238,-104.759243,-6.156271,-157.658745
58521,NaN,0.922140,-9.778090,-2.966036,0.056981,0.434601,0.437488,0.048409,0.351549,-0.702180,0.072964,-0.186995,0.768927,-0.607010,-104.720938,-6.592590,-157.749620
58522,NaN,0.669467,-10.040436,-3.234041,0.322401,0.759267,0.724701,0.065585,0.396363,-0.698390,0.069412,-0.188452,0.768211,-0.607881,-104.668789,-7.034479,-157.866420
58523,NaN,0.617594,-10.363097,-3.198180,0.523645,0.725720,1.013301,0.082985,0.459099,-0.717836,0.065584,-0.189777,0.767436,-0.608872,-104.601837,-7.494881,-158.016089
58524,NaN,0.541108,-10.590249,-2.792173,0.856871,0.386773,1.112413,0.088087,0.535019,-0.749482,0.061364,-0.190994,0.766622,-0.609956,-104.525330,-7.984762,-158.204316
58525,NaN,0.351869,-10.885317,-2.530869,1.266539,0.210793,1.294509,0.090150,0.581536,-0.803032,0.056810,-0.192262,0.765751,-0.611092,-104.443428,-8.509580,-158.411854
58526,NaN,0.065514,-11.062421,-2.210478,1.766395,0.038335,1.329351,0.075508,0.614457,-0.869834,0.051904,-0.193690,0.764846,-0.612209,-104.366236,-9.076975,-158.629221
58527,NaN,-0.211809,-11.379879,-1.767297,2.338846,-0.276658,1.462146,0.036048,0.616202,-0.970496,0.046650,-0.195497,0.763945,-0.613182,-104.311671,-9.699150,-158.834169
58528,NaN,-0.670847,-12.223597,-1.912236,3.039178,-0.077822,2.198917,-0.003167,0.575788,-1.075760,0.041181,-0.197837,0.763023,-0.613972,-104.283469,-10.374874,-159.002048
58529,NaN,-0.919340,-12.992968,-2.292809,3.485393,0.284362,2.942239,0.016501,0.490972,-1.216376,0.035629,-0.200956,0.761856,-0.614754,-104.254805,-11.115649,-159.102511
58530,NaN,-0.890415,-13.331349,-2.624729,3.606960,0.595019,3.303700,0.119425,0.380966,-1.357164,0.030159,-0.204927,0.760173,-0.615818,-104.181789,-11.919814,-159.121392
58531,NaN,0.013872,-12.562692,-2.429257,2.792924,0.304794,2.670354,0.188450,0.351165,-1.446741,0.024601,-0.209304,0.758145,-0.617092,-104.075387,-12.768788,-159.111789
58532,NaN,0.135659,-12.116936,-2.424618,2.723847,0.405256,2.234332,0.038245,0.377913,-1.504856,0.018600,-0.213828,0.756476,-0.617799,-104.052983,-13.654352,-159.110205
58533,NaN,0.644262,-12.191246,-2.278552,2.499142,0.165726,2.351063,0.219252,0.402930,-1.550608,0.012560,-0.218415,0.754157,-0.619180,-103.925099,-14.568262,-159.117506
58534,NaN,1.064693,-10.941001,-1.647231,2.076831,-0.309457,1.102472,0.079849,0.446847,-1.583580,0.006095,-0.222986,0.752184,-0.620048,-103.870787,-15.506931,-159.147105
58535,NaN,1.029591,-11.180635,-2.142918,2.211498,0.206482,1.399913,0.092243,0.482895,-1.589543,-0.000507,-0.227451,0.750118,-0.620958,-103.803522,-16.453437,-159.197715
58536,NaN,1.143989,-10.517981,-2.227327,2.023650,0.405779,0.800278,0.119476,0.518307,-1.608936,-0.007273,-0.231863,0.747891,-0.621969,-103.713676,-17.415751,-159.267999
58537,NaN,1.042722,-10.626346,-2.930082,2.121685,1.160870,0.991928,0.118080,0.554455,-1.621140,-0.014212,-0.236192,0.745601,-0.622969,-103.617418,-18.389386,-159.359480
58538,NaN,1.371025,-11.543127,-3.998538,2.047678,2.046267,2.134183,0.384651,0.575416,-1.617868,-0.020904,-0.240443,0.742425,-0.624944,-103.361104,-19.363836,-159.467715
58539,NaN,2.000844,-8.855917,-2.165237,1.112593,0.504272,-0.559352,0.416452,0.704213,-1.690186,-0.028258,-0.244545,0.738991,-0.627130,-103.060803,-20.394872,-159.647706
58540,NaN,1.310889,-10.693760,-4.360087,2.036921,2.702183,1.306241,-0.141879,0.789418,-1.677937,-0.036570,-0.248233,0.737244,-0.627307,-103.056644,-21.429631,-159.884720
58541,NaN,1.293371,-10.535692,-4.363629,2.176369,2.811152,1.099307,0.324005,0.792317,-1.736938,-0.044496,-0.252193,0.733898,-0.629136,-102.782713,-22.497191,-160.119475
58542,NaN,1.800550,-9.349461,-4.233485,1.443509,2.716756,0.142661,0.013445,0.787661,-1.759021,-0.052860,-0.256155,0.731434,-0.629758,-102.682418,-23.575575,-160.354222
58543,NaN,2.104791,-9.741535,-4.647422,1.435389,3.068869,0.648863,0.149190,0.845653,-1.754860,-0.061246,-0.259933,0.728465,-0.630891,-102.483828,-24.658517,-160.629853
58544,NaN,2.280356,-9.801700,-4.734511,1.476938,3.189492,0.738654,0.183469,0.896197,-1.726515,-0.069674,-0.263431,0.725340,-0.632164,-102.242792,-25.730460,-160.947731
58545,NaN,2.570974,-9.944350,-4.356596,1.566219,2.839081,0.862636,0.317812,0.910254,-1.707917,-0.077913,-0.266842,0.721741,-0.633888,-101.910731,-26.792580,-161.285553
58546,NaN,3.163307,-9.883498,-4.044603,1.279321,2.492134,0.966813,0.441525,0.936929,-1.631535,-0.085830,-0.269913,0.717775,-0.636065,-101.484948,-27.812398,-161.661287
58547,NaN,2.449598,-9.413141,-3.826938,1.851429,2.622361,0.134442,0.459437,0.971480,-1.569991,-0.093647,-0.272640,0.713754,-0.638321,-101.023018,-28.799400,-162.079266
58548,NaN,2.182780,-9.605936,-3.778395,2.327429,2.755323,0.102097,0.531160,0.921502,-1.509676,-0.100983,-0.275317,0.709549,-0.640736,-100.519565,-29.743299,-162.485797
58549,NaN,2.514088,-9.692899,-3.283042,2.338069,2.309013,0.199811,0.652029,0.860654,-1.479879,-0.107836,-0.278124,0.704967,-0.643459,-99.952140,-30.661512,-162.870138
58550,NaN,2.936158,-8.765462,-2.647592,1.753342,1.723031,-0.516524,0.673131,0.727149,-1.452355,-0.114088,-0.281249,0.700375,-0.646033,-99.404367,-31.547188,-163.183445
58551,NaN,3.001521,-8.043768,-2.628758,1.421469,1.796537,-1.130986,0.576911,0.581101,-1.343128,-0.119607,-0.284394,0.696278,-0.648083,-98.946424,-32.356203,-163.423256
58552,NaN,2.404856,-7.879740,-2.517254,1.929003,1.916068,-1.638545,0.522101,0.492362,-1.209019,-0.124449,-0.287305,0.692569,-0.649859,-98.537331,-33.079002,-163.626372
58553,NaN,2.013287,-7.422109,-2.085004,2.151079,1.659939,-2.322377,0.607585,0.465579,-1.121581,-0.128791,-0.290046,0.688687,-0.651918,-98.077522,-33.749673,-163.828307
58554,NaN,-0.013267,-6.467360,0.645410,3.828404,-0.475715,-4.582006,0.780888,0.328904,-0.896409,-0.131665,-0.292551,0.684631,-0.654491,-97.553006,-34.279274,-163.965958
58555,NaN,-1.884528,-5.986676,-0.111910,4.913046,0.724696,-5.973309,0.381705,-0.345466,-0.680967,-0.132113,-0.296259,0.682617,-0.654837,-97.505346,-34.636428,-163.662812
58556,NaN,-2.781469,-6.120735,-1.099824,5.500013,1.939493,-6.291666,0.302114,-0.939460,-0.461695,-0.129921,-0.301097,0.681569,-0.654159,-97.728108,-34.822160,-162.967717
58557,NaN,-3.512482,-5.612754,-0.677580,5.860842,1.738717,-7.180814,0.228067,-1.264399,-0.265146,-0.126095,-0.306276,0.681240,-0.652845,-98.112880,-34.869072,-162.064764
58558,NaN,-1.812783,-6.182778,-1.379780,4.688630,2.053045,-5.663184,0.105844,-1.403975,-0.113299,-0.121468,-0.311292,0.681606,-0.650965,-98.614417,-34.810740,-161.080458
58559,NaN,-0.304327,-6.019018,-1.646500,3.336716,1.918072,-4.891364,0.133434,-1.394319,0.001520,-0.116462,-0.315897,0.682014,-0.649233,-99.086694,-34.683191,-160.116870
58560,NaN,-0.013218,-5.961062,-1.771877,3.019403,1.956032,-4.740112,0.140528,-1.323973,0.195035,-0.111038,-0.319591,0.682638,-0.647717,-99.511019,-34.444452,-159.226743
58561,NaN,-0.208066,-6.249428,-1.726108,3.312834,1.980803,-4.599296,0.193520,-1.210629,0.401731,-0.105255,-0.322239,0.683321,-0.646650,-99.840909,-34.097154,-158.443154
58562,NaN,-0.425625,-6.530605,-1.258622,3.725320,1.616470,-4.528482,0.260652,-1.131952,0.599125,-0.098976,-0.323968,0.684042,-0.646014,-100.081898,-33.640712,-157.742470
58563,NaN,-0.483584,-6.954676,-0.944956,4.048601,1.360087,-4.222258,0.287387,-1.134970,0.772355,-0.092093,-0.325125,0.684919,-0.645522,-100.288280,-33.086333,-157.066921
58564,NaN,-0.460328,-7.192491,-0.826352,4.137453,1.253004,-3.987089,0.309055,-1.187489,0.934481,-0.084450,-0.325874,0.685985,-0.645057,-100.480987,-32.430604,-156.383167
58565,NaN,-0.479909,-7.413230,-0.860767,4.191671,1.300287,-3.757475,0.319518,-1.265950,1.089081,-0.076034,-0.326342,0.687248,-0.644523,-100.673716,-31.680209,-155.674211
58566,NaN,-0.604366,-7.623153,-0.975486,4.280402,1.454315,-3.568383,0.317204,-1.372678,1.248197,-0.066717,-0.326564,0.688772,-0.643815,-100.880736,-30.823859,-154.924354
58567,NaN,-0.563690,-7.813344,-1.124168,4.201155,1.573478,-3.293266,0.316277,-1.492176,1.418195,-0.056455,-0.326569,0.690538,-0.642902,-101.101012,-29.859319,-154.128645
58568,NaN,-0.648266,-7.894163,-1.340605,4.118485,1.787590,-3.151159,0.297909,-1.617818,1.601462,-0.045173,-0.326282,0.692624,-0.641694,-101.341410,-28.771868,-153.288333
58569,NaN,-0.593011,-7.954160,-1.590665,3.883161,1.965760,-2.942105,0.285556,-1.699171,1.793552,-0.033027,-0.325559,0.694972,-0.640262,-101.580196,-27.567379,-152.434973
58570,NaN,-0.362800,-8.060337,-1.875038,3.497068,2.087258,-2.599702,0.272624,-1.720320,1.980958,-0.020201,-0.324177,0.697564,-0.638675,-101.797688,-26.248880,-151.608271
58571,NaN,-0.217470,-8.110969,-2.167000,3.124001,2.228156,-2.342538,0.260743,-1.680363,2.168982,-0.006951,-0.321971,0.700358,-0.637013,-101.976790,-24.830555,-150.845276
58572,NaN,0.068594,-8.240830,-2.323760,2.706759,2.165312,-1.983498,0.235027,-1.606333,2.361084,0.006634,-0.318770,0.703410,-0.635261,-102.118357,-23.307864,-150.166702
58573,NaN,0.367504,-8.502102,-2.643415,2.244860,2.217272,-1.479187,0.205841,-1.499592,2.554123,0.020386,-0.314505,0.706706,-0.633434,-102.221010,-21.692293,-149.589058
58574,NaN,0.420498,-8.831253,-2.747756,2.067954,2.168462,-1.052960,0.199631,-1.368020,2.737199,0.034263,-0.309082,0.710170,-0.631627,-102.271682,-19.985646,-149.123455
58575,NaN,0.429368,-9.107447,-2.731820,1.931884,2.017801,-0.714245,0.175929,-1.236669,2.901652,0.048123,-0.302612,0.713803,-0.629758,-102.288471,-18.206536,-148.762580
58576,NaN,0.579648,-9.579749,-2.680289,1.744240,1.742912,-0.158530,0.144513,-1.106893,3.048262,0.061948,-0.295117,0.717614,-0.627773,-102.282797,-16.357125,-148.500886
58577,NaN,0.706152,-10.232432,-2.643799,1.597454,1.459668,0.555447,0.087540,-0.975499,3.171935,0.075563,-0.286726,0.721622,-0.625572,-102.276775,-14.458530,-148.332972
58578,NaN,0.896737,-10.813286,-2.706070,1.285881,1.203201,1.230003,0.085174,-0.850450,3.270990,0.089038,-0.277482,0.725632,-0.623324,-102.246518,-12.515599,-148.250714
58579,NaN,0.792660,-11.156841,-2.565223,1.209155,0.918730,1.561174,0.084323,-0.752076,3.350655,0.102351,-0.267586,0.729579,-0.620996,-102.201178,-10.544191,-148.233417
58580,NaN,1.502275,-11.247185,-2.742644,0.210487,0.493334,1.848225,0.077322,-0.676291,3.387975,0.115490,-0.257219,0.733427,-0.618535,-102.151375,-8.556819,-148.262603
58581,NaN,1.243772,-11.713882,-2.638769,0.230083,0.283366,2.252837,0.074523,-0.518647,3.483026,0.128280,-0.245962,0.737264,-0.616027,-102.091467,-6.539376,-148.389915
58582,NaN,1.154068,-11.835068,-2.578617,-0.011879,0.053777,2.354139,0.124931,-0.414171,3.508998,0.140813,-0.234154,0.740821,-0.613619,-102.001264,-4.515464,-148.576386
58583,NaN,1.038404,-11.889078,-2.635078,-0.307913,-0.054288,2.404471,0.107998,-0.351230,3.519262,0.153054,-0.222078,0.744247,-0.611026,-101.925493,-2.497251,-148.795579
58584,NaN,1.050214,-11.974732,-2.570913,-0.652234,-0.335781,2.457319,0.117994,-0.318274,3.520924,0.165166,-0.209793,0.747441,-0.608308,-101.851132,-0.477491,-149.030842
58585,NaN,1.015004,-12.133950,-2.520282,-0.959282,-0.594963,2.569750,0.104829,-0.319119,3.511698,0.177162,-0.197514,0.750425,-0.605363,-101.792712,1.533245,-149.261770
58586,NaN,0.961096,-12.262293,-2.587624,-1.320732,-0.743667,2.664084,0.104937,-0.307400,3.509211,0.189076,-0.185124,0.753187,-0.602237,-101.742404,3.545577,-149.497650
58587,NaN,0.996473,-12.135232,-2.614318,-1.753329,-0.917680,2.482006,0.111233,-0.293045,3.498713,0.200826,-0.172690,0.755694,-0.598976,-101.697308,5.546402,-149.738861
58588,NaN,0.968127,-12.036972,-2.785679,-2.194474,-0.937639,2.347736,0.097382,-0.253705,3.476908,0.212313,-0.160158,0.758036,-0.595528,-101.670601,7.534590,-149.999634
58589,NaN,1.112311,-12.134558,-2.801051,-2.695982,-1.214274,2.335267,0.074699,-0.179562,3.445550,0.223319,-0.147524,0.760265,-0.591914,-101.671673,9.492637,-150.299199
58590,NaN,1.487968,-12.145033,-3.007095,-3.486207,-1.417378,2.211507,0.048496,-0.057859,3.408823,0.233692,-0.134632,0.762459,-0.588148,-101.709993,11.419668,-150.666568
58591,NaN,2.002170,-12.187209,-3.184669,-4.370744,-1.704921,2.047097,0.022069,0.121030,3.373998,0.243171,-0.121361,0.764693,-0.584280,-101.797548,13.302072,-151.136814
58592,NaN,2.392495,-12.134665,-3.331012,-5.111312,-1.913447,1.774790,-0.010684,0.323649,3.323088,0.251660,-0.107678,0.767024,-0.580299,-101.947919,15.134620,-151.726016
58593,NaN,2.695509,-12.166463,-3.174858,-5.614326,-2.337979,1.517317,-0.054873,0.509743,3.238354,0.259075,-0.093827,0.769459,-0.576203,-102.171467,16.892021,-152.424049
58594,NaN,3.163776,-12.600107,-2.911897,-6.253170,-3.035141,1.541825,-0.103050,0.653779,3.084846,0.265422,-0.080170,0.771949,-0.572030,-102.466937,18.545961,-153.202004
58595,NaN,4.064619,-13.174879,-2.538331,-7.224578,-4.037843,1.502414,-0.136271,0.735664,2.823853,0.270614,-0.067331,0.774357,-0.567984,-102.811648,20.036428,-154.010432
58596,NaN,5.151926,-13.783064,-2.330600,-8.431383,-4.956285,1.424942,-0.145333,0.756525,2.423879,0.274550,-0.055965,0.776541,-0.564336,-103.170981,21.298788,-154.793407
58597,NaN,6.204767,-14.222971,-2.280184,-9.617723,-5.626824,1.224661,-0.141175,0.722724,1.898442,0.277084,-0.046737,0.778414,-0.561348,-103.511827,22.265578,-155.495206
58598,NaN,7.633586,-14.050416,-2.288401,-10.952275,-6.121783,0.360354,-0.123712,0.722689,1.315299,0.277974,-0.039740,0.780040,-0.559186,-103.823021,22.905881,-156.121696
58599,NaN,8.388357,-13.114960,-2.244789,-11.443932,-6.067412,-0.889262,-0.021524,0.782424,0.748151,0.277043,-0.034654,0.781316,-0.558203,-104.063166,23.217873,-156.704475
58600,NaN,8.235886,-11.567907,-1.905629,-10.822207,-5.666161,-2.325922,0.036709,0.834731,0.254944,0.274541,-0.031263,0.782399,-0.558123,-104.255358,23.247538,-157.245823
58601,NaN,7.171364,-11.666284,-1.504269,-9.780023,-5.608385,-1.894968,-0.068675,0.897025,-0.171364,0.270577,-0.029515,0.783778,-0.558219,-104.495647,23.028820,-157.758402
58602,NaN,7.441942,-12.216027,-2.033027,-10.388055,-5.375843,-1.331283,0.282338,0.907133,-0.473347,0.265778,-0.028445,0.784129,-0.560085,-104.515913,22.640317,-158.228400
58603,NaN,8.789846,-7.761905,0.652018,-9.213774,-6.412872,-6.361059,0.450951,0.708316,-0.726008,0.261065,-0.028699,0.783683,-0.562905,-104.375334,22.140255,-158.538907
58604,NaN,9.208229,-8.494483,-0.264806,-10.151728,-5.976041,-5.541170,-0.069289,0.422497,-0.960703,0.256727,-0.031359,0.784273,-0.563936,-104.452762,21.550366,-158.641515
58605,NaN,9.147482,-9.834091,-3.840732,-11.932257,-3.322444,-3.353779,-0.160892,0.178718,-1.117799,0.252882,-0.035435,0.784760,-0.564754,-104.519917,20.908663,-158.573715
58606,NaN,-1.128566,-9.754236,-3.671168,-2.826149,0.091762,0.281862,0.177638,0.187247,-0.903005,0.249656,-0.038224,0.784318,-0.566617,-104.407292,20.383565,-158.544202
58607,NaN,-12.597786,-7.550575,-3.659248,7.735003,4.855406,2.257918,0.174600,-0.128590,-0.579491,0.248589,-0.040634,0.783541,-0.567993,-104.249384,20.084097,-158.378264
58608,NaN,-14.906016,-12.377414,-0.908090,9.938406,1.621610,6.764775,-0.742681,-0.675972,-0.452777,0.249827,-0.045248,0.784699,-0.565497,-104.513675,19.931902,-157.908038
58609,NaN,-3.772782,-24.443875,0.420388,-1.518942,-7.776444,13.620669,-1.077105,-1.054723,-1.150446,0.250495,-0.054079,0.786123,-0.562439,-104.860561,19.451504,-157.107414
58610,NaN,2.929434,-16.271683,0.097785,-5.545420,-7.018067,4.092122,-0.229426,-1.102034,-2.058037,0.248993,-0.065547,0.784770,-0.563776,-104.677516,18.475333,-156.141628
58611,NaN,3.217628,-9.841228,-2.386441,-5.561146,-2.736956,-1.182687,-0.980274,-0.777055,-1.778942,0.246729,-0.075925,0.785929,-0.561850,-105.012778,17.608169,-155.412160
58612,NaN,2.042182,-12.449985,-3.835612,-5.484512,-1.976574,2.015056,0.143276,-0.097527,-1.352908,0.243390,-0.081336,0.784866,-0.564031,-104.850488,16.876207,-155.144136
58613,NaN,-0.742388,-6.969855,-0.308509,-0.489813,-1.856514,-3.064507,0.265014,0.211335,-1.270536,0.239118,-0.085393,0.783836,-0.566685,-104.677256,16.145433,-155.070566
58614,NaN,-0.389307,-7.619385,-1.325254,-1.288861,-1.327710,-2.293492,-0.327418,0.095095,-1.063609,0.235616,-0.089683,0.784402,-0.566705,-104.834334,15.544636,-154.961617
58615,NaN,0.150469,-9.749815,-3.502295,-2.966497,-0.433132,0.104927,-0.506844,-0.001862,-0.867130,0.232974,-0.093676,0.785432,-0.565725,-105.088294,15.068944,-154.825390
58616,NaN,-1.431581,-10.259489,-4.930181,-2.222257,1.240815,1.373660,-0.410676,0.007109,-0.853405,0.230365,-0.097486,0.786185,-0.565103,-105.289353,14.598243,-154.694593
58617,NaN,-2.343643,-9.265514,-4.521203,-1.039362,1.626022,0.582452,-0.108718,0.064366,-0.824818,0.227764,-0.100662,0.786152,-0.565646,-105.327785,14.136720,-154.600371
58618,NaN,-1.657165,-8.049223,-2.475793,-0.486097,0.054495,-1.243783,-0.080334,0.078143,-0.777956,0.225242,-0.103592,0.786063,-0.566250,-105.354123,13.697222,-154.521050
58619,NaN,-1.307831,-9.372141,-2.783423,-0.994004,-0.258418,-0.002508,-0.185194,0.064582,-0.734622,0.222848,-0.106495,0.786269,-0.566373,-105.441003,13.285633,-154.440680
58620,NaN,-2.272529,-9.691978,-2.125780,0.203931,-0.491440,0.352656,-0.033571,0.047935,-0.730612,0.220598,-0.109271,0.786016,-0.567076,-105.439381,12.876982,-154.351145
58621,NaN,-2.605051,-9.157386,-2.191747,0.574074,-0.088790,-0.060259,-0.118912,0.031938,-0.765700,0.218273,-0.112311,0.785959,-0.567460,-105.484250,12.453304,-154.247229
58622,NaN,-2.102578,-9.180126,-2.951526,-0.154222,0.356111,0.049154,-0.148499,0.099055,-0.822774,0.215491,-0.115426,0.786013,-0.567824,-105.552761,11.986077,-154.171854
58623,NaN,-1.529172,-8.997616,-2.848336,-0.521698,0.110820,-0.266827,-0.101067,0.202827,-0.850642,0.212256,-0.118293,0.786015,-0.568448,-105.605824,11.489432,-154.150393
58624,NaN,-1.502703,-9.005080,-3.136588,-0.598132,0.366889,-0.184877,-0.154196,0.267577,-0.884295,0.208625,-0.121172,0.786200,-0.568932,-105.695310,10.962378,-154.159292
58625,NaN,-1.407774,-9.411396,-3.002745,-0.551989,0.110483,0.149995,-0.086803,0.318034,-0.883361,0.204845,-0.123820,0.786230,-0.569692,-105.751403,10.429854,-154.196130
58626,NaN,-1.475246,-9.599336,-2.836385,-0.338536,-0.025128,0.299323,0.023186,0.297666,-0.839956,0.201321,-0.126252,0.785935,-0.570821,-105.743177,9.922536,-154.227959
58627,NaN,-1.148744,-9.523162,-2.774129,-0.521992,-0.153002,0.157748,0.063074,0.245394,-0.784803,0.198193,-0.128562,0.785496,-0.572003,-105.708508,9.455647,-154.239542
58628,NaN,-0.783663,-9.550151,-2.844449,-0.810742,-0.219129,0.147462,0.050305,0.228679,-0.730163,0.195264,-0.130728,0.785098,-0.573065,-105.680873,9.019590,-154.250439
58629,NaN,-0.627122,-9.366257,-2.440037,-0.699047,-0.536487,-0.153654,0.057065,0.197055,-0.698510,0.192564,-0.132840,0.784661,-0.574090,-105.647481,8.607797,-154.249025
58630,NaN,-0.327066,-9.571947,-2.571090,-0.969491,-0.587668,0.038914,-0.043877,0.182240,-0.604356,0.190110,-0.134733,0.784552,-0.574616,-105.672776,8.248284,-154.253931
58631,NaN,-0.467658,-9.859322,-2.574678,-0.792933,-0.587412,0.340136,-0.002812,0.173657,-0.554020,0.187873,-0.136401,0.784345,-0.575241,-105.675043,7.919821,-154.262002
58632,NaN,-0.550392,-9.892813,-2.599761,-0.681942,-0.513775,0.395163,0.060098,0.132429,-0.497946,0.185987,-0.137919,0.783949,-0.576031,-105.639194,7.626651,-154.255786
58633,NaN,-0.325073,-9.746680,-2.606389,-0.845917,-0.533629,0.232022,0.086576,0.124159,-0.440591,0.184329,-0.139199,0.783505,-0.576858,-105.588915,7.368422,-154.254285
58634,NaN,-0.535667,-9.796503,-2.563531,-0.604086,-0.464509,0.299150,0.147308,0.131109,-0.395807,0.182802,-0.140240,0.782918,-0.577889,-105.505119,7.131768,-154.263715
58635,NaN,-0.376632,-9.095019,-2.495514,-0.690757,-0.357699,-0.406116,0.095513,0.183361,-0.382152,0.181085,-0.141110,0.782537,-0.578733,-105.454928,6.896751,-154.304766
58636,NaN,-0.612364,-8.474369,-2.657725,-0.527536,0.083216,-0.926288,0.015530,0.220096,-0.362486,0.179210,-0.141881,0.782428,-0.579275,-105.453041,6.664883,-154.369179
58637,NaN,-0.913775,-8.768264,-2.832131,-0.299543,0.290719,-0.562603,-0.028893,0.186056,-0.315703,0.177586,-0.142595,0.782450,-0.579570,-105.475153,6.466160,-154.421974
58638,NaN,-1.029635,-9.289279,-2.999426,-0.231140,0.344786,-0.005801,-0.023691,0.118062,-0.288486,0.176296,-0.143406,0.782412,-0.579816,-105.490257,6.290714,-154.440914
58639,NaN,-1.006086,-9.568408,-2.952191,-0.199972,0.229049,0.246614,0.070115,0.094632,-0.285493,0.175186,-0.144179,0.782083,-0.580403,-105.450318,6.122640,-154.447513
58640,NaN,-1.095846,-9.309776,-2.665500,0.025338,0.115155,-0.067755,0.083000,0.100697,-0.299378,0.174009,-0.144989,0.781708,-0.581061,-105.403029,5.943846,-154.455296
58641,NaN,-1.151555,-8.931101,-2.421135,0.198468,0.055154,-0.490133,0.048022,0.097729,-0.322667,0.172762,-0.145916,0.781416,-0.581593,-105.375328,5.754774,-154.458167
58642,NaN,-1.212205,-9.438923,-2.563261,0.231694,0.077089,0.039891,0.014663,0.081613,-0.326019,0.171531,-0.146944,0.781200,-0.581989,-105.365715,5.564185,-154.451462
58643,NaN,-1.090639,-9.513508,-2.620423,0.128265,0.071429,0.114109,0.064264,0.080341,-0.350211,0.170284,-0.148015,0.780820,-0.582593,-105.327384,5.362534,-154.440625
58644,NaN,-1.060291,-9.380350,-2.575393,0.145995,0.078376,-0.029015,0.070401,0.094423,-0.368733,0.168918,-0.149123,0.780416,-0.583249,-105.285958,5.146416,-154.434759
58645,NaN,-1.179226,-9.216366,-2.619847,0.259018,0.234841,-0.165242,0.055465,0.105004,-0.400166,0.167421,-0.150323,0.780040,-0.583875,-105.253311,4.913417,-154.430320
58646,NaN,-1.120012,-9.256310,-2.599462,0.250541,0.202943,-0.138660,0.045108,0.100436,-0.418422,0.165867,-0.151628,0.779671,-0.584474,-105.226100,4.668943,-154.420538
58647,NaN,-0.974928,-9.363538,-2.596853,0.161664,0.131518,-0.049164,0.044743,0.099404,-0.436792,0.164275,-0.152995,0.779288,-0.585079,-105.198969,4.416532,-154.407705
58648,NaN,-0.813998,-9.102232,-2.371729,0.140040,-0.039110,-0.372507,0.037035,0.107016,-0.449122,0.162598,-0.154405,0.778917,-0.585670,-105.176418,4.154112,-154.397181
58649,NaN,-0.633556,-9.238314,-2.297555,0.056491,-0.197959,-0.274132,-0.038003,0.136489,-0.461936,0.160722,-0.155827,0.778778,-0.585996,-105.197998,3.882225,-154.401241
58650,NaN,-1.180344,-9.635430,-2.862245,0.366692,0.437633,0.291818,-0.003231,0.078615,-0.433912,0.159168,-0.157293,0.778506,-0.586390,-105.197719,3.632493,-154.377234
58651,NaN,-0.182510,-9.267698,-2.479379,-0.350117,-0.204286,-0.225906,0.083763,0.061198,-0.451031,0.157711,-0.158794,0.777950,-0.587116,-105.147050,3.377928,-154.341288
58652,NaN,-0.193035,-9.460247,-2.363874,-0.241718,-0.324852,-0.068083,0.041461,0.120232,-0.453406,0.155971,-0.160176,0.777556,-0.587727,-105.122543,3.111174,-154.337702
58653,NaN,-0.244488,-9.383582,-2.514872,-0.228351,-0.129558,-0.098426,0.048669,0.117166,-0.420300,0.154358,-0.161419,0.777164,-0.588331,-105.094176,2.865210,-154.337656
58654,NaN,-0.090299,-9.325033,-2.384492,-0.279163,-0.272077,-0.195094,0.035748,0.121067,-0.421943,0.152700,-0.162679,0.776805,-0.588890,-105.073223,2.615720,-154.339469
58655,NaN,-0.333420,-9.466464,-2.530067,-0.075811,-0.056796,-0.008748,0.008832,0.130072,-0.412535,0.151026,-0.163884,0.776540,-0.589338,-105.068050,2.372129,-154.347889
58656,NaN,-0.121717,-9.421752,-2.465095,-0.205881,-0.173950,-0.076767,0.026740,0.106338,-0.401659,0.149477,-0.165113,0.776206,-0.589829,-105.052040,2.136046,-154.344672
58657,NaN,-0.072954,-9.370395,-2.477650,-0.224188,-0.152753,-0.123794,0.003968,0.128188,-0.395959,0.147853,-0.166261,0.775960,-0.590240,-105.049637,1.901910,-154.354599
58658,NaN,-0.090008,-9.390861,-2.412088,-0.144125,-0.188377,-0.119486,0.032948,0.145488,-0.388726,0.146195,-0.167319,0.775641,-0.590773,-105.030827,1.667151,-154.375061
58659,NaN,-0.203915,-9.229398,-2.405143,-0.017605,-0.087382,-0.273295,-0.008729,0.172577,-0.387897,0.144410,-0.168313,0.775465,-0.591160,-105.036316,1.430882,-154.410826
58660,NaN,-0.500214,-9.346685,-2.607718,0.212566,0.203325,-0.100620,-0.038544,0.185244,-0.406422,0.142484,-0.169373,0.775364,-0.591457,-105.058729,1.180414,-154.450628
58661,NaN,-0.387910,-9.305989,-2.546532,0.173826,0.126647,-0.159174,-0.038905,0.184806,-0.430087,0.140501,-0.170513,0.775243,-0.591762,-105.081202,0.918959,-154.486717
58662,NaN,-0.337891,-9.288157,-2.522216,0.179644,0.103949,-0.184482,-0.044644,0.187064,-0.445780,0.138444,-0.171723,0.775120,-0.592058,-105.106678,0.646440,-154.521447
58663,NaN,-0.524966,-9.328997,-2.631238,0.351779,0.284911,-0.116087,-0.060700,0.201170,-0.469311,0.136262,-0.172980,0.775033,-0.592313,-105.141320,0.360809,-154.560472
58664,NaN,-0.581143,-9.587312,-2.850430,0.387717,0.454432,0.188420,-0.065189,0.204182,-0.498574,0.133963,-0.174355,0.774927,-0.592573,-105.178225,0.056520,-154.596447
58665,NaN,-0.298549,-9.532730,-2.924236,0.148088,0.429130,0.152595,-0.042548,0.223232,-0.543024,0.131490,-0.175818,0.774725,-0.592959,-105.202049,-0.273227,-154.636273
58666,NaN,0.045649,-9.479375,-2.630422,0.006138,0.059645,0.024785,-0.028827,0.242755,-0.554958,0.128905,-0.177270,0.774474,-0.593421,-105.217627,-0.614482,-154.684838
58667,NaN,0.012461,-9.557599,-2.633354,0.099286,0.079657,0.100228,-0.054958,0.265672,-0.553679,0.126223,-0.178654,0.774314,-0.593792,-105.247795,-0.956537,-154.746283
58668,NaN,-0.044155,-9.493773,-2.312424,0.328797,-0.139565,-0.047796,-0.014188,0.271125,-0.572190,0.123488,-0.180076,0.774008,-0.594336,-105.254144,-1.311615,-154.807702
58669,NaN,-0.070244,-9.415780,-2.272823,0.414467,-0.122982,-0.135893,-0.064330,0.250418,-0.595212,0.120730,-0.181667,0.773814,-0.594671,-105.289312,-1.674366,-154.854225
