// General information: 
//  MT Manager version: 2019.0.1 
//  XDA version: 2019.0.1 build 2740 rev 84096 built on 2019-01-30
// Device information: 
//  DeviceId: 00B4381A
//  ProductCode: MTW2-3A7G6
//  Firmware Version: 4.3.4
//  Hardware Version: 1.1.0
// Device settings: 
//  Filter Profile: human(46.1)
//  Option Flags: Orientation Smoother Disabled, AHS Disabled, ICC Disabled
// Coordinate system: ENU
PacketCounter,SampleTimeFine,Acc_X,Acc_Y,Acc_Z,FreeAcc_E,FreeAcc_N,FreeAcc_U,Gyr_X,Gyr_Y,Gyr_Z,Quat_q0,Quat_q1,Quat_q2,Quat_q3,Roll,Pitch,Yaw
04310,NaN,-6.838546,5.878316,-5.509264,0.354520,0.027923,0.748838,0.199194,-0.041705,-0.019423,-0.106590,-0.754548,0.422006,0.491128,130.697920,40.631852,-77.720315
04311,NaN,-6.635595,5.948476,-5.207638,0.088453,-0.101926,0.508008,0.188072,-0.140429,-0.033636,-0.105425,-0.754392,0.422405,0.491276,130.772435,40.705060,-77.781167
04312,NaN,-6.316361,5.958419,-5.010906,-0.035998,-0.310545,0.207822,0.188572,-0.163889,-0.055258,-0.104161,-0.754223,0.422739,0.491519,130.845158,40.795661,-77.844890
04313,NaN,-6.108054,6.164209,-4.719173,-0.359123,-0.532929,0.044462,0.122986,-0.161672,-0.035661,-0.103191,-0.753983,0.422980,0.491884,130.874984,40.877809,-77.916850
04314,NaN,-6.170244,6.186104,-4.470447,-0.585305,-0.447542,-0.025869,0.039918,-0.153291,-0.007182,-0.102628,-0.753659,0.423124,0.492374,130.850694,40.943608,-77.998412
04315,NaN,-6.472524,6.310954,-4.221006,-0.894941,-0.244779,0.120979,-0.086758,-0.197659,0.033479,-0.102542,-0.753075,0.423127,0.493282,130.723986,41.009164,-78.125616
04316,NaN,-6.284119,6.138509,-4.259113,-0.716358,-0.293635,-0.080678,-0.219340,-0.262464,0.055623,-0.102879,-0.752213,0.422923,0.494699,130.488763,41.088059,-78.301852
04317,NaN,-5.708924,5.883478,-4.567866,-0.202055,-0.646891,-0.452499,-0.311508,-0.218753,0.041210,-0.103613,-0.751441,0.422409,0.496155,130.221877,41.157338,-78.446026
04318,NaN,-5.610349,5.381700,-4.903447,0.390379,-0.498020,-0.643063,-0.314840,-0.097254,0.018061,-0.104566,-0.751015,0.421740,0.497170,130.006191,41.190517,-78.508963
04319,NaN,-5.719372,5.178517,-5.182410,0.734916,-0.361672,-0.554464,-0.203349,0.009759,0.024394,-0.105334,-0.750899,0.421311,0.497546,129.893876,41.182342,-78.512334
04320,NaN,-6.007154,5.254939,-5.111682,0.599982,-0.171489,-0.355406,-0.066728,0.066426,0.069715,-0.105828,-0.750899,0.421366,0.497395,129.866650,41.132423,-78.505007
04321,NaN,-6.072544,5.517281,-4.948064,0.314360,-0.234422,-0.239510,0.000282,0.075115,0.095773,-0.106147,-0.750902,0.421677,0.497058,129.873224,41.068851,-78.505010
04322,NaN,-6.331304,5.383237,-4.654179,0.095475,0.127560,-0.288999,0.063887,0.083366,0.121169,-0.106314,-0.750905,0.422241,0.496540,129.910900,40.990056,-78.512856
04323,NaN,-6.606194,5.505581,-4.578994,-0.080614,0.285076,-0.074483,0.118530,0.029550,0.133732,-0.106186,-0.750777,0.423012,0.496104,129.955670,40.926564,-78.557946
04324,NaN,-6.602150,5.535975,-4.532454,-0.140664,0.281849,-0.082358,0.132584,-0.052438,0.107249,-0.105774,-0.750507,0.423765,0.495957,129.985405,40.903903,-78.638043
04325,NaN,-6.385766,5.644210,-4.470807,-0.219880,0.070969,-0.191365,0.111411,-0.101226,0.063493,-0.105222,-0.750199,0.424323,0.496064,129.998754,40.919434,-78.724925
04326,NaN,-6.320887,5.662814,-4.488052,-0.205044,0.002284,-0.214686,0.056611,-0.119939,0.011735,-0.104714,-0.749924,0.424565,0.496381,129.989695,40.963610,-78.797739
04327,NaN,-6.213021,5.520205,-4.628805,0.008022,-0.034726,-0.299599,0.007880,-0.122642,-0.017907,-0.104303,-0.749680,0.424572,0.496830,129.961426,41.022745,-78.857494
04328,NaN,-6.193507,5.533847,-4.639042,0.018467,-0.068401,-0.299608,-0.026219,-0.112599,-0.012621,-0.104061,-0.749430,0.424512,0.497308,129.915286,41.074872,-78.914338
04329,NaN,-6.208578,5.594284,-4.664032,0.011439,-0.108275,-0.242745,-0.034772,-0.079204,-0.021751,-0.103892,-0.749279,0.424376,0.497687,129.880254,41.119673,-78.947083
04330,NaN,-6.582255,5.675190,-4.690819,-0.058159,0.104252,0.062706,-0.051773,-0.046695,-0.049711,-0.103793,-0.749259,0.424079,0.497991,129.856516,41.163845,-78.947519
04331,NaN,-6.739449,5.695366,-4.779550,-0.012319,0.173806,0.220811,-0.072928,-0.074871,-0.114695,-0.103545,-0.749296,0.423497,0.498482,129.831047,41.247919,-78.932490
04332,NaN,-6.570251,5.596935,-4.850052,0.129108,0.075729,0.086527,-0.077523,-0.082338,-0.157009,-0.103200,-0.749400,0.422753,0.499029,129.813331,41.352409,-78.901450
04333,NaN,-6.480861,5.482708,-4.814070,0.177567,0.073292,-0.055639,-0.080353,-0.063630,-0.168759,-0.102869,-0.749574,0.421943,0.499521,129.805481,41.456161,-78.853406
04334,NaN,-6.455030,5.181377,-4.921810,0.432380,0.196883,-0.194343,-0.014805,-0.041938,-0.161710,-0.102361,-0.749819,0.421315,0.499786,129.841131,41.547905,-78.796207
04335,NaN,-6.463472,5.360511,-4.898552,0.311859,0.081314,-0.096543,0.093677,-0.044928,-0.142780,-0.101482,-0.750074,0.421027,0.499827,129.932152,41.633316,-78.749608
04336,NaN,-6.326023,5.875129,-4.669144,-0.140899,-0.294555,-0.002999,0.132574,-0.076496,-0.087202,-0.100535,-0.750150,0.421065,0.499872,130.014835,41.704965,-78.748920
04337,NaN,-6.409418,5.934652,-4.557892,-0.278978,-0.251774,0.032813,0.048483,-0.154756,0.018668,-0.099997,-0.749766,0.421324,0.500338,129.984232,41.759894,-78.846263
04338,NaN,-6.550960,5.813755,-4.473302,-0.294861,-0.057161,0.017624,0.008944,-0.255572,0.084137,-0.099565,-0.748970,0.421783,0.501228,129.869346,41.822087,-79.035718
04339,NaN,-6.334526,5.872434,-4.393748,-0.339789,-0.237698,-0.130503,-0.052966,-0.360553,0.134272,-0.099262,-0.747773,0.422322,0.502619,129.660944,41.901226,-79.312145
04340,NaN,-6.015342,5.827495,-4.541868,-0.117774,-0.490462,-0.298588,-0.103384,-0.391095,0.170077,-0.099180,-0.746395,0.422886,0.504207,129.398650,41.973875,-79.625291
04341,NaN,-5.965110,5.894582,-4.618989,-0.050043,-0.595903,-0.257270,-0.126053,-0.345756,0.149189,-0.099218,-0.745162,0.423287,0.505686,129.147864,42.039261,-79.901700
04342,NaN,-5.984944,5.888349,-4.626502,-0.012864,-0.583857,-0.244218,-0.150776,-0.279252,0.122054,-0.099428,-0.744138,0.423494,0.506977,128.917454,42.090841,-80.125943
04343,NaN,-6.254198,5.845176,-4.621991,-0.002098,-0.362208,-0.090927,-0.127871,-0.208152,0.090839,-0.099616,-0.743372,0.423601,0.507973,128.738960,42.131241,-80.292435
04344,NaN,-6.428172,5.943147,-4.605172,-0.068012,-0.294588,0.074605,-0.125673,-0.176398,0.054566,-0.099778,-0.742762,0.423569,0.508861,128.585683,42.175066,-80.422793
04345,NaN,-6.376089,5.784701,-4.510652,-0.038733,-0.212136,-0.095860,-0.092763,-0.167417,0.045106,-0.099806,-0.742211,0.423575,0.509652,128.458122,42.220770,-80.543125
04346,NaN,-6.366869,5.839040,-4.409649,-0.136813,-0.228285,-0.117041,-0.029378,-0.153380,0.055806,-0.099663,-0.741704,0.423779,0.510249,128.368555,42.255399,-80.660566
04347,NaN,-6.353474,5.972054,-4.309852,-0.279250,-0.296441,-0.094610,-0.005017,-0.131171,0.039615,-0.099428,-0.741300,0.423970,0.510722,128.307506,42.290402,-80.756587
04348,NaN,-6.581602,6.119961,-4.175524,-0.489259,-0.187114,0.083373,-0.016403,-0.110048,0.033082,-0.099271,-0.740957,0.424102,0.511141,128.250153,42.319643,-80.837032
04349,NaN,-6.573262,6.144725,-4.166486,-0.500120,-0.210009,0.088363,-0.056105,-0.100822,0.015210,-0.099226,-0.740657,0.424056,0.511622,128.179947,42.354723,-80.903068
04350,NaN,-6.557685,6.055202,-4.264231,-0.358136,-0.198403,0.070871,-0.099138,-0.088578,-0.004483,-0.099325,-0.740407,0.423826,0.512156,128.095861,42.393139,-80.952672
04351,NaN,-6.451230,5.836438,-4.339050,-0.156665,-0.166246,-0.093761,-0.113569,-0.058621,-0.012967,-0.099511,-0.740245,0.423508,0.512616,128.019011,42.425891,-80.979649
04352,NaN,-6.526103,5.823283,-4.376266,-0.117056,-0.116977,-0.033886,-0.114958,-0.034893,-0.002982,-0.099787,-0.740121,0.423216,0.512984,127.947329,42.444588,-80.997344
04353,NaN,-6.604830,5.924936,-4.269620,-0.258336,-0.093537,0.030218,-0.150926,-0.037658,0.012876,-0.100221,-0.739939,0.422887,0.513432,127.849315,42.458222,-81.023945
04354,NaN,-6.783932,5.808251,-4.210995,-0.250401,0.127442,0.057014,-0.228729,-0.069042,0.056461,-0.100998,-0.739543,0.422540,0.514136,127.679097,42.461924,-81.091009
04355,NaN,-6.908736,5.611674,-4.327935,-0.039220,0.308482,0.079521,-0.272674,-0.114607,0.045992,-0.101805,-0.739030,0.422058,0.515109,127.468658,42.487293,-81.180786
04356,NaN,-6.689103,5.345671,-4.700138,0.465324,0.207491,-0.058101,-0.245905,-0.133565,0.037581,-0.102460,-0.738497,0.421628,0.516096,127.267577,42.521725,-81.278897
04357,NaN,-6.978728,5.260363,-4.850458,0.629340,0.426535,0.153403,-0.162105,-0.175274,0.065028,-0.102780,-0.737841,0.421531,0.517047,127.088728,42.558951,-81.415538
04358,NaN,-6.967564,5.483065,-5.152336,0.793004,0.189179,0.409487,-0.089280,-0.169548,0.037105,-0.102778,-0.737295,0.421521,0.517836,126.962148,42.605617,-81.536115
04359,NaN,-6.882029,5.164265,-5.268913,1.077023,0.286170,0.214852,0.008591,-0.096688,0.011642,-0.102496,-0.737042,0.421627,0.518164,126.930732,42.639818,-81.599250
04360,NaN,-7.131121,5.317954,-5.220557,0.929708,0.380144,0.452734,0.135769,-0.062785,0.029113,-0.101869,-0.736903,0.422115,0.518087,126.980590,42.653277,-81.649712
04361,NaN,-7.010964,5.356368,-5.215759,0.910830,0.263340,0.392677,0.199771,-0.079214,0.007084,-0.100907,-0.736802,0.422691,0.517950,127.067503,42.683597,-81.699820
04362,NaN,-6.837899,5.638868,-4.669332,0.307398,0.110972,0.199781,0.228412,-0.069072,-0.013232,-0.099814,-0.736783,0.423265,0.517720,127.181448,42.718713,-81.734133
04363,NaN,-6.820973,5.785780,-4.338821,-0.055557,0.095326,0.127842,0.131969,-0.111720,0.009583,-0.099039,-0.736557,0.423689,0.517844,127.215007,42.759264,-81.805551
04364,NaN,-6.911559,5.717091,-4.085860,-0.241200,0.268496,0.037122,0.052149,-0.193642,-0.004781,-0.098354,-0.736108,0.423899,0.518441,127.172600,42.833715,-81.921311
04365,NaN,-6.547668,5.574653,-4.094633,-0.110281,0.076316,-0.289205,-0.024199,-0.262909,-0.026723,-0.097739,-0.735488,0.423859,0.519469,127.063873,42.943054,-82.070122
04366,NaN,-6.494812,5.820258,-3.618718,-0.618432,0.011338,-0.390879,-0.077568,-0.271349,-0.018188,-0.097331,-0.734800,0.423719,0.520631,126.917474,43.050158,-82.228939
04367,NaN,-6.271027,5.422037,-3.965532,-0.072929,-0.020777,-0.623351,-0.140491,-0.274424,-0.015459,-0.097148,-0.734067,0.423422,0.521940,126.732265,43.157726,-82.391568
04368,NaN,-6.136758,5.431962,-4.061711,0.037867,-0.165827,-0.667496,-0.094165,-0.242198,-0.004157,-0.096899,-0.733414,0.423275,0.523023,126.583008,43.247742,-82.540020
04369,NaN,-5.965226,5.533407,-4.110609,0.059385,-0.378129,-0.704828,-0.053370,-0.197406,0.014876,-0.096639,-0.732857,0.423278,0.523848,126.470151,43.314459,-82.669389
04370,NaN,-5.796511,5.665148,-4.180063,0.077645,-0.609723,-0.713865,-0.032993,-0.144122,0.034316,-0.096474,-0.732408,0.423384,0.524422,126.385450,43.352904,-82.774491
04371,NaN,-5.818292,5.649621,-4.240184,0.142799,-0.606607,-0.682434,-0.012620,-0.096263,0.033032,-0.096325,-0.732096,0.423511,0.524781,126.333751,43.376613,-82.848596
04372,NaN,-5.844011,5.802305,-4.278334,0.097739,-0.696152,-0.559084,0.018949,-0.057705,0.050577,-0.096196,-0.731863,0.423771,0.524920,126.311124,43.378009,-82.906574
04373,NaN,-6.000900,5.831932,-4.398138,0.171127,-0.636085,-0.382313,0.015397,-0.003798,0.064959,-0.096225,-0.731741,0.424043,0.524866,126.305548,43.355559,-82.936884
04374,NaN,-6.247677,5.883261,-4.561912,0.260396,-0.534315,-0.111967,0.021834,0.033587,0.079615,-0.096355,-0.731687,0.424374,0.524649,126.315118,43.312483,-82.950411
04375,NaN,-6.661624,5.914933,-4.589316,0.226881,-0.256044,0.202723,0.049169,0.041771,0.087999,-0.096418,-0.731651,0.424797,0.524346,126.341389,43.263937,-82.962539
04376,NaN,-7.027891,6.117809,-4.492266,0.003557,-0.079083,0.531055,0.043725,0.003442,0.117292,-0.096503,-0.731448,0.425337,0.524175,126.338436,43.213665,-83.012707
04377,NaN,-7.267083,6.088204,-4.552414,0.053345,0.100468,0.703407,0.003460,-0.104630,0.126166,-0.096521,-0.730925,0.425850,0.524485,126.262910,43.197151,-83.135292
04378,NaN,-7.217575,6.043646,-4.548554,0.091320,0.094752,0.641548,-0.016948,-0.205999,0.119701,-0.096388,-0.730138,0.426341,0.525207,126.133635,43.216551,-83.319234
04379,NaN,-6.699270,6.136058,-4.360374,-0.055763,-0.283168,0.260096,-0.027789,-0.209158,0.080723,-0.096179,-0.729420,0.426656,0.525986,126.009075,43.255988,-83.487194
04380,NaN,-6.644483,6.109410,-4.394412,0.000165,-0.319286,0.221402,-0.006466,-0.014309,0.018775,-0.096151,-0.729356,0.426712,0.526034,126.001118,43.257145,-83.502701
04381,NaN,-7.210791,6.166272,-4.156142,-0.281338,0.129449,0.540864,-0.000930,0.079663,-0.018589,-0.096198,-0.729622,0.426596,0.525750,126.049245,43.245176,-83.441048
04382,NaN,-7.286822,6.123331,-4.137752,-0.287792,0.217681,0.559570,-0.001875,0.082293,-0.031033,-0.096229,-0.729920,0.426437,0.525459,126.101770,43.236816,-83.372090
04383,NaN,-7.175161,5.978708,-4.075459,-0.263451,0.244224,0.371035,0.011418,0.068526,-0.055606,-0.096111,-0.730242,0.426224,0.525207,126.163850,43.245655,-83.300386
04384,NaN,-6.920856,5.866906,-3.957934,-0.291807,0.162289,0.080370,0.037561,0.056510,-0.064981,-0.095853,-0.730563,0.426056,0.524944,126.238522,43.261646,-83.232062
04385,NaN,-6.637918,5.876152,-3.959897,-0.279733,-0.052444,-0.107488,0.033482,0.065906,-0.063470,-0.095628,-0.730905,0.425873,0.524658,126.314681,43.274875,-83.158296
04386,NaN,-6.573185,5.726044,-3.927224,-0.231743,0.000503,-0.254250,0.022702,0.057237,-0.058875,-0.095442,-0.731207,0.425688,0.524420,126.379237,43.287693,-83.092305
04387,NaN,-6.588211,5.786285,-3.995139,-0.211246,-0.048458,-0.179423,-0.005570,0.013631,0.005403,-0.095429,-0.731246,0.425679,0.524375,126.388316,43.286819,-83.083764
04388,NaN,-6.850892,5.569540,-4.060306,-0.062180,0.256716,-0.098223,-0.064601,-0.046991,0.058046,-0.095647,-0.730985,0.425742,0.524648,126.320120,43.281085,-83.138413
04389,NaN,-6.859811,5.303790,-4.199352,0.207108,0.384691,-0.188196,-0.084158,-0.177161,0.086407,-0.095727,-0.730313,0.425914,0.525429,126.175259,43.307432,-83.288697
04390,NaN,-6.690419,5.081263,-4.315900,0.456071,0.360549,-0.385605,-0.024808,-0.265937,0.123631,-0.095506,-0.729355,0.426425,0.526385,126.013364,43.345103,-83.513110
04391,NaN,-6.442425,5.455783,-4.169745,0.176965,-0.009080,-0.398563,0.020875,-0.290386,0.158020,-0.095149,-0.728280,0.427187,0.527319,125.855967,43.375700,-83.769120
04392,NaN,-6.344726,5.634845,-4.086590,0.039795,-0.165994,-0.395784,-0.026554,-0.241230,0.153781,-0.095066,-0.727319,0.427789,0.528173,125.693948,43.390194,-83.992078
04393,NaN,-6.382419,5.638071,-4.033527,0.006597,-0.123463,-0.390524,-0.048003,-0.136977,0.116979,-0.095179,-0.726701,0.428146,0.528713,125.577242,43.387720,-84.131269
04394,NaN,-6.703026,5.653294,-4.089958,0.034155,0.084480,-0.137475,-0.072846,-0.037528,0.083247,-0.095513,-0.726405,0.428272,0.528957,125.500616,43.366577,-84.191306
04395,NaN,-6.837793,5.648967,-4.174302,0.103860,0.161375,-0.011963,-0.061429,0.027588,0.017851,-0.095765,-0.726428,0.428154,0.528976,125.479956,43.355350,-84.179476
04396,NaN,-7.030928,5.782391,-4.231262,0.068678,0.202037,0.223648,-0.043969,0.052649,-0.032490,-0.095881,-0.726633,0.427893,0.528885,125.496010,43.358189,-84.128652
04397,NaN,-6.906590,5.632043,-4.185774,0.114500,0.217898,0.030127,-0.015810,0.049240,-0.031403,-0.095884,-0.726840,0.427706,0.528751,125.526500,43.362724,-84.080392
04398,NaN,-7.059699,6.183121,-4.158389,-0.210018,-0.005310,0.449788,0.004140,-0.007565,-0.045458,-0.095662,-0.726936,0.427553,0.528783,125.547718,43.391663,-84.062215
04399,NaN,-6.752771,5.955416,-4.286761,0.045507,-0.136251,0.158399,-0.113065,-0.111682,-0.077912,-0.095550,-0.726770,0.427017,0.529463,125.466165,43.471444,-84.095942
04400,NaN,-6.325326,5.774550,-4.404048,0.283029,-0.382168,-0.193715,-0.092922,-0.135989,-0.058131,-0.095373,-0.726506,0.426623,0.530175,125.378831,43.548972,-84.154692
04401,NaN,-6.371317,6.016424,-4.441486,0.199489,-0.522083,-0.004250,-0.118673,-0.146256,-0.048518,-0.095286,-0.726182,0.426195,0.530978,125.269041,43.626387,-84.224617
04402,NaN,-6.275949,5.765544,-4.660577,0.537977,-0.516163,-0.127950,-0.123244,-0.145673,-0.055375,-0.095206,-0.725871,0.425734,0.531787,125.158684,43.705612,-84.291413
04403,NaN,-6.273784,5.789659,-4.524961,0.422062,-0.501504,-0.172867,-0.056176,-0.129595,-0.043977,-0.094939,-0.725610,0.425480,0.532394,125.090225,43.775230,-84.353153
04404,NaN,-6.211949,6.003786,-4.303484,0.134015,-0.618382,-0.181833,-0.034906,-0.080830,-0.043276,-0.094709,-0.725487,0.425267,0.532772,125.055496,43.827248,-84.383708
04405,NaN,-6.420189,5.860382,-4.349508,0.236179,-0.402623,-0.103762,-0.036616,-0.037511,-0.062109,-0.094519,-0.725519,0.424955,0.533011,125.045219,43.875014,-84.377520
04406,NaN,-6.371344,5.997805,-4.122345,-0.028354,-0.456489,-0.150792,0.025595,0.067936,-0.061267,-0.094337,-0.725859,0.424768,0.532730,125.117903,43.886419,-84.303096
04407,NaN,-6.525768,6.329191,-3.864205,-0.439047,-0.470695,0.044395,-0.031744,0.142224,-0.045200,-0.094556,-0.726336,0.424445,0.532298,125.186100,43.866964,-84.187718
04408,NaN,-6.756451,6.065578,-3.839159,-0.348992,-0.130654,0.038259,-0.104326,0.194744,-0.066243,-0.095102,-0.726962,0.423834,0.531833,125.242874,43.838627,-84.028734
04409,NaN,-6.858725,5.760860,-3.868381,-0.183076,0.126145,-0.058480,-0.095256,0.204040,-0.082811,-0.095583,-0.727651,0.423176,0.531328,125.314202,43.816125,-83.856181
04410,NaN,-6.983538,5.851818,-3.874025,-0.245321,0.158058,0.083598,-0.062568,0.188601,-0.114434,-0.095837,-0.728380,0.422502,0.530820,125.407205,43.812062,-83.679270
04411,NaN,-7.016293,5.944658,-3.666794,-0.487338,0.184390,0.073727,-0.081014,0.258107,-0.192894,-0.096087,-0.729450,0.421453,0.530138,125.545908,43.822514,-83.421160
04412,NaN,-7.318740,5.896868,-3.835505,-0.358404,0.371638,0.325435,-0.147396,0.208686,-0.237029,-0.096367,-0.730447,0.420096,0.529792,125.638608,43.868392,-83.174566
04413,NaN,-7.212345,5.689565,-3.966188,-0.138112,0.373652,0.185363,-0.194506,0.101827,-0.223844,-0.096621,-0.731110,0.418706,0.529932,125.652780,43.944889,-83.002680
04414,NaN,-6.980349,5.282599,-4.236690,0.324583,0.368100,-0.099820,-0.225623,-0.001640,-0.206723,-0.096824,-0.731444,0.417351,0.530502,125.597193,44.046805,-82.905680
04415,NaN,-6.327242,4.686141,-4.306056,0.749394,0.243657,-0.873166,-0.112514,-0.007321,-0.198378,-0.096617,-0.731801,0.416324,0.530856,125.601578,44.147940,-82.815958
04416,NaN,-6.239932,5.256855,-3.827636,0.052311,-0.048979,-0.800644,0.032602,0.085877,-0.161887,-0.096176,-0.732397,0.415774,0.530544,125.719558,44.199746,-82.682583
04417,NaN,-6.818708,5.624377,-3.866397,-0.164113,0.108970,-0.167035,-0.016544,0.090537,-0.121022,-0.096026,-0.732897,0.415236,0.530301,125.798531,44.231971,-82.564945
04418,NaN,-6.786654,5.655227,-3.887985,-0.163945,0.053609,-0.162457,-0.052349,0.040483,-0.092784,-0.095986,-0.733188,0.414736,0.530298,125.825091,44.266647,-82.493001
04419,NaN,-6.467043,5.709481,-4.144110,0.059013,-0.290271,-0.246773,-0.116297,0.016701,-0.069972,-0.096184,-0.733338,0.414156,0.530508,125.796980,44.299828,-82.447016
04420,NaN,-6.361102,5.493381,-4.393941,0.394354,-0.304051,-0.341699,-0.105726,0.096259,-0.055017,-0.096554,-0.733673,0.413625,0.530392,125.805962,44.298262,-82.356503
04421,NaN,-6.639801,5.637649,-4.427785,0.318628,-0.205317,-0.048895,-0.046763,0.191374,-0.036893,-0.096946,-0.734250,0.413266,0.529801,125.885988,44.257451,-82.212687
04422,NaN,-6.791751,5.714681,-4.331552,0.168227,-0.112087,0.061871,-0.008611,0.254843,-0.069252,-0.097251,-0.735080,0.412863,0.528908,126.026789,44.208928,-82.012906
04423,NaN,-6.962540,5.959371,-4.159390,-0.142121,-0.092166,0.250257,0.021660,0.318447,-0.126171,-0.097417,-0.736209,0.412294,0.527750,126.231982,44.165996,-81.745524
04424,NaN,-7.223232,6.052520,-3.939135,-0.430813,0.099752,0.391688,-0.032643,0.334672,-0.164726,-0.097722,-0.737430,0.411436,0.526657,126.425522,44.133510,-81.449950
04425,NaN,-7.451195,5.859674,-4.120958,-0.224675,0.331747,0.515808,-0.071552,0.266975,-0.177079,-0.097991,-0.738478,0.410456,0.525903,126.570507,44.130335,-81.192068
04426,NaN,-7.445165,5.735398,-4.089687,-0.205096,0.411271,0.426433,-0.043135,0.159807,-0.170407,-0.097960,-0.739242,0.409632,0.525477,126.681613,44.159176,-81.006143
04427,NaN,-6.907603,5.813672,-4.140585,-0.148567,-0.041915,0.118797,-0.045862,0.031680,-0.085573,-0.097892,-0.739495,0.409172,0.525492,126.706110,44.193885,-80.942491
04428,NaN,-6.735048,5.753210,-4.212432,-0.037818,-0.149911,-0.005497,-0.042421,0.011545,-0.028622,-0.097927,-0.739579,0.408946,0.525544,126.704439,44.208221,-80.919079
04429,NaN,-6.614214,5.828383,-4.145723,-0.115896,-0.267839,-0.075145,-0.090567,-0.013138,-0.025305,-0.098091,-0.739568,0.408613,0.525787,126.663268,44.230587,-80.912907
04430,NaN,-6.172973,5.717728,-4.033988,-0.100915,-0.478624,-0.494329,-0.149188,0.054261,-0.050124,-0.098552,-0.739756,0.408007,0.525908,126.626687,44.240199,-80.851849
04431,NaN,-5.781051,5.717659,-3.999749,-0.082941,-0.744322,-0.782224,-0.199226,0.207094,-0.068085,-0.099455,-0.740357,0.407121,0.525579,126.636027,44.206949,-80.683993
04432,NaN,-5.844992,5.356269,-4.214753,0.272178,-0.514760,-0.852854,-0.241131,0.349977,-0.035554,-0.100896,-0.741243,0.406178,0.524784,126.673761,44.108636,-80.440524
04433,NaN,-5.948601,5.079399,-4.533712,0.661573,-0.329576,-0.801898,-0.150242,0.442585,0.032880,-0.102360,-0.742277,0.405673,0.523428,126.781412,43.948131,-80.171009
04434,NaN,-6.210912,5.308454,-4.463283,0.435992,-0.245143,-0.516145,-0.036976,0.472450,0.105223,-0.103661,-0.743294,0.405722,0.521687,126.941450,43.742502,-79.918508
04435,NaN,-6.237391,5.554850,-4.294239,0.142249,-0.309819,-0.427298,-0.017933,0.447082,0.140441,-0.104924,-0.744181,0.405956,0.519985,127.088177,43.530268,-79.700293
04436,NaN,-6.271792,5.537366,-4.231486,0.070273,-0.225406,-0.439993,-0.012405,0.431961,0.157671,-0.106187,-0.744992,0.406281,0.518312,127.224083,43.313732,-79.501439
04437,NaN,-6.278533,5.507087,-4.207197,0.040712,-0.163212,-0.462818,0.011613,0.433140,0.150963,-0.107337,-0.745829,0.406634,0.516591,127.375104,43.100761,-79.299944
04438,NaN,-6.466121,5.702180,-4.207840,-0.106841,-0.124935,-0.220798,0.049527,0.437444,0.118093,-0.108277,-0.746760,0.406964,0.514787,127.558582,42.899514,-79.081795
04439,NaN,-6.916949,5.891691,-4.280742,-0.228700,0.083861,0.228305,0.046273,0.382066,0.067709,-0.108979,-0.747647,0.407120,0.513226,127.731939,42.741304,-78.875191
04440,NaN,-7.268871,6.099923,-4.183059,-0.491124,0.246551,0.543059,0.033899,0.301041,0.009119,-0.109419,-0.748435,0.407073,0.512019,127.882060,42.636362,-78.691718
04441,NaN,-7.340499,6.271620,-4.133072,-0.649875,0.208918,0.667409,-0.018472,0.227361,-0.067375,-0.109701,-0.749161,0.406640,0.511240,127.996029,42.592915,-78.517234
04442,NaN,-7.060562,6.127703,-4.171925,-0.519753,0.090569,0.411152,-0.066906,0.220073,-0.145390,-0.109959,-0.749998,0.405800,0.510625,128.104027,42.585762,-78.310229
04443,NaN,-6.933412,6.205510,-3.889655,-0.796167,0.016036,0.240960,-0.103636,0.286587,-0.174447,-0.110406,-0.751043,0.404714,0.509854,128.228233,42.569070,-78.048371
04444,NaN,-6.981083,6.184330,-3.710485,-0.961729,0.105741,0.177960,-0.179479,0.333596,-0.197190,-0.111183,-0.752208,0.403328,0.509066,128.335183,42.544336,-77.747318
04445,NaN,-6.510690,5.794820,-3.929309,-0.521698,-0.033728,-0.266212,-0.249858,0.372400,-0.198896,-0.112290,-0.753433,0.401726,0.508277,128.418561,42.507392,-77.421659
04446,NaN,-6.138029,5.310411,-4.361017,0.131692,-0.083774,-0.600199,-0.190905,0.427397,-0.156248,-0.113402,-0.754739,0.400408,0.507132,128.543265,42.430118,-77.083993
04447,NaN,-5.861759,5.023243,-4.918107,0.772877,-0.213436,-0.694684,-0.064865,0.486034,-0.116341,-0.114247,-0.756183,0.399518,0.505491,128.750732,42.314439,-76.730527
04448,NaN,-5.811575,4.874027,-5.465375,1.287448,-0.260517,-0.556593,0.121124,0.556645,-0.070436,-0.114654,-0.757812,0.399234,0.503177,129.076136,42.150491,-76.358763
04449,NaN,-5.998236,5.045482,-5.488850,1.139754,-0.222766,-0.314572,0.315427,0.590900,-0.007359,-0.114542,-0.759507,0.399649,0.500309,129.503894,41.945515,-75.999505
04450,NaN,-6.167856,5.662878,-5.075110,0.388102,-0.389086,-0.036957,0.412846,0.636777,-0.014653,-0.114141,-0.761377,0.400254,0.497065,130.004299,41.723551,-75.613238
04451,NaN,-6.415910,5.941049,-4.745763,-0.143343,-0.297922,0.130780,0.337654,0.613560,-0.049227,-0.113883,-0.763206,0.400543,0.494077,130.460781,41.524142,-75.226924
04452,NaN,-6.563472,5.665655,-4.595064,-0.224973,0.039550,-0.002442,0.277238,0.606802,-0.083870,-0.113764,-0.765043,0.400555,0.491245,130.888004,41.338816,-74.830750
04453,NaN,-6.909025,5.868396,-4.476741,-0.553335,0.198040,0.280291,0.236465,0.555006,-0.090510,-0.113671,-0.766737,0.400461,0.488697,131.272054,41.175033,-74.463543
04454,NaN,-7.432066,6.076967,-4.370720,-0.902927,0.475783,0.686194,0.133894,0.429175,-0.080301,-0.113752,-0.768037,0.400230,0.486822,131.544269,41.051738,-74.175615
04455,NaN,-7.808067,6.063060,-4.402256,-0.978363,0.756278,0.938000,-0.000978,0.225722,-0.089713,-0.113913,-0.768782,0.399743,0.486007,131.666007,41.010363,-73.999091
04456,NaN,-7.757039,5.706092,-4.774431,-0.481561,0.868815,0.889629,-0.112614,-0.051720,-0.097065,-0.113938,-0.768802,0.399120,0.486482,131.622236,41.076568,-73.976766
04457,NaN,-7.337541,5.386548,-5.102161,0.058538,0.688631,0.599264,-0.108063,-0.289474,-0.075383,-0.113515,-0.768204,0.398720,0.487851,131.485336,41.224971,-74.100467
04458,NaN,-7.140266,5.603808,-5.019831,-0.048207,0.397162,0.551893,-0.118739,-0.422865,-0.074836,-0.112876,-0.767269,0.398376,0.489750,131.290264,41.422404,-74.302095
04459,NaN,-6.720752,5.427218,-5.096250,0.228369,0.165156,0.213046,-0.168444,-0.486433,-0.086832,-0.112264,-0.766170,0.397892,0.491998,131.045344,41.649400,-74.535583
04460,NaN,-6.396407,5.288875,-5.067634,0.377852,-0.000498,-0.095477,-0.136998,-0.483472,-0.080017,-0.111560,-0.765077,0.397512,0.494162,130.814696,41.870649,-74.773233
04461,NaN,-5.836968,4.959778,-5.079240,0.695691,-0.216021,-0.650948,-0.111919,-0.442467,-0.079363,-0.110835,-0.764094,0.397167,0.496119,130.612817,42.076577,-74.988802
04462,NaN,-4.847274,4.666526,-5.023388,1.005758,-0.740151,-1.509221,-0.005856,-0.240284,-0.042304,-0.110205,-0.763594,0.397118,0.497067,130.537105,42.189653,-75.105874
04463,NaN,-4.974696,4.871371,-4.830572,0.717580,-0.748306,-1.402135,0.105297,0.033183,0.018450,-0.109838,-0.763715,0.397421,0.496720,130.612716,42.175362,-75.092671
04464,NaN,-5.618854,5.161932,-4.604562,0.243777,-0.422470,-0.914311,0.143571,0.213256,0.056887,-0.109785,-0.764227,0.397872,0.495583,130.767654,42.075979,-74.993634
04465,NaN,-6.140159,5.110265,-4.534908,0.088496,0.012781,-0.627171,0.134277,0.243875,0.071686,-0.109857,-0.764779,0.398334,0.494343,130.924061,41.959615,-74.884492
04466,NaN,-6.488476,5.222470,-4.476369,-0.107971,0.215925,-0.359960,0.167435,0.223299,0.095824,-0.109829,-0.765247,0.398985,0.493097,131.082443,41.839197,-74.800348
04467,NaN,-6.853480,5.428509,-4.462359,-0.315175,0.359562,-0.008459,0.172386,0.122212,0.136494,-0.109673,-0.765388,0.399854,0.492209,131.190817,41.740315,-74.795565
04468,NaN,-6.790359,5.622462,-4.499130,-0.384133,0.188768,0.075691,0.161931,0.031443,0.111540,-0.109320,-0.765347,0.400656,0.491698,131.266255,41.685378,-74.831008
04469,NaN,-6.539501,5.616505,-4.563418,-0.289051,0.002845,-0.063256,0.114706,0.045684,0.062383,-0.109049,-0.765415,0.401141,0.491258,131.336940,41.647325,-74.833192
04470,NaN,-6.587314,5.435218,-4.758586,-0.054895,0.116950,-0.037119,0.084128,0.127540,0.032849,-0.108994,-0.765724,0.401398,0.490578,131.430880,41.589920,-74.773682
04471,NaN,-6.937304,5.526569,-4.818121,-0.136747,0.303114,0.275565,0.091901,0.181985,0.016308,-0.108971,-0.766205,0.401575,0.489686,131.555749,41.519907,-74.674491
04472,NaN,-7.297289,5.666489,-4.738878,-0.364706,0.495330,0.552548,0.068577,0.178636,-0.031342,-0.108920,-0.766759,0.401519,0.488876,131.681361,41.470408,-74.553575
04473,NaN,-7.500473,5.779000,-4.605834,-0.589008,0.599304,0.683099,0.034759,0.088766,-0.051042,-0.108763,-0.767115,0.401349,0.488492,131.760506,41.464448,-74.473820
04474,NaN,-7.285231,5.672407,-4.648037,-0.459788,0.498423,0.502118,-0.018968,-0.068476,-0.058349,-0.108486,-0.767071,0.401109,0.488820,131.751486,41.520659,-74.480352
04475,NaN,-6.779687,5.508248,-4.700615,-0.223075,0.217760,0.102126,-0.023073,-0.181187,-0.043856,-0.108027,-0.766721,0.400971,0.489584,131.692872,41.614562,-74.558437
04476,NaN,-6.445619,5.331383,-4.991196,0.190407,0.012108,-0.073835,-0.003161,-0.258746,-0.026578,-0.107385,-0.766154,0.400994,0.490592,131.609479,41.729678,-74.690399
04477,NaN,-6.244676,5.234411,-5.154588,0.430755,-0.125288,-0.181305,0.040615,-0.293299,-0.051932,-0.106437,-0.765577,0.401040,0.491660,131.546504,41.869524,-74.829420
04478,NaN,-5.995922,5.007211,-5.432942,0.839005,-0.241871,-0.337582,0.090516,-0.272030,-0.077466,-0.105283,-0.765127,0.401104,0.492556,131.528059,42.011302,-74.943874
04479,NaN,-5.471624,4.769493,-5.516302,1.132003,-0.502874,-0.780413,0.191544,-0.152188,-0.068401,-0.104000,-0.765007,0.401382,0.492788,131.610921,42.104546,-74.993585
04480,NaN,-5.286522,4.896920,-5.383832,0.972335,-0.701533,-0.897805,0.359558,0.096134,-0.059023,-0.102601,-0.765565,0.401985,0.491723,131.882678,42.098219,-74.904885
04481,NaN,-5.876285,5.935595,-4.677896,-0.306671,-0.794525,-0.277531,0.443042,0.281452,-0.012787,-0.101362,-0.766524,0.402869,0.489758,132.257484,42.001651,-74.733864
04482,NaN,-6.309626,6.598110,-4.247844,-1.137612,-0.807180,0.159513,0.280499,0.289433,0.028542,-0.100870,-0.767333,0.403511,0.488062,132.526679,41.882759,-74.580970
04483,NaN,-6.522231,6.246734,-4.447257,-0.862162,-0.461266,0.206451,0.043140,0.292514,-0.008206,-0.101197,-0.768101,0.403425,0.486855,132.673261,41.778799,-74.407865
04484,NaN,-6.742761,5.463105,-5.054906,-0.013748,0.077595,0.230030,-0.041035,0.284074,-0.020357,-0.101809,-0.768828,0.403096,0.485851,132.771597,41.681881,-74.234081
04485,NaN,-6.906816,5.341837,-5.248437,0.161935,0.242905,0.370641,-0.030913,0.215684,0.041577,-0.102386,-0.769270,0.403060,0.485061,132.828694,41.586451,-74.131137
04486,NaN,-6.937871,5.098669,-5.304469,0.320121,0.423796,0.286114,-0.014647,0.101615,0.070793,-0.102750,-0.769382,0.403237,0.484658,132.841858,41.522083,-74.107958
04487,NaN,-6.378642,4.658309,-5.469629,0.794259,0.279650,-0.242175,0.110345,0.051941,0.122437,-0.102650,-0.769335,0.403937,0.484170,132.890757,41.456432,-74.139264
04488,NaN,-6.549512,4.544366,-5.231639,0.605586,0.544237,-0.312455,0.332235,0.111971,0.237166,-0.102102,-0.769313,0.405588,0.482940,133.049134,41.318260,-74.197081
04489,NaN,-7.025894,5.490925,-4.770671,-0.397046,0.398556,0.284646,0.465182,0.072562,0.301773,-0.101111,-0.769128,0.407822,0.481560,133.247181,41.169678,-74.310690
04490,NaN,-7.302676,5.864298,-4.456683,-0.936151,0.450332,0.507286,0.401636,-0.005511,0.266004,-0.100125,-0.768790,0.409806,0.480620,133.392357,41.065996,-74.449398
04491,NaN,-7.218122,6.283662,-4.236930,-1.341986,0.184780,0.565278,0.279970,-0.028773,0.175983,-0.099336,-0.768517,0.411157,0.480066,133.490607,41.010106,-74.553845
04492,NaN,-6.754340,5.693088,-4.591106,-0.651002,0.149006,0.120318,0.096016,-0.018801,0.110709,-0.099124,-0.768309,0.411814,0.479880,133.509050,40.976623,-74.619003
04493,NaN,-6.284800,5.658035,-4.615271,-0.526423,-0.169866,-0.194642,0.095903,0.101729,0.058717,-0.099029,-0.768497,0.412208,0.479260,133.589155,40.918062,-74.590407
04494,NaN,-6.165797,5.448527,-4.932334,-0.149655,-0.189573,-0.222431,0.055892,0.344601,-0.037629,-0.099364,-0.769443,0.412018,0.477834,133.765655,40.802433,-74.378914
04495,NaN,-6.530999,5.093521,-5.235441,0.181235,0.245249,-0.019088,0.105844,0.481867,-0.081668,-0.099678,-0.770831,0.411703,0.475799,134.034134,40.650674,-74.070204
04496,NaN,-7.094427,5.340158,-5.293352,-0.066325,0.499502,0.512701,0.153706,0.480635,-0.096050,-0.099776,-0.772262,0.411449,0.473672,134.332271,40.503330,-73.756646
04497,NaN,-7.062518,5.238363,-5.418019,0.054787,0.520981,0.502351,0.122861,0.339945,-0.133505,-0.099608,-0.773420,0.411042,0.472170,134.575619,40.427464,-73.500036
04498,NaN,-6.696227,5.130980,-5.454053,0.191007,0.314895,0.226108,0.093344,0.203216,-0.129023,-0.099290,-0.774227,0.410653,0.471252,134.752016,40.403370,-73.319887
04499,NaN,-6.571302,5.009883,-5.624390,0.401329,0.257698,0.171660,0.102684,0.105967,-0.100408,-0.098797,-0.774751,0.410441,0.470678,134.890710,40.407302,-73.206578
04500,NaN,-6.705999,4.719057,-5.916277,0.755167,0.465098,0.259832,0.111132,-0.085426,-0.062481,-0.097973,-0.774750,0.410493,0.470807,134.954628,40.472407,-73.215694
04501,NaN,-6.466132,4.347506,-6.122421,1.173829,0.462379,0.016046,0.223364,-0.230147,-0.024605,-0.096501,-0.774385,0.411022,0.471250,135.020104,40.581515,-73.321753
04502,NaN,-6.262154,4.597031,-5.915876,0.914161,0.175758,-0.092698,0.378739,-0.402183,0.061177,-0.094280,-0.773508,0.412334,0.471992,135.084466,40.725057,-73.565672
04503,NaN,-5.992603,4.912776,-5.500679,0.461935,-0.155392,-0.322351,0.445434,-0.484164,0.020457,-0.091530,-0.772547,0.413678,0.472931,135.172180,40.919291,-73.831715
04504,NaN,-5.587715,5.188150,-5.056679,0.030387,-0.550249,-0.680017,0.452704,-0.410751,-0.050034,-0.088741,-0.771900,0.414732,0.473596,135.313770,41.111779,-74.020865
04505,NaN,-5.307838,5.312609,-4.677300,-0.299765,-0.766000,-1.003749,0.401476,-0.254326,-0.090345,-0.086373,-0.771678,0.415432,0.473781,135.495333,41.257781,-74.104209
04506,NaN,-5.457478,5.488372,-4.412469,-0.661338,-0.724738,-0.957548,0.326003,-0.065716,-0.161836,-0.084524,-0.772015,0.415599,0.473419,135.725833,41.354644,-74.047548
04507,NaN,-5.659856,5.504847,-4.342510,-0.791582,-0.588765,-0.856048,0.203566,0.087036,-0.201477,-0.083365,-0.772742,0.415253,0.472741,135.954889,41.405165,-73.887188
04508,NaN,-6.130952,5.545197,-4.708708,-0.644508,-0.384762,-0.328689,0.117770,0.205654,-0.232997,-0.082716,-0.773777,0.414535,0.471792,136.187786,41.417938,-73.646515
04509,NaN,-6.302905,5.444847,-5.089296,-0.344325,-0.307646,-0.062782,0.018772,0.215076,-0.257727,-0.082404,-0.774842,0.413480,0.471024,136.376779,41.436780,-73.386837
04510,NaN,-6.379188,5.597253,-5.138627,-0.427225,-0.375149,0.092133,-0.025316,0.212634,-0.276706,-0.082220,-0.775919,0.412251,0.470360,136.546344,41.462657,-73.118081
04511,NaN,-6.365962,5.494916,-5.369888,-0.195271,-0.390561,0.155491,-0.107839,0.134103,-0.250515,-0.082249,-0.776723,0.410956,0.470161,136.632392,41.511319,-72.904601
04512,NaN,-6.193855,5.458362,-5.437303,-0.087771,-0.517731,0.058790,-0.111260,0.088029,-0.187114,-0.082352,-0.777284,0.409922,0.470118,136.676763,41.553174,-72.750767
04513,NaN,-6.062740,5.634998,-5.240630,-0.311026,-0.682821,-0.044820,-0.167595,0.004569,-0.094814,-0.082713,-0.777437,0.409145,0.470480,136.626319,41.594396,-72.691747
04514,NaN,-5.840193,5.511201,-5.380217,-0.066869,-0.799985,-0.180271,-0.205402,-0.072610,-0.006094,-0.083280,-0.777208,0.408659,0.471179,136.493808,41.631894,-72.723232
04515,NaN,-5.527549,5.379200,-5.498700,0.189888,-0.966452,-0.391691,-0.202805,-0.077415,0.053413,-0.083959,-0.776849,0.408407,0.471869,136.339642,41.648773,-72.790029
04516,NaN,-5.450846,5.010567,-5.851818,0.708389,-0.865750,-0.441992,-0.123070,0.020932,0.049815,-0.084529,-0.776760,0.408293,0.472012,136.266432,41.625178,-72.803224
04517,NaN,-5.784704,4.850057,-5.930942,0.783047,-0.535323,-0.259564,0.071064,0.176479,0.018524,-0.084580,-0.777186,0.408445,0.471170,136.371229,41.550573,-72.716349
04518,NaN,-6.168212,5.266248,-5.696659,0.254854,-0.463747,0.084384,0.185687,0.285082,0.000503,-0.084374,-0.777950,0.408755,0.469675,136.585305,41.436611,-72.563053
04519,NaN,-6.488646,5.323897,-5.267828,-0.228597,-0.153292,0.092893,0.187225,0.388577,-0.064563,-0.084211,-0.779088,0.408766,0.467804,136.859652,41.305712,-72.319975
04520,NaN,-6.829853,5.202974,-5.105300,-0.410642,0.220706,0.165510,0.182596,0.413627,-0.096716,-0.084051,-0.780344,0.408632,0.465852,137.149868,41.174785,-72.047699
04521,NaN,-7.259860,5.095623,-4.999242,-0.577623,0.634302,0.332618,0.177091,0.388887,-0.082487,-0.083886,-0.781508,0.408545,0.464004,137.422508,41.048933,-71.797129
04522,NaN,-7.960736,5.191804,-4.917158,-0.901012,1.099954,0.793196,0.172721,0.273787,-0.092188,-0.083488,-0.782419,0.408461,0.462613,137.655794,40.973545,-71.601676
04523,NaN,-7.781242,5.310709,-4.967166,-0.912003,0.877253,0.761940,0.068125,0.093612,-0.145260,-0.083000,-0.782977,0.407997,0.462165,137.788664,40.995631,-71.468382
04524,NaN,-7.406977,5.020983,-5.304140,-0.403965,0.703829,0.557891,-0.036256,0.033672,-0.170885,-0.082747,-0.783403,0.407220,0.462173,137.850554,41.051918,-71.351597
04525,NaN,-7.298470,4.959647,-5.488766,-0.201092,0.606672,0.559574,-0.103253,0.029819,-0.218035,-0.082632,-0.783890,0.406101,0.462353,137.891195,41.128820,-71.209513
04526,NaN,-7.320486,4.846641,-5.479923,-0.146175,0.679509,0.513292,-0.238355,-0.043326,-0.306529,-0.082700,-0.784327,0.404356,0.463129,137.862360,41.269973,-71.055065
04527,NaN,-6.521456,4.553520,-5.434464,0.189751,0.293330,-0.185890,-0.315885,-0.077506,-0.316677,-0.082972,-0.784672,0.402399,0.464198,137.782497,41.430483,-70.911709
04528,NaN,-6.592240,4.201923,-5.643884,0.549154,0.503783,-0.199583,-0.276680,-0.069913,-0.331014,-0.083079,-0.785074,0.400476,0.465162,137.732726,41.592656,-70.756700
04529,NaN,-6.069506,4.089002,-5.665128,0.766567,0.181896,-0.591421,-0.160766,-0.062482,-0.336782,-0.082725,-0.785552,0.398791,0.465865,137.755368,41.754688,-70.593757
04530,NaN,-5.980736,4.270323,-5.637265,0.667151,-0.016350,-0.574817,-0.066506,0.025852,-0.305545,-0.082256,-0.786208,0.397414,0.466018,137.850643,41.866340,-70.402828
04531,NaN,-5.680865,4.014520,-5.596651,0.841524,-0.062012,-0.924545,0.011526,0.086862,-0.253341,-0.081716,-0.786934,0.396395,0.465755,137.992927,41.932445,-70.209268
04532,NaN,-5.811250,3.846343,-5.891969,1.114802,0.061721,-0.755446,0.224112,0.217618,-0.145494,-0.080856,-0.787835,0.396245,0.464509,138.260416,41.900234,-70.010298
04533,NaN,-6.571501,4.439462,-5.825796,0.499994,0.205358,0.012838,0.436086,0.321299,-0.116007,-0.079428,-0.789000,0.396655,0.462422,138.673337,41.812242,-69.775541
04534,NaN,-6.878677,4.886365,-5.879525,0.159986,0.100661,0.469606,0.454714,0.310810,-0.146843,-0.077840,-0.790203,0.396991,0.460345,139.103931,41.738328,-69.529636
04535,NaN,-7.071767,5.142521,-5.709899,-0.227716,0.094576,0.627486,0.482620,0.322163,-0.196468,-0.076043,-0.791535,0.397184,0.458186,139.572942,41.677350,-69.249966
04536,NaN,-7.112606,5.887411,-4.996192,-1.266956,-0.216571,0.606549,0.273151,0.192331,-0.182867,-0.074854,-0.792457,0.397000,0.456946,139.872896,41.665927,-69.043583
04537,NaN,-6.862701,5.153911,-5.250214,-0.611014,0.026558,0.229730,0.039610,-0.048737,-0.138893,-0.074206,-0.792652,0.396543,0.457110,139.943064,41.744204,-68.981869
04538,NaN,-6.678641,4.878843,-5.403873,-0.283927,0.028714,0.062925,0.037535,-0.222229,-0.061498,-0.073406,-0.792295,0.396456,0.457934,139.924150,41.869270,-69.051720
04539,NaN,-6.709861,5.197262,-5.424019,-0.439021,-0.191457,0.248340,0.007171,-0.364807,-0.044366,-0.072476,-0.791564,0.396415,0.459378,139.833900,42.051150,-69.202442
04540,NaN,-5.917400,5.064922,-5.573863,-0.017346,-0.715465,-0.261524,-0.034030,-0.333520,-0.116626,-0.071611,-0.791031,0.395984,0.460803,139.757668,42.245191,-69.296097
04541,NaN,-5.852147,5.150478,-5.366291,-0.199428,-0.793120,-0.383835,-0.016535,-0.140046,-0.246054,-0.070755,-0.791204,0.395007,0.461474,139.808349,42.403161,-69.216286
04542,NaN,-5.782107,4.627086,-5.718380,0.385351,-0.596975,-0.483290,0.009047,0.068585,-0.261430,-0.070182,-0.791896,0.393958,0.461272,139.950112,42.474508,-69.022899
04543,NaN,-6.449409,5.011697,-5.552092,-0.156587,-0.370578,0.055230,0.101237,0.237045,-0.255785,-0.069581,-0.792996,0.393080,0.460221,140.200139,42.470062,-68.748022
04544,NaN,-6.682989,5.321657,-5.256513,-0.652294,-0.357459,0.190311,0.019742,0.271664,-0.281499,-0.069319,-0.794194,0.391903,0.459197,140.424724,42.458075,-68.441116
04545,NaN,-6.659622,4.955606,-5.644909,-0.156578,-0.230222,0.222055,-0.123420,0.202947,-0.278622,-0.069491,-0.795178,0.390428,0.458726,140.543823,42.475578,-68.169481
04546,NaN,-6.574155,4.777753,-5.418628,-0.219382,-0.119389,-0.048181,-0.180901,0.140134,-0.246735,-0.069848,-0.795931,0.388971,0.458603,140.595568,42.508125,-67.948349
04547,NaN,-6.134140,4.913943,-5.444315,-0.147176,-0.528884,-0.267339,-0.301958,0.005777,-0.211034,-0.070501,-0.796263,0.387421,0.459238,140.519590,42.588012,-67.814344
04548,NaN,-5.432971,4.357431,-5.863045,0.699250,-0.729099,-0.765084,-0.386963,0.106607,-0.227104,-0.071657,-0.796823,0.385579,0.459638,140.434553,42.628462,-67.621308
04549,NaN,-5.737544,4.277334,-5.694317,0.539359,-0.420863,-0.692809,-0.437712,0.171001,-0.162711,-0.073280,-0.797386,0.383847,0.459856,140.316735,42.618090,-67.434420
04550,NaN,-5.685250,3.889343,-6.102917,1.098112,-0.272138,-0.679522,-0.362702,0.219085,-0.150928,-0.074731,-0.798058,0.382319,0.459728,140.252485,42.581465,-67.231227
04551,NaN,-5.991848,4.139766,-5.655208,0.518210,-0.122143,-0.607374,-0.224798,0.340769,-0.164903,-0.075823,-0.799086,0.381001,0.458857,140.314220,42.497295,-66.958901
04552,NaN,-6.354165,4.171698,-5.343159,0.134869,0.184335,-0.524220,-0.177844,0.375865,-0.157803,-0.076818,-0.800194,0.379809,0.457748,140.410398,42.393751,-66.674431
04553,NaN,-6.300091,3.788226,-5.398489,0.379395,0.414133,-0.709392,-0.051329,0.364792,-0.125415,-0.077353,-0.801262,0.379033,0.456432,140.562037,42.283856,-66.415145
04554,NaN,-6.370978,3.975260,-5.511361,0.319831,0.316490,-0.508676,0.077552,0.354333,-0.057813,-0.077512,-0.802223,0.378830,0.454882,140.755296,42.152484,-66.202768
04555,NaN,-6.687167,4.488645,-5.572286,-0.034975,0.168947,-0.020516,0.124987,0.362048,-0.026129,-0.077561,-0.803158,0.378853,0.453201,140.964990,42.006652,-66.006300
04556,NaN,-7.132122,4.660549,-5.682653,-0.208073,0.337800,0.420735,0.062973,0.340877,-0.057701,-0.077753,-0.804078,0.378620,0.451730,141.143351,41.880182,-65.802612
04557,NaN,-7.526122,4.433986,-5.582997,-0.314582,0.790484,0.519239,0.048134,0.271026,-0.157738,-0.077640,-0.805022,0.377972,0.450609,141.330514,41.821271,-65.573040
04558,NaN,-7.407785,4.375866,-5.610098,-0.249849,0.740120,0.428721,0.027572,0.163084,-0.192272,-0.077334,-0.805778,0.377185,0.449971,141.484374,41.821676,-65.375186
04559,NaN,-7.383265,4.261192,-5.998183,0.109187,0.709613,0.586018,0.052735,0.014895,-0.135111,-0.076769,-0.806101,0.376737,0.449862,141.583028,41.868719,-65.282215
04560,NaN,-7.263379,4.385593,-6.052704,0.121260,0.512163,0.596361,0.047253,-0.175946,-0.099621,-0.075952,-0.805926,0.376497,0.450517,141.602959,41.987982,-65.302113
04561,NaN,-6.792653,4.453893,-6.016697,0.215975,0.130364,0.292471,0.011303,-0.325699,-0.080330,-0.075036,-0.805361,0.376306,0.451837,141.546711,42.168350,-65.405286
04562,NaN,-6.211187,4.639449,-5.966156,0.278520,-0.406865,-0.042573,-0.015190,-0.385693,-0.046931,-0.074194,-0.804586,0.376214,0.453432,141.441105,42.362869,-65.558562
04563,NaN,-5.897594,4.666047,-5.850616,0.293706,-0.633784,-0.310304,-0.038656,-0.343787,-0.030800,-0.073556,-0.803864,0.376113,0.454897,141.328585,42.533369,-65.701968
04564,NaN,-6.099640,4.909898,-5.563216,-0.103245,-0.623060,-0.228160,-0.082300,-0.237271,-0.038981,-0.073281,-0.803381,0.375844,0.456015,141.228311,42.658190,-65.789607
04565,NaN,-6.465747,4.935515,-5.375437,-0.354917,-0.365449,-0.076110,-0.160047,-0.180030,-0.050709,-0.073394,-0.803022,0.375325,0.457056,141.107262,42.762353,-65.842334
04566,NaN,-6.589638,4.954233,-5.257086,-0.472463,-0.278694,-0.050323,-0.214321,-0.183313,-0.056952,-0.073710,-0.802645,0.374662,0.458211,140.955751,42.869293,-65.893650
04567,NaN,-6.644957,4.899737,-5.219347,-0.463484,-0.203847,-0.058303,-0.252428,-0.187081,-0.061884,-0.074154,-0.802253,0.373888,0.459455,140.783246,42.980426,-65.944000
04568,NaN,-6.631850,4.927686,-5.208783,-0.453273,-0.237778,-0.059080,-0.271161,-0.213284,-0.022733,-0.074720,-0.801718,0.373241,0.460822,140.573872,43.087996,-66.032104
04569,NaN,-6.535934,4.958805,-5.399359,-0.258177,-0.375416,-0.001796,-0.246133,-0.246814,-0.047271,-0.075060,-0.801159,0.372561,0.462287,140.377507,43.219944,-66.122397
04570,NaN,-5.959770,4.598980,-5.577664,0.270343,-0.554250,-0.463918,-0.162723,-0.196061,-0.062404,-0.075133,-0.800774,0.371997,0.463395,140.251435,43.334013,-66.179166
04571,NaN,-6.193659,4.839830,-5.554956,0.068551,-0.573639,-0.204923,-0.013201,-0.039666,-0.044028,-0.074933,-0.800773,0.371790,0.463594,140.257914,43.373260,-66.168057
04572,NaN,-6.810673,4.931382,-5.460227,-0.235800,-0.211924,0.208159,-0.031610,0.017607,-0.045818,-0.074917,-0.800901,0.371516,0.463595,140.273769,43.387004,-66.127449
04573,NaN,-6.989797,4.997292,-5.482547,-0.303967,-0.148494,0.374268,-0.057143,-0.015594,-0.040075,-0.074947,-0.800933,0.371214,0.463778,140.261782,43.414195,-66.106582
04574,NaN,-6.855836,4.665478,-5.580389,-0.005176,-0.027596,0.182767,-0.079525,-0.092088,-0.027265,-0.074962,-0.800753,0.370944,0.464301,140.204371,43.469466,-66.132606
04575,NaN,-6.710874,4.672397,-5.164980,-0.287643,-0.042421,-0.145237,-0.055214,-0.120360,-0.023780,-0.074828,-0.800512,0.370751,0.464893,140.150210,43.536804,-66.174647
04576,NaN,-6.629285,4.443385,-5.380414,0.039971,0.011938,-0.187814,-0.070379,-0.122301,-0.003702,-0.074805,-0.800221,0.370607,0.465511,140.077418,43.596673,-66.230518
04577,NaN,-6.638448,4.341761,-5.305438,0.040090,0.103743,-0.270403,-0.050319,-0.061368,0.017551,-0.074856,-0.800041,0.370568,0.465843,140.029195,43.622827,-66.267936
04578,NaN,-6.904317,4.438241,-5.172209,-0.189181,0.241402,-0.116026,-0.061422,0.000726,0.020315,-0.075081,-0.799996,0.370495,0.465943,139.994498,43.619785,-66.275984
04579,NaN,-7.221070,4.173897,-5.260075,-0.068842,0.622668,0.028105,-0.096498,0.013785,0.007632,-0.075434,-0.799992,0.370281,0.466062,139.950309,43.616584,-66.269193
04580,NaN,-7.047513,4.212781,-5.092802,-0.168314,0.520373,-0.166316,-0.061131,-0.004374,0.036592,-0.075686,-0.799905,0.370276,0.466176,139.907207,43.609832,-66.289680
04581,NaN,-6.799699,4.439736,-5.054244,-0.239866,0.206377,-0.252750,-0.093679,-0.010584,0.050856,-0.076082,-0.799765,0.370250,0.466372,139.838030,43.601354,-66.321461
04582,NaN,-6.852561,4.341823,-5.141800,-0.127400,0.296454,-0.213572,-0.111603,0.011874,0.027678,-0.076545,-0.799712,0.370085,0.466518,139.775464,43.590816,-66.328241
04583,NaN,-6.953314,4.261784,-5.249105,-0.023350,0.400539,-0.122306,-0.108501,0.017632,0.012152,-0.076963,-0.799704,0.369859,0.466643,139.723880,43.584279,-66.322199
04584,NaN,-7.074055,4.269188,-5.441759,0.096575,0.434812,0.070762,-0.061666,0.001024,0.001871,-0.077146,-0.799692,0.369711,0.466750,139.696871,43.588087,-66.318921
04585,NaN,-7.104043,4.352833,-5.316812,-0.053744,0.420349,0.061698,-0.002094,-0.034571,-0.026609,-0.076951,-0.799674,0.369598,0.466901,139.703968,43.618729,-66.316195
04586,NaN,-7.029386,4.573671,-5.165500,-0.267799,0.239839,0.030273,0.019841,-0.040406,-0.057394,-0.076592,-0.799707,0.369419,0.467046,139.733769,43.662655,-66.298298
04587,NaN,-7.202674,4.779123,-5.005486,-0.550608,0.232716,0.158074,-0.021552,-0.100903,-0.081942,-0.076224,-0.799629,0.369064,0.467520,139.729381,43.742788,-66.296063
04588,NaN,-7.153123,4.679437,-5.149026,-0.359230,0.222479,0.157176,-0.048140,-0.198091,-0.137011,-0.075659,-0.799413,0.368468,0.468451,139.697595,43.885187,-66.310886
04589,NaN,-6.898683,4.602899,-5.294081,-0.113960,0.051222,0.025508,-0.037320,-0.276178,-0.198280,-0.074758,-0.799130,0.367677,0.469697,139.670466,44.085021,-66.328398
04590,NaN,-6.444267,4.631422,-5.444037,0.139546,-0.333323,-0.195749,-0.018137,-0.292710,-0.222018,-0.073700,-0.798856,0.366844,0.470981,139.657569,44.300292,-66.340670
04591,NaN,-6.017687,4.641256,-5.513271,0.326997,-0.666201,-0.453245,-0.024114,-0.238312,-0.212368,-0.072782,-0.798688,0.366012,0.472054,139.657516,44.488810,-66.330168
04592,NaN,-5.930078,4.412983,-5.574802,0.527726,-0.597238,-0.588619,0.012070,-0.131969,-0.176020,-0.072006,-0.798716,0.365374,0.472621,139.700773,44.616745,-66.287001
04593,NaN,-6.265315,4.480934,-5.355640,0.217550,-0.395555,-0.441881,0.071380,-0.002512,-0.161684,-0.071257,-0.799044,0.364883,0.472558,139.820150,44.683358,-66.184460
04594,NaN,-6.877840,4.948490,-4.949837,-0.538304,-0.257500,-0.017943,0.091093,0.054526,-0.188891,-0.070476,-0.799562,0.364313,0.472238,139.983083,44.734114,-66.035678
04595,NaN,-6.743261,4.758514,-5.042611,-0.337035,-0.243147,-0.149861,-0.016341,0.045114,-0.173067,-0.070137,-0.799992,0.363552,0.472148,140.075122,44.783661,-65.900779
04596,NaN,-6.608418,4.675648,-5.094478,-0.219365,-0.293431,-0.254845,-0.015456,0.044242,-0.142228,-0.069873,-0.800362,0.362920,0.472047,140.153321,44.821401,-65.785791
04597,NaN,-6.773195,4.780272,-5.149050,-0.280779,-0.283357,-0.061752,-0.057064,0.037352,-0.098269,-0.069861,-0.800622,0.362364,0.472034,140.186845,44.846678,-65.700970
04598,NaN,-6.782659,4.743038,-5.424133,-0.040277,-0.317265,0.077702,-0.117030,-0.000609,-0.049541,-0.070141,-0.800681,0.361879,0.472264,140.150022,44.870045,-65.666614
04599,NaN,-6.998652,4.754541,-5.630093,0.066495,-0.235262,0.347280,-0.134105,-0.067000,-0.009833,-0.070456,-0.800507,0.361532,0.472778,140.062567,44.908763,-65.690751
04600,NaN,-6.705436,4.769201,-5.780187,0.280840,-0.471480,0.228105,-0.141269,-0.113678,0.006756,-0.070762,-0.800188,0.361254,0.473484,139.945642,44.961071,-65.750182
04601,NaN,-6.517212,4.537014,-5.926251,0.587543,-0.457866,0.067805,-0.133792,-0.065576,0.017827,-0.071144,-0.799967,0.361017,0.473981,139.846588,44.988893,-65.790947
04602,NaN,-6.762035,4.475479,-5.929269,0.559955,-0.253458,0.213951,-0.074910,-0.010906,0.036812,-0.071442,-0.799860,0.360980,0.474144,139.792307,44.984895,-65.815528
04603,NaN,-6.932005,4.358839,-5.885163,0.538377,-0.044597,0.256845,-0.019816,0.002186,0.069410,-0.071612,-0.799747,0.361196,0.474146,139.761002,44.963927,-65.852833
04604,NaN,-7.170871,4.362573,-5.735993,0.348398,0.143797,0.346692,0.059893,-0.056638,0.086506,-0.071406,-0.799490,0.361693,0.474230,139.745453,44.961474,-65.931976
04605,NaN,-7.125297,4.617133,-5.409949,-0.028689,0.001874,0.254809,0.090199,-0.141791,0.088205,-0.070921,-0.799040,0.362296,0.474602,139.715702,44.996467,-66.056257
04606,NaN,-7.298360,4.786365,-4.949497,-0.528073,0.091396,0.206575,0.028124,-0.201030,0.057888,-0.070512,-0.798480,0.362655,0.475330,139.640783,45.067632,-66.193522
04607,NaN,-7.335734,4.715440,-4.832141,-0.580390,0.183855,0.138556,-0.047383,-0.255260,-0.017005,-0.070120,-0.797901,0.362549,0.476440,139.535422,45.190986,-66.312936
04608,NaN,-7.425167,4.403804,-4.822025,-0.431862,0.452535,0.055805,-0.083284,-0.307476,-0.100358,-0.069586,-0.797332,0.362048,0.477850,139.425092,45.367137,-66.409565
04609,NaN,-6.743856,4.153019,-4.775020,-0.127522,0.186624,-0.567321,-0.074441,-0.285581,-0.086551,-0.069082,-0.796793,0.361610,0.479152,139.322041,45.529306,-66.503325
04610,NaN,-6.611199,4.256360,-4.784138,-0.118107,0.008025,-0.609509,-0.055557,-0.187517,-0.055525,-0.068761,-0.796437,0.361309,0.480016,139.252126,45.636431,-66.565103
04611,NaN,-6.528199,4.202256,-4.877811,0.018713,-0.037779,-0.643849,-0.050568,-0.066956,-0.049656,-0.068645,-0.796362,0.360999,0.480390,139.229176,45.689764,-66.565652
04612,NaN,-6.474255,4.362344,-4.867746,-0.054252,-0.190961,-0.614776,-0.052217,0.055208,-0.058460,-0.068741,-0.796594,0.360612,0.480283,139.255235,45.692618,-66.495870
04613,NaN,-6.689704,4.420533,-5.061420,0.010502,-0.141808,-0.331601,-0.105290,0.123978,-0.086431,-0.069099,-0.797025,0.359958,0.480008,139.290420,45.676795,-66.371349
04614,NaN,-6.813499,4.103628,-5.101571,0.161018,0.162631,-0.366145,-0.126080,0.234434,-0.116904,-0.069673,-0.797765,0.359098,0.479338,139.368516,45.623500,-66.169552
04615,NaN,-7.381524,4.075987,-5.246131,0.119906,0.517191,0.103994,-0.078314,0.194566,-0.078064,-0.070070,-0.798357,0.358517,0.478729,139.442008,45.573646,-66.012865
04616,NaN,-7.642507,4.097669,-5.447803,0.190483,0.622220,0.407582,-0.028515,0.048396,-0.066648,-0.070041,-0.798595,0.358155,0.478608,139.482547,45.582360,-65.941707
04617,NaN,-7.244347,4.248287,-5.620212,0.368400,0.210325,0.283615,0.031706,-0.104691,-0.034958,-0.069566,-0.798431,0.358114,0.478981,139.486078,45.646660,-65.971164
04618,NaN,-6.571529,4.470059,-5.537546,0.385071,-0.373839,-0.140935,0.054278,-0.134233,-0.022122,-0.068984,-0.798180,0.358191,0.479425,139.484845,45.718370,-66.024874
04619,NaN,-6.379975,4.671817,-5.329996,0.171129,-0.605124,-0.297261,0.003225,-0.042105,-0.050810,-0.068697,-0.798185,0.357996,0.479605,139.502963,45.761307,-66.011115
04620,NaN,-6.666309,4.324103,-5.263526,0.210809,-0.156777,-0.285189,-0.052621,0.051122,-0.073354,-0.068752,-0.798433,0.357549,0.479518,139.534181,45.771246,-65.933993
04621,NaN,-7.014255,4.051805,-5.251131,0.233989,0.264794,-0.165595,0.020737,0.066121,-0.057936,-0.068571,-0.798715,0.357331,0.479236,139.606904,45.769617,-65.858038
04622,NaN,-7.234128,4.418607,-5.019716,-0.210752,0.183968,0.034951,0.085548,0.017984,-0.054450,-0.068060,-0.798897,0.357302,0.479027,139.696262,45.786893,-65.810298
04623,NaN,-7.102155,4.487624,-4.912293,-0.301187,0.065366,-0.085663,0.060416,-0.041352,-0.073241,-0.067492,-0.798962,0.357153,0.479109,139.757727,45.837769,-65.781802
04624,NaN,-7.082131,4.499873,-4.996856,-0.235948,0.012174,-0.049585,0.050748,-0.040886,-0.100784,-0.066904,-0.799074,0.356875,0.479213,139.825731,45.897900,-65.736085
04625,NaN,-7.192656,4.399511,-5.070655,-0.159487,0.125178,0.024000,0.033030,-0.044795,-0.125144,-0.066315,-0.799214,0.356455,0.479374,139.893887,45.969409,-65.676498
04626,NaN,-7.370132,4.645850,-4.956376,-0.429450,0.066348,0.201281,0.030843,-0.076628,-0.155695,-0.065610,-0.799329,0.355921,0.479675,139.962050,46.065412,-65.614800
04627,NaN,-7.262637,4.448934,-5.195895,-0.101120,0.065604,0.163367,-0.008588,-0.152968,-0.186607,-0.064848,-0.799304,0.355191,0.480362,139.993408,46.206946,-65.573382
04628,NaN,-7.082289,4.318856,-5.202134,0.029258,0.021954,-0.021256,0.021638,-0.207028,-0.167861,-0.063919,-0.799123,0.354627,0.481203,140.012188,46.364633,-65.572975
04629,NaN,-6.843953,4.528958,-5.140456,-0.048943,-0.292800,-0.133469,0.014083,-0.221659,-0.130327,-0.063079,-0.798837,0.354197,0.482104,140.004356,46.515581,-65.603773
04630,NaN,-6.766756,4.636618,-4.929395,-0.240750,-0.390057,-0.253608,-0.052474,-0.194620,-0.101678,-0.062627,-0.798543,0.353715,0.483005,139.954743,46.643425,-65.639069
04631,NaN,-6.710540,4.732588,-4.770461,-0.388382,-0.473903,-0.335843,-0.111417,-0.159867,-0.107948,-0.062451,-0.798325,0.353050,0.483873,139.888335,46.758995,-65.651417
04632,NaN,-6.607641,4.419637,-4.976632,-0.020824,-0.368665,-0.441209,-0.166502,-0.058065,-0.161540,-0.062552,-0.798428,0.352010,0.484447,139.854472,46.849059,-65.575295
04633,NaN,-6.857636,4.125006,-5.296836,0.322109,-0.081075,-0.221599,-0.090569,0.046512,-0.156286,-0.062539,-0.798800,0.351138,0.484469,139.903816,46.892048,-65.445371
04634,NaN,-7.207227,4.390358,-5.358581,0.136005,-0.082519,0.182733,-0.032637,0.084203,-0.098021,-0.062509,-0.799176,0.350631,0.484219,139.973258,46.896207,-65.332941
04635,NaN,-7.419836,4.454963,-5.380161,0.052503,-0.007831,0.377699,-0.001386,0.087857,-0.083451,-0.062389,-0.799547,0.350252,0.483896,140.055991,46.894019,-65.227325
04636,NaN,-7.567828,4.492447,-5.299628,-0.083761,0.071047,0.459999,0.018130,0.072928,-0.079504,-0.062181,-0.799880,0.349945,0.483595,140.141427,46.896110,-65.132838
04637,NaN,-7.742135,4.511440,-5.199878,-0.230870,0.182533,0.543270,0.002120,0.000269,-0.070366,-0.061926,-0.800017,0.349655,0.483612,140.185684,46.927468,-65.082685
04638,NaN,-7.587849,4.328374,-5.236781,-0.062964,0.205599,0.370038,-0.013484,-0.102229,-0.065627,-0.061571,-0.799891,0.349381,0.484063,140.177785,47.001487,-65.091201
04639,NaN,-7.519723,4.173290,-5.284075,0.081514,0.254797,0.277528,0.006695,-0.178418,-0.053737,-0.061025,-0.799567,0.349222,0.484781,140.146521,47.105355,-65.147918
04640,NaN,-7.592414,4.207911,-5.163308,-0.041684,0.285686,0.283233,0.038498,-0.262589,-0.047344,-0.060227,-0.799035,0.349196,0.485776,140.096078,47.243190,-65.255047
04641,NaN,-7.465493,4.258273,-5.156037,-0.018036,0.149048,0.208718,0.033909,-0.341803,-0.070958,-0.059245,-0.798350,0.349083,0.487102,140.022796,47.425097,-65.389855
04642,NaN,-6.979006,4.134447,-5.032542,0.101180,-0.053001,-0.267347,0.022569,-0.359623,-0.096458,-0.058220,-0.797659,0.348848,0.488524,139.946415,47.623466,-65.519195
04643,NaN,-6.411317,4.133521,-4.772609,0.063068,-0.359115,-0.821814,0.030090,-0.226082,-0.095526,-0.057395,-0.797293,0.348592,0.489401,139.927987,47.763493,-65.576100
04644,NaN,-6.511551,4.215977,-4.364079,-0.336790,-0.270565,-0.922620,-0.023154,0.011852,-0.088852,-0.057219,-0.797481,0.348168,0.489417,139.971667,47.796051,-65.507422
04645,NaN,-7.172103,4.013678,-4.392641,-0.402997,0.275860,-0.506482,-0.081478,0.186815,-0.083701,-0.057587,-0.798072,0.347567,0.488837,140.051187,47.750518,-65.345656
04646,NaN,-7.903125,3.866989,-4.546892,-0.420543,0.797693,0.050072,-0.086846,0.191599,-0.077287,-0.058006,-0.798660,0.346981,0.488244,140.125407,47.699748,-65.186288
04647,NaN,-8.036829,3.844787,-4.814166,-0.235953,0.832238,0.276956,-0.101083,0.078018,-0.056225,-0.058330,-0.798930,0.346473,0.488124,140.136078,47.691741,-65.102225
04648,NaN,-7.737606,3.663926,-5.131867,0.201107,0.706510,0.141777,-0.084571,-0.040519,-0.031548,-0.058449,-0.798872,0.346141,0.488441,140.095661,47.726285,-65.099551
04649,NaN,-7.238142,3.720860,-5.312697,0.469425,0.310491,-0.109931,-0.035361,-0.077125,-0.007862,-0.058360,-0.798698,0.346032,0.488812,140.057919,47.768718,-65.131838
04650,NaN,-7.064799,3.777910,-5.529563,0.672875,0.103424,-0.102044,0.012416,-0.054636,-0.017579,-0.058100,-0.798609,0.345997,0.489013,140.060645,47.804366,-65.146009
04651,NaN,-7.067962,4.001904,-5.482710,0.521544,-0.058986,-0.027191,0.047361,-0.011265,-0.059710,-0.057668,-0.798711,0.345863,0.488993,140.122117,47.836918,-65.108333
04652,NaN,-7.369588,4.132882,-5.355863,0.262623,0.048034,0.187588,0.040124,-0.003146,-0.093570,-0.057201,-0.798887,0.345577,0.488962,140.198694,47.877800,-65.044360
04653,NaN,-7.580598,4.158396,-5.283678,0.128126,0.162147,0.318070,0.059590,-0.079533,-0.096522,-0.056512,-0.798888,0.345346,0.489204,140.257595,47.953848,-65.019646
04654,NaN,-7.544758,4.406920,-5.125706,-0.111550,-0.026876,0.316675,0.047070,-0.180138,-0.128804,-0.055625,-0.798694,0.344986,0.489877,140.283781,48.085549,-65.029008
04655,NaN,-7.217318,4.337327,-5.081360,-0.011593,-0.185849,0.020296,0.010357,-0.232046,-0.163320,-0.054705,-0.798421,0.344410,0.490830,140.285230,48.253254,-65.043638
04656,NaN,-6.802638,4.268983,-5.087736,0.156436,-0.411924,-0.315797,0.006134,-0.246442,-0.161456,-0.053787,-0.798105,0.343836,0.491845,140.276790,48.426131,-65.067903
04657,NaN,-6.428230,4.237532,-5.008141,0.223076,-0.616850,-0.651357,0.007474,-0.215920,-0.132376,-0.052983,-0.797815,0.343370,0.492729,140.267681,48.575395,-65.094349
04658,NaN,-6.330145,4.340265,-4.786199,0.025102,-0.714712,-0.795766,0.001252,-0.123844,-0.092491,-0.052465,-0.797679,0.343026,0.493243,140.272692,48.668921,-65.096858
04659,NaN,-6.383754,4.295053,-4.677077,-0.051995,-0.630910,-0.830812,-0.040391,-0.062864,-0.055754,-0.052303,-0.797620,0.342707,0.493577,140.261380,48.722683,-65.089651
04660,NaN,-6.429048,4.155227,-4.679413,0.009802,-0.501670,-0.854802,-0.045539,0.004748,-0.001885,-0.052416,-0.797634,0.342575,0.493635,140.247686,48.726297,-65.081341
04661,NaN,-6.836130,4.005307,-4.751078,0.029577,-0.159745,-0.575724,-0.010731,0.049695,0.054898,-0.052601,-0.797671,0.342741,0.493440,140.244809,48.689936,-65.085526
04662,NaN,-7.363016,4.272024,-4.665276,-0.320725,-0.018126,-0.110843,0.012546,0.019871,0.108093,-0.052780,-0.797548,0.343187,0.493309,140.215600,48.646548,-65.142184
04663,NaN,-7.390629,4.242439,-4.715986,-0.266806,0.015548,-0.076735,-0.038027,-0.075743,0.134712,-0.053056,-0.797131,0.343637,0.493640,140.104965,48.636072,-65.269102
04664,NaN,-7.180133,3.977789,-5.155761,0.296022,-0.017139,-0.123980,0.006764,-0.133263,0.138068,-0.053069,-0.796577,0.344229,0.494120,139.993635,48.648819,-65.430749
04665,NaN,-6.903062,4.313081,-5.311710,0.340697,-0.476713,-0.110839,0.088977,-0.069891,0.078666,-0.052711,-0.796304,0.344767,0.494224,139.986166,48.656170,-65.517154
04666,NaN,-7.073566,4.299939,-5.537928,0.482668,-0.420657,0.126303,0.034677,0.091972,0.026458,-0.052725,-0.796505,0.344924,0.493789,140.040720,48.611028,-65.479127
04667,NaN,-7.954943,4.437567,-5.325865,-0.018076,0.066257,0.738767,0.008499,0.257124,-0.038722,-0.052961,-0.797220,0.344709,0.492759,140.181943,48.517869,-65.305808
04668,NaN,-8.327214,4.286262,-5.124191,-0.234646,0.463035,0.850444,-0.042861,0.267748,-0.099721,-0.053276,-0.798050,0.344124,0.491789,140.327245,48.441382,-65.087164
04669,NaN,-8.486475,4.236935,-4.781500,-0.559334,0.684965,0.772800,-0.071684,0.261840,-0.161694,-0.053537,-0.798963,0.343219,0.490910,140.484436,48.390458,-64.830680
04670,NaN,-8.471254,3.963484,-4.723821,-0.487210,0.894542,0.615554,-0.112178,0.208142,-0.198985,-0.053782,-0.799795,0.342082,0.490321,140.614010,48.375829,-64.579607
04671,NaN,-8.202739,3.770874,-4.812997,-0.257150,0.849437,0.379548,-0.079980,0.121690,-0.204605,-0.053731,-0.800433,0.341020,0.490026,140.730111,48.401811,-64.371614
04672,NaN,-7.888717,3.747828,-4.990014,-0.017596,0.623020,0.226726,-0.050670,0.000704,-0.167220,-0.053452,-0.800716,0.340215,0.490153,140.794534,48.467229,-64.254922
04673,NaN,-7.526190,3.833197,-5.034065,0.081277,0.315987,0.014432,-0.014899,-0.082375,-0.128007,-0.052980,-0.800739,0.339674,0.490542,140.826662,48.555766,-64.209201
04674,NaN,-7.410283,3.894573,-5.124705,0.166084,0.161432,0.000004,-0.043725,-0.159820,-0.115849,-0.052526,-0.800542,0.339134,0.491286,140.803898,48.673859,-64.214372
04675,NaN,-7.389513,3.829246,-5.163596,0.249830,0.170330,-0.022934,-0.033656,-0.236489,-0.112025,-0.051907,-0.800153,0.338651,0.492318,140.753758,48.825030,-64.263949
04676,NaN,-7.385150,4.013472,-5.028397,0.068690,0.036960,-0.018455,-0.033707,-0.321742,-0.132870,-0.051096,-0.799586,0.338107,0.493695,140.677778,49.021112,-64.347338
04677,NaN,-7.020657,3.957936,-4.837311,0.063695,-0.116030,-0.413920,-0.018538,-0.346209,-0.168136,-0.050092,-0.799020,0.337463,0.495152,140.618058,49.241204,-64.420749
04678,NaN,-6.877749,4.071080,-4.724491,-0.026200,-0.287912,-0.532910,0.004919,-0.291693,-0.194015,-0.049026,-0.798636,0.336762,0.496356,140.607119,49.446108,-64.447056
04679,NaN,-6.719076,4.101525,-4.587196,-0.097366,-0.397150,-0.710842,-0.012026,-0.210868,-0.211875,-0.048116,-0.798476,0.335923,0.497269,140.630587,49.622139,-64.415586
04680,NaN,-6.641898,4.254220,-4.327604,-0.358398,-0.515709,-0.837894,-0.023122,-0.093412,-0.192482,-0.047499,-0.798571,0.335109,0.497726,140.687568,49.738606,-64.331592
04681,NaN,-6.949657,4.622275,-4.569712,-0.418314,-0.699181,-0.332098,-0.123506,-0.066507,-0.156970,-0.047412,-0.798649,0.334176,0.498235,140.680810,49.830690,-64.256177
04682,NaN,-6.960593,4.323893,-4.765241,-0.105667,-0.524438,-0.348692,-0.191579,-0.025622,-0.153212,-0.047680,-0.798804,0.333082,0.498693,140.650156,49.902806,-64.160732
04683,NaN,-7.143307,4.312490,-5.045783,0.090972,-0.488783,-0.074252,-0.218779,-0.010842,-0.114531,-0.048172,-0.798926,0.332068,0.499127,140.590694,49.954865,-64.083014
04684,NaN,-7.131004,3.844743,-5.358688,0.588743,-0.216116,-0.119625,-0.164533,0.000211,-0.066837,-0.048591,-0.799007,0.331380,0.499414,140.541303,49.984172,-64.032401
04685,NaN,-7.400881,4.099746,-5.316668,0.359673,-0.247891,0.170153,-0.050962,0.008545,-0.007201,-0.048712,-0.799038,0.331208,0.499466,140.529881,49.988641,-64.017567
04686,NaN,-7.633082,4.042692,-5.349284,0.349108,-0.076638,0.340853,-0.004691,0.016725,0.026992,-0.048754,-0.799043,0.331290,0.499399,140.529871,49.976445,-64.022106
04687,NaN,-7.946891,4.300756,-5.154764,-0.025785,-0.045783,0.590121,0.043285,-0.019598,0.031286,-0.048549,-0.798963,0.331514,0.499398,140.539968,49.979348,-64.049685
04688,NaN,-7.923035,4.230327,-4.914871,-0.182525,0.053027,0.424010,0.015984,-0.073703,0.005883,-0.048305,-0.798783,0.331585,0.499663,140.523712,50.014826,-64.090912
04689,NaN,-7.767843,4.076275,-4.801959,-0.155264,0.105477,0.186261,0.012058,-0.054343,-0.033155,-0.048006,-0.798716,0.331483,0.499868,140.534783,50.056565,-64.093852
04690,NaN,-7.820652,3.999204,-4.593241,-0.303946,0.240825,0.092044,0.004456,-0.063335,-0.058789,-0.047663,-0.798665,0.331264,0.500126,140.550525,50.111033,-64.084686
04691,NaN,-7.693187,3.873938,-4.441121,-0.329398,0.293796,-0.131714,-0.005778,-0.111681,-0.042163,-0.047318,-0.798465,0.331094,0.500592,140.531140,50.181417,-64.113983
04692,NaN,-7.928298,3.961644,-4.452523,-0.417482,0.346884,0.090991,-0.012928,-0.186741,-0.043326,-0.046879,-0.798075,0.330922,0.501368,140.474630,50.284864,-64.185863
04693,NaN,-7.903084,3.930395,-4.589605,-0.261894,0.304448,0.127627,-0.057812,-0.317756,-0.070741,-0.046329,-0.797391,0.330556,0.502747,140.349440,50.456633,-64.313732
04694,NaN,-7.602002,3.898983,-4.794872,0.036660,0.079047,-0.015976,-0.090419,-0.415622,-0.110950,-0.045650,-0.796516,0.329971,0.504577,140.181605,50.685563,-64.471895
04695,NaN,-6.911805,3.731611,-4.987237,0.497407,-0.261983,-0.525366,-0.115527,-0.380628,-0.132274,-0.045071,-0.795755,0.329226,0.506313,140.025546,50.907140,-64.596147
04696,NaN,-6.860951,3.688355,-5.087896,0.640545,-0.306691,-0.535895,-0.096742,-0.250287,-0.143541,-0.044607,-0.795344,0.328455,0.507499,139.943758,51.075009,-64.637998
04697,NaN,-6.880288,3.610564,-5.129126,0.719873,-0.263776,-0.533967,-0.067892,-0.096999,-0.151329,-0.044256,-0.795341,0.327690,0.508029,139.953192,51.179004,-64.584158
04698,NaN,-6.896801,3.347939,-5.056876,0.777678,-0.041369,-0.661729,0.006327,0.097898,-0.143358,-0.043954,-0.795835,0.327104,0.507659,140.089705,51.193891,-64.421573
04699,NaN,-7.945751,3.605486,-4.697763,0.052559,0.438343,0.087238,0.101949,0.200354,-0.119901,-0.043493,-0.796571,0.326829,0.506721,140.315411,51.155311,-64.215071
04700,NaN,-8.348898,3.721735,-4.603546,-0.213674,0.593175,0.402522,0.111338,0.111719,-0.113681,-0.042871,-0.797073,0.326623,0.506117,140.502152,51.152576,-64.065216
04701,NaN,-8.064246,3.706572,-4.624494,-0.126093,0.428644,0.185164,0.144040,0.009819,-0.084949,-0.042020,-0.797277,0.326634,0.505860,140.646275,51.184767,-63.994384
04702,NaN,-7.713892,3.876122,-4.614389,-0.128337,0.089269,-0.025114,0.154167,-0.049089,-0.054327,-0.041113,-0.797282,0.326807,0.505814,140.752438,51.231381,-63.979515
04703,NaN,-7.632215,3.873077,-4.704096,-0.033539,0.010831,-0.046485,0.137056,-0.094336,-0.008563,-0.040313,-0.797095,0.327125,0.505968,140.803592,51.281970,-64.022838
04704,NaN,-7.701437,3.959901,-4.673986,-0.116530,-0.020066,0.027287,0.128264,-0.174582,0.036198,-0.039534,-0.796629,0.327618,0.506444,140.788093,51.351515,-64.144832
04705,NaN,-7.704389,4.322525,-4.400873,-0.510511,-0.241227,0.040773,0.088657,-0.230017,-0.017504,-0.038682,-0.796101,0.327805,0.507218,140.754692,51.465560,-64.260763
04706,NaN,-7.607133,4.385703,-4.331963,-0.556652,-0.345066,-0.043359,-0.040519,-0.272842,-0.109746,-0.038043,-0.795589,0.327307,0.508390,140.678133,51.631525,-64.336819
04707,NaN,-7.684169,4.339256,-4.219935,-0.627225,-0.259782,-0.054489,-0.127245,-0.280511,-0.193488,-0.037521,-0.795177,0.326254,0.509749,140.595196,51.831718,-64.357767
04708,NaN,-7.671048,4.272723,-4.246713,-0.543385,-0.250763,-0.077318,-0.220641,-0.307977,-0.233477,-0.037227,-0.794738,0.324810,0.511375,140.467334,52.058136,-64.367441
04709,NaN,-7.498710,4.044626,-4.426696,-0.208044,-0.246249,-0.216791,-0.235464,-0.325691,-0.246817,-0.036924,-0.794269,0.323274,0.513096,140.330126,52.297696,-64.378471
04710,NaN,-6.772823,3.922747,-4.515116,0.143645,-0.601268,-0.798083,-0.216792,-0.261817,-0.211307,-0.036746,-0.793905,0.321916,0.514523,140.212187,52.495621,-64.378308
04711,NaN,-6.001792,3.951254,-4.647509,0.459930,-1.096569,-1.338064,-0.184845,0.018841,-0.116817,-0.037132,-0.794116,0.320961,0.514767,140.192942,52.535814,-64.277179
04712,NaN,-6.640748,4.003275,-4.817668,0.406879,-0.828890,-0.730671,-0.153341,0.288632,-0.034570,-0.038042,-0.794893,0.320365,0.513872,140.272539,52.426445,-64.073792
04713,NaN,-7.283526,4.108848,-4.932977,0.263128,-0.572831,-0.124077,-0.115313,0.446280,0.005021,-0.039150,-0.796016,0.319991,0.512280,140.425529,52.233372,-63.805150
04714,NaN,-7.361316,3.991598,-4.967791,0.295457,-0.419279,-0.089648,-0.112254,0.551914,0.041326,-0.040513,-0.797347,0.319749,0.510252,140.605925,51.979229,-63.502830
04715,NaN,-7.930430,3.932966,-4.641714,-0.149307,0.060149,0.181272,-0.058612,0.675082,0.064306,-0.041912,-0.798959,0.319704,0.507638,140.857972,51.662070,-63.147634
04716,NaN,-8.810550,4.123894,-4.608948,-0.560061,0.441685,0.928153,-0.089371,0.601185,0.081340,-0.043364,-0.800341,0.319665,0.505359,141.044012,51.370142,-62.852384
04717,NaN,-9.104149,4.021278,-4.712131,-0.541782,0.691673,1.164031,-0.175312,0.342386,0.065667,-0.044701,-0.801071,0.319397,0.504254,141.071402,51.199512,-62.696769
04718,NaN,-8.815626,3.504538,-5.047046,0.055075,0.877075,0.897000,-0.219501,0.090295,0.055599,-0.045792,-0.801169,0.319036,0.504230,140.965034,51.144290,-62.679710
04719,NaN,-7.975678,3.215069,-5.258822,0.622130,0.595710,0.230288,-0.200694,-0.122299,0.074462,-0.046510,-0.800705,0.318843,0.505023,140.764495,51.177324,-62.797780
04720,NaN,-7.851271,3.125205,-5.341996,0.788762,0.579793,0.136582,-0.094724,-0.138556,0.063595,-0.046756,-0.800240,0.318879,0.505714,140.622433,51.220782,-62.918332
04721,NaN,-8.121765,3.431419,-4.981539,0.287585,0.572734,0.293877,-0.025776,-0.257239,0.044379,-0.046483,-0.799521,0.319039,0.506774,140.476859,51.324061,-63.094228
04722,NaN,-8.009330,3.336147,-4.757836,0.203676,0.626033,0.060647,0.010307,-0.421738,-0.000378,-0.045694,-0.798463,0.319150,0.508442,140.299810,51.515519,-63.336222
04723,NaN,-7.685234,3.378623,-4.488603,0.083392,0.454598,-0.304182,0.082947,-0.553159,-0.013097,-0.044369,-0.797102,0.319420,0.510519,140.108758,51.769481,-63.648651
04724,NaN,-7.385631,3.476996,-4.246498,-0.045430,0.242090,-0.614377,0.119533,-0.620574,-0.011698,-0.042797,-0.795568,0.319804,0.512801,139.902302,52.051427,-64.005933
04725,NaN,-6.699348,3.381436,-4.162707,0.150473,-0.070607,-1.232728,0.167419,-0.641101,0.017189,-0.041071,-0.793937,0.320425,0.515077,139.693453,52.331291,-64.399811
04726,NaN,-5.794810,3.637181,-4.132313,0.272074,-0.788291,-1.863510,0.222368,-0.507082,0.088206,-0.039529,-0.792541,0.321440,0.516713,139.536241,52.525118,-64.766815
04727,NaN,-5.460056,4.045137,-4.061449,0.118091,-1.287996,-2.002577,0.242802,-0.203927,0.141258,-0.038525,-0.791843,0.322655,0.517102,139.506493,52.567137,-64.987614
04728,NaN,-6.061139,4.476418,-3.878701,-0.400340,-1.243637,-1.439330,0.136659,0.124885,0.144893,-0.038486,-0.791967,0.323548,0.516357,139.573054,52.463974,-65.010287
04729,NaN,-7.090850,4.269936,-4.157651,-0.349092,-0.572033,-0.574213,-0.001405,0.307748,0.120060,-0.039221,-0.792575,0.323948,0.515116,139.662985,52.290770,-64.903829
04730,NaN,-7.787122,3.952739,-4.439360,-0.165039,0.009627,-0.017592,-0.034434,0.379282,0.086408,-0.040122,-0.793412,0.324117,0.513649,139.785562,52.098036,-64.731560
04731,NaN,-8.516545,4.193102,-4.531262,-0.417207,0.224949,0.695463,-0.063760,0.342823,0.079472,-0.041056,-0.794159,0.324187,0.512376,139.877188,51.924234,-64.577092
04732,NaN,-8.791647,4.087031,-4.683333,-0.329267,0.442424,0.940279,-0.103494,0.215825,0.074931,-0.041936,-0.794577,0.324165,0.511669,139.887418,51.807102,-64.496553
04733,NaN,-8.699825,3.873176,-4.712676,-0.186040,0.566179,0.795922,-0.063519,0.087594,0.065332,-0.042419,-0.794691,0.324231,0.511410,139.866196,51.750267,-64.485409
04734,NaN,-8.448128,3.985629,-4.649873,-0.224936,0.359952,0.613110,-0.011107,-0.012612,0.039682,-0.042471,-0.794601,0.324353,0.511469,139.841712,51.746299,-64.516351
04735,NaN,-8.360623,4.127967,-4.434206,-0.448086,0.254506,0.499284,0.011798,-0.041704,-0.016206,-0.042237,-0.794533,0.324315,0.511619,139.848365,51.776215,-64.524655
04736,NaN,-8.322279,4.306891,-4.263027,-0.663155,0.130644,0.459906,-0.044579,-0.054677,-0.071998,-0.042067,-0.794508,0.323916,0.511923,139.847037,51.831980,-64.501694
04737,NaN,-8.395676,4.055925,-4.529215,-0.335739,0.286868,0.543792,-0.089472,-0.057812,-0.135888,-0.041903,-0.794571,0.323146,0.512326,139.854845,51.913166,-64.434758
04738,NaN,-8.488161,3.882984,-4.821091,-0.027419,0.380044,0.686081,-0.067476,-0.106183,-0.181406,-0.041461,-0.794585,0.322265,0.512895,139.877425,52.031947,-64.364813
04739,NaN,-8.410853,4.055811,-4.952995,0.033432,0.141380,0.756278,-0.039567,-0.213948,-0.194210,-0.040697,-0.794350,0.321423,0.513848,139.873075,52.203054,-64.349731
04740,NaN,-7.674510,4.146370,-4.981100,0.227532,-0.374307,0.222742,-0.041953,-0.308925,-0.198843,-0.039783,-0.793873,0.320577,0.515182,139.823868,52.417109,-64.389317
04741,NaN,-6.797288,4.241175,-4.794552,0.275365,-0.910471,-0.524331,-0.050219,-0.245663,-0.187182,-0.039028,-0.793539,0.319741,0.516274,139.794028,52.599510,-64.398748
04742,NaN,-6.636181,4.301236,-4.577498,0.118213,-1.008413,-0.731822,-0.093783,-0.094844,-0.163541,-0.038752,-0.793544,0.318858,0.516832,139.797989,52.706728,-64.333919
04743,NaN,-6.915901,4.262326,-4.504260,0.006312,-0.816791,-0.559672,-0.153197,0.035727,-0.151846,-0.038947,-0.793857,0.317841,0.516963,139.825491,52.752900,-64.197122
04744,NaN,-7.035076,3.690972,-4.608677,0.327628,-0.328809,-0.639901,-0.180801,0.147191,-0.117504,-0.039521,-0.794396,0.316868,0.516688,139.870897,52.736985,-64.017635
04745,NaN,-7.753397,3.652174,-4.612349,0.149346,0.097589,-0.081529,-0.102330,0.225298,-0.022071,-0.040150,-0.795001,0.316459,0.515960,139.944658,52.652039,-63.859259
04746,NaN,-8.363286,3.662872,-4.572160,-0.063985,0.443642,0.388533,-0.104974,0.187284,0.039017,-0.040891,-0.795409,0.316296,0.515373,139.962311,52.560621,-63.769070
04747,NaN,-8.323520,3.349178,-4.766551,0.247532,0.636925,0.323930,-0.032054,0.143980,0.138140,-0.041524,-0.795564,0.316721,0.514823,139.944719,52.452204,-63.776183
04748,NaN,-8.820813,3.684536,-4.550759,-0.228468,0.717992,0.747814,0.026552,0.090627,0.215809,-0.042044,-0.795468,0.317619,0.514374,139.890411,52.338026,-63.871723
04749,NaN,-8.783231,3.592258,-4.512320,-0.205463,0.800427,0.662405,0.013818,-0.030495,0.235160,-0.042467,-0.795028,0.318583,0.514424,139.761038,52.270123,-64.053338
04750,NaN,-8.385232,3.525930,-4.447257,-0.112443,0.663482,0.290259,0.076259,-0.137690,0.195993,-0.042375,-0.794385,0.319577,0.514808,139.638003,52.262929,-64.271972
04751,NaN,-7.932764,3.660597,-4.333250,-0.141418,0.341113,-0.067462,0.153801,-0.139060,0.147280,-0.041842,-0.793833,0.320575,0.515083,139.586822,52.274618,-64.456220
04752,NaN,-7.637516,3.929075,-4.187612,-0.308545,0.003576,-0.262286,0.175727,-0.094390,0.087552,-0.041145,-0.793494,0.321384,0.515158,139.602695,52.288622,-64.571265
04753,NaN,-7.591962,4.167096,-4.192014,-0.408165,-0.213972,-0.202112,0.153163,-0.014654,0.014044,-0.040471,-0.793474,0.321825,0.514967,139.685982,52.295487,-64.585025
04754,NaN,-7.728661,4.059652,-4.456812,-0.178214,-0.130452,-0.013333,0.103519,0.007277,-0.055897,-0.039854,-0.793611,0.321858,0.514782,139.790273,52.318342,-64.535978
04755,NaN,-7.661062,4.058261,-4.497903,-0.132029,-0.187789,-0.048479,0.045802,-0.006624,-0.111789,-0.039296,-0.793792,0.321521,0.514757,139.887301,52.368217,-64.454671
04756,NaN,-7.263007,3.628026,-4.791875,0.420322,-0.158628,-0.395997,-0.018823,-0.047876,-0.131801,-0.038880,-0.793884,0.320948,0.515003,139.938476,52.443157,-64.384242
04757,NaN,-6.897747,3.346603,-4.846839,0.694540,-0.163884,-0.770494,0.016555,-0.032643,-0.111910,-0.038396,-0.793992,0.320540,0.515128,140.006789,52.504376,-64.318156
04758,NaN,-6.716685,3.335324,-4.753343,0.666035,-0.238525,-0.962150,0.031153,0.000971,-0.076302,-0.038003,-0.794131,0.320307,0.515088,140.078791,52.537303,-64.257716
04759,NaN,-6.619250,3.120430,-4.638762,0.689996,-0.095479,-1.176458,0.080861,0.055931,-0.008640,-0.037671,-0.794313,0.320458,0.514738,140.167473,52.521534,-64.212439
04760,NaN,-6.447941,3.415353,-4.429869,0.408241,-0.364097,-1.294174,0.141426,0.159558,0.063669,-0.037454,-0.794656,0.321034,0.513865,140.298245,52.433148,-64.157576
04761,NaN,-6.809666,3.629655,-4.223888,0.017431,-0.267365,-1.019775,0.115558,0.300861,0.126140,-0.037724,-0.795256,0.321762,0.512459,140.445398,52.259921,-64.063443
04762,NaN,-7.355426,3.490391,-4.389325,0.048676,0.121434,-0.564227,0.105899,0.401629,0.182902,-0.038344,-0.796017,0.322674,0.510655,140.600330,52.020838,-63.951953
04763,NaN,-7.791750,3.758419,-4.612485,-0.044627,0.120435,-0.009861,0.129565,0.469292,0.161333,-0.038919,-0.796986,0.323543,0.508545,140.811029,51.759823,-63.786674
04764,NaN,-8.440874,3.967083,-4.557053,-0.404198,0.359791,0.553597,0.078449,0.386340,0.127120,-0.039480,-0.797785,0.324163,0.506852,140.971141,51.547279,-63.647782
04765,NaN,-8.111264,3.854788,-4.884004,-0.015350,0.200093,0.408132,0.084122,0.266292,0.110364,-0.039778,-0.798306,0.324750,0.505631,141.088651,51.394487,-63.567383
04766,NaN,-8.448081,4.168411,-4.646787,-0.475728,0.219878,0.678436,0.058465,0.155987,0.078543,-0.039922,-0.798593,0.325169,0.504896,141.158557,51.301855,-63.528741
04767,NaN,-8.122042,4.161900,-4.668024,-0.372923,0.044872,0.431254,0.054628,0.016209,0.072774,-0.039836,-0.798536,0.325581,0.504728,141.167136,51.274064,-63.566081
04768,NaN,-7.581542,4.501106,-4.684344,-0.372609,-0.524791,0.150674,0.027545,-0.019705,0.069010,-0.039794,-0.798388,0.325919,0.504747,141.145705,51.263286,-63.621741
04769,NaN,-7.314220,4.406932,-4.632980,-0.297204,-0.580407,-0.119486,0.012552,0.066599,0.112517,-0.040058,-0.798385,0.326373,0.504438,141.130729,51.198717,-63.658403
04770,NaN,-7.651710,4.759004,-4.522106,-0.659048,-0.622993,0.228414,0.017143,0.148791,0.149313,-0.040535,-0.798528,0.326971,0.503786,141.134176,51.083848,-63.674512
04771,NaN,-8.209426,4.935250,-4.639494,-0.805700,-0.460492,0.789908,-0.053935,0.064611,0.153181,-0.041164,-0.798439,0.327420,0.503584,141.058043,51.005516,-63.740927
04772,NaN,-7.729614,4.964194,-4.943283,-0.424531,-0.819354,0.578395,-0.144227,-0.056821,0.144115,-0.041937,-0.798038,0.327633,0.504017,140.880606,50.983993,-63.870778
04773,NaN,-7.358982,4.915886,-5.082058,-0.161507,-1.015523,0.340658,-0.258239,-0.100988,0.131865,-0.043056,-0.797522,0.327516,0.504815,140.625689,50.986617,-64.016693
04774,NaN,-6.773261,4.091563,-5.502145,0.772505,-0.798093,-0.238882,-0.321778,-0.087105,0.159194,-0.044526,-0.796979,0.327346,0.505654,140.324846,50.972201,-64.174413
04775,NaN,-6.876237,3.620554,-5.591285,1.063051,-0.375686,-0.305729,-0.175288,0.037010,0.197302,-0.045706,-0.796720,0.327668,0.505749,140.144452,50.889236,-64.285670
04776,NaN,-7.234236,3.766241,-5.085230,0.479367,-0.133436,-0.214216,-0.065245,0.086546,0.222364,-0.046597,-0.796568,0.328359,0.505459,140.035745,50.774515,-64.385541
04777,NaN,-7.312085,3.581584,-4.705183,0.227058,0.174298,-0.413161,0.026409,0.111401,0.228114,-0.047174,-0.796490,0.329295,0.504918,139.988928,50.647276,-64.473872
04778,NaN,-7.010962,3.546325,-4.451421,0.107367,0.115186,-0.783827,0.138344,0.111605,0.265290,-0.047404,-0.796376,0.330664,0.504182,139.986203,50.505621,-64.587950
04779,NaN,-6.810148,3.766035,-4.146540,-0.209684,-0.069182,-0.997581,0.180760,0.186251,0.318216,-0.047716,-0.796371,0.332329,0.503064,140.014099,50.312334,-64.694473
04780,NaN,-7.500288,3.772013,-3.907420,-0.616980,0.415089,-0.582451,0.204590,0.223254,0.337999,-0.048050,-0.796427,0.334125,0.501752,140.061336,50.094962,-64.793540
04781,NaN,-8.223648,4.006399,-3.844345,-0.996366,0.699227,0.034996,0.167549,0.156368,0.283242,-0.048277,-0.796396,0.335622,0.500781,140.087734,49.927755,-64.892755
04782,NaN,-8.016327,3.757154,-4.263251,-0.481768,0.685136,-0.022312,0.123202,0.104552,0.229151,-0.048463,-0.796311,0.336807,0.500101,140.093916,49.802722,-64.984972
04783,NaN,-7.914425,4.037068,-4.520384,-0.386546,0.362206,0.141672,0.067320,0.130523,0.167379,-0.048755,-0.796382,0.337597,0.499427,140.112436,49.689487,-65.019654
04784,NaN,-7.726540,3.738401,-5.005168,0.203689,0.371019,0.114427,-0.026164,0.142100,0.091049,-0.049254,-0.796586,0.337848,0.498882,140.121187,49.598787,-64.996481
04785,NaN,-7.429223,3.422635,-5.354613,0.719345,0.362900,-0.069460,-0.034744,0.196025,0.078422,-0.049841,-0.796944,0.338012,0.498140,140.155421,49.489425,-64.933760
04786,NaN,-7.529479,3.239337,-5.432559,0.832238,0.559742,-0.030404,-0.006393,0.239260,0.101546,-0.050451,-0.797376,0.338330,0.497171,140.211569,49.352117,-64.863078
04787,NaN,-7.812786,3.251401,-5.255570,0.585718,0.781684,0.100844,0.024741,0.220849,0.122062,-0.050951,-0.797735,0.338808,0.496218,140.267460,49.215759,-64.816506
04788,NaN,-7.350815,3.519679,-5.123314,0.457307,0.353966,-0.203499,0.073297,0.198706,0.115193,-0.051207,-0.798061,0.339387,0.495270,140.344464,49.091276,-64.778421
04789,NaN,-6.802542,3.672565,-5.261252,0.628153,-0.105605,-0.483311,0.050057,0.336949,0.080165,-0.051700,-0.798782,0.339731,0.493819,140.484094,48.918856,-64.639925
04790,NaN,-6.903571,3.484172,-5.769609,1.078648,-0.010023,-0.225019,0.083304,0.474507,0.010311,-0.052124,-0.799966,0.339842,0.491777,140.733520,48.710244,-64.380207
04791,NaN,-7.368551,3.564587,-5.612846,0.731361,0.262016,0.081860,0.215579,0.501105,-0.043044,-0.051930,-0.801336,0.340054,0.489416,141.094290,48.508542,-64.072518
04792,NaN,-7.499509,4.254855,-5.073346,-0.134949,-0.041170,0.190574,0.207588,0.321123,-0.006345,-0.051554,-0.802196,0.340441,0.487775,141.356289,48.372565,-63.889753
04793,NaN,-7.044307,4.216553,-5.185272,0.078159,-0.304659,-0.107552,0.151694,0.193318,0.024013,-0.051255,-0.802676,0.340843,0.486735,141.518843,48.282955,-63.797079
04794,NaN,-7.227308,4.288646,-5.060104,-0.132238,-0.214834,-0.006186,0.144010,0.079916,0.054816,-0.050872,-0.802825,0.341380,0.486152,141.615574,48.232721,-63.786457
04795,NaN,-6.744345,3.859943,-5.572144,0.631098,-0.302573,-0.276216,0.156786,-0.014273,0.123643,-0.050442,-0.802630,0.342247,0.485910,141.647729,48.200723,-63.872410
04796,NaN,-6.613192,3.956618,-5.247014,0.345792,-0.366499,-0.503210,0.252561,0.063435,0.219927,-0.049997,-0.802481,0.343714,0.485165,141.717131,48.099194,-63.981968
04797,NaN,-7.345900,4.118199,-5.191306,-0.008412,-0.019141,0.080289,0.243470,0.056671,0.338867,-0.049862,-0.802107,0.345635,0.484432,141.719701,47.958979,-64.174769
04798,NaN,-7.965862,4.521032,-4.773380,-0.736421,0.180069,0.488044,0.257490,-0.094230,0.429910,-0.049633,-0.801209,0.347993,0.484254,141.626166,47.853668,-64.508140
04799,NaN,-7.572426,4.654463,-4.815923,-0.648571,-0.145735,0.274772,0.155300,-0.164566,0.419783,-0.049663,-0.800128,0.350076,0.484537,141.452688,47.783473,-64.870983
04800,NaN,-7.890482,4.943206,-4.820654,-0.872113,-0.145147,0.634894,0.121797,-0.098758,0.404880,-0.049910,-0.799220,0.352002,0.484614,141.293943,47.688010,-65.188255
04801,NaN,-8.404790,5.131414,-5.058443,-0.912295,-0.005819,1.220324,0.042458,-0.029410,0.348057,-0.050454,-0.798557,0.353488,0.484569,141.146279,47.581830,-65.429714
04802,NaN,-8.631711,5.416106,-4.974867,-1.176986,-0.031243,1.465770,-0.052792,-0.082317,0.275941,-0.051114,-0.797867,0.354470,0.484918,140.958750,47.524323,-65.651272
04803,NaN,-8.185338,5.447117,-4.919869,-1.087931,-0.295980,1.123703,-0.175504,-0.186953,0.233794,-0.051972,-0.796966,0.355011,0.485914,140.680839,47.528339,-65.900425
04804,NaN,-7.472341,4.952690,-5.030965,-0.508179,-0.386746,0.447315,-0.293499,-0.277636,0.171420,-0.052992,-0.795920,0.355040,0.487494,140.328481,47.593889,-66.158312
04805,NaN,-7.050789,4.622493,-4.982617,-0.225653,-0.382961,-0.029545,-0.266027,-0.174870,0.111491,-0.053935,-0.795236,0.354867,0.488631,140.061938,47.635612,-66.321504
04806,NaN,-6.439479,4.102618,-5.162212,0.378646,-0.415686,-0.613199,-0.242667,-0.095968,0.059933,-0.054803,-0.794840,0.354527,0.489426,139.864479,47.660893,-66.408799
04807,NaN,-6.341863,4.065860,-4.878267,0.205375,-0.370238,-0.847830,-0.138184,0.028559,0.006347,-0.055341,-0.794872,0.354192,0.489554,139.803734,47.651710,-66.392549
04808,NaN,-6.239539,3.764596,-4.670956,0.216575,-0.152672,-1.161004,-0.061670,0.123546,-0.052415,-0.055603,-0.795261,0.353787,0.489185,139.852865,47.622224,-66.286495
04809,NaN,-6.373186,3.723394,-4.526409,0.072587,-0.000570,-1.154497,0.004263,0.189742,-0.083385,-0.055641,-0.795886,0.353399,0.488445,139.981893,47.575469,-66.123762
04810,NaN,-6.449781,3.798243,-4.569896,0.032901,-0.019706,-1.042922,0.041727,0.194374,-0.097683,-0.055507,-0.796555,0.353047,0.487624,140.140153,47.531220,-65.949972
04811,NaN,-6.747623,4.028185,-4.658386,-0.110729,-0.030299,-0.677916,0.025153,0.180010,-0.089491,-0.055429,-0.797171,0.352688,0.486886,140.279557,47.490429,-65.789171
04812,NaN,-7.127269,4.129947,-4.681976,-0.260274,0.122009,-0.342065,-0.100677,0.144233,-0.095432,-0.055779,-0.797673,0.352010,0.486514,140.334589,47.466963,-65.644527
04813,NaN,-7.390550,3.889718,-4.769666,-0.143981,0.441940,-0.206241,-0.233707,0.124384,-0.120085,-0.056560,-0.798133,0.350914,0.486461,140.317921,47.461673,-65.494131
04814,NaN,-7.705184,3.829134,-4.947851,-0.054783,0.636270,0.092136,-0.311088,0.122046,-0.174390,-0.057519,-0.798657,0.349414,0.486568,140.281447,47.476942,-65.310037
04815,NaN,-7.357260,3.410592,-5.053632,0.343190,0.709118,-0.290084,-0.342545,0.115222,-0.198495,-0.058528,-0.799196,0.347741,0.486761,140.236556,47.504530,-65.113399
04816,NaN,-7.264281,2.979773,-5.204518,0.705430,0.941899,-0.466511,-0.220900,0.213463,-0.132828,-0.059385,-0.799892,0.346597,0.486330,140.268441,47.464469,-64.906757
04817,NaN,-7.983911,3.139619,-5.165272,0.371964,1.276880,0.112597,-0.030192,0.248272,-0.106578,-0.059599,-0.800682,0.346009,0.485421,140.411088,47.399570,-64.698292
04818,NaN,-8.307552,3.666470,-5.047443,-0.101423,1.103740,0.517199,0.084122,0.143961,-0.146410,-0.059081,-0.801321,0.345571,0.484742,140.596226,47.394664,-64.520686
04819,NaN,-8.162898,3.822825,-5.301866,0.054817,0.821161,0.612251,0.118904,-0.020676,-0.176949,-0.058063,-0.801623,0.345142,0.484671,140.751528,47.473698,-64.411035
04820,NaN,-7.575319,4.079196,-5.444952,0.210267,0.210651,0.364943,0.139766,-0.165744,-0.157047,-0.056761,-0.801543,0.344886,0.485139,140.851843,47.609631,-64.392069
04821,NaN,-7.180838,4.488404,-5.383916,0.075668,-0.352540,0.215606,0.122058,-0.270011,-0.149404,-0.055366,-0.801191,0.344645,0.486052,140.897487,47.789270,-64.433585
04822,NaN,-6.443024,4.409056,-5.415745,0.365610,-0.776770,-0.349838,0.069679,-0.295638,-0.130780,-0.054184,-0.800727,0.344359,0.487152,140.893243,47.973429,-64.501557
04823,NaN,-5.931543,4.348131,-5.334070,0.483617,-1.044016,-0.800593,0.109078,-0.170754,-0.125649,-0.053070,-0.800568,0.344153,0.487681,140.959378,48.100364,-64.505295
04824,NaN,-6.217976,4.536340,-5.099976,0.109969,-0.973677,-0.631664,0.159855,0.004773,-0.136081,-0.052031,-0.800867,0.343984,0.487422,141.130259,48.152594,-64.407207
04825,NaN,-6.704811,4.756459,-4.770643,-0.425133,-0.779369,-0.349641,0.158647,0.067230,-0.150457,-0.051067,-0.801342,0.343736,0.486918,141.333303,48.182127,-64.265307
04826,NaN,-6.993920,4.758255,-4.851410,-0.460139,-0.641310,-0.093168,0.113587,0.049053,-0.146074,-0.050267,-0.801751,0.343402,0.486562,141.500863,48.217594,-64.136176
04827,NaN,-7.382360,4.962839,-4.760966,-0.759704,-0.555349,0.232721,0.051097,-0.012425,-0.142761,-0.049616,-0.801990,0.342943,0.486559,141.607111,48.279597,-64.041604
04828,NaN,-7.638074,5.208038,-4.706759,-0.997559,-0.591602,0.496156,-0.098370,-0.146783,-0.135549,-0.049355,-0.801851,0.342184,0.487349,141.570029,48.398954,-64.024038
04829,NaN,-7.404932,5.088111,-4.859157,-0.720420,-0.696317,0.352415,-0.283717,-0.279307,-0.114739,-0.049657,-0.801306,0.341086,0.488981,141.363120,48.570666,-64.091837
04830,NaN,-7.012201,4.518112,-5.046463,-0.131528,-0.559280,-0.080224,-0.343049,-0.304027,-0.100924,-0.050194,-0.800657,0.339906,0.490808,141.103283,48.747899,-64.184228
04831,NaN,-7.080699,4.159730,-5.417733,0.366957,-0.351176,0.012454,-0.263521,-0.245797,-0.055333,-0.050617,-0.800092,0.339085,0.492252,140.889323,48.882894,-64.276429
04832,NaN,-7.298362,4.196131,-5.217754,0.150568,-0.207666,0.088460,-0.158733,-0.198835,-0.001031,-0.050840,-0.799573,0.338729,0.493316,140.725712,48.976745,-64.380879
04833,NaN,-7.736957,4.342390,-5.255158,0.008191,-0.075969,0.498843,-0.112829,-0.199763,0.021992,-0.050929,-0.799025,0.338575,0.494300,140.576468,49.062885,-64.501438
04834,NaN,-7.644566,4.212359,-5.209964,0.083248,-0.027333,0.351926,-0.070851,-0.232574,0.021241,-0.050798,-0.798405,0.338532,0.495343,140.436566,49.163163,-64.640848
04835,NaN,-7.092835,4.039088,-5.176700,0.311924,-0.219470,-0.154775,-0.021455,-0.134574,0.026838,-0.050645,-0.798032,0.338607,0.495909,140.363784,49.218406,-64.729243
04836,NaN,-6.977916,3.890104,-4.597482,-0.058424,-0.025746,-0.595476,0.022533,0.065927,0.047374,-0.050711,-0.798130,0.338824,0.495595,140.389827,49.177175,-64.719953
04837,NaN,-7.503911,4.067717,-4.332148,-0.522430,0.224554,-0.257630,0.025192,0.211230,0.036670,-0.050982,-0.798609,0.338965,0.494700,140.484765,49.076123,-64.621974
04838,NaN,-7.910532,3.889720,-4.325722,-0.573515,0.612661,-0.029335,0.009423,0.255904,-0.019508,-0.051257,-0.799286,0.338834,0.493666,140.616784,48.975197,-64.462325
04839,NaN,-8.217407,4.038157,-4.366602,-0.719112,0.675654,0.283155,-0.033113,0.205855,-0.083442,-0.051454,-0.799938,0.338352,0.492920,140.736253,48.919872,-64.287251
04840,NaN,-8.111086,3.866856,-4.682342,-0.356999,0.662841,0.291758,-0.107296,0.102391,-0.137707,-0.051644,-0.800404,0.337499,0.492728,140.796845,48.929611,-64.133367
04841,NaN,-8.103146,3.782760,-4.685795,-0.310605,0.714803,0.253072,-0.181483,-0.020560,-0.130265,-0.051937,-0.800537,0.336521,0.493149,140.760896,48.991544,-64.051676
04842,NaN,-8.191111,3.726592,-4.932079,-0.087489,0.739783,0.422163,-0.286159,-0.192535,-0.076462,-0.052497,-0.800125,0.335547,0.494422,140.564790,49.110004,-64.102273
04843,NaN,-8.337960,3.342045,-5.240189,0.347835,1.035328,0.529331,-0.321761,-0.338445,-0.036789,-0.053047,-0.799274,0.334679,0.496324,140.266282,49.278516,-64.261558
04844,NaN,-8.348479,3.464445,-5.308612,0.392288,0.916384,0.622202,-0.296735,-0.475364,0.002372,-0.053369,-0.798018,0.334064,0.498719,139.900701,49.492021,-64.527231
04845,NaN,-7.642263,3.380721,-5.604259,0.931819,0.475020,0.194657,-0.236721,-0.553774,0.016742,-0.053352,-0.796553,0.333674,0.501317,139.525420,49.733525,-64.850285
04846,NaN,-7.132082,3.735139,-5.212271,0.623486,-0.018822,-0.242088,-0.113131,-0.449468,0.009885,-0.053002,-0.795387,0.333536,0.503293,139.266522,49.930911,-65.112346
04847,NaN,-6.998861,3.997872,-4.799058,0.222059,-0.210393,-0.436956,-0.085404,-0.314768,0.032488,-0.052821,-0.794528,0.333521,0.504678,139.070413,50.060902,-65.312859
04848,NaN,-7.015743,4.060641,-4.530692,-0.015620,-0.191768,-0.528315,-0.006728,-0.218114,0.004799,-0.052421,-0.793977,0.333568,0.505555,138.975657,50.158989,-65.439421
04849,NaN,-6.794878,3.907564,-4.452656,0.061116,-0.190122,-0.800158,0.025705,-0.100073,0.017387,-0.052118,-0.793712,0.333716,0.505904,138.946335,50.201409,-65.505126
04850,NaN,-7.047596,3.723080,-4.702510,0.292226,0.033220,-0.562983,0.107514,-0.016650,0.059851,-0.051740,-0.793607,0.334218,0.505776,138.979004,50.191616,-65.550862
04851,NaN,-7.456888,4.123019,-4.594188,-0.106335,-0.009312,-0.132831,0.220922,0.017404,0.069307,-0.050989,-0.793602,0.335034,0.505319,139.087588,50.163762,-65.582647
04852,NaN,-7.718796,4.568278,-4.367322,-0.589661,-0.143291,0.144935,0.197637,-0.040336,0.038146,-0.050159,-0.793496,0.335683,0.505138,139.172543,50.172451,-65.627567
04853,NaN,-7.543789,4.794111,-4.423937,-0.607791,-0.439844,0.132190,0.083638,-0.111160,0.005482,-0.049576,-0.793237,0.335931,0.505437,139.177783,50.224295,-65.691473
04854,NaN,-7.546832,4.454934,-4.735207,-0.175661,-0.267399,0.143260,-0.046870,-0.184906,-0.019129,-0.049328,-0.792800,0.335771,0.506254,139.087063,50.317097,-65.782536
04855,NaN,-8.049921,4.272213,-5.007340,0.029784,0.081482,0.585335,-0.094087,-0.292133,-0.034130,-0.049046,-0.792104,0.335457,0.507578,138.928470,50.461973,-65.926748
04856,NaN,-8.042087,4.130168,-5.244388,0.334460,0.102297,0.633102,-0.118450,-0.481388,-0.049665,-0.048507,-0.790943,0.335065,0.509694,138.675211,50.693775,-66.174721
04857,NaN,-7.572799,4.102166,-5.186443,0.464983,-0.161932,0.228804,-0.074803,-0.577888,-0.037512,-0.047661,-0.789522,0.334852,0.512111,138.393176,50.961859,-66.491512
04858,NaN,-7.269094,4.367440,-4.908883,0.226391,-0.497227,-0.029402,-0.088188,-0.549208,-0.032702,-0.046931,-0.788155,0.334616,0.514433,138.110020,51.214639,-66.798436
04859,NaN,-6.780147,4.038122,-4.629028,0.308402,-0.472931,-0.681104,-0.093869,-0.438771,-0.015403,-0.046449,-0.787039,0.334404,0.516320,137.864445,51.413098,-67.052359
04860,NaN,-6.536915,4.093314,-4.301540,0.090350,-0.580363,-1.001064,-0.013577,-0.240691,0.032356,-0.046108,-0.786369,0.334541,0.517282,137.732753,51.508303,-67.218709
04861,NaN,-6.859792,4.378652,-3.936241,-0.421129,-0.519660,-0.797371,-0.014213,-0.068647,0.051211,-0.046104,-0.786112,0.334710,0.517563,137.674151,51.523430,-67.291367
04862,NaN,-7.152398,4.242842,-3.894123,-0.458708,-0.232564,-0.644362,-0.032168,0.028971,0.058462,-0.046355,-0.786091,0.334840,0.517489,137.648201,51.494061,-67.308870
04863,NaN,-7.259068,3.984295,-4.035627,-0.243952,-0.004119,-0.604244,0.001649,0.099148,0.058553,-0.046588,-0.786259,0.335039,0.517083,137.676173,51.435257,-67.282521
04864,NaN,-7.455752,4.157557,-4.090180,-0.338723,-0.031015,-0.352911,0.050362,0.175905,0.046784,-0.046732,-0.786656,0.335302,0.516295,137.774589,51.348114,-67.201383
04865,NaN,-7.599003,4.114480,-4.258433,-0.227505,0.048289,-0.181804,0.048363,0.214368,0.028841,-0.046897,-0.787182,0.335478,0.515363,137.900042,51.251753,-67.084362
04866,NaN,-7.840756,4.395658,-4.223873,-0.470614,-0.009913,0.107935,0.033584,0.253538,-0.001288,-0.047113,-0.787854,0.335490,0.514309,138.050388,51.149802,-66.924017
04867,NaN,-8.309021,4.498362,-4.280219,-0.607381,0.175388,0.540846,-0.073594,0.253368,-0.029841,-0.047673,-0.788547,0.335111,0.513440,138.154292,51.058924,-66.744581
04868,NaN,-8.652541,4.156581,-4.390640,-0.446428,0.614900,0.715558,-0.164655,0.132953,-0.040057,-0.048368,-0.788925,0.334488,0.513202,138.153340,51.022980,-66.632337
04869,NaN,-8.754280,3.931149,-5.044053,0.190311,0.673113,1.006023,-0.171190,-0.055725,-0.063050,-0.048710,-0.788856,0.333801,0.513722,138.072281,51.076627,-66.618696
04870,NaN,-8.217321,3.662125,-5.095864,0.510700,0.548111,0.499542,-0.114606,-0.169517,-0.080769,-0.048597,-0.788535,0.333219,0.514602,137.978127,51.185353,-66.663149
04871,NaN,-8.099959,3.659671,-5.255371,0.695524,0.425299,0.480842,-0.067125,-0.253521,-0.039676,-0.048259,-0.787942,0.332939,0.515723,137.849511,51.314159,-66.786979
04872,NaN,-8.061313,3.473949,-5.405692,0.944655,0.487403,0.441314,0.033826,-0.357235,-0.015910,-0.047415,-0.787063,0.333038,0.517077,137.714634,51.477472,-66.992274
04873,NaN,-7.888434,3.848807,-5.091570,0.571219,0.156699,0.317159,0.089425,-0.465622,-0.028837,-0.046135,-0.785936,0.333253,0.518766,137.564735,51.691519,-67.257169
04874,NaN,-7.630851,3.862086,-4.794573,0.406255,0.049304,-0.016470,0.081146,-0.501667,-0.053940,-0.044764,-0.784750,0.333356,0.520613,137.402953,51.929885,-67.530093
04875,NaN,-7.217918,3.821783,-4.427764,0.241601,-0.084290,-0.525931,0.083252,-0.477353,-0.064410,-0.043396,-0.783641,0.333414,0.522359,137.257944,52.161797,-67.782628
04876,NaN,-7.027707,3.919016,-3.866844,-0.211639,-0.136307,-0.888765,0.081721,-0.396947,-0.036675,-0.042242,-0.782690,0.333559,0.523784,137.134833,52.348557,-68.005446
04877,NaN,-6.876590,4.097857,-3.495713,-0.559833,-0.272277,-1.099918,0.063176,-0.259003,0.003158,-0.041493,-0.782029,0.333780,0.524691,137.048268,52.461829,-68.168481
04878,NaN,-7.151519,4.252648,-3.379529,-0.782846,-0.212050,-0.868827,-0.005008,-0.148518,0.020169,-0.041242,-0.781613,0.333866,0.525275,136.968504,52.521813,-68.273272
04879,NaN,-7.393704,4.135917,-3.571007,-0.611000,-0.044513,-0.639387,-0.014625,-0.078947,-0.001863,-0.041084,-0.781415,0.333825,0.525607,136.931018,52.561415,-68.318023
04880,NaN,-7.366516,4.338949,-3.707878,-0.582625,-0.261202,-0.515768,-0.024841,-0.016983,-0.051394,-0.040942,-0.781460,0.333553,0.525726,136.945825,52.594270,-68.289251
04881,NaN,-7.477235,4.557148,-3.836657,-0.604199,-0.409490,-0.280435,-0.065236,0.068968,-0.083712,-0.041014,-0.781776,0.333029,0.525581,136.999760,52.603927,-68.182383
04882,NaN,-7.857054,4.799900,-3.839426,-0.806804,-0.389044,0.122666,-0.145653,0.097437,-0.124562,-0.041343,-0.782218,0.332129,0.525468,137.043936,52.617366,-68.029485
04883,NaN,-8.085037,4.679622,-4.091072,-0.586826,-0.243549,0.365715,-0.281420,0.103188,-0.138294,-0.042173,-0.782669,0.330816,0.525559,137.021556,52.633924,-67.862823
04884,NaN,-8.716771,4.348064,-4.621795,-0.115494,0.215075,0.966419,-0.331899,0.040353,-0.158671,-0.043047,-0.782973,0.329304,0.525984,136.948584,52.684670,-67.723090
04885,NaN,-8.596396,4.053995,-4.956994,0.351326,0.275228,0.897376,-0.276559,-0.098928,-0.120908,-0.043570,-0.782861,0.328113,0.526851,136.815863,52.779216,-67.698814
04886,NaN,-8.397433,4.192370,-5.196862,0.562385,-0.022018,0.901013,-0.218488,-0.238228,-0.058557,-0.043806,-0.782289,0.327349,0.528155,136.608826,52.907243,-67.809191
04887,NaN,-8.236796,4.245100,-5.156543,0.573554,-0.157579,0.775121,-0.137911,-0.362005,-0.028970,-0.043598,-0.781358,0.326939,0.529802,136.366506,53.074935,-68.021727
04888,NaN,-7.632372,4.324967,-4.920958,0.507992,-0.510215,0.220046,-0.084412,-0.436921,0.014259,-0.043176,-0.780164,0.326856,0.531643,136.088538,53.255708,-68.316285
04889,NaN,-7.324141,4.238381,-4.645395,0.416270,-0.553306,-0.184236,-0.032687,-0.428846,0.077830,-0.042731,-0.778897,0.327154,0.533351,135.807442,53.407165,-68.651383
04890,NaN,-7.147780,4.283660,-4.194339,0.076632,-0.571062,-0.501354,0.031205,-0.371303,0.107172,-0.042213,-0.777745,0.327724,0.534722,135.574938,53.522122,-68.970684
04891,NaN,-7.053748,4.262661,-3.871746,-0.148135,-0.521631,-0.723024,0.052440,-0.281597,0.128085,-0.041811,-0.776801,0.328411,0.535703,135.391043,53.591603,-69.244609
04892,NaN,-7.190168,4.188210,-3.574907,-0.383130,-0.304154,-0.769443,0.088305,-0.167088,0.125600,-0.041456,-0.776173,0.329162,0.536180,135.290351,53.614697,-69.440215
04893,NaN,-7.398288,4.371974,-3.357376,-0.693838,-0.267421,-0.616608,0.080490,-0.055448,0.087939,-0.041209,-0.775905,0.329720,0.536244,135.267651,53.607717,-69.533673
04894,NaN,-7.967630,4.398462,-3.334465,-0.845479,0.037577,-0.157016,0.004532,0.051602,0.014718,-0.041242,-0.776028,0.329770,0.536033,135.299661,53.586350,-69.504738
04895,NaN,-8.252225,3.944573,-3.633736,-0.439343,0.463759,0.008454,-0.060252,0.067085,-0.034302,-0.041416,-0.776261,0.329451,0.535878,135.330814,53.578741,-69.431099
04896,NaN,-8.453401,3.670776,-3.992906,-0.049478,0.683263,0.207721,-0.032686,0.056086,-0.068738,-0.041377,-0.776525,0.329077,0.535729,135.389939,53.589171,-69.341931
04897,NaN,-8.420220,3.546581,-4.288306,0.265553,0.670271,0.254494,-0.008607,-0.011715,-0.080193,-0.041098,-0.776633,0.328734,0.535804,135.433127,53.632100,-69.290126
04898,NaN,-8.314260,3.290001,-4.529940,0.614813,0.730536,0.165273,0.057761,-0.089841,-0.088345,-0.040414,-0.776556,0.328555,0.536077,135.475518,53.709974,-69.286183
04899,NaN,-7.884720,3.359173,-4.698778,0.818691,0.373115,-0.080171,0.141289,-0.148390,-0.080075,-0.039329,-0.776327,0.328643,0.536436,135.529966,53.808663,-69.327001
04900,NaN,-7.877997,3.557465,-4.498777,0.556066,0.253057,-0.087251,0.182500,-0.159847,-0.090880,-0.038038,-0.776090,0.328801,0.536774,135.607183,53.916218,-69.368515
04901,NaN,-7.802660,3.582134,-4.339380,0.424268,0.217188,-0.204556,0.179114,-0.197545,-0.102022,-0.036666,-0.775770,0.328913,0.537264,135.668637,54.043891,-69.427350
04902,NaN,-7.685678,3.696602,-4.190753,0.270755,0.083414,-0.314446,0.187109,-0.247328,-0.108209,-0.035167,-0.775324,0.329031,0.537935,135.710008,54.194305,-69.516275
04903,NaN,-7.592547,4.043653,-3.910307,-0.105951,-0.178809,-0.365722,0.124258,-0.292956,-0.077737,-0.033916,-0.774694,0.329105,0.538878,135.672752,54.351410,-69.657771
04904,NaN,-7.401825,3.750045,-4.027522,0.186507,-0.110167,-0.591852,0.059144,-0.300114,-0.046031,-0.032993,-0.773977,0.329127,0.539950,135.574592,54.498459,-69.827771
04905,NaN,-7.396451,3.908105,-3.839209,-0.033647,-0.197814,-0.610514,0.067793,-0.267894,-0.046192,-0.032086,-0.773349,0.329165,0.540881,135.499149,54.632432,-69.975911
04906,NaN,-7.480733,4.350869,-3.616257,-0.436838,-0.444370,-0.454247,-0.012190,-0.226680,-0.015559,-0.031642,-0.772767,0.329100,0.541779,135.382243,54.736918,-70.118253
04907,NaN,-7.705640,4.162212,-3.570745,-0.411955,-0.170851,-0.365350,-0.117101,-0.214010,0.007471,-0.031684,-0.772164,0.328835,0.542795,135.198893,54.826949,-70.268410
04908,NaN,-7.790260,3.947136,-3.752509,-0.148852,-0.019614,-0.308647,-0.123786,-0.201948,0.029519,-0.031835,-0.771554,0.328636,0.543773,135.004526,54.902666,-70.426936
04909,NaN,-7.909533,4.016317,-3.766308,-0.172677,-0.017984,-0.177003,-0.088528,-0.171392,0.045258,-0.031939,-0.771008,0.328587,0.544571,134.838894,54.959565,-70.575171
04910,NaN,-8.308685,4.118888,-3.779046,-0.269297,0.109256,0.197117,-0.039703,-0.169153,0.027790,-0.031814,-0.770502,0.328605,0.545283,134.711499,55.022234,-70.710497
04911,NaN,-8.307247,3.800198,-4.040587,0.119626,0.268710,0.171884,0.067499,-0.179637,0.012033,-0.031213,-0.770011,0.328854,0.545861,134.648696,55.095631,-70.842116
04912,NaN,-8.499215,4.284420,-3.946050,-0.221041,0.014016,0.488534,0.206294,-0.141253,0.035109,-0.030207,-0.769606,0.329565,0.546059,134.673622,55.143947,-70.963365
04913,NaN,-8.671507,4.665395,-4.007965,-0.380366,-0.220044,0.809535,0.217296,-0.160777,0.010073,-0.029055,-0.769191,0.330212,0.546316,134.708369,55.210557,-71.080515
04914,NaN,-8.666408,4.832234,-4.022429,-0.444280,-0.372435,0.878474,0.192563,-0.215335,-0.031464,-0.027797,-0.768689,0.330639,0.546830,134.720115,55.315907,-71.207999
04915,NaN,-8.102923,4.699346,-4.062996,-0.235572,-0.603627,0.376977,0.128457,-0.251171,-0.035494,-0.026712,-0.768086,0.330879,0.547585,134.676532,55.437512,-71.358198
04916,NaN,-7.314885,4.352157,-4.243349,0.234236,-0.829810,-0.341079,0.113138,-0.133590,-0.030443,-0.025898,-0.767792,0.331081,0.547914,134.689594,55.509437,-71.428495
04917,NaN,-7.342762,4.519875,-3.927787,-0.124545,-0.851123,-0.376956,0.077364,0.009374,-0.010619,-0.025509,-0.767853,0.331242,0.547750,134.755986,55.515907,-71.409509
04918,NaN,-7.247368,4.180020,-3.873975,-0.001454,-0.617506,-0.613598,0.053103,0.196711,0.016236,-0.025601,-0.768378,0.331416,0.546903,134.902582,55.435467,-71.275960
04919,NaN,-7.599391,4.257696,-3.680838,-0.287510,-0.415382,-0.369593,0.017291,0.288078,0.035848,-0.026031,-0.769116,0.331555,0.545761,135.070813,55.310168,-71.091352
04920,NaN,-7.757251,4.202459,-3.510162,-0.456139,-0.218004,-0.331063,-0.024640,0.279896,0.037062,-0.026616,-0.769821,0.331585,0.544719,135.207532,55.187080,-70.915222
04921,NaN,-7.490311,3.975506,-3.546859,-0.282692,-0.182452,-0.627026,-0.058988,0.270646,0.042556,-0.027330,-0.770487,0.331542,0.543767,135.315800,55.065669,-70.749881
04922,NaN,-7.418546,3.758372,-3.576270,-0.157613,-0.045063,-0.761557,-0.051326,0.343412,0.047184,-0.028151,-0.771341,0.331529,0.542521,135.465590,54.912159,-70.538535
04923,NaN,-7.798872,3.740213,-3.765162,-0.083314,0.135136,-0.380681,-0.035962,0.385214,0.055488,-0.029000,-0.772296,0.331581,0.541085,135.642377,54.738215,-70.304898
04924,NaN,-8.254325,3.622338,-4.026658,0.083661,0.413856,0.050923,-0.029884,0.344530,0.069513,-0.029800,-0.773114,0.331710,0.539792,135.788808,54.574641,-70.111856
04925,NaN,-8.456556,3.431008,-4.391803,0.426057,0.578248,0.289646,0.000881,0.258813,0.060992,-0.030312,-0.773719,0.331899,0.538779,135.909319,54.449773,-69.972353
04926,NaN,-8.631053,3.392990,-4.481127,0.467775,0.688883,0.453497,0.069843,0.173687,0.049019,-0.030388,-0.774123,0.332242,0.537983,136.027250,54.364286,-69.884058
04927,NaN,-8.722271,3.592766,-4.328064,0.207865,0.636531,0.544423,0.104225,0.085044,0.005093,-0.030061,-0.774367,0.332519,0.537478,136.141463,54.333022,-69.824887
04928,NaN,-8.542212,3.826392,-4.091576,-0.080566,0.427170,0.393324,0.068284,0.020923,-0.057795,-0.029601,-0.774537,0.332466,0.537292,136.235068,54.352918,-69.765405
04929,NaN,-8.420347,3.495701,-4.064642,0.074270,0.616786,0.150120,0.011260,0.001749,-0.118980,-0.029162,-0.774749,0.332025,0.537282,136.321592,54.405162,-69.674796
04930,NaN,-8.348744,3.268315,-4.371485,0.451883,0.644989,0.130806,0.065309,0.017005,-0.174970,-0.028392,-0.775102,0.331511,0.537133,136.479643,54.472903,-69.534084
04931,NaN,-8.597413,3.818593,-4.076746,-0.129419,0.424219,0.430371,0.105266,0.029765,-0.238129,-0.027315,-0.775599,0.330856,0.536875,136.705850,54.560107,-69.338234
04932,NaN,-8.493822,3.762163,-4.111475,-0.063318,0.377087,0.339005,0.019843,-0.033346,-0.253348,-0.026427,-0.775938,0.329921,0.537005,136.857578,54.679122,-69.173674
04933,NaN,-8.229882,3.738550,-4.206474,0.079305,0.196642,0.155116,0.012683,-0.111481,-0.244328,-0.025460,-0.776051,0.329011,0.537447,136.958247,54.827224,-69.067161
04934,NaN,-7.924843,3.507932,-4.478204,0.482832,0.100814,-0.070013,0.033350,-0.082247,-0.244345,-0.024462,-0.776242,0.328153,0.537741,137.087282,54.962846,-68.940368
04935,NaN,-8.036641,3.863465,-4.276004,0.111175,-0.080625,0.075652,0.059997,-0.072527,-0.250431,-0.023359,-0.776472,0.327340,0.537953,137.242267,55.096682,-68.801014
04936,NaN,-7.924454,3.801713,-4.202135,0.096266,-0.095242,-0.071561,0.058037,-0.085574,-0.237008,-0.022279,-0.776643,0.326576,0.538217,137.381224,55.230477,-68.679805
04937,NaN,-7.639554,3.844568,-4.139438,0.077468,-0.286206,-0.315821,0.107283,-0.120755,-0.204409,-0.021037,-0.776671,0.326074,0.538531,137.510360,55.366442,-68.605302
04938,NaN,-7.496643,4.177350,-3.865218,-0.290398,-0.559186,-0.421587,0.091618,-0.094259,-0.167295,-0.020001,-0.776705,0.325671,0.538764,137.622749,55.476631,-68.540109
04939,NaN,-7.359268,4.239067,-3.612741,-0.509392,-0.616494,-0.618077,0.038649,-0.048220,-0.120453,-0.019369,-0.776783,0.325301,0.538899,137.702786,55.549316,-68.477658
04940,NaN,-7.564278,4.260770,-3.551723,-0.617351,-0.515928,-0.467107,-0.015295,0.024295,-0.076274,-0.019187,-0.776977,0.324952,0.538836,137.764918,55.574017,-68.399197
04941,NaN,-7.646684,4.086573,-3.802059,-0.342759,-0.419423,-0.361015,-0.031371,0.088172,-0.059107,-0.019214,-0.777315,0.324619,0.538549,137.843790,55.565111,-68.289560
04942,NaN,-8.139124,4.348618,-3.730902,-0.640397,-0.344734,0.114371,-0.054055,0.115022,-0.041896,-0.019423,-0.777694,0.324290,0.538193,137.913210,55.537908,-68.175280
04943,NaN,-8.332922,3.941360,-4.215497,-0.079375,-0.074443,0.322917,-0.057609,0.095254,-0.026508,-0.019652,-0.777995,0.324012,0.537917,137.960633,55.513333,-68.085498
04944,NaN,-8.089424,4.151308,-4.195183,-0.149548,-0.361140,0.193257,-0.061160,0.025452,-0.029124,-0.019777,-0.778110,0.323722,0.537919,137.967791,55.519248,-68.041736
04945,NaN,-7.789231,3.820335,-4.378483,0.226953,-0.315895,-0.102543,-0.044806,0.077158,-0.031246,-0.019914,-0.778371,0.323462,0.537693,138.015314,55.504145,-67.960719
04946,NaN,-7.924329,3.981157,-4.269828,0.021385,-0.335159,0.024143,-0.049179,0.135531,-0.027212,-0.020177,-0.778781,0.323201,0.537248,138.089417,55.462352,-67.844019
04947,NaN,-8.064059,3.717870,-4.284650,0.119823,-0.053082,0.045945,-0.053885,0.187024,-0.025143,-0.020543,-0.779325,0.322928,0.536607,138.188659,55.397915,-67.693795
04948,NaN,-8.309825,3.804568,-4.072718,-0.169153,0.081552,0.191296,-0.063549,0.217266,-0.027728,-0.020992,-0.779952,0.322618,0.535866,138.299348,55.321146,-67.522446
04949,NaN,-8.784931,3.587697,-4.137943,-0.126081,0.489086,0.527238,-0.101245,0.168296,-0.042750,-0.021465,-0.780469,0.322151,0.535375,138.371101,55.271140,-67.372409
04950,NaN,-8.963245,3.411553,-4.190108,-0.042227,0.706983,0.629240,-0.085508,0.027201,-0.061129,-0.021604,-0.780637,0.321671,0.535413,138.384794,55.288295,-67.303596
04951,NaN,-8.785473,3.288269,-4.334521,0.182840,0.657857,0.498428,-0.036260,-0.127926,-0.075578,-0.021259,-0.780419,0.321282,0.535978,138.351198,55.377591,-67.326985
04952,NaN,-8.287548,3.340228,-4.283177,0.233825,0.354988,0.087083,0.025192,-0.205311,-0.095784,-0.020499,-0.780031,0.320987,0.536748,138.321664,55.507555,-67.387838
04953,NaN,-7.783705,3.264542,-4.331940,0.428997,0.116185,-0.335798,0.097675,-0.168899,-0.113469,-0.019464,-0.779777,0.320813,0.537260,138.365482,55.628816,-67.410343
04954,NaN,-7.629429,3.522885,-4.062223,0.108620,-0.102631,-0.480046,0.112314,-0.058261,-0.122973,-0.018526,-0.779834,0.320631,0.537319,138.484734,55.706152,-67.351337
04955,NaN,-7.719731,3.352103,-3.979688,0.093416,0.092459,-0.504011,0.074410,0.025659,-0.118416,-0.017881,-0.780107,0.320356,0.537109,138.627157,55.745774,-67.238343
04956,NaN,-8.082390,3.112658,-4.066607,0.192552,0.432448,-0.256179,0.102237,0.041372,-0.115770,-0.017162,-0.780418,0.320165,0.536794,138.792184,55.777324,-67.117057
04957,NaN,-8.202609,3.305571,-4.006295,0.013346,0.347604,-0.110163,0.114597,-0.050018,-0.109073,-0.016263,-0.780475,0.320040,0.536813,138.910296,55.845745,-67.061402
04958,NaN,-7.991508,3.288338,-4.114709,0.157526,0.201074,-0.244881,0.101276,-0.126378,-0.108387,-0.015299,-0.780323,0.319889,0.537153,138.977584,55.946744,-67.057705
04959,NaN,-7.901270,3.572593,-3.958264,-0.091378,-0.038579,-0.281083,0.082298,-0.122163,-0.094994,-0.014448,-0.780160,0.319738,0.537503,139.028558,56.040988,-67.060836
04960,NaN,-8.051749,3.752210,-3.901399,-0.253924,-0.101418,-0.114447,-0.010255,-0.149277,-0.087896,-0.013937,-0.779904,0.319368,0.538108,139.006185,56.144195,-67.088192
04961,NaN,-8.029511,3.563275,-3.955631,-0.100360,0.004100,-0.179056,-0.046373,-0.198220,-0.086325,-0.013491,-0.779512,0.318909,0.538959,138.934996,56.268051,-67.149603
04962,NaN,-7.732882,3.381345,-4.109137,0.196497,-0.069010,-0.427989,-0.043595,-0.216805,-0.081789,-0.013018,-0.779060,0.318477,0.539878,138.850804,56.398081,-67.228196
04963,NaN,-7.723874,3.446353,-4.092269,0.163493,-0.135354,-0.419223,0.034109,-0.142126,-0.070252,-0.012391,-0.778797,0.318294,0.540380,138.846300,56.491604,-67.264752
04964,NaN,-8.052953,3.748661,-4.006033,-0.122864,-0.194547,-0.071135,0.064724,-0.080090,-0.087816,-0.011698,-0.778730,0.318122,0.540594,138.905507,56.564870,-67.245674
04965,NaN,-8.155781,3.933018,-3.766208,-0.436989,-0.224755,-0.018391,0.057530,-0.097267,-0.080327,-0.011024,-0.778604,0.317959,0.540884,138.946645,56.642837,-67.243567
04966,NaN,-7.956964,3.842545,-3.687667,-0.416244,-0.240194,-0.249929,0.059208,-0.090104,-0.062013,-0.010406,-0.778468,0.317873,0.541144,138.980204,56.710700,-67.251412
04967,NaN,-8.058274,4.159284,-3.562937,-0.697757,-0.411385,-0.103216,0.065529,-0.039471,-0.070471,-0.009819,-0.778483,0.317767,0.541195,139.052730,56.759964,-67.217250
04968,NaN,-8.128524,4.244397,-3.566130,-0.755350,-0.454512,-0.013302,0.024800,0.006806,-0.094486,-0.009402,-0.778657,0.317457,0.541133,139.143683,56.798046,-67.132873
04969,NaN,-7.866925,4.146527,-3.695170,-0.548372,-0.558765,-0.214586,-0.042381,0.060525,-0.101873,-0.009309,-0.778987,0.316932,0.540968,139.232737,56.815649,-67.005105
04970,NaN,-7.915628,3.814511,-4.083506,-0.076400,-0.399980,-0.131941,-0.051056,0.126689,-0.076968,-0.009425,-0.779454,0.316478,0.540559,139.337207,56.794955,-66.852605
04971,NaN,-8.140580,3.899682,-4.216362,-0.065553,-0.397932,0.141789,-0.044028,0.179712,-0.080007,-0.009586,-0.780070,0.316028,0.539930,139.478595,56.752282,-66.661098
04972,NaN,-7.998116,3.740554,-4.379122,0.166077,-0.392044,0.033987,-0.072836,0.198052,-0.055579,-0.009958,-0.780694,0.315595,0.539275,139.596239,56.692126,-66.477762
04973,NaN,-8.168058,3.583276,-4.348067,0.164250,-0.163136,0.107449,-0.077205,0.216860,-0.018460,-0.010474,-0.781310,0.315293,0.538550,139.697707,56.609962,-66.311020
04974,NaN,-8.544341,3.354034,-4.245527,0.092501,0.253612,0.297056,-0.071184,0.166715,0.031650,-0.011025,-0.781710,0.315207,0.538009,139.739795,56.530846,-66.219031
04975,NaN,-8.491223,3.071996,-4.297631,0.277840,0.445340,0.173910,-0.005418,0.061014,0.069994,-0.011252,-0.781770,0.315451,0.537773,139.735779,56.483922,-66.227818
04976,NaN,-8.356653,3.559616,-3.965643,-0.207783,0.098870,0.095788,0.015685,-0.036132,0.070786,-0.011249,-0.781567,0.315762,0.537886,139.688174,56.478992,-66.303044
04977,NaN,-8.165449,3.389249,-3.943659,-0.095582,0.148227,-0.133695,-0.058192,-0.059583,0.065633,-0.011480,-0.781306,0.315854,0.538205,139.589363,56.486328,-66.389267
04978,NaN,-7.968829,3.145915,-3.994659,0.118313,0.229341,-0.363364,-0.099198,-0.070369,0.053475,-0.011825,-0.781031,0.315790,0.538634,139.468091,56.502643,-66.473886
04979,NaN,-8.325940,3.045876,-4.022797,0.121233,0.482345,-0.089819,-0.064676,-0.056994,0.038584,-0.012013,-0.780820,0.315759,0.538955,139.384699,56.518757,-66.537139
04980,NaN,-8.447793,3.034324,-4.071887,0.150583,0.536705,0.028139,-0.058390,-0.082405,0.020132,-0.012090,-0.780567,0.315676,0.539368,139.301790,56.552630,-66.603773
04981,NaN,-8.469776,3.042357,-4.077824,0.155883,0.535582,0.051923,-0.008292,-0.103347,0.006452,-0.011898,-0.780284,0.315674,0.539782,139.245391,56.600788,-66.673342
04982,NaN,-8.550789,3.232274,-3.941837,-0.062212,0.461155,0.131413,0.037994,-0.089778,-0.029466,-0.011453,-0.780096,0.315656,0.540074,139.245996,56.656390,-66.706059
04983,NaN,-8.462553,3.394595,-3.707841,-0.316890,0.352225,0.018980,0.030974,-0.077030,-0.067902,-0.010948,-0.780003,0.315469,0.540328,139.275924,56.720917,-66.699161
04984,NaN,-8.496443,3.393508,-3.664191,-0.359543,0.373391,0.029215,0.034632,-0.062606,-0.069503,-0.010451,-0.779951,0.315284,0.540522,139.316554,56.779725,-66.681685
04985,NaN,-8.441612,3.399949,-3.770635,-0.259714,0.294541,0.030277,0.019920,-0.064536,-0.091243,-0.009946,-0.779927,0.314975,0.540745,139.362954,56.847531,-66.647546
04986,NaN,-8.441723,3.370957,-3.942287,-0.099540,0.248427,0.091657,0.034430,-0.073808,-0.110618,-0.009320,-0.779908,0.314630,0.540985,139.424691,56.926554,-66.604780
04987,NaN,-8.288694,3.332513,-4.271015,0.233566,0.079454,0.086241,0.049503,-0.131839,-0.100166,-0.008570,-0.779718,0.314369,0.541424,139.455800,57.026948,-66.609157
04988,NaN,-8.356713,3.545814,-4.427523,0.256165,-0.127550,0.283276,0.073968,-0.204684,-0.082485,-0.007660,-0.779300,0.314245,0.542109,139.446354,57.152483,-66.678225
04989,NaN,-8.012430,3.497260,-4.475442,0.407352,-0.297402,-0.004272,0.047472,-0.288157,-0.077729,-0.006733,-0.778649,0.314071,0.543158,139.370471,57.312522,-66.808445
04990,NaN,-7.920845,3.612028,-4.424096,0.345263,-0.440541,-0.063544,0.035418,-0.292054,-0.074083,-0.005859,-0.777976,0.313878,0.544241,139.281179,57.472743,-66.945918
04991,NaN,-7.841032,3.502257,-4.317575,0.342238,-0.377819,-0.214296,0.013849,-0.282012,-0.067291,-0.005101,-0.777320,0.313652,0.545316,139.180402,57.625992,-67.082349
04992,NaN,-7.704845,3.325708,-4.103565,0.289696,-0.250038,-0.478999,0.036631,-0.238457,-0.042672,-0.004392,-0.776742,0.313582,0.546186,139.099972,57.750915,-67.209744
04993,NaN,-7.528701,3.465601,-3.826036,0.032760,-0.370452,-0.691724,0.058072,-0.157608,-0.044195,-0.003720,-0.776388,0.313562,0.546706,139.081070,57.841450,-67.278989
04994,NaN,-6.987059,3.516987,-3.651700,-0.029515,-0.626937,-1.202857,0.077670,0.037114,-0.033216,-0.003309,-0.776547,0.313635,0.546440,139.181260,57.843401,-67.220571
04995,NaN,-7.186396,3.811783,-3.494588,-0.362436,-0.709503,-0.995017,0.036221,0.307716,-0.012135,-0.003539,-0.777413,0.313671,0.545186,139.404206,57.719980,-66.989162
04996,NaN,-7.679821,3.640828,-3.624361,-0.302141,-0.358083,-0.584924,-0.013778,0.491224,-0.003224,-0.004279,-0.778759,0.313602,0.543295,139.697106,57.512508,-66.640334
04997,NaN,-8.451976,3.722439,-3.798353,-0.395568,-0.078291,0.165146,-0.048692,0.513932,0.017545,-0.005243,-0.780130,0.313516,0.541367,139.965565,57.286676,-66.296170
04998,NaN,-8.918301,3.658468,-4.092798,-0.250091,0.130606,0.655921,-0.071059,0.396052,0.038057,-0.006169,-0.781143,0.313451,0.539931,140.135481,57.104220,-66.052887
04999,NaN,-8.926817,3.651993,-4.254413,-0.132252,0.106578,0.727534,-0.099263,0.210773,0.052686,-0.006950,-0.781632,0.313371,0.539260,140.173587,56.997807,-65.947349
05000,NaN,-8.785669,3.508792,-4.445209,0.126453,0.101267,0.638783,-0.099040,0.025000,0.067653,-0.007484,-0.781595,0.313357,0.539315,140.095703,56.967521,-65.979828
05001,NaN,-8.381264,3.540040,-4.416617,0.185484,-0.111293,0.298552,-0.077497,-0.089525,0.057644,-0.007723,-0.781266,0.313365,0.539783,139.972981,56.991274,-66.080887
05002,NaN,-8.166674,3.590399,-4.341495,0.158127,-0.234044,0.104687,-0.077544,-0.112665,0.048740,-0.007906,-0.780888,0.313341,0.540342,139.842096,57.028216,-66.191272
05003,NaN,-8.196168,3.496641,-4.212877,0.099303,-0.104141,0.042833,-0.059359,-0.088316,0.011539,-0.007952,-0.780635,0.313218,0.540778,139.761213,57.068266,-66.254777
05004,NaN,-8.179499,3.340565,-4.167307,0.146593,0.024294,-0.044989,-0.030546,-0.054703,-0.009372,-0.007884,-0.780505,0.313091,0.541040,139.729262,57.101204,-66.279274
05005,NaN,-8.294461,3.334690,-3.941600,-0.065418,0.156678,-0.044083,0.037301,-0.016346,0.005498,-0.007649,-0.780460,0.313203,0.541043,139.748863,57.111985,-66.289026
05006,NaN,-8.620866,3.461503,-3.804163,-0.315082,0.258943,0.217599,0.070750,-0.036847,0.007171,-0.007259,-0.780357,0.313414,0.541076,139.774053,57.130972,-66.314650
05007,NaN,-8.622933,3.480564,-3.712673,-0.401360,0.269399,0.188291,0.062549,-0.079671,-0.005829,-0.006796,-0.780159,0.313552,0.541287,139.779501,57.173652,-66.358460
05008,NaN,-8.417102,3.329159,-3.866279,-0.149838,0.230898,0.026176,0.055353,-0.096121,-0.014796,-0.006314,-0.779928,0.313637,0.541575,139.776742,57.226752,-66.406781
05009,NaN,-8.305200,3.345193,-3.839042,-0.153265,0.163357,-0.073348,0.053078,-0.078813,-0.025034,-0.005837,-0.779762,0.313674,0.541798,139.790189,57.276164,-66.434581
05010,NaN,-8.365829,3.298068,-3.655767,-0.296904,0.283755,-0.114218,0.037361,-0.070085,-0.036256,-0.005407,-0.779635,0.313626,0.542013,139.806712,57.325827,-66.447721
05011,NaN,-8.164528,3.169330,-3.755703,-0.104220,0.245949,-0.287032,0.020287,-0.070357,-0.047005,-0.005011,-0.779525,0.313488,0.542255,139.821211,57.379669,-66.451927
05012,NaN,-8.021892,3.205049,-3.802112,-0.049468,0.123240,-0.375447,0.003880,-0.047607,-0.050692,-0.004708,-0.779480,0.313292,0.542436,139.841450,57.424869,-66.437845
05013,NaN,-8.019725,3.181434,-3.975640,0.110487,0.076641,-0.313996,-0.007418,-0.026500,-0.046346,-0.004491,-0.779487,0.313081,0.542550,139.865043,57.459260,-66.412423
05014,NaN,-7.984614,3.226006,-4.167031,0.258860,-0.046233,-0.249415,-0.033676,-0.006286,-0.066123,-0.004356,-0.779578,0.312721,0.542628,139.898416,57.492058,-66.357256
05015,NaN,-7.917201,3.079033,-4.185312,0.358558,0.026905,-0.349597,-0.045670,0.015716,-0.076452,-0.004273,-0.779745,0.312287,0.542638,139.945381,57.519032,-66.278157
05016,NaN,-7.963650,3.134021,-4.106620,0.252005,0.027222,-0.323647,-0.017046,0.038881,-0.053582,-0.004178,-0.779939,0.312020,0.542514,140.005923,57.527362,-66.202068
05017,NaN,-8.074746,3.130452,-4.007163,0.141763,0.115096,-0.271971,-0.025251,0.027871,-0.030058,-0.004160,-0.780067,0.311823,0.542443,140.039745,57.531845,-66.152435
05018,NaN,-8.270002,3.393610,-3.702501,-0.288051,0.098593,-0.141837,-0.018507,0.018195,-0.012945,-0.004149,-0.780141,0.311711,0.542401,140.059513,57.534190,-66.123824
05019,NaN,-8.364311,3.560517,-3.520945,-0.543573,0.068386,-0.079451,-0.052973,0.002691,-0.035880,-0.004184,-0.780209,0.311417,0.542472,140.066939,57.551857,-66.086658
05020,NaN,-8.168582,3.462090,-3.603743,-0.382750,0.020275,-0.244414,-0.070051,0.004417,-0.059469,-0.004226,-0.780317,0.310984,0.542565,140.081314,57.577393,-66.029403
05021,NaN,-8.036481,3.528838,-3.668138,-0.333184,-0.123987,-0.306554,-0.063121,0.054771,-0.077581,-0.004269,-0.780591,0.310498,0.542449,140.141998,57.587470,-65.922275
05022,NaN,-8.238199,3.580768,-3.800287,-0.296827,-0.113368,-0.064301,-0.047464,0.117115,-0.072702,-0.004362,-0.781024,0.310072,0.542068,140.243515,57.568229,-65.777058
05023,NaN,-8.473967,3.572732,-4.073114,-0.120434,-0.082551,0.244224,-0.052067,0.066610,-0.047900,-0.004460,-0.781284,0.309732,0.541888,140.296757,57.562060,-65.686232
05024,NaN,-8.431696,3.619111,-4.232315,0.000972,-0.194476,0.290091,-0.020358,-0.028235,0.005250,-0.004434,-0.781203,0.309687,0.542030,140.275847,57.578210,-65.704446
05025,NaN,-8.261547,3.642981,-4.560835,0.311837,-0.407615,0.289901,-0.004308,-0.097526,0.029635,-0.004302,-0.780898,0.309782,0.542415,140.207981,57.615951,-65.789502
05026,NaN,-8.158145,3.813626,-4.342708,0.078214,-0.526462,0.171045,-0.046799,-0.118922,0.058949,-0.004385,-0.780488,0.309877,0.542951,140.082037,57.652254,-65.914056
05027,NaN,-8.050473,3.632163,-4.136159,0.022046,-0.364473,-0.067062,-0.021157,-0.041103,0.043570,-0.004443,-0.780314,0.309980,0.543142,140.027272,57.659935,-65.972125
