// General information: 
//  MT Manager version: 2019.0.1 
//  XDA version: 2019.0.1 build 2740 rev 84096 built on 2019-01-30
// Device information: 
//  DeviceId: 00B43876
//  ProductCode: MTW2-3A7G6
//  Firmware Version: 4.3.4
//  Hardware Version: 1.1.0
// Device settings: 
//  Filter Profile: human(46.1)
//  Option Flags: Orientation Smoother Disabled, AHS Disabled, ICC Disabled
// Coordinate system: ENU
PacketCounter,SampleTimeFine,Acc_X,Acc_Y,Acc_Z,FreeAcc_E,FreeAcc_N,FreeAcc_U,Gyr_X,Gyr_Y,Gyr_Z,Quat_q0,Quat_q1,Quat_q2,Quat_q3,Roll,Pitch,Yaw
35015,NaN,1.362074,9.665278,-1.463355,0.057855,0.014528,0.056998,-0.005891,0.011633,-0.012516,0.530101,0.543630,-0.524989,-0.384508,98.260805,-7.962998,-81.108093
35016,NaN,1.345113,9.674103,-1.405749,-0.001913,0.022093,0.055100,-0.006340,0.012082,-0.002382,0.530131,0.543625,-0.524974,-0.384494,98.258390,-7.965030,-81.104971
35017,NaN,1.323538,9.687977,-1.381780,-0.030364,0.041166,0.062299,-0.008325,0.010098,0.000684,0.530168,0.543602,-0.524967,-0.384485,98.254658,-7.968443,-81.103171
35018,NaN,1.292399,9.643782,-1.435942,0.025029,0.076878,0.022363,-0.004089,0.000471,0.006963,0.530179,0.543555,-0.525013,-0.384473,98.254522,-7.974840,-81.107666
35019,NaN,1.370502,9.674952,-1.407391,0.004036,0.000194,0.059684,-0.005141,0.000439,0.008186,0.530197,0.543502,-0.525058,-0.384461,98.253468,-7.981712,-81.112018
35020,NaN,1.395868,9.641497,-1.415723,0.021426,-0.025577,0.031604,-0.006768,-0.007306,0.013117,0.530207,0.543417,-0.525136,-0.384461,98.252432,-7.990951,-81.121329
35021,NaN,1.420780,9.676275,-1.413644,0.017456,-0.044933,0.068860,-0.004782,-0.005321,0.010050,0.530212,0.543350,-0.525202,-0.384459,98.252065,-7.998406,-81.129135
35022,NaN,1.443497,9.662398,-1.436460,0.045116,-0.063347,0.061672,-0.002434,-0.001536,0.013200,0.530228,0.543290,-0.525270,-0.384429,98.253051,-8.008115,-81.134562
35023,NaN,1.439176,9.667444,-1.469935,0.075995,-0.051511,0.070783,-0.002220,0.006898,0.004726,0.530248,0.543267,-0.525294,-0.384402,98.253118,-8.013557,-81.134929
35024,NaN,1.428439,9.670885,-1.379148,-0.014999,-0.055416,0.059759,0.000004,0.005041,0.002902,0.530253,0.543249,-0.525325,-0.384378,98.254795,-8.018049,-81.136523
35025,NaN,1.401952,9.689762,-1.389613,-0.012196,-0.024816,0.076054,-0.001287,0.008851,0.002882,0.530272,0.543236,-0.525341,-0.384348,98.255219,-8.022605,-81.135619
35026,NaN,1.421256,9.661492,-1.432150,0.036458,-0.039076,0.057094,0.002804,0.010899,-0.002630,0.530273,0.543250,-0.525348,-0.384317,98.257916,-8.024478,-81.133723
35027,NaN,1.413248,9.652171,-1.485493,0.088323,-0.023111,0.054431,0.002562,0.009699,-0.006774,0.530265,0.543275,-0.525343,-0.384300,98.260365,-8.023629,-81.131532
35028,NaN,1.415013,9.666752,-1.466111,0.066917,-0.026897,0.066211,0.002321,0.008499,-0.010919,0.530246,0.543308,-0.525331,-0.384296,98.263009,-8.020541,-81.129795
35029,NaN,1.394814,9.661040,-1.428937,0.028205,-0.015174,0.052506,0.004067,0.009285,-0.018131,0.530212,0.543365,-0.525299,-0.384306,98.266222,-8.013219,-81.126896
35030,NaN,1.420073,9.676450,-1.413160,0.013877,-0.041861,0.068880,0.000095,0.005316,-0.011999,0.530188,0.543389,-0.525288,-0.384319,98.267891,-8.009252,-81.126924
35031,NaN,1.413614,9.681791,-1.446763,0.044760,-0.030037,0.077995,-0.001317,0.006006,-0.015543,0.530164,0.543420,-0.525261,-0.384346,98.268311,-8.003127,-81.126118
35032,NaN,1.366499,9.695043,-1.419721,0.009179,0.011990,0.080571,-0.003541,0.007863,-0.013720,0.530156,0.543446,-0.525229,-0.384364,98.267628,-7.998347,-81.123943
35033,NaN,1.365881,9.661105,-1.424532,0.019531,0.009070,0.047911,-0.003062,0.007742,-0.006882,0.530158,0.543452,-0.525218,-0.384368,98.267011,-7.997277,-81.122863
35034,NaN,1.363116,9.646722,-1.443560,0.040080,0.013529,0.036140,-0.004809,0.004435,-0.001121,0.530168,0.543437,-0.525226,-0.384364,98.266127,-7.999329,-81.123542
35035,NaN,1.387298,9.647542,-1.446628,0.046795,-0.009056,0.040744,-0.005623,0.000559,0.001345,0.530174,0.543401,-0.525251,-0.384372,98.264711,-8.002330,-81.127259
35036,NaN,1.411603,9.648340,-1.449722,0.053463,-0.031614,0.045351,-0.005384,-0.003283,0.002588,0.530172,0.543356,-0.525291,-0.384384,98.263981,-8.005914,-81.133119
35037,NaN,1.393181,9.642464,-1.411783,0.014761,-0.019876,0.031630,-0.007369,-0.000227,0.008556,0.530195,0.543295,-0.525334,-0.384379,98.261710,-8.012940,-81.137886
35038,NaN,1.437017,9.649047,-1.452319,0.059751,-0.053857,0.049964,-0.000813,0.003688,0.006818,0.530207,0.543266,-0.525375,-0.384348,98.263138,-8.019476,-81.139953
35039,NaN,1.423781,9.672066,-1.375677,-0.020933,-0.050346,0.059775,-0.004210,0.004913,0.007791,0.530233,0.543225,-0.525409,-0.384323,98.262259,-8.026491,-81.141713
35040,NaN,1.421725,9.691645,-1.389632,-0.011092,-0.042617,0.080665,0.000002,0.007564,0.004353,0.530247,0.543209,-0.525437,-0.384288,98.263825,-8.031997,-81.141910
35041,NaN,1.438565,9.683001,-1.446415,0.047857,-0.049604,0.082632,0.000935,0.006996,0.001058,0.530252,0.543204,-0.525457,-0.384262,98.265650,-8.035367,-81.141917
35042,NaN,1.443658,9.677867,-1.412669,0.016187,-0.060730,0.073512,0.001511,0.009673,-0.005552,0.530249,0.543222,-0.525455,-0.384243,98.267721,-8.035433,-81.139979
35043,NaN,1.440500,9.663445,-1.432418,0.036808,-0.056297,0.061749,0.007592,0.016233,-0.012677,0.530234,0.543288,-0.525426,-0.384211,98.272460,-8.031776,-81.133555
35044,NaN,1.415433,9.662789,-1.429164,0.029323,-0.033018,0.057140,0.002564,0.004663,-0.009676,0.530203,0.543305,-0.525434,-0.384218,98.275509,-8.029185,-81.135252
35045,NaN,1.408730,9.702206,-1.457890,0.049480,-0.017952,0.098921,0.004075,0.009296,-0.018131,0.530168,0.543363,-0.525401,-0.384228,98.278726,-8.021864,-81.132345
35046,NaN,1.388146,9.696528,-1.420695,0.010747,-0.006138,0.085183,0.001731,0.010555,-0.018383,0.530138,0.543410,-0.525369,-0.384247,98.280684,-8.014855,-81.130225
35047,NaN,1.406155,9.668475,-1.463271,0.059432,-0.020523,0.066274,0.000339,0.004001,-0.009306,0.530117,0.543425,-0.525368,-0.384258,98.282286,-8.012102,-81.131085
35048,NaN,1.332690,9.666377,-1.452360,0.037833,0.048561,0.052426,-0.002243,0.004059,-0.013702,0.530093,0.543444,-0.525352,-0.384286,98.282651,-8.007080,-81.131781
35049,NaN,1.382436,9.682584,-1.439635,0.030583,-0.001036,0.073423,-0.005165,0.002638,-0.007342,0.530087,0.543436,-0.525349,-0.384310,98.281231,-8.005328,-81.133585
35050,NaN,1.382303,9.648595,-1.444385,0.040907,-0.003981,0.040774,-0.004689,-0.000008,-0.001952,0.530086,0.543418,-0.525362,-0.384317,98.280616,-8.006491,-81.135907
35051,NaN,1.432782,9.664720,-1.431556,0.033647,-0.053577,0.061776,-0.005860,-0.000641,-0.002803,0.530082,0.543390,-0.525379,-0.384340,98.279112,-8.007041,-81.139966
35052,NaN,1.387057,9.643654,-1.409682,0.008865,-0.014779,0.031646,-0.003517,0.000624,-0.001102,0.530079,0.543369,-0.525401,-0.384345,98.279115,-8.008831,-81.143068
35053,NaN,1.383997,9.697454,-1.418419,0.008017,-0.003802,0.085186,-0.001292,0.003811,-0.000022,0.530079,0.543354,-0.525422,-0.384336,98.279905,-8.011325,-81.144810
35054,NaN,1.384170,9.697453,-1.418262,0.007591,-0.003458,0.085187,-0.001054,0.002488,0.002673,0.530081,0.543333,-0.525454,-0.384319,98.281287,-8.015397,-81.147123
35055,NaN,1.360481,9.696621,-1.414717,0.000175,0.019780,0.080563,0.002581,0.002463,0.005848,0.530079,0.543311,-0.525502,-0.384288,98.284472,-8.021108,-81.150126
35056,NaN,1.404527,9.669050,-1.461032,0.055843,-0.017509,0.066301,0.000594,-0.002047,0.007462,0.530069,0.543266,-0.525570,-0.384273,98.287226,-8.027654,-81.156961
35057,NaN,1.408011,9.649283,-1.446934,0.045215,-0.024559,0.045412,0.002699,0.003062,0.007920,0.530071,0.543240,-0.525622,-0.384235,98.290457,-8.034590,-81.159795
35058,NaN,1.435247,9.664409,-1.431184,0.030835,-0.051209,0.061798,0.001409,0.001831,0.004996,0.530069,0.543217,-0.525667,-0.384208,98.293270,-8.039947,-81.162866
35059,NaN,1.457464,9.650598,-1.454265,0.058510,-0.069720,0.054675,-0.000002,0.007565,0.004352,0.530084,0.543202,-0.525693,-0.384174,98.294551,-8.045232,-81.162825
35060,NaN,1.433168,9.683926,-1.445579,0.040292,-0.043164,0.082695,0.005147,0.007131,-0.003829,0.530068,0.543221,-0.525709,-0.384147,98.299042,-8.046041,-81.162400
35061,NaN,1.408483,9.717288,-1.437049,0.022133,-0.016631,0.110712,0.002922,0.006466,-0.003459,0.530057,0.543232,-0.525722,-0.384129,98.301995,-8.046806,-81.162337
35062,NaN,1.362996,9.696105,-1.415828,-0.002633,0.022160,0.080557,0.001528,-0.002613,0.004168,0.530042,0.543207,-0.525774,-0.384113,98.305345,-8.051248,-81.167199
35063,NaN,1.328564,9.705604,-1.479907,0.052497,0.068292,0.094206,0.001054,-0.002489,-0.002672,0.530015,0.543194,-0.525809,-0.384122,98.307956,-8.051717,-81.172329
35064,NaN,1.358121,9.667069,-1.455176,0.038607,0.030970,0.057055,0.001648,-0.007057,0.003339,0.529987,0.543162,-0.525871,-0.384121,98.311588,-8.055345,-81.179733
35065,NaN,1.404569,9.619896,-1.487213,0.084068,-0.013772,0.021933,-0.000578,-0.005200,0.005161,0.529972,0.543119,-0.525931,-0.384121,98.313574,-8.060031,-81.187071
35066,NaN,1.431379,9.669225,-1.465832,0.058891,-0.037103,0.070964,-0.005148,-0.002087,0.006731,0.529977,0.543062,-0.525984,-0.384121,98.313103,-8.066103,-81.193442
35067,NaN,1.381283,9.653191,-1.477816,0.065476,0.013117,0.049945,-0.002803,-0.003343,0.006982,0.529976,0.543012,-0.526040,-0.384117,98.313687,-8.071974,-81.199869
35068,NaN,1.389864,9.628337,-1.429659,0.023512,-0.005366,0.019908,-0.000697,0.001766,0.007440,0.529984,0.542981,-0.526086,-0.384086,98.315511,-8.078633,-81.202635
35069,NaN,1.467977,9.693534,-1.396121,-0.008566,-0.078610,0.089962,-0.000103,-0.000279,0.014901,0.529999,0.542922,-0.526161,-0.384046,98.317491,-8.089248,-81.207970
35070,NaN,1.343834,9.660600,-1.417314,-0.002089,0.044446,0.043269,0.002242,-0.001535,0.015152,0.530005,0.542868,-0.526245,-0.383999,98.321254,-8.100081,-81.213960
35071,NaN,1.441760,9.663295,-1.432162,0.025632,-0.046899,0.061834,0.007865,-0.002095,0.013809,0.529991,0.542830,-0.526337,-0.383946,98.327936,-8.109926,-81.220246
35072,NaN,1.443059,9.663020,-1.432708,0.025198,-0.046540,0.061837,0.003177,0.000421,0.013307,0.529993,0.542783,-0.526417,-0.383900,98.332050,-8.119953,-81.225827
35073,NaN,1.468296,9.663526,-1.436725,0.031845,-0.069135,0.066483,0.006219,0.002440,0.009020,0.529986,0.542762,-0.526481,-0.383851,98.337366,-8.127458,-81.229116
35074,NaN,1.485885,9.620590,-1.499242,0.101462,-0.079547,0.035902,0.004691,0.007575,0.006303,0.529991,0.542755,-0.526523,-0.383797,98.341784,-8.134035,-81.229344
35075,NaN,1.445492,9.662455,-1.434065,0.024007,-0.045550,0.061844,0.008551,0.015992,0.001000,0.529999,0.542787,-0.526533,-0.383727,98.347245,-8.138119,-81.224201
35076,NaN,1.418697,9.681289,-1.445146,0.026825,-0.014886,0.078095,0.004679,0.017340,-0.004869,0.530005,0.542821,-0.526525,-0.383682,98.350548,-8.139312,-81.219120
35077,NaN,1.421059,9.695760,-1.425901,0.005436,-0.018611,0.089837,0.005034,0.014097,-0.001553,0.530012,0.542847,-0.526527,-0.383633,98.354117,-8.141793,-81.214848
35078,NaN,1.415990,9.666721,-1.465375,0.047035,-0.010160,0.066357,0.009249,0.014226,-0.006439,0.529995,0.542894,-0.526529,-0.383586,98.360402,-8.141765,-81.210828
35079,NaN,1.444780,9.662323,-1.435672,0.022401,-0.044177,0.061854,0.004679,0.012297,-0.007771,0.529987,0.542932,-0.526518,-0.383559,98.363839,-8.140572,-81.207063
35080,NaN,1.414930,9.632663,-1.471418,0.057010,-0.012815,0.033727,0.004679,0.004727,-0.012120,0.529948,0.542966,-0.526519,-0.383563,98.368139,-8.136522,-81.207758
35081,NaN,1.459260,9.653883,-1.493255,0.080899,-0.050963,0.063930,0.006551,0.008638,-0.015808,0.529910,0.543023,-0.526499,-0.383563,98.372850,-8.130468,-81.205411
35082,NaN,1.465733,9.629278,-1.445647,0.038957,-0.069400,0.033882,0.005261,0.012453,-0.015833,0.529884,0.543084,-0.526469,-0.383554,98.376757,-8.124936,-81.200974
35083,NaN,1.389165,9.646829,-1.449588,0.027834,0.007058,0.040818,0.005262,0.009931,-0.017283,0.529849,0.543144,-0.526440,-0.383557,98.380607,-8.118154,-81.197762
35084,NaN,1.404185,9.672424,-1.501698,0.075920,0.003274,0.075530,0.008896,0.012434,-0.012659,0.529817,0.543203,-0.526429,-0.383532,98.386751,-8.114459,-81.194259
35085,NaN,1.410815,9.681893,-1.448811,0.023252,-0.011847,0.078108,0.002217,0.012960,-0.010099,0.529813,0.543242,-0.526405,-0.383516,98.388697,-8.112003,-81.189918
35086,NaN,1.388691,9.661562,-1.431371,0.005586,0.004053,0.052555,0.009250,0.011715,-0.007891,0.529790,0.543292,-0.526406,-0.383476,98.395082,-8.110900,-81.186506
35087,NaN,1.388344,9.661549,-1.431796,0.005218,0.004376,0.052555,0.002806,0.010917,-0.002637,0.529793,0.543309,-0.526409,-0.383444,98.397620,-8.112504,-81.183965
35088,NaN,1.410030,9.647776,-1.454996,0.032814,-0.014185,0.045482,0.003977,0.011552,-0.001786,0.529798,0.543333,-0.526411,-0.383399,98.401100,-8.114747,-81.180096
35089,NaN,1.388435,9.661486,-1.432128,0.004427,0.005032,0.052555,0.002105,0.007639,0.001904,0.529803,0.543330,-0.526433,-0.383366,98.403555,-8.118650,-81.179816
35090,NaN,1.407767,9.667273,-1.469649,0.042287,-0.006128,0.066382,0.004449,0.006383,0.002157,0.529796,0.543327,-0.526469,-0.383330,98.407633,-8.122857,-81.180909
35091,NaN,1.434435,9.682484,-1.453956,0.027875,-0.032754,0.082778,0.002108,0.002591,-0.000994,0.529782,0.543322,-0.526497,-0.383318,98.410465,-8.124695,-81.183275
35092,NaN,1.437307,9.662796,-1.439982,0.017214,-0.039764,0.061883,0.005621,0.007017,0.003008,0.529776,0.543320,-0.526537,-0.383276,98.415209,-8.129450,-81.184244
35093,NaN,1.403003,9.672179,-1.504375,0.072413,0.006270,0.075555,0.005035,0.009062,-0.004456,0.529764,0.543344,-0.526544,-0.383248,98.419152,-8.129867,-81.182611
35094,NaN,1.431890,9.667859,-1.474315,0.047697,-0.027708,0.071056,0.000584,0.005203,-0.005165,0.529754,0.543354,-0.526550,-0.383239,98.421133,-8.129710,-81.182576
35095,NaN,1.380459,9.686031,-1.481500,0.043610,0.025836,0.082621,-0.000351,0.000721,-0.004769,0.529735,0.543349,-0.526568,-0.383249,98.422662,-8.129251,-81.185692
35096,NaN,1.385362,9.646870,-1.452950,0.022712,0.011446,0.040827,-0.000113,-0.005651,-0.004969,0.529696,0.543330,-0.526607,-0.383276,98.425044,-8.128393,-81.192909
35097,NaN,1.411786,9.628077,-1.442189,0.019077,-0.018532,0.024599,-0.002104,-0.007640,-0.001903,0.529665,0.543296,-0.526651,-0.383306,98.426280,-8.128856,-81.201056
35098,NaN,1.408636,9.681864,-1.451121,0.018116,-0.007447,0.078123,-0.003043,-0.007072,0.001390,0.529644,0.543253,-0.526703,-0.383325,98.427217,-8.131427,-81.209079
35099,NaN,1.384782,9.681067,-1.447565,0.010773,0.015802,0.073452,0.000707,-0.006492,0.006640,0.529624,0.543207,-0.526773,-0.383321,98.430074,-8.136828,-81.217293
35100,NaN,1.404383,9.686800,-1.485163,0.048592,0.004609,0.087298,0.003986,-0.003267,0.006497,0.529602,0.543174,-0.526844,-0.383300,98.434892,-8.142638,-81.224043
35101,NaN,1.410410,9.681548,-1.451507,0.016943,-0.006449,0.078125,-0.002461,-0.001541,0.013200,0.529616,0.543112,-0.526913,-0.383274,98.435613,-8.152172,-81.229981
35102,NaN,1.435846,9.682119,-1.454992,0.023513,-0.029028,0.082801,0.000120,-0.006644,0.014701,0.529615,0.543045,-0.527003,-0.383247,98.438387,-8.162294,-81.238423
35103,NaN,1.442587,9.642686,-1.426431,0.002657,-0.043454,0.041006,-0.001288,-0.000905,0.014051,0.529630,0.542984,-0.527075,-0.383213,98.439740,-8.172363,-81.244070
35104,NaN,1.465619,9.628729,-1.449416,0.030242,-0.062016,0.033962,-0.000115,-0.002795,0.013453,0.529633,0.542920,-0.527158,-0.383186,98.442151,-8.182218,-81.251678
35105,NaN,1.469171,9.643049,-1.430064,0.008830,-0.065694,0.045687,0.001994,-0.002730,0.011010,0.529628,0.542873,-0.527233,-0.383157,98.445499,-8.190410,-81.258112
35106,NaN,1.395124,9.660261,-1.433894,-0.002237,0.010824,0.052552,0.000940,-0.002761,0.012231,0.529626,0.542817,-0.527314,-0.383128,98.448526,-8.199548,-81.265328
35107,NaN,1.369153,9.713109,-1.439438,-0.010123,0.044830,0.101390,-0.002223,-0.007907,0.012998,0.529623,0.542743,-0.527399,-0.383119,98.449907,-8.208430,-81.274896
35108,NaN,1.411341,9.670867,-1.505014,0.066481,0.011317,0.075592,0.000239,-0.011086,0.013874,0.529601,0.542662,-0.527509,-0.383113,98.453340,-8.217836,-81.287637
35109,NaN,1.342822,9.683004,-1.474708,0.024201,0.076433,0.073266,-0.008078,-0.018311,0.021369,0.529603,0.542531,-0.527633,-0.383125,98.452324,-8.230586,-81.303877
35110,NaN,1.390672,9.635623,-1.506151,0.069511,0.031528,0.038295,-0.005498,-0.025934,0.021418,0.529573,0.542389,-0.527789,-0.383152,98.453862,-8.242959,-81.325271
35111,NaN,1.392724,9.635432,-1.505478,0.069144,0.031847,0.038297,-0.017093,-0.033846,0.030503,0.529575,0.542180,-0.527962,-0.383206,98.449077,-8.259577,-81.351186
35112,NaN,1.298409,9.666518,-1.484979,0.030118,0.127292,0.052174,-0.015213,-0.047258,0.033637,0.529544,0.541945,-0.528181,-0.383279,98.446794,-8.276983,-81.384424
35113,NaN,1.368623,9.673469,-1.528744,0.081890,0.070182,0.075414,-0.014145,-0.056964,0.043580,0.529502,0.541665,-0.528457,-0.383353,98.445784,-8.299069,-81.424692
35114,NaN,1.428317,9.649684,-1.487234,0.053807,0.005943,0.054705,-0.017061,-0.060872,0.048479,0.529462,0.541352,-0.528759,-0.383435,98.443994,-8.323881,-81.468914
35115,NaN,1.526093,9.637465,-1.520475,0.102267,-0.081480,0.061747,-0.014123,-0.051870,0.046460,0.529439,0.541074,-0.529028,-0.383488,98.442643,-8.348030,-81.506513
35116,NaN,1.540437,9.592495,-1.457851,0.050053,-0.107227,0.010765,-0.007897,-0.037143,0.045751,0.529431,0.540837,-0.529277,-0.383489,98.444044,-8.373296,-81.536903
35117,NaN,1.519750,9.625407,-1.448835,0.031926,-0.080577,0.038694,-0.004499,-0.021054,0.037961,0.529447,0.540666,-0.529461,-0.383455,98.445560,-8.395221,-81.556130
35118,NaN,1.491009,9.580793,-1.503895,0.087687,-0.045361,-0.001130,0.002046,-0.024714,0.031867,0.529418,0.540515,-0.529659,-0.383434,98.451451,-8.413683,-81.578381
35119,NaN,1.455156,9.636898,-1.419963,-0.010760,-0.015066,0.036335,0.016429,-0.030813,0.022602,0.529322,0.540421,-0.529867,-0.383412,98.465597,-8.426076,-81.601898
35120,NaN,1.459435,9.616669,-1.408061,-0.021428,-0.022080,0.015433,0.021335,-0.042206,0.021433,0.529178,0.540318,-0.530116,-0.383411,98.483826,-8.437092,-81.632591
35121,NaN,1.591731,9.643039,-1.356684,-0.060518,-0.155698,0.053137,0.027060,-0.049728,0.017798,0.528994,0.540229,-0.530381,-0.383425,98.505604,-8.445148,-81.666543
35122,NaN,1.667295,9.692950,-1.346476,-0.072050,-0.224700,0.111549,0.030450,-0.036180,0.008557,0.528815,0.540197,-0.530597,-0.383417,98.528509,-8.449321,-81.692520
35123,NaN,1.645742,9.672196,-1.332254,-0.089602,-0.208809,0.085954,0.037821,-0.013652,-0.003920,0.528656,0.540263,-0.530728,-0.383362,98.553148,-8.448114,-81.703946
35124,NaN,1.586221,9.680727,-1.396423,-0.041329,-0.139887,0.094950,0.043800,-0.000163,-0.008778,0.528502,0.540376,-0.530832,-0.383271,98.580328,-8.445625,-81.708786
35125,NaN,1.481015,9.634191,-1.444340,-0.006252,-0.035940,0.041034,0.043912,-0.004594,-0.009609,0.528339,0.540490,-0.530936,-0.383190,98.607622,-8.441961,-81.714530
35126,NaN,1.428842,9.652093,-1.455531,-0.010319,0.017658,0.052536,0.041781,-0.014728,-0.012958,0.528145,0.540585,-0.531060,-0.383152,98.634947,-8.435766,-81.726601
35127,NaN,1.443412,9.676981,-1.511520,0.037762,0.013753,0.087337,0.039187,-0.034472,-0.011971,0.527912,0.540636,-0.531227,-0.383171,98.662010,-8.428184,-81.749245
35128,NaN,1.465611,9.677289,-1.519119,0.044277,-0.008819,0.092040,0.029203,-0.047216,-0.015032,0.527663,0.540641,-0.531405,-0.383260,98.684564,-8.418028,-81.779620
35129,NaN,1.399428,9.622660,-1.626559,0.145590,0.064512,0.045016,0.025220,-0.058707,-0.013239,0.527400,0.540611,-0.531606,-0.383384,98.705630,-8.407610,-81.816021
35130,NaN,1.375942,9.670499,-1.601236,0.106356,0.087277,0.084626,0.018926,-0.058855,-0.005898,0.527162,0.540538,-0.531825,-0.383511,98.723570,-8.401646,-81.854781
35131,NaN,1.342498,9.625998,-1.658147,0.162255,0.122377,0.044812,0.011791,-0.072941,-0.001875,0.526919,0.540416,-0.532069,-0.383680,98.738268,-8.396403,-81.900321
35132,NaN,1.320301,9.605558,-1.642014,0.144691,0.138299,0.019204,0.007287,-0.079498,0.010872,0.526689,0.540226,-0.532366,-0.383850,98.751416,-8.398141,-81.952581
35133,NaN,1.489343,9.569363,-1.517226,0.050394,-0.051658,-0.010258,0.007433,-0.076347,0.014379,0.526480,0.540043,-0.532654,-0.383996,98.764112,-8.401784,-82.001502
35134,NaN,1.556557,9.569772,-1.406398,-0.051183,-0.135061,-0.016744,0.015613,-0.064724,0.007660,0.526260,0.539913,-0.532919,-0.384112,98.780873,-8.402950,-82.044966
35135,NaN,1.555879,9.637706,-1.399257,-0.073216,-0.127868,0.048466,0.028351,-0.056220,-0.000651,0.526019,0.539862,-0.533153,-0.384188,98.803677,-8.399817,-82.081040
35136,NaN,1.549270,9.676454,-1.431857,-0.053222,-0.112734,0.090275,0.037701,-0.043978,-0.006529,0.525764,0.539864,-0.533373,-0.384229,98.831217,-8.394799,-82.112239
35137,NaN,1.542393,9.680973,-1.470243,-0.022300,-0.101096,0.099483,0.045309,-0.040043,-0.009538,0.525503,0.539913,-0.533573,-0.384240,98.862265,-8.388027,-82.138260
35138,NaN,1.549178,9.621737,-1.432490,-0.053401,-0.122837,0.036773,0.051626,-0.032312,-0.012567,0.525237,0.539995,-0.533764,-0.384224,98.896371,-8.380529,-82.160793
35139,NaN,1.487970,9.664018,-1.492769,-0.015813,-0.050579,0.078362,0.054529,-0.028393,-0.017503,0.524967,0.540112,-0.533929,-0.384199,98.931618,-8.370252,-82.179425
35140,NaN,1.453610,9.653120,-1.547807,0.029224,-0.012037,0.071159,0.057826,-0.022652,-0.016232,0.524701,0.540239,-0.534097,-0.384149,98.968597,-8.361495,-82.196134
35141,NaN,1.470067,9.623841,-1.596564,0.077888,-0.026799,0.052486,0.064001,-0.018041,-0.022788,0.524423,0.540414,-0.534239,-0.384085,99.008333,-8.349130,-82.208352
35142,NaN,1.392592,9.538354,-1.620354,0.099546,0.039430,-0.038559,0.055322,-0.032043,-0.024331,0.524121,0.540533,-0.534410,-0.384093,99.044402,-8.335018,-82.230613
35143,NaN,1.392395,9.586601,-1.601826,0.067280,0.039269,0.005737,0.054764,-0.042201,-0.022056,0.523805,0.540636,-0.534599,-0.384116,99.080848,-8.320870,-82.256697
35144,NaN,1.502415,9.608218,-1.517273,-0.010300,-0.082540,0.029584,0.057103,-0.048454,-0.024719,0.523452,0.540726,-0.534817,-0.384167,99.119266,-8.305078,-82.288838
35145,NaN,1.541893,9.613826,-1.565133,0.034405,-0.116810,0.048241,0.060268,-0.043310,-0.025531,0.523110,0.540850,-0.535011,-0.384188,99.158894,-8.288830,-82.315215
35146,NaN,1.436563,9.683869,-1.579658,0.016066,-0.006473,0.103766,0.057437,-0.031900,-0.026836,0.522801,0.540986,-0.535173,-0.384192,99.196159,-8.273172,-82.336157
35147,NaN,1.433698,9.717478,-1.580752,0.004858,-0.002693,0.136364,0.057602,-0.023721,-0.020448,0.522529,0.541127,-0.535324,-0.384154,99.232701,-8.261562,-82.351787
35148,NaN,1.431820,9.614268,-1.601442,0.036992,-0.012676,0.038574,0.062068,-0.019852,-0.019799,0.522248,0.541270,-0.535491,-0.384102,99.271596,-8.251112,-82.368211
35149,NaN,1.453523,9.614212,-1.611786,0.043508,-0.035302,0.043301,0.066142,-0.015294,-0.023917,0.521968,0.541459,-0.535626,-0.384027,99.312284,-8.238299,-82.378685
35150,NaN,1.534567,9.640213,-1.557772,-0.009741,-0.122863,0.071647,0.064064,-0.012813,-0.020023,0.521703,0.541628,-0.535772,-0.383944,99.351942,-8.228245,-82.389739
35151,NaN,1.505135,9.692531,-1.569811,-0.017605,-0.088759,0.120424,0.065162,0.005025,-0.026082,0.521476,0.541859,-0.535846,-0.383823,99.390374,-8.216090,-82.388385
35152,NaN,1.422404,9.645569,-1.622095,0.024572,-0.007841,0.071176,0.067536,0.008846,-0.022978,0.521253,0.542087,-0.535935,-0.383681,99.430208,-8.206373,-82.386897
35153,NaN,1.393353,9.697724,-1.634294,0.016718,0.026265,0.119947,0.067682,0.011998,-0.019480,0.521051,0.542320,-0.536014,-0.383516,99.469603,-8.198607,-82.382172
35154,NaN,1.407538,9.687367,-1.697657,0.075545,0.018876,0.122211,0.069002,0.013276,-0.016585,0.520845,0.542537,-0.536116,-0.383346,99.510002,-8.193035,-82.379912
35155,NaN,1.465973,9.610202,-1.653650,0.048002,-0.056187,0.048051,0.064302,0.015762,-0.017064,0.520666,0.542761,-0.536186,-0.383173,99.547187,-8.186997,-82.373259
35156,NaN,1.545360,9.553261,-1.627789,0.037534,-0.146733,-0.000466,0.068545,0.036210,-0.025418,0.520505,0.543037,-0.536208,-0.382971,99.584967,-8.178752,-82.358053
35157,NaN,1.484225,9.560268,-1.693479,0.086058,-0.077998,0.008516,0.068686,0.036854,-0.023362,0.520359,0.543331,-0.536213,-0.382746,99.622866,-8.171182,-82.338747
35158,NaN,1.385416,9.659427,-1.669784,0.025626,0.024599,0.087354,0.065577,0.047023,-0.028846,0.520230,0.543639,-0.536185,-0.382523,99.658451,-8.161882,-82.315450
35159,NaN,1.405328,9.610312,-1.703118,0.064057,0.002372,0.047817,0.063201,0.035530,-0.021356,0.520099,0.543910,-0.536189,-0.382310,99.693346,-8.155341,-82.297086
35160,NaN,1.373718,9.647574,-1.734068,0.077275,0.040441,0.084896,0.064123,0.032446,-0.026097,0.519940,0.544176,-0.536204,-0.382126,99.729023,-8.146259,-82.282695
35161,NaN,1.430961,9.639326,-1.679864,0.027999,-0.027653,0.075924,0.060721,0.028622,-0.027976,0.519785,0.544445,-0.536203,-0.381956,99.762968,-8.135333,-82.267617
35162,NaN,1.522166,9.626657,-1.719944,0.076101,-0.115177,0.083204,0.061139,0.033157,-0.035261,0.519618,0.544726,-0.536187,-0.381804,99.796713,-8.121214,-82.252355
35163,NaN,1.572877,9.588987,-1.703770,0.068972,-0.175506,0.050876,0.063951,0.051749,-0.048643,0.519476,0.545103,-0.536076,-0.381616,99.830367,-8.100895,-82.222037
35164,NaN,1.475083,9.600761,-1.674483,0.020104,-0.087196,0.043599,0.065050,0.067104,-0.056231,0.519348,0.545514,-0.535924,-0.381416,99.863373,-8.078291,-82.185606
35165,NaN,1.437857,9.657730,-1.719656,0.043574,-0.041823,0.101583,0.060228,0.068983,-0.058802,0.519243,0.545941,-0.535732,-0.381217,99.893394,-8.053966,-82.144435
35166,NaN,1.406575,9.641849,-1.739901,0.057440,-0.014607,0.085163,0.062348,0.069100,-0.061288,0.519117,0.546361,-0.535557,-0.381033,99.924605,-8.028775,-82.106602
35167,NaN,1.377741,9.640919,-1.740891,0.050238,0.008654,0.080421,0.055933,0.060752,-0.060261,0.518998,0.546764,-0.535375,-0.380872,99.952832,-8.002856,-82.069956
35168,NaN,1.324726,9.639301,-1.737584,0.036193,0.054938,0.070930,0.049261,0.056206,-0.060513,0.518878,0.547128,-0.535206,-0.380752,99.977624,-7.976790,-82.038635
35169,NaN,1.295505,9.672695,-1.733375,0.018138,0.081705,0.098768,0.046757,0.044072,-0.055045,0.518749,0.547461,-0.535063,-0.380648,100.002012,-7.952189,-82.011998
35170,NaN,1.358433,9.644970,-1.786773,0.080469,0.020953,0.089658,0.044915,0.040215,-0.051307,0.518616,0.547759,-0.534951,-0.380560,100.025587,-7.929735,-81.990518
35171,NaN,1.392206,9.617907,-1.711945,0.014078,-0.031520,0.055035,0.046093,0.043428,-0.049061,0.518499,0.548073,-0.534825,-0.380443,100.049747,-7.908468,-81.964833
35172,NaN,1.412233,9.618690,-1.719153,0.020529,-0.054065,0.059787,0.038906,0.046487,-0.051883,0.518391,0.548358,-0.534694,-0.380363,100.069491,-7.886510,-81.941877
35173,NaN,1.413593,9.614507,-1.688462,-0.011154,-0.064979,0.050555,0.041130,0.052269,-0.049448,0.518311,0.548677,-0.534535,-0.380237,100.090129,-7.865930,-81.911105
35174,NaN,1.356153,9.617051,-1.718002,0.006163,-0.007462,0.050287,0.039037,0.049695,-0.048418,0.518223,0.548968,-0.534396,-0.380131,100.109681,-7.846122,-81.884742
35175,NaN,1.274059,9.652940,-1.739547,0.005795,0.076448,0.077845,0.040102,0.049759,-0.049661,0.518138,0.549281,-0.534240,-0.380014,100.129941,-7.825191,-81.855366
35176,NaN,1.368609,9.705567,-1.734154,0.000773,-0.015303,0.141115,0.039173,0.050371,-0.046374,0.518055,0.549563,-0.534108,-0.379905,100.149452,-7.806679,-81.829592
35177,NaN,1.400718,9.629618,-1.681725,-0.033681,-0.067417,0.062234,0.037761,0.051029,-0.049936,0.517979,0.549873,-0.533944,-0.379792,100.168288,-7.785742,-81.799455
35178,NaN,1.365384,9.583705,-1.737848,0.022454,-0.032525,0.022465,0.030716,0.049630,-0.053543,0.517901,0.550148,-0.533781,-0.379728,100.182923,-7.763183,-81.773882
35179,NaN,1.300372,9.541034,-1.824008,0.103089,0.036420,-0.012822,0.033111,0.043377,-0.056137,0.517805,0.550447,-0.533611,-0.379664,100.199619,-7.737990,-81.747456
35180,NaN,1.291532,9.628896,-1.832754,0.091175,0.051172,0.073249,0.028017,0.031158,-0.055013,0.517693,0.550707,-0.533467,-0.379642,100.214563,-7.712395,-81.728052
35181,NaN,1.259345,9.681655,-1.841589,0.083364,0.085330,0.121980,0.019459,0.027704,-0.048656,0.517608,0.550922,-0.533331,-0.379639,100.224755,-7.689840,-81.711302
35182,NaN,1.235337,9.593357,-1.832808,0.087686,0.094187,0.031153,0.011076,0.014724,-0.045898,0.517516,0.551082,-0.533222,-0.379684,100.231384,-7.667716,-81.702178
35183,NaN,1.255523,9.594693,-1.836974,0.094137,0.071529,0.035915,0.002661,0.006806,-0.040303,0.517436,0.551191,-0.533132,-0.379761,100.233662,-7.647748,-81.698171
35184,NaN,1.328915,9.628125,-1.809939,0.071947,-0.004681,0.073539,0.001979,0.003567,-0.035706,0.517359,0.551280,-0.533063,-0.379835,100.236069,-7.630233,-81.696440
35185,NaN,1.324027,9.579213,-1.833318,0.103566,-0.004087,0.029299,0.000922,0.003531,-0.034477,0.517287,0.551362,-0.532994,-0.379910,100.237680,-7.613216,-81.694894
35186,NaN,1.349985,9.576559,-1.803135,0.078640,-0.037914,0.024823,0.000829,0.000383,-0.037964,0.517200,0.551448,-0.532925,-0.380002,100.239640,-7.594104,-81.694741
35187,NaN,1.416388,9.646307,-1.647569,-0.076294,-0.125045,0.074194,0.003858,0.004963,-0.040895,0.517111,0.551558,-0.532840,-0.380082,100.242740,-7.573614,-81.691720
35188,NaN,1.350550,9.672189,-1.723212,-0.017415,-0.049037,0.104065,0.004675,0.006307,-0.044849,0.517016,0.551683,-0.532743,-0.380165,100.246365,-7.551226,-81.687487
35189,NaN,1.349627,9.653475,-1.708962,-0.028001,-0.056094,0.083155,0.009474,0.009586,-0.039438,0.516927,0.551812,-0.532661,-0.380214,100.252359,-7.532030,-81.681984
35190,NaN,1.289329,9.675090,-1.751173,-0.000437,0.008718,0.103777,0.009232,0.010888,-0.042161,0.516836,0.551950,-0.532569,-0.380265,100.258292,-7.511625,-81.675418
35191,NaN,1.312440,9.657351,-1.740671,-0.004228,-0.021302,0.087635,0.007953,0.009615,-0.045070,0.516741,0.552091,-0.532468,-0.380332,100.263340,-7.489258,-81.669315
35192,NaN,1.332507,9.658838,-1.744736,0.002161,-0.043927,0.092407,0.003607,0.008827,-0.042215,0.516660,0.552211,-0.532370,-0.380404,100.266205,-7.468613,-81.663913
35193,NaN,1.297680,9.612986,-1.798597,0.058334,-0.009213,0.052653,0.004959,0.002520,-0.043564,0.516557,0.552326,-0.532286,-0.380495,100.270086,-7.446371,-81.661998
35194,NaN,1.287370,9.651828,-1.828394,0.078455,0.005895,0.094478,-0.001069,0.006188,-0.045570,0.516471,0.552423,-0.532189,-0.380608,100.269948,-7.423772,-81.660340
35195,NaN,1.342519,9.612241,-1.771791,0.039889,-0.065637,0.052954,-0.001981,0.017066,-0.051554,0.516410,0.552569,-0.532032,-0.380698,100.268681,-7.398511,-81.649331
35196,NaN,1.299255,9.637013,-1.692250,-0.047563,-0.038130,0.057474,0.001019,0.024198,-0.053073,0.516352,0.552727,-0.531870,-0.380773,100.268416,-7.373503,-81.636408
35197,NaN,1.313371,9.642852,-1.729230,-0.009812,-0.049611,0.071502,-0.004110,0.032365,-0.055551,0.516330,0.552907,-0.531659,-0.380837,100.264772,-7.347550,-81.616293
35198,NaN,1.280219,9.612263,-1.763259,0.025263,-0.018677,0.043410,0.002963,0.031305,-0.053367,0.516284,0.553087,-0.531480,-0.380886,100.265305,-7.323049,-81.598995
35199,NaN,1.198133,9.613653,-1.786012,0.035918,0.061687,0.038332,-0.003179,0.021520,-0.049582,0.516242,0.553233,-0.531315,-0.380962,100.263075,-7.299354,-81.585662
35200,NaN,1.162661,9.685672,-1.807508,0.038365,0.103307,0.107946,-0.000160,0.013282,-0.044648,0.516177,0.553349,-0.531198,-0.381045,100.263085,-7.277904,-81.578878
35201,NaN,1.176904,9.725594,-1.840347,0.065226,0.095380,0.154549,-0.006116,0.007247,-0.035301,0.516132,0.553422,-0.531103,-0.381131,100.260394,-7.260803,-81.575129
35202,NaN,1.145670,9.694798,-1.873745,0.100310,0.126295,0.126456,-0.015636,0.004275,-0.025633,0.516119,0.553429,-0.531036,-0.381232,100.252691,-7.249196,-81.576100
35203,NaN,1.169787,9.628003,-1.884002,0.128515,0.096488,0.066102,-0.019804,0.007226,-0.017219,0.516146,0.553419,-0.530966,-0.381308,100.242395,-7.242287,-81.574226
35204,NaN,1.171588,9.609449,-1.866964,0.117958,0.089474,0.045191,-0.024943,0.002531,-0.011826,0.516182,0.553363,-0.530921,-0.381403,100.229460,-7.238260,-81.577138
35205,NaN,1.280681,9.587376,-1.796191,0.071764,-0.031766,0.024897,-0.026927,0.000518,-0.008712,0.516228,0.553299,-0.530877,-0.381494,100.215673,-7.235465,-81.579952
35206,NaN,1.363670,9.549044,-1.740833,0.039899,-0.126210,-0.011829,-0.026926,0.000521,-0.008713,0.516273,0.553231,-0.530838,-0.381587,100.201921,-7.232895,-81.583409
35207,NaN,1.286086,9.599624,-1.738089,0.018587,-0.046063,0.027296,-0.026969,-0.005150,-0.013624,0.516294,0.553169,-0.530796,-0.381707,100.188452,-7.226757,-81.588943
35208,NaN,1.285830,9.649590,-1.712255,-0.013821,-0.045915,0.071515,-0.026694,-0.008980,-0.012323,0.516304,0.553092,-0.530774,-0.381836,100.175588,-7.221247,-81.597890
35209,NaN,1.253032,9.638043,-1.759190,0.031523,-0.007711,0.064339,-0.026555,-0.010892,-0.011673,0.516312,0.553015,-0.530753,-0.381965,100.162791,-7.215631,-81.606891
35210,NaN,1.186695,9.646123,-1.693258,-0.041582,0.046607,0.052360,-0.022715,-0.017791,-0.010695,0.516293,0.552930,-0.530763,-0.382101,100.152871,-7.210091,-81.620307
35211,NaN,1.264144,9.648517,-1.826214,0.100205,-0.007747,0.087661,-0.026789,-0.022437,-0.006540,0.516281,0.552817,-0.530785,-0.382250,100.140828,-7.206208,-81.636395
35212,NaN,1.328168,9.604799,-1.734085,0.030188,-0.090366,0.036890,-0.020889,-0.024175,-0.005186,0.516250,0.552711,-0.530829,-0.382383,100.132537,-7.203118,-81.653873
35213,NaN,1.384473,9.550105,-1.695231,0.012669,-0.158092,-0.016264,-0.019945,-0.011873,-0.016346,0.516229,0.552661,-0.530810,-0.382510,100.123535,-7.194774,-81.662960
35214,NaN,1.406565,9.551852,-1.697258,0.019013,-0.180733,-0.011465,-0.015978,-0.007830,-0.022575,0.516197,0.552648,-0.530771,-0.382628,100.116655,-7.183487,-81.668863
35215,NaN,1.351710,9.603450,-1.699474,0.004474,-0.123530,0.032429,-0.006422,0.000832,-0.027328,0.516151,0.552687,-0.530714,-0.382712,100.114357,-7.170229,-81.669615
35216,NaN,1.272351,9.653770,-1.698709,-0.016837,-0.043318,0.071522,-0.001150,0.003624,-0.032068,0.516088,0.552755,-0.530650,-0.382786,100.114984,-7.154798,-81.668614
35217,NaN,1.191940,9.654669,-1.721768,-0.006074,0.037034,0.066403,0.001706,-0.000189,-0.026369,0.516019,0.552811,-0.530615,-0.382849,100.117426,-7.141978,-81.670044
35218,NaN,1.261681,9.658556,-1.732805,0.013761,-0.031533,0.080794,0.002768,-0.000133,-0.027602,0.515944,0.552870,-0.530580,-0.382911,100.120598,-7.128684,-81.671619
35219,NaN,1.330242,9.613166,-1.767448,0.065651,-0.099974,0.050987,0.005918,0.002556,-0.029878,0.515863,0.552951,-0.530536,-0.382965,100.125215,-7.114160,-81.671131
35220,NaN,1.338886,9.571056,-1.704376,0.013477,-0.125498,-0.000109,0.003029,0.008905,-0.034160,0.515799,0.553048,-0.530459,-0.383017,100.127890,-7.098060,-81.666634
35221,NaN,1.318793,9.581171,-1.648302,-0.046086,-0.117106,-0.002534,0.011274,0.018838,-0.040406,0.515727,0.553201,-0.530354,-0.383038,100.134302,-7.079240,-81.655820
35222,NaN,1.279277,9.622703,-1.709216,-0.001440,-0.067941,0.043770,0.015801,0.015229,-0.044039,0.515626,0.553369,-0.530259,-0.383065,100.143710,-7.058213,-81.646823
35223,NaN,1.241499,9.679280,-1.751179,0.022118,-0.022565,0.101717,0.013333,0.015832,-0.046375,0.515528,0.553538,-0.530149,-0.383104,100.151444,-7.035726,-81.637106
35224,NaN,1.184928,9.646938,-1.783378,0.050519,0.031225,0.068830,0.015564,0.016562,-0.046772,0.515426,0.553715,-0.530042,-0.383135,100.160642,-7.013294,-81.626996
35225,NaN,1.231049,9.664829,-1.772717,0.042491,-0.018167,0.090079,0.014506,0.016518,-0.045544,0.515329,0.553886,-0.529934,-0.383167,100.169017,-6.991347,-81.616968
35226,NaN,1.255319,9.613080,-1.766734,0.049524,-0.051783,0.041416,0.009529,0.020236,-0.048792,0.515249,0.554060,-0.529800,-0.383208,100.174456,-6.968145,-81.604535
35227,NaN,1.240320,9.621690,-1.835073,0.111859,-0.029250,0.059973,0.007983,0.022815,-0.053015,0.515172,0.554246,-0.529643,-0.383259,100.178577,-6.942626,-81.590164
35228,NaN,1.244792,9.648358,-1.763379,0.037854,-0.047531,0.073977,0.005518,0.023420,-0.055355,0.515099,0.554434,-0.529475,-0.383318,100.181445,-6.916033,-81.575072
35229,NaN,1.055564,9.651949,-1.839972,0.084497,0.146921,0.068158,-0.002713,0.013475,-0.049111,0.515035,0.554564,-0.529332,-0.383414,100.180136,-6.891770,-81.566405
35230,NaN,1.175777,9.689370,-1.818904,0.075438,0.024899,0.115477,-0.009288,0.011923,-0.045866,0.514990,0.554665,-0.529192,-0.383521,100.175422,-6.869392,-81.559129
35231,NaN,1.103687,9.716230,-1.768766,0.012669,0.086641,0.124320,-0.014989,0.004507,-0.033790,0.514965,0.554705,-0.529092,-0.383634,100.167881,-6.852861,-81.557121
35232,NaN,1.130530,9.630574,-1.764661,0.030635,0.049389,0.043108,-0.015334,-0.005145,-0.029299,0.514925,0.554715,-0.529029,-0.383761,100.161026,-6.838075,-81.561009
35233,NaN,1.225625,9.602368,-1.781507,0.068063,-0.045829,0.029805,-0.020934,-0.001598,-0.024440,0.514918,0.554704,-0.528958,-0.383883,100.150607,-6.826199,-81.563425
35234,NaN,1.260981,9.577103,-1.700621,0.001478,-0.098043,-0.004860,-0.018075,0.004951,-0.028022,0.514914,0.554723,-0.528868,-0.383986,100.141533,-6.813153,-81.561746
35235,NaN,1.300596,9.668097,-1.712275,0.002903,-0.129060,0.090790,-0.013134,0.014146,-0.032646,0.514912,0.554784,-0.528749,-0.384064,100.134423,-6.798238,-81.554389
35236,NaN,1.229239,9.694762,-1.662045,-0.059886,-0.067262,0.099614,-0.009446,0.027730,-0.035266,0.514930,0.554887,-0.528596,-0.384100,100.128637,-6.783410,-81.539024
35237,NaN,1.139928,9.669121,-1.756374,0.024613,0.031635,0.080471,-0.004407,0.027160,-0.028522,0.514946,0.554985,-0.528472,-0.384109,100.125708,-6.772130,-81.524697
35238,NaN,1.086100,9.685974,-1.762940,0.021032,0.085288,0.091754,-0.013261,0.021738,-0.028387,0.514973,0.555049,-0.528347,-0.384153,100.118240,-6.760569,-81.513413
35239,NaN,1.156076,9.690622,-1.772496,0.040795,0.016668,0.106207,-0.003924,0.018885,-0.027994,0.514966,0.555130,-0.528246,-0.384182,100.116153,-6.748752,-81.503843
35240,NaN,1.208085,9.606225,-1.772671,0.065463,-0.043591,0.029833,-0.007986,0.014196,-0.023837,0.514967,0.555181,-0.528163,-0.384223,100.112277,-6.739008,-81.497424
35241,NaN,1.181645,9.605297,-1.768113,0.058412,-0.020311,0.025016,-0.009631,0.016174,-0.030137,0.514965,0.555248,-0.528053,-0.384280,100.107079,-6.725708,-81.489179
35242,NaN,1.127663,9.622137,-1.774660,0.054844,0.033341,0.036294,-0.011468,0.012210,-0.026370,0.514965,0.555293,-0.527961,-0.384341,100.101294,-6.714327,-81.483515
35243,NaN,1.117146,9.645875,-1.821931,0.096058,0.052097,0.066504,-0.014561,0.012628,-0.020598,0.514986,0.555315,-0.527877,-0.384396,100.093623,-6.706050,-81.478252
35244,NaN,1.114687,9.729888,-1.792444,0.052663,0.055999,0.143225,-0.018333,0.004088,-0.015138,0.515005,0.555298,-0.527823,-0.384469,100.084612,-6.700169,-81.478190
35245,NaN,1.111587,9.715348,-1.809475,0.073458,0.060025,0.131598,-0.023024,0.009606,-0.012165,0.515058,0.555271,-0.527754,-0.384533,100.072393,-6.696344,-81.475497
35246,NaN,1.115867,9.662496,-1.796460,0.073799,0.049342,0.078135,-0.028924,0.006587,0.000683,0.515144,0.555189,-0.527717,-0.384586,100.057344,-6.699648,-81.475717
35247,NaN,1.177268,9.589244,-1.741496,0.046000,-0.025772,0.004114,-0.030470,0.009172,-0.003541,0.515232,0.555119,-0.527659,-0.384649,100.040989,-6.700644,-81.474141
35248,NaN,1.242877,9.632492,-1.778394,0.086093,-0.079645,0.060437,-0.031968,0.014883,-0.004264,0.515339,0.555058,-0.527582,-0.384700,100.023575,-6.701985,-81.469188
35249,NaN,1.230303,9.589180,-1.708296,0.027284,-0.082169,0.004481,-0.030903,0.014952,-0.005499,0.515440,0.555003,-0.527502,-0.384753,100.006566,-6.702452,-81.464131
35250,NaN,1.249140,9.644657,-1.718981,0.032847,-0.093795,0.062776,-0.030464,0.019592,-0.012838,0.515539,0.554979,-0.527391,-0.384808,99.989602,-6.699409,-81.455487
35251,NaN,1.201861,9.657457,-1.689761,-0.002022,-0.051235,0.064742,-0.028238,0.020326,-0.013228,0.515632,0.554961,-0.527281,-0.384859,99.973674,-6.696045,-81.446604
35252,NaN,1.228642,9.689518,-1.652518,-0.038030,-0.081291,0.092820,-0.015469,0.032392,-0.018150,0.515712,0.555014,-0.527151,-0.384853,99.964411,-6.691268,-81.430174
35253,NaN,1.180561,9.652863,-1.648150,-0.040802,-0.038679,0.050615,-0.013532,0.036976,-0.019840,0.515796,0.555084,-0.527008,-0.384836,99.955731,-6.685820,-81.411172
35254,NaN,1.196344,9.643932,-1.702972,0.017980,-0.046554,0.053126,-0.011740,0.043489,-0.022181,0.515887,0.555178,-0.526846,-0.384800,99.947878,-6.679872,-81.388090
35255,NaN,1.174121,9.623710,-1.683270,0.000746,-0.030630,0.027374,-0.009222,0.040376,-0.021269,0.515965,0.555269,-0.526699,-0.384766,99.941431,-6.673948,-81.367016
35256,NaN,1.121229,9.640337,-1.689859,-0.002793,0.023032,0.038624,-0.006850,0.039188,-0.021007,0.516033,0.555364,-0.526561,-0.384726,99.936658,-6.668242,-81.346635
35257,NaN,1.138972,9.646340,-1.726062,0.034888,0.011423,0.052761,-0.008493,0.030762,-0.018023,0.516090,0.555430,-0.526449,-0.384708,99.931304,-6.663196,-81.331348
35258,NaN,1.134406,9.665910,-1.739536,0.044706,0.019121,0.073683,-0.011388,0.021070,-0.017963,0.516129,0.555471,-0.526357,-0.384722,99.925128,-6.657401,-81.321406
35259,NaN,1.087893,9.594933,-1.740050,0.052915,0.058046,-0.001069,-0.016902,0.003470,-0.011607,0.516150,0.555446,-0.526317,-0.384786,99.916831,-6.653279,-81.322266
35260,NaN,1.083422,9.614572,-1.753077,0.062734,0.065740,0.019852,-0.018007,0.000284,-0.013882,0.516161,0.555419,-0.526277,-0.384865,99.908298,-6.647728,-81.324507
35261,NaN,1.103417,9.635682,-1.769466,0.079259,0.050429,0.045613,-0.020728,-0.018651,-0.000379,0.516155,0.555312,-0.526318,-0.384971,99.899393,-6.647763,-81.339052
35262,NaN,1.154203,9.570629,-1.783528,0.114103,-0.002564,-0.009776,-0.020384,-0.025025,-0.000508,0.516132,0.555195,-0.526376,-0.385092,99.891330,-6.647273,-81.357067
35263,NaN,1.315129,9.582391,-1.681765,0.038502,-0.177000,0.002979,-0.016362,-0.007349,-0.012511,0.516120,0.555153,-0.526362,-0.385186,99.884044,-6.641577,-81.363988
35264,NaN,1.423785,9.610397,-1.588244,-0.040280,-0.298070,0.026974,-0.007510,0.008527,-0.021902,0.516109,0.555190,-0.526299,-0.385235,99.880879,-6.632314,-81.360750
35265,NaN,1.291962,9.577534,-1.642762,-0.000273,-0.164428,-0.011159,0.000290,0.018698,-0.034998,0.516076,0.555300,-0.526187,-0.385272,99.881166,-6.616486,-81.350644
35266,NaN,1.206332,9.631065,-1.676485,0.009960,-0.073045,0.037075,0.003106,0.022166,-0.042071,0.516032,0.555443,-0.526054,-0.385307,99.882976,-6.597193,-81.337756
35267,NaN,1.103086,9.693776,-1.654087,-0.038931,0.026574,0.082759,0.006983,0.015263,-0.041088,0.515960,0.555580,-0.525947,-0.385351,99.887259,-6.577591,-81.328999
35268,NaN,1.199402,9.730258,-1.629956,-0.055024,-0.072377,0.125370,0.007132,0.013343,-0.040441,0.515884,0.555713,-0.525849,-0.385396,99.891997,-6.558350,-81.321280
35269,NaN,1.089051,9.732824,-1.684603,-0.019271,0.041959,0.124599,0.007281,0.011423,-0.039794,0.515804,0.555840,-0.525756,-0.385447,99.896720,-6.539101,-81.314829
35270,NaN,1.063210,9.697340,-1.686200,-0.015350,0.061591,0.087215,0.005918,0.004770,-0.030576,0.515728,0.555927,-0.525705,-0.385493,99.901399,-6.524581,-81.312917
35271,NaN,1.051958,9.671759,-1.758732,0.057988,0.080286,0.073306,0.000643,0.001906,-0.025852,0.515668,0.555981,-0.525663,-0.385552,99.903093,-6.512265,-81.313254
35272,NaN,1.103056,9.621739,-1.755229,0.071665,0.023588,0.029555,-0.002944,-0.005487,-0.016248,0.515617,0.555988,-0.525660,-0.385613,99.903502,-6.504828,-81.318684
35273,NaN,1.106595,9.617766,-1.721133,0.039957,0.012858,0.020242,-0.003420,-0.013268,-0.012415,0.515555,0.555967,-0.525687,-0.385690,99.903995,-6.498600,-81.328974
35274,NaN,1.153366,9.621123,-1.727754,0.052863,-0.032784,0.029951,-0.005290,-0.020378,-0.012160,0.515480,0.555929,-0.525729,-0.385788,99.904068,-6.491977,-81.343036
35275,NaN,1.081369,9.631588,-1.698162,0.011421,0.032815,0.026997,-0.002532,-0.024833,-0.008514,0.515392,0.555878,-0.525798,-0.385885,99.905853,-6.486811,-81.360281
35276,NaN,1.097809,9.671667,-1.730998,0.038075,0.024895,0.073698,-0.004129,-0.030158,-0.002023,0.515307,0.555797,-0.525896,-0.385981,99.907346,-6.484960,-81.381069
35277,NaN,1.100563,9.701783,-1.692518,-0.004601,0.017881,0.096909,-0.004573,-0.024372,-0.003975,0.515235,0.555730,-0.525973,-0.386070,99.907982,-6.482401,-81.398502
35278,NaN,1.105010,9.697694,-1.658475,-0.036349,0.007193,0.087590,-0.004333,-0.025703,-0.001247,0.515164,0.555655,-0.526061,-0.386152,99.909054,-6.481424,-81.416768
35279,NaN,1.183582,9.664053,-1.639696,-0.037184,-0.076187,0.060317,0.004502,-0.020249,-0.001355,0.515082,0.555612,-0.526152,-0.386199,99.914654,-6.480749,-81.432119
35280,NaN,1.134735,9.660765,-1.633980,-0.050842,-0.029872,0.050599,0.015673,-0.019103,-0.004706,0.514966,0.555610,-0.526253,-0.386220,99.926730,-6.478475,-81.446398
35281,NaN,1.176792,9.667866,-1.676939,-0.006561,-0.064512,0.069640,0.024382,-0.017354,-0.010404,0.514820,0.555648,-0.526349,-0.386230,99.943431,-6.472972,-81.459204
35282,NaN,1.252755,9.668128,-1.656350,-0.018426,-0.144157,0.074904,0.031728,-0.011820,-0.016173,0.514656,0.555731,-0.526431,-0.386217,99.964138,-6.464944,-81.468266
35283,NaN,1.152400,9.646436,-1.665122,-0.024132,-0.048241,0.043857,0.037974,-0.009465,-0.024220,0.514465,0.555855,-0.526495,-0.386205,99.987963,-6.452420,-81.475208
35284,NaN,1.089559,9.685324,-1.725785,0.013987,0.023827,0.085302,0.048141,-0.010893,-0.027778,0.514235,0.556012,-0.526574,-0.386178,100.017832,-6.437948,-81.482693
35285,NaN,1.098358,9.679753,-1.820364,0.104170,0.026823,0.097214,0.034593,-0.019591,-0.033131,0.514010,0.556131,-0.526632,-0.386225,100.040259,-6.419379,-81.494477
35286,NaN,1.147764,9.580045,-1.844377,0.149970,-0.029983,0.009377,0.040873,-0.014114,-0.037679,0.513774,0.556290,-0.526677,-0.386251,100.066016,-6.398981,-81.502641
35287,NaN,1.221100,9.580567,-1.824682,0.138125,-0.109662,0.014657,0.034338,-0.007797,-0.045174,0.513557,0.556463,-0.526671,-0.386297,100.087407,-6.374792,-81.506499
35288,NaN,1.284963,9.518188,-1.723082,0.057657,-0.199433,-0.057026,0.037517,0.002872,-0.058187,0.513335,0.556700,-0.526609,-0.386336,100.109999,-6.344509,-81.502833
35289,NaN,1.258410,9.596095,-1.661610,-0.023814,-0.183336,0.005429,0.044777,0.021400,-0.071861,0.513114,0.557027,-0.526474,-0.386342,100.135241,-6.308203,-81.487398
35290,NaN,1.194647,9.665372,-1.684364,-0.028023,-0.118550,0.070067,0.056178,0.031726,-0.081824,0.512870,0.557428,-0.526308,-0.386314,100.166405,-6.267557,-81.465248
35291,NaN,1.001164,9.699950,-1.762582,0.008439,0.079433,0.096484,0.057781,0.023550,-0.082542,0.512598,0.557820,-0.526163,-0.386307,100.198864,-6.225462,-81.447468
35292,NaN,1.010586,9.739721,-1.800740,0.035064,0.071512,0.143203,0.050560,0.009880,-0.083128,0.512309,0.558169,-0.526038,-0.386356,100.228215,-6.181846,-81.437276
35293,NaN,1.051475,9.693674,-1.835952,0.080104,0.025738,0.108832,0.051387,0.006516,-0.072859,0.512029,0.558486,-0.525951,-0.386388,100.258176,-6.143494,-81.430108
35294,NaN,1.153196,9.658348,-1.790702,0.054417,-0.091623,0.077146,0.041823,0.013791,-0.072516,0.511795,0.558792,-0.525828,-0.386423,100.282363,-6.106283,-81.418796
35295,NaN,1.146566,9.609091,-1.817931,0.086228,-0.091425,0.033038,0.043969,0.030654,-0.077327,0.511590,0.559148,-0.525652,-0.386418,100.306579,-6.067890,-81.397449
35296,NaN,1.090143,9.590509,-1.833808,0.093810,-0.041487,0.011701,0.042239,0.043955,-0.073811,0.511432,0.559517,-0.525449,-0.386370,100.329228,-6.033033,-81.368709
35297,NaN,1.033725,9.670574,-1.802791,0.037105,0.008651,0.078581,0.040348,0.059188,-0.070957,0.511324,0.559902,-0.525210,-0.386279,100.349766,-6.001182,-81.331821
35298,NaN,0.795953,9.715535,-1.853256,0.039243,0.249007,0.106797,0.030609,0.046870,-0.054672,0.511243,0.560196,-0.525031,-0.386204,100.365802,-5.977451,-81.303547
35299,NaN,0.743929,9.662507,-1.871722,0.057878,0.295175,0.052926,0.016937,0.018491,-0.044046,0.511146,0.560372,-0.524927,-0.386220,100.375646,-5.956589,-81.292498
35300,NaN,0.876469,9.696293,-1.942258,0.138698,0.175904,0.112457,0.008874,-0.004615,-0.029843,0.511038,0.560445,-0.524906,-0.386283,100.382505,-5.941540,-81.295941
35301,NaN,0.988025,9.608424,-1.882406,0.113804,0.047397,0.027346,0.005309,-0.012052,-0.020185,0.510940,0.560470,-0.524924,-0.386354,100.387737,-5.930974,-81.304670
35302,NaN,1.097006,9.539665,-1.836839,0.099060,-0.073725,-0.036832,-0.003634,-0.006318,-0.010201,0.510901,0.560458,-0.524937,-0.386403,100.387770,-5.926771,-81.310789
35303,NaN,1.078389,9.549326,-1.780242,0.039566,-0.065033,-0.039458,-0.000815,0.000301,-0.013805,0.510864,0.560474,-0.524930,-0.386439,100.388837,-5.921076,-81.313181
35304,NaN,1.073340,9.617881,-1.771799,0.017203,-0.057195,0.025574,0.000347,0.004087,-0.009457,0.510842,0.560488,-0.524930,-0.386448,100.390581,-5.918438,-81.314077
35305,NaN,0.922019,9.709614,-1.738866,-0.055673,0.092338,0.093813,0.005189,0.002333,-0.006836,0.510807,0.560505,-0.524948,-0.386445,100.395044,-5.916880,-81.316041
35306,NaN,1.014592,9.735842,-1.768192,-0.019490,0.008062,0.134276,0.010356,-0.000165,0.000606,0.510766,0.560512,-0.525004,-0.386414,100.402861,-5.919429,-81.320049
35307,NaN,1.011803,9.705254,-1.807392,0.022536,0.015588,0.111103,0.013192,0.012680,0.004007,0.510757,0.560541,-0.525042,-0.386332,100.411421,-5.925052,-81.317279
35308,NaN,1.094133,9.638129,-1.793243,0.032541,-0.071560,0.051399,0.013964,0.022846,0.008455,0.510781,0.560580,-0.525068,-0.386207,100.420032,-5.934401,-81.309008
35309,NaN,1.181494,9.567110,-1.745367,0.011194,-0.169710,-0.017643,0.021587,0.038181,-0.001888,0.510804,0.560696,-0.525040,-0.386047,100.431843,-5.939347,-81.291178
35310,NaN,1.268956,9.646309,-1.786455,0.046534,-0.242862,0.076286,0.029058,0.055453,-0.012896,0.510830,0.560892,-0.524953,-0.385846,100.446925,-5.940086,-81.262404
35311,NaN,1.199463,9.621549,-1.763313,0.016240,-0.180939,0.040697,0.027406,0.071054,-0.025097,0.510878,0.561146,-0.524788,-0.385638,100.459893,-5.935381,-81.223529
35312,NaN,1.077939,9.562814,-1.771540,0.015145,-0.065793,-0.027844,0.028869,0.061663,-0.029939,0.510888,0.561398,-0.524636,-0.385463,100.474332,-5.927177,-81.189418
35313,NaN,1.083934,9.674726,-1.832605,0.051134,-0.055253,0.093271,0.030413,0.052861,-0.032697,0.510865,0.561645,-0.524502,-0.385318,100.490016,-5.916313,-81.160050
35314,NaN,0.908596,9.616018,-1.868393,0.068282,0.116842,0.024280,0.024376,0.042885,-0.028889,0.510840,0.561847,-0.524393,-0.385204,100.503034,-5.906755,-81.136675
35315,NaN,1.047894,9.645998,-1.904867,0.117589,-0.013475,0.074571,0.014572,0.037850,-0.025446,0.510836,0.562005,-0.524286,-0.385124,100.510603,-5.898421,-81.116566
35316,NaN,1.048320,9.725914,-1.844488,0.042638,-0.020152,0.141823,0.010965,0.037761,-0.028653,0.510836,0.562162,-0.524165,-0.385060,100.516239,-5.888470,-81.096152
35317,NaN,1.155349,9.642268,-1.817686,0.049021,-0.137716,0.066117,0.008745,0.037012,-0.028271,0.510841,0.562311,-0.524041,-0.385004,100.520493,-5.878461,-81.076220
35318,NaN,1.054632,9.555111,-1.865839,0.096940,-0.038411,-0.020708,0.004301,0.035501,-0.027500,0.510856,0.562445,-0.523915,-0.384960,100.522452,-5.868898,-81.056968
35319,NaN,1.055369,9.585772,-1.827879,0.054213,-0.045291,0.002453,0.005457,0.033067,-0.030155,0.510856,0.562583,-0.523790,-0.384929,100.525038,-5.857416,-81.039071
35320,NaN,1.026490,9.667752,-1.797419,0.004063,-0.017988,0.074147,0.002786,0.027621,-0.022382,0.510864,0.562683,-0.523697,-0.384899,100.526656,-5.849947,-81.025092
35321,NaN,1.006373,9.612850,-1.783194,-0.002024,-0.005836,0.015813,0.000721,0.024932,-0.021333,0.510873,0.562770,-0.523608,-0.384880,100.527097,-5.842584,-81.012730
35322,NaN,1.023449,9.668105,-1.797256,0.003348,-0.017351,0.074148,0.003254,0.024954,-0.016894,0.510884,0.562852,-0.523538,-0.384842,100.529173,-5.837928,-81.000813
35323,NaN,1.053574,9.632070,-1.771003,-0.010806,-0.054781,0.037192,0.009084,0.025822,-0.014074,0.510885,0.562943,-0.523483,-0.384781,100.534434,-5.834749,-80.988711
35324,NaN,0.975502,9.630092,-1.795851,0.000526,0.025497,0.031840,0.010705,0.020704,-0.011232,0.510875,0.563021,-0.523454,-0.384721,100.541062,-5.832840,-80.979769
35325,NaN,0.998929,9.631882,-1.800090,0.006745,0.002798,0.036743,0.013244,0.017604,-0.010288,0.510851,0.563097,-0.523439,-0.384663,100.549221,-5.830934,-80.972718
35326,NaN,0.998748,9.631636,-1.801503,0.006372,0.003122,0.036743,0.020289,0.022867,-0.001041,0.510839,0.563178,-0.523450,-0.384544,100.561380,-5.834951,-80.963358
35327,NaN,0.837314,9.580070,-1.750210,-0.060224,0.149691,-0.039457,0.013253,0.010233,0.002597,0.510820,0.563206,-0.523490,-0.384473,100.570107,-5.839531,-80.961841
35328,NaN,0.959933,9.803874,-1.815074,-0.024579,0.056666,0.203704,0.023037,-0.012526,0.008867,0.510727,0.563200,-0.523625,-0.384423,100.585950,-5.845423,-80.973692
35329,NaN,1.082958,9.713962,-1.879534,0.072265,-0.058486,0.140094,0.014970,-0.007909,0.013419,0.510676,0.563169,-0.523745,-0.384371,100.596824,-5.854188,-80.983594
35330,NaN,1.040914,9.591904,-1.905399,0.113026,-0.019987,0.021208,0.008821,-0.001787,0.012759,0.510658,0.563137,-0.523837,-0.384317,100.604008,-5.863410,-80.989897
35331,NaN,1.124833,9.540340,-1.871342,0.101779,-0.110798,-0.026849,0.012725,0.004946,0.007906,0.510637,0.563139,-0.523905,-0.384249,100.612795,-5.870423,-80.991939
35332,NaN,1.147892,9.640945,-1.829387,0.043503,-0.133005,0.066207,0.009026,0.017862,-0.003284,0.510639,0.563187,-0.523902,-0.384181,100.618785,-5.872685,-80.985441
35333,NaN,0.997343,9.682655,-1.821657,0.003046,0.016476,0.090173,0.013795,0.012401,-0.006218,0.510607,0.563244,-0.523913,-0.384125,100.627601,-5.872531,-80.981765
35334,NaN,0.945121,9.697682,-1.831213,-0.000228,0.070181,0.101278,0.011497,0.011042,-0.007913,0.510575,0.563296,-0.523920,-0.384082,100.635295,-5.871487,-80.978720
35335,NaN,0.963966,9.703089,-1.869649,0.037360,0.058407,0.115553,0.014578,0.002737,-0.002883,0.510522,0.563327,-0.523966,-0.384042,100.645154,-5.872190,-80.980868
35336,NaN,1.010692,9.691405,-1.896300,0.071268,0.016281,0.113814,0.009054,0.001125,-0.000878,0.510486,0.563338,-0.524012,-0.384014,100.652144,-5.874009,-80.983856
35337,NaN,1.088491,9.643755,-1.895942,0.091380,-0.063608,0.075135,0.008511,0.006329,-0.004960,0.510455,0.563366,-0.524031,-0.383986,100.658296,-5.873922,-80.983751
35338,NaN,1.145408,9.575288,-1.877360,0.094726,-0.127841,0.010614,0.011186,0.014913,-0.009251,0.510432,0.563430,-0.524023,-0.383935,100.665648,-5.872506,-80.978228
35339,NaN,1.073503,9.584823,-1.849395,0.053567,-0.062090,0.007434,0.010101,0.025324,-0.017419,0.510423,0.563531,-0.523962,-0.383881,100.671476,-5.867419,-80.966043
35340,NaN,1.046251,9.617121,-1.842846,0.035637,-0.034940,0.035015,0.010405,0.024587,-0.012592,0.510420,0.563618,-0.523920,-0.383815,100.677699,-5.865191,-80.954907
35341,NaN,1.040924,9.685524,-1.835627,0.013241,-0.027006,0.100008,0.012172,0.028033,-0.018478,0.510411,0.563733,-0.523853,-0.383751,100.684548,-5.859799,-80.941074
35342,NaN,0.943477,9.677859,-1.823481,-0.013256,0.065337,0.080328,0.008808,0.016093,-0.009536,0.510397,0.563794,-0.523835,-0.383703,100.690424,-5.858342,-80.934727
35343,NaN,0.986930,9.635801,-1.887580,0.063086,0.030263,0.055481,0.006907,0.008332,-0.011306,0.510364,0.563838,-0.523829,-0.383690,100.695473,-5.854895,-80.932810
35344,NaN,0.985062,9.620515,-1.906904,0.083931,0.034137,0.043921,0.001599,0.008504,-0.003061,0.510363,0.563847,-0.523837,-0.383668,100.697667,-5.856334,-80.931840
35345,NaN,0.962290,9.633857,-1.884803,0.055857,0.053895,0.050560,0.002820,0.009782,-0.000133,0.510367,0.563855,-0.523851,-0.383633,100.700413,-5.859332,-80.930297
35346,NaN,1.039681,9.635880,-1.860560,0.043665,-0.025702,0.055961,0.000596,0.009016,0.000253,0.510376,0.563854,-0.523865,-0.383603,100.702094,-5.862666,-80.929259
35347,NaN,1.019270,9.614981,-1.842447,0.026621,-0.009765,0.030106,0.003813,0.012399,0.000046,0.510384,0.563869,-0.523874,-0.383557,100.705259,-5.866043,-80.926254
35348,NaN,1.069115,9.633973,-1.830283,0.018074,-0.058982,0.051519,0.007187,0.013849,0.000507,0.510387,0.563892,-0.523890,-0.383496,100.710428,-5.870057,-80.922673
35349,NaN,0.998204,9.643376,-1.802358,-0.023037,0.006801,0.048298,0.011253,0.018657,-0.003683,0.510384,0.563948,-0.523887,-0.383423,100.717452,-5.872003,-80.915727
35350,NaN,1.012926,9.652408,-1.874489,0.045891,0.005921,0.071976,0.011709,0.015983,0.001816,0.510383,0.563985,-0.523908,-0.383340,100.725094,-5.876949,-80.910799
35351,NaN,0.943758,9.677007,-1.827853,-0.016421,0.068178,0.080304,0.011781,0.016582,0.003895,0.510388,0.564018,-0.523933,-0.383251,100.732624,-5.882941,-80.905841
35352,NaN,0.961682,9.716578,-1.861805,0.010083,0.060231,0.127097,0.005729,0.006541,0.007729,0.510391,0.564007,-0.523983,-0.383195,100.737429,-5.890192,-80.906792
35353,NaN,0.955325,9.555059,-1.825719,0.005810,0.049921,-0.038102,-0.001700,-0.002845,0.007965,0.510390,0.563958,-0.524043,-0.383187,100.738407,-5.896402,-80.913266
35354,NaN,1.100813,9.765701,-1.911242,0.068774,-0.062449,0.198553,0.000850,-0.009077,0.005429,0.510361,0.563909,-0.524119,-0.383194,100.741352,-5.900727,-80.923150
35355,NaN,1.112003,9.594537,-1.931106,0.123619,-0.081366,0.036118,-0.003230,-0.000254,0.003698,0.510363,0.563872,-0.524157,-0.383194,100.741256,-5.904812,-80.927699
35356,NaN,1.068321,9.522340,-1.932240,0.132307,-0.042724,-0.038717,-0.005683,0.000316,0.001333,0.510369,0.563837,-0.524183,-0.383201,100.739867,-5.907800,-80.931537
35357,NaN,1.114830,9.625302,-1.892036,0.080455,-0.087800,0.059238,-0.006688,0.011329,-0.004764,0.510395,0.563835,-0.524162,-0.383198,100.737022,-5.908357,-80.928623
35358,NaN,1.044718,9.650311,-1.843897,0.018124,-0.025489,0.067541,-0.002153,0.010331,-0.006945,0.510401,0.563849,-0.524147,-0.383190,100.737016,-5.907768,-80.926051
35359,NaN,1.022830,9.679120,-1.802154,-0.031159,-0.009213,0.085709,-0.008207,0.000290,-0.003113,0.510406,0.563819,-0.524155,-0.383218,100.733962,-5.908077,-80.929561
35360,NaN,1.077749,9.645203,-1.777861,-0.038899,-0.069636,0.053715,-0.005981,0.001057,-0.003498,0.510405,0.563796,-0.524166,-0.383237,100.732347,-5.908440,-80.932606
35361,NaN,1.050655,9.612844,-1.812270,-0.003302,-0.039299,0.025677,-0.001531,0.002592,-0.004267,0.510395,0.563790,-0.524178,-0.383244,100.732972,-5.908344,-80.934690
35362,NaN,1.069714,9.618481,-1.849272,0.034211,-0.051112,0.040002,-0.001615,0.005124,-0.002856,0.510395,0.563786,-0.524187,-0.383237,100.733593,-5.909466,-80.935188
35363,NaN,1.045260,9.616637,-1.845932,0.027372,-0.027805,0.035064,0.000228,0.009165,-0.006660,0.510392,0.563803,-0.524179,-0.383227,100.734816,-5.908725,-80.933295
35364,NaN,1.044731,9.616764,-1.845566,0.026990,-0.027478,0.035066,-0.006363,0.004332,-0.006918,0.510394,0.563794,-0.524172,-0.383247,100.732729,-5.907530,-80.934231
35365,NaN,0.996234,9.613088,-1.838556,0.013666,0.018840,0.025183,-0.005839,0.002251,0.000662,0.510404,0.563763,-0.524190,-0.383254,100.730960,-5.910173,-80.937036
35366,NaN,1.008516,9.656724,-1.904947,0.071538,0.021766,0.081384,-0.010431,-0.000476,-0.002730,0.510414,0.563723,-0.524199,-0.383288,100.726775,-5.910844,-80.941199
35367,NaN,1.014622,9.668552,-1.850795,0.018574,0.007691,0.083544,-0.013591,-0.000135,0.003047,0.510444,0.563661,-0.524216,-0.383316,100.720730,-5.914576,-80.945610
35368,NaN,1.089403,9.640242,-1.863331,0.048702,-0.064884,0.065900,-0.007382,0.007974,-0.000113,0.510472,0.563639,-0.524216,-0.383310,100.717909,-5.917579,-80.945056
35369,NaN,1.044683,9.617588,-1.841296,0.025215,-0.025929,0.035075,-0.004235,0.010762,-0.002399,0.510495,0.563637,-0.524207,-0.383296,100.716528,-5.919407,-80.942715
35370,NaN,1.096235,9.602551,-1.832330,0.027619,-0.078994,0.024037,-0.000167,0.015573,-0.006586,0.510509,0.563665,-0.524184,-0.383268,100.717368,-5.919595,-80.937340
35371,NaN,1.098452,9.633156,-1.794220,-0.015181,-0.085686,0.047127,0.001903,0.018278,-0.007640,0.510524,0.563706,-0.524153,-0.383230,100.719008,-5.919273,-80.930184
35372,NaN,1.041573,9.652010,-1.836767,0.013055,-0.021097,0.067559,-0.000011,0.013639,-0.005918,0.510534,0.563727,-0.524138,-0.383205,100.719988,-5.919671,-80.926193
35373,NaN,1.067261,9.619779,-1.843931,0.030242,-0.047687,0.040032,0.002160,0.010683,-0.011874,0.510520,0.563765,-0.524115,-0.383199,100.722171,-5.916156,-80.922882
35374,NaN,1.040199,9.652144,-1.836842,0.012334,-0.020473,0.067562,0.002300,0.011876,-0.007714,0.510517,0.563796,-0.524101,-0.383177,100.724567,-5.915288,-80.919190
35375,NaN,1.011982,9.669257,-1.848557,0.015689,0.010205,0.083547,-0.001539,0.016237,-0.010188,0.510531,0.563832,-0.524062,-0.383160,100.724326,-5.913315,-80.912916
35376,NaN,1.034324,9.656052,-1.870261,0.043014,-0.008995,0.076960,-0.005453,0.009488,-0.005333,0.510547,0.563831,-0.524047,-0.383159,100.722451,-5.913551,-80.911013
35377,NaN,1.055487,9.627643,-1.910606,0.091601,-0.024744,0.058836,-0.009972,0.007357,-0.006648,0.510568,0.563818,-0.524024,-0.383181,100.717935,-5.912624,-80.910145
35378,NaN,1.037714,9.588059,-1.876540,0.064410,-0.016141,0.012012,-0.007661,0.005593,-0.008442,0.510575,0.563813,-0.524006,-0.383204,100.715014,-5.910688,-80.910093
35379,NaN,1.060030,9.639742,-1.855815,0.038240,-0.038456,0.060985,-0.009033,0.006253,-0.012042,0.510580,0.563815,-0.523973,-0.383240,100.711042,-5.906606,-80.909272
35380,NaN,1.063755,9.636299,-1.821138,0.006463,-0.048984,0.051588,-0.004116,0.001979,-0.010799,0.510564,0.563820,-0.523962,-0.383269,100.710297,-5.902909,-80.910571
35381,NaN,1.007564,9.670552,-1.844188,0.013531,0.012078,0.083548,-0.007049,0.011493,-0.011684,0.510579,0.563836,-0.523919,-0.383284,100.707160,-5.899587,-80.906823
35382,NaN,1.006462,9.670813,-1.843424,0.013159,0.012408,0.083548,-0.006876,0.006429,-0.014507,0.510574,0.563850,-0.523884,-0.383319,100.704526,-5.894342,-80.905722
35383,NaN,1.049898,9.629155,-1.906061,0.089439,-0.022903,0.058860,-0.006582,0.005683,-0.009676,0.510575,0.563850,-0.523863,-0.383344,100.702017,-5.891532,-80.905477
35384,NaN,1.034291,9.620048,-1.834301,0.019796,-0.021234,0.035099,-0.005261,0.001301,-0.011650,0.510557,0.563850,-0.523853,-0.383383,100.700651,-5.887373,-80.907777
35385,NaN,1.081200,9.624180,-1.840159,0.032364,-0.066969,0.045024,-0.004164,-0.001739,-0.016375,0.510519,0.563860,-0.523837,-0.383440,100.699885,-5.880002,-80.911017
35386,NaN,1.075992,9.643400,-1.854761,0.042152,-0.059277,0.065965,-0.004232,-0.002332,-0.018457,0.510477,0.563875,-0.523818,-0.383502,100.699257,-5.871591,-80.914374
35387,NaN,1.051064,9.657007,-1.832187,0.014116,-0.039429,0.072538,-0.003846,0.004914,-0.024449,0.510440,0.563920,-0.523763,-0.383560,100.698198,-5.860382,-80.912985
35388,NaN,1.027131,9.621130,-1.832646,0.018367,-0.019985,0.035104,-0.004386,-0.000391,-0.019128,0.510402,0.563939,-0.523735,-0.383619,100.697299,-5.851793,-80.915070
35389,NaN,0.998965,9.653651,-1.825005,0.000505,0.007234,0.062610,-0.004631,0.004081,-0.018386,0.510377,0.563965,-0.523698,-0.383666,100.695906,-5.843909,-80.914802
35390,NaN,0.999566,9.619694,-1.828589,0.011196,0.003653,0.030140,-0.004317,0.000207,-0.017048,0.510344,0.563981,-0.523675,-0.383717,100.695131,-5.836541,-80.916756
35391,NaN,0.965781,9.640610,-1.873912,0.045984,0.045161,0.055519,-0.006248,-0.001314,-0.011834,0.510322,0.563975,-0.523667,-0.383767,100.693192,-5.831773,-80.920241
35392,NaN,0.957846,9.678763,-1.903105,0.065952,0.060219,0.097396,-0.010922,-0.012039,-0.004409,0.510300,0.563917,-0.523699,-0.383838,100.689401,-5.830236,-80.930530
35393,NaN,0.987491,9.627862,-1.893995,0.072962,0.026221,0.048960,-0.019458,-0.015276,0.004033,0.510309,0.563809,-0.523745,-0.383921,100.680869,-5.832918,-80.943612
35394,NaN,1.017762,9.641695,-1.842465,0.026378,-0.010745,0.056050,-0.018311,-0.014592,0.004881,0.510318,0.563702,-0.523797,-0.383996,100.673134,-5.836360,-80.956543
35395,NaN,1.019291,9.657181,-1.822028,0.004793,-0.013898,0.067580,-0.013794,-0.012457,0.006198,0.510323,0.563608,-0.523853,-0.384050,100.667710,-5.840564,-80.968261
35396,NaN,1.016393,9.676346,-1.835597,0.014577,-0.006212,0.088519,-0.017947,-0.014747,0.011794,0.510345,0.563486,-0.523923,-0.384105,100.660309,-5.847823,-80.981531
35397,NaN,1.046836,9.625348,-1.826497,0.021581,-0.040214,0.040089,-0.013704,-0.014983,0.004783,0.510340,0.563391,-0.523982,-0.384170,100.655068,-5.850965,-80.994526
35398,NaN,1.020878,9.657704,-1.818364,0.003687,-0.012953,0.067581,-0.008489,-0.020009,0.010854,0.510319,0.563285,-0.524081,-0.384218,100.653371,-5.857162,-81.010880
35399,NaN,1.073277,9.642739,-1.809077,0.006042,-0.066058,0.056593,-0.009117,-0.012257,0.008182,0.510315,0.563198,-0.524151,-0.384255,100.650641,-5.862507,-81.022694
35400,NaN,1.049613,9.640857,-1.805150,-0.000768,-0.042710,0.051619,-0.009186,-0.012848,0.006099,0.510306,0.563116,-0.524218,-0.384297,100.648053,-5.866801,-81.034579
35401,NaN,0.992117,9.644534,-1.865870,0.048852,0.025247,0.060497,-0.012399,-0.016232,0.006298,0.510297,0.563018,-0.524287,-0.384358,100.643653,-5.870666,-81.048443
35402,NaN,0.993635,9.659929,-1.845848,0.027243,0.022137,0.072022,-0.011321,-0.016142,0.005065,0.510283,0.562925,-0.524356,-0.384418,100.639950,-5.874052,-81.062162
35403,NaN,1.043462,9.679283,-1.832033,0.018505,-0.027043,0.093503,-0.016530,-0.021637,0.008395,0.510276,0.562801,-0.524436,-0.384501,100.633521,-5.878528,-81.079307
35404,NaN,1.020736,9.628094,-1.850624,0.044036,-0.004185,0.044540,-0.015697,-0.017080,0.007910,0.510277,0.562688,-0.524507,-0.384567,100.627471,-5.883410,-81.093867
35405,NaN,1.071565,9.598037,-1.859793,0.067623,-0.053862,0.022043,-0.015767,-0.017669,0.005827,0.510273,0.562580,-0.524572,-0.384643,100.621224,-5.886863,-81.108493
35406,NaN,1.089905,9.653511,-1.872213,0.072747,-0.065255,0.080431,-0.020983,-0.012636,-0.000240,0.510284,0.562483,-0.524598,-0.384732,100.611766,-5.887645,-81.119777
35407,NaN,1.092794,9.634928,-1.855547,0.062237,-0.072323,0.059495,-0.017220,-0.007064,-0.009252,0.510283,0.562431,-0.524591,-0.384820,100.603907,-5.883729,-81.126798
35408,NaN,1.043616,9.631426,-1.847415,0.049020,-0.025947,0.049531,-0.019688,-0.003364,-0.008120,0.510300,0.562376,-0.524575,-0.384901,100.594615,-5.881069,-81.132160
35409,NaN,1.063262,9.652807,-1.863921,0.065254,-0.041305,0.075460,-0.014322,0.000196,-0.010783,0.510306,0.562349,-0.524550,-0.384964,100.587978,-5.877057,-81.134910
35410,NaN,1.063410,9.668406,-1.843477,0.043624,-0.044404,0.086982,-0.013719,0.006096,-0.014013,0.510321,0.562344,-0.524504,-0.385016,100.581477,-5.872031,-81.133916
35411,NaN,1.070269,9.646009,-1.793360,0.001702,-0.062259,0.056620,-0.009056,0.016816,-0.021422,0.510336,0.562391,-0.524417,-0.385047,100.576780,-5.863776,-81.126132
35412,NaN,1.066951,9.631177,-1.811642,0.022584,-0.058510,0.045105,-0.003514,0.015325,-0.026919,0.510322,0.562464,-0.524328,-0.385078,100.575413,-5.852435,-81.118364
35413,NaN,1.040471,9.629549,-1.807893,0.015831,-0.035185,0.040119,-0.003987,0.021143,-0.028918,0.510319,0.562552,-0.524219,-0.385102,100.573293,-5.840412,-81.107339
35414,NaN,1.012690,9.612696,-1.823284,0.030303,-0.008418,0.023615,-0.001605,0.019978,-0.028636,0.510308,0.562644,-0.524118,-0.385120,100.572782,-5.828592,-81.096790
35415,NaN,0.985599,9.660352,-1.796591,-0.008791,0.015439,0.062596,-0.000852,0.016525,-0.018308,0.510306,0.562703,-0.524056,-0.385122,100.572841,-5.822060,-81.089501
35416,NaN,0.978356,9.649123,-1.849338,0.043511,0.029969,0.060509,-0.001791,0.017616,-0.012910,0.510318,0.562747,-0.524007,-0.385108,100.572503,-5.818889,-81.082267
35417,NaN,0.954777,9.662468,-1.826652,0.015514,0.049881,0.067030,-0.003876,0.018027,-0.008364,0.510347,0.562775,-0.523963,-0.385088,100.570851,-5.818115,-81.075179
35418,NaN,1.002849,9.666620,-1.832431,0.027941,0.004159,0.077017,-0.003829,0.021735,-0.002781,0.510396,0.562796,-0.523927,-0.385041,100.569241,-5.821057,-81.066526
35419,NaN,1.030778,9.649737,-1.820004,0.023837,-0.025931,0.061071,-0.005825,0.019618,0.000348,0.510451,0.562799,-0.523901,-0.385000,100.566474,-5.825356,-81.059457
35420,NaN,1.081672,9.619667,-1.829761,0.047347,-0.075616,0.038611,-0.004747,0.019710,-0.000885,0.510501,0.562809,-0.523873,-0.384956,100.564504,-5.829145,-81.052120
35421,NaN,1.003398,9.666972,-1.830270,0.026878,0.005087,0.077019,-0.007330,0.019116,-0.007422,0.510545,0.562828,-0.523823,-0.384940,100.560819,-5.829015,-81.044515
35422,NaN,1.022475,9.673045,-1.866248,0.064308,-0.006831,0.091451,-0.013524,0.010992,-0.004285,0.510588,0.562805,-0.523795,-0.384955,100.554276,-5.830052,-81.042390
35423,NaN,1.027002,9.669536,-1.830826,0.032545,-0.017299,0.082020,-0.014353,0.006435,-0.003805,0.510625,0.562772,-0.523773,-0.384983,100.547335,-5.830628,-81.042346
35424,NaN,1.075885,9.624611,-1.858420,0.077298,-0.063602,0.048061,-0.024010,0.009944,-0.009120,0.510688,0.562737,-0.523709,-0.385037,100.534855,-5.828703,-81.039315
35425,NaN,1.044751,9.611770,-1.906107,0.123247,-0.026115,0.040992,-0.019923,0.011661,-0.016796,0.510729,0.562734,-0.523627,-0.385098,100.524284,-5.822508,-81.034945
35426,NaN,1.023357,9.606486,-1.867184,0.085061,-0.013525,0.026560,-0.014891,0.012295,-0.029871,0.510732,0.562778,-0.523519,-0.385177,100.516606,-5.809229,-81.029063
35427,NaN,1.068677,9.611130,-1.872160,0.097487,-0.059283,0.036569,-0.009499,0.012756,-0.036029,0.510709,0.562854,-0.523400,-0.385258,100.511742,-5.792313,-81.022054
35428,NaN,1.101516,9.636349,-1.768534,-0.001883,-0.110299,0.045715,0.000287,0.020989,-0.035941,0.510681,0.562973,-0.523279,-0.385286,100.512226,-5.776455,-81.010075
35429,NaN,1.081309,9.661262,-1.692837,-0.082562,-0.104508,0.054287,-0.002885,0.031873,-0.039563,0.510683,0.563111,-0.523115,-0.385304,100.510031,-5.759545,-80.991871
35430,NaN,1.015764,9.669061,-1.787989,-0.001445,-0.025857,0.072593,-0.001005,0.039654,-0.037777,0.510704,0.563267,-0.522939,-0.385288,100.508726,-5.744611,-80.969187
35431,NaN,0.968398,9.646263,-1.766438,-0.024699,0.013138,0.041637,0.000431,0.039576,-0.032094,0.510731,0.563410,-0.522782,-0.385256,100.508083,-5.732714,-80.947408
35432,NaN,0.988221,9.618234,-1.807437,0.023836,-0.002788,0.023636,0.001263,0.033575,-0.023178,0.510758,0.563520,-0.522667,-0.385215,100.508520,-5.725396,-80.929876
35433,NaN,1.034937,9.622632,-1.813274,0.036243,-0.048546,0.033654,-0.001878,0.030774,-0.020906,0.510790,0.563610,-0.522560,-0.385186,100.507174,-5.718881,-80.914256
35434,NaN,1.062172,9.621146,-1.781968,0.010811,-0.082000,0.029224,0.000283,0.030968,-0.023370,0.510812,0.563714,-0.522450,-0.385154,100.507230,-5.711170,-80.898107
35435,NaN,1.005307,9.655182,-1.805313,0.018035,-0.020909,0.061095,0.000252,0.034089,-0.019871,0.510849,0.563814,-0.522341,-0.385107,100.506932,-5.705584,-80.880720
35436,NaN,1.003738,9.655437,-1.804823,0.017648,-0.020588,0.061096,-0.004061,0.026905,-0.024042,0.510871,0.563901,-0.522230,-0.385100,100.504769,-5.697048,-80.866700
35437,NaN,0.898772,9.685281,-1.821692,0.012146,0.086565,0.082937,-0.005397,0.020702,-0.012659,0.510903,0.563941,-0.522165,-0.385087,100.502065,-5.694126,-80.857649
35438,NaN,0.975247,9.688023,-1.795900,-0.000558,0.007054,0.088529,-0.011463,0.013720,-0.005361,0.510948,0.563936,-0.522125,-0.385088,100.496563,-5.694733,-80.852963
35439,NaN,0.969145,9.676984,-1.847521,0.051796,0.021471,0.086477,-0.016128,0.013533,-0.007364,0.511002,0.563921,-0.522073,-0.385110,100.488169,-5.694044,-80.848527
35440,NaN,1.050651,9.611516,-1.829266,0.061320,-0.066018,0.027191,-0.018350,0.012761,-0.006990,0.511060,0.563898,-0.522020,-0.385138,100.478704,-5.693681,-80.844624
35441,NaN,1.074274,9.614109,-1.830106,0.067335,-0.088751,0.032211,-0.024412,0.016370,-0.009099,0.511141,0.563873,-0.521939,-0.385178,100.465387,-5.692308,-80.838400
35442,NaN,0.998699,9.642493,-1.814211,0.036750,-0.015342,0.049607,-0.024790,0.019680,-0.012520,0.511225,0.563863,-0.521840,-0.385216,100.451867,-5.689506,-80.829692
35443,NaN,0.991800,9.696292,-1.822164,0.035441,-0.003678,0.102995,-0.027993,0.016287,-0.012337,0.511309,0.563836,-0.521743,-0.385274,100.436470,-5.686297,-80.823177
35444,NaN,0.920949,9.656396,-1.814253,0.027114,0.061738,0.055499,-0.032020,0.008324,-0.011677,0.511386,0.563784,-0.521660,-0.385359,100.419430,-5.682776,-80.820866
35445,NaN,0.939263,9.663050,-1.848454,0.064558,0.049736,0.069969,-0.026483,-0.007437,-0.013349,0.511403,0.563718,-0.521624,-0.385483,100.406218,-5.676536,-80.827684
35446,NaN,0.995182,9.660215,-1.783873,0.014042,-0.017456,0.061108,-0.029401,-0.001006,-0.017729,0.511436,0.563669,-0.521554,-0.385605,100.391052,-5.668682,-80.830342
35447,NaN,0.967268,9.628430,-1.816566,0.049902,0.012599,0.033100,-0.023337,-0.004613,-0.015622,0.511446,0.563623,-0.521511,-0.385718,100.379461,-5.661457,-80.835327
35448,NaN,1.018656,9.629367,-1.786544,0.030805,-0.043857,0.033694,-0.021054,-0.003254,-0.013911,0.511457,0.563579,-0.521475,-0.385817,100.369237,-5.655558,-80.839948
35449,NaN,1.020570,9.675258,-1.727195,-0.033369,-0.053625,0.068173,-0.020674,-0.006562,-0.010494,0.511464,0.563522,-0.521456,-0.385915,100.359332,-5.651023,-80.846570
35450,NaN,0.947185,9.669206,-1.716409,-0.052783,0.015802,0.053099,-0.015691,-0.010269,-0.007158,0.511456,0.563464,-0.521465,-0.386000,100.352699,-5.648137,-80.855274
35451,NaN,0.989130,9.662590,-1.774348,0.012271,-0.015886,0.061113,-0.012208,-0.007654,-0.002502,0.511452,0.563406,-0.521488,-0.386059,100.347786,-5.647996,-80.863343
35452,NaN,0.994956,9.609604,-1.762693,0.012870,-0.026948,0.007731,-0.011987,-0.009018,0.000249,0.511451,0.563341,-0.521520,-0.386110,100.343306,-5.649388,-80.871928
35453,NaN,1.075899,9.593155,-1.722451,-0.010030,-0.113830,-0.007589,-0.000419,-0.004192,0.009483,0.511446,0.563289,-0.521590,-0.386098,100.345077,-5.656360,-80.879275
35454,NaN,1.094278,9.648481,-1.736076,-0.005055,-0.125156,0.050826,0.000761,0.003988,-0.002559,0.511437,0.563288,-0.521608,-0.386088,100.347143,-5.657542,-80.880473
35455,NaN,1.071196,9.597059,-1.756590,0.020672,-0.102491,0.001877,0.002861,0.003601,-0.007105,0.511412,0.563302,-0.521618,-0.386088,100.350189,-5.655966,-80.881691
35456,NaN,1.068887,9.646325,-1.733832,-0.012128,-0.101487,0.045803,0.012446,0.010104,-0.013241,0.511364,0.563370,-0.521614,-0.386058,100.358512,-5.651780,-80.878517
35457,NaN,1.019280,9.641926,-1.729038,-0.025142,-0.055112,0.035742,0.016609,0.012439,-0.018825,0.511300,0.563467,-0.521594,-0.386027,100.368823,-5.644509,-80.873515
35458,NaN,1.007112,9.698896,-1.775265,0.004928,-0.032702,0.098585,0.020852,0.019046,-0.016730,0.511248,0.563587,-0.521568,-0.385955,100.381406,-5.639175,-80.863981
35459,NaN,1.021403,9.573237,-1.741249,-0.003591,-0.062549,-0.029122,0.025337,0.017493,-0.020984,0.511169,0.563722,-0.521547,-0.385893,100.396416,-5.631212,-80.855889
35460,NaN,1.063665,9.660803,-1.722226,-0.034861,-0.103591,0.057298,0.032545,0.025184,-0.027420,0.511079,0.563911,-0.521498,-0.385801,100.415239,-5.620502,-80.841824
35461,NaN,1.024656,9.685048,-1.805318,0.031476,-0.051478,0.092140,0.041071,0.035304,-0.026744,0.510991,0.564135,-0.521445,-0.385662,100.438221,-5.611145,-80.823043
35462,NaN,1.033110,9.627551,-1.764371,0.000671,-0.073252,0.029299,0.043123,0.034354,-0.033383,0.510883,0.564382,-0.521378,-0.385533,100.462450,-5.598101,-80.803554
35463,NaN,1.003003,9.643888,-1.780284,0.004150,-0.042548,0.045212,0.049166,0.048190,-0.031591,0.510796,0.564664,-0.521294,-0.385349,100.489316,-5.587372,-80.776963
35464,NaN,1.069397,9.668901,-1.808635,0.032880,-0.103977,0.081277,0.054162,0.055135,-0.037670,0.510702,0.564992,-0.521183,-0.385143,100.518841,-5.574067,-80.745130
35465,NaN,0.944172,9.626948,-1.836465,0.043501,0.018167,0.033122,0.052608,0.060915,-0.038464,0.510625,0.565325,-0.521054,-0.384932,100.546921,-5.560824,-80.710604
35466,NaN,0.979938,9.702945,-1.872452,0.064924,-0.008811,0.117530,0.049201,0.058904,-0.041050,0.510548,0.565653,-0.520916,-0.384739,100.573280,-5.546112,-80.676772
35467,NaN,0.942926,9.692540,-1.960770,0.142420,0.039235,0.119948,0.048073,0.058256,-0.041922,0.510470,0.565979,-0.520774,-0.384555,100.598888,-5.530675,-80.643374
35468,NaN,0.875426,9.662646,-1.906934,0.081531,0.090613,0.074407,0.044116,0.047175,-0.044762,0.510369,0.566281,-0.520646,-0.384418,100.622909,-5.512666,-80.615742
35469,NaN,0.938697,9.657498,-1.972431,0.152863,0.035805,0.087528,0.039197,0.047783,-0.051633,0.510270,0.566588,-0.520487,-0.384312,100.643922,-5.490680,-80.587228
35470,NaN,0.895555,9.645337,-1.901441,0.077018,0.060828,0.058502,0.029108,0.032764,-0.043658,0.510177,0.566821,-0.520368,-0.384252,100.660083,-5.471787,-80.567791
35471,NaN,0.920750,9.643804,-1.872350,0.051558,0.027399,0.054077,0.019027,0.032066,-0.039535,0.510117,0.567016,-0.520245,-0.384212,100.670526,-5.454962,-80.549444
35472,NaN,0.849084,9.618069,-1.850007,0.022122,0.089460,0.017990,0.014408,0.021816,-0.030024,0.510065,0.567157,-0.520163,-0.384184,100.679100,-5.442521,-80.537183
35473,NaN,0.839873,9.655883,-1.881211,0.042078,0.104489,0.059887,0.014285,0.013718,-0.019167,0.510010,0.567251,-0.520134,-0.384157,100.688022,-5.435221,-80.531382
35474,NaN,0.895849,9.652917,-1.820193,-0.008536,0.037367,0.051033,0.013837,0.009517,-0.009657,0.509965,0.567314,-0.520141,-0.384114,100.697101,-5.432968,-80.528438
35475,NaN,0.978599,9.602777,-1.785073,-0.020390,-0.053552,0.003329,0.011929,0.008530,-0.002352,0.509936,0.567348,-0.520169,-0.384065,100.705121,-5.434584,-80.527365
35476,NaN,0.972257,9.655634,-1.797374,-0.021760,-0.041807,0.056704,0.018487,0.013433,-0.002057,0.509902,0.567409,-0.520197,-0.383980,100.716742,-5.437047,-80.523203
35477,NaN,1.003801,9.619731,-1.771902,-0.036087,-0.079280,0.019855,0.018428,0.016554,0.001439,0.509883,0.567466,-0.520228,-0.383881,100.728095,-5.441653,-80.518000
35478,NaN,0.876764,9.645767,-1.789356,-0.047662,0.050964,0.036498,0.023833,0.010134,0.010329,0.509851,0.567505,-0.520307,-0.383759,100.743074,-5.450667,-80.516420
35479,NaN,0.892503,9.639607,-1.881359,0.042473,0.052874,0.049031,0.018623,0.004555,0.013652,0.509823,0.567507,-0.520404,-0.383662,100.755307,-5.460868,-80.519314
35480,NaN,0.890663,9.658018,-1.898142,0.052258,0.060547,0.069981,0.018937,0.004363,0.020584,0.509810,0.567496,-0.520517,-0.383542,100.767909,-5.475033,-80.522101
35481,NaN,0.877767,9.647864,-1.829083,-0.017251,0.062544,0.045968,0.021635,0.003011,0.027819,0.509796,0.567466,-0.520663,-0.383406,100.782098,-5.493041,-80.527397
35482,NaN,0.859367,9.530829,-1.893040,0.062299,0.087673,-0.058342,0.014360,-0.005302,0.032190,0.509792,0.567392,-0.520828,-0.383297,100.792740,-5.512758,-80.537417
35483,NaN,0.818376,9.522093,-1.854973,0.017946,0.123379,-0.077936,0.020807,-0.015904,0.032185,0.509740,0.567312,-0.521033,-0.383206,100.807534,-5.531190,-80.553888
35484,NaN,1.110847,9.858185,-1.858894,-0.001053,-0.139224,0.279582,0.022428,-0.021057,0.035066,0.509677,0.567222,-0.521261,-0.383113,100.823707,-5.550802,-80.572978
35485,NaN,1.056762,9.710310,-1.834442,-0.007082,-0.096743,0.125252,0.021734,-0.010126,0.035850,0.509644,0.567146,-0.521463,-0.382993,100.838766,-5.571910,-80.586589
35486,NaN,0.920251,9.547838,-1.888118,0.052205,0.039493,-0.036759,0.019356,-0.012670,0.029966,0.509602,0.567076,-0.521650,-0.382899,100.852638,-5.589577,-80.600588
35487,NaN,1.026372,9.598236,-1.811024,-0.018331,-0.072921,0.008399,0.028044,-0.008152,0.025707,0.509537,0.567046,-0.521831,-0.382783,100.871106,-5.605184,-80.611995
35488,NaN,1.040197,9.705880,-1.838919,-0.014437,-0.072760,0.120199,0.029688,-0.002690,0.019131,0.509472,0.567052,-0.521979,-0.382660,100.890155,-5.617798,-80.618850
35489,NaN,0.985628,9.723244,-1.885090,0.014232,-0.008353,0.140514,0.028816,-0.007859,0.017543,0.509390,0.567046,-0.522138,-0.382562,100.908968,-5.628836,-80.629213
35490,NaN,1.043270,9.624323,-1.905649,0.059933,-0.066356,0.053391,0.028924,-0.010391,0.016134,0.509301,0.567041,-0.522296,-0.382470,100.927980,-5.638941,-80.640244
35491,NaN,1.075428,9.588056,-1.881358,0.045588,-0.103841,0.016556,0.029535,-0.008162,0.007296,0.509197,0.567063,-0.522428,-0.382397,100.947115,-5.644174,-80.649667
35492,NaN,1.071109,9.591035,-1.918333,0.076662,-0.092871,0.026049,0.029323,-0.010519,-0.001042,0.509071,0.567102,-0.522542,-0.382351,100.966275,-5.644639,-80.659372
35493,NaN,1.071411,9.605842,-1.902269,0.055012,-0.095863,0.037517,0.030489,0.000777,-0.009654,0.508955,0.567188,-0.522604,-0.382293,100.985278,-5.641307,-80.661888
35494,NaN,1.044638,9.652684,-1.879504,0.015907,-0.071689,0.076333,0.032875,-0.000377,-0.009354,0.508830,0.567276,-0.522675,-0.382230,101.005759,-5.638217,-80.665007
35495,NaN,1.010581,9.657078,-1.947732,0.072176,-0.027059,0.090248,0.030941,0.008676,-0.013602,0.508726,0.567389,-0.522707,-0.382158,101.024540,-5.633528,-80.662623
35496,NaN,0.994031,9.647375,-1.879664,0.002663,-0.024974,0.066201,0.032135,0.006241,-0.016239,0.508607,0.567505,-0.522742,-0.382096,101.044138,-5.627310,-80.661391
35497,NaN,1.024628,9.626785,-1.836383,-0.032993,-0.065732,0.040827,0.030679,0.009452,-0.018454,0.508496,0.567631,-0.522758,-0.382036,101.062674,-5.619980,-80.658030
35498,NaN,1.021271,9.595625,-1.877537,0.009245,-0.058859,0.017908,0.038656,0.010573,-0.018054,0.508366,0.567777,-0.522789,-0.381949,101.085881,-5.613206,-80.654214
35499,NaN,0.995648,9.592906,-1.878051,0.002637,-0.035521,0.012839,0.034527,0.005105,-0.015944,0.508237,0.567898,-0.522830,-0.381884,101.106888,-5.606810,-80.653581
35500,NaN,1.041643,9.581384,-1.906469,0.036122,-0.078019,0.011526,0.043164,0.012764,-0.016734,0.508104,0.568057,-0.522866,-0.381775,101.132443,-5.601004,-80.648318
35501,NaN,0.967122,9.558705,-1.920705,0.038302,-0.005325,-0.015148,0.043539,0.009473,-0.013293,0.507967,0.568202,-0.522921,-0.381668,101.158402,-5.596582,-80.645507
35502,NaN,0.958217,9.660612,-1.913368,0.004420,0.007284,0.082085,0.043646,0.010669,-0.009131,0.507842,0.568342,-0.522982,-0.381542,101.184516,-5.594757,-80.641836
35503,NaN,0.852255,9.657874,-1.973874,0.041939,0.121025,0.080777,0.041474,0.010478,-0.006674,0.507725,0.568466,-0.523049,-0.381420,101.209308,-5.594170,-80.639193
35504,NaN,0.900607,9.661493,-1.983590,0.054101,0.075259,0.090927,0.040916,0.008869,0.004250,0.507627,0.568556,-0.523152,-0.381276,101.234065,-5.599770,-80.638874
35505,NaN,0.932462,9.625273,-1.959866,0.039749,0.037769,0.054097,0.036626,0.005342,0.005687,0.507534,0.568625,-0.523258,-0.381150,101.256497,-5.605557,-80.640519
35506,NaN,0.984250,9.594660,-1.972991,0.063084,-0.012115,0.031845,0.038138,0.002744,0.009984,0.507440,0.568683,-0.523385,-0.381014,101.280023,-5.613639,-80.643812
35507,NaN,1.037785,9.594852,-1.948397,0.043799,-0.068546,0.032505,0.039676,0.010737,0.004786,0.507351,0.568774,-0.523481,-0.380867,101.303896,-5.619525,-80.642314
35508,NaN,1.061497,9.580847,-1.973785,0.070999,-0.088023,0.026136,0.035868,-0.002365,0.002713,0.507235,0.568835,-0.523596,-0.380770,101.326384,-5.622943,-80.647741
35509,NaN,0.941134,9.649546,-1.902741,-0.035710,0.021852,0.067502,0.045040,0.000066,0.006040,0.507105,0.568915,-0.523732,-0.380637,101.353935,-5.628332,-80.652413
35510,NaN,0.985689,9.656389,-1.946764,0.007883,-0.013283,0.087165,0.039160,-0.012040,0.010598,0.506968,0.568941,-0.523905,-0.380542,101.378853,-5.635198,-80.665073
35511,NaN,0.938201,9.651113,-1.944954,-0.004949,0.033105,0.077001,0.041549,-0.013183,0.010898,0.506823,0.568974,-0.524082,-0.380443,101.405194,-5.641813,-80.677780
35512,NaN,0.989926,9.620374,-1.958471,0.018371,-0.016787,0.054762,0.038504,-0.018556,0.011795,0.506674,0.568987,-0.524270,-0.380363,101.430131,-5.648506,-80.693502
35513,NaN,1.040603,9.574194,-1.990698,0.063012,-0.063469,0.021077,0.037474,-0.021788,0.009544,0.506515,0.568997,-0.524457,-0.380302,101.454604,-5.653371,-80.710916
35514,NaN,1.036345,9.576709,-2.028372,0.094100,-0.052534,0.030587,0.033366,-0.016690,0.002168,0.506367,0.569023,-0.524606,-0.380256,101.476430,-5.654916,-80.725017
35515,NaN,1.069149,9.571655,-1.966525,0.037093,-0.096518,0.016666,0.034136,-0.012696,-0.000439,0.506222,0.569068,-0.524735,-0.380203,101.498373,-5.655199,-80.736161
35516,NaN,1.058909,9.642763,-1.996650,0.045820,-0.077337,0.090983,0.032967,0.000321,-0.007325,0.506102,0.569151,-0.524811,-0.380133,101.518857,-5.653320,-80.739251
35517,NaN,1.012696,9.603547,-1.997676,0.044192,-0.035077,0.048408,0.035408,-0.000222,-0.004943,0.505978,0.569235,-0.524898,-0.380053,101.540784,-5.652495,-80.742841
35518,NaN,0.961137,9.632789,-1.991554,0.020179,0.015473,0.070634,0.034878,0.005016,-0.009087,0.505861,0.569337,-0.524961,-0.379969,101.562152,-5.650162,-80.743154
35519,NaN,0.965780,9.644461,-1.941924,-0.032934,0.001924,0.072571,0.034112,0.001035,-0.006483,0.505741,0.569423,-0.525038,-0.379892,101.583249,-5.648615,-80.745855
35520,NaN,1.007206,9.620441,-2.022695,0.053264,-0.026774,0.069371,0.030905,-0.002400,-0.006262,0.505620,0.569492,-0.525123,-0.379834,101.602749,-5.647064,-80.751054
35521,NaN,1.006576,9.619872,-2.025709,0.052922,-0.026489,0.069374,0.031727,0.002192,-0.006791,0.505509,0.569575,-0.525192,-0.379761,101.622412,-5.645475,-80.753066
35522,NaN,1.013061,9.581874,-1.998180,0.032307,-0.040900,0.027465,0.031568,0.004140,-0.007482,0.505403,0.569663,-0.525255,-0.379684,101.641893,-5.643939,-80.753981
35523,NaN,1.033725,9.617756,-2.000597,0.026998,-0.059528,0.064961,0.033105,0.012117,-0.012703,0.505303,0.569784,-0.525284,-0.379595,101.661727,-5.640180,-80.749708
35524,NaN,1.032588,9.617277,-2.003484,0.026634,-0.059196,0.064964,0.029526,0.011967,-0.015938,0.505205,0.569901,-0.525302,-0.379524,101.679551,-5.634866,-80.745770
35525,NaN,1.008996,9.645669,-1.965980,-0.022577,-0.042306,0.082755,0.036425,0.013029,-0.014327,0.505095,0.570037,-0.525331,-0.379427,101.701219,-5.630305,-80.740791
35526,NaN,0.957783,9.609654,-2.000909,0.007281,0.010573,0.049679,0.032079,0.008891,-0.014951,0.504984,0.570153,-0.525363,-0.379355,101.720655,-5.625159,-80.738409
35527,NaN,0.982548,9.561530,-2.029195,0.045679,-0.013118,0.010938,0.033381,0.007655,-0.013416,0.504870,0.570269,-0.525402,-0.379279,101.740886,-5.620486,-80.736563
35528,NaN,0.975249,9.613905,-2.044122,0.044275,-0.001284,0.064293,0.032616,0.003674,-0.010805,0.504754,0.570366,-0.525459,-0.379209,101.760896,-5.617033,-80.737312
35529,NaN,0.921572,9.612103,-2.075220,0.062967,0.055689,0.063613,0.027181,-0.000569,-0.010192,0.504642,0.570442,-0.525516,-0.379164,101.778065,-5.613209,-80.740476
35530,NaN,0.995711,9.583960,-2.090233,0.092458,-0.017299,0.046519,0.029732,-0.003650,-0.009198,0.504517,0.570514,-0.525591,-0.379119,101.796863,-5.609820,-80.745756
35531,NaN,0.943851,9.613297,-2.083645,0.068502,0.033241,0.068715,0.027073,0.001985,-0.008806,0.504414,0.570590,-0.525646,-0.379064,101.813845,-5.607070,-80.747642
35532,NaN,0.971082,9.596342,-2.073745,0.064241,0.003150,0.052862,0.024503,-0.005479,-0.000261,0.504316,0.570620,-0.525742,-0.379017,101.829830,-5.608507,-80.755243
35533,NaN,1.018190,9.665683,-2.040995,0.022455,-0.044939,0.118339,0.024021,0.000353,-0.002337,0.504230,0.570669,-0.525813,-0.378958,101.845228,-5.609193,-80.758811
35534,NaN,0.948473,9.624416,-2.037571,0.014716,0.020408,0.070635,0.016955,0.004984,0.000908,0.504183,0.570695,-0.525873,-0.378899,101.856223,-5.612546,-80.760819
35535,NaN,0.996028,9.612785,-2.064200,0.048112,-0.022211,0.069409,0.025214,0.001665,0.000588,0.504103,0.570742,-0.525952,-0.378826,101.872266,-5.615024,-80.763994
35536,NaN,0.976557,9.607010,-2.029497,0.010120,-0.009397,0.054783,0.024016,0.004116,0.003209,0.504038,0.570780,-0.526032,-0.378743,101.887434,-5.619508,-80.766408
35537,NaN,1.027779,9.576638,-2.041105,0.033380,-0.059387,0.032606,0.025216,0.001671,0.000586,0.503958,0.570827,-0.526110,-0.378670,101.903478,-5.621985,-80.769582
35538,NaN,1.006271,9.620717,-1.984504,-0.037161,-0.045615,0.061803,0.029514,0.005224,-0.000884,0.503873,0.570894,-0.526185,-0.378578,101.921771,-5.624253,-80.770549
35539,NaN,1.027868,9.575507,-2.046360,0.032691,-0.058789,0.032612,0.027286,0.004424,-0.000498,0.503792,0.570954,-0.526257,-0.378495,101.938837,-5.626446,-80.772044
35540,NaN,1.051530,9.577181,-2.051982,0.038532,-0.081528,0.037725,0.030080,0.006793,-0.011828,0.503689,0.571054,-0.526298,-0.378425,101.957266,-5.622777,-80.770944
35541,NaN,1.022842,9.593162,-2.067010,0.042125,-0.050825,0.053575,0.025461,0.007132,-0.011747,0.503599,0.571144,-0.526328,-0.378367,101.973006,-5.618986,-80.769573
35542,NaN,0.965817,9.609971,-2.112889,0.070978,0.013528,0.073840,0.023174,0.009485,-0.007894,0.503529,0.571221,-0.526361,-0.378298,101.987414,-5.617855,-80.767548
35543,NaN,0.944485,9.588777,-2.096610,0.054325,0.029500,0.047771,0.020844,0.007470,-0.011666,0.503453,0.571300,-0.526382,-0.378250,102.000490,-5.614150,-80.765994
35544,NaN,0.940085,9.607072,-2.113838,0.064109,0.037185,0.068730,0.018826,0.005331,-0.008504,0.503384,0.571359,-0.526416,-0.378207,102.012569,-5.612197,-80.766316
35545,NaN,1.014309,9.579140,-2.127713,0.093535,-0.035885,0.051686,0.018726,0.004120,-0.012665,0.503304,0.571428,-0.526438,-0.378177,102.024605,-5.607534,-80.766526
35546,NaN,1.014751,9.610176,-2.092022,0.050507,-0.041935,0.074549,0.018676,0.003516,-0.014745,0.503217,0.571499,-0.526460,-0.378156,102.036648,-5.601895,-80.767367
35547,NaN,1.068496,9.577189,-2.068822,0.042273,-0.102499,0.042867,0.018365,0.003642,-0.021681,0.503120,0.571590,-0.526457,-0.378151,102.048397,-5.592122,-80.766763
35548,NaN,1.073340,9.539823,-2.039957,0.021658,-0.116906,0.000954,0.024149,0.014567,-0.030487,0.503017,0.571737,-0.526416,-0.378123,102.062816,-5.578980,-80.759475
35549,NaN,1.072984,9.586590,-1.986307,-0.042703,-0.126164,0.035240,0.032376,0.024971,-0.036912,0.502907,0.571944,-0.526342,-0.378059,102.081248,-5.563230,-80.745025
35550,NaN,1.087494,9.641433,-2.004259,-0.037984,-0.137346,0.093706,0.035659,0.039598,-0.044652,0.502810,0.572205,-0.526219,-0.377964,102.100757,-5.545154,-80.721887
35551,NaN,1.087829,9.622510,-1.992234,-0.048457,-0.144423,0.072749,0.044570,0.046624,-0.040678,0.502714,0.572494,-0.526103,-0.377816,102.124964,-5.529907,-80.694784
35552,NaN,1.030466,9.589094,-2.061763,0.012995,-0.081096,0.049194,0.045298,0.050034,-0.045400,0.502617,0.572801,-0.525968,-0.377666,102.149359,-5.512650,-80.665286
35553,NaN,1.029893,9.554422,-2.068628,0.023868,-0.085006,0.016813,0.041452,0.054375,-0.047965,0.502537,0.573116,-0.525806,-0.377522,102.171291,-5.494280,-80.632927
35554,NaN,0.924834,9.532185,-2.113046,0.051636,0.021245,-0.005562,0.034609,0.053911,-0.047510,0.502477,0.573411,-0.525634,-0.377394,102.189493,-5.476310,-80.600914
35555,NaN,0.855460,9.620102,-2.187231,0.089594,0.104462,0.088990,0.029596,0.046980,-0.041330,0.502424,0.573664,-0.525487,-0.377285,102.205124,-5.460781,-80.573513
35556,NaN,0.825087,9.636139,-2.201836,0.093226,0.135193,0.104825,0.018537,0.029811,-0.031178,0.502378,0.573830,-0.525390,-0.377227,102.215415,-5.449030,-80.556662
35557,NaN,0.877757,9.587827,-2.196510,0.106317,0.077784,0.061734,0.012261,0.024697,-0.024454,0.502348,0.573953,-0.525314,-0.377185,102.222509,-5.440260,-80.543845
35558,NaN,0.827287,9.567447,-2.210353,0.115012,0.127384,0.040061,0.008865,0.012612,-0.015314,0.502314,0.574019,-0.525290,-0.377164,102.228348,-5.435372,-80.539103
35559,NaN,0.946731,9.578953,-2.225120,0.145479,0.012349,0.065697,0.004198,-0.002012,-0.013257,0.502258,0.574042,-0.525299,-0.377192,102.232377,-5.429631,-80.542673
35560,NaN,1.037657,9.540382,-2.100774,0.048962,-0.102819,0.010545,0.006991,0.004140,-0.019064,0.502200,0.574096,-0.525283,-0.377210,102.237540,-5.421635,-80.542425
35561,NaN,1.074100,9.565709,-1.964721,-0.082328,-0.163484,0.009894,0.013151,0.011823,-0.024415,0.502133,0.574197,-0.525241,-0.377202,102.245834,-5.411327,-80.536851
35562,NaN,0.981596,9.651410,-2.034757,-0.050524,-0.057145,0.099309,0.013801,0.018377,-0.025676,0.502079,0.574311,-0.525185,-0.377179,102.254118,-5.401400,-80.528135
35563,NaN,0.909508,9.691449,-1.971887,-0.133363,0.002866,0.118170,0.023871,0.026742,-0.018769,0.502031,0.574452,-0.525143,-0.377087,102.267830,-5.396071,-80.514858
35564,NaN,0.931919,9.677672,-1.995693,-0.106212,-0.016706,0.111880,0.027614,0.010659,-0.010763,0.501945,0.574547,-0.525175,-0.377012,102.284634,-5.393543,-80.512213
35565,NaN,0.954671,9.566571,-2.097770,0.017567,-0.027943,0.027548,0.032481,0.005249,-0.013597,0.501827,0.574656,-0.525217,-0.376945,102.304477,-5.388494,-80.511653
35566,NaN,0.874380,9.514682,-2.182100,0.094316,0.061516,-0.012555,0.023837,-0.006900,-0.020335,0.501689,0.574736,-0.525255,-0.376953,102.319880,-5.378392,-80.517125
35567,NaN,0.990274,9.560282,-2.195326,0.113479,-0.049315,0.045496,0.022502,-0.001894,-0.016347,0.501575,0.574814,-0.525289,-0.376940,102.334349,-5.370931,-80.520240
35568,NaN,0.892315,9.550650,-2.185833,0.088556,0.043254,0.024959,0.014759,-0.003850,-0.011865,0.501485,0.574853,-0.525330,-0.376942,102.344583,-5.366001,-80.525563
35569,NaN,0.734361,9.560434,-2.253813,0.124450,0.210286,0.034198,0.007506,-0.011645,-0.005271,0.501410,0.574845,-0.525391,-0.376969,102.351099,-5.363543,-80.535520
35570,NaN,0.756645,9.628465,-2.216627,0.076333,0.185478,0.094535,-0.002331,-0.026932,0.009921,0.501350,0.574740,-0.525521,-0.377029,102.352927,-5.367986,-80.556563
35571,NaN,0.916755,9.731908,-2.245286,0.106625,0.040110,0.216211,-0.012577,-0.039537,0.019545,0.501305,0.574563,-0.525685,-0.377127,102.349692,-5.375999,-80.585254
35572,NaN,0.942113,9.571018,-2.172746,0.078121,-0.004843,0.046657,-0.020886,-0.032489,0.025376,0.501314,0.574363,-0.525837,-0.377211,102.341489,-5.388362,-80.611004
35573,NaN,0.898528,9.532386,-2.168181,0.076752,0.037334,0.004006,-0.027574,-0.034935,0.026543,0.501337,0.574139,-0.525982,-0.377317,102.329510,-5.400864,-80.637966
35574,NaN,0.920131,9.537948,-2.202429,0.114020,0.025076,0.018699,-0.036820,-0.034305,0.026696,0.501389,0.573891,-0.526111,-0.377446,102.312212,-5.413768,-80.664934
35575,NaN,0.968499,9.608854,-2.164627,0.072002,-0.022816,0.084179,-0.034346,-0.038576,0.023541,0.501417,0.573652,-0.526244,-0.377587,102.296522,-5.424158,-80.693571
35576,NaN,0.926957,9.617684,-2.102933,0.006555,0.010006,0.075754,-0.038711,-0.038979,0.028476,0.501465,0.573386,-0.526386,-0.377729,102.278499,-5.437486,-80.723302
35577,NaN,0.901134,9.634461,-2.112166,0.010214,0.040715,0.091573,-0.038542,-0.040905,0.029168,0.501509,0.573116,-0.526533,-0.377874,102.260607,-5.450760,-80.753931
35578,NaN,0.874736,9.554115,-2.199702,0.110515,0.079724,0.029385,-0.031094,-0.053135,0.021783,0.501486,0.572861,-0.526705,-0.378053,102.247680,-5.458626,-80.790758
35579,NaN,1.007316,9.526104,-2.147191,0.089079,-0.060548,0.003634,-0.021958,-0.059327,0.009826,0.501397,0.572649,-0.526874,-0.378256,102.240058,-5.458845,-80.829383
35580,NaN,1.091495,9.509077,-2.071079,0.034003,-0.157774,-0.020996,-0.014116,-0.045613,-0.000098,0.501303,0.572508,-0.526997,-0.378423,102.236181,-5.455384,-80.859281
35581,NaN,1.066566,9.604084,-1.989570,-0.069134,-0.142668,0.051858,-0.008085,-0.035394,-0.004069,0.501212,0.572413,-0.527092,-0.378556,102.235063,-5.450735,-80.882750
35582,NaN,1.038938,9.636188,-1.983013,-0.086867,-0.115050,0.079080,-0.006273,-0.023780,0.003148,0.501160,0.572326,-0.527182,-0.378630,102.234606,-5.451686,-80.900342
35583,NaN,1.033516,9.623453,-2.035423,-0.034371,-0.101165,0.077234,-0.006602,-0.019894,0.001752,0.501116,0.572248,-0.527258,-0.378699,102.233576,-5.452180,-80.915801
35584,NaN,0.959835,9.585263,-2.063367,-0.010365,-0.025407,0.038976,-0.008918,-0.013795,0.011151,0.501111,0.572149,-0.527345,-0.378734,102.231151,-5.458919,-80.929478
35585,NaN,0.932373,9.585903,-2.093705,0.014667,0.008419,0.043385,-0.010999,-0.012789,0.017784,0.501129,0.572032,-0.527441,-0.378755,102.227411,-5.469253,-80.942896
35586,NaN,0.957370,9.572561,-2.114326,0.041774,-0.011221,0.037135,-0.012964,-0.014329,0.023033,0.501157,0.571891,-0.527555,-0.378772,102.222832,-5.482583,-80.958282
35587,NaN,0.956533,9.606886,-2.109841,0.030194,-0.006689,0.069503,-0.015307,-0.012590,0.024807,0.501201,0.571744,-0.527662,-0.378786,102.216701,-5.496876,-80.972443
35588,NaN,0.931163,9.623266,-2.120814,0.033841,0.024046,0.085314,-0.019005,-0.020760,0.032536,0.501249,0.571554,-0.527804,-0.378812,102.209130,-5.514662,-80.991941
35589,NaN,0.960836,9.591392,-2.125352,0.050857,-0.002998,0.058104,-0.020902,-0.025444,0.034317,0.501293,0.571344,-0.527960,-0.378853,102.200608,-5.532728,-81.014487
35590,NaN,0.984805,9.628109,-2.122938,0.045343,-0.021500,0.095626,-0.027964,-0.024587,0.032017,0.501354,0.571123,-0.528096,-0.378916,102.188142,-5.549819,-81.036491
35591,NaN,0.993834,9.575563,-2.108288,0.046135,-0.032839,0.042300,-0.029379,-0.020797,0.031857,0.501430,0.570907,-0.528217,-0.378973,102.174494,-5.567078,-81.056118
35592,NaN,0.995450,9.560249,-2.124236,0.067132,-0.029420,0.030904,-0.032795,-0.022907,0.029320,0.501503,0.570682,-0.528333,-0.379052,102.159125,-5.582918,-81.077227
35593,NaN,1.076185,9.595798,-2.058674,0.010871,-0.115009,0.059612,-0.034312,-0.020328,0.025001,0.501581,0.570473,-0.528424,-0.379137,102.142554,-5.596404,-81.095750
35594,NaN,1.029077,9.576074,-2.068469,0.019663,-0.065466,0.037900,-0.030456,-0.010338,0.023517,0.501672,0.570297,-0.528493,-0.379185,102.127844,-5.610422,-81.108318
35595,NaN,1.088056,9.574948,-2.003875,-0.031457,-0.132237,0.029087,-0.020071,0.000252,0.014619,0.501744,0.570190,-0.528530,-0.379201,102.118184,-5.620578,-81.113997
35596,NaN,1.031162,9.642213,-2.023350,-0.035042,-0.066782,0.093060,-0.021047,-0.002391,0.014467,0.501810,0.570073,-0.528574,-0.379227,102.108285,-5.630564,-81.121607
35597,NaN,0.900287,9.605987,-2.112549,0.039873,0.075951,0.063598,-0.011733,-0.013705,-0.000275,0.501793,0.570000,-0.528619,-0.379297,102.103997,-5.630700,-81.133342
35598,NaN,1.047407,9.585448,-2.132565,0.087288,-0.066443,0.062214,-0.018471,-0.016725,-0.001182,0.501785,0.569906,-0.528658,-0.379395,102.096194,-5.630162,-81.146787
35599,NaN,1.045569,9.570294,-2.149614,0.108317,-0.063076,0.050825,-0.019499,-0.009438,-0.012970,0.501777,0.569854,-0.528641,-0.379505,102.087070,-5.623700,-81.154589
35600,NaN,1.050339,9.599164,-2.076089,0.033719,-0.079391,0.064046,-0.023195,-0.007065,-0.014810,0.501783,0.569804,-0.528606,-0.379622,102.075833,-5.616660,-81.160744
35601,NaN,0.973616,9.546248,-2.120996,0.079242,-0.000637,0.014374,-0.026614,-0.009174,-0.017347,0.501788,0.569746,-0.528563,-0.379761,102.062566,-5.607781,-81.167872
35602,NaN,1.021956,9.582704,-2.087028,0.048294,-0.052639,0.047494,-0.026836,-0.004082,-0.014572,0.501812,0.569691,-0.528516,-0.379879,102.049082,-5.601268,-81.172585
35603,NaN,1.024743,9.580408,-2.050472,0.016468,-0.062797,0.037923,-0.025688,-0.007122,-0.019280,0.501816,0.569645,-0.528463,-0.380015,102.036208,-5.591554,-81.178329
35604,NaN,1.003103,9.575794,-2.011278,-0.021466,-0.049843,0.023182,-0.019815,-0.009286,-0.019916,0.501796,0.569610,-0.528429,-0.380143,102.026952,-5.581449,-81.185504
35605,NaN,1.021222,9.597303,-2.027888,-0.005614,-0.065270,0.049319,-0.018021,-0.005799,-0.025854,0.501769,0.569603,-0.528369,-0.380272,102.018320,-5.568211,-81.189718
35606,NaN,0.964999,9.580838,-2.072967,0.034717,-0.005299,0.037167,-0.020081,-0.008540,-0.024774,0.501743,0.569583,-0.528316,-0.380409,102.008892,-5.555438,-81.195684
35607,NaN,0.997846,9.527783,-2.028306,0.010115,-0.050170,-0.020560,-0.016443,-0.007766,-0.019467,0.501718,0.569560,-0.528283,-0.380523,102.001344,-5.545547,-81.201775
35608,NaN,1.015953,9.630215,-1.985763,-0.049462,-0.070498,0.072101,-0.008363,0.005165,-0.024486,0.501696,0.569594,-0.528219,-0.380590,101.997843,-5.534566,-81.200022
35609,NaN,0.986929,9.662504,-1.978756,-0.067135,-0.042842,0.099282,-0.001101,0.017255,-0.023413,0.501686,0.569668,-0.528140,-0.380602,101.997681,-5.525445,-81.191554
35610,NaN,0.954027,9.616637,-2.066097,0.022039,0.000175,0.069526,0.004431,0.022716,-0.019876,0.501682,0.569757,-0.528068,-0.380572,102.000645,-5.519097,-81.180161
35611,NaN,0.922250,9.586304,-2.134807,0.089883,0.040093,0.051160,0.002040,0.023855,-0.020180,0.501688,0.569842,-0.527988,-0.380549,102.001964,-5.512574,-81.168363
35612,NaN,0.927995,9.549185,-2.104133,0.069295,0.025674,0.009228,0.002746,0.027248,-0.024883,0.501692,0.569950,-0.527887,-0.380523,102.003624,-5.503958,-81.153736
35613,NaN,0.938638,9.592062,-2.171429,0.126739,0.028021,0.065923,-0.007838,0.017988,-0.018780,0.501712,0.569995,-0.527807,-0.380540,101.999619,-5.497521,-81.145409
35614,NaN,0.938938,9.623656,-2.132723,0.083622,0.022211,0.088696,-0.014019,0.009740,-0.015537,0.501734,0.570000,-0.527747,-0.380587,101.992672,-5.492128,-81.142310
35615,NaN,0.970019,9.604812,-2.084438,0.047743,-0.018362,0.063325,-0.022119,0.011099,-0.014518,0.501786,0.569985,-0.527669,-0.380650,101.980906,-5.487258,-81.138372
35616,NaN,0.963506,9.592914,-2.134918,0.100253,-0.004570,0.061529,-0.025482,0.009592,-0.014978,0.501841,0.569958,-0.527590,-0.380726,101.967410,-5.482175,-81.135576
35617,NaN,0.991627,9.608500,-2.082295,0.053099,-0.040836,0.068510,-0.029818,0.005439,-0.015594,0.501897,0.569916,-0.527509,-0.380828,101.951526,-5.476027,-81.134700
35618,NaN,0.990013,9.609328,-2.079239,0.052716,-0.040529,0.068513,-0.032474,0.007327,-0.020757,0.501955,0.569885,-0.527404,-0.380943,101.934202,-5.467378,-81.132105
35619,NaN,1.021027,9.606438,-2.010672,-0.004556,-0.084144,0.054524,-0.035935,0.004629,-0.025386,0.502008,0.569852,-0.527285,-0.381088,101.914746,-5.455645,-81.130524
35620,NaN,0.974375,9.583992,-1.986195,-0.027129,-0.045036,0.023192,-0.030244,0.008150,-0.021150,0.502062,0.569829,-0.527180,-0.381195,101.898527,-5.446865,-81.127258
35621,NaN,1.016801,9.608175,-2.004508,-0.005259,-0.083544,0.054528,-0.028448,0.011660,-0.027089,0.502109,0.569833,-0.527053,-0.381304,101.882968,-5.435006,-81.121523
35622,NaN,0.938466,9.620607,-2.008056,-0.013670,-0.006644,0.059945,-0.028564,0.014207,-0.025699,0.502166,0.569839,-0.526922,-0.381400,101.867446,-5.424360,-81.114192
35623,NaN,0.955200,9.611285,-2.061316,0.044919,-0.015985,0.063342,-0.022003,0.019180,-0.025468,0.502217,0.569869,-0.526793,-0.381467,101.855200,-5.414293,-81.104418
35624,NaN,1.003383,9.566988,-2.087176,0.089296,-0.063105,0.029994,-0.023353,0.019836,-0.029095,0.502267,0.569906,-0.526650,-0.381543,101.842289,-5.402445,-81.093816
35625,NaN,0.949091,9.581676,-2.094155,0.086984,-0.009306,0.040592,-0.022549,0.024436,-0.029629,0.502325,0.569955,-0.526495,-0.381606,101.829411,-5.390658,-81.080596
35626,NaN,0.924299,9.611122,-2.051129,0.037798,0.007999,0.058160,-0.023755,0.026877,-0.027004,0.502399,0.570000,-0.526339,-0.381657,101.815948,-5.380784,-81.066139
35627,NaN,0.917754,9.615018,-2.082640,0.068960,0.018682,0.067754,-0.024888,0.026185,-0.027858,0.502472,0.570042,-0.526180,-0.381718,101.801662,-5.370188,-81.052149
35628,NaN,0.865722,9.660692,-2.051733,0.023843,0.066436,0.101095,-0.026375,0.022510,-0.014984,0.502564,0.570041,-0.526064,-0.381758,101.787093,-5.366541,-81.041649
35629,NaN,0.888070,9.648258,-2.070681,0.050935,0.046678,0.094911,-0.028142,0.015274,-0.014618,0.502643,0.570019,-0.525964,-0.381825,101.771666,-5.362088,-81.035366
35630,NaN,0.921781,9.579840,-2.043409,0.047659,0.004856,0.025821,-0.036613,0.009332,-0.007537,0.502744,0.569947,-0.525883,-0.381910,101.752010,-5.361048,-81.032980
35631,NaN,0.946775,9.614084,-2.005118,0.010578,-0.024000,0.053761,-0.034721,0.014043,-0.009302,0.502849,0.569893,-0.525788,-0.381985,101.732937,-5.359430,-81.028017
35632,NaN,0.943242,9.649077,-1.998018,-0.001074,-0.019359,0.086105,-0.035641,0.011993,-0.007382,0.502955,0.569828,-0.525702,-0.382060,101.713633,-5.358799,-81.024188
35633,NaN,0.970011,9.618052,-2.000990,0.015902,-0.046482,0.058959,-0.034793,0.017187,-0.005826,0.503075,0.569770,-0.525609,-0.382117,101.694392,-5.359494,-81.017860
35634,NaN,0.921594,9.614000,-1.991495,0.003476,-0.000011,0.048569,-0.038440,0.020172,-0.005590,0.503214,0.569709,-0.525502,-0.382171,101.673099,-5.360810,-81.009597
35635,NaN,0.915537,9.587082,-2.059443,0.077424,0.016707,0.035428,-0.038948,0.011097,-0.005778,0.503329,0.569629,-0.525417,-0.382256,101.651798,-5.360821,-81.006706
35636,NaN,0.920157,9.600128,-2.002926,0.024172,0.003607,0.037199,-0.032652,0.016838,-0.010387,0.503435,0.569590,-0.525314,-0.382316,101.633900,-5.359034,-80.999551
35637,NaN,0.970016,9.556092,-2.027792,0.068561,-0.043588,0.003889,-0.036474,0.006842,-0.008963,0.503526,0.569516,-0.525235,-0.382414,101.614206,-5.356764,-80.998689
35638,NaN,0.962441,9.609850,-2.035853,0.067001,-0.031579,0.057203,-0.034627,0.010966,-0.012807,0.503615,0.569465,-0.525140,-0.382504,101.595529,-5.352988,-80.995072
35639,NaN,0.911835,9.670858,-1.985412,0.000551,0.013183,0.101878,-0.030843,0.009758,-0.006791,0.503702,0.569405,-0.525071,-0.382574,101.578931,-5.352273,-80.992819
35640,NaN,0.911526,9.671506,-1.982391,0.000176,0.013488,0.101878,-0.029663,0.011049,-0.003853,0.503796,0.569346,-0.525007,-0.382626,101.563190,-5.353461,-80.989622
35641,NaN,0.904878,9.629096,-2.070134,0.095528,0.033191,0.077384,-0.030796,0.010356,-0.004709,0.503888,0.569282,-0.524942,-0.382689,101.546610,-5.353982,-80.987273
35642,NaN,0.942696,9.541760,-2.028217,0.082141,-0.016012,-0.012661,-0.028324,0.006093,-0.007890,0.503956,0.569225,-0.524884,-0.382763,101.531885,-5.352379,-80.986838
35643,NaN,0.987848,9.596944,-2.008554,0.061139,-0.060554,0.041452,-0.028534,0.007461,-0.010665,0.504023,0.569177,-0.524814,-0.382843,101.516690,-5.349224,-80.985436
35644,NaN,0.988517,9.628496,-1.967792,0.017976,-0.066259,0.064184,-0.031635,0.005183,-0.006283,0.504102,0.569106,-0.524756,-0.382924,101.500035,-5.348429,-80.985642
35645,NaN,1.016405,9.628240,-1.933793,-0.007858,-0.099416,0.059785,-0.023577,0.018173,-0.011226,0.504182,0.569092,-0.524667,-0.382962,101.487112,-5.346181,-80.978136
35646,NaN,0.959559,9.646040,-1.974642,0.021359,-0.035213,0.079954,-0.028270,0.021637,-0.007671,0.504291,0.569065,-0.524570,-0.382991,101.471545,-5.346472,-80.968849
35647,NaN,0.864943,9.683015,-1.903887,-0.067193,0.048408,0.093211,-0.021344,0.023286,-0.003946,0.504392,0.569047,-0.524492,-0.382991,101.459710,-5.348891,-80.959293
35648,NaN,0.859782,9.655987,-1.973352,0.006727,0.065080,0.080095,-0.026082,0.015515,0.007041,0.504508,0.568977,-0.524456,-0.382993,101.445957,-5.356709,-80.954944
35649,NaN,0.915866,9.608418,-1.964778,0.019593,0.007484,0.037207,-0.031116,0.007938,0.011079,0.504625,0.568866,-0.524441,-0.383024,101.429489,-5.365816,-80.955759
35650,NaN,0.944225,9.577176,-1.968434,0.036526,-0.019646,0.010086,-0.029524,0.002197,0.011900,0.504724,0.568746,-0.524448,-0.383063,101.414401,-5.374910,-80.959857
35651,NaN,0.942370,9.611854,-1.961678,0.024891,-0.014993,0.042420,-0.032545,-0.003205,0.012787,0.504819,0.568605,-0.524463,-0.383124,101.397722,-5.383715,-80.967147
35652,NaN,0.919459,9.609862,-1.956018,0.018520,0.008396,0.037209,-0.026164,0.003708,0.012376,0.504915,0.568498,-0.524471,-0.383147,101.384553,-5.393182,-80.969941
35653,NaN,0.943536,9.677610,-1.914673,-0.029929,-0.016015,0.097470,-0.025367,-0.002343,0.021372,0.505008,0.568355,-0.524522,-0.383166,101.372035,-5.406910,-80.977715
35654,NaN,0.925114,9.656650,-1.894274,-0.046409,0.000021,0.071281,-0.025366,-0.002338,0.021370,0.505102,0.568214,-0.524573,-0.383181,101.359790,-5.420761,-80.985123
35655,NaN,0.901889,9.623696,-1.927052,-0.009927,0.029382,0.043351,-0.022722,-0.004263,0.026534,0.505193,0.568060,-0.524650,-0.383185,101.348948,-5.437175,-80.994561
35656,NaN,0.918530,9.602453,-2.033806,0.101495,0.033265,0.045089,-0.022676,-0.003673,0.028618,0.505290,0.567905,-0.524729,-0.383178,101.338421,-5.454935,-81.003446
35657,NaN,0.974372,9.619455,-1.984161,0.060226,-0.025950,0.057263,-0.025273,-0.001150,0.025537,0.505394,0.567753,-0.524790,-0.383183,101.325945,-5.471144,-81.011008
35658,NaN,0.928118,9.599499,-1.994963,0.069279,0.023515,0.035475,-0.026439,0.001869,0.030256,0.505518,0.567593,-0.524854,-0.383168,101.312932,-5.490489,-81.017213
35659,NaN,0.883402,9.610283,-1.967790,0.035570,0.066996,0.036393,-0.026315,-0.000661,0.028849,0.505633,0.567431,-0.524921,-0.383165,101.299873,-5.508616,-81.024866
35660,NaN,0.928376,9.668355,-1.981976,0.045952,0.032866,0.100133,-0.031012,-0.007836,0.041899,0.505768,0.567211,-0.525033,-0.383159,101.284883,-5.533394,-81.037672
35661,NaN,0.919889,9.624981,-1.912069,-0.012069,0.031192,0.043343,-0.028575,-0.008390,0.044288,0.505899,0.566988,-0.525158,-0.383145,101.271124,-5.559334,-81.051417
35662,NaN,0.944031,9.631018,-1.946131,0.025031,0.018753,0.058186,-0.032599,-0.012711,0.050564,0.506040,0.566730,-0.525306,-0.383136,101.255653,-5.588472,-81.068252
35663,NaN,0.951835,9.612300,-1.928356,0.014597,0.011687,0.037212,-0.026584,-0.021138,0.042958,0.506129,0.566491,-0.525464,-0.383157,101.243734,-5.612247,-81.089034
35664,NaN,0.976366,9.633571,-1.944029,0.030298,-0.003730,0.063410,-0.024862,-0.025118,0.050022,0.506217,0.566231,-0.525655,-0.383163,101.233299,-5.639684,-81.112544
35665,NaN,0.967413,9.574586,-1.894032,-0.006306,-0.002425,-0.004737,-0.020247,-0.025458,0.049949,0.506289,0.565981,-0.525855,-0.383162,101.225348,-5.666913,-81.136543
35666,NaN,0.936967,9.628718,-1.934705,0.017642,0.043057,0.052962,-0.019985,-0.026222,0.054793,0.506368,0.565718,-0.526073,-0.383147,101.217842,-5.696948,-81.161496
35667,NaN,0.985893,9.636758,-1.972883,0.060756,0.007501,0.073040,-0.018586,-0.026292,0.060493,0.506454,0.565443,-0.526308,-0.383117,101.211031,-5.730016,-81.187143
35668,NaN,1.012743,9.672982,-1.970381,0.055035,-0.010878,0.110592,-0.015611,-0.017761,0.063102,0.506558,0.565184,-0.526537,-0.383046,101.205671,-5.765677,-81.208323
35669,NaN,1.023272,9.588962,-1.995964,0.098738,-0.016409,0.034603,-0.015443,-0.019691,0.063771,0.506659,0.564921,-0.526771,-0.382980,101.200352,-5.801328,-81.230604
35670,NaN,1.132550,9.560026,-1.975910,0.102020,-0.123177,0.013573,-0.018356,-0.013247,0.059337,0.506776,0.564675,-0.526971,-0.382913,101.193211,-5.835352,-81.248662
35671,NaN,1.108893,9.641150,-1.944532,0.051661,-0.093963,0.084338,-0.016871,-0.005811,0.052074,0.506894,0.564465,-0.527134,-0.382841,101.186168,-5.865976,-81.261787
35672,NaN,1.146329,9.636004,-1.877754,-0.005800,-0.137376,0.070313,-0.016251,-0.003557,0.043228,0.506999,0.564285,-0.527269,-0.382781,101.179561,-5.892027,-81.272607
35673,NaN,1.143914,9.688894,-1.887491,-0.007374,-0.125318,0.123613,-0.012060,-0.001193,0.037631,0.507089,0.564134,-0.527388,-0.382721,101.174851,-5.915049,-81.281504
35674,NaN,1.101393,9.650113,-1.884398,-0.008371,-0.083224,0.080831,-0.015015,0.000937,0.025544,0.507169,0.564013,-0.527464,-0.382690,101.168467,-5.931659,-81.287715
35675,NaN,1.104342,9.585385,-1.925076,0.045436,-0.081425,0.025829,-0.012883,-0.003159,0.015423,0.507213,0.563915,-0.527524,-0.382693,101.163150,-5.941980,-81.295243
35676,NaN,1.130365,9.603020,-1.907772,0.029576,-0.107155,0.042410,-0.012107,-0.002869,0.007261,0.507239,0.563842,-0.527563,-0.382711,101.158455,-5.947902,-81.301654
35677,NaN,1.127000,9.622141,-1.921622,0.039324,-0.099502,0.063391,-0.012788,0.000633,-0.003109,0.507257,0.563800,-0.527562,-0.382750,101.152757,-5.948228,-81.304972
35678,NaN,0.998567,9.649086,-1.936123,0.029372,0.030991,0.079165,-0.011035,0.003561,-0.011091,0.507263,0.563790,-0.527535,-0.382795,101.147989,-5.944565,-81.305729
35679,NaN,0.995892,9.618844,-1.973105,0.071871,0.037179,0.056485,-0.010716,-0.000339,-0.009738,0.507260,0.563769,-0.527521,-0.382848,101.143458,-5.941058,-81.308857
35680,NaN,1.074159,9.668123,-1.889406,-0.006452,-0.050924,0.096583,-0.013629,0.006089,-0.014158,0.507274,0.563766,-0.527474,-0.382900,101.137144,-5.935920,-81.307747
35681,NaN,0.976370,9.659560,-1.876438,-0.030581,0.041743,0.075626,-0.015692,0.003352,-0.013110,0.507288,0.563748,-0.527432,-0.382964,101.129507,-5.930926,-81.308415
35682,NaN,0.999584,9.582250,-1.938744,0.050562,0.023375,0.014535,-0.018683,-0.001438,-0.010158,0.507303,0.563707,-0.527407,-0.383041,101.120760,-5.927218,-81.312098
35683,NaN,1.067461,9.608385,-1.960627,0.078145,-0.038251,0.051237,-0.018522,-0.003387,-0.009483,0.507315,0.563660,-0.527386,-0.383122,101.111937,-5.923520,-81.316980
35684,NaN,1.027272,9.596961,-1.885200,0.002836,-0.012343,0.021476,-0.013587,0.010392,-0.006493,0.507353,0.563643,-0.527352,-0.383143,101.105480,-5.923201,-81.314609
35685,NaN,1.019843,9.635117,-1.913813,0.022680,0.002671,0.063431,-0.013536,0.010979,-0.004408,0.507399,0.563623,-0.527319,-0.383159,101.098734,-5.923941,-81.311934
35686,NaN,1.018879,9.620205,-1.931177,0.043717,0.005923,0.052097,-0.018413,0.015843,-0.003608,0.507471,0.563598,-0.527269,-0.383169,101.089164,-5.925835,-81.306628
35687,NaN,1.015314,9.639515,-1.944286,0.053469,0.013576,0.073076,-0.018092,0.011942,-0.002258,0.507536,0.563562,-0.527231,-0.383188,101.079776,-5.927890,-81.303646
35688,NaN,1.010912,9.643603,-1.976316,0.084598,0.024186,0.082721,-0.021452,0.010469,-0.002746,0.507604,0.563515,-0.527192,-0.383221,101.068788,-5.929704,-81.301756
35689,NaN,1.017108,9.590922,-1.963297,0.085501,0.012691,0.029434,-0.019885,0.004718,-0.001949,0.507655,0.563460,-0.527170,-0.383264,101.058798,-5.931137,-81.302892
35690,NaN,1.021282,9.587651,-1.927294,0.053610,0.002720,0.019791,-0.019934,0.004135,-0.004035,0.507701,0.563410,-0.527144,-0.383312,101.048980,-5.931488,-81.303968
35691,NaN,1.045269,9.590314,-1.928245,0.059200,-0.020081,0.025042,-0.018747,0.005408,-0.001092,0.507753,0.563357,-0.527124,-0.383349,101.039611,-5.933479,-81.304808
35692,NaN,1.073641,9.589268,-1.895164,0.033213,-0.053142,0.020648,-0.019773,0.002187,-0.003362,0.507793,0.563301,-0.527107,-0.383401,101.030119,-5.934008,-81.307325
35693,NaN,1.071362,9.639075,-1.870221,0.000105,-0.051331,0.064289,-0.016124,0.013527,-0.007476,0.507847,0.563287,-0.527054,-0.383423,101.021706,-5.933298,-81.302870
35694,NaN,1.094919,9.641719,-1.871473,0.005637,-0.074105,0.069543,-0.013949,0.013733,-0.009933,0.507889,0.563285,-0.527000,-0.383444,101.014754,-5.931401,-81.298124
35695,NaN,1.048883,9.603346,-1.868374,0.004787,-0.032056,0.026732,-0.013851,0.014903,-0.005761,0.507943,0.563275,-0.526953,-0.383453,101.007582,-5.931806,-81.293080
35696,NaN,1.094129,9.642373,-1.868562,0.004901,-0.073487,0.069548,-0.011787,0.017646,-0.006806,0.507996,0.563279,-0.526900,-0.383448,101.001656,-5.932075,-81.286232
35697,NaN,1.117064,9.629747,-1.889049,0.031903,-0.093370,0.063477,-0.013241,0.020869,-0.009015,0.508057,0.563291,-0.526830,-0.383447,100.994448,-5.931300,-81.277457
35698,NaN,1.089745,9.582214,-1.941830,0.089874,-0.061226,0.024246,-0.015608,0.018335,-0.014908,0.508107,0.563309,-0.526745,-0.383470,100.986289,-5.927064,-81.269242
35699,NaN,1.120985,9.577519,-1.875000,0.032406,-0.104568,0.010201,-0.012648,0.018853,-0.025525,0.508130,0.563361,-0.526635,-0.383514,100.979353,-5.916781,-81.259795
35700,NaN,1.143668,9.595601,-1.857144,0.016495,-0.130255,0.026788,-0.015556,0.025305,-0.029946,0.508169,0.563431,-0.526492,-0.383558,100.970576,-5.904886,-81.246274
35701,NaN,1.061541,9.627265,-1.876884,0.018588,-0.045952,0.052977,-0.015489,0.022195,-0.033448,0.508194,0.563503,-0.526345,-0.383620,100.961734,-5.890507,-81.234073
35702,NaN,1.032575,9.674954,-1.849275,-0.020496,-0.020997,0.091348,-0.013103,0.021038,-0.033144,0.508209,0.563582,-0.526206,-0.383675,100.954625,-5.876288,-81.222136
35703,NaN,0.980632,9.655746,-1.861065,-0.011221,0.028402,0.069504,-0.017593,0.018885,-0.034501,0.508229,0.563645,-0.526060,-0.383755,100.944764,-5.860953,-81.211696
35704,NaN,0.926285,9.670618,-1.868840,-0.013345,0.082265,0.079960,-0.012159,0.013018,-0.023515,0.508239,0.563685,-0.525970,-0.383806,100.938808,-5.851270,-81.205357
35705,NaN,0.971362,9.645312,-1.911189,0.040998,0.042171,0.067838,-0.015056,0.009376,-0.016399,0.508262,0.563689,-0.525905,-0.383860,100.931154,-5.845083,-81.202277
35706,NaN,1.020997,9.616286,-1.919296,0.063769,-0.008169,0.046063,-0.017003,0.004097,-0.016773,0.508275,0.563681,-0.525849,-0.383932,100.922938,-5.838259,-81.202000
35707,NaN,1.015186,9.620522,-1.951805,0.094950,0.002381,0.055725,-0.013806,0.007531,-0.016953,0.508287,0.563686,-0.525789,-0.383990,100.916101,-5.831559,-81.199904
35708,NaN,1.050112,9.596807,-1.870016,0.027322,-0.048271,0.020691,-0.016143,0.009278,-0.015175,0.508314,0.563685,-0.525726,-0.384042,100.908167,-5.826197,-81.196962
35709,NaN,1.022422,9.644231,-1.842628,-0.011708,-0.023304,0.059046,-0.009681,0.013031,-0.019035,0.508326,0.563717,-0.525654,-0.384078,100.903355,-5.818921,-81.191530
35710,NaN,1.013171,9.667353,-1.890438,0.029513,-0.005386,0.089690,-0.011974,0.015357,-0.015169,0.508358,0.563740,-0.525582,-0.384100,100.897392,-5.814173,-81.184633
35711,NaN,0.937735,9.709984,-1.857515,-0.021304,0.065788,0.117505,-0.012650,0.012497,-0.008419,0.508397,0.563736,-0.525535,-0.384119,100.891027,-5.812811,-81.180660
35712,NaN,1.017629,9.694570,-1.815601,-0.045623,-0.020788,0.102662,-0.010338,0.014448,-0.004609,0.508441,0.563730,-0.525501,-0.384114,100.886197,-5.813972,-81.176104
35713,NaN,0.994134,9.612756,-1.873038,0.023818,0.006801,0.031145,-0.012677,0.016194,-0.002831,0.508501,0.563718,-0.525461,-0.384109,100.879667,-5.816154,-81.170649
35714,NaN,1.016835,9.585061,-1.912472,0.072185,-0.010219,0.013786,-0.016843,0.010120,-0.002843,0.508555,0.563685,-0.525430,-0.384128,100.871452,-5.817801,-81.168486
35715,NaN,0.989133,9.602024,-1.922912,0.076042,0.020532,0.029499,-0.017610,0.006101,-0.000270,0.508607,0.563634,-0.525413,-0.384157,100.862703,-5.820332,-81.169017
35716,NaN,0.935177,9.665962,-1.907244,0.041170,0.075990,0.083548,-0.019233,-0.003097,0.000701,0.508642,0.563562,-0.525418,-0.384210,100.853813,-5.822510,-81.174233
35717,NaN,0.932577,9.700464,-1.901158,0.029474,0.080767,0.115843,-0.021044,-0.006645,0.006587,0.508683,0.563460,-0.525446,-0.384266,100.843903,-5.827526,-81.182716
35718,NaN,0.905649,9.717417,-1.911285,0.033285,0.111545,0.131549,-0.022695,-0.012150,0.013147,0.508726,0.563326,-0.525506,-0.384324,100.833717,-5.835795,-81.195033
35719,NaN,0.989043,9.652727,-1.891560,0.041789,0.023345,0.073114,-0.028592,-0.010495,0.011663,0.508788,0.563184,-0.525544,-0.384398,100.819762,-5.843256,-81.206241
35720,NaN,1.048138,9.585724,-1.868843,0.044361,-0.041741,0.009408,-0.028475,-0.013024,0.010245,0.508841,0.563042,-0.525585,-0.384480,100.806256,-5.849787,-81.218569
35721,NaN,1.101397,9.586974,-1.837922,0.024248,-0.097877,0.010293,-0.024351,-0.007527,0.008172,0.508892,0.562926,-0.525614,-0.384544,100.794523,-5.855607,-81.227718
35722,NaN,1.126599,9.604865,-1.819301,0.008277,-0.123540,0.026885,-0.023182,0.003857,-0.000402,0.508953,0.562859,-0.525592,-0.384591,100.783029,-5.857936,-81.229200
35723,NaN,1.123435,9.639468,-1.812856,-0.003436,-0.118751,0.059181,-0.020764,0.013390,-0.009529,0.509015,0.562838,-0.525525,-0.384631,100.771950,-5.856037,-81.224606
35724,NaN,1.043051,9.670885,-1.832374,-0.001293,-0.034407,0.085311,-0.016685,0.018310,-0.013688,0.509069,0.562848,-0.525443,-0.384656,100.763163,-5.852495,-81.216937
35725,NaN,1.069695,9.654661,-1.818593,-0.005846,-0.064564,0.069610,-0.014025,0.012652,-0.014125,0.509101,0.562855,-0.525378,-0.384693,100.755937,-5.847928,-81.212267
35726,NaN,0.973001,9.660711,-1.786905,-0.051175,0.025287,0.059791,-0.014053,0.016340,-0.008532,0.509155,0.562858,-0.525317,-0.384700,100.748890,-5.846985,-81.205499
35727,NaN,1.073682,9.587062,-1.824465,0.016140,-0.072948,0.005034,-0.006760,0.006613,-0.014615,0.509150,0.562873,-0.525280,-0.384736,100.746171,-5.841497,-81.204194
35728,NaN,1.039469,9.592763,-1.889126,0.072938,-0.029094,0.019109,-0.005108,0.012130,-0.021171,0.509142,0.562922,-0.525213,-0.384765,100.744282,-5.833046,-81.198885
35729,NaN,1.090569,9.609049,-1.841146,0.031347,-0.088078,0.031308,0.001588,0.010817,-0.027852,0.509099,0.563001,-0.525144,-0.384801,100.745961,-5.820555,-81.193780
35730,NaN,1.111441,9.596639,-1.862832,0.058257,-0.108004,0.025293,-0.002570,0.019145,-0.031716,0.509080,0.563096,-0.525037,-0.384833,100.745045,-5.806955,-81.183771
35731,NaN,0.983722,9.588940,-1.882845,0.060138,0.018021,0.008547,0.001230,0.028571,-0.035130,0.509071,0.563227,-0.524902,-0.384838,100.745427,-5.792264,-81.167839
35732,NaN,0.924203,9.686861,-1.864361,0.013908,0.078050,0.094834,-0.001348,0.020990,-0.026679,0.509065,0.563318,-0.524804,-0.384846,100.745172,-5.781633,-81.156765
35733,NaN,0.814298,9.719423,-1.916761,0.041830,0.195692,0.125330,-0.005543,0.018601,-0.021108,0.509076,0.563377,-0.524720,-0.384861,100.742398,-5.773770,-81.147981
35734,NaN,0.944737,9.674696,-1.884835,0.040508,0.058421,0.088819,-0.009411,0.016545,-0.006506,0.509120,0.563384,-0.524675,-0.384853,100.737867,-5.774062,-81.141799
35735,NaN,0.982715,9.601347,-1.826749,0.005715,0.006184,0.010170,-0.012966,0.016459,-0.009773,0.509167,0.563389,-0.524614,-0.384865,100.731086,-5.772350,-81.135444
35736,NaN,1.080880,9.562077,-1.859680,0.061571,-0.087585,-0.012250,-0.011875,0.016570,-0.010999,0.509210,0.563403,-0.524552,-0.384873,100.725152,-5.770082,-81.128583
35737,NaN,1.025181,9.610757,-1.863511,0.048226,-0.029209,0.030440,-0.013047,0.015316,-0.013955,0.509247,0.563417,-0.524482,-0.384899,100.718345,-5.765893,-81.122427
35738,NaN,1.100742,9.614474,-1.836383,0.033852,-0.108408,0.036635,-0.008604,0.016903,-0.014675,0.509274,0.563449,-0.524415,-0.384908,100.714245,-5.761608,-81.115172
35739,NaN,1.024244,9.641678,-1.822845,0.004586,-0.034277,0.053041,-0.011147,0.020037,-0.015662,0.509314,0.563481,-0.524332,-0.384920,100.708241,-5.756960,-81.106163
35740,NaN,1.095348,9.649346,-1.829695,0.021732,-0.103269,0.068927,-0.010258,0.021539,-0.019650,0.509348,0.563529,-0.524238,-0.384934,100.702866,-5.750394,-81.095976
35741,NaN,1.021700,9.642311,-1.820921,0.003855,-0.033653,0.053043,0.001131,0.025262,-0.014504,0.509369,0.563600,-0.524168,-0.384896,100.703615,-5.746951,-81.084135
