// General information: 
//  MT Manager version: 2019.0.1 
//  XDA version: 2019.0.1 build 2740 rev 84096 built on 2019-01-30
// Device information: 
//  DeviceId: 00B4381A
//  ProductCode: MTW2-3A7G6
//  Firmware Version: 4.3.4
//  Hardware Version: 1.1.0
// Device settings: 
//  Filter Profile: human(46.1)
//  Option Flags: Orientation Smoother Disabled, AHS Disabled, ICC Disabled
// Coordinate system: ENU
PacketCounter,SampleTimeFine,Acc_X,Acc_Y,Acc_Z,FreeAcc_E,FreeAcc_N,FreeAcc_U,Gyr_X,Gyr_Y,Gyr_Z,Quat_q0,Quat_q1,Quat_q2,Quat_q3,Roll,Pitch,Yaw
34085,NaN,-1.193431,9.498615,-1.610813,0.129629,0.029213,-0.105729,0.014315,0.006930,0.008007,-0.176309,-0.125017,-0.756034,-0.617817,100.110083,6.437320,155.828455
34086,NaN,-1.180697,9.514018,-1.640770,0.105981,0.013414,-0.086882,0.016684,0.006360,0.006160,-0.176290,-0.125020,-0.756127,-0.617708,100.126720,6.438825,155.830560
34087,NaN,-1.193510,9.571826,-1.637480,0.118372,0.025461,-0.029488,0.017576,0.002731,0.012845,-0.176269,-0.125060,-0.756210,-0.617604,100.142593,6.437408,155.829390
34088,NaN,-1.187752,9.564499,-1.661908,0.104077,0.007133,-0.033042,0.015482,0.002780,0.003094,-0.176273,-0.125062,-0.756299,-0.617495,100.158349,6.441002,155.829775
34089,NaN,-1.210340,9.569734,-1.669796,0.121299,-0.005626,-0.024010,0.010311,-0.003239,0.002590,-0.176329,-0.125096,-0.756358,-0.617399,100.170027,6.446018,155.823156
34090,NaN,-1.207877,9.599527,-1.653263,0.125422,0.018123,0.001950,0.005461,-0.009591,0.008018,-0.176371,-0.125146,-0.756402,-0.617324,100.179197,6.448088,155.816021
34091,NaN,-1.161546,9.588705,-1.640334,0.089346,0.047669,-0.016112,0.005119,-0.011692,0.008507,-0.176442,-0.125222,-0.756433,-0.617249,100.187122,6.450651,155.804200
34092,NaN,-1.138440,9.583240,-1.634134,0.071182,0.063213,-0.025151,0.007166,-0.011929,0.000730,-0.176514,-0.125253,-0.756484,-0.617160,100.197202,6.457070,155.796483
34093,NaN,-1.145686,9.560393,-1.629207,0.079984,0.062032,-0.047556,0.009306,-0.007106,-0.002364,-0.176612,-0.125291,-0.756539,-0.617057,100.208224,6.465513,155.786215
34094,NaN,-1.123437,9.554796,-1.623194,0.061824,0.077572,-0.056604,0.006129,-0.010689,-0.007356,-0.176705,-0.125286,-0.756593,-0.616965,100.217880,6.476369,155.780030
34095,NaN,-1.096157,9.542051,-1.639988,0.029576,0.073318,-0.069197,0.009109,-0.006820,-0.000477,-0.176808,-0.125342,-0.756644,-0.616861,100.228752,6.483981,155.767767
34096,NaN,-1.091666,9.534695,-1.663608,0.015275,0.054991,-0.072745,0.009129,-0.004386,-0.006898,-0.176874,-0.125322,-0.756713,-0.616762,100.240525,6.493940,155.765115
34097,NaN,-1.083141,9.587005,-1.653175,0.009907,0.081226,-0.024421,0.015589,-0.002567,-0.003489,-0.176928,-0.125319,-0.756795,-0.616647,100.255136,6.502209,155.762042
34098,NaN,-1.090328,9.564084,-1.648706,0.018872,0.080079,-0.046829,0.009254,-0.004432,0.000920,-0.176970,-0.125330,-0.756859,-0.616554,100.266886,6.507766,155.758566
34099,NaN,-1.072296,9.565689,-1.620248,0.014471,0.115295,-0.052363,0.012484,-0.003522,0.002624,-0.177023,-0.125362,-0.756925,-0.616451,100.279712,6.512902,155.752398
34100,NaN,-1.082843,9.586406,-1.656842,0.008545,0.085457,-0.024456,0.019859,-0.002895,0.006297,-0.177035,-0.125397,-0.757020,-0.616324,100.297574,6.515273,155.749242
34101,NaN,-1.114841,9.605921,-1.619853,0.053562,0.112250,-0.008350,0.021406,0.002787,0.008865,-0.177048,-0.125453,-0.757114,-0.616193,100.316059,6.516243,155.744293
34102,NaN,-1.096980,9.614028,-1.673040,0.015979,0.076778,0.006978,0.018124,0.004552,0.010445,-0.177021,-0.125479,-0.757207,-0.616081,100.333359,6.515513,155.744936
34103,NaN,-1.100564,9.621075,-1.651959,0.029312,0.097950,0.010491,0.016048,0.009900,0.015084,-0.177007,-0.125549,-0.757286,-0.615975,100.349203,6.512516,155.740670
34104,NaN,-1.124179,9.596465,-1.677439,0.042115,0.062923,-0.006364,0.016069,0.012330,0.008660,-0.176957,-0.125543,-0.757380,-0.615874,100.365847,6.511990,155.745909
34105,NaN,-1.150846,9.608950,-1.662793,0.073174,0.069921,0.006223,0.011874,0.015288,0.009974,-0.176926,-0.125553,-0.757455,-0.615789,100.379347,6.511227,155.748139
34106,NaN,-1.190397,9.612484,-1.700307,0.094336,0.023394,0.020852,0.013702,0.012903,0.010504,-0.176869,-0.125550,-0.757542,-0.615699,100.394649,6.509601,155.753511
34107,NaN,-1.164323,9.636841,-1.677973,0.080600,0.061235,0.037678,0.013900,0.012615,0.008615,-0.176837,-0.125553,-0.757624,-0.615607,100.409345,6.509555,155.756527
34108,NaN,-1.186415,9.642094,-1.686115,0.097929,0.048574,0.046754,0.013579,0.012943,0.002684,-0.176805,-0.125520,-0.757715,-0.615510,100.424671,6.512329,155.762736
34109,NaN,-1.188887,9.679056,-1.647314,0.115769,0.092125,0.076162,0.006921,0.011412,0.001166,-0.176840,-0.125530,-0.757774,-0.615425,100.435538,6.517193,155.759765
34110,NaN,-1.161048,9.666356,-1.663864,0.083714,0.087931,0.063556,-0.000029,0.005104,-0.003140,-0.176864,-0.125487,-0.757820,-0.615370,100.442633,6.524061,155.762138
34111,NaN,-1.163540,9.636372,-1.681207,0.078630,0.066908,0.037657,0.002882,0.006341,-0.007368,-0.176914,-0.125441,-0.757872,-0.615301,100.450744,6.533751,155.762852
34112,NaN,-1.158997,9.629030,-1.704446,0.064306,0.048603,0.034146,0.005227,0.003340,-0.002792,-0.176941,-0.125410,-0.757933,-0.615225,100.460733,6.540605,155.764190
34113,NaN,-1.187005,9.641525,-1.688949,0.095416,0.055630,0.046742,0.007054,0.000955,-0.002258,-0.176998,-0.125411,-0.757990,-0.615139,100.470982,6.547969,155.760325
34114,NaN,-1.162165,9.665929,-1.665564,0.081816,0.093579,0.063520,0.002398,-0.005678,0.001294,-0.177047,-0.125420,-0.758031,-0.615072,100.478719,6.553461,155.756123
34115,NaN,-1.141165,9.630666,-1.675870,0.059016,0.086621,0.028529,-0.003941,-0.007536,0.005707,-0.177106,-0.125452,-0.758042,-0.615034,100.481742,6.557099,155.748971
34116,NaN,-1.122738,9.632616,-1.645901,0.054804,0.121921,0.022909,-0.004482,-0.009348,0.008087,-0.177153,-0.125492,-0.758055,-0.614997,100.485216,6.559147,155.741976
34117,NaN,-1.134088,9.617293,-1.617018,0.077578,0.140342,0.004008,-0.002311,-0.009633,0.008127,-0.177210,-0.125540,-0.758068,-0.614955,100.488990,6.561622,155.733613
34118,NaN,-1.163259,9.600165,-1.617721,0.104285,0.125019,-0.009277,-0.002165,-0.007245,0.009521,-0.177243,-0.125581,-0.758089,-0.614911,100.493911,6.562644,155.727660
34119,NaN,-1.152209,9.585905,-1.663125,0.075947,0.086839,-0.016268,0.000130,-0.007570,0.017377,-0.177256,-0.125655,-0.758106,-0.614871,100.499176,6.559484,155.720284
34120,NaN,-1.167769,9.577835,-1.611783,0.112777,0.125109,-0.031681,-0.000389,-0.006954,0.013335,-0.177276,-0.125712,-0.758130,-0.614824,100.505088,6.558327,155.714095
34121,NaN,-1.200315,9.604439,-1.652774,0.124307,0.081127,0.005440,-0.014101,-0.009436,0.014077,-0.177338,-0.125786,-0.758099,-0.614829,100.501799,6.557780,155.702561
34122,NaN,-1.190246,9.554060,-1.633308,0.124966,0.091318,-0.048442,-0.014072,-0.014540,0.017213,-0.177382,-0.125869,-0.758072,-0.614833,100.499332,6.555231,155.691663
34123,NaN,-1.182061,9.577155,-1.637372,0.114987,0.095345,-0.026072,-0.015082,-0.018412,0.012267,-0.177486,-0.125964,-0.758033,-0.614831,100.495226,6.556716,155.674965
34124,NaN,-1.210985,9.560286,-1.636915,0.141694,0.079997,-0.039327,-0.010367,-0.021990,0.014989,-0.177563,-0.126065,-0.758012,-0.614814,100.494427,6.556198,155.660076
34125,NaN,-1.220696,9.581602,-1.670587,0.135594,0.050186,-0.011302,-0.013421,-0.025615,0.017815,-0.177656,-0.126188,-0.757972,-0.614811,100.490955,6.554774,155.641734
34126,NaN,-1.212262,9.604755,-1.674534,0.125795,0.054313,0.011069,-0.015218,-0.028333,0.020414,-0.177744,-0.126324,-0.757927,-0.614814,100.486902,6.551859,155.622679
34127,NaN,-1.194195,9.613549,-1.723714,0.088041,0.018842,0.026495,-0.020571,-0.031628,0.015385,-0.177872,-0.126451,-0.757860,-0.614833,100.478820,6.552390,155.601176
34128,NaN,-1.170401,9.608691,-1.714364,0.069923,0.034385,0.017356,-0.028338,-0.031672,0.015486,-0.177996,-0.126567,-0.757775,-0.614878,100.467093,6.552594,155.580745
34129,NaN,-1.176526,9.586664,-1.705689,0.078819,0.033049,-0.005016,-0.027647,-0.027472,0.014499,-0.178116,-0.126672,-0.757691,-0.614925,100.455387,6.553249,155.561527
34130,NaN,-1.147886,9.574642,-1.718948,0.046777,0.028839,-0.017629,-0.027870,-0.022079,0.013251,-0.178210,-0.126750,-0.757617,-0.614973,100.444575,6.553707,155.546770
34131,NaN,-1.185847,9.608875,-1.734929,0.072168,0.004729,0.023036,-0.026791,-0.018453,0.008495,-0.178349,-0.126838,-0.757542,-0.615007,100.433820,6.557544,155.527767
34132,NaN,-1.169553,9.581330,-1.719610,0.063458,0.017559,-0.008481,-0.033300,-0.017589,0.008374,-0.178445,-0.126879,-0.757458,-0.615074,100.420244,6.560280,155.516066
34133,NaN,-1.157044,9.597532,-1.744642,0.039529,0.001878,0.010427,-0.034061,-0.014008,0.009504,-0.178549,-0.126931,-0.757366,-0.615146,100.405508,6.562812,155.502621
34134,NaN,-1.117722,9.564587,-1.722331,0.013120,0.028797,-0.030252,-0.036229,-0.013720,0.009459,-0.178629,-0.126962,-0.757276,-0.615228,100.390491,6.564530,155.493000
34135,NaN,-1.137482,9.533744,-1.765651,0.011769,-0.026099,-0.050370,-0.031036,-0.005273,0.003549,-0.178732,-0.126985,-0.757204,-0.615281,100.378495,6.569650,155.482340
34136,NaN,-1.141912,9.541482,-1.739874,0.025306,-0.004918,-0.046913,-0.029822,-0.001696,0.006609,-0.178771,-0.126974,-0.757147,-0.615343,100.367962,6.571730,155.479835
34137,NaN,-1.123402,9.543658,-1.707836,0.020986,0.030250,-0.052627,-0.024943,-0.000458,0.004312,-0.178824,-0.126962,-0.757100,-0.615388,100.359358,6.575560,155.476339
34138,NaN,-1.102463,9.508795,-1.716121,-0.001644,0.023303,-0.087610,-0.025885,0.005847,0.000927,-0.178849,-0.126910,-0.757064,-0.615435,100.351638,6.580066,155.478702
34139,NaN,-1.140835,9.542896,-1.732815,0.023739,-0.000723,-0.046908,-0.018313,0.006172,0.002707,-0.178912,-0.126914,-0.757041,-0.615445,100.347740,6.584656,155.473324
34140,NaN,-1.129545,9.522168,-1.696138,0.028995,0.031811,-0.074999,-0.018880,0.009467,0.001958,-0.178916,-0.126860,-0.757030,-0.615468,100.344257,6.588209,155.477634
34141,NaN,-1.106345,9.517014,-1.687796,0.010768,0.047274,-0.084180,-0.020705,0.011856,0.001431,-0.178933,-0.126810,-0.757010,-0.615499,100.339207,6.592392,155.480567
34142,NaN,-1.142839,9.477476,-1.681653,0.046885,0.029108,-0.119724,-0.016064,0.016049,0.004313,-0.178902,-0.126747,-0.757012,-0.615518,100.337739,6.593942,155.488367
34143,NaN,-1.123059,9.516021,-1.714637,0.013532,0.016309,-0.078447,-0.008493,0.016373,0.006098,-0.178906,-0.126737,-0.757027,-0.615500,100.340204,6.595514,155.489171
34144,NaN,-1.127264,9.523279,-1.691408,0.027081,0.037482,-0.075013,-0.003988,0.020624,0.001173,-0.178860,-0.126659,-0.757072,-0.615474,100.345991,6.598364,155.499892
34145,NaN,-1.149209,9.528919,-1.697899,0.044206,0.024755,-0.065828,-0.003924,0.028345,0.009148,-0.178789,-0.126611,-0.757112,-0.615456,100.351488,6.596678,155.509893
34146,NaN,-1.136015,9.544623,-1.726458,0.020444,0.009214,-0.046905,-0.000746,0.039470,0.004611,-0.178660,-0.126492,-0.757181,-0.615432,100.360320,6.595647,155.530951
34147,NaN,-1.149404,9.566033,-1.658345,0.061691,0.069828,-0.036618,-0.001576,0.050829,0.005908,-0.178532,-0.126384,-0.757247,-0.615411,100.368693,6.593752,155.550789
34148,NaN,-1.170846,9.571646,-1.665392,0.078975,0.057167,-0.027427,-0.002139,0.054125,0.005148,-0.178346,-0.126220,-0.757325,-0.615402,100.377674,6.590901,155.580105
34149,NaN,-1.222226,9.560077,-1.673614,0.123227,0.027490,-0.031381,-0.000878,0.055030,0.004915,-0.178162,-0.126052,-0.757402,-0.615395,100.386354,6.588426,155.609643
34150,NaN,-1.241604,9.595440,-1.663687,0.145042,0.037350,0.003599,0.001273,0.059853,0.001824,-0.177962,-0.125861,-0.757498,-0.615374,100.397699,6.586847,155.642553
34151,NaN,-1.275099,9.585489,-1.642376,0.185503,0.041540,-0.006121,-0.007922,0.054080,0.007128,-0.177797,-0.125714,-0.757549,-0.615389,100.402344,6.583644,155.668506
34152,NaN,-1.285756,9.570069,-1.614150,0.208473,0.059926,-0.025052,-0.002969,0.047539,0.004678,-0.177638,-0.125568,-0.757619,-0.615379,100.410420,6.581723,155.694132
34153,NaN,-1.291731,9.547533,-1.608597,0.217298,0.058461,-0.047397,-0.009970,0.043921,0.003620,-0.177524,-0.125437,-0.757657,-0.615392,100.413281,6.581585,155.714680
34154,NaN,-1.323413,9.567468,-1.569340,0.262485,0.085271,-0.031352,-0.007020,0.034940,0.005655,-0.177412,-0.125330,-0.757702,-0.615390,100.418205,6.580415,155.733058
34155,NaN,-1.282608,9.570576,-1.613645,0.206922,0.064011,-0.025045,-0.005148,0.029883,0.002902,-0.177346,-0.125243,-0.757744,-0.615376,100.423016,6.581867,155.746189
34156,NaN,-1.316752,9.560597,-1.592153,0.247574,0.068284,-0.034761,0.000664,0.024813,0.004016,-0.177273,-0.125167,-0.757805,-0.615337,100.431703,6.582666,155.758994
34157,NaN,-1.281045,9.570704,-1.614133,0.205967,0.066768,-0.025043,0.000316,0.022713,0.004501,-0.177225,-0.125112,-0.757856,-0.615299,100.439157,6.583952,155.767998
34158,NaN,-1.273293,9.593514,-1.619441,0.196135,0.071011,-0.002699,-0.009915,0.018197,0.001733,-0.177190,-0.125038,-0.757880,-0.615294,100.441380,6.586723,155.777288
34159,NaN,-1.279944,9.571049,-1.612955,0.205033,0.069544,-0.025043,-0.014949,0.014574,0.002610,-0.177182,-0.124982,-0.757880,-0.615308,100.439733,6.589828,155.782860
34160,NaN,-1.298581,9.533104,-1.577570,0.237443,0.085077,-0.066330,-0.020316,0.003738,0.007101,-0.177193,-0.124964,-0.757856,-0.615338,100.434992,6.591075,155.783388
34161,NaN,-1.268099,9.550590,-1.574809,0.209768,0.103319,-0.053221,-0.013063,0.004404,0.002989,-0.177240,-0.124961,-0.757848,-0.615335,100.433631,6.595352,155.780036
34162,NaN,-1.251852,9.522649,-1.561275,0.201125,0.116012,-0.084808,-0.014855,-0.003433,0.008706,-0.177269,-0.124976,-0.757834,-0.615341,100.431533,6.596439,155.776328
34163,NaN,-1.239046,9.538522,-1.588505,0.177111,0.100466,-0.065866,-0.006891,-0.003679,0.006749,-0.177342,-0.125025,-0.757835,-0.615309,100.433213,6.599762,155.766438
34164,NaN,-1.240686,9.508845,-1.605587,0.172171,0.079325,-0.091606,0.002893,-0.006316,0.005327,-0.177381,-0.125052,-0.757874,-0.615243,100.441136,6.603054,155.761449
34165,NaN,-1.271523,9.565375,-1.630089,0.188058,0.058186,-0.028434,0.001648,-0.012335,0.008672,-0.177468,-0.125138,-0.757894,-0.615176,100.447272,6.605936,155.747498
34166,NaN,-1.225442,9.554390,-1.616395,0.152330,0.087801,-0.046936,-0.003336,-0.018623,0.006264,-0.177555,-0.125201,-0.757903,-0.615127,100.450810,6.609979,155.735430
34167,NaN,-1.202213,9.549037,-1.608853,0.134189,0.103216,-0.056194,-0.008356,-0.027359,0.010263,-0.177674,-0.125307,-0.757882,-0.615098,100.450102,6.612840,155.716921
34168,NaN,-1.196781,9.542160,-1.630771,0.119815,0.084913,-0.059588,-0.003258,-0.031518,0.009225,-0.177801,-0.125421,-0.757877,-0.615043,100.452806,6.616556,155.697229
34169,NaN,-1.206329,9.556498,-1.584440,0.147143,0.125771,-0.052828,-0.002133,-0.038110,0.010726,-0.177999,-0.125607,-0.757859,-0.614971,100.455046,6.621292,155.665600
34170,NaN,-1.154954,9.538515,-1.593183,0.097456,0.135652,-0.074745,-0.003833,-0.035784,0.017991,-0.178115,-0.125767,-0.757843,-0.614924,100.457033,6.620515,155.642570
34171,NaN,-1.169389,9.567004,-1.604841,0.105163,0.125748,-0.043159,0.002129,-0.038473,0.020496,-0.178236,-0.125950,-0.757838,-0.614858,100.461407,6.618946,155.617212
34172,NaN,-1.167778,9.567213,-1.604768,0.104762,0.127181,-0.043174,0.005315,-0.034910,0.025484,-0.178320,-0.126143,-0.757847,-0.614783,100.468604,6.613860,155.593893
34173,NaN,-1.130920,9.577447,-1.626613,0.063089,0.125775,-0.033498,0.006379,-0.033723,0.027141,-0.178427,-0.126365,-0.757850,-0.614703,100.475626,6.608719,155.566385
34174,NaN,-1.144542,9.605919,-1.638962,0.070899,0.115994,-0.001909,0.005472,-0.032527,0.026869,-0.178498,-0.126556,-0.757860,-0.614630,100.483055,6.602611,155.544272
34175,NaN,-1.185388,9.580458,-1.692443,0.087070,0.046816,-0.012437,0.002548,-0.028656,0.027952,-0.178572,-0.126746,-0.757857,-0.614573,100.487972,6.596383,155.521955
34176,NaN,-1.153403,9.597852,-1.691002,0.059576,0.065222,0.000609,-0.002306,-0.027442,0.023824,-0.178638,-0.126903,-0.757850,-0.614530,100.491317,6.591464,155.503044
34177,NaN,-1.186363,9.588249,-1.668421,0.100091,0.069322,-0.009077,-0.009005,-0.026283,0.025569,-0.178716,-0.127070,-0.757815,-0.614516,100.489964,6.586033,155.482090
34178,NaN,-1.179387,9.581575,-1.690308,0.085709,0.051032,-0.012446,-0.005073,-0.021188,0.026305,-0.178753,-0.127215,-0.757804,-0.614489,100.492104,6.579065,155.466466
34179,NaN,-1.207324,9.564867,-1.690806,0.112210,0.035371,-0.025487,-0.002920,-0.016366,0.023230,-0.178792,-0.127339,-0.757798,-0.614459,100.494707,6.574039,155.452587
34180,NaN,-1.164704,9.561020,-1.654469,0.090503,0.084710,-0.040710,0.001612,-0.017235,0.021432,-0.178824,-0.127459,-0.757814,-0.614406,100.500995,6.569406,155.439717
34181,NaN,-1.180900,9.559778,-1.683769,0.093613,0.052251,-0.034780,-0.001116,-0.013645,0.020639,-0.178867,-0.127577,-0.757818,-0.614363,100.505178,6.565492,155.426111
34182,NaN,-1.212662,9.586864,-1.725100,0.105065,0.008690,0.002779,-0.000959,-0.011262,0.022036,-0.178876,-0.127680,-0.757831,-0.614324,100.510374,6.559897,155.416563
34183,NaN,-1.197939,9.595704,-1.672480,0.114794,0.063626,0.000190,-0.003665,-0.005223,0.014850,-0.178923,-0.127764,-0.757836,-0.614286,100.513799,6.558707,155.405581
34184,NaN,-1.231277,9.586016,-1.650399,0.155470,0.067802,-0.009484,-0.001324,-0.008248,0.019404,-0.178929,-0.127847,-0.757852,-0.614248,100.519014,6.554282,155.398019
34185,NaN,-1.204469,9.610380,-1.626363,0.141823,0.105907,0.006879,0.002156,-0.015419,0.019054,-0.178983,-0.127969,-0.757866,-0.614189,100.525118,6.551484,155.383357
34186,NaN,-1.198299,9.603484,-1.648963,0.127436,0.087622,0.003523,-0.002650,-0.021980,0.014765,-0.179056,-0.128075,-0.757869,-0.614143,100.528741,6.551111,155.368497
34187,NaN,-1.202053,9.610832,-1.625485,0.140866,0.108718,0.006862,-0.003491,-0.033678,0.017437,-0.179189,-0.128243,-0.757849,-0.614093,100.530334,6.551179,155.343349
34188,NaN,-1.185294,9.582779,-1.612683,0.132289,0.121321,-0.024781,-0.002022,-0.038173,0.018438,-0.179312,-0.128413,-0.757837,-0.614037,100.533226,6.550435,155.318920
34189,NaN,-1.137256,9.608523,-1.662064,0.067163,0.103173,0.003848,-0.004889,-0.042078,0.019352,-0.179482,-0.128621,-0.757802,-0.613986,100.533342,6.550576,155.287437
34190,NaN,-1.076198,9.642891,-1.658603,0.012594,0.138647,0.029829,-0.013317,-0.048962,0.017118,-0.179657,-0.128809,-0.757746,-0.613965,100.529080,6.551705,155.257030
34191,NaN,-1.063055,9.695848,-1.746813,-0.040695,0.075566,0.096073,-0.046164,-0.067461,0.002252,-0.179986,-0.128977,-0.757576,-0.614043,100.504140,6.563877,155.215594
34192,NaN,-0.988242,9.739558,-1.788161,-0.132712,0.074557,0.137687,-0.099185,-0.090166,-0.015336,-0.180472,-0.129091,-0.757239,-0.614291,100.448379,6.587555,155.165219
34193,NaN,-0.892385,9.815414,-1.880573,-0.271837,0.039928,0.217255,-0.157424,-0.134349,-0.041707,-0.181271,-0.129209,-0.756692,-0.614705,100.355701,6.631437,155.088552
34194,NaN,-0.971269,10.234483,-2.078364,-0.316410,-0.094411,0.670561,-0.252119,-0.217743,-0.076568,-0.182526,-0.129345,-0.755808,-0.615393,100.204550,6.702509,154.971978
34195,NaN,-1.221808,10.740863,-2.343194,-0.253166,-0.355115,1.239872,-0.434311,-0.298541,-0.125180,-0.184385,-0.129405,-0.754309,-0.616664,99.943304,6.809497,154.809332
34196,NaN,-1.741914,10.996126,-2.337832,0.152239,-0.572560,1.547885,-0.811559,-0.472933,-0.191667,-0.187316,-0.129376,-0.751526,-0.619179,99.455004,6.969029,154.558004
34197,NaN,-1.986631,11.127752,-2.002112,0.428714,-0.452606,1.649915,-1.255827,-0.684500,-0.201766,-0.191400,-0.129575,-0.747136,-0.623188,98.695383,7.152141,154.178707
34198,NaN,-1.998393,10.960725,-1.587771,0.523346,-0.269123,1.425739,-1.698780,-0.812973,-0.158756,-0.196057,-0.129870,-0.741175,-0.628772,97.671878,7.314087,153.725935
34199,NaN,-1.744975,10.583289,-1.795293,0.091765,-0.592994,1.045888,-2.163141,-1.010652,-0.203166,-0.201905,-0.130169,-0.733492,-0.635830,96.364829,7.507792,153.154811
34200,NaN,-1.653502,10.814949,-1.802002,-0.170419,-0.741863,1.248848,-2.513878,-1.181225,-0.288588,-0.208805,-0.130303,-0.724465,-0.643872,94.843106,7.743992,152.490222
34201,NaN,-1.964136,11.581446,-1.216777,0.117411,-0.525246,1.984258,-2.809776,-1.359871,-0.365531,-0.216804,-0.130409,-0.714173,-0.652646,93.131746,8.015976,151.712751
34202,NaN,-1.624850,11.919921,-0.900120,-0.297309,-0.363072,2.241323,-3.369419,-1.487102,-0.420655,-0.225681,-0.130075,-0.701760,-0.663085,91.087032,8.293651,150.859916
34203,NaN,-1.483953,11.305060,-0.664418,-0.500553,-0.500259,1.585955,-3.893428,-1.449929,-0.448000,-0.234776,-0.128878,-0.687394,-0.675101,88.739045,8.554824,150.017534
34204,NaN,-1.885241,10.568338,0.230296,0.115660,-0.340893,0.918052,-4.201886,-1.385606,-0.415492,-0.243625,-0.127156,-0.671726,-0.687941,86.215644,8.763014,149.202612
34205,NaN,-2.068466,10.085425,1.543130,0.745792,0.299407,0.565714,-4.322724,-1.434389,-0.308591,-0.252229,-0.125747,-0.655173,-0.700940,83.615294,8.871844,148.355718
34206,NaN,-2.090936,9.776549,2.250823,0.935726,0.499259,0.379265,-4.342281,-1.615503,-0.158095,-0.260773,-0.125377,-0.637886,-0.713708,80.988908,8.842731,147.412575
34207,NaN,-1.757833,9.043315,2.594109,0.770846,0.609237,-0.293257,-4.303499,-1.814117,0.019036,-0.269159,-0.126261,-0.620020,-0.726076,78.371818,8.651134,146.376808
34208,NaN,-0.146195,7.651913,3.355948,0.001065,1.902769,-1.675998,-3.864675,-1.750855,0.219628,-0.276205,-0.128067,-0.603402,-0.737032,76.022149,8.310993,145.412984
34209,NaN,0.906939,7.272378,4.318314,-0.366218,3.045237,-1.879030,-3.454332,-1.463795,0.379685,-0.281426,-0.129812,-0.588342,-0.746861,73.941313,7.888605,144.648157
34210,NaN,1.815108,6.423814,4.594643,-0.815619,3.673750,-2.636089,-3.259757,-1.029034,0.380851,-0.285143,-0.130170,-0.574435,-0.756158,72.012386,7.511983,144.140368
34211,NaN,2.083610,5.010251,4.206664,-0.919513,3.588728,-4.032318,-2.836918,-0.362658,0.344015,-0.286742,-0.128472,-0.562950,-0.764435,70.375233,7.263122,144.002204
34212,NaN,0.635021,4.773086,4.088583,0.172114,2.573993,-4.046798,-2.151768,0.257824,0.274830,-0.286369,-0.125170,-0.554933,-0.770957,69.173183,7.170866,144.193158
34213,NaN,-1.256424,5.448467,3.860396,1.301750,1.060544,-3.228853,-1.656981,0.629009,0.340614,-0.284378,-0.121316,-0.549252,-0.776360,68.280241,7.124223,144.598886
34214,NaN,-1.403797,5.934014,4.142334,1.356238,1.014947,-2.638285,-1.314849,0.853828,0.575196,-0.280626,-0.117711,-0.545042,-0.781232,67.604789,7.006807,145.176686
34215,NaN,-1.069232,5.909743,4.163936,1.061553,1.171437,-2.677759,-1.050186,1.028292,0.792106,-0.275382,-0.114377,-0.541938,-0.785739,67.095576,6.819262,145.896220
34216,NaN,-0.743102,5.838591,4.285189,0.846564,1.423591,-2.723206,-0.762626,1.165119,0.925057,-0.269056,-0.111256,-0.540046,-0.789671,66.761673,6.597480,146.719907
34217,NaN,-0.957972,5.874724,4.008908,0.874506,1.048959,-2.767383,-0.460385,1.199121,1.019438,-0.262084,-0.108653,-0.539298,-0.792884,66.600980,6.337448,147.583277
34218,NaN,-0.958626,6.005865,3.519626,0.624626,0.604701,-2.839792,-0.197660,1.125245,1.091007,-0.254864,-0.106875,-0.539427,-0.795387,66.585114,6.024124,148.424306
34219,NaN,-0.885368,6.544178,2.983675,0.201127,0.045455,-2.569085,0.015152,1.020276,1.125977,-0.247663,-0.105871,-0.540212,-0.797261,66.680309,5.668180,149.216663
34220,NaN,-0.766754,7.144669,2.739671,-0.124852,-0.278485,-2.128510,0.108547,0.939072,1.125109,-0.240618,-0.105301,-0.541246,-0.798792,66.820815,5.292501,149.965065
34221,NaN,-0.839827,7.223137,2.575572,-0.094215,-0.483348,-2.114002,0.127178,0.808544,1.120696,-0.233926,-0.105254,-0.542165,-0.800161,66.959526,4.888216,150.641610
34222,NaN,-0.742607,7.173669,2.211233,-0.255137,-0.728643,-2.308945,0.230607,0.690137,1.083235,-0.227636,-0.105699,-0.543362,-0.801104,67.147814,4.475089,151.245912
34223,NaN,-0.350602,7.350966,1.894228,-0.708084,-0.861099,-2.295741,0.320610,0.631823,0.981404,-0.221860,-0.106196,-0.544879,-0.801628,67.378371,4.100925,151.794469
34224,NaN,-0.362610,7.706910,1.722578,-0.788580,-1.119475,-2.026816,0.346402,0.564464,0.873845,-0.216672,-0.106698,-0.546471,-0.801897,67.617145,3.766425,152.282246
34225,NaN,-0.655545,8.040072,1.780720,-0.520001,-1.308058,-1.672557,0.321423,0.431741,0.767343,-0.212287,-0.107408,-0.547854,-0.802031,67.831916,3.457912,152.674470
34226,NaN,-0.998236,8.095579,2.086860,-0.045824,-1.222589,-1.482455,0.300612,0.248217,0.651854,-0.208870,-0.108517,-0.549019,-0.801982,68.026529,3.169544,152.943304
34227,NaN,-0.866909,8.077796,2.218310,-0.051151,-1.040841,-1.455834,0.343315,0.021799,0.561835,-0.206415,-0.110327,-0.550154,-0.801593,68.235920,2.880067,153.070909
34228,NaN,-0.618318,8.439421,2.130098,-0.326880,-1.103364,-1.162896,0.439165,-0.133138,0.542251,-0.204405,-0.112804,-0.551524,-0.800822,68.496278,2.567480,153.110872
34229,NaN,-0.466846,8.820074,2.098582,-0.490278,-1.163084,-0.822570,0.483795,-0.224445,0.504134,-0.202775,-0.115584,-0.552987,-0.799830,68.778687,2.256295,153.092300
34230,NaN,-0.226900,9.150515,2.012842,-0.742530,-1.208740,-0.548660,0.478226,-0.325963,0.426063,-0.201735,-0.118548,-0.554369,-0.798701,69.056204,1.965712,153.002115
34231,NaN,-0.090577,9.352242,1.750804,-0.954216,-1.405717,-0.450471,0.478164,-0.354412,0.332033,-0.201150,-0.121362,-0.555766,-0.797455,69.332163,1.720440,152.875856
34232,NaN,-0.181214,9.867814,2.211900,-0.727114,-1.190217,0.204974,0.455134,-0.436672,0.207349,-0.201299,-0.124135,-0.557063,-0.796084,69.594210,1.525827,152.679528
34233,NaN,-0.338871,10.043475,2.430344,-0.485593,-1.100058,0.456035,0.478811,-0.433099,0.054942,-0.202031,-0.126490,-0.558541,-0.794491,69.868868,1.415046,152.453696
34234,NaN,-1.326775,10.608135,2.715207,0.443573,-1.445885,1.113321,0.510939,-0.468740,-0.032530,-0.203184,-0.128775,-0.560164,-0.792685,70.162128,1.345218,152.191265
34235,NaN,-0.506181,10.838694,2.913277,-0.206984,-0.933853,1.381314,0.299786,-0.574966,0.014535,-0.204586,-0.131395,-0.560801,-0.791443,70.333060,1.230808,151.880118
34236,NaN,0.197297,10.595259,2.924554,-0.753314,-0.503551,1.143149,0.223064,-0.549559,-0.045203,-0.206197,-0.133669,-0.561199,-0.790361,70.461273,1.154034,151.571178
34237,NaN,0.315279,10.616565,2.866539,-0.870939,-0.478891,1.143587,0.234094,-0.414374,-0.146475,-0.207823,-0.135134,-0.561839,-0.789231,70.596435,1.158787,151.315510
34238,NaN,0.694549,10.817796,3.232807,-1.074303,-0.019051,1.448022,0.202559,-0.185274,-0.256125,-0.209256,-0.135354,-0.562668,-0.788224,70.716103,1.266573,151.163167
34239,NaN,0.769527,10.744756,3.660913,-0.955327,0.430934,1.516287,0.166656,0.065528,-0.433061,-0.210706,-0.134048,-0.563731,-0.787300,70.816599,1.517963,151.113097
34240,NaN,0.373705,10.901937,3.504565,-0.752735,0.119740,1.619387,0.235634,0.201906,-0.671242,-0.212658,-0.131608,-0.565367,-0.786013,70.957837,1.923732,151.092946
34241,NaN,-0.652257,11.616919,3.057873,-0.256042,-0.870225,2.183353,0.239560,0.231097,-0.855937,-0.215182,-0.128481,-0.567168,-0.784544,71.099889,2.435277,151.064965
34242,NaN,-1.542778,13.526341,3.107293,0.085315,-1.689203,4.048601,0.092450,0.063723,-0.911806,-0.218555,-0.125742,-0.568228,-0.783288,71.153211,2.945939,150.926864
34243,NaN,-0.329803,13.380623,4.147718,-0.598980,-0.162682,4.186126,-0.508645,0.053432,-0.793762,-0.221803,-0.122668,-0.566843,-0.783865,70.861271,3.390677,150.813868
34244,NaN,-0.653322,10.819862,4.874115,0.410765,0.922597,2.029262,-0.864902,0.115322,-0.761914,-0.225028,-0.119095,-0.564088,-0.785483,70.367118,3.828883,150.727582
34245,NaN,-0.282324,9.787560,5.115151,0.305716,1.539923,1.122352,-0.662420,0.198092,-0.652622,-0.227398,-0.115679,-0.562147,-0.786702,69.992185,4.223817,150.713694
34246,NaN,0.300342,9.840396,5.168600,-0.285889,1.837973,1.149860,-0.477501,0.382695,-0.562446,-0.228848,-0.112048,-0.561073,-0.787573,69.732481,4.606297,150.805282
34247,NaN,0.245961,9.943521,5.020730,-0.423644,1.657367,1.197065,-0.440635,0.609383,-0.579188,-0.229638,-0.107468,-0.560407,-0.788455,69.503788,5.043580,151.023862
34248,NaN,-0.258301,9.884374,4.672774,-0.221049,1.143102,1.061408,-0.433740,0.745747,-0.590496,-0.230146,-0.102374,-0.559911,-0.789336,69.287725,5.515037,151.302292
34249,NaN,-1.059035,9.944764,4.432200,0.261003,0.550590,1.109410,-0.418283,0.758838,-0.557015,-0.230405,-0.097287,-0.559463,-0.790221,69.083335,5.972397,151.602833
34250,NaN,-2.036796,9.632242,3.830883,0.858989,-0.324295,0.711604,-0.386347,0.590992,-0.529788,-0.231071,-0.093024,-0.558918,-0.790926,68.890841,6.381555,151.807602
34251,NaN,-1.823592,9.509089,3.359758,0.441304,-0.581176,0.410002,-0.293760,0.349424,-0.464661,-0.232043,-0.089954,-0.558424,-0.791345,68.738637,6.706688,151.904667
34252,NaN,-1.255805,9.595367,3.527389,-0.072132,-0.195683,0.485216,-0.291146,0.249764,-0.425496,-0.233200,-0.087440,-0.557799,-0.791728,68.583568,6.990197,151.945849
34253,NaN,-1.194538,9.253009,3.712551,-0.018689,0.081146,0.228273,-0.297301,0.234805,-0.484212,-0.234566,-0.084764,-0.557155,-0.792068,68.421876,7.302170,151.975514
34254,NaN,-1.144171,9.156717,3.627108,-0.134459,0.064501,0.101337,-0.235394,0.239669,-0.600951,-0.236418,-0.081864,-0.556803,-0.792070,68.293436,7.677199,151.972422
34255,NaN,-0.864071,9.353097,3.653186,-0.497935,0.179437,0.251712,-0.204864,0.294228,-0.712188,-0.238477,-0.078425,-0.556676,-0.791890,68.182440,8.123190,151.983691
34256,NaN,-0.819378,9.346770,3.692466,-0.604876,0.257427,0.248868,-0.222550,0.361146,-0.841465,-0.240930,-0.074387,-0.556596,-0.791593,68.063035,8.652018,151.992421
34257,NaN,-1.122198,9.123939,3.953764,-0.268237,0.422390,0.181643,-0.236368,0.365064,-0.912687,-0.243587,-0.070068,-0.556481,-0.791255,67.932876,9.219701,151.996329
34258,NaN,-1.571148,8.942455,3.944340,0.079427,0.282480,0.082105,-0.184577,0.357869,-0.903841,-0.246271,-0.065913,-0.556543,-0.790738,67.832487,9.780964,151.987432
34259,NaN,-2.046708,9.093733,3.657483,0.250309,-0.189278,0.195464,-0.094721,0.246141,-0.804567,-0.248773,-0.062535,-0.556779,-0.790063,67.776010,10.265514,151.949059
34260,NaN,-2.562863,9.339504,3.437396,0.464113,-0.651022,0.432832,-0.075833,0.093942,-0.665769,-0.251206,-0.060217,-0.556847,-0.789424,67.721240,10.643246,151.849005
34261,NaN,-2.827775,9.247016,3.263947,0.600581,-0.882950,0.337014,-0.141713,-0.012494,-0.510464,-0.253275,-0.058619,-0.556470,-0.789149,67.623081,10.915533,151.734996
34262,NaN,-2.695827,8.920559,3.292678,0.561656,-0.713835,0.029083,-0.182285,-0.078513,-0.354138,-0.254986,-0.057714,-0.555800,-0.789137,67.501597,11.090195,151.609895
34263,NaN,-2.383425,8.697133,3.144714,0.280022,-0.642393,-0.288039,-0.152593,-0.098376,-0.262599,-0.256317,-0.057130,-0.555193,-0.789176,67.397975,11.212015,151.503837
34264,NaN,-2.139154,8.817484,3.134933,-0.000889,-0.571307,-0.230132,-0.127614,-0.092157,-0.244011,-0.257614,-0.056654,-0.554687,-0.789144,67.310501,11.324986,151.395393
34265,NaN,-1.998020,8.582376,2.923601,-0.145138,-0.627623,-0.550847,-0.123226,-0.076328,-0.249972,-0.258825,-0.056056,-0.554218,-0.789119,67.226076,11.444669,151.303586
34266,NaN,-2.232973,8.628193,2.916896,0.012759,-0.752867,-0.465328,-0.051401,-0.016740,-0.306224,-0.260136,-0.055209,-0.554125,-0.788814,67.187020,11.606968,151.221310
34267,NaN,-2.274559,8.797918,3.025569,-0.000045,-0.714883,-0.261777,-0.071992,0.053196,-0.343558,-0.261341,-0.053906,-0.554050,-0.788558,67.141212,11.804698,151.177766
34268,NaN,-2.136131,8.641899,2.959879,-0.121463,-0.656709,-0.455325,-0.096472,0.146368,-0.322443,-0.262275,-0.052311,-0.553992,-0.788396,67.093113,12.011772,151.179417
34269,NaN,-2.022614,8.811810,2.963461,-0.309945,-0.632991,-0.324577,-0.104580,0.226057,-0.269841,-0.262717,-0.050488,-0.553992,-0.788368,67.051313,12.209113,151.245597
34270,NaN,-1.877904,9.164086,3.108347,-0.541677,-0.521186,0.016027,-0.172472,0.314860,-0.295154,-0.263095,-0.048205,-0.553844,-0.788489,66.980352,12.439491,151.344096
34271,NaN,-1.998778,9.225944,3.108196,-0.504632,-0.589531,0.095473,-0.294792,0.378658,-0.325969,-0.263379,-0.045374,-0.553301,-0.788942,66.845065,12.700852,151.479311
34272,NaN,-2.026031,9.077762,3.197289,-0.445811,-0.494136,0.000062,-0.412487,0.411970,-0.307946,-0.263590,-0.042356,-0.552329,-0.789721,66.648215,12.960380,151.626354
34273,NaN,-1.945592,8.959967,3.581024,-0.391208,-0.112315,0.022153,-0.490964,0.470832,-0.332182,-0.263681,-0.038885,-0.551122,-0.790712,66.412302,13.246846,151.808337
34274,NaN,-2.568482,8.764424,3.961948,0.283858,-0.036561,0.138539,-0.540301,0.521659,-0.399889,-0.263971,-0.035011,-0.549791,-0.791722,66.151924,13.581037,151.990930
34275,NaN,-3.707145,8.742305,4.315446,1.316813,-0.259975,0.530996,-0.582012,0.474290,-0.438133,-0.264479,-0.031114,-0.548229,-0.792797,65.859619,13.925293,152.147122
34276,NaN,-3.813210,8.496340,4.430512,1.467354,-0.163069,0.394056,-0.647149,0.393724,-0.352883,-0.264942,-0.027732,-0.546279,-0.794113,65.525340,14.206576,152.269230
34277,NaN,-3.482014,8.292129,4.372851,1.177302,-0.032170,0.117982,-0.622367,0.371990,-0.286065,-0.265125,-0.024603,-0.544379,-0.795459,65.206095,14.448829,152.404276
34278,NaN,-3.316998,8.429561,4.481881,0.954715,0.076454,0.248602,-0.589284,0.421919,-0.286099,-0.265230,-0.021368,-0.542670,-0.796684,64.913289,14.703518,152.555251
34279,NaN,-3.433459,8.450880,4.603920,1.020809,0.104401,0.353372,-0.599382,0.481078,-0.288993,-0.265117,-0.017826,-0.540989,-0.797951,64.622472,14.975229,152.745695
34280,NaN,-3.678337,8.242598,4.747682,1.295387,0.159665,0.302014,-0.577965,0.474521,-0.281298,-0.265050,-0.014409,-0.539378,-0.799132,64.344574,15.241875,152.923782
34281,NaN,-3.221065,8.060903,4.735599,0.912576,0.386724,0.025843,-0.522863,0.478163,-0.221621,-0.264662,-0.011162,-0.537976,-0.800257,64.102769,15.479791,153.127806
34282,NaN,-2.846245,8.265513,4.611757,0.412475,0.376761,0.055228,-0.462701,0.561107,-0.220583,-0.264105,-0.007715,-0.536919,-0.801191,63.908622,15.738338,153.366136
34283,NaN,-3.073794,8.636938,4.513738,0.364931,0.084939,0.398973,-0.466466,0.651693,-0.273313,-0.263447,-0.003709,-0.535958,-0.802079,63.722184,16.048057,153.648058
34284,NaN,-3.459855,8.721719,4.754218,0.662562,0.100573,0.684551,-0.517489,0.695915,-0.315379,-0.262900,0.000606,-0.534843,-0.803011,63.511886,16.391135,153.932207
34285,NaN,-3.787780,8.335219,4.925466,1.081779,0.221011,0.524807,-0.540104,0.708617,-0.333808,-0.262322,0.005099,-0.533638,-0.803985,63.289993,16.748358,154.226943
34286,NaN,-3.885811,8.163640,5.011733,1.189835,0.307693,0.451386,-0.473984,0.703201,-0.305970,-0.261707,0.009360,-0.532686,-0.804778,63.109360,17.090484,154.515942
34287,NaN,-3.757970,8.232960,4.917511,0.957236,0.264762,0.439100,-0.420092,0.670929,-0.277411,-0.260997,0.013394,-0.531894,-0.805475,62.957611,17.410905,154.804466
34288,NaN,-3.657579,8.448611,4.876342,0.702940,0.213167,0.579412,-0.374326,0.655290,-0.277378,-0.260391,0.017256,-0.531262,-0.806015,62.831564,17.727408,155.074767
34289,NaN,-3.700077,8.564549,4.977010,0.650136,0.256797,0.738319,-0.376020,0.654194,-0.291044,-0.259775,0.021200,-0.530606,-0.806551,62.703930,18.051651,155.349975
34290,NaN,-3.683721,8.542634,5.008028,0.587738,0.303242,0.731932,-0.409589,0.650810,-0.287503,-0.259210,0.025116,-0.529808,-0.807145,62.558767,18.373307,155.614516
34291,NaN,-3.510774,8.233484,4.978829,0.503216,0.445801,0.407499,-0.395495,0.696163,-0.279354,-0.258424,0.029223,-0.529110,-0.807716,62.430803,18.703939,155.914821
34292,NaN,-3.436277,8.311137,4.901971,0.319936,0.394457,0.417365,-0.372320,0.799080,-0.287489,-0.257463,0.033688,-0.528634,-0.808161,62.335549,19.066053,156.258492
34293,NaN,-3.524123,8.408331,4.872760,0.274456,0.321379,0.516116,-0.386236,0.914404,-0.298206,-0.256166,0.038714,-0.528228,-0.808613,62.253315,19.465362,156.670772
34294,NaN,-3.525149,8.309979,4.831584,0.235981,0.335031,0.417570,-0.405323,1.018094,-0.294251,-0.254633,0.044122,-0.527870,-0.809054,62.182885,19.890331,157.130989
34295,NaN,-3.542248,8.291613,4.793493,0.172311,0.324685,0.392225,-0.399878,1.130254,-0.299539,-0.252753,0.050039,-0.527649,-0.809443,62.138810,20.348970,157.660502
34296,NaN,-3.678759,8.361110,4.647636,0.148399,0.154637,0.434036,-0.409659,1.251258,-0.308327,-0.250641,0.056430,-0.527525,-0.809761,62.116491,20.844209,158.244847
34297,NaN,-3.356390,8.437262,4.587608,-0.265840,0.221309,0.354832,-0.428018,1.432121,-0.305813,-0.247960,0.063615,-0.527517,-0.810059,62.124248,21.387265,158.939495
34298,NaN,-3.420183,8.477994,4.589697,-0.326264,0.226527,0.408887,-0.444204,1.667267,-0.322094,-0.244766,0.071763,-0.527703,-0.810228,62.176635,22.000615,159.751242
34299,NaN,-3.739919,8.381931,4.546166,-0.115655,0.164652,0.427901,-0.454662,1.884183,-0.334268,-0.240960,0.080877,-0.528052,-0.810283,62.276419,22.677614,160.692380
34300,NaN,-3.884378,8.287493,4.467327,-0.069948,0.141838,0.370700,-0.449412,2.119226,-0.359257,-0.236676,0.090945,-0.528648,-0.810089,62.441108,23.427230,161.753075
34301,NaN,-4.037778,8.278357,4.420227,-0.062435,0.132034,0.402496,-0.448640,2.373127,-0.384511,-0.231727,0.102144,-0.529452,-0.809660,62.676786,24.253899,162.966256
34302,NaN,-4.375702,8.103147,4.405047,0.178906,0.173785,0.392584,-0.433141,2.538397,-0.438660,-0.226595,0.114073,-0.530410,-0.808893,62.975886,25.145698,164.259539
34303,NaN,-4.804129,7.971927,4.327796,0.466688,0.142950,0.440123,-0.398618,2.577656,-0.492712,-0.221493,0.126294,-0.531415,-0.807830,63.322145,26.069261,165.584180
34304,NaN,-4.892739,7.950187,4.152293,0.401929,0.075708,0.395934,-0.360297,2.518757,-0.528881,-0.216745,0.138259,-0.532409,-0.806503,63.697853,26.988225,166.872182
34305,NaN,-5.195032,7.939078,3.932816,0.523025,-0.078385,0.444117,-0.321471,2.408651,-0.573550,-0.212468,0.149839,-0.533319,-0.804970,64.086190,27.895345,168.100422
34306,NaN,-5.149431,7.958571,3.749950,0.336291,-0.145435,0.374613,-0.318625,2.289102,-0.567429,-0.208450,0.160892,-0.534043,-0.803406,64.469233,28.761567,169.277904
34307,NaN,-5.147818,7.858690,3.535180,0.260155,-0.217670,0.219234,-0.295359,2.196364,-0.558176,-0.204639,0.171505,-0.534695,-0.801754,64.862691,29.593898,170.418672
34308,NaN,-5.211423,7.852101,3.399719,0.199796,-0.261986,0.200409,-0.264539,2.127326,-0.527894,-0.200885,0.181705,-0.535362,-0.800010,65.280009,30.386067,171.543078
34309,NaN,-5.193787,7.679004,3.233021,0.167323,-0.267729,0.000240,-0.241382,2.120991,-0.486969,-0.196988,0.191727,-0.536085,-0.798154,65.735159,31.148668,172.690298
34310,NaN,-5.024137,7.802344,2.984802,-0.131023,-0.435712,-0.075188,-0.185318,2.157605,-0.475048,-0.192969,0.201782,-0.537018,-0.796027,66.258292,31.904404,173.880699
34311,NaN,-5.367501,7.747546,2.808407,0.095213,-0.519520,0.007745,-0.161006,2.210107,-0.475701,-0.188818,0.212003,-0.538026,-0.793682,66.835324,32.663417,175.121322
34312,NaN,-5.830789,7.737667,2.695099,0.392372,-0.553358,0.220809,-0.130931,2.189881,-0.438913,-0.184577,0.221985,-0.539110,-0.791211,67.452763,33.386792,176.379275
34313,NaN,-5.915861,7.716090,2.619916,0.378509,-0.515728,0.236611,-0.119463,2.117421,-0.387937,-0.180327,0.231509,-0.540160,-0.788741,68.081611,34.056669,177.623221
34314,NaN,-5.862093,7.502707,2.437517,0.379216,-0.508530,-0.004921,-0.109818,2.034641,-0.348088,-0.176127,0.240562,-0.541163,-0.786290,68.714008,34.675657,178.842856
34315,NaN,-5.763757,7.430816,2.281670,0.272420,-0.529908,-0.154144,-0.043156,1.968058,-0.349726,-0.172183,0.249277,-0.542309,-0.783655,69.379657,35.271228,-179.964512
34316,NaN,-5.929038,7.348881,2.082866,0.401867,-0.589796,-0.169706,-0.015835,1.910101,-0.344653,-0.168387,0.257700,-0.543468,-0.780947,70.059686,35.840244,-178.791254
34317,NaN,-6.138554,7.243547,1.742198,0.619103,-0.769352,-0.210109,0.027871,1.826425,-0.303575,-0.164706,0.265629,-0.544729,-0.778192,70.755953,36.360323,-177.648215
34318,NaN,-6.192998,7.113132,1.573524,0.697473,-0.779859,-0.308481,0.075689,1.741940,-0.248776,-0.161085,0.273015,-0.546138,-0.775402,71.470417,36.822787,-176.533911
34319,NaN,-6.050428,7.087324,1.424036,0.567007,-0.817713,-0.438552,0.121558,1.708488,-0.170320,-0.157309,0.280003,-0.547761,-0.772535,72.222670,37.225932,-175.411740
34320,NaN,-5.771415,7.117513,1.361850,0.284383,-0.803979,-0.588020,0.169332,1.717562,-0.122087,-0.153370,0.286832,-0.549605,-0.769506,73.026266,37.591190,-174.259924
34321,NaN,-5.417288,7.201879,1.414624,-0.114482,-0.710021,-0.718909,0.176360,1.879973,-0.072948,-0.148800,0.294126,-0.551624,-0.766198,73.922276,37.943199,-172.973289
34322,NaN,-5.643236,7.622779,1.688908,-0.311994,-0.469215,-0.195706,0.123947,2.075621,-0.037931,-0.143457,0.302078,-0.553587,-0.762699,74.891723,38.288531,-171.528890
34323,NaN,-5.832013,7.616048,1.762607,-0.251277,-0.260839,-0.066371,-0.034684,2.254452,0.059223,-0.137000,0.310526,-0.555154,-0.759348,75.874938,38.587314,-169.926648
34324,NaN,-5.732252,7.330220,1.734643,-0.226301,-0.082957,-0.350119,-0.087444,2.408191,0.150759,-0.129660,0.319294,-0.556694,-0.755865,76.920354,38.832699,-168.185891
34325,NaN,-6.025980,7.385551,1.898696,-0.156785,0.220799,-0.097302,-0.144521,2.542980,0.177861,-0.121739,0.328487,-0.558061,-0.752226,78.009347,39.055206,-166.332910
34326,NaN,-6.632185,7.474799,1.931293,0.164709,0.464373,0.353115,-0.197956,2.541343,0.204697,-0.113608,0.337575,-0.559182,-0.748634,79.081054,39.234377,-164.466494
34327,NaN,-6.353580,7.484574,1.905758,-0.111847,0.508575,0.174606,-0.261588,2.410376,0.239726,-0.105593,0.346061,-0.559961,-0.745343,80.067650,39.355058,-162.683218
34328,NaN,-5.774514,7.527819,2.013084,-0.669846,0.566362,-0.153753,-0.319187,2.346192,0.275981,-0.097501,0.354184,-0.560474,-0.742237,80.999562,39.425208,-160.937363
34329,NaN,-6.065876,7.016306,2.131675,-0.293696,1.024598,-0.355932,-0.371995,2.302380,0.255867,-0.089506,0.362181,-0.560656,-0.739242,81.882720,39.482487,-159.223350
34330,NaN,-6.125844,6.804415,2.099084,-0.190908,1.184702,-0.496518,-0.296926,2.230316,0.241087,-0.081885,0.369867,-0.560983,-0.736065,82.776613,39.521264,-157.561438
34331,NaN,-6.393482,6.670216,1.706168,0.180697,1.066304,-0.479499,-0.219353,2.185454,0.234457,-0.074554,0.377333,-0.561494,-0.732657,83.695056,39.541352,-155.932193
34332,NaN,-5.933068,6.870300,1.274891,-0.111368,0.577590,-0.664986,-0.151534,2.192432,0.242449,-0.067287,0.384727,-0.562204,-0.728961,84.656356,39.535817,-154.296544
34333,NaN,-4.818436,6.998434,1.043506,-0.896453,0.058958,-1.299391,-0.084586,2.377697,0.300117,-0.059415,0.392565,-0.563255,-0.724642,85.744321,39.484545,-152.521530
34334,NaN,-4.947178,7.392457,0.980446,-1.040242,0.011730,-0.924449,-0.064893,2.561663,0.258834,-0.051198,0.401115,-0.564266,-0.719784,86.925768,39.435635,-150.614918
34335,NaN,-5.555554,7.518322,0.916045,-0.728732,0.258228,-0.451648,-0.058619,2.625892,0.289593,-0.042699,0.409743,-0.565281,-0.714664,88.137554,39.340792,-148.663677
34336,NaN,-5.702356,7.529009,1.052764,-0.782235,0.554078,-0.358033,-0.057307,2.612447,0.312648,-0.034145,0.418184,-0.566248,-0.709450,89.336806,39.200035,-146.728100
34337,NaN,-5.579009,7.092197,1.269105,-0.832104,0.960447,-0.789463,-0.059572,2.675855,0.306398,-0.025429,0.426797,-0.567104,-0.703982,90.555049,39.032107,-144.754399
34338,NaN,-5.510218,6.665948,1.334663,-0.781500,1.259373,-1.188320,0.098871,2.802491,0.277581,-0.016782,0.435833,-0.568366,-0.697659,91.911581,38.843959,-142.697116
34339,NaN,-5.068892,6.808827,1.085460,-1.082614,0.928689,-1.374965,0.276599,2.911156,0.223033,-0.008407,0.445301,-0.570020,-0.690445,93.408110,38.645148,-140.570645
34340,NaN,-4.949082,6.999371,0.825433,-1.204572,0.733783,-1.317180,0.459865,3.084909,0.209068,0.000016,0.455296,-0.572153,-0.682163,95.073633,38.400471,-138.330738
34341,NaN,-5.285024,7.158520,0.486617,-1.000865,0.746832,-0.989457,0.576911,3.252218,0.221391,0.008686,0.465711,-0.574563,-0.672989,96.860619,38.086877,-135.989561
34342,NaN,-5.759157,7.362340,0.275259,-0.839578,0.954333,-0.548382,0.645320,3.296246,0.218467,0.017318,0.476153,-0.577037,-0.663329,98.680098,37.713052,-133.640917
34343,NaN,-6.084113,7.348301,-0.153820,-0.522045,1.025638,-0.341292,0.877850,3.258675,0.293559,0.025525,0.486141,-0.580299,-0.652893,100.579269,37.241218,-131.358114
34344,NaN,-6.160096,7.684399,-0.681521,-0.458348,0.800852,0.016012,1.031221,3.136599,0.420303,0.033418,0.495243,-0.584222,-0.642107,102.464771,36.651874,-129.215834
34345,NaN,-5.903293,8.100220,-1.178010,-0.615209,0.389678,0.252785,0.954275,3.076512,0.464094,0.041451,0.503880,-0.587857,-0.631515,104.234007,35.992530,-127.164159
34346,NaN,-5.989510,8.177299,-1.440401,-0.558842,0.476429,0.398674,0.824981,3.055178,0.607587,0.050196,0.511866,-0.591298,-0.621160,105.858949,35.207525,-125.196726
34347,NaN,-6.501297,8.300049,-1.571064,-0.407056,0.939312,0.797287,0.749981,2.929376,0.713707,0.059072,0.519003,-0.594659,-0.611168,107.331420,34.342647,-123.381075
34348,NaN,-6.746385,8.234019,-2.064013,-0.010763,1.048422,0.979341,0.553027,2.715878,0.798351,0.068076,0.525060,-0.597570,-0.602153,108.554830,33.433731,-121.767614
34349,NaN,-6.495163,8.079976,-1.964578,-0.179554,1.218336,0.666396,0.497217,2.434997,1.018383,0.077030,0.529494,-0.600869,-0.593851,109.577472,32.432951,-120.423745
34350,NaN,-5.712964,7.917690,-2.105364,-0.368668,0.831524,0.133607,0.471302,2.269603,1.157464,0.085961,0.532917,-0.604420,-0.585907,110.473623,31.370237,-119.251997
34351,NaN,-4.741341,8.104595,-2.016743,-0.969298,0.324937,-0.263681,0.501948,2.133807,1.144699,0.094343,0.535909,-0.607986,-0.578146,111.310897,30.327994,-118.193915
34352,NaN,-4.808063,8.180034,-2.314785,-0.788001,0.376946,-0.085289,0.491087,2.014641,1.134935,0.102356,0.538502,-0.611465,-0.570656,112.076187,29.302782,-117.234469
34353,NaN,-5.007496,8.192295,-2.502067,-0.591633,0.603060,0.073308,0.411373,1.472846,1.085906,0.108770,0.539599,-0.614791,-0.564831,112.618812,28.412967,-116.613162
34354,NaN,-4.029411,8.163368,-2.653649,-0.860483,-0.074235,-0.369698,0.395870,1.963359,0.998170,0.116481,0.542284,-0.617506,-0.557716,113.283688,27.453349,-115.692675
34355,NaN,-3.958159,8.223084,-2.974962,-0.713467,-0.141486,-0.241678,0.652448,2.276078,0.815563,0.123929,0.546479,-0.620170,-0.548991,114.176801,26.507222,-114.563656
34356,NaN,-5.592132,8.697827,-3.438958,-0.083088,1.049244,1.033406,0.719659,2.395560,0.719107,0.131285,0.551252,-0.622582,-0.539700,115.121773,25.565957,-113.365897
34357,NaN,-7.315304,9.159715,-3.082404,-0.078708,2.804130,1.978861,0.526758,2.192860,0.752285,0.138605,0.555165,-0.624600,-0.531464,115.875278,24.642495,-112.317882
34358,NaN,-7.126457,9.143335,-2.425857,-0.700049,3.194497,1.570341,0.279182,1.711960,0.961245,0.145656,0.556908,-0.626801,-0.525127,116.329132,23.722009,-111.617163
34359,NaN,-5.310204,8.814464,-2.743825,-0.903355,1.726051,0.657460,0.138331,1.340606,1.097334,0.152273,0.557100,-0.629225,-0.520123,116.590897,22.823485,-111.172902
34360,NaN,-4.347339,8.539618,-3.129676,-0.763157,0.908536,0.197794,0.019137,1.270236,1.002168,0.158749,0.557278,-0.631086,-0.515723,116.770831,21.989289,-110.747554
34361,NaN,-5.020522,8.482674,-3.754255,-0.005959,1.350714,0.648163,-0.108012,1.369400,0.950506,0.165742,0.557737,-0.632352,-0.511458,116.895734,21.155791,-110.258355
34362,NaN,-6.036655,9.493525,-3.749314,-0.194716,2.266148,1.825565,-0.111773,1.426100,1.201982,0.173561,0.557499,-0.634216,-0.506796,116.995862,20.177261,-109.812567
34363,NaN,-6.868978,11.215551,-2.116980,-2.062201,3.724022,2.809737,-0.321421,1.425937,1.836246,0.183545,0.555007,-0.637243,-0.502196,116.907977,18.875856,-109.545137
34364,NaN,-6.463253,11.762927,-0.904307,-3.279251,4.090952,2.575122,-0.909168,0.998751,2.557597,0.195586,0.548507,-0.641081,-0.499902,116.346658,17.315076,-109.697103
34365,NaN,-2.212010,11.197193,-2.326733,-2.971320,-0.018054,1.449747,-1.538369,0.669452,2.865233,0.209011,0.539453,-0.644354,-0.500112,115.362217,15.677351,-110.083192
34366,NaN,1.338733,8.620890,-1.585909,-3.230870,-2.499765,-1.943088,-1.992493,1.201840,2.940365,0.225506,0.530844,-0.645942,-0.500110,114.206121,13.864868,-110.166408
34367,NaN,-4.731152,3.448514,-5.472397,4.543679,1.953862,-3.507448,-0.734808,1.393331,2.551013,0.238238,0.525240,-0.649237,-0.495840,113.822822,12.211656,-110.028091
34368,NaN,-5.874671,5.956625,-9.160296,6.854139,1.656650,0.393864,2.045562,1.058216,1.726262,0.240491,0.524679,-0.657522,-0.484294,115.031288,11.066090,-109.881512
34369,NaN,-5.105776,12.734487,-5.410374,0.278057,2.597249,4.701712,2.027255,0.911094,2.295094,0.243622,0.521751,-0.667277,-0.472405,116.181906,9.661618,-109.980213
34370,NaN,-6.684585,12.326268,-5.938216,1.450664,4.168682,4.761078,-0.093832,-0.398522,2.020223,0.247232,0.513966,-0.672783,-0.471252,116.019461,8.728268,-110.703077
34371,NaN,-9.179261,8.836243,-7.758063,5.646215,5.719423,2.754115,-0.789072,-2.101392,1.632662,0.245941,0.502541,-0.677656,-0.477230,115.349463,8.414192,-112.209919
34372,NaN,-9.447686,8.161020,-7.783765,6.362428,5.724546,2.153251,-0.211626,-3.416884,1.481360,0.238324,0.489060,-0.684966,-0.484607,114.918282,8.483003,-114.365563
34373,NaN,-10.776439,9.966131,-9.797446,8.001040,5.743058,4.830278,0.373917,-4.760674,1.210002,0.223891,0.473723,-0.694300,-0.493364,114.713723,9.006179,-117.164589
34374,NaN,-8.509660,13.213664,-9.336776,5.476745,3.549929,7.261935,-0.428661,-6.454982,0.910767,0.204565,0.453947,-0.702264,-0.508832,113.872642,10.058157,-120.799842
34375,NaN,-5.950690,11.869029,-8.866946,4.677832,0.718477,5.433105,-1.945816,-7.609309,0.414929,0.183088,0.430838,-0.705501,-0.532096,111.979795,11.546095,-124.981879
34376,NaN,-2.163519,9.123745,-7.411407,2.758967,-2.455610,1.552332,-2.471450,-7.986337,-0.202159,0.159487,0.407706,-0.705199,-0.557704,109.636744,13.286414,-129.319139
34377,NaN,1.220221,7.694458,-4.829194,-0.608028,-3.923386,-1.552192,-2.204873,-7.251549,-0.887661,0.135748,0.388604,-0.702521,-0.580537,107.423595,15.097717,-133.216281
34378,NaN,2.401649,6.614599,-3.047482,-2.291805,-3.779663,-3.546719,-1.541219,-5.907368,-1.557841,0.113345,0.375724,-0.698700,-0.598166,105.688785,16.923926,-136.327062
34379,NaN,2.043163,6.245110,-2.074882,-2.667162,-2.949575,-4.185739,-0.667059,-4.436171,-2.156668,0.092540,0.369531,-0.694964,-0.609842,104.626344,18.789199,-138.565997
34380,NaN,1.199513,6.631068,-1.936808,-2.475900,-2.435538,-3.722201,-0.061133,-3.021668,-2.806591,0.073515,0.369991,-0.690863,-0.616774,104.138304,20.782691,-139.924175
34381,NaN,-0.501622,7.381038,-1.975533,-1.749288,-1.607291,-2.533654,0.290209,-1.803745,-3.240944,0.056665,0.375697,-0.686319,-0.620167,104.090735,22.843119,-140.517091
34382,NaN,-3.092773,8.029728,-1.969829,-0.437065,-0.286116,-1.001302,0.432905,-1.223547,-3.435956,0.040927,0.383778,-0.681458,-0.621816,104.257893,24.929202,-140.733738
34383,NaN,-5.350865,8.741369,-1.958576,0.523764,0.763470,0.580102,0.089215,-0.858027,-3.536364,0.026755,0.393142,-0.675024,-0.623752,104.326604,27.021494,-140.708430
34384,NaN,-7.162365,8.951924,-1.472101,1.122698,1.904662,1.531973,-0.456487,-1.003466,-3.369062,0.013691,0.401283,-0.667025,-0.627584,104.026524,29.039540,-140.804892
34385,NaN,-8.268962,8.654519,-1.259551,1.675181,2.391620,1.862969,-1.069108,-1.613723,-3.067238,0.000749,0.406335,-0.657529,-0.634467,103.139049,30.972469,-141.367453
34386,NaN,-8.882638,8.041698,-1.299612,2.279106,2.363048,1.783118,-1.494717,-2.431846,-2.626117,-0.012604,0.407192,-0.647356,-0.644178,101.643822,32.746806,-142.590292
34387,NaN,-9.080286,7.426520,-1.397942,2.738523,2.016204,1.499875,-1.694063,-3.295223,-2.023140,-0.026414,0.403167,-0.637439,-0.656072,99.591700,34.241808,-144.561247
34388,NaN,-8.956875,6.869768,-1.309333,2.957939,1.629831,1.036454,-1.899841,-4.194826,-1.384025,-0.040550,0.393970,-0.627700,-0.670176,96.934334,35.377836,-147.320638
34389,NaN,-8.269223,6.174808,-1.302054,2.987961,0.940709,0.105157,-2.182479,-5.122140,-0.777547,-0.054996,0.379557,-0.617580,-0.686664,93.614351,36.099146,-150.873412
34390,NaN,-7.168732,5.474274,-1.319267,2.770119,0.116933,-1.130202,-2.264374,-5.964327,-0.260829,-0.070046,0.360332,-0.607380,-0.704517,89.822043,36.356576,-155.104592
34391,NaN,-5.781203,4.885323,-1.182531,2.184483,-0.572269,-2.493698,-2.163433,-6.539185,0.142164,-0.085543,0.337432,-0.597379,-0.722468,85.841890,36.140764,-159.747598
34392,NaN,-4.329411,4.334412,-1.076290,1.472610,-1.135779,-3.878188,-1.973262,-6.823372,0.455296,-0.100956,0.312071,-0.587750,-0.739574,81.930538,35.469741,-164.509810
34393,NaN,-2.984485,3.913332,-1.157658,0.751272,-1.687906,-5.107216,-1.690244,-6.931682,0.610101,-0.116445,0.285320,-0.578593,-0.755158,78.270172,34.448936,-169.215565
34394,NaN,-1.996497,3.584506,-1.160467,0.156230,-1.956507,-6.027731,-1.300533,-6.855384,0.619489,-0.132070,0.258239,-0.570251,-0.768559,75.022512,33.200507,-173.721071
34395,NaN,-1.336772,4.207606,-0.934482,-0.748983,-2.142612,-5.912562,-0.866562,-6.582507,0.574232,-0.147513,0.231753,-0.563019,-0.779448,72.279801,31.828935,-177.908655
34396,NaN,-3.113808,4.344205,-1.361474,0.768001,-2.682207,-5.055169,-0.295691,-5.775862,0.244979,-0.162471,0.208683,-0.557688,-0.786790,70.241372,30.636918,178.474810
34397,NaN,-1.773383,4.713362,-1.516815,-0.584578,-3.048608,-5.567174,0.002749,-5.076518,-0.145744,-0.177222,0.189061,-0.553265,-0.791673,68.645158,29.699501,175.284952
34398,NaN,-2.887143,6.007614,-2.136967,-0.259143,-4.206159,-4.223975,0.670916,-3.860890,-0.017126,-0.188627,0.173199,-0.552412,-0.793261,67.879208,28.893538,172.920321
34399,NaN,-4.417757,7.571628,0.155268,0.124062,-2.778119,-1.497858,0.947916,-3.355084,0.144484,-0.198183,0.158581,-0.553072,-0.793528,67.476979,28.092489,170.927001
34400,NaN,-3.741871,7.859408,0.740049,-0.603328,-2.297626,-1.405792,0.484513,-3.188290,-0.010608,-0.207456,0.145461,-0.551791,-0.794562,66.872534,27.393643,169.017631
34401,NaN,-4.697226,7.300073,0.974846,0.524955,-2.148303,-1.362013,0.742322,-2.945031,-0.050972,-0.216368,0.133123,-0.551610,-0.794474,66.502785,26.758222,167.258601
34402,NaN,-6.157903,7.522641,1.802957,1.749118,-1.819361,-0.252882,1.235451,-3.170498,-0.005756,-0.225980,0.119189,-0.553041,-0.793015,66.388322,26.039458,165.393758
34403,NaN,-5.567161,8.481223,2.759384,0.905414,-1.167601,0.596623,1.410317,-3.735726,0.081193,-0.236849,0.102543,-0.554377,-0.791236,66.269603,25.142952,163.235296
34404,NaN,-4.082473,8.870730,3.198320,-0.402885,-0.558949,0.439577,1.415934,-4.068583,0.123119,-0.248362,0.084405,-0.555133,-0.789316,66.120584,24.141569,160.915870
34405,NaN,-2.156044,8.529333,2.865964,-1.807086,-0.227960,-0.741159,1.514936,-4.184045,0.088208,-0.260268,0.065753,-0.555842,-0.786751,66.041796,23.128706,158.540661
34406,NaN,-1.068466,8.902492,2.241749,-2.903693,-0.476424,-1.051352,1.776051,-3.932474,0.072620,-0.271484,0.047754,-0.557645,-0.782974,66.211660,22.182854,156.322084
34407,NaN,-2.464118,10.689863,1.975617,-2.514821,-1.573226,0.931945,1.759051,-3.532832,0.183664,-0.281042,0.031019,-0.559698,-0.778968,66.500734,21.279794,154.366074
34408,NaN,-0.084670,11.861009,3.720473,-4.469520,0.740390,1.763392,0.856970,-2.753196,0.194815,-0.288139,0.018540,-0.559179,-0.777143,66.461322,20.552126,152.861180
34409,NaN,3.189342,10.265577,4.287615,-6.174789,2.990098,-0.492371,-0.114861,-1.435086,0.161265,-0.291563,0.012679,-0.556695,-0.777766,66.133691,20.141928,152.092615
34410,NaN,2.780343,8.041907,4.587677,-4.666810,3.537789,-2.121505,0.007064,-0.030603,0.040695,-0.291537,0.012433,-0.556722,-0.777761,66.140726,20.117704,152.081446
34411,NaN,1.619414,7.252191,4.470047,-3.376091,3.115333,-2.457789,0.609023,1.056682,0.055767,-0.288466,0.015498,-0.560653,-0.776026,66.702424,20.335154,152.681324
34412,NaN,0.667362,7.743385,4.160245,-2.919208,2.411079,-1.851729,1.139008,1.827800,0.066832,-0.283201,0.020755,-0.567722,-0.772696,67.727441,20.709698,153.724049
34413,NaN,-0.732164,8.791290,3.567616,-2.404252,1.237510,-0.689281,1.447070,2.226915,0.125011,-0.276576,0.026951,-0.576456,-0.768426,69.023463,21.117828,155.017120
34414,NaN,-1.899002,9.635745,2.728256,-2.011124,0.048953,0.179653,1.526634,2.259133,0.266716,-0.269266,0.032747,-0.585467,-0.763971,70.396955,21.427784,156.372939
34415,NaN,-2.412075,9.935637,1.747401,-1.915586,-0.898534,0.341541,1.438046,2.078387,0.361516,-0.262069,0.037688,-0.593797,-0.759806,71.695257,21.623275,157.651228
34416,NaN,-3.042554,9.816684,0.568680,-1.555046,-2.011931,0.161221,1.320642,1.870153,0.263203,-0.255796,0.042278,-0.601314,-0.755779,72.882251,21.810185,158.795644
34417,NaN,-6.025577,10.631123,0.284832,0.646000,-3.207022,1.964549,1.171582,1.486178,-0.209868,-0.252410,0.047025,-0.607598,-0.751600,73.872888,22.173732,159.634029
34418,NaN,-8.410120,12.445232,1.311229,2.154773,-3.064285,4.792019,0.866126,0.683934,-0.564582,-0.252701,0.050218,-0.611610,-0.748033,74.493606,22.596467,159.942904
34419,NaN,-6.732437,12.005789,2.321381,1.070077,-1.420452,4.032536,0.131710,0.088516,-0.560837,-0.254614,0.052100,-0.612099,-0.746855,74.557467,22.924664,159.898560
34420,NaN,-3.365165,8.935905,2.872229,-0.414630,0.545761,0.134893,-0.440245,0.209562,-0.419338,-0.255471,0.054728,-0.610647,-0.747562,74.332492,23.193034,159.950734
34421,NaN,-2.068096,6.031262,2.345854,-0.396846,0.820630,-3.080293,-0.048568,0.756631,-0.299244,-0.254319,0.058534,-0.611373,-0.747073,74.468738,23.479760,160.350852
34422,NaN,-1.307291,5.035634,1.428931,-0.829903,0.364498,-4.494198,1.046338,1.428436,-0.285284,-0.251362,0.063410,-0.617027,-0.743016,75.401454,23.855061,161.163854
34423,NaN,-0.846545,6.384281,1.010433,-1.931955,0.072077,-3.587184,2.103650,2.127300,-0.346259,-0.246779,0.069733,-0.627363,-0.735291,77.119131,24.342383,162.404939
34424,NaN,-1.606916,8.818122,1.254097,-2.319108,0.090280,-1.065019,2.456369,2.598747,-0.516833,-0.241393,0.077868,-0.639353,-0.725874,79.172698,24.942988,163.937988
34425,NaN,-2.990599,11.000917,1.597435,-2.050414,0.231750,1.512002,2.104647,2.626023,-0.675694,-0.236290,0.087011,-0.649829,-0.717160,81.050780,25.588032,165.499545
34426,NaN,-4.260621,11.647552,1.649245,-1.273490,0.275163,2.630537,1.449832,2.263028,-0.702343,-0.232113,0.095691,-0.657368,-0.710517,82.481772,26.177096,166.858904
34427,NaN,-4.892421,10.797799,1.195732,-0.467340,-0.039119,2.092567,0.800435,1.723026,-0.556638,-0.228854,0.102713,-0.661937,-0.706339,83.411265,26.620176,167.905300
34428,NaN,-5.270307,9.412416,0.897699,0.414034,-0.225532,1.001752,0.508739,1.200270,-0.315489,-0.226302,0.107418,-0.664964,-0.703614,84.042966,26.880170,168.645968
34429,NaN,-5.970495,8.136776,0.218987,1.496215,-0.898861,0.129882,0.463247,0.732019,-0.198377,-0.224807,0.110192,-0.667323,-0.701427,84.518903,27.040482,169.107894
34430,NaN,-6.922324,7.764203,-0.133278,2.443333,-1.326650,0.211729,0.637411,0.262268,-0.124979,-0.224770,0.110818,-0.669813,-0.698962,84.962915,27.130773,169.265958
34431,NaN,-7.104332,8.364235,0.325715,2.390616,-0.847969,0.869250,0.687679,-0.188909,-0.060761,-0.225990,0.109653,-0.671980,-0.696669,85.304190,27.161893,169.147929
34432,NaN,-7.150353,9.038913,0.529366,2.142978,-0.620310,1.506878,0.562176,-0.514198,-0.172780,-0.228677,0.107814,-0.673290,-0.694812,85.476928,27.242131,168.806238
34433,NaN,-8.090310,9.841665,0.901600,2.619464,-0.398351,2.681468,0.453972,-0.650864,-0.417018,-0.232556,0.106503,-0.673906,-0.693128,85.539153,27.456906,168.373092
34434,NaN,-8.264114,9.995193,1.347980,2.728185,-0.001476,2.937736,0.255133,-0.723535,-0.369871,-0.236459,0.104951,-0.673778,-0.692168,85.466722,27.640913,167.885656
34435,NaN,-8.195807,8.922450,0.993543,3.076574,-0.394743,1.940913,0.113691,-0.740662,-0.185890,-0.239654,0.102945,-0.673207,-0.691925,85.309498,27.718898,167.404708
34436,NaN,-8.422623,8.112816,0.676919,3.578686,-0.808245,1.311889,0.392349,-0.842320,-0.079359,-0.243013,0.099833,-0.673539,-0.690886,85.285178,27.729882,166.854537
34437,NaN,-8.470148,8.503569,0.534042,3.403280,-0.982919,1.667328,0.729942,-1.118609,0.002510,-0.247190,0.095080,-0.674711,-0.688929,85.371983,27.682406,166.129456
34438,NaN,-7.808826,9.397106,0.443174,2.405493,-0.943257,2.137349,0.805134,-1.564390,0.164800,-0.252322,0.088143,-0.675635,-0.687082,85.375809,27.521232,165.127323
34439,NaN,-5.973655,9.772439,0.410435,0.670986,-0.600312,1.612834,0.612568,-1.995330,0.284401,-0.258401,0.079559,-0.675332,-0.686167,85.147241,27.270714,163.855477
34440,NaN,-3.152925,9.138843,0.145454,-1.488067,-0.243475,-0.262466,0.292834,-2.104723,0.245549,-0.264815,0.071132,-0.673710,-0.686242,84.711012,27.029194,162.516893
34441,NaN,-0.824988,7.883927,-0.213074,-2.973470,-0.049587,-2.461611,0.142993,-1.741633,0.117233,-0.270379,0.064577,-0.671934,-0.686462,84.295097,26.872952,161.405990
34442,NaN,-0.010451,7.021053,-0.200295,-3.258846,0.161907,-3.592634,0.333683,-1.065146,0.025144,-0.274022,0.060389,-0.671670,-0.685656,84.185414,26.802562,160.724431
34443,NaN,-0.532660,7.405356,0.176492,-2.877773,0.424008,-2.979489,0.704633,-0.360737,-0.033340,-0.275615,0.058306,-0.673600,-0.683301,84.488254,26.807134,160.488146
34444,NaN,-2.397831,9.091997,0.939563,-1.835644,0.763871,-0.574559,0.978984,0.025583,-0.075021,-0.276114,0.057300,-0.676983,-0.679832,85.060221,26.856488,160.497493
34445,NaN,-4.284907,10.525135,1.015753,-0.853388,0.461160,1.555208,0.847936,-0.012635,-0.082700,-0.276733,0.056372,-0.679842,-0.676798,85.544461,26.908938,160.481459
34446,NaN,-5.348591,10.784198,0.731473,-0.146252,-0.044457,2.246248,0.463441,-0.271345,-0.031865,-0.277939,0.054925,-0.681056,-0.675200,85.736276,26.920572,160.303516
34447,NaN,-5.475222,10.020390,0.406449,0.207390,-0.439753,1.602875,0.170217,-0.463088,-0.027057,-0.279707,0.053223,-0.681002,-0.674661,85.702896,26.922017,160.001920
34448,NaN,-5.355012,8.834270,-1.052304,0.183321,-1.899086,0.394548,0.169738,-0.679499,0.064958,-0.281891,0.050477,-0.680670,-0.674298,85.610387,26.860669,159.567272
34449,NaN,-5.973824,9.224212,-0.389602,0.740834,-1.469502,1.060024,0.191058,-1.116999,0.392155,-0.284468,0.045112,-0.679851,-0.674423,85.411552,26.592379,158.869083
34450,NaN,-2.841958,8.258294,-0.012413,-1.318739,-0.240243,-1.182550,-0.318268,-0.942618,-0.027043,-0.287733,0.042481,-0.677456,-0.675617,84.964957,26.567746,158.263276
34451,NaN,-3.367431,6.626749,-1.360481,-0.626259,-1.837423,-2.509544,0.055720,-0.179424,-0.344694,-0.289570,0.042968,-0.677336,-0.674921,84.940880,26.761194,158.125694
34452,NaN,-5.219335,7.910719,0.352123,0.892887,-0.699919,-0.396878,0.615776,0.230714,-0.165082,-0.289522,0.043418,-0.679742,-0.672490,85.361900,26.871843,158.261740
34453,NaN,-5.344289,9.243646,0.392320,0.419067,-0.527929,0.850607,0.431804,0.061804,-0.057244,-0.289650,0.043201,-0.681295,-0.670875,85.630151,26.913154,158.294972
34454,NaN,-4.830432,9.492810,0.486670,-0.086968,-0.218507,0.846958,0.120838,-0.110367,-0.120463,-0.290502,0.043070,-0.681547,-0.670259,85.670351,26.982428,158.215829
34455,NaN,-4.462781,9.124445,0.599670,-0.201967,-0.024003,0.360322,-0.060731,-0.139837,-0.145051,-0.291504,0.043190,-0.681134,-0.670236,85.595844,27.065056,158.115597
34456,NaN,-4.582556,8.780842,0.477478,-0.004731,-0.216120,0.101154,-0.054807,-0.066244,-0.092747,-0.292074,0.043368,-0.680867,-0.670248,85.548656,27.120353,158.065936
34457,NaN,-4.890441,9.020597,0.383517,0.106059,-0.383645,0.447733,0.087797,-0.095237,0.042527,-0.292328,0.042781,-0.681056,-0.669982,85.576336,27.097692,158.003482
34458,NaN,-4.416497,9.685020,0.231222,-0.627574,-0.303312,0.811467,0.092394,-0.203446,0.119473,-0.292685,0.041562,-0.681127,-0.669832,85.578269,27.025699,157.876357
34459,NaN,-4.175371,10.041176,0.223052,-0.977624,-0.203041,1.018365,-0.003016,-0.209725,0.147409,-0.292958,0.040368,-0.680865,-0.670051,85.523181,26.938015,157.745845
34460,NaN,-4.298915,9.801233,0.206827,-0.762588,-0.302781,0.860378,-0.142945,-0.163327,0.186206,-0.292906,0.039400,-0.680217,-0.670789,85.403939,26.829501,157.648162
34461,NaN,-4.785343,9.387422,0.513932,-0.056954,-0.247799,0.733525,-0.186478,-0.100203,0.244653,-0.292442,0.038510,-0.679518,-0.671751,85.278326,26.690901,157.593424
34462,NaN,-5.361132,9.173352,0.779570,0.624965,-0.240626,0.819870,-0.107259,-0.064627,0.276630,-0.291756,0.037514,-0.679149,-0.672478,85.210645,26.535112,157.564277
34463,NaN,-5.460092,9.454661,1.127876,0.723551,0.062619,1.139383,-0.021989,0.010242,0.207486,-0.291072,0.036881,-0.679155,-0.672804,85.210265,26.422936,157.578495
34464,NaN,-5.793013,9.520767,1.284772,1.042778,0.099753,1.356792,0.032365,0.094260,0.149527,-0.290299,0.036647,-0.679462,-0.672841,85.264728,26.347275,157.643949
34465,NaN,-6.154899,9.438006,1.416781,1.437857,0.101097,1.451784,0.062008,0.154150,0.058843,-0.289642,0.036882,-0.679931,-0.672638,85.349533,26.326770,157.741827
34466,NaN,-6.454250,9.131869,1.213533,1.762827,-0.201420,1.294646,0.149353,0.158444,0.073268,-0.288929,0.036954,-0.680709,-0.672153,85.487214,26.297415,157.843973
34467,NaN,-6.311741,8.785414,0.619299,1.607774,-0.721354,0.878420,0.259309,0.023379,0.086023,-0.288662,0.036372,-0.681655,-0.671340,85.648562,26.255318,157.859674
34468,NaN,-5.897251,8.716954,0.329176,1.208635,-0.843241,0.613210,0.304344,-0.198586,0.081889,-0.289164,0.034991,-0.682438,-0.670402,85.774481,26.205273,157.734584
34469,NaN,-5.290853,8.515598,-0.185420,0.625067,-1.130771,0.130831,0.300056,-0.376451,0.093827,-0.290240,0.032983,-0.682939,-0.669528,85.846931,26.142045,157.495839
34470,NaN,-4.809588,8.353539,-0.625111,0.148021,-1.389578,-0.254880,0.301444,-0.470582,0.077747,-0.291680,0.030708,-0.683309,-0.668632,85.895132,26.083458,157.197423
34471,NaN,-4.629072,8.273460,-0.911854,-0.068034,-1.600193,-0.424148,0.289167,-0.496832,0.047789,-0.293315,0.028470,-0.683582,-0.667736,85.927311,26.042057,156.880134
34472,NaN,-4.868681,8.641971,-0.480158,0.131685,-1.241308,0.039220,0.335005,-0.483727,0.104173,-0.294711,0.026012,-0.684036,-0.666756,85.992176,25.968251,156.574719
34473,NaN,-4.916385,8.885436,-0.359100,0.121290,-1.120796,0.285820,0.255725,-0.502473,0.161986,-0.295976,0.023414,-0.684193,-0.666131,86.006825,25.861831,156.259298
34474,NaN,-4.781392,8.963383,-0.825233,-0.184782,-1.503140,0.266567,0.187146,-0.485033,0.213335,-0.296989,0.020796,-0.684155,-0.665806,85.989948,25.725765,155.958393
34475,NaN,-5.008059,9.339903,-0.836431,-0.146857,-1.570346,0.700468,0.125382,-0.500446,0.281445,-0.297829,0.017989,-0.683883,-0.665792,85.934601,25.551000,155.650466
34476,NaN,-5.050841,9.600163,-0.840058,-0.208471,-1.595118,0.947969,-0.125187,-0.603983,0.311914,-0.298887,0.015102,-0.682625,-0.666680,85.710565,25.352808,155.280163
34477,NaN,-4.764879,9.561716,-0.616594,-0.338670,-1.352640,0.797012,-0.506097,-0.699003,0.286783,-0.300328,0.012558,-0.679936,-0.668829,85.243097,25.163714,154.849797
34478,NaN,-4.384308,9.336801,-0.147343,-0.388440,-0.893973,0.457106,-0.812134,-0.723206,0.187775,-0.302147,0.010724,-0.676170,-0.671853,84.594687,25.025070,154.401992
34479,NaN,-4.088314,8.976481,0.339216,-0.323359,-0.476555,0.039909,-1.069381,-0.666641,0.021875,-0.304317,0.010034,-0.671588,-0.675470,83.810155,24.980262,153.980788
34480,NaN,-4.299146,8.805510,0.707129,0.009809,-0.347842,0.005526,-1.129611,-0.540270,-0.189558,-0.306752,0.010567,-0.666963,-0.678934,83.019283,25.057810,153.624974
34481,NaN,-4.771047,9.164626,0.985355,0.272548,-0.354251,0.556647,-1.052678,-0.454478,-0.381900,-0.309555,0.011920,-0.662691,-0.681817,82.286495,25.247699,153.305298
34482,NaN,-5.575921,9.789008,1.133625,0.610516,-0.597484,1.477536,-1.122367,-0.423691,-0.540095,-0.312770,0.014003,-0.658197,-0.684657,81.514281,25.524950,152.988140
34483,NaN,-6.254775,10.320685,1.090949,0.775667,-0.993646,2.238741,-1.394268,-0.439882,-0.638167,-0.316348,0.016785,-0.652701,-0.688203,80.572945,25.853041,152.645073
34484,NaN,-6.743571,10.585015,1.195286,0.927690,-1.239628,2.699085,-1.872739,-0.502759,-0.685418,-0.320218,0.020254,-0.645405,-0.693183,79.333480,26.194477,152.250111
34485,NaN,-6.919778,10.357947,1.640593,1.156227,-1.123326,2.647459,-2.422836,-0.563462,-0.698435,-0.324239,0.024439,-0.636012,-0.699829,77.753648,26.528673,151.804383
34486,NaN,-6.718001,9.643133,1.994109,1.269919,-0.978774,1.999080,-2.879014,-0.586342,-0.676123,-0.328125,0.029201,-0.624869,-0.707828,75.900641,26.834141,151.336103
34487,NaN,-6.053434,8.737756,2.179545,1.065658,-0.782073,0.957030,-3.126231,-0.501537,-0.633181,-0.331489,0.034536,-0.612840,-0.716484,73.924519,27.115671,150.914552
34488,NaN,-5.372585,7.830929,2.561249,0.951016,-0.354654,-0.029482,-3.121994,-0.276906,-0.603591,-0.333965,0.040561,-0.601051,-0.724955,72.010488,27.404476,150.626181
34489,NaN,-5.118654,7.139273,2.927224,1.072566,-0.073751,-0.616074,-2.937794,0.043628,-0.641557,-0.335583,0.047553,-0.590310,-0.732569,70.281686,27.766336,150.514170
34490,NaN,-5.067746,6.678446,3.080287,1.169978,-0.028225,-0.958386,-2.639227,0.336412,-0.722462,-0.336624,0.055337,-0.581016,-0.738947,68.793486,28.225944,150.550691
34491,NaN,-5.222849,6.468757,3.173492,1.277395,-0.098877,-1.006450,-2.296773,0.562280,-0.800440,-0.337344,0.063606,-0.573241,-0.744008,67.551202,28.777291,150.691926
34492,NaN,-5.569762,6.283640,3.280084,1.528418,-0.203118,-0.930916,-1.989860,0.721726,-0.853036,-0.337843,0.072083,-0.566784,-0.747945,66.521513,29.392888,150.905040
34493,NaN,-6.108269,6.050961,3.299990,1.936053,-0.428045,-0.819261,-1.716762,0.747071,-0.869929,-0.338337,0.080292,-0.561306,-0.751011,65.649492,30.027859,151.127592
34494,NaN,-6.420080,5.787946,3.429100,2.229692,-0.433256,-0.795161,-1.432761,0.651344,-0.852021,-0.339169,0.087544,-0.556699,-0.753251,64.911991,30.631487,151.279257
34495,NaN,-6.323767,5.459108,3.427581,2.238942,-0.364257,-1.072343,-1.124873,0.473575,-0.798516,-0.340353,0.093509,-0.552923,-0.754779,64.300155,31.167061,151.340674
34496,NaN,-6.334377,5.209298,3.040077,2.214589,-0.693576,-1.379591,-0.772221,0.227960,-0.729538,-0.342160,0.097692,-0.550083,-0.755507,63.822185,31.604126,151.259361
34497,NaN,-6.435728,5.299714,2.743053,2.089372,-1.033262,-1.351224,-0.474299,-0.042430,-0.693908,-0.344661,0.100305,-0.547896,-0.755618,63.430703,31.955558,151.030165
34498,NaN,-6.548353,5.537429,2.755573,1.960531,-1.132498,-1.094282,-0.297023,-0.350306,-0.653465,-0.347988,0.101276,-0.545872,-0.755428,63.046785,32.203480,150.614863
34499,NaN,-6.591868,5.609645,3.016937,1.950023,-0.970875,-0.908919,-0.216345,-0.696793,-0.574079,-0.351944,0.100641,-0.543566,-0.755343,62.606862,32.319949,150.021244
34500,NaN,-6.359102,5.424258,3.058492,1.864264,-0.868307,-1.153292,-0.121950,-1.036495,-0.507222,-0.356660,0.098310,-0.541052,-0.755243,62.123164,32.305882,149.234308
34501,NaN,-6.236709,5.320280,3.091235,1.820151,-0.844879,-1.284481,0.117118,-1.341450,-0.450413,-0.362038,0.094307,-0.538888,-0.754742,61.688852,32.177862,148.292851
34502,NaN,-6.274315,5.552798,3.005510,1.659029,-1.056302,-1.131391,0.410055,-1.665226,-0.409648,-0.368299,0.088372,-0.537241,-0.753603,61.332746,31.932906,147.166364
34503,NaN,-6.116637,6.071800,3.019360,1.206422,-1.138036,-0.832417,0.604144,-1.979813,-0.399572,-0.375369,0.080923,-0.535687,-0.752057,60.998106,31.592720,145.871517
34504,NaN,-5.479870,6.461060,3.233265,0.565329,-0.794611,-0.797335,0.661684,-2.236519,-0.446590,-0.383329,0.072452,-0.533794,-0.750249,60.622587,31.194937,144.409772
34505,NaN,-4.576032,6.523965,3.271374,-0.087097,-0.401764,-1.208351,0.701056,-2.345527,-0.544556,-0.391920,0.063766,-0.531717,-0.748071,60.232106,30.809385,142.860197
34506,NaN,-3.749416,6.482122,3.321151,-0.600642,0.015457,-1.642933,0.799415,-2.301484,-0.689368,-0.400888,0.055408,-0.529970,-0.745219,59.900327,30.497405,141.297712
34507,NaN,-3.406663,6.683607,3.463069,-0.905417,0.264307,-1.604208,0.935172,-2.144722,-0.863868,-0.410080,0.047834,-0.528903,-0.741490,59.669503,30.312924,139.771322
34508,NaN,-3.502440,6.922144,3.639531,-0.929226,0.325541,-1.300349,1.048337,-1.938518,-1.020382,-0.419256,0.041181,-0.528567,-0.736984,59.542176,30.258983,138.314290
34509,NaN,-3.792492,7.018442,3.775687,-0.752819,0.274247,-1.023184,1.161302,-1.728661,-1.107902,-0.428178,0.035307,-0.528986,-0.731841,59.523624,30.309966,136.946562
34510,NaN,-4.086169,7.077528,4.072263,-0.485433,0.363130,-0.702040,1.288891,-1.538660,-1.127081,-0.436616,0.029883,-0.530209,-0.726190,59.629375,30.424119,135.681450
34511,NaN,-4.101208,7.088620,4.320752,-0.367392,0.593502,-0.579601,1.438055,-1.358764,-1.100007,-0.444458,0.024728,-0.532292,-0.720076,59.872558,30.582324,134.525978
34512,NaN,-3.821745,7.134988,4.532346,-0.444453,0.990576,-0.599837,1.601975,-1.143544,-1.033404,-0.451437,0.019787,-0.535392,-0.713560,60.282629,30.772426,133.517299
34513,NaN,-3.565108,7.122802,4.485398,-0.560429,1.195187,-0.767270,1.767439,-0.893664,-0.938155,-0.457382,0.015121,-0.539582,-0.706700,60.872967,30.994960,132.683493
34514,NaN,-3.387270,7.089199,4.331777,-0.647954,1.291155,-0.957962,1.959344,-0.584587,-0.858952,-0.462157,0.010878,-0.545103,-0.699396,61.679607,31.269421,132.059102
34515,NaN,-3.164135,7.166912,4.098973,-0.859793,1.382490,-1.122167,2.167696,-0.281943,-0.795494,-0.465851,0.007052,-0.551976,-0.691560,62.706543,31.603037,131.636022
34516,NaN,-2.913087,7.443025,3.428962,-1.427710,1.190929,-1.316640,2.322752,-0.024957,-0.735513,-0.468552,0.003572,-0.559915,-0.683331,63.916459,31.977124,131.393507
34517,NaN,-2.902325,7.724596,2.687552,-1.904828,0.820568,-1.385911,2.406676,0.225026,-0.697290,-0.470367,0.000654,-0.568632,-0.674843,65.263020,32.399126,131.322262
34518,NaN,-3.310477,7.947876,2.316305,-1.921866,0.485993,-1.120185,2.390509,0.422354,-0.693158,-0.471516,-0.001584,-0.577675,-0.666305,66.674983,32.864570,131.388029
34519,NaN,-4.043732,8.229236,2.151708,-1.685340,0.129317,-0.547668,2.371650,0.498928,-0.672664,-0.472314,-0.003570,-0.586735,-0.657761,68.111673,33.336089,131.520163
34520,NaN,-4.773837,8.639026,2.040578,-1.496025,-0.151651,0.153291,2.337533,0.411836,-0.610383,-0.473076,-0.005956,-0.595393,-0.649362,69.517450,33.751812,131.628079
34521,NaN,-5.297604,9.104373,2.104495,-1.348725,-0.155331,0.842636,2.222990,0.199239,-0.516979,-0.474117,-0.009029,-0.603080,-0.641425,70.798288,34.075106,131.630569
34522,NaN,-5.415271,9.368870,2.234988,-1.260264,0.096331,1.164353,2.037543,-0.056390,-0.402283,-0.475499,-0.012836,-0.609497,-0.634231,71.899328,34.287685,131.500246
34523,NaN,-5.265850,9.331566,2.259722,-1.204332,0.347053,1.065758,1.853138,-0.267283,-0.309628,-0.477206,-0.017146,-0.614753,-0.627741,72.827349,34.416328,131.252878
34524,NaN,-4.896642,9.143012,2.300811,-1.174464,0.686700,0.723577,1.745376,-0.401328,-0.240651,-0.479064,-0.021839,-0.619299,-0.621682,73.653595,34.486690,130.933611
34525,NaN,-4.557136,8.985170,2.264404,-1.195125,0.937899,0.400969,1.702441,-0.449496,-0.188035,-0.480886,-0.026732,-0.623533,-0.615825,74.441303,34.525442,130.591901
34526,NaN,-4.341574,9.046912,2.378583,-1.173571,1.267200,0.354363,1.674331,-0.428312,-0.138604,-0.482444,-0.031653,-0.627683,-0.610131,75.227959,34.542623,130.275270
34527,NaN,-4.143585,9.071158,2.224402,-1.290793,1.374669,0.229516,1.582397,-0.360867,-0.101823,-0.483669,-0.036252,-0.631657,-0.604780,75.989683,34.553609,130.009401
34528,NaN,-3.984165,9.058972,2.102688,-1.349263,1.469406,0.105921,1.492163,-0.250576,-0.057830,-0.484387,-0.040443,-0.635585,-0.599804,76.747871,34.556791,129.826769
34529,NaN,-3.846988,8.964822,2.063355,-1.301091,1.582758,-0.054329,1.384289,-0.121014,-0.006855,-0.484547,-0.044139,-0.639451,-0.595288,77.496901,34.550915,129.738701
34530,NaN,-3.735312,8.865202,2.010157,-1.249922,1.662399,-0.207580,1.269327,0.029984,0.032387,-0.484101,-0.047235,-0.643311,-0.591241,78.243217,34.541279,129.760242
34531,NaN,-3.730970,8.719345,2.027776,-1.074922,1.705968,-0.326269,1.172753,0.198537,0.078845,-0.482989,-0.049743,-0.647250,-0.587635,79.001153,34.525055,129.901667
34532,NaN,-3.720802,8.624089,1.973066,-0.979636,1.712920,-0.420273,1.105047,0.356387,0.132922,-0.481197,-0.051802,-0.651342,-0.584397,79.786814,34.492753,130.158818
34533,NaN,-3.799695,8.611192,1.926369,-0.872728,1.692222,-0.395952,1.036163,0.496088,0.189292,-0.478796,-0.053465,-0.655524,-0.581536,80.588626,34.439841,130.516353
34534,NaN,-3.940030,8.715122,1.953349,-0.737485,1.720520,-0.232100,0.959639,0.598220,0.236164,-0.475919,-0.054803,-0.659702,-0.579044,81.389780,34.364931,130.949075
34535,NaN,-4.012468,8.830973,1.922770,-0.682501,1.752472,-0.104698,0.884321,0.685432,0.277568,-0.472647,-0.055842,-0.663826,-0.576907,82.180544,34.269076,131.442768
34536,NaN,-4.044759,8.975570,1.838555,-0.700111,1.777895,0.018347,0.786140,0.740816,0.301415,-0.469127,-0.056569,-0.667779,-0.575145,82.937457,34.157922,131.975697
34537,NaN,-4.005679,9.093538,1.903292,-0.645948,1.940873,0.095663,0.653374,0.821989,0.310424,-0.465341,-0.056777,-0.671508,-0.573857,83.645856,34.041646,132.561364
34538,NaN,-4.149069,9.044170,1.884298,-0.477786,1.873774,0.128259,0.522159,0.921908,0.292969,-0.461284,-0.056335,-0.675087,-0.572976,84.316273,33.935281,133.213224
34539,NaN,-4.417548,8.940407,1.810425,-0.257890,1.673088,0.180156,0.434783,0.978700,0.264766,-0.457135,-0.055432,-0.678524,-0.572329,84.953205,33.841942,133.898685
34540,NaN,-4.712612,9.013749,1.816998,-0.049127,1.577119,0.398462,0.368521,1.013066,0.248219,-0.452913,-0.054221,-0.681844,-0.571855,85.564728,33.753419,134.606158
34541,NaN,-4.931267,9.045985,1.774071,0.099053,1.477088,0.536344,0.281368,1.037386,0.257722,-0.448599,-0.052774,-0.684936,-0.571696,86.131749,33.654399,135.327507
34542,NaN,-5.028837,9.062808,1.631313,0.114257,1.366805,0.589390,0.196509,1.062396,0.272821,-0.444157,-0.051115,-0.687827,-0.571844,86.659844,33.541937,136.066022
34543,NaN,-5.025375,9.061838,1.418632,0.027545,1.251028,0.570840,0.112785,1.057932,0.279721,-0.439727,-0.049306,-0.690435,-0.572284,87.133735,33.419935,136.798055
34544,NaN,-4.972831,9.096446,1.258767,-0.074120,1.206745,0.560205,0.009273,1.039170,0.270180,-0.435393,-0.047288,-0.692699,-0.573031,87.540792,33.298274,137.516225
34545,NaN,-4.839529,9.085902,1.067047,-0.236351,1.158348,0.469116,-0.131844,1.013331,0.242590,-0.431257,-0.044941,-0.694478,-0.574194,87.852323,33.187935,138.212546
34546,NaN,-4.739289,8.943517,0.684894,-0.454698,0.891306,0.282618,-0.254977,0.994293,0.210502,-0.427287,-0.042269,-0.695862,-0.575686,88.086232,33.092925,138.895138
34547,NaN,-4.758174,8.814958,0.608998,-0.414906,0.786260,0.183523,-0.398523,0.974808,0.174866,-0.423514,-0.039223,-0.696768,-0.577592,88.226403,33.015931,139.561047
34548,NaN,-4.945868,8.645983,0.645233,-0.187994,0.655766,0.145504,-0.551584,0.954418,0.150569,-0.419892,-0.035824,-0.697185,-0.579948,88.272335,32.951754,140.213389
34549,NaN,-5.154633,8.443416,0.642527,0.036729,0.467932,0.089537,-0.670950,0.931130,0.162532,-0.416333,-0.032285,-0.697171,-0.582733,88.238031,32.880070,140.848023
34550,NaN,-5.420305,8.336912,0.437122,0.131007,0.115464,0.139415,-0.745228,0.833555,0.201793,-0.412990,-0.029009,-0.696720,-0.585815,88.126949,32.785002,141.418074
34551,NaN,-5.722221,8.478410,0.511428,0.309553,0.030766,0.424105,-0.848668,0.671746,0.232129,-0.410131,-0.026100,-0.695594,-0.589288,87.893932,32.670616,141.876797
34552,NaN,-5.862257,8.659406,0.806921,0.484401,0.201707,0.662370,-1.038266,0.490876,0.234666,-0.407899,-0.023342,-0.693529,-0.593373,87.487820,32.552932,142.214386
34553,NaN,-5.755994,8.513192,1.017729,0.573956,0.315588,0.493235,-1.242109,0.369319,0.247888,-0.406065,-0.020575,-0.690570,-0.598165,86.918140,32.426592,142.469069
34554,NaN,-5.556908,8.134519,0.967039,0.545054,0.190080,0.069158,-1.324765,0.296075,0.256036,-0.404442,-0.017884,-0.687196,-0.603215,86.277376,32.295508,142.677274
34555,NaN,-5.401964,7.898999,0.902327,0.473874,0.073115,-0.212735,-1.263498,0.295613,0.240639,-0.402852,-0.015267,-0.683964,-0.608006,85.668965,32.175061,142.884202
34556,NaN,-5.111883,8.056545,0.970238,0.205445,0.245043,-0.227394,-1.204309,0.344019,0.185998,-0.401233,-0.012433,-0.680998,-0.612453,85.113119,32.089916,143.123624
34557,NaN,-4.930500,8.465036,0.981662,-0.149309,0.377663,0.024220,-1.251463,0.367059,0.091987,-0.399819,-0.009113,-0.677899,-0.616859,84.533108,32.061588,143.372022
34558,NaN,-5.211606,8.689873,1.124815,-0.044182,0.337320,0.376691,-1.335801,0.428294,-0.023818,-0.398532,-0.005043,-0.674651,-0.621284,83.925275,32.105032,143.655737
34559,NaN,-5.453357,8.494053,0.984068,0.071846,-0.016769,0.328817,-1.450295,0.446359,-0.091011,-0.397383,-0.000462,-0.671035,-0.625939,83.253052,32.190530,143.944477
34560,NaN,-5.707326,8.301745,0.669573,0.103910,-0.520923,0.269866,-1.464176,0.412442,-0.098902,-0.396341,0.004067,-0.667284,-0.630579,82.562853,32.281075,144.210473
34561,NaN,-5.633655,8.540615,0.856314,-0.036990,-0.351689,0.448285,-1.430562,0.412563,-0.077832,-0.395220,0.008460,-0.663588,-0.635123,81.890174,32.362340,144.475788
34562,NaN,-5.334120,8.716628,0.821431,-0.419006,-0.278031,0.427106,-1.473577,0.431788,-0.067490,-0.393969,0.012964,-0.659770,-0.639784,81.202735,32.442033,144.755768
34563,NaN,-5.032951,8.539874,0.970033,-0.530597,-0.117813,0.132392,-1.557890,0.509993,-0.091077,-0.392514,0.017961,-0.655781,-0.644641,80.491141,32.545100,145.083128
34564,NaN,-4.705081,8.376551,1.267294,-0.599083,0.191678,-0.142431,-1.567694,0.652186,-0.128766,-0.390678,0.023559,-0.652004,-0.649389,79.825513,32.686672,145.501989
34565,NaN,-4.446540,8.288617,1.356743,-0.761911,0.314140,-0.345176,-1.466708,0.860718,-0.149351,-0.388165,0.029757,-0.648896,-0.653740,79.289927,32.865193,146.065408
34566,NaN,-4.262381,8.248982,1.353690,-0.936487,0.343713,-0.482604,-1.379940,1.123430,-0.135367,-0.384785,0.036542,-0.646552,-0.657705,78.904683,33.068059,146.797885
34567,NaN,-4.351942,8.049300,1.133812,-0.917557,0.047565,-0.638173,-1.351852,1.383038,-0.088672,-0.380335,0.044029,-0.644735,-0.661607,78.634186,33.277129,147.719605
34568,NaN,-4.647456,7.833173,0.860292,-0.745242,-0.376417,-0.702234,-1.319957,1.578508,-0.015795,-0.375032,0.051806,-0.643364,-0.665395,78.465545,33.470475,148.775438
34569,NaN,-4.925140,7.870859,0.802704,-0.616928,-0.559656,-0.530559,-1.305862,1.675652,0.063998,-0.369064,0.059673,-0.642154,-0.669230,78.348398,33.632389,149.917738
34570,NaN,-5.228343,7.840842,0.692795,-0.439425,-0.802140,-0.407487,-1.345644,1.665342,0.120780,-0.362936,0.067335,-0.640755,-0.673183,78.214692,33.763345,151.054093
34571,NaN,-5.658870,7.700307,1.037722,0.071077,-0.688608,-0.225450,-1.421596,1.558192,0.158506,-0.356907,0.074700,-0.638828,-0.677449,78.000366,33.863402,152.133047
34572,NaN,-6.105105,7.429572,1.808910,0.810523,-0.190026,-0.063334,-1.457710,1.354837,0.223702,-0.351306,0.081170,-0.636391,-0.681911,77.697767,33.906392,153.076112
34573,NaN,-6.186141,7.119746,2.193540,1.161525,0.091731,-0.199516,-1.410193,1.046971,0.365291,-0.346138,0.086105,-0.633556,-0.686572,77.315822,33.836855,153.840926
34574,NaN,-6.063920,6.723799,2.143807,1.280299,0.035067,-0.596617,-1.250645,0.720586,0.512422,-0.341596,0.089115,-0.630743,-0.691038,76.916638,33.647565,154.400025
34575,NaN,-5.873324,6.541578,2.001116,1.209064,-0.082451,-0.878273,-1.061470,0.425026,0.573490,-0.337791,0.090640,-0.628055,-0.695147,76.517884,33.388873,154.779661
34576,NaN,-6.070975,6.500733,1.694196,1.310260,-0.496354,-0.867128,-0.880108,0.091434,0.585550,-0.335113,0.090602,-0.625439,-0.698796,76.103801,33.080120,154.931748
34577,NaN,-6.660030,6.578041,1.818137,1.774557,-0.658443,-0.466616,-0.707836,-0.314938,0.579112,-0.333747,0.088930,-0.622704,-0.702100,75.639860,32.719560,154.824537
34578,NaN,-6.870329,6.704966,2.093116,1.971250,-0.569267,-0.203932,-0.603877,-0.763020,0.605300,-0.333773,0.085372,-0.619602,-0.705266,75.085042,32.278289,154.423173
34579,NaN,-6.513076,6.680665,2.042537,1.734125,-0.601156,-0.439676,-0.493625,-1.151730,0.685492,-0.334702,0.080063,-0.616228,-0.708398,74.471126,31.731426,153.798573
34580,NaN,-5.906910,6.675913,1.822534,1.250656,-0.701948,-0.828109,-0.328758,-1.422197,0.712218,-0.336467,0.073376,-0.612982,-0.711097,73.876554,31.121281,153.006433
34581,NaN,-5.663972,6.779166,1.719891,1.020396,-0.824364,-0.909116,-0.093750,-1.577009,0.688443,-0.338802,0.065869,-0.610239,-0.713080,73.374660,30.493533,152.131191
34582,NaN,-5.841059,7.028319,1.793556,1.086752,-0.950030,-0.612300,0.062166,-1.684514,0.662928,-0.341633,0.057730,-0.607834,-0.714487,72.942047,29.854983,151.186074
34583,NaN,-5.782549,7.334528,1.824919,0.932146,-1.021326,-0.397269,0.126076,-1.763418,0.655981,-0.344666,0.049273,-0.605451,-0.715686,72.533484,29.201695,150.210013
34584,NaN,-5.614345,7.554387,1.823144,0.734654,-1.070715,-0.313950,0.166436,-1.780024,0.659684,-0.347766,0.040614,-0.603149,-0.716673,72.161162,28.536819,149.227233
34585,NaN,-5.362119,7.607869,2.088323,0.665058,-0.831466,-0.333330,0.183680,-1.709171,0.647004,-0.350620,0.032272,-0.600960,-0.717545,71.830920,27.887065,148.305064
34586,NaN,-4.972374,7.458858,2.457905,0.649542,-0.417651,-0.549698,0.201717,-1.537261,0.642189,-0.353001,0.024468,-0.599107,-0.718236,71.575094,27.265744,147.488047
34587,NaN,-4.799539,7.432028,2.782891,0.723068,-0.131809,-0.567469,0.294490,-1.307244,0.617556,-0.354720,0.017458,-0.597938,-0.718568,71.442093,26.698126,146.821624
34588,NaN,-4.296164,7.549184,2.522762,0.248219,-0.175159,-0.772850,0.461481,-1.085941,0.607840,-0.355860,0.010915,-0.597746,-0.718293,71.473370,26.174609,146.282633
34589,NaN,-4.073990,8.456672,2.567815,-0.301376,-0.086797,-0.086051,0.617694,-0.906684,0.550258,-0.356614,0.004970,-0.598392,-0.717446,71.638884,25.716697,145.850314
34590,NaN,-4.078120,9.622961,3.180586,-0.571494,0.393123,1.089928,0.585187,-0.751762,0.329624,-0.357735,0.000239,-0.599188,-0.716240,71.812046,25.406850,145.458746
34591,NaN,-3.627776,9.376979,2.914675,-0.845899,0.395536,0.613805,0.267285,-0.537762,0.127206,-0.358882,-0.002492,-0.599205,-0.715647,71.840321,25.246962,145.164902
34592,NaN,-4.062811,8.648408,2.634313,-0.250166,-0.058585,0.095640,0.135996,-0.280557,0.095943,-0.359421,-0.004032,-0.599223,-0.715355,71.859632,25.149211,145.011201
34593,NaN,-4.646022,8.942450,2.814671,0.130210,-0.211797,0.647401,0.291318,-0.151879,0.084010,-0.359561,-0.005297,-0.600013,-0.714613,71.997729,25.081850,144.941250
34594,NaN,-4.503752,9.521441,3.177580,-0.084306,0.172122,1.187395,0.300160,-0.127566,0.110141,-0.359585,-0.006627,-0.600890,-0.713853,72.151517,25.003884,144.882142
34595,NaN,-4.288105,9.640266,3.125361,-0.303824,0.244536,1.184508,0.134684,-0.104134,0.124340,-0.359442,-0.007561,-0.601203,-0.713652,72.215379,24.923208,144.848491
34596,NaN,-3.866740,9.408956,3.176473,-0.460651,0.510394,0.822038,0.024167,-0.036680,0.130304,-0.359129,-0.008132,-0.601255,-0.713759,72.235758,24.850280,144.847784
34597,NaN,-3.635597,9.247855,3.128921,-0.559382,0.592315,0.573206,0.047894,0.077354,0.128284,-0.358491,-0.008326,-0.601584,-0.713801,72.296082,24.799120,144.913947
34598,NaN,-3.563830,9.436817,2.960500,-0.768579,0.490399,0.660504,0.106090,0.183594,0.104614,-0.357603,-0.008180,-0.602324,-0.713624,72.416808,24.778473,145.040620
34599,NaN,-3.375082,9.764711,2.826107,-1.122493,0.483151,0.828468,0.077647,0.305493,0.052127,-0.356485,-0.007333,-0.603169,-0.713479,72.545561,24.807950,145.239402
34600,NaN,-3.096729,9.899756,2.638838,-1.479387,0.482060,0.776806,-0.032728,0.431523,-0.012410,-0.355271,-0.005702,-0.603857,-0.713517,72.640348,24.893305,145.493317
34601,NaN,-3.085175,10.001048,2.606445,-1.565395,0.474202,0.848337,-0.141808,0.582484,-0.076410,-0.353779,-0.003088,-0.604409,-0.713807,72.704417,25.039640,145.835430
34602,NaN,-3.510252,10.215850,2.740843,-1.320148,0.384862,1.246548,-0.255975,0.685715,-0.108993,-0.352140,0.000137,-0.604743,-0.714341,72.730268,25.220602,146.225573
34603,NaN,-3.978756,10.375672,2.766189,-1.069501,0.176950,1.587384,-0.389620,0.700046,-0.090709,-0.350334,0.003649,-0.604603,-0.715337,72.683910,25.394459,146.637202
34604,NaN,-4.033056,10.398316,2.842279,-1.043565,0.210963,1.647479,-0.535072,0.665429,-0.022041,-0.348433,0.007029,-0.603886,-0.716845,72.553991,25.525010,147.032260
34605,NaN,-3.693818,10.237858,2.963043,-1.206137,0.463689,1.393010,-0.674399,0.650919,0.069002,-0.346182,0.010380,-0.602622,-0.718956,72.346517,25.604671,147.444757
34606,NaN,-3.237354,9.981280,2.963325,-1.459251,0.656636,0.972805,-0.767029,0.693576,0.121909,-0.343654,0.013830,-0.601100,-0.721380,72.104048,25.664052,147.884347
34607,NaN,-3.020686,9.730639,2.939577,-1.542728,0.706709,0.654942,-0.792495,0.788402,0.162208,-0.340628,0.017597,-0.599621,-0.723960,71.873612,25.720076,148.398039
34608,NaN,-2.996483,9.581395,2.912980,-1.529503,0.659417,0.506858,-0.813872,0.874602,0.201654,-0.337243,0.021541,-0.598208,-0.726602,71.659420,25.771686,148.962739
34609,NaN,-3.156802,9.432518,2.983347,-1.335146,0.613139,0.467359,-0.828259,0.907374,0.240770,-0.333547,0.025562,-0.596765,-0.729359,71.447409,25.809875,149.564036
34610,NaN,-3.365422,9.256884,3.059910,-1.082180,0.554327,0.429402,-0.848966,0.869768,0.308986,-0.329755,0.029224,-0.595185,-0.732231,71.221843,25.806168,150.147532
34611,NaN,-3.555881,8.962650,3.022007,-0.813515,0.412699,0.250792,-0.811503,0.809104,0.379801,-0.325820,0.032441,-0.593614,-0.735127,71.005905,25.754731,150.717934
34612,NaN,-3.839292,8.522369,3.244783,-0.292805,0.483607,0.065563,-0.698312,0.711381,0.503195,-0.321787,0.034696,-0.592316,-0.737842,70.841541,25.619969,151.246036
34613,NaN,-3.789787,7.976999,3.402267,0.012903,0.660679,-0.371627,-0.546803,0.531528,0.632807,-0.317767,0.035710,-0.591278,-0.740364,70.725485,25.382167,151.701933
34614,NaN,-3.710291,7.649481,3.356578,0.131730,0.653436,-0.696608,-0.383397,0.334463,0.729439,-0.314053,0.035398,-0.590552,-0.742540,70.661231,25.055580,152.050667
34615,NaN,-3.646933,7.358322,3.046147,0.176360,0.400844,-1.064435,-0.191324,0.117093,0.834930,-0.310558,0.033715,-0.590189,-0.744375,70.657392,24.630733,152.300078
34616,NaN,-3.417228,7.145458,2.571934,0.010545,0.068083,-1.485343,0.017109,-0.044627,0.910755,-0.307346,0.030831,-0.590369,-0.745689,70.739660,24.134276,152.459068
34617,NaN,-3.251691,7.097393,2.406822,-0.078142,-0.025282,-1.643723,0.199236,-0.123835,0.968833,-0.304113,0.027252,-0.591086,-0.746586,70.908018,23.591007,152.590303
34618,NaN,-3.358599,7.140156,2.148954,-0.011655,-0.319883,-1.640972,0.345656,-0.186019,0.988668,-0.301061,0.023107,-0.592258,-0.747033,71.147301,23.025174,152.677257
34619,NaN,-3.282666,7.216986,2.008088,-0.067381,-0.430608,-1.645525,0.462653,-0.264463,0.995845,-0.298160,0.018523,-0.593717,-0.747166,71.432272,22.440520,152.725362
34620,NaN,-3.014181,7.334914,1.938509,-0.274169,-0.395799,-1.663360,0.544871,-0.329621,0.978235,-0.295575,0.013573,-0.595381,-0.746976,71.748988,21.853618,152.719251
34621,NaN,-2.694654,7.349978,1.924336,-0.458805,-0.272384,-1.768991,0.607130,-0.356583,0.909602,-0.293261,0.008686,-0.597199,-0.746509,72.087526,21.299200,152.689765
34622,NaN,-2.270464,7.228047,1.146482,-0.934510,-0.764603,-2.245942,0.692423,-0.351649,0.810100,-0.291358,0.003937,-0.599333,-0.745584,72.470283,20.800331,152.631845
34623,NaN,-1.953378,7.746687,1.433182,-1.255400,-0.408510,-1.804098,0.730272,-0.320108,0.553451,-0.290250,0.000072,-0.601620,-0.744183,72.862083,20.447398,152.551320
34624,NaN,-2.672096,8.681969,2.611658,-0.601212,0.268767,-0.383820,0.582407,-0.207943,0.072026,-0.290651,-0.001764,-0.603522,-0.742482,73.163440,20.377751,152.439024
34625,NaN,-2.878998,8.306251,2.875346,-0.158812,0.490655,-0.577754,0.371849,0.003550,-0.193907,-0.291339,-0.001656,-0.604936,-0.741061,73.369121,20.489083,152.412664
34626,NaN,-4.761360,7.526604,2.468084,1.597853,-0.579495,-0.728486,0.414072,-0.002797,-0.097733,-0.291751,-0.001975,-0.606505,-0.739614,73.605422,20.546971,152.390486
34627,NaN,-5.705072,8.556999,3.370258,2.276850,-0.238352,0.765008,0.735537,-0.255337,-0.096608,-0.292857,-0.003648,-0.608877,-0.737218,73.972175,20.563736,152.229664
34628,NaN,-4.880887,9.733013,3.849346,1.290130,0.485150,1.653443,0.573206,-0.473393,-0.110996,-0.294739,-0.005895,-0.610333,-0.735246,74.201828,20.555220,151.928966
34629,NaN,-4.341042,9.473464,3.597768,0.882751,0.526439,1.163590,0.195843,-0.593122,-0.007071,-0.296553,-0.008289,-0.610204,-0.734601,74.194978,20.471225,151.584341
34630,NaN,-4.194324,8.679156,3.435898,1.059126,0.488335,0.354178,0.104197,-0.693740,0.103654,-0.298327,-0.011309,-0.609589,-0.734353,74.124180,20.310288,151.190202
34631,NaN,-3.745932,8.560077,3.394563,0.751728,0.636951,0.079687,0.224721,-0.757362,0.114797,-0.300184,-0.014722,-0.609301,-0.733774,74.109431,20.132955,150.770237
34632,NaN,-3.090641,8.638983,2.935958,0.035103,0.507722,-0.192665,0.260910,-0.715129,0.140216,-0.301871,-0.018166,-0.609210,-0.733081,74.128820,19.948256,150.370660
34633,NaN,-3.018080,8.750666,2.356177,-0.268932,0.009657,-0.264807,0.237525,-0.615348,0.180220,-0.303046,-0.021276,-0.609159,-0.732554,74.156198,19.757261,150.045702
34634,NaN,-2.815833,9.241421,2.481086,-0.562168,0.167089,0.144448,0.141224,-0.516319,0.145315,-0.304114,-0.023825,-0.608916,-0.732235,74.149127,19.601077,149.764144
34635,NaN,-3.455813,9.590793,2.393994,-0.212795,-0.261713,0.653605,-0.145654,-0.544745,-0.006049,-0.305795,-0.025527,-0.607582,-0.732586,73.962292,19.523268,149.450292
34636,NaN,-3.920036,9.232305,2.670516,0.414489,-0.253046,0.555426,-0.285953,-0.478852,-0.082761,-0.307631,-0.026594,-0.605850,-0.733213,73.706069,19.497100,149.153230
34637,NaN,-3.758039,9.006995,2.797022,0.405599,-0.089131,0.331250,-0.408266,-0.332569,-0.126210,-0.309139,-0.026751,-0.603885,-0.734193,73.403772,19.517088,148.943250
34638,NaN,-3.642689,8.577393,2.618054,0.395079,-0.192544,-0.143056,-0.357770,-0.221123,-0.056818,-0.310105,-0.026840,-0.602276,-0.735104,73.158104,19.516464,148.801041
34639,NaN,-3.795620,8.952541,2.687057,0.367338,-0.263639,0.265531,-0.250431,-0.038094,-0.097250,-0.310595,-0.026248,-0.601338,-0.735686,73.005046,19.568011,148.767249
34640,NaN,-3.717988,9.089676,1.818007,-0.131834,-1.003947,0.123382,-0.204166,0.079595,-0.113104,-0.310842,-0.025300,-0.600765,-0.736083,72.902463,19.647962,148.789799
34641,NaN,-4.328879,9.167830,1.744176,0.277746,-1.377453,0.378285,-0.183794,0.167354,-0.109848,-0.310751,-0.024017,-0.600392,-0.736469,72.826964,19.740989,148.872996
34642,NaN,-5.044272,9.437039,1.974059,0.815250,-1.552902,0.926173,-0.191414,0.091239,-0.078186,-0.310831,-0.023151,-0.599878,-0.736882,72.736091,19.803868,148.908380
34643,NaN,-5.041418,9.482784,1.980281,0.780633,-1.563090,0.967290,-0.212570,-0.069632,-0.032483,-0.311169,-0.022928,-0.599020,-0.737444,72.602345,19.814521,148.867595
34644,NaN,-4.551950,9.328676,1.884775,0.403521,-1.414942,0.633933,-0.183558,-0.149498,0.021381,-0.311602,-0.023260,-0.598147,-0.737959,72.474690,19.781733,148.781052
34645,NaN,-4.444367,9.183490,1.932702,0.396889,-1.324439,0.478695,-0.032014,-0.154547,0.052147,-0.311860,-0.023883,-0.597814,-0.738100,72.433151,19.731460,148.706529
34646,NaN,-4.214452,9.287932,1.835150,0.134229,-1.309947,0.466470,0.132069,-0.129259,0.068061,-0.312023,-0.024772,-0.598131,-0.737745,72.493349,19.676557,148.640388
34647,NaN,-3.954725,9.502975,1.574005,-0.259761,-1.419378,0.499525,0.238827,-0.066099,0.078424,-0.311951,-0.025622,-0.598929,-0.737099,72.626129,19.627362,148.611999
34648,NaN,-3.502921,9.628173,1.483850,-0.694969,-1.268808,0.438218,0.276425,0.001852,0.083695,-0.311644,-0.026299,-0.599979,-0.736350,72.795571,19.586501,148.624615
34649,NaN,-3.242575,9.541348,1.519524,-0.833122,-1.080957,0.286715,0.256637,0.101671,0.079167,-0.310999,-0.026508,-0.601105,-0.735697,72.971396,19.565373,148.703658
34650,NaN,-3.349605,9.495510,1.764769,-0.608729,-0.889012,0.352841,0.313908,0.145038,0.020281,-0.310489,-0.026526,-0.602522,-0.734752,73.186361,19.583076,148.788070
34651,NaN,-3.127706,9.285258,1.685518,-0.713837,-0.798279,0.071269,0.374441,0.155584,0.019541,-0.309883,-0.026540,-0.604170,-0.733653,73.436851,19.603041,148.888014
34652,NaN,-3.029867,9.205413,1.532899,-0.800240,-0.834402,-0.069349,0.521902,0.189328,0.026972,-0.309185,-0.026738,-0.606412,-0.732089,73.780167,19.623491,148.999609
34653,NaN,-2.962076,9.279184,1.372218,-0.926727,-0.893987,-0.060674,0.603010,0.205171,-0.004291,-0.308481,-0.026851,-0.608969,-0.730257,74.170330,19.663409,149.124873
34654,NaN,-2.743397,9.164655,0.938705,-1.210555,-1.099500,-0.340434,0.630310,0.261825,-0.040872,-0.307789,-0.026744,-0.611716,-0.728254,74.586601,19.731066,149.268180
34655,NaN,-2.421986,9.212038,0.850630,-1.504579,-0.960060,-0.417724,0.673036,0.357305,-0.094999,-0.306934,-0.026133,-0.614761,-0.726070,75.042954,19.842324,149.469166
34656,NaN,-2.688965,9.363173,1.173332,-1.199853,-0.742558,-0.102653,0.619439,0.423184,-0.167583,-0.306201,-0.025033,-0.617716,-0.723907,75.479677,20.001626,149.689223
34657,NaN,-2.911213,9.454661,1.392927,-0.957205,-0.586996,0.114285,0.575584,0.421112,-0.232383,-0.305650,-0.023617,-0.620506,-0.721798,75.887941,20.195363,149.909439
34658,NaN,-2.452658,9.236833,1.566225,-1.165206,-0.138693,-0.199656,0.515847,0.471353,-0.242973,-0.305044,-0.021951,-0.623151,-0.719825,76.273750,20.400256,150.149915
34659,NaN,-2.183627,9.117689,1.733427,-1.267306,0.208167,-0.365178,0.523072,0.577782,-0.280151,-0.304175,-0.019740,-0.625978,-0.717802,76.684962,20.638739,150.459964
34660,NaN,-2.194190,9.182838,1.860686,-1.239781,0.390376,-0.277954,0.549144,0.728476,-0.350616,-0.303139,-0.016864,-0.629122,-0.715561,77.142333,20.933762,150.842917
34661,NaN,-2.727766,9.388056,1.867111,-0.897940,0.233829,0.096942,0.540717,0.837691,-0.385165,-0.301814,-0.013419,-0.632386,-0.713313,77.619371,21.258893,151.299798
34662,NaN,-3.345665,9.721889,2.148642,-0.432288,0.291970,0.677904,0.434283,0.851999,-0.344589,-0.300359,-0.009945,-0.635274,-0.711416,78.044652,21.559681,151.764484
34663,NaN,-3.579921,9.835070,2.521589,-0.156674,0.601083,0.935176,0.259112,0.795568,-0.266005,-0.298745,-0.006604,-0.637433,-0.710202,78.363278,21.806939,152.217748
34664,NaN,-3.581002,9.690736,2.863490,0.019761,0.971918,0.863840,0.136224,0.739004,-0.178013,-0.297059,-0.003615,-0.639059,-0.709469,78.605607,21.996337,152.639846
34665,NaN,-3.229413,9.725884,3.189630,-0.176366,1.462832,0.818612,0.037667,0.725687,-0.088282,-0.295034,-0.000758,-0.640302,-0.709202,78.793480,22.132276,153.075714
34666,NaN,-2.395068,9.827352,3.519449,-0.806591,2.142600,0.649544,-0.141930,0.868782,-0.061953,-0.292513,0.002732,-0.641112,-0.709510,78.914328,22.268276,153.592694
34667,NaN,-1.485664,9.928817,3.799692,-1.546018,2.786811,0.437650,-0.365742,1.203686,-0.135167,-0.289107,0.008026,-0.641592,-0.710431,78.982146,22.481223,154.315174
34668,NaN,-1.341319,9.762993,4.005944,-1.606066,3.044163,0.252869,-0.564943,1.662158,-0.322550,-0.284931,0.015782,-0.641987,-0.711631,79.039787,22.849143,155.287028
34669,NaN,-1.705537,9.336503,3.963288,-1.256236,2.885850,-0.020912,-0.715813,2.135778,-0.520819,-0.279836,0.026127,-0.642427,-0.712950,79.122909,23.378393,156.538440
34670,NaN,-2.218538,8.744415,3.452220,-0.871225,2.267193,-0.463702,-0.723550,2.579282,-0.604839,-0.273632,0.038276,-0.643353,-0.713973,79.322463,24.000171,158.049912
34671,NaN,-2.760963,8.442558,2.962500,-0.557391,1.688965,-0.619702,-0.604509,2.996783,-0.620292,-0.266041,0.051845,-0.645122,-0.714389,79.714573,24.666326,159.838256
34672,NaN,-3.437865,8.470620,2.668848,-0.194171,1.291633,-0.379510,-0.502710,3.362733,-0.613550,-0.257264,0.066499,-0.647580,-0.714166,80.288832,25.352118,161.861612
34673,NaN,-3.603527,8.486633,2.587769,-0.197656,1.286545,-0.325429,-0.467677,3.688884,-0.579275,-0.247173,0.082191,-0.650366,-0.713564,81.002110,26.027562,164.122227
34674,NaN,-4.020202,8.306963,2.342138,0.074942,1.088442,-0.354358,-0.519704,3.952490,-0.616047,-0.236305,0.098925,-0.653046,-0.712674,81.794053,26.720457,166.559643
34675,NaN,-4.638665,8.192237,2.061042,0.496624,0.847498,-0.225755,-0.526301,4.127906,-0.705284,-0.225016,0.116593,-0.655567,-0.711341,82.666644,27.445201,169.136535
34676,NaN,-4.242268,8.042999,1.909241,0.076305,0.935992,-0.568961,-0.542517,4.369484,-0.723610,-0.212947,0.135091,-0.658002,-0.709533,83.646169,28.160463,171.888003
34677,NaN,-3.180638,7.722316,1.634663,-0.846962,0.949411,-1.398324,-0.571636,4.782119,-0.695981,-0.199227,0.154973,-0.660408,-0.707215,84.780574,28.838387,174.950421
34678,NaN,-2.818304,7.296163,1.099394,-1.095462,0.581978,-2.012387,-0.542300,5.281418,-0.730346,-0.183934,0.176550,-0.662980,-0.703886,86.141083,29.500476,178.364630
34679,NaN,-3.670440,6.894914,0.539283,-0.259235,0.170146,-1.989449,-0.404189,5.731912,-0.887200,-0.167618,0.200020,-0.665768,-0.699035,87.779457,30.187481,-177.878996
34680,NaN,-4.688971,6.840026,-0.068120,0.577390,-0.181907,-1.542006,-0.250376,5.985221,-1.070784,-0.151167,0.224627,-0.668559,-0.692618,89.656593,30.883242,-173.916605
34681,NaN,-5.356579,6.903005,-0.687107,1.073906,-0.459989,-1.126902,-0.147682,6.091678,-1.197242,-0.134714,0.249790,-0.670980,-0.685013,91.695429,31.533681,-169.819726
34682,NaN,-6.017645,7.040969,-1.510656,1.581589,-0.854600,-0.602565,-0.130629,6.135491,-1.283356,-0.118357,0.275084,-0.672759,-0.676547,93.827955,32.104536,-165.647359
34683,NaN,-6.761668,7.226030,-2.012817,2.086598,-0.834884,0.032235,-0.255953,6.115715,-1.374147,-0.102089,0.300417,-0.673306,-0.667822,95.939834,32.596860,-161.437833
34684,NaN,-7.688972,7.238982,-2.183109,2.726540,-0.355873,0.613841,-0.476454,5.985935,-1.400274,-0.085912,0.325230,-0.672372,-0.659364,97.929432,32.984986,-157.273817
34685,NaN,-8.219100,7.060662,-2.205832,3.081050,0.209273,0.804290,-0.737693,5.724235,-1.309761,-0.069819,0.348691,-0.669988,-0.651656,99.700126,33.230593,-153.269405
34686,NaN,-8.279099,6.588618,-2.178356,3.215390,0.678111,0.477456,-0.901129,5.369483,-1.141438,-0.054017,0.370204,-0.666699,-0.644627,101.253944,33.319944,-149.509515
34687,NaN,-7.803048,5.960979,-2.038720,3.014878,1.003153,-0.301035,-0.907315,5.003717,-1.002476,-0.038946,0.389812,-0.663057,-0.637875,102.660424,33.294994,-146.012783
34688,NaN,-7.142283,5.492390,-1.883356,2.606018,1.174980,-1.063632,-0.726715,4.719195,-0.960154,-0.025000,0.408089,-0.659610,-0.630676,104.059181,33.211121,-142.715480
34689,NaN,-6.820932,5.075456,-2.123158,2.597780,1.125005,-1.519824,-0.425960,4.569833,-0.995737,-0.012272,0.425746,-0.656633,-0.622433,105.569835,33.100794,-139.518847
34690,NaN,-7.042827,5.035358,-2.524412,2.808198,1.183741,-1.325451,-0.063842,4.378365,-1.097608,-0.001240,0.442890,-0.654216,-0.613065,107.221692,33.001679,-136.436041
34691,NaN,-7.803006,5.110217,-3.482027,3.566457,1.120216,-0.585474,0.359132,3.851392,-1.060156,0.007230,0.458098,-0.652867,-0.603207,108.915788,32.902786,-133.712114
34692,NaN,-7.583730,5.837006,-3.616228,2.898594,1.048007,-0.058105,0.538189,3.541067,-1.001997,0.014466,0.472009,-0.651969,-0.593241,110.588590,32.763136,-131.208525
34693,NaN,-7.817116,6.264909,-4.071614,2.838718,1.059060,0.567299,0.663649,3.641665,-0.919718,0.021953,0.485800,-0.651388,-0.582417,112.342641,32.498429,-128.673859
34694,NaN,-8.035855,6.670518,-4.558562,2.805833,1.052097,1.181118,0.561801,3.045402,-0.763886,0.028213,0.497178,-0.650764,-0.573170,113.797667,32.223021,-126.569808
34695,NaN,-7.531961,7.044310,-4.518358,2.135905,0.902027,1.204928,0.355597,2.563287,-0.687119,0.033607,0.506797,-0.649656,-0.565662,114.950192,31.984276,-124.798276
34696,NaN,-6.791653,7.142369,-4.617446,1.657589,0.469683,0.933943,0.064695,2.246012,-0.588854,0.039003,0.515062,-0.647936,-0.559793,115.807096,31.743220,-123.258272
34697,NaN,-6.438183,6.848122,-5.036752,1.858685,0.108900,0.687206,-0.100551,1.915296,-0.499970,0.043972,0.522032,-0.645963,-0.555231,116.442138,31.526131,-121.952051
34698,NaN,-6.274246,6.740895,-5.224778,1.914393,-0.013207,0.600677,-0.144840,1.579570,-0.480981,0.048048,0.527944,-0.643945,-0.551635,116.936680,31.371515,-120.858223
34699,NaN,-6.104430,6.928628,-4.973915,1.514260,0.073673,0.565699,-0.179242,1.272327,-0.446078,0.051291,0.532870,-0.641952,-0.548923,117.308152,31.275659,-119.961168
34700,NaN,-5.957090,7.014725,-4.694777,1.183616,0.183148,0.448869,-0.288763,1.005339,-0.354727,0.054245,0.536710,-0.639956,-0.547226,117.516911,31.196542,-119.252718
34701,NaN,-5.917676,6.912534,-4.699776,1.219308,0.199208,0.354095,-0.368075,0.729898,-0.284447,0.056693,0.539549,-0.637981,-0.546492,117.584651,31.156671,-118.729962
34702,NaN,-5.834683,6.998938,-4.617875,1.072238,0.186243,0.344529,-0.319017,0.434621,-0.250202,0.058188,0.541466,-0.636316,-0.546379,117.582847,31.174078,-118.393443
34703,NaN,-5.550053,7.310959,-4.219721,0.495449,0.164599,0.276251,-0.255326,0.228343,-0.176692,0.059025,0.542614,-0.635073,-0.546598,117.544002,31.212417,-118.201733
34704,NaN,-5.075115,7.534173,-3.994333,0.020541,-0.101676,0.110239,-0.301328,0.134923,-0.105255,0.059915,0.543252,-0.633931,-0.547193,117.437142,31.235885,-118.087996
34705,NaN,-4.537975,7.718670,-4.008172,-0.284861,-0.561627,-0.022902,-0.333030,0.082367,-0.021200,0.060925,0.543481,-0.632936,-0.548004,117.284027,31.234122,-118.031084
34706,NaN,-4.213366,7.856370,-3.955543,-0.513080,-0.809606,-0.106887,-0.309953,0.029188,0.041791,0.061905,0.543358,-0.632199,-0.548866,117.116142,31.210840,-118.025532
34707,NaN,-3.995434,7.977525,-4.038970,-0.592473,-1.061285,-0.094651,-0.381209,0.017834,0.029415,0.062981,0.543232,-0.631226,-0.549987,116.907467,31.200211,-118.022506
34708,NaN,-3.913767,8.024348,-3.814447,-0.772490,-1.006265,-0.187290,-0.473264,0.033964,0.039396,0.064414,0.543075,-0.630028,-0.551349,116.647966,31.176957,-118.013176
34709,NaN,-3.876777,8.072724,-3.483259,-1.001471,-0.851774,-0.294142,-0.532039,0.046281,0.116304,0.066229,0.542700,-0.628861,-0.552834,116.348313,31.114352,-118.018910
34710,NaN,-4.296861,8.108275,-3.413637,-0.851099,-0.508033,-0.072189,-0.563165,0.006799,0.250411,0.068402,0.541767,-0.627987,-0.554475,115.996905,30.989542,-118.087860
34711,NaN,-5.134568,8.143346,-3.334213,-0.522527,0.160946,0.360581,-0.637405,-0.142397,0.421712,0.070756,0.539862,-0.627408,-0.556689,115.533517,30.816135,-118.294745
34712,NaN,-5.592965,8.079437,-3.332971,-0.206531,0.508737,0.549011,-0.798599,-0.413514,0.564755,0.073117,0.536674,-0.626856,-0.560077,114.873857,30.629935,-118.703681
34713,NaN,-5.289597,8.103695,-3.573326,-0.063829,0.099982,0.502489,-0.894897,-0.657565,0.676024,0.075255,0.532412,-0.626393,-0.564363,114.072629,30.442244,-119.287167
34714,NaN,-4.372631,8.464300,-3.538786,-0.559494,-0.668883,0.312799,-0.852023,-0.745217,0.758831,0.077260,0.527625,-0.626285,-0.568692,113.260625,30.221124,-119.941915
34715,NaN,-3.160354,8.601233,-2.837732,-1.531199,-1.184132,-0.417269,-0.853378,-0.738474,0.763711,0.079275,0.522828,-0.626147,-0.572980,112.455290,29.991007,-120.588388
34716,NaN,-2.514656,8.162550,-2.315666,-1.828314,-1.266115,-1.247270,-0.889886,-0.655607,0.608298,0.081222,0.518708,-0.625446,-0.577202,111.676923,29.814834,-121.140654
34717,NaN,-2.555724,7.561664,-2.113222,-1.537960,-1.006529,-1.763006,-0.678269,-0.448717,0.376229,0.082572,0.515991,-0.624645,-0.580305,111.114388,29.716420,-121.506552
34718,NaN,-3.000537,7.399561,-2.164344,-1.164671,-0.689617,-1.651253,-0.277310,-0.154758,0.205246,0.083332,0.514811,-0.624444,-0.581459,110.891244,29.644130,-121.650110
34719,NaN,-3.406225,7.798771,-2.398436,-1.017822,-0.616796,-1.051451,0.025487,0.139570,0.137635,0.084013,0.514832,-0.624819,-0.580939,110.940090,29.550231,-121.596221
34720,NaN,-3.892305,8.323893,-2.713695,-0.866209,-0.541999,-0.286030,0.164240,0.384019,0.108542,0.085037,0.515702,-0.625425,-0.579366,111.144623,29.418900,-121.385728
34721,NaN,-4.259912,8.718908,-2.949326,-0.767966,-0.460306,0.289929,0.229480,0.577272,0.084020,0.086406,0.517241,-0.626063,-0.577097,111.447263,29.262088,-121.051882
34722,NaN,-4.475757,8.941522,-3.277446,-0.588702,-0.502549,0.681380,0.248839,0.703902,0.040699,0.088014,0.519273,-0.626589,-0.574451,111.801379,29.097496,-120.632004
34723,NaN,-4.730077,9.076570,-3.494723,-0.430419,-0.424184,0.985708,0.233374,0.737461,-0.040213,0.089516,0.521651,-0.626831,-0.571795,112.165145,28.968734,-120.173548
34724,NaN,-5.177863,9.152627,-3.679769,-0.182706,-0.171963,1.325461,0.178528,0.674203,-0.132143,0.090717,0.524095,-0.626702,-0.569508,112.487876,28.897734,-119.732008
34725,NaN,-5.547631,9.156566,-3.625683,-0.102579,0.170811,1.488846,0.107910,0.534606,-0.221376,0.091392,0.526391,-0.626189,-0.567844,112.740562,28.905006,-119.352761
34726,NaN,-5.810917,9.138724,-3.395206,-0.177872,0.527514,1.523119,-0.006318,0.362061,-0.253875,0.091753,0.528236,-0.625347,-0.567001,112.880868,28.964371,-119.069389
34727,NaN,-5.987709,8.960325,-3.236712,-0.136721,0.788476,1.411214,-0.150021,0.184496,-0.226052,0.091998,0.529430,-0.624244,-0.567062,112.884666,29.050575,-118.899867
34728,NaN,-5.840619,8.464621,-2.979201,-0.109295,0.914299,0.854567,-0.250255,-0.005665,-0.168985,0.092095,0.529852,-0.623099,-0.567911,112.767562,29.146778,-118.859865
34729,NaN,-5.477942,7.837716,-2.831109,-0.010853,0.829059,0.125385,-0.248185,-0.165686,-0.136384,0.091762,0.529725,-0.622112,-0.569163,112.600988,29.263554,-118.925165
34730,NaN,-5.100835,7.411234,-2.986818,0.188179,0.506596,-0.348340,-0.133731,-0.264871,-0.113913,0.090900,0.529289,-0.621561,-0.570308,112.466700,29.387704,-119.056844
34731,NaN,-4.386311,7.500134,-3.127949,-0.059331,-0.165132,-0.579867,0.020617,-0.263082,-0.054050,0.089786,0.528750,-0.621600,-0.570943,112.414247,29.482015,-119.202775
34732,NaN,-3.654282,7.638463,-2.958088,-0.570130,-0.658372,-0.885668,0.021512,-0.151846,-0.026775,0.089112,0.528435,-0.621669,-0.571265,112.391379,29.535064,-119.288086
34733,NaN,-3.571038,7.307033,-3.015808,-0.384235,-0.692661,-1.174822,0.003615,0.033962,-0.062782,0.088942,0.528762,-0.621502,-0.571170,112.419082,29.568977,-119.251182
34734,NaN,-4.104103,6.984602,-3.191058,0.135695,-0.324458,-1.112833,0.146086,0.162692,-0.060541,0.088820,0.529505,-0.621697,-0.570288,112.566205,29.571072,-119.136498
34735,NaN,-4.356768,7.137868,-3.258349,0.185086,-0.190392,-0.841800,0.294366,0.198936,0.033948,0.088669,0.530130,-0.622541,-0.568808,112.797922,29.517166,-119.023720
34736,NaN,-4.362890,7.536036,-3.402694,0.045717,-0.330067,-0.469572,0.345231,0.179918,0.143558,0.088653,0.530372,-0.623833,-0.567167,113.038317,29.406968,-118.951004
34737,NaN,-4.265942,7.823733,-3.856100,0.149530,-0.708837,-0.130041,0.260512,0.159143,0.212909,0.088976,0.530307,-0.625069,-0.565815,113.215544,29.266929,-118.909192
34738,NaN,-4.131685,7.926457,-4.146076,0.235757,-0.978018,-0.010784,0.151936,0.107962,0.267204,0.089598,0.529870,-0.626168,-0.564910,113.307634,29.107550,-118.912862
34739,NaN,-4.141149,7.897065,-3.937846,0.111810,-0.811671,-0.099396,0.034619,0.093094,0.224099,0.090345,0.529480,-0.626822,-0.564431,113.334301,28.976387,-118.914331
34740,NaN,-4.328660,7.914339,-3.561698,-0.076177,-0.422452,-0.123754,-0.067411,0.123921,0.182221,0.091358,0.529254,-0.627068,-0.564207,113.315925,28.858104,-118.886576
34741,NaN,-4.406586,7.855353,-3.267713,-0.206865,-0.155147,-0.234816,-0.123794,0.218786,0.161382,0.092741,0.529342,-0.627051,-0.563918,113.296069,28.731370,-118.796282
34742,NaN,-4.575684,7.819867,-3.068374,-0.246728,0.121902,-0.250975,-0.143981,0.362850,0.116732,0.094521,0.529957,-0.626794,-0.563329,113.310547,28.593401,-118.608339
34743,NaN,-4.913216,7.744541,-2.918596,-0.161703,0.510053,-0.202825,-0.154359,0.421102,0.137451,0.096551,0.530672,-0.626529,-0.562607,113.333413,28.433316,-118.391017
34744,NaN,-4.883577,7.544491,-3.191411,0.139814,0.387939,-0.284641,-0.091647,0.390797,0.143427,0.098354,0.531303,-0.626471,-0.561762,113.381317,28.274802,-118.193957
34745,NaN,-4.711357,7.700659,-3.273649,0.041923,0.201996,-0.212105,-0.010382,0.402267,0.114650,0.099878,0.532102,-0.626553,-0.560646,113.482625,28.130671,-117.982979
34746,NaN,-4.745003,8.034669,-3.361729,-0.067872,0.140519,0.104356,-0.007286,0.418007,0.125980,0.101491,0.532901,-0.626667,-0.559468,113.587172,27.974560,-117.766313
34747,NaN,-4.818563,8.280882,-3.526920,-0.053630,0.081659,0.396186,-0.068031,0.381672,0.134489,0.103159,0.533546,-0.626645,-0.558572,113.645799,27.824152,-117.573853
34748,NaN,-4.537554,8.375124,-3.583374,-0.171152,-0.164555,0.361606,-0.157804,0.357025,0.141755,0.105026,0.534043,-0.626407,-0.558016,113.643903,27.673408,-117.398396
34749,NaN,-4.337830,8.408012,-3.583617,-0.254258,-0.309155,0.296391,-0.251411,0.330951,0.115185,0.106970,0.534507,-0.625842,-0.557836,113.584753,27.544758,-117.231492
34750,NaN,-4.382641,8.455211,-3.643988,-0.196654,-0.305245,0.377743,-0.313623,0.342959,0.074459,0.109021,0.535088,-0.624991,-0.557836,113.496993,27.432864,-117.047111
34751,NaN,-4.696410,8.491550,-3.328054,-0.296589,0.126821,0.440825,-0.410091,0.345786,0.060825,0.111283,0.535672,-0.623825,-0.558135,113.356854,27.329834,-116.857339
34752,NaN,-4.829322,8.329736,-2.901161,-0.436478,0.511430,0.220825,-0.530688,0.255141,0.087194,0.113675,0.535842,-0.622442,-0.559033,113.118947,27.231954,-116.727901
34753,NaN,-4.769712,8.021322,-2.579307,-0.490472,0.704516,-0.168648,-0.585180,0.146657,0.127071,0.115969,0.535556,-0.621066,-0.560365,112.816562,27.139857,-116.672294
34754,NaN,-4.691098,7.751388,-2.546728,-0.357353,0.707349,-0.434626,-0.531705,0.065252,0.148129,0.117942,0.534995,-0.619943,-0.561730,112.519849,27.052839,-116.669869
34755,NaN,-4.751515,7.710848,-2.715548,-0.146241,0.661786,-0.381420,-0.389689,0.010325,0.163787,0.119391,0.534320,-0.619284,-0.562792,112.288739,26.971609,-116.703421
34756,NaN,-4.993147,7.849845,-2.796415,-0.028961,0.778252,-0.129458,-0.269884,-0.049820,0.188600,0.120420,0.533462,-0.619067,-0.563625,112.106933,26.888052,-116.778494
34757,NaN,-5.224672,7.961871,-2.831715,0.064681,0.918779,0.079670,-0.232410,-0.185261,0.242452,0.121065,0.532083,-0.619174,-0.564672,111.905126,26.806898,-116.946762
34758,NaN,-5.189861,8.014493,-2.993071,0.182884,0.784849,0.161060,-0.204312,-0.361784,0.299769,0.121266,0.530036,-0.619622,-0.566061,111.665780,26.730052,-117.233427
34759,NaN,-4.975262,8.136988,-3.117588,0.167783,0.509907,0.207034,-0.163249,-0.538517,0.338668,0.120902,0.527395,-0.620385,-0.567767,111.399488,26.670777,-117.634136
34760,NaN,-4.863325,8.237468,-3.164401,0.150545,0.359727,0.255527,-0.161267,-0.693491,0.343474,0.120082,0.524287,-0.621258,-0.569861,111.092347,26.637056,-118.128043
34761,NaN,-4.632792,8.229317,-3.419172,0.294883,0.007898,0.226629,-0.174291,-0.806409,0.314188,0.118843,0.520939,-0.622067,-0.572303,110.751082,26.641943,-118.682604
34762,NaN,-4.459513,8.339215,-3.534492,0.294444,-0.247344,0.275636,-0.142319,-0.854572,0.282338,0.117294,0.517552,-0.622908,-0.574775,110.417807,26.668369,-119.258943
34763,NaN,-4.670727,8.552681,-3.547965,0.330314,-0.166873,0.551427,-0.172711,-0.843840,0.246873,0.115736,0.514287,-0.623544,-0.577327,110.073497,26.711020,-119.821328
34764,NaN,-4.844108,8.526369,-3.411399,0.370119,0.015291,0.563455,-0.295944,-0.880592,0.264388,0.114445,0.510771,-0.623884,-0.580331,109.645927,26.745667,-120.410152
34765,NaN,-4.745786,8.342810,-3.100100,0.251361,0.119170,0.269853,-0.413489,-0.942812,0.292161,0.113321,0.506915,-0.623967,-0.583833,109.131287,26.775162,-121.043057
34766,NaN,-4.420063,7.903652,-2.809844,0.176387,0.087024,-0.333203,-0.469691,-0.959699,0.297374,0.112316,0.502939,-0.623896,-0.587530,108.578496,26.797343,-121.687662
34767,NaN,-4.405792,7.452204,-2.681397,0.362304,0.199431,-0.759248,-0.367852,-0.944725,0.276169,0.111018,0.499123,-0.624038,-0.590870,108.090061,26.825506,-122.319260
34768,NaN,-4.553646,7.513745,-2.550508,0.359337,0.341098,-0.677515,-0.204986,-0.927633,0.250948,0.109308,0.495507,-0.624580,-0.593654,107.701074,26.857717,-122.935751
34769,NaN,-4.649780,7.786261,-2.498715,0.278760,0.357524,-0.416724,-0.104075,-0.928045,0.257674,0.107345,0.491920,-0.625416,-0.596110,107.369077,26.885299,-123.554250
34770,NaN,-4.502027,7.960720,-2.464193,0.136936,0.204681,-0.344177,-0.099476,-0.916297,0.268929,0.105457,0.488315,-0.626279,-0.598500,107.041359,26.899118,-124.167868
34771,NaN,-4.380462,7.980759,-2.504449,0.133294,0.056187,-0.371706,-0.069883,-0.884479,0.264758,0.103564,0.484832,-0.627183,-0.600711,106.739895,26.909404,-124.761392
34772,NaN,-4.245405,8.274157,-2.461252,-0.074323,-0.095259,-0.193531,-0.040484,-0.797525,0.249913,0.101843,0.481654,-0.628089,-0.602612,106.480395,26.908526,-125.298605
34773,NaN,-4.245685,8.610617,-2.348833,-0.283994,-0.105074,0.066268,-0.079125,-0.701128,0.257123,0.100521,0.478725,-0.628830,-0.604393,106.225392,26.888461,-125.777762
34774,NaN,-4.269026,8.807159,-2.227476,-0.415348,-0.062896,0.216054,-0.175867,-0.605188,0.254866,0.099741,0.476029,-0.629224,-0.606238,105.942007,26.849924,-126.196933
34775,NaN,-3.950039,8.928153,-2.088463,-0.699952,-0.239377,0.143668,-0.209053,-0.509356,0.255263,0.099325,0.473610,-0.629457,-0.607957,105.666911,26.796825,-126.556741
34776,NaN,-3.605467,8.963510,-2.022259,-0.909848,-0.460641,0.005322,-0.201274,-0.376754,0.236378,0.099267,0.471646,-0.629605,-0.609339,105.435050,26.729929,-126.830701
34777,NaN,-3.617004,8.890475,-2.006694,-0.851674,-0.434792,-0.053812,-0.133123,-0.221058,0.184231,0.099363,0.470359,-0.629751,-0.610166,105.289982,26.669720,-126.999298
34778,NaN,-3.485199,8.964013,-2.125641,-0.856794,-0.622508,-0.019993,-0.027037,-0.113181,0.142617,0.099438,0.469577,-0.630076,-0.610421,105.238955,26.613669,-127.093771
34779,NaN,-3.422564,9.117199,-2.384905,-0.778146,-0.864547,0.145830,0.093610,-0.013526,0.065007,0.099292,0.469411,-0.630529,-0.610105,105.290560,26.587655,-127.113710
34780,NaN,-3.622631,9.446196,-2.538287,-0.729290,-0.877363,0.555308,0.179147,0.031802,-0.038996,0.098786,0.469745,-0.630984,-0.609459,105.411611,26.610085,-127.087847
34781,NaN,-3.709592,9.755779,-2.566064,-0.828928,-0.886213,0.866660,0.141985,0.018918,-0.102759,0.098118,0.470229,-0.631174,-0.608996,105.512701,26.671645,-127.059176
34782,NaN,-3.602297,9.768396,-2.615518,-0.876270,-1.001523,0.839455,0.054264,-0.002242,-0.139972,0.097490,0.470716,-0.631027,-0.608873,105.560634,26.754965,-127.036896
34783,NaN,-3.467901,9.549320,-2.626139,-0.852372,-1.072754,0.590922,0.028969,0.017855,-0.156159,0.096923,0.471309,-0.630748,-0.608794,105.600962,26.845916,-126.999486
34784,NaN,-3.385777,9.444139,-2.511514,-0.942104,-1.042294,0.433726,0.042794,0.084649,-0.173569,0.096493,0.472160,-0.630444,-0.608518,105.669416,26.934322,-126.917439
34785,NaN,-3.318376,9.308377,-2.401523,-1.007125,-0.996844,0.257903,0.034613,0.138680,-0.170963,0.096250,0.473168,-0.630088,-0.608142,105.748286,27.014410,-126.802378
34786,NaN,-3.419359,9.155856,-2.219423,-1.024021,-0.778852,0.126744,0.015185,0.174601,-0.191401,0.096115,0.474335,-0.629612,-0.607747,105.828060,27.098429,-126.661134
34787,NaN,-3.458471,8.927515,-2.208154,-0.918526,-0.706306,-0.055899,0.005755,0.202822,-0.194537,0.096072,0.475596,-0.629081,-0.607319,105.910858,27.180973,-126.501781
34788,NaN,-3.614224,8.693888,-2.107717,-0.810716,-0.485647,-0.210832,0.024030,0.260938,-0.162937,0.096274,0.476937,-0.628655,-0.606675,106.018398,27.235318,-126.311622
34789,NaN,-3.866611,8.516493,-2.063343,-0.640099,-0.237675,-0.259024,0.058513,0.274545,-0.102494,0.096610,0.478149,-0.628466,-0.605863,106.144672,27.255130,-126.123804
34790,NaN,-3.944981,8.281986,-2.104824,-0.471816,-0.154913,-0.413867,0.089148,0.244248,-0.044152,0.096964,0.479096,-0.628527,-0.604995,106.275284,27.246067,-125.965013
34791,NaN,-4.125771,8.112004,-2.248625,-0.207394,-0.073480,-0.440683,0.128465,0.232600,0.030978,0.097405,0.479793,-0.628887,-0.603997,106.418613,27.198411,-125.827290
34792,NaN,-4.142895,8.030068,-2.304065,-0.132052,-0.061720,-0.488901,0.166298,0.240409,0.068258,0.097901,0.480410,-0.629450,-0.602838,106.582664,27.127503,-125.691608
34793,NaN,-4.159826,7.876532,-1.999138,-0.277809,0.203315,-0.690084,0.149258,0.310824,-0.010020,0.098415,0.481480,-0.629733,-0.601604,106.762874,27.088767,-125.498537
34794,NaN,-5.412263,7.413701,-2.236501,0.737877,1.062984,-0.454110,0.171967,0.474633,-0.107260,0.099106,0.483354,-0.629771,-0.599946,107.010308,27.074294,-125.186457
34795,NaN,-6.335077,7.344646,-2.495403,1.394783,1.605539,-0.025925,0.294274,0.370008,-0.028834,0.099397,0.484729,-0.630408,-0.598117,107.291386,27.034517,-124.953920
34796,NaN,-6.166740,7.616760,-2.612597,1.232099,1.387751,0.158539,0.310171,0.156389,0.139582,0.099488,0.484936,-0.631610,-0.596664,107.507209,26.937124,-124.884981
34797,NaN,-5.666331,7.765013,-2.822234,1.045546,0.887030,0.111408,0.213409,-0.033725,0.306467,0.099701,0.484003,-0.633014,-0.595898,107.599920,26.782779,-124.965350
34798,NaN,-4.918148,7.560492,-2.743272,0.722304,0.447688,-0.423728,0.042339,-0.242789,0.343877,0.099787,0.482238,-0.634106,-0.596154,107.534271,26.642643,-125.180544
34799,NaN,-4.896319,7.207044,-2.560930,0.777838,0.618985,-0.785751,-0.008208,-0.278066,0.226133,0.099520,0.480718,-0.634773,-0.596715,107.440573,26.574333,-125.394403
34800,NaN,-5.253771,7.101659,-2.420678,0.932561,0.989478,-0.754730,0.039590,-0.253655,0.167015,0.099051,0.479477,-0.635432,-0.597090,107.386393,26.532237,-125.581615
34801,NaN,-5.376877,7.377319,-2.261169,0.759412,1.138785,-0.508119,0.135818,-0.213664,0.165541,0.098461,0.478411,-0.636348,-0.597068,107.398453,26.485874,-125.744216
34802,NaN,-5.421720,7.779589,-2.250500,0.582501,1.118152,-0.148722,0.165806,-0.139157,0.169568,0.098061,0.477564,-0.637331,-0.596763,107.447875,26.422766,-125.861851
34803,NaN,-5.315170,7.941102,-2.369261,0.535553,0.946583,-0.027870,0.106609,-0.115963,0.217275,0.098004,0.476610,-0.638231,-0.596573,107.465633,26.331684,-125.974673
