// General information: 
//  MT Manager version: 2019.0.1 
//  XDA version: 2019.0.1 build 2740 rev 84096 built on 2019-01-30
// Device information: 
//  DeviceId: 00B4381A
//  ProductCode: MTW2-3A7G6
//  Firmware Version: 4.3.4
//  Hardware Version: 1.1.0
// Device settings: 
//  Filter Profile: human(46.1)
//  Option Flags: Orientation Smoother Disabled, AHS Disabled, ICC Disabled
// Coordinate system: ENU
PacketCounter,SampleTimeFine,Acc_X,Acc_Y,Acc_Z,FreeAcc_E,FreeAcc_N,FreeAcc_U,Gyr_X,Gyr_Y,Gyr_Z,Quat_q0,Quat_q1,Quat_q2,Quat_q3,Roll,Pitch,Yaw
28811,NaN,1.697763,9.693996,-1.324849,0.357690,-1.206835,0.037527,-0.053706,-0.811224,-0.163675,0.337360,0.285916,-0.658851,-0.608569,91.823104,-5.540026,-127.715295
28812,NaN,1.738108,9.536774,-1.372790,0.343606,-1.297788,-0.114581,-0.063241,-0.744914,-0.128201,0.334566,0.283987,-0.659747,-0.610042,91.832240,-5.449563,-128.142963
28813,NaN,1.810172,9.407587,-1.457655,0.341591,-1.431131,-0.234623,-0.047976,-0.645701,-0.110320,0.332106,0.282346,-0.660549,-0.611279,91.846870,-5.368438,-128.513905
28814,NaN,1.786493,9.402557,-1.441333,0.325378,-1.414149,-0.243395,-0.042392,-0.537463,-0.113389,0.330005,0.281030,-0.661170,-0.612350,91.855879,-5.290262,-128.822387
28815,NaN,1.710602,9.366351,-1.470475,0.377123,-1.388764,-0.286615,-0.036531,-0.429381,-0.139107,0.328150,0.280160,-0.661598,-0.613283,91.864570,-5.196541,-129.068265
28816,NaN,1.599957,9.336452,-1.502098,0.454200,-1.339353,-0.326629,-0.031250,-0.329699,-0.165684,0.326557,0.279669,-0.661833,-0.614103,91.868382,-5.092342,-129.256204
28817,NaN,1.522567,9.349337,-1.458714,0.453838,-1.266217,-0.323386,-0.027850,-0.235930,-0.182641,0.325194,0.279549,-0.661905,-0.614803,91.871315,-4.977267,-129.389960
28818,NaN,1.521520,9.365615,-1.451183,0.435040,-1.274549,-0.308902,-0.023573,-0.135390,-0.188472,0.324162,0.279741,-0.661813,-0.615359,91.869383,-4.863733,-129.465724
28819,NaN,1.504302,9.492225,-1.434180,0.423023,-1.255265,-0.186293,-0.017186,-0.025745,-0.197400,0.323433,0.280333,-0.661554,-0.615752,91.867747,-4.744136,-129.478372
28820,NaN,1.541392,9.725336,-1.421363,0.384663,-1.272704,0.046853,-0.029981,0.077758,-0.213832,0.323036,0.281254,-0.661061,-0.616069,91.851984,-4.620137,-129.431195
28821,NaN,1.474787,9.901791,-1.365012,0.378129,-1.190244,0.213479,-0.047719,0.179107,-0.222030,0.322951,0.282508,-0.660341,-0.616313,91.823421,-4.490206,-129.325766
28822,NaN,1.482282,9.959137,-1.359320,0.363578,-1.208490,0.268813,-0.057490,0.286797,-0.236060,0.323213,0.284101,-0.659393,-0.616459,91.782993,-4.357273,-129.158266
28823,NaN,1.527301,10.019073,-1.369974,0.338912,-1.267795,0.329752,-0.055754,0.381066,-0.253816,0.323705,0.286067,-0.658271,-0.616490,91.741631,-4.212560,-128.936501
28824,NaN,1.649750,10.165210,-1.334183,0.232719,-1.353770,0.480334,-0.055760,0.481950,-0.284567,0.324455,0.288421,-0.656937,-0.616422,91.695069,-4.055023,-128.656379
28825,NaN,1.877269,10.286009,-1.202592,-0.011689,-1.469346,0.609075,-0.096892,0.616973,-0.296866,0.325644,0.291184,-0.655234,-0.616309,91.621936,-3.889165,-128.298816
28826,NaN,1.828211,10.239331,-1.176128,0.000634,-1.450619,0.553852,-0.125627,0.753335,-0.300765,0.327327,0.294307,-0.653205,-0.616087,91.526724,-3.726029,-127.863178
28827,NaN,1.802357,10.238299,-1.125359,-0.016304,-1.433742,0.545000,-0.132593,0.892829,-0.299218,0.329452,0.297860,-0.650916,-0.615670,91.425157,-3.561758,-127.347927
28828,NaN,1.714212,10.317201,-0.924743,-0.109717,-1.271730,0.608870,-0.142333,1.018827,-0.272824,0.332097,0.301668,-0.648413,-0.615036,91.313667,-3.416825,-126.761069
28829,NaN,1.450971,10.478933,-0.759082,-0.068888,-0.985241,0.747332,-0.141737,1.145807,-0.226688,0.335262,0.305731,-0.645749,-0.614114,91.201046,-3.295321,-126.102361
28830,NaN,1.313241,10.502793,-0.510680,-0.172291,-0.755489,0.755828,-0.133802,1.249842,-0.169865,0.338936,0.309909,-0.642999,-0.612887,91.089473,-3.209803,-125.384859
28831,NaN,1.121796,10.583377,-0.309602,-0.207337,-0.505295,0.820457,-0.145797,1.335920,-0.130375,0.342988,0.314214,-0.640099,-0.611475,90.970634,-3.142824,-124.618674
28832,NaN,0.933385,10.451019,-0.189618,-0.183235,-0.311823,0.675406,-0.133955,1.400581,-0.073449,0.347410,0.318516,-0.637185,-0.609794,90.855849,-3.111045,-123.816021
28833,NaN,0.668040,10.466283,-0.017784,-0.162171,-0.010871,0.673648,-0.098171,1.415146,-0.007214,0.351983,0.322721,-0.634427,-0.607834,90.762765,-3.112320,-123.005690
28834,NaN,0.399298,10.472490,0.164999,-0.155703,0.307386,0.663045,-0.064132,1.387235,0.070922,0.356656,0.326614,-0.631918,-0.605640,90.688232,-3.160493,-122.211844
28835,NaN,0.145687,10.462978,0.280141,-0.108488,0.584406,0.638164,-0.029753,1.315743,0.139425,0.361214,0.330144,-0.629721,-0.603308,90.636313,-3.243047,-121.459454
28836,NaN,0.148135,10.358102,0.268567,-0.092006,0.580635,0.533265,-0.017820,1.209176,0.200876,0.365611,0.333144,-0.627830,-0.600977,90.591814,-3.362915,-120.768370
28837,NaN,0.105166,10.180661,0.209504,-0.011639,0.594917,0.353270,0.004160,1.080182,0.281164,0.369772,0.335556,-0.626352,-0.598626,90.564308,-3.524210,-120.151699
28838,NaN,0.065735,10.024436,0.235200,-0.004987,0.658826,0.193050,0.037343,0.936197,0.345512,0.373632,0.337365,-0.625331,-0.596276,90.557385,-3.724665,-119.617808
28839,NaN,0.050811,9.949118,0.238838,0.009647,0.702397,0.114598,0.066022,0.797956,0.421503,0.377207,0.338593,-0.624767,-0.593916,90.571915,-3.964626,-119.163679
28840,NaN,-0.052495,9.916967,0.330332,-0.008326,0.875675,0.071191,0.096277,0.685049,0.474333,0.380549,0.339349,-0.624583,-0.591541,90.604587,-4.237499,-118.774573
28841,NaN,-0.079860,9.848030,0.458716,-0.098331,1.002398,-0.005251,0.118232,0.596058,0.525113,0.383698,0.339742,-0.624709,-0.589143,90.653665,-4.536061,-118.437072
28842,NaN,-0.202853,9.762668,0.595162,-0.150852,1.219497,-0.107283,0.135503,0.533609,0.574999,0.386786,0.339801,-0.625080,-0.586692,90.711859,-4.866033,-118.135815
28843,NaN,-0.325893,9.647429,0.716330,-0.192900,1.429360,-0.241289,0.149304,0.478362,0.605482,0.389739,0.339647,-0.625641,-0.584223,90.780940,-5.210448,-117.866905
28844,NaN,-0.300326,9.560083,0.794296,-0.265703,1.491627,-0.335322,0.152080,0.423398,0.622530,0.392580,0.339257,-0.626335,-0.581799,90.850937,-5.567246,-117.629886
28845,NaN,-0.340892,9.483244,0.905221,-0.337735,1.626812,-0.426171,0.148639,0.384493,0.608333,0.395238,0.338809,-0.627065,-0.579470,90.921819,-5.913115,-117.415583
28846,NaN,-0.334913,9.413812,1.038905,-0.451800,1.729866,-0.505995,0.150756,0.358258,0.600468,0.397802,0.338288,-0.627827,-0.577190,90.992057,-6.257031,-117.216448
28847,NaN,-0.390506,9.301752,1.103982,-0.479777,1.849634,-0.634328,0.153029,0.318831,0.599035,0.400210,0.337679,-0.628668,-0.574962,91.067192,-6.597430,-117.040499
28848,NaN,-0.368987,9.159797,1.136749,-0.515341,1.880993,-0.783496,0.149618,0.285756,0.577344,0.402472,0.337013,-0.629516,-0.572842,91.139238,-6.927570,-116.883520
28849,NaN,-0.334197,9.030486,1.181827,-0.569218,1.903735,-0.918326,0.154875,0.249807,0.544557,0.404494,0.336374,-0.630396,-0.570822,91.218347,-7.236402,-116.747423
28850,NaN,-0.243234,8.945938,1.240871,-0.660961,1.884252,-1.001258,0.170190,0.216463,0.492285,0.406252,0.335814,-0.631286,-0.568917,91.305397,-7.517096,-116.630042
28851,NaN,-0.164116,8.886044,1.332340,-0.779336,1.888554,-1.061133,0.193623,0.197131,0.443330,0.407749,0.335418,-0.632202,-0.567059,91.409357,-7.767651,-116.523802
28852,NaN,-0.140550,8.880360,1.390015,-0.843575,1.930661,-1.073494,0.209824,0.137938,0.390367,0.408897,0.335033,-0.633184,-0.565362,91.524034,-7.989026,-116.451164
28853,NaN,-0.107661,8.914200,1.437740,-0.904153,1.962700,-1.045028,0.212358,0.044613,0.346647,0.409601,0.334546,-0.634296,-0.563892,91.650233,-8.182206,-116.432506
28854,NaN,-0.197005,8.951490,1.461102,-0.887343,2.091775,-1.029761,0.180135,-0.107604,0.335691,0.409863,0.333578,-0.635597,-0.562809,91.767613,-8.368165,-116.501861
28855,NaN,-0.245379,9.016780,1.401743,-0.810420,2.153050,-0.978952,0.160783,-0.305261,0.341257,0.409523,0.332014,-0.637267,-0.562093,91.894048,-8.551931,-116.686481
28856,NaN,-0.185592,9.273391,1.397046,-0.818174,2.174286,-0.725064,0.124939,-0.514466,0.365002,0.408658,0.329692,-0.639285,-0.561797,92.015710,-8.746202,-116.992916
28857,NaN,-0.104582,9.568191,1.385620,-0.822411,2.185524,-0.430360,0.082117,-0.695814,0.413674,0.407398,0.326631,-0.641638,-0.561818,92.133551,-8.962553,-117.406361
28858,NaN,0.111541,10.006877,1.393446,-0.892070,2.117360,0.026643,0.034693,-0.858033,0.472975,0.405870,0.322804,-0.644257,-0.562138,92.237617,-9.209720,-117.915499
28859,NaN,0.185763,10.572376,1.460825,-0.935274,2.231766,0.583836,-0.038637,-0.995181,0.548220,0.404202,0.318208,-0.647067,-0.562733,92.318769,-9.494831,-118.507099
28860,NaN,0.228112,10.960387,1.328040,-0.775539,2.260481,0.968496,-0.192611,-1.127685,0.659707,0.402665,0.312539,-0.649848,-0.563806,92.324749,-9.841315,-119.178629
28861,NaN,0.548077,10.732823,1.103753,-0.678979,1.907424,0.799192,-0.350322,-1.234157,0.787409,0.401352,0.305838,-0.652582,-0.565257,92.259858,-10.257744,-119.916044
28862,NaN,0.939340,10.349500,0.757521,-0.515343,1.404028,0.498986,-0.455518,-1.302996,0.823972,0.400072,0.298578,-0.655156,-0.567066,92.143763,-10.695660,-120.694205
28863,NaN,1.433912,10.265912,0.490923,-0.463996,0.896994,0.515209,-0.529090,-1.306346,0.763362,0.398676,0.291356,-0.657414,-0.569189,91.995109,-11.099648,-121.473571
28864,NaN,2.101700,10.300187,0.594082,-0.824879,0.447591,0.674576,-0.534715,-1.239020,0.600625,0.397040,0.284817,-0.659227,-0.571541,91.835771,-11.414695,-122.209756
28865,NaN,2.279155,10.412737,0.625096,-0.874803,0.376479,0.822300,-0.592765,-1.162012,0.499333,0.395413,0.278718,-0.660561,-0.574128,91.641314,-11.674395,-122.899426
28866,NaN,2.727745,10.972665,0.520545,-0.918811,0.079348,1.468276,-0.600196,-0.992989,0.343409,0.393909,0.273576,-0.661276,-0.576807,91.420405,-11.850823,-123.486755
28867,NaN,2.638726,11.047335,0.417561,-0.721348,0.113722,1.529591,-0.679963,-0.801721,0.201509,0.392706,0.269305,-0.661188,-0.579730,91.135626,-11.949949,-123.960357
28868,NaN,2.619235,10.920965,0.560012,-0.782866,0.168783,1.403362,-0.715678,-0.540669,0.079214,0.392069,0.266102,-0.660284,-0.582664,90.794806,-11.985174,-124.278818
28869,NaN,2.980028,11.069565,0.658030,-0.991057,-0.074002,1.626753,-0.701533,-0.303628,-0.040915,0.391821,0.264025,-0.658804,-0.585443,90.437189,-11.953825,-124.458100
28870,NaN,2.763249,11.593537,1.005420,-1.044468,0.337413,2.097441,-0.713568,-0.033319,-0.172142,0.392108,0.263128,-0.656558,-0.588172,90.035650,-11.850282,-124.478326
28871,NaN,2.521110,11.753750,1.052202,-0.873595,0.516589,2.211577,-0.758253,0.187567,-0.245085,0.392940,0.263045,-0.653661,-0.590874,89.586413,-11.703492,-124.370825
28872,NaN,3.262824,12.356643,0.728939,-0.880546,-0.258163,2.955268,-0.808425,0.477254,-0.342468,0.394509,0.264015,-0.649885,-0.593556,89.070820,-11.499274,-124.095272
28873,NaN,3.434158,12.355371,0.327699,-0.568376,-0.737460,2.981343,-0.906643,0.818720,-0.419528,0.397055,0.266064,-0.645041,-0.596221,88.465598,-11.242893,-123.624084
28874,NaN,3.706153,12.488484,0.148915,-0.456505,-1.179331,3.153340,-1.033237,1.192123,-0.523187,0.400662,0.269275,-0.638885,-0.598988,87.745099,-10.915978,-122.939944
28875,NaN,3.744244,12.375924,-0.010047,-0.248834,-1.479115,3.029797,-1.143590,1.502937,-0.647338,0.404987,0.273589,-0.631575,-0.601870,86.937984,-10.499601,-122.084081
28876,NaN,3.453907,11.443888,0.002388,-0.115439,-1.527592,2.042310,-1.286117,1.788306,-0.702817,0.410212,0.278598,-0.623090,-0.604871,86.023660,-10.030153,-121.071494
28877,NaN,2.948323,11.076498,0.158882,0.080118,-1.241916,1.582655,-1.307261,1.923025,-0.763146,0.415627,0.284138,-0.614112,-0.607772,85.098893,-9.503063,-119.993419
28878,NaN,2.785632,10.910726,0.622919,-0.138064,-1.068113,1.413507,-1.394260,1.918293,-0.792353,0.421017,0.289510,-0.604725,-0.610931,84.132658,-8.943397,-118.929881
28879,NaN,2.719414,10.766292,1.177908,-0.486413,-0.943423,1.303269,-1.432851,1.859035,-0.862856,0.425984,0.294807,-0.595169,-0.614329,83.166704,-8.328437,-117.916878
28880,NaN,3.134686,10.953890,1.515505,-0.816468,-1.341279,1.573256,-1.427205,1.909919,-0.948431,0.430782,0.300460,-0.585280,-0.617736,82.209779,-7.645695,-116.892839
28881,NaN,3.468520,10.306073,1.336506,-0.794843,-1.973414,0.934421,-1.473689,2.113078,-0.945587,0.436158,0.306599,-0.574732,-0.620843,81.229622,-6.929478,-115.766292
28882,NaN,3.269382,9.701633,1.054897,-0.430195,-2.152911,0.242061,-1.531619,2.371453,-0.879968,0.442500,0.313141,-0.563405,-0.623467,80.210348,-6.208473,-114.500758
28883,NaN,2.902426,9.573663,0.778393,0.091691,-2.134830,-0.008908,-1.522757,2.590549,-0.879902,0.449323,0.320336,-0.551510,-0.625564,79.205451,-5.441607,-113.126158
28884,NaN,2.570536,9.400217,0.852122,0.271613,-1.989586,-0.238731,-1.550249,2.855115,-0.889064,0.456792,0.328214,-0.538757,-0.627183,78.188174,-4.617316,-111.618796
28885,NaN,1.822361,8.488558,0.914942,0.433897,-1.443993,-1.214052,-1.588248,3.039414,-0.839095,0.464822,0.336374,-0.525403,-0.628287,77.168229,-3.770440,-110.018788
28886,NaN,1.106686,8.224393,1.084704,0.589009,-0.863542,-1.509291,-1.532488,3.117122,-0.775499,0.473034,0.344611,-0.511970,-0.628783,76.197891,-2.922610,-108.383421
28887,NaN,1.017022,8.387675,1.238287,0.628344,-0.880327,-1.342260,-1.433677,3.122232,-0.780241,0.480908,0.353027,-0.498684,-0.628820,75.313245,-2.043676,-106.761193
28888,NaN,1.177060,8.518329,1.375861,0.599831,-1.147351,-1.201000,-1.361817,3.184139,-0.802608,0.488605,0.361732,-0.485264,-0.628438,74.490996,-1.120377,-105.122253
28889,NaN,0.553769,8.194669,1.104519,1.033143,-0.737277,-1.623298,-1.321527,3.312637,-0.753923,0.496520,0.370727,-0.471603,-0.627391,73.721563,-0.179776,-103.418354
28890,NaN,-0.244208,8.004102,0.883264,1.456689,-0.114037,-1.889989,-1.271104,3.324941,-0.698242,0.504397,0.379610,-0.458002,-0.625870,73.005193,0.753126,-101.711129
28891,NaN,-0.812414,8.127188,0.735593,1.809794,0.307773,-1.820113,-1.222265,3.166104,-0.675116,0.511715,0.387971,-0.444870,-0.624273,72.346066,1.667860,-100.097692
28892,NaN,-1.013396,8.183284,0.544209,2.098061,0.383913,-1.829004,-1.190514,2.924145,-0.684661,0.518275,0.395548,-0.432299,-0.622936,71.721805,2.562139,-98.627752
28893,NaN,-0.982201,8.115276,0.349431,2.312326,0.255341,-1.968472,-1.167434,2.676218,-0.700586,0.524064,0.402374,-0.420320,-0.621919,71.129295,3.436251,-97.303906
28894,NaN,-1.127841,8.063388,0.326254,2.393148,0.329346,-2.030633,-1.134425,2.468868,-0.692459,0.529278,0.408520,-0.408902,-0.621108,70.564308,4.279647,-96.099048
28895,NaN,-1.776655,8.221581,0.484435,2.414070,0.895798,-1.790545,-1.086418,2.259649,-0.697744,0.533841,0.414100,-0.398114,-0.620516,70.037579,5.097539,-95.014950
28896,NaN,-2.600669,8.437068,0.852670,2.251640,1.629309,-1.389539,-1.017561,1.979420,-0.740718,0.537499,0.418999,-0.388126,-0.620398,69.546729,5.892229,-94.097109
28897,NaN,-3.239860,8.739658,1.135909,2.168442,2.146913,-0.932574,-0.935769,1.653212,-0.793331,0.540114,0.423174,-0.379122,-0.620860,69.097090,6.656995,-93.370833
28898,NaN,-3.942816,9.118043,1.254994,2.262919,2.700309,-0.440061,-0.837995,1.338053,-0.839258,0.541739,0.426669,-0.371129,-0.621881,68.687809,7.386621,-92.828929
28899,NaN,-4.710018,9.425542,1.429984,2.278674,3.313069,0.031094,-0.743581,1.084399,-0.924325,0.542381,0.429772,-0.363921,-0.623442,68.320652,8.112016,-92.445221
28900,NaN,-5.361891,9.785119,1.665501,2.251860,3.784647,0.573669,-0.640254,0.826915,-1.037168,0.541953,0.432522,-0.357455,-0.625649,67.990711,8.845250,-92.228485
28901,NaN,-5.637109,10.054617,1.777610,2.298506,3.879850,0.943425,-0.567587,0.568891,-1.171184,0.540455,0.434889,-0.351621,-0.628604,67.679929,9.594589,-92.183086
28902,NaN,-5.635838,10.277425,1.796535,2.416290,3.693801,1.193252,-0.528712,0.339175,-1.318863,0.537977,0.436870,-0.346176,-0.632367,67.362250,10.372993,-92.298540
28903,NaN,-5.676535,10.504750,1.696134,2.660397,3.531606,1.407683,-0.517215,0.163901,-1.496258,0.534576,0.438615,-0.340845,-0.636922,67.025476,11.204536,-92.552705
28904,NaN,-5.646958,10.685535,1.433934,3.045730,3.290467,1.501793,-0.548824,0.065609,-1.680155,0.530452,0.440243,-0.335234,-0.642203,66.644722,12.110683,-92.908581
28905,NaN,-5.757845,10.796264,1.207427,3.386860,3.173684,1.572480,-0.595180,0.083813,-1.876301,0.525786,0.442098,-0.328979,-0.647975,66.223609,13.120089,-93.308013
28906,NaN,-6.186002,10.835861,1.083113,3.631698,3.349152,1.695726,-0.651939,0.163474,-2.059740,0.520719,0.444319,-0.321874,-0.654087,65.758952,14.242939,-93.718713
28907,NaN,-6.351092,10.747578,1.029251,3.753253,3.272975,1.680781,-0.732875,0.259713,-2.229634,0.515370,0.446857,-0.313851,-0.660462,65.240473,15.471864,-94.130936
28908,NaN,-6.880480,10.357688,0.947588,3.811533,3.612739,1.498061,-0.813693,0.327251,-2.378107,0.509731,0.449582,-0.304992,-0.667106,64.661710,16.792740,-94.559271
28909,NaN,-7.295528,9.891997,0.848364,3.851010,3.859320,1.235515,-0.822792,0.371816,-2.529855,0.503595,0.452580,-0.295611,-0.673927,64.058928,18.196371,-95.019899
28910,NaN,-7.690944,9.606820,0.930955,3.798227,4.014037,1.221795,-0.796964,0.391535,-2.655449,0.496900,0.455822,-0.285911,-0.680861,63.445897,19.667703,-95.523215
28911,NaN,-7.983732,9.327165,1.203811,3.563351,4.047157,1.282261,-0.683009,0.428918,-2.779693,0.489486,0.459546,-0.276181,-0.687709,62.873848,21.204323,-96.061138
28912,NaN,-7.966448,8.950240,1.108916,3.576551,3.845838,1.013587,-0.501678,0.473052,-2.879966,0.481251,0.463923,-0.266659,-0.694310,62.382605,22.802333,-96.624513
28913,NaN,-8.164123,8.558506,1.456076,3.190760,3.819592,1.015065,-0.337692,0.493611,-2.946714,0.472338,0.468734,-0.257460,-0.700642,61.959068,24.431961,-97.216505
28914,NaN,-8.107436,8.106675,1.945207,2.611129,3.580194,0.938419,-0.134956,0.441409,-3.012716,0.462525,0.473839,-0.248861,-0.706835,61.607390,26.081111,-97.877262
28915,NaN,-8.097784,7.593916,1.964151,2.425407,3.466748,0.636651,0.093971,0.302183,-3.072246,0.451695,0.478921,-0.241212,-0.713038,61.316680,27.714704,-98.654596
28916,NaN,-8.123459,7.077763,1.885708,2.325055,3.417093,0.313985,0.358188,0.157499,-3.113267,0.439779,0.484041,-0.234653,-0.719192,61.103424,29.330465,-99.547156
28917,NaN,-7.804169,6.883557,1.836986,2.270443,2.931184,0.082142,0.608603,0.062424,-3.112215,0.427061,0.489223,-0.229169,-0.725094,60.973893,30.912422,-100.514327
28918,NaN,-7.372843,6.650797,1.688096,2.253603,2.401778,-0.294981,0.842746,-0.003026,-3.092777,0.413631,0.494546,-0.224638,-0.730665,60.929792,32.470190,-101.532222
28919,NaN,-6.946606,6.580832,1.565340,2.256690,1.810389,-0.558720,1.047864,-0.098276,-3.073407,0.399575,0.499767,-0.221066,-0.736005,60.941778,33.986483,-102.619001
28920,NaN,-6.438316,6.767935,1.500048,2.264854,1.015908,-0.683672,1.197243,-0.196667,-3.041596,0.385019,0.504784,-0.218234,-0.741166,60.978079,35.465214,-103.773184
28921,NaN,-6.008576,6.722102,1.642923,1.990715,0.426949,-0.877492,1.319959,-0.302267,-3.042426,0.369956,0.509478,-0.216024,-0.746256,61.009083,36.910235,-105.013650
28922,NaN,-5.663033,6.802231,1.882443,1.668245,-0.160801,-0.920589,1.447908,-0.459430,-3.069331,0.354163,0.513734,-0.214425,-0.751444,61.008978,38.330885,-106.385608
28923,NaN,-5.271463,6.941432,2.127717,1.329425,-0.803752,-0.976382,1.555233,-0.667656,-3.122628,0.337589,0.517268,-0.213421,-0.756914,60.928879,39.714090,-107.939393
28924,NaN,-4.829774,6.815789,2.715049,0.563516,-1.286403,-1.142261,1.679367,-0.879348,-3.182528,0.320102,0.520131,-0.212992,-0.762648,60.765083,41.071127,-109.688842
28925,NaN,-4.450063,6.690451,3.325489,-0.226826,-1.671007,-1.281761,1.908162,-1.096562,-3.197911,0.301642,0.522330,-0.213692,-0.768452,60.572994,42.365264,-111.631072
28926,NaN,-3.913668,6.349256,4.029865,-1.220446,-1.934729,-1.649695,2.192051,-1.304151,-3.144823,0.282277,0.523923,-0.215823,-0.774109,60.399752,43.575021,-113.738775
28927,NaN,-2.876312,5.855317,4.604878,-2.288543,-2.317985,-2.522256,2.404111,-1.409249,-3.022243,0.262625,0.525029,-0.219179,-0.779316,60.267957,44.684533,-115.916565
28928,NaN,-1.672210,5.345249,4.889998,-3.159528,-2.693415,-3.644961,2.564597,-1.403528,-2.754284,0.243468,0.525878,-0.223740,-0.783655,60.249641,45.665187,-118.024179
28929,NaN,-0.900953,5.089299,4.939974,-3.646103,-2.922930,-4.401977,2.685909,-1.267795,-2.486258,0.225123,0.526877,-0.229252,-0.786869,60.402048,46.547721,-119.958118
28930,NaN,-0.547902,5.060018,4.767266,-3.765297,-3.063733,-4.806298,2.722605,-1.073490,-2.293417,0.207559,0.528288,-0.235091,-0.789027,60.697440,47.398260,-121.697219
28931,NaN,-0.284783,4.975880,4.938571,-4.180649,-3.041468,-5.069426,2.666476,-0.793995,-2.097132,0.191199,0.530320,-0.240883,-0.790050,61.144410,48.231715,-123.165504
28932,NaN,-0.806894,4.701705,5.146584,-4.341853,-2.404701,-4.852092,2.612306,-0.540471,-1.878036,0.176080,0.532898,-0.246709,-0.790032,61.748708,49.036876,-124.363325
28933,NaN,-0.818551,5.413173,6.141042,-5.397142,-2.681203,-4.212412,2.605611,-0.441993,-1.914197,0.160929,0.535747,-0.252281,-0.789576,62.381249,49.891711,-125.504807
28934,NaN,2.044063,4.419739,5.061170,-5.587819,-3.498321,-7.391394,2.427462,0.027591,-1.304451,0.149201,0.539421,-0.258326,-0.787421,63.379229,50.571502,-126.024068
28935,NaN,0.653504,4.471125,4.685836,-4.835297,-2.817533,-6.487879,2.273320,0.720215,-0.664754,0.141293,0.544780,-0.264949,-0.782977,64.935868,51.098811,-125.705548
28936,NaN,-0.604187,4.663545,4.631450,-4.447170,-2.271830,-5.497189,2.026004,1.302736,-0.154150,0.136794,0.551488,-0.271525,-0.776803,66.901349,51.490838,-124.682272
28937,NaN,-0.668438,4.660195,4.148890,-4.082152,-2.305273,-5.641624,1.734915,1.834110,0.309263,0.135611,0.559344,-0.277861,-0.769115,69.211433,51.724133,-123.012362
28938,NaN,-2.391621,5.563974,3.755803,-3.347328,-2.187533,-3.914259,1.574967,2.250341,0.570540,0.136423,0.568226,-0.283964,-0.760179,71.795709,51.852960,-120.879601
28939,NaN,-4.042407,6.025809,3.200064,-2.506794,-1.755584,-2.496762,1.262666,2.375070,0.811591,0.139200,0.576918,-0.289441,-0.751008,74.350626,51.809543,-118.559338
28940,NaN,-6.712451,6.333089,2.803831,-1.559044,-0.550043,-0.310644,1.078662,2.176874,0.877686,0.142435,0.584531,-0.294488,-0.742505,76.658475,51.641498,-116.414535
28941,NaN,-8.722308,6.764187,2.356923,-0.824304,0.241676,1.441005,0.915463,1.694164,0.876731,0.145420,0.590162,-0.299243,-0.735538,78.514156,51.365058,-114.722894
28942,NaN,-9.724447,7.201119,1.890691,-0.337034,0.481837,2.420339,0.808969,1.087294,0.759621,0.147362,0.593601,-0.303663,-0.730555,79.840959,51.061404,-113.622947
28943,NaN,-9.840652,7.467469,1.435189,-0.018509,0.341269,2.618843,0.705050,0.529146,0.660516,0.148403,0.595055,-0.307821,-0.727414,80.695173,50.745287,-113.052012
28944,NaN,-9.057325,7.563268,0.953846,0.173056,-0.221642,2.022351,0.620906,0.181860,0.581391,0.148861,0.595285,-0.311673,-0.725490,81.240343,50.439701,-112.814459
28945,NaN,-8.031417,7.670478,0.523554,0.278176,-0.944946,1.261750,0.557127,0.082152,0.539476,0.149207,0.595167,-0.315252,-0.723968,81.674892,50.146719,-112.673834
28946,NaN,-7.360645,7.858287,0.323544,0.238286,-1.470948,0.855746,0.557422,0.186161,0.484274,0.149506,0.595497,-0.318572,-0.722179,82.167591,49.894017,-112.455352
28947,NaN,-6.703382,7.872057,-0.000607,0.334397,-1.896747,0.345779,0.582979,0.446904,0.495024,0.150188,0.596767,-0.321830,-0.719540,82.849638,49.651934,-112.008888
28948,NaN,-6.074797,8.066424,-0.339989,0.403865,-2.443668,-0.017267,0.623447,0.820368,0.512712,0.151404,0.599361,-0.324985,-0.715701,83.795585,49.421726,-111.242944
28949,NaN,-5.345267,8.184250,-0.497785,0.272036,-2.939524,-0.480734,0.662178,1.219446,0.529535,0.153212,0.603365,-0.328025,-0.710547,85.022490,49.193651,-110.134646
28950,NaN,-5.066658,8.172835,-0.717495,0.312027,-3.078150,-0.679960,0.757683,1.571745,0.551986,0.155375,0.608608,-0.331170,-0.704118,86.521397,48.951369,-108.733467
28951,NaN,-5.536923,8.542459,-1.112763,0.591222,-3.068310,-0.060633,0.812155,1.743554,0.583020,0.157755,0.614398,-0.334446,-0.696975,88.149697,48.670036,-107.197635
28952,NaN,-5.326792,8.624455,-1.727398,0.982741,-3.320042,-0.130312,0.832713,1.816560,0.608136,0.160263,0.620345,-0.337771,-0.689491,89.813339,48.346683,-105.621987
28953,NaN,-5.549325,8.689046,-2.230737,1.349540,-3.245687,0.132755,0.842775,1.745489,0.617364,0.162637,0.625980,-0.341188,-0.682121,91.414511,47.988278,-104.130774
28954,NaN,-6.200090,8.549732,-2.540319,1.638083,-2.690086,0.582951,0.854435,1.514531,0.630008,0.164608,0.630751,-0.344836,-0.675385,92.849246,47.601579,-102.863488
28955,NaN,-6.187532,8.447821,-2.674064,1.651816,-2.551739,0.558407,0.868140,1.165728,0.627751,0.165915,0.634318,-0.348789,-0.669671,94.053929,47.208449,-101.912459
28956,NaN,-6.263492,8.193425,-2.756880,1.683832,-2.248434,0.486417,0.884611,0.753432,0.626707,0.166440,0.636482,-0.353115,-0.665206,94.996679,46.822538,-101.325610
28957,NaN,-6.002872,7.710557,-2.530935,1.449009,-1.948957,-0.015050,0.906963,0.401417,0.623153,0.166252,0.637479,-0.357785,-0.661794,95.729368,46.451721,-101.042424
28958,NaN,-5.328933,7.177189,-2.184907,1.080145,-1.880478,-0.869545,0.947002,0.154105,0.620566,0.165483,0.637671,-0.362773,-0.659081,96.329889,46.094768,-100.971625
28959,NaN,-5.077251,6.690177,-1.731247,0.670137,-1.541912,-1.403937,1.000055,-0.029530,0.602146,0.164142,0.637317,-0.368017,-0.656847,96.850693,45.760167,-101.054214
28960,NaN,-4.581989,6.475682,-1.274514,0.166912,-1.559671,-1.932802,1.063291,-0.140703,0.574393,0.162302,0.636675,-0.373459,-0.654852,97.342250,45.449273,-101.228501
28961,NaN,-4.236523,6.317603,-1.131599,-0.027332,-1.602166,-2.291209,1.074704,-0.145537,0.573718,0.160405,0.636007,-0.378925,-0.652825,97.836842,45.140649,-101.409046
28962,NaN,-4.024760,6.161556,-1.096863,-0.099706,-1.587869,-2.543926,1.056444,-0.070343,0.523685,0.158543,0.635638,-0.384101,-0.650611,98.365745,44.854813,-101.526851
28963,NaN,-3.710940,5.962048,-0.803172,-0.419502,-1.544096,-2.927806,1.006516,0.033677,0.435286,0.156743,0.635720,-0.388736,-0.648210,98.930521,44.611562,-101.553943
28964,NaN,-4.023001,6.104275,-0.747670,-0.521286,-1.362810,-2.610161,0.935307,0.056807,0.333538,0.154886,0.635997,-0.392791,-0.645936,99.473890,44.423056,-101.553125
28965,NaN,-4.536473,6.516297,-0.961789,-0.418843,-1.303491,-1.932840,0.791144,0.007408,0.215113,0.152999,0.636226,-0.396030,-0.644180,99.917432,44.307079,-101.577297
28966,NaN,-4.937772,7.339300,-1.040608,-0.583692,-1.548920,-1.061130,0.544794,0.099873,0.132983,0.151819,0.636715,-0.398144,-0.642671,100.277474,44.227203,-101.518537
28967,NaN,-5.659406,7.950096,-0.702105,-1.029882,-1.299138,-0.170217,0.303160,0.387122,0.135547,0.151980,0.637938,-0.399263,-0.640723,100.655911,44.116775,-101.234980
28968,NaN,-6.336896,8.044907,-0.449781,-1.246757,-0.774125,0.332516,0.109026,0.731957,0.103249,0.153353,0.640170,-0.399397,-0.638081,101.111971,43.984473,-100.678716
28969,NaN,-6.904695,8.317322,-0.551680,-1.220940,-0.545954,0.928250,0.005364,1.098087,0.067117,0.155660,0.643555,-0.398790,-0.634487,101.708001,43.828556,-99.833996
28970,NaN,-7.389846,9.042282,-0.768196,-1.268590,-0.688916,1.801012,-0.084421,1.483210,0.022277,0.158886,0.648147,-0.397442,-0.629841,102.458065,43.643074,-98.688776
28971,NaN,-7.890474,9.786154,-1.389841,-0.969027,-0.935868,2.762834,-0.117272,1.776853,0.027049,0.162797,0.653592,-0.395741,-0.624263,103.336987,43.406972,-97.325370
28972,NaN,-7.661712,10.154684,-1.922972,-0.727430,-1.425970,2.952617,-0.093926,1.950399,-0.061975,0.166693,0.659709,-0.393651,-0.618091,104.319308,43.179164,-95.823963
28973,NaN,-7.123849,10.509104,-2.055112,-0.885569,-2.029342,2.856565,-0.036618,1.944303,-0.223913,0.169861,0.666118,-0.391167,-0.611901,105.343915,43.024277,-94.304264
28974,NaN,-7.266652,10.590099,-1.719598,-1.356845,-1.875104,2.936933,0.021041,1.799807,-0.458065,0.171836,0.672523,-0.388172,-0.606224,106.354116,42.999763,-92.850489
28975,NaN,-7.458853,10.294238,-1.308217,-1.784614,-1.472121,2.755668,0.025266,1.595725,-0.729767,0.172549,0.678794,-0.384414,-0.601408,107.307103,43.141530,-91.486695
28976,NaN,-7.153306,10.167978,-0.625533,-2.523480,-1.525718,2.280752,-0.043437,1.399421,-0.960575,0.172427,0.684799,-0.379814,-0.597546,108.165003,43.425966,-90.208209
28977,NaN,-7.378735,9.790681,0.260237,-3.348643,-1.029870,1.938686,-0.203868,1.197195,-1.135397,0.171921,0.690354,-0.374276,-0.594788,108.872581,43.831230,-89.023803
28978,NaN,-7.518515,9.417806,0.832053,-3.853066,-0.697979,1.614476,-0.434128,0.997958,-1.207080,0.171628,0.695194,-0.367959,-0.593173,109.371135,44.301752,-87.957828
28979,NaN,-7.865753,8.644626,0.507079,-3.362258,-0.146092,1.391264,-0.608174,0.728165,-1.322202,0.171075,0.699263,-0.360925,-0.592873,109.667413,44.882653,-87.049673
28980,NaN,-8.528423,8.634144,0.282859,-3.194480,0.123339,1.897994,-0.646530,0.456101,-1.398168,0.169947,0.702569,-0.353729,-0.593626,109.821858,45.552773,-86.318014
28981,NaN,-8.775027,8.886117,0.185232,-3.175693,-0.085476,2.266326,-0.838549,-0.016733,-1.540784,0.168203,0.704525,-0.345830,-0.596451,109.648015,46.393221,-85.901526
28982,NaN,-9.877429,8.096378,0.246265,-2.998911,1.018185,2.562285,-0.893893,-0.634702,-1.705585,0.165098,0.704796,-0.337682,-0.601644,109.119414,47.440226,-85.931275
28983,NaN,-11.478785,8.643333,0.887262,-3.700410,1.545490,4.013511,-1.017065,-1.518368,-1.849595,0.160460,0.702471,-0.329333,-0.610186,108.001159,48.728038,-86.660460
28984,NaN,-12.341382,9.399726,0.972622,-3.740326,1.236230,5.222899,-1.353633,-2.486906,-1.976302,0.155004,0.696947,-0.320217,-0.622656,106.021308,50.232433,-88.251172
28985,NaN,-11.512573,9.569842,0.913262,-3.307534,0.184959,4.814366,-1.647400,-3.200667,-2.041703,0.149150,0.688842,-0.310391,-0.637893,103.255772,51.834261,-90.602779
28986,NaN,-9.738029,8.484679,0.701747,-2.414230,-0.494940,2.884231,-1.763018,-3.588265,-2.031021,0.143076,0.679057,-0.300382,-0.654356,99.916273,53.392029,-93.540174
28987,NaN,-9.017148,7.553264,0.575554,-1.691487,-0.557027,1.827682,-1.719272,-3.736376,-1.961918,0.136765,0.668388,-0.290699,-0.670856,96.226093,54.812289,-96.887617
28988,NaN,-8.781475,7.576869,0.602318,-1.331107,-1.016320,1.679036,-1.719910,-3.781048,-1.883429,0.130602,0.657083,-0.281161,-0.687120,92.218721,56.052402,-100.562991
28989,NaN,-8.308376,7.282684,0.435628,-0.770168,-1.370314,1.131118,-1.753377,-3.632850,-1.809976,0.124924,0.645854,-0.271506,-0.702532,88.067713,57.101165,-104.340656
28990,NaN,-8.539649,6.613573,0.517102,-0.344307,-0.957403,0.952150,-1.666320,-3.262165,-1.738748,0.119682,0.635568,-0.262040,-0.716285,84.071760,57.970333,-107.951074
28991,NaN,-9.392430,6.337768,1.046420,-0.350075,-0.444479,1.551552,-1.576186,-2.819934,-1.646728,0.114998,0.626589,-0.252820,-0.728178,80.368924,58.692440,-111.248634
28992,NaN,-10.536526,5.984143,1.229260,0.052177,0.184180,2.364706,-1.530762,-2.530042,-1.576144,0.110778,0.618385,-0.243751,-0.738860,76.826983,59.293555,-114.364158
28993,NaN,-11.405803,5.489323,1.064051,0.771875,0.707064,2.846202,-1.530575,-2.418010,-1.501159,0.106922,0.610362,-0.234778,-0.748936,73.298832,59.773010,-117.448073
28994,NaN,-12.024697,5.071160,1.138560,1.216350,1.091005,3.184283,-1.500619,-2.511358,-1.485902,0.102912,0.601799,-0.225961,-0.759071,69.608770,60.124283,-120.724472
28995,NaN,-11.154130,4.642531,1.356392,1.159118,0.873047,2.257421,-1.486556,-2.658231,-1.514108,0.098539,0.592576,-0.217116,-0.769418,65.716429,60.352855,-124.234956
28996,NaN,-9.893228,4.549339,1.788967,0.710936,0.283014,1.195284,-1.494188,-2.666725,-1.536482,0.094081,0.583142,-0.208125,-0.779601,61.756598,60.467371,-127.810982
28997,NaN,-9.727641,4.406796,1.897492,0.857145,0.133735,0.998591,-1.551183,-2.576572,-1.478036,0.090068,0.573830,-0.198972,-0.789314,57.862667,60.461301,-131.272892
28998,NaN,-8.767226,4.570326,1.796699,0.893795,-0.605640,0.177597,-1.588093,-2.483943,-1.323969,0.086850,0.564534,-0.190029,-0.798529,54.127052,60.294564,-134.530599
28999,NaN,-6.995443,4.264375,2.147802,0.202520,-1.053366,-1.411602,-1.564736,-2.295513,-1.111437,0.084558,0.555685,-0.181641,-0.806889,50.735548,60.001022,-137.415305
29000,NaN,-5.774319,4.317652,2.130959,-0.049519,-1.648149,-2.477591,-1.532607,-2.026155,-0.873235,0.083380,0.547584,-0.173905,-0.814222,47.780375,59.622070,-139.825891
29001,NaN,-5.695462,4.322460,2.464893,-0.227268,-1.718076,-2.451207,-1.525914,-1.774507,-0.659559,0.083244,0.540258,-0.166638,-0.820624,45.216365,59.199410,-141.796989
29002,NaN,-6.905718,3.916790,2.883376,0.058772,-0.975899,-1.423112,-1.500871,-1.738418,-0.492696,0.083757,0.532850,-0.159897,-0.826734,42.866944,58.678657,-143.543799
29003,NaN,-8.072139,3.756362,3.378868,0.293794,-0.473950,-0.306323,-1.430142,-1.966669,-0.384386,0.084320,0.524390,-0.153798,-0.833218,40.563280,57.986716,-145.296002
29004,NaN,-5.943949,3.202327,4.246706,-1.204919,-0.534272,-1.946344,-1.292460,-2.112966,-0.302589,0.084752,0.515209,-0.148538,-0.839829,38.398219,57.161016,-146.991975
29005,NaN,-6.361225,2.923796,4.860576,-1.370695,-0.118968,-1.401834,-1.070289,-2.154758,-0.317234,0.084492,0.505906,-0.144155,-0.846250,36.420152,56.292978,-148.632869
29006,NaN,-7.482043,3.202399,5.282475,-1.000070,-0.059585,-0.162179,-0.909265,-2.304991,-0.343319,0.083607,0.495950,-0.140443,-0.852830,34.533541,55.329581,-150.292387
29007,NaN,-7.814060,3.340171,5.393271,-0.692647,-0.147681,0.227060,-0.896770,-2.401590,-0.281911,0.082857,0.485491,-0.136941,-0.859465,32.746956,54.275285,-151.858549
29008,NaN,-7.342243,3.043364,5.136764,-0.480597,-0.097146,-0.362185,-0.977170,-2.259706,-0.127051,0.083065,0.475396,-0.133402,-0.865623,31.167757,53.212837,-153.131572
29009,NaN,-6.632327,2.705518,4.917036,-0.478635,-0.046523,-1.137961,-0.969485,-1.843593,0.133797,0.084637,0.466899,-0.130313,-0.870552,29.991759,52.265988,-153.920166
29010,NaN,-6.486408,2.483776,4.787951,-0.300146,0.083903,-1.382478,-0.890539,-1.383359,0.405996,0.087515,0.460189,-0.128010,-0.874174,29.240155,51.459266,-154.236386
29011,NaN,-6.759386,2.378887,4.881553,-0.105443,0.268592,-1.147026,-0.802967,-1.031949,0.599888,0.091245,0.454930,-0.126360,-0.876781,28.796703,50.776892,-154.224223
29012,NaN,-7.135845,1.961577,5.307725,-0.158731,0.843717,-0.746144,-0.605017,-0.839177,0.711580,0.095144,0.450487,-0.125752,-0.878747,28.603830,50.156565,-154.034373
29013,NaN,-7.457211,2.390513,6.005766,-0.420295,0.638184,0.026463,-0.710455,-0.899482,0.611654,0.098788,0.445802,-0.124466,-0.880914,28.271035,49.537832,-153.946560
29014,NaN,-7.917109,2.146086,6.447714,-0.402662,1.065335,0.558459,-0.766631,-1.146409,0.491504,0.101882,0.440026,-0.122793,-0.883696,27.762754,48.822852,-154.047397
29015,NaN,-7.410102,1.851461,6.510508,-0.630700,1.202127,0.131126,-0.848188,-1.343595,0.419694,0.104698,0.433384,-0.120683,-0.886934,27.117646,48.030053,-154.269653
29016,NaN,-6.863297,1.527681,6.404754,-0.754823,1.326770,-0.425051,-0.905277,-1.351749,0.433913,0.107700,0.426608,-0.118357,-0.890168,26.460066,47.223698,-154.467379
29017,NaN,-6.254822,1.498632,6.340748,-0.947968,1.155658,-0.905480,-0.953873,-1.163519,0.505106,0.111215,0.420603,-0.115847,-0.892919,25.877529,46.498841,-154.526515
29018,NaN,-5.985983,1.403794,6.278539,-0.970555,1.146017,-1.154359,-0.986052,-0.825394,0.608543,0.115460,0.415975,-0.113225,-0.894882,25.427351,45.918534,-154.377271
29019,NaN,-6.393028,1.732779,5.792016,-0.228251,0.896658,-1.062580,-0.987710,-0.448345,0.720090,0.120405,0.412982,-0.110595,-0.895945,25.132264,45.511055,-154.008940
29020,NaN,-6.802936,1.942666,5.189389,0.564580,0.766386,-1.090447,-1.006042,-0.079096,0.816471,0.126028,0.411530,-0.107863,-0.896173,24.966372,45.268819,-153.441982
29021,NaN,-6.894592,2.212720,4.703971,1.047024,0.506689,-1.256645,-1.035070,0.319135,0.889867,0.132240,0.411818,-0.104889,-0.895498,24.918263,45.220561,-152.684657
29022,NaN,-6.884041,2.310714,4.494500,1.202874,0.409824,-1.367867,-1.062626,0.715204,0.982694,0.139132,0.413759,-0.101721,-0.893923,24.999862,45.351542,-151.722661
29023,NaN,-7.232157,1.910908,4.817907,1.056711,0.942263,-1.028441,-0.953472,1.031078,1.037431,0.146187,0.417161,-0.098920,-0.891527,25.257143,45.634967,-150.605921
29024,NaN,-8.267899,1.641826,5.442690,1.077752,1.609183,0.032352,-0.709328,1.070224,0.988236,0.152529,0.420883,-0.097076,-0.888914,25.647046,45.942654,-149.504329
29025,NaN,-9.833826,1.570303,5.569473,1.821822,2.268994,1.220041,-0.465974,0.678433,0.777938,0.157220,0.423160,-0.096158,-0.887114,25.972023,46.099584,-148.691643
29026,NaN,-9.947518,1.713412,5.386051,2.023712,2.204412,1.230116,-0.276936,0.059391,0.448435,0.159755,0.422963,-0.095871,-0.886786,26.067934,46.015193,-148.347195
29027,NaN,-8.838742,1.505133,5.174124,1.507540,2.007380,0.230119,-0.117102,-0.346977,0.146627,0.160412,0.421262,-0.095974,-0.887466,25.989489,45.800760,-148.372955
29028,NaN,-8.453423,1.630050,4.946658,1.522631,1.750784,-0.158516,-0.006868,-0.474070,-0.026536,0.160011,0.419141,-0.096305,-0.888506,25.849407,45.561217,-148.572311
29029,NaN,-7.822554,1.707871,4.794355,1.320665,1.443982,-0.687685,0.005613,-0.402134,-0.089189,0.159335,0.417403,-0.096500,-0.889424,25.704865,45.377006,-148.789614
29030,NaN,-7.275380,1.618093,5.095564,0.767759,1.336884,-0.916767,-0.016096,-0.181800,-0.095953,0.158784,0.416606,-0.096409,-0.889906,25.599289,45.305284,-148.934125
29031,NaN,-7.590025,1.578035,5.616941,0.553303,1.502019,-0.374123,-0.044346,0.052585,-0.067752,0.158526,0.416839,-0.096065,-0.889880,25.552515,45.350243,-148.974224
29032,NaN,-7.687210,1.538169,5.717618,0.519021,1.569864,-0.251492,-0.032816,0.135150,-0.053180,0.158351,0.417420,-0.095736,-0.889674,25.538957,45.431805,-148.975795
29033,NaN,-7.248519,1.885335,5.445726,0.522160,1.068444,-0.629159,-0.059352,0.189370,-0.044039,0.158296,0.418238,-0.095266,-0.889351,25.530226,45.541604,-148.950379
29034,NaN,-6.738899,2.432101,5.007334,0.649579,0.347750,-1.103017,-0.126288,0.271043,-0.026679,0.158498,0.419336,-0.094467,-0.888882,25.511175,45.687059,-148.884584
29035,NaN,-6.653404,2.806023,4.755424,0.848862,-0.053243,-1.208494,-0.197700,0.358464,0.013579,0.159068,0.420767,-0.093368,-0.888220,25.496783,45.870096,-148.756585
29036,NaN,-5.999848,2.810070,4.962369,0.276549,-0.300012,-1.545086,-0.253987,0.432096,0.080831,0.160090,0.422426,-0.092100,-0.887381,25.503762,46.072455,-148.553261
29037,NaN,-6.065605,2.705753,4.852284,0.351765,-0.193890,-1.597099,-0.218577,0.504439,0.124551,0.161262,0.424432,-0.091024,-0.886322,25.576235,46.303489,-148.289190
29038,NaN,-7.016545,2.588234,4.963549,0.769254,0.257043,-0.873461,-0.118957,0.390213,0.117947,0.162142,0.425993,-0.090466,-0.885469,25.672488,46.474748,-148.070885
29039,NaN,-7.156998,2.488865,5.235276,0.594029,0.404848,-0.630728,-0.031185,0.213784,0.066419,0.162525,0.426885,-0.090331,-0.884983,25.747452,46.569640,-147.952809
29040,NaN,-7.536572,2.555564,5.389789,0.695479,0.485595,-0.238704,0.095245,0.054586,-0.014350,0.162210,0.427194,-0.090710,-0.884853,25.807494,46.600416,-147.954030
29041,NaN,-7.153839,2.650926,5.451257,0.437989,0.261727,-0.449959,0.165984,-0.010440,-0.064915,0.161489,0.427313,-0.091350,-0.884862,25.865047,46.612293,-148.015545
29042,NaN,-7.303795,2.767218,6.322210,-0.134937,0.228838,0.232345,0.151434,-0.097328,-0.181588,0.160245,0.427071,-0.091742,-0.885164,25.825977,46.606610,-148.197466
29043,NaN,-7.262187,2.532619,6.691006,-0.491896,0.438799,0.360246,0.192400,-0.139489,-0.235579,0.158652,0.426717,-0.092238,-0.885570,25.771538,46.594446,-148.433952
29044,NaN,-6.871278,2.885900,6.898583,-0.809324,-0.027903,0.310432,0.201205,-0.067984,-0.224086,0.157126,0.426662,-0.092736,-0.885816,25.745489,46.614289,-148.637175
29045,NaN,-6.776549,2.854677,6.836168,-0.830259,-0.036904,0.192975,0.205989,0.066375,-0.201690,0.155750,0.427212,-0.093201,-0.885746,25.771349,46.699803,-148.773735
29046,NaN,-6.863469,3.109046,6.765656,-0.693565,-0.250933,0.286986,0.159770,0.197873,-0.177291,0.154642,0.428278,-0.093408,-0.885403,25.816845,46.845120,-148.845592
29047,NaN,-7.106336,3.277710,6.529737,-0.362174,-0.341058,0.367355,0.092448,0.297503,-0.174893,0.153734,0.429748,-0.093248,-0.884866,25.853326,47.043259,-148.877944
29048,NaN,-7.740602,3.412529,6.092111,0.345000,-0.274454,0.602763,0.044385,0.346041,-0.173259,0.152960,0.431376,-0.092838,-0.884251,25.874381,47.263944,-148.892535
29049,NaN,-8.095640,3.321371,5.720583,0.793947,-0.096204,0.611143,0.002990,0.314912,-0.172096,0.152264,0.432851,-0.092273,-0.883709,25.865679,47.470373,-148.916412
29050,NaN,-7.327603,3.081985,5.593267,0.375078,-0.163756,-0.101383,-0.005080,0.312786,-0.164963,0.151618,0.434287,-0.091688,-0.883176,25.853913,47.671905,-148.937049
29051,NaN,-6.889920,3.056669,5.696056,0.003855,-0.306304,-0.369949,0.022288,0.387864,-0.132778,0.151085,0.436077,-0.091238,-0.882431,25.898486,47.906112,-148.903767
29052,NaN,-6.774174,2.969335,5.914212,-0.291358,-0.271646,-0.350899,0.060238,0.449176,-0.087253,0.150701,0.438127,-0.091006,-0.881506,26.006870,48.158464,-148.813042
29053,NaN,-6.663361,2.845159,6.171776,-0.627548,-0.195346,-0.317743,0.105559,0.468564,-0.057124,0.150355,0.440297,-0.091027,-0.880481,26.167039,48.415054,-148.689080
29054,NaN,-6.401785,2.591556,6.329773,-0.995049,-0.048917,-0.497520,0.132123,0.477916,-0.040535,0.150030,0.442500,-0.091192,-0.879414,26.354789,48.669941,-148.548133
29055,NaN,-6.500074,2.329816,6.404687,-1.093134,0.230276,-0.461169,0.182316,0.432710,-0.039730,0.149574,0.444557,-0.091615,-0.878410,26.562211,48.903159,-148.420768
29056,NaN,-6.580138,2.066228,6.536640,-1.241852,0.510447,-0.405652,0.221101,0.318303,-0.055494,0.148911,0.446127,-0.092256,-0.877659,26.748530,49.079404,-148.350173
29057,NaN,-6.693349,2.004307,6.575992,-1.254624,0.612379,-0.319918,0.230851,0.268330,-0.070137,0.148137,0.447508,-0.092946,-0.877014,26.919625,49.235890,-148.308302
29058,NaN,-6.828847,1.925103,6.834588,-1.435844,0.745916,-0.095042,0.253197,0.298102,-0.065033,0.147350,0.449013,-0.093720,-0.876294,27.114245,49.403914,-148.251233
29059,NaN,-7.159458,2.013684,7.071564,-1.468885,0.790155,0.313400,0.272351,0.350304,-0.040841,0.146648,0.450767,-0.094597,-0.875417,27.353418,49.594285,-148.151317
29060,NaN,-7.316883,2.157684,7.001973,-1.344905,0.713755,0.429461,0.238592,0.411518,-0.002753,0.146219,0.452723,-0.095362,-0.874396,27.614270,49.803075,-147.996596
29061,NaN,-7.407700,2.220819,7.003201,-1.338170,0.692781,0.511069,0.214277,0.517256,0.054672,0.146143,0.455114,-0.096077,-0.873088,27.934003,50.051961,-147.748553
29062,NaN,-7.486220,2.187193,6.928150,-1.301903,0.756721,0.510034,0.179335,0.633479,0.132051,0.146541,0.457923,-0.096725,-0.871480,28.319201,50.335271,-147.388745
29063,NaN,-7.360659,2.402019,6.601782,-1.133990,0.509521,0.286151,0.111076,0.713065,0.210776,0.147473,0.461007,-0.097201,-0.869641,28.747848,50.637860,-146.924891
29064,NaN,-6.903697,2.564740,6.289420,-1.170265,0.195190,-0.200849,0.019365,0.979958,0.309795,0.149175,0.465104,-0.097301,-0.867155,29.280486,51.041712,-146.259916
29065,NaN,-6.963927,2.621687,6.143346,-1.111635,0.161772,-0.228998,-0.065231,1.360820,0.434274,0.151792,0.470733,-0.097043,-0.863685,29.994410,51.597830,-145.306691
29066,NaN,-7.892909,2.554245,5.748370,-0.456264,0.549043,0.254791,-0.110502,1.721169,0.575564,0.155292,0.477761,-0.096635,-0.859238,30.928592,52.279770,-144.047254
29067,NaN,-8.661001,2.445607,5.420493,0.002881,0.932538,0.651665,-0.150856,2.020942,0.669033,0.159418,0.485977,-0.096041,-0.853925,32.063458,53.068548,-142.520472
29068,NaN,-9.851721,2.245744,5.511258,0.237723,1.572650,1.586400,-0.110289,2.132773,0.696798,0.163599,0.494608,-0.095580,-0.848211,33.340431,53.880676,-140.860008
29069,NaN,-10.780683,2.102062,5.567416,0.347582,2.073864,2.320379,-0.043603,1.975060,0.628680,0.167232,0.502624,-0.095359,-0.842798,34.607759,54.619811,-139.276541
29070,NaN,-11.480503,2.282159,5.754722,0.294127,2.190720,3.041776,-0.008785,1.695650,0.509669,0.170126,0.509480,-0.095200,-0.838108,35.734220,55.245866,-137.901056
29071,NaN,-10.426253,2.343003,5.819435,-0.394174,1.741805,2.223527,0.039145,1.443681,0.350765,0.172101,0.515385,-0.095055,-0.834101,36.703052,55.796622,-136.761676
29072,NaN,-10.037725,2.589529,5.457101,-0.343476,1.370101,1.816781,0.090984,1.283493,0.186536,0.173172,0.520698,-0.094825,-0.830598,37.534487,56.319086,-135.829009
29073,NaN,-10.009178,2.766929,4.985183,-0.038597,1.195260,1.644185,0.123863,1.177426,0.046456,0.173520,0.525667,-0.094466,-0.827431,38.263571,56.837401,-135.049087
29074,NaN,-9.987938,2.758757,4.773674,0.013990,1.182180,1.534494,0.155998,1.100966,-0.026840,0.173436,0.530343,-0.094099,-0.824501,38.935038,57.340904,-134.362286
29075,NaN,-9.444482,2.800138,4.539068,-0.088822,0.922299,0.993911,0.203795,1.024899,-0.049854,0.173093,0.534764,-0.093943,-0.821730,39.600256,57.816075,-133.721039
29076,NaN,-9.022637,2.835054,4.126692,0.030221,0.724848,0.480409,0.267446,0.988723,-0.040645,0.172591,0.539052,-0.094088,-0.819013,40.299915,58.266540,-133.083462
29077,NaN,-8.993192,2.863636,3.897054,0.129586,0.685272,0.374443,0.347991,0.977888,0.001291,0.172038,0.543352,-0.094697,-0.816213,41.093789,58.693459,-132.394476
29078,NaN,-8.340505,2.856236,3.938044,-0.242254,0.436931,-0.170083,0.434497,0.982717,0.021998,0.171329,0.547701,-0.095694,-0.813334,41.968756,59.108158,-131.669791
29079,NaN,-7.322655,2.901782,3.934666,-0.680006,0.005595,-1.034307,0.509846,1.009599,0.031122,0.170461,0.552223,-0.097011,-0.810297,42.938787,59.525703,-130.889853
29080,NaN,-7.180225,3.024512,3.534486,-0.432872,-0.147397,-1.269503,0.559543,0.995189,0.012764,0.169365,0.556700,-0.098473,-0.807282,43.931228,59.936548,-130.118312
29081,NaN,-7.764331,3.322945,3.171359,0.047384,-0.186779,-0.793460,0.580819,0.884388,-0.033461,0.167968,0.560773,-0.099998,-0.804562,44.854824,60.315007,-129.445220
29082,NaN,-7.909181,3.788973,2.874959,0.354220,-0.553736,-0.607030,0.528343,0.785259,-0.033599,0.166660,0.564369,-0.101378,-0.802144,45.688885,60.647353,-128.840959
29083,NaN,-7.756205,4.166901,2.822658,0.327474,-0.960203,-0.622512,0.459362,0.815042,-0.009009,0.165660,0.568023,-0.102538,-0.799621,46.545668,60.977913,-128.169239
29084,NaN,-7.639387,4.283032,2.932353,0.117671,-1.113771,-0.644904,0.407975,0.904618,0.048344,0.165074,0.571929,-0.103565,-0.796820,47.492584,61.313249,-127.361380
29085,NaN,-7.469626,4.524994,2.803475,0.130733,-1.394673,-0.748066,0.355453,1.020477,0.124364,0.165000,0.576219,-0.104515,-0.793614,48.581504,61.654538,-126.362046
29086,NaN,-7.583821,4.828905,2.533063,0.360364,-1.616577,-0.620032,0.297535,1.183615,0.214198,0.165526,0.581022,-0.105345,-0.789884,49.851333,62.007034,-125.121446
29087,NaN,-7.989526,4.896541,2.353608,0.534949,-1.505050,-0.284021,0.248530,1.336591,0.285719,0.166553,0.586345,-0.106069,-0.785626,51.309735,62.370422,-123.641689
29088,NaN,-8.099923,4.924304,2.156822,0.628971,-1.464501,-0.222715,0.207609,1.456456,0.350486,0.168008,0.592021,-0.106707,-0.780959,52.924914,62.727078,-121.962163
29089,NaN,-7.996524,4.786221,2.078725,0.527339,-1.354246,-0.375538,0.193198,1.522044,0.382190,0.169656,0.597909,-0.107331,-0.776017,54.660871,63.069387,-120.144508
29090,NaN,-7.937471,4.669858,1.897921,0.538874,-1.242042,-0.507930,0.208907,1.528833,0.392916,0.171291,0.603774,-0.108027,-0.771004,56.455959,63.382237,-118.274541
29091,NaN,-8.118096,4.668612,1.603402,0.730088,-1.134554,-0.407975,0.239699,1.437114,0.385043,0.172743,0.609299,-0.108899,-0.766196,58.221183,63.645034,-116.463782
29092,NaN,-8.257740,4.778246,1.408541,0.838388,-1.147810,-0.274116,0.244444,1.256813,0.342961,0.173914,0.614111,-0.109804,-0.761948,59.809832,63.850718,-114.855246
29093,NaN,-8.060213,4.866466,1.244208,0.865489,-1.279081,-0.441902,0.233618,1.068366,0.292972,0.174816,0.618219,-0.110680,-0.758284,61.199679,64.010385,-113.464974
29094,NaN,-7.705865,4.916033,0.989962,0.967295,-1.436520,-0.783408,0.213149,0.945687,0.263205,0.175598,0.621825,-0.111486,-0.755030,62.443062,64.136991,-112.224952
29095,NaN,-7.385763,5.056719,0.830811,1.006374,-1.669519,-1.037181,0.186107,0.937065,0.264485,0.176458,0.625376,-0.112204,-0.751783,63.679810,64.249711,-110.977596
29096,NaN,-7.286328,5.101616,0.766104,0.978077,-1.730280,-1.109077,0.168401,1.046161,0.288328,0.177521,0.629275,-0.112826,-0.748177,65.041081,64.363969,-109.580844
29097,NaN,-7.391068,5.283723,0.786153,0.903828,-1.836121,-0.925925,0.165703,1.213618,0.320253,0.178799,0.633775,-0.113391,-0.743978,66.617302,64.486070,-107.946616
29098,NaN,-7.724064,5.476759,0.655076,0.995467,-1.845893,-0.556025,0.124677,1.347417,0.374748,0.180480,0.638660,-0.113848,-0.739309,68.352947,64.587329,-106.110250
29099,NaN,-8.336119,5.709434,0.479105,1.153407,-1.767950,0.079772,0.078181,1.391258,0.393580,0.182393,0.643639,-0.114151,-0.734460,70.137167,64.663959,-104.193049
29100,NaN,-8.948212,5.794766,0.571706,1.016656,-1.569510,0.698186,0.015222,1.302392,0.384434,0.184419,0.648193,-0.114268,-0.729917,71.783787,64.703319,-102.388105
29101,NaN,-9.402993,5.732998,0.776449,0.738969,-1.312966,1.124204,-0.021409,1.053982,0.320118,0.186176,0.651834,-0.114268,-0.726219,73.106995,64.715801,-100.918986
29102,NaN,-9.835968,5.644775,0.908034,0.549430,-1.041318,1.503127,-0.033299,0.693367,0.237121,0.187465,0.654173,-0.114289,-0.723777,73.971251,64.702306,-99.949015
29103,NaN,-9.823887,5.519711,1.055132,0.337989,-0.932356,1.461427,-0.014091,0.313472,0.117315,0.188034,0.655233,-0.114341,-0.722661,74.367591,64.691949,-99.509596
29104,NaN,-9.450448,5.402632,1.013998,0.319485,-0.975295,1.071903,0.037971,0.043000,0.035530,0.187989,0.655396,-0.114570,-0.722488,74.446991,64.683151,-99.452871
29105,NaN,-8.831405,5.273345,0.940465,0.328203,-1.112356,0.450904,0.129488,-0.047028,0.002150,0.187465,0.655354,-0.115102,-0.722579,74.467194,64.680075,-99.520507
29106,NaN,-8.512491,5.129273,0.931004,0.290997,-1.115820,0.102401,0.234913,-0.017396,-0.005390,0.186592,0.655506,-0.115966,-0.722528,74.575863,64.684453,-99.556269
29107,NaN,-8.528149,5.004126,0.890097,0.301603,-0.992477,0.060856,0.322254,0.057428,0.014985,0.185543,0.656012,-0.117139,-0.722150,74.832627,64.690197,-99.484393
29108,NaN,-8.597338,4.937489,0.994644,0.170002,-0.908212,0.108427,0.383366,0.114522,0.037046,0.184413,0.656751,-0.118556,-0.721536,75.194308,64.690622,-99.334401
29109,NaN,-8.829697,4.840128,0.959730,0.178824,-0.715234,0.275317,0.419229,0.131076,0.053922,0.183228,0.657583,-0.120137,-0.720818,75.605008,64.685040,-99.153704
29110,NaN,-8.804064,4.722154,0.949105,0.142826,-0.612160,0.203093,0.433889,0.124828,0.071304,0.182061,0.658379,-0.121839,-0.720101,76.017959,64.666877,-98.979019
29111,NaN,-8.712622,4.644823,0.854447,0.190775,-0.567408,0.079522,0.429401,0.123566,0.076413,0.180917,0.659174,-0.123537,-0.719373,76.431726,64.646643,-98.801332
29112,NaN,-8.625812,4.536836,0.805860,0.191707,-0.495486,-0.047720,0.413618,0.133906,0.086198,0.179874,0.659968,-0.125205,-0.718617,76.847156,64.620221,-98.611005
29113,NaN,-8.653502,4.421255,0.806002,0.151372,-0.370806,-0.070012,0.394847,0.148048,0.092884,0.178917,0.660802,-0.126810,-0.717808,77.273375,64.592824,-98.397545
29114,NaN,-8.697337,4.329409,0.847234,0.074773,-0.262094,-0.064309,0.372890,0.146053,0.098950,0.178061,0.661590,-0.128363,-0.717019,77.681944,64.559531,-98.188901
29115,NaN,-8.733243,4.207388,0.791803,0.092718,-0.123782,-0.087739,0.345357,0.145396,0.110435,0.177326,0.662353,-0.129849,-0.716228,78.079702,64.520675,-97.975440
29116,NaN,-8.675232,4.199866,0.678459,0.173395,-0.124541,-0.152813,0.324004,0.160605,0.136302,0.176774,0.663120,-0.131337,-0.715384,78.484866,64.466843,-97.739397
29117,NaN,-8.574120,4.134235,0.556264,0.254243,-0.089196,-0.281467,0.286704,0.211421,0.169718,0.176488,0.664024,-0.132750,-0.714354,78.938347,64.400756,-97.426721
29118,NaN,-8.476228,4.041165,0.566306,0.197032,-0.030785,-0.407464,0.251402,0.326100,0.218757,0.176580,0.665258,-0.134105,-0.712929,79.511324,64.316569,-96.958134
29119,NaN,-8.490584,3.883708,0.562072,0.146142,0.137136,-0.461285,0.246427,0.456880,0.253481,0.176888,0.666938,-0.135435,-0.711028,80.241644,64.225226,-96.312110
29120,NaN,-8.654052,3.771706,0.582723,0.072458,0.329968,-0.360518,0.245349,0.533419,0.281797,0.177361,0.668852,-0.136792,-0.708849,81.057570,64.119702,-95.569023
29121,NaN,-8.888946,3.687539,0.553262,0.048912,0.532229,-0.188165,0.260724,0.520638,0.276772,0.177744,0.670743,-0.138191,-0.706692,81.863755,64.012866,-94.846630
29122,NaN,-9.116930,3.611957,0.493106,0.058493,0.725218,-0.020947,0.257099,0.442287,0.256728,0.178023,0.672350,-0.139584,-0.704819,82.564142,63.905773,-94.238265
29123,NaN,-9.100286,3.622787,0.336590,0.167712,0.736422,-0.041176,0.246141,0.362812,0.240683,0.178215,0.673685,-0.140948,-0.703222,83.162340,63.800521,-93.736947
29124,NaN,-9.028478,3.691009,0.048549,0.415774,0.677466,-0.091200,0.212428,0.345576,0.255652,0.178569,0.674904,-0.142264,-0.701697,83.715456,63.682138,-93.263113
29125,NaN,-8.714521,3.694057,-0.122113,0.538106,0.565057,-0.378981,0.173143,0.375400,0.263267,0.179094,0.676194,-0.143435,-0.700081,84.280166,63.560417,-92.751486
29126,NaN,-8.378873,3.743114,-0.221956,0.591468,0.398761,-0.660823,0.120850,0.458058,0.278286,0.179914,0.677701,-0.144403,-0.698212,84.902682,63.431105,-92.140480
29127,NaN,-8.252454,3.729072,-0.192563,0.512179,0.375942,-0.777084,0.089434,0.551870,0.272271,0.180878,0.679516,-0.145152,-0.696040,85.610775,63.307637,-91.413679
29128,NaN,-8.281591,3.770637,-0.212847,0.482745,0.373845,-0.731131,0.077410,0.615013,0.251257,0.181862,0.681538,-0.145732,-0.693682,86.372190,63.193504,-90.617970
29129,NaN,-8.420075,3.836750,-0.241458,0.459477,0.397429,-0.576495,0.069035,0.634460,0.224340,0.182785,0.683643,-0.146169,-0.691272,87.145846,63.091633,-89.803128
29130,NaN,-8.619014,3.853699,-0.300077,0.461686,0.491479,-0.390721,0.078605,0.616357,0.188989,0.183545,0.685702,-0.146536,-0.688949,87.894129,63.003732,-89.021511
29131,NaN,-8.798451,4.038303,-0.368107,0.481309,0.425838,-0.146103,0.083048,0.586738,0.165693,0.184179,0.687683,-0.146861,-0.686733,88.609229,62.925059,-88.280133
29132,NaN,-8.896599,4.232567,-0.371749,0.439768,0.310221,0.031724,0.073041,0.539896,0.146621,0.184753,0.689494,-0.147130,-0.684703,89.258841,62.851974,-87.604700
29133,NaN,-8.939077,4.350537,-0.261730,0.285867,0.229583,0.125530,0.057817,0.479586,0.132288,0.185277,0.691098,-0.147350,-0.682893,89.831869,62.784365,-87.005811
29134,NaN,-9.014613,4.383124,-0.008131,-0.009616,0.230361,0.208380,0.056936,0.388753,0.110859,0.185670,0.692396,-0.147579,-0.681421,90.297898,62.725853,-86.525703
29135,NaN,-8.934798,4.445688,0.087543,-0.133318,0.140148,0.165535,0.061749,0.281401,0.091394,0.185894,0.693352,-0.147854,-0.680327,90.648700,62.678191,-86.178798
29136,NaN,-8.813059,4.546740,0.122413,-0.183935,-0.001377,0.103157,0.076626,0.187320,0.072862,0.185940,0.694007,-0.148204,-0.679571,90.900195,62.640325,-85.952481
29137,NaN,-8.728776,4.603613,0.143364,-0.216638,-0.087595,0.053959,0.091486,0.103991,0.048947,0.185785,0.694418,-0.148597,-0.679107,91.070731,62.617308,-85.827525
29138,NaN,-8.547592,4.581525,0.016152,-0.095233,-0.141506,-0.116149,0.103412,0.032587,0.031095,0.185481,0.694602,-0.149037,-0.678906,91.166494,62.604474,-85.793774
29139,NaN,-8.459245,4.592485,-0.017753,-0.065836,-0.188595,-0.189270,0.113711,0.027419,0.025851,0.185113,0.694790,-0.149496,-0.678713,91.265370,62.595387,-85.763843
29140,NaN,-8.440721,4.528936,-0.036603,-0.058137,-0.138135,-0.234801,0.140457,0.043539,0.036380,0.184706,0.695040,-0.150071,-0.678440,91.394191,62.579303,-85.716752
29141,NaN,-8.343412,4.436288,0.034017,-0.140948,-0.102536,-0.364728,0.180330,0.055329,0.037477,0.184166,0.695375,-0.150770,-0.678089,91.561594,62.563082,-85.652611
29142,NaN,-8.260069,4.306561,0.089353,-0.212500,-0.026213,-0.499400,0.213776,0.069407,0.046447,0.183558,0.695772,-0.151604,-0.677660,91.760371,62.540662,-85.574007
29143,NaN,-8.104772,4.292703,0.098038,-0.233478,-0.082601,-0.644107,0.247350,0.100393,0.058089,0.182889,0.696304,-0.152560,-0.677081,92.014720,62.511576,-85.455123
29144,NaN,-7.935450,4.367548,0.014471,-0.163700,-0.218802,-0.758831,0.275547,0.171887,0.070392,0.182225,0.697083,-0.153592,-0.676224,92.359939,62.472869,-85.251258
29145,NaN,-7.939843,4.426612,-0.023905,-0.153405,-0.263063,-0.727329,0.287781,0.252798,0.075588,0.181589,0.698150,-0.154606,-0.675062,92.802791,62.429172,-84.945810
29146,NaN,-7.967181,4.510552,-0.163459,-0.048596,-0.314199,-0.661373,0.278773,0.323488,0.076384,0.181049,0.699434,-0.155531,-0.673664,93.313610,62.380944,-84.556999
29147,NaN,-8.299852,4.581349,-0.261624,-0.004083,-0.215356,-0.331221,0.248244,0.370187,0.066833,0.180612,0.700861,-0.156273,-0.672124,93.860014,62.335574,-84.108828
29148,NaN,-8.627093,4.721823,-0.346196,0.025689,-0.182675,0.026419,0.198274,0.381027,0.039865,0.180275,0.702288,-0.156746,-0.670614,94.387240,62.302470,-83.649093
29149,NaN,-9.193467,4.746790,-0.440812,0.050847,0.060634,0.542977,0.149873,0.340963,0.010341,0.179969,0.703566,-0.156985,-0.669299,94.847773,62.286977,-83.233991
29150,NaN,-9.456109,4.732115,-0.472483,0.034729,0.193413,0.770104,0.106434,0.238904,-0.020650,0.179638,0.704478,-0.157064,-0.668410,95.172200,62.292221,-82.943767
29151,NaN,-9.500087,4.776813,-0.686531,0.223106,0.178080,0.839045,0.054044,0.176360,-0.039879,0.179372,0.705156,-0.156953,-0.667792,95.403735,62.311815,-82.725315
29152,NaN,-9.355907,4.680733,-0.822645,0.348301,0.197048,0.673439,0.002751,0.166305,-0.040702,0.179282,0.705746,-0.156680,-0.667257,95.592408,62.331361,-82.521402
29153,NaN,-9.120828,4.450604,-0.841879,0.361945,0.288032,0.360422,-0.026463,0.180399,-0.047302,0.179277,0.706370,-0.156271,-0.666694,95.783606,62.354248,-82.296496
29154,NaN,-8.965312,4.187819,-0.913657,0.422885,0.446610,0.105534,-0.027082,0.192461,-0.061065,0.179245,0.707036,-0.155802,-0.666106,95.986696,62.383257,-82.057138
29155,NaN,-8.923341,4.006990,-0.878000,0.369600,0.578289,-0.015657,0.003199,0.200570,-0.077662,0.179050,0.707776,-0.155366,-0.665474,96.221229,62.421453,-81.802632
29156,NaN,-8.928779,3.930639,-0.782481,0.253649,0.634531,-0.049579,0.046973,0.207654,-0.091703,0.178664,0.708581,-0.155021,-0.664801,96.488340,62.466105,-81.539123
29157,NaN,-9.018064,3.916379,-0.647602,0.092906,0.670427,0.017102,0.077363,0.185521,-0.101442,0.178115,0.709354,-0.154760,-0.664184,96.753449,62.517764,-81.298260
29158,NaN,-8.920695,3.924607,-0.590408,0.024253,0.604905,-0.067772,0.084208,0.166317,-0.088068,0.177577,0.710051,-0.154588,-0.663624,96.998001,62.562167,-81.084471
29159,NaN,-8.775792,3.990101,-0.747042,0.173570,0.478939,-0.156914,0.064607,0.183821,-0.062004,0.177202,0.710775,-0.154426,-0.662987,97.250174,62.590546,-80.850133
29160,NaN,-8.737481,4.076468,-0.845762,0.256784,0.382902,-0.145015,0.017433,0.224773,-0.041427,0.177099,0.711569,-0.154145,-0.662227,97.515201,62.603348,-80.570313
29161,NaN,-8.906588,4.157095,-0.889515,0.269522,0.385433,0.045241,-0.065050,0.233889,-0.033416,0.177319,0.712320,-0.153610,-0.661485,97.744507,62.610729,-80.278125
29162,NaN,-9.193777,4.267739,-0.984267,0.328833,0.418670,0.357096,-0.159024,0.194063,-0.032292,0.177850,0.712848,-0.152805,-0.660960,97.873894,62.619832,-80.037274
29163,NaN,-9.469589,4.396893,-1.043441,0.362417,0.428869,0.664873,-0.245653,0.114170,-0.043337,0.178588,0.713048,-0.151744,-0.660789,97.870289,62.641670,-79.890896
29164,NaN,-9.634339,4.416425,-0.979134,0.292171,0.479097,0.816005,-0.325571,0.011919,-0.061374,0.179478,0.712845,-0.150446,-0.661064,97.709181,62.681524,-79.869779
29165,NaN,-9.708481,4.503099,-0.966573,0.294486,0.430278,0.920199,-0.367780,-0.079624,-0.072479,0.180407,0.712314,-0.149050,-0.661699,97.426741,62.734894,-79.958526
29166,NaN,-9.583594,4.466396,-0.974721,0.339120,0.402129,0.792371,-0.391006,-0.131304,-0.082833,0.181349,0.711590,-0.147586,-0.662548,97.072471,62.797455,-80.112540
29167,NaN,-9.515439,4.412032,-0.966022,0.365221,0.413135,0.705804,-0.365632,-0.161860,-0.097817,0.182125,0.710802,-0.146180,-0.663492,96.701845,62.870401,-80.301691
29168,NaN,-9.512015,4.382396,-1.011707,0.441867,0.433239,0.690852,-0.337288,-0.171202,-0.111331,0.182751,0.710011,-0.144829,-0.664464,96.335315,62.950930,-80.503884
29169,NaN,-9.443096,4.365875,-1.162792,0.627781,0.417675,0.628403,-0.295683,-0.175160,-0.128916,0.183163,0.709260,-0.143555,-0.665428,95.990679,63.041313,-80.708573
29170,NaN,-9.387051,4.340171,-1.284328,0.781090,0.411753,0.571127,-0.239142,-0.177270,-0.157210,0.183282,0.708566,-0.142372,-0.666387,95.675716,63.147292,-80.915719
29171,NaN,-9.476435,4.285089,-1.370392,0.886406,0.490883,0.628386,-0.193416,-0.202341,-0.190502,0.183107,0.707858,-0.141245,-0.667427,95.361997,63.273244,-81.151026
29172,NaN,-9.369103,4.270854,-1.505318,1.058050,0.445708,0.529847,-0.156373,-0.253171,-0.222552,0.182659,0.707031,-0.140174,-0.668651,95.010809,63.419423,-81.451379
29173,NaN,-9.246069,4.177608,-1.574641,1.164844,0.456459,0.378305,-0.131452,-0.308557,-0.251347,0.181985,0.706062,-0.139135,-0.670074,94.611028,63.583898,-81.821919
29174,NaN,-9.033629,4.151732,-1.572904,1.213347,0.359577,0.173085,-0.098208,-0.376894,-0.286122,0.181031,0.704912,-0.138145,-0.671746,94.148266,63.769938,-82.283162
29175,NaN,-8.876681,4.166922,-1.594571,1.286548,0.248819,0.035358,-0.057017,-0.432610,-0.317072,0.179786,0.703633,-0.137235,-0.673606,93.641016,63.974149,-82.819723
29176,NaN,-8.805980,4.240491,-1.571183,1.315093,0.117730,-0.001873,-0.028577,-0.479040,-0.333646,0.178353,0.702226,-0.136403,-0.675621,93.087495,64.187175,-83.424737
29177,NaN,-8.813400,4.330830,-1.565601,1.361187,0.005184,0.037696,-0.019177,-0.526316,-0.338223,0.176836,0.700666,-0.135627,-0.677792,92.474476,64.401465,-84.100827
29178,NaN,-8.745618,4.424281,-1.549371,1.404010,-0.143606,0.009148,-0.022175,-0.573182,-0.335449,0.175306,0.698934,-0.134891,-0.680120,91.792192,64.611792,-84.850491
29179,NaN,-8.694580,4.390496,-1.549182,1.458864,-0.167926,-0.059979,-0.027034,-0.612933,-0.309084,0.173854,0.697038,-0.134264,-0.682558,91.046784,64.803594,-85.665704
29180,NaN,-8.479469,4.334463,-1.540358,1.511171,-0.238918,-0.287951,-0.036768,-0.644615,-0.276455,0.172524,0.694995,-0.133744,-0.685077,90.245320,64.972102,-86.535500
29181,NaN,-8.400513,4.261588,-1.429787,1.457383,-0.237968,-0.400296,-0.047039,-0.663522,-0.228200,0.171379,0.692837,-0.133370,-0.687618,89.404100,65.107705,-87.441538
29182,NaN,-8.479738,4.309051,-1.314662,1.405187,-0.274274,-0.317844,-0.063433,-0.725648,-0.179003,0.170417,0.690412,-0.133163,-0.690331,88.469562,65.208398,-88.439333
29183,NaN,-8.658953,4.442633,-1.105486,1.271548,-0.347080,-0.107083,-0.088238,-0.826883,-0.142026,0.169598,0.687578,-0.133081,-0.693371,87.388798,65.278555,-89.581671
29184,NaN,-8.967540,4.574466,-0.879837,1.137138,-0.362219,0.221832,-0.147211,-0.973940,-0.139887,0.168888,0.684171,-0.132925,-0.696935,86.086716,65.332577,-90.930074
29185,NaN,-9.264072,4.723011,-0.512220,0.886115,-0.403622,0.552781,-0.205181,-1.166923,-0.156821,0.168184,0.680030,-0.132667,-0.701194,84.503052,65.373142,-92.550986
29186,NaN,-9.203150,4.785051,-0.090362,0.593942,-0.517456,0.530463,-0.253337,-1.340207,-0.180151,0.167440,0.675232,-0.132303,-0.706061,82.670593,65.395561,-94.415100
29187,NaN,-8.921002,4.922046,0.174582,0.466051,-0.784465,0.336551,-0.262080,-1.418431,-0.198434,0.166600,0.670125,-0.131903,-0.711181,80.729788,65.396452,-96.392387
29188,NaN,-8.616514,5.012706,0.499582,0.269325,-1.020919,0.112272,-0.232612,-1.400957,-0.230003,0.165553,0.665094,-0.131483,-0.716208,78.823367,65.389076,-98.350827
29189,NaN,-8.351714,5.069410,0.809864,0.072782,-1.210116,-0.084632,-0.173241,-1.296161,-0.259820,0.164262,0.660472,-0.131081,-0.720842,77.071472,65.385110,-100.176461
29190,NaN,-8.366314,5.159051,1.057497,-0.056550,-1.314417,-0.014857,-0.110046,-1.162715,-0.303370,0.162687,0.656387,-0.130652,-0.724995,75.507489,65.401199,-101.835536
29191,NaN,-8.667453,5.280124,1.160250,-0.027332,-1.330718,0.315407,-0.044869,-1.032320,-0.334627,0.160864,0.652824,-0.130242,-0.728684,74.124092,65.436665,-103.336378
29192,NaN,-8.973005,5.467339,1.184917,0.077462,-1.409878,0.666636,0.012177,-0.939712,-0.378787,0.158752,0.649657,-0.129823,-0.732045,72.866717,65.496614,-104.734458
29193,NaN,-9.319836,5.605331,1.188476,0.200878,-1.434013,1.031396,0.057159,-0.885505,-0.411347,0.156403,0.646726,-0.129412,-0.735212,71.679072,65.571832,-106.083089
29194,NaN,-9.608104,5.768294,1.228490,0.284025,-1.510257,1.355832,0.064648,-0.876766,-0.425869,0.153982,0.643830,-0.128977,-0.738334,70.495125,65.644367,-107.432030
29195,NaN,-9.667157,5.897417,1.315478,0.295953,-1.649878,1.463548,0.021956,-0.903941,-0.435838,0.151636,0.640788,-0.128364,-0.741566,69.240745,65.705620,-108.830260
29196,NaN,-9.391033,5.799444,1.712796,-0.052385,-1.712639,1.224613,-0.051378,-0.923122,-0.443058,0.149488,0.637611,-0.127475,-0.744887,67.914978,65.752975,-110.260619
29197,NaN,-8.941374,5.602395,2.044978,-0.369345,-1.747598,0.785693,-0.115804,-0.874963,-0.447902,0.147548,0.634548,-0.126284,-0.748085,66.598833,65.800720,-111.638905
29198,NaN,-8.696379,5.440918,2.335266,-0.622338,-1.733783,0.545408,-0.176779,-0.762451,-0.443170,0.145894,0.631846,-0.124803,-0.750939,65.379146,65.858758,-112.873157
29199,NaN,-8.575420,5.217683,2.547753,-0.794908,-1.615794,0.385838,-0.213058,-0.610033,-0.451301,0.144410,0.629681,-0.123037,-0.753332,64.301788,65.948916,-113.927457
29200,NaN,-8.652068,4.971301,2.578587,-0.771469,-1.404055,0.368389,-0.263431,-0.427261,-0.442745,0.143235,0.628157,-0.120986,-0.755159,63.406465,66.072246,-114.750614
29201,NaN,-9.023689,4.757314,2.599900,-0.698824,-1.116226,0.631633,-0.320339,-0.262716,-0.426429,0.142391,0.627194,-0.118641,-0.756490,62.666341,66.226335,-115.366983
29202,NaN,-9.826509,5.376716,2.804121,-0.679121,-1.453874,1.622218,-0.471025,-0.179015,-0.423369,0.142088,0.626434,-0.115687,-0.757633,61.932708,66.396623,-115.881775
29203,NaN,-10.628204,6.279640,4.261319,-1.837376,-2.071950,2.949813,-0.808543,-0.402220,-0.300732,0.143166,0.624507,-0.111983,-0.759575,60.813913,66.441903,-116.604835
29204,NaN,-6.928861,4.469426,4.175892,-2.455350,-1.757052,-1.077367,-1.096950,-0.730788,-0.189005,0.145391,0.621041,-0.107778,-0.762597,59.231787,66.329245,-117.653954
29205,NaN,-5.794563,3.355187,3.547653,-2.063805,-1.154381,-2.613545,-1.144577,-0.397748,-0.189912,0.147923,0.618786,-0.103129,-0.764583,57.999806,66.307684,-118.290927
29206,NaN,-7.173848,3.373746,3.059845,-1.273676,-0.716411,-1.441717,-1.141666,0.117223,-0.165882,0.150810,0.618466,-0.098194,-0.764928,57.358232,66.426171,-118.285511
29207,NaN,-8.489591,3.380454,2.465619,-0.424299,-0.276459,-0.361584,-1.101284,0.374004,-0.023021,0.154229,0.619070,-0.093645,-0.764328,57.121400,66.557337,-117.863477
29208,NaN,-8.944571,3.015535,2.040299,0.030187,0.221665,-0.158074,-1.057790,0.464197,0.087904,0.157985,0.619976,-0.089548,-0.763317,57.093390,66.661577,-117.241880
29209,NaN,-9.318281,3.076444,1.664283,0.465104,0.306532,0.124839,-1.022417,0.401983,0.118506,0.161704,0.620643,-0.085711,-0.762435,57.038248,66.733911,-116.671877
29210,NaN,-9.614949,3.282134,1.262987,0.942432,0.243938,0.378833,-1.024048,0.187674,0.125293,0.165369,0.620468,-0.082075,-0.762192,56.750545,66.734634,-116.354572
29211,NaN,-9.835626,3.122243,1.346580,0.906806,0.462787,0.544174,-1.056674,-0.131772,0.063664,0.168754,0.619060,-0.078371,-0.762984,56.042017,66.666514,-116.474611
29212,NaN,-9.079393,2.831406,1.667500,0.472954,0.431057,-0.178223,-1.075436,-0.406139,0.000556,0.171854,0.616593,-0.074643,-0.764662,54.981417,66.536620,-116.967102
29213,NaN,-8.595854,2.573104,2.032278,0.062546,0.452595,-0.624084,-1.029810,-0.567114,-0.061877,0.174498,0.613556,-0.071019,-0.766848,53.733705,66.379956,-117.692281
29214,NaN,-8.559678,2.468453,2.227536,-0.071361,0.502558,-0.643989,-0.952954,-0.620515,-0.082950,0.176811,0.610365,-0.067683,-0.769163,52.473499,66.206549,-118.480594
29215,NaN,-8.687961,2.391915,2.442953,-0.188313,0.580712,-0.496212,-0.830270,-0.622173,-0.096117,0.178682,0.607265,-0.064765,-0.771432,51.283195,66.033461,-119.269903
29216,NaN,-8.972445,2.479548,2.416533,-0.012508,0.591366,-0.213613,-0.703711,-0.582918,-0.079043,0.180254,0.604408,-0.062363,-0.773505,50.234348,65.859186,-119.985260
29217,NaN,-9.323248,2.946071,2.611816,0.040420,0.249906,0.304592,-0.614315,-0.537545,-0.065332,0.181610,0.601793,-0.060293,-0.775389,49.301583,65.692301,-120.629966
29218,NaN,-9.089647,3.424123,3.603537,-0.781126,-0.408743,0.509815,-0.614148,-0.549625,-0.047774,0.183035,0.599114,-0.058299,-0.777278,48.385256,65.507500,-121.258108
29219,NaN,-8.247981,3.068761,3.891195,-1.239721,-0.425492,-0.280137,-0.606115,-0.520166,-0.049321,0.184427,0.596550,-0.056291,-0.779067,47.508301,65.332152,-121.848429
29220,NaN,-8.770773,3.182283,3.710226,-0.864590,-0.333295,0.185326,-0.581768,-0.377766,-0.051880,0.185783,0.594553,-0.054251,-0.780416,46.784291,65.208320,-122.286891
29221,NaN,-9.396718,3.429463,3.431489,-0.349365,-0.314325,0.752044,-0.564901,-0.303708,-0.029802,0.187184,0.592850,-0.052260,-0.781511,46.158195,65.104016,-122.628046
29222,NaN,-9.548475,3.388114,3.234909,-0.086605,-0.204767,0.820641,-0.594289,-0.281769,-0.011451,0.188757,0.591191,-0.050201,-0.782524,45.556434,64.997692,-122.924530
29223,NaN,-9.190560,3.308415,3.280821,-0.178956,-0.274959,0.486240,-0.626162,-0.299880,-0.017507,0.190385,0.589430,-0.048003,-0.783595,44.917063,64.886866,-123.242184
29224,NaN,-9.016160,3.240611,3.330695,-0.228610,-0.293744,0.323753,-0.621402,-0.332167,-0.061425,0.191826,0.587547,-0.045737,-0.784793,44.221002,64.777245,-123.626236
29225,NaN,-9.159940,3.275416,3.431801,-0.223190,-0.306442,0.495856,-0.640011,-0.355674,-0.104136,0.193136,0.585559,-0.043281,-0.786095,43.459589,64.674496,-124.070641
29226,NaN,-9.261409,3.156645,3.695307,-0.412710,-0.222696,0.635905,-0.677885,-0.392657,-0.137546,0.194425,0.583384,-0.040628,-0.787535,42.623659,64.564948,-124.574369
29227,NaN,-8.995701,2.971616,3.852853,-0.606594,-0.194624,0.394730,-0.689234,-0.402520,-0.136991,0.195734,0.581155,-0.037927,-0.788992,41.777253,64.449572,-125.082493
29228,NaN,-8.617596,2.906147,3.892145,-0.691995,-0.296653,0.050895,-0.696784,-0.341790,-0.111418,0.197185,0.579138,-0.035223,-0.790238,41.005287,64.345756,-125.504211
29229,NaN,-8.439554,2.588173,3.996930,-0.869389,-0.107903,-0.162170,-0.668621,-0.207807,-0.086245,0.198664,0.577671,-0.032558,-0.791055,40.378145,64.290296,-125.782948
29230,NaN,-9.078915,2.369611,4.066586,-0.792656,0.283272,0.378985,-0.606323,-0.152363,-0.065880,0.200061,0.576470,-0.030156,-0.791674,39.851362,64.248552,-125.990458
29231,NaN,-9.431612,2.205124,4.184506,-0.817818,0.516172,0.694097,-0.551006,-0.254271,-0.084779,0.201196,0.574925,-0.028007,-0.792589,39.261403,64.169649,-126.302997
29232,NaN,-9.295393,2.297207,4.017168,-0.621267,0.399445,0.544596,-0.489406,-0.403777,-0.099385,0.202083,0.572838,-0.026223,-0.793934,38.587393,64.026021,-126.748890
29233,NaN,-9.005810,2.401926,3.863555,-0.464513,0.220301,0.263833,-0.446851,-0.510316,-0.108562,0.202786,0.570374,-0.024676,-0.795577,37.856964,63.837149,-127.284978
29234,NaN,-8.617190,2.529437,3.704076,-0.318542,-0.009126,-0.103297,-0.447870,-0.558601,-0.102108,0.203518,0.567701,-0.023205,-0.797344,37.108597,63.619220,-127.841714
29235,NaN,-8.094981,2.620931,3.757061,-0.416892,-0.293070,-0.525413,-0.470841,-0.534737,-0.102551,0.204305,0.565100,-0.021603,-0.799033,36.371862,63.411046,-128.371418
29236,NaN,-7.916161,2.307070,3.753514,-0.498631,-0.075154,-0.767108,-0.467718,-0.468573,-0.090306,0.205146,0.562751,-0.019994,-0.800517,35.703269,63.224666,-128.828141
29237,NaN,-8.448130,2.139405,2.962634,0.366407,0.414969,-0.624730,-0.403748,-0.302887,-0.060611,0.205931,0.561130,-0.018541,-0.801487,35.212486,63.105524,-129.126919
29238,NaN,-8.677970,3.204540,3.989386,-0.124187,-0.691976,0.237037,-0.504295,-0.344847,-0.031159,0.207119,0.559223,-0.016823,-0.802551,34.669378,62.953979,-129.420493
29239,NaN,-7.390381,2.208524,3.482557,-0.300857,-0.138088,-1.356108,-0.495982,-0.382147,-0.054442,0.208177,0.557180,-0.015100,-0.803732,34.089150,62.792843,-129.761169
29240,NaN,-8.279681,2.904412,3.638724,0.080647,-0.503466,-0.327492,-0.532102,-0.180135,-0.049775,0.209377,0.555897,-0.013047,-0.804344,33.623680,62.723063,-129.950233
29241,NaN,-8.826447,2.352532,3.958102,-0.187249,0.110607,0.140188,-0.518438,-0.198404,-0.040202,0.210565,0.554559,-0.011082,-0.804987,33.163834,62.642685,-130.141519
29242,NaN,-8.838785,2.451876,3.658913,0.155337,0.077340,0.061178,-0.507709,-0.232444,-0.034813,0.211751,0.553082,-0.009223,-0.805715,32.698162,62.541684,-130.346849
29243,NaN,-9.195648,2.534689,3.311189,0.643158,0.194717,0.261875,-0.512557,-0.301633,-0.044569,0.212897,0.551325,-0.007379,-0.806636,32.180832,62.411281,-130.607112
29244,NaN,-9.236333,2.253559,3.520784,0.424339,0.409936,0.308376,-0.516792,-0.382910,-0.078503,0.213922,0.549224,-0.005523,-0.807812,31.588169,62.248650,-130.950470
29245,NaN,-9.488324,1.998930,3.772229,0.251444,0.664431,0.567518,-0.470348,-0.509046,-0.122642,0.214626,0.546666,-0.003855,-0.809368,30.914417,62.037391,-131.415807
29246,NaN,-9.512708,1.836604,3.625708,0.404709,0.847646,0.489143,-0.407894,-0.629182,-0.154914,0.215032,0.543676,-0.002493,-0.811278,30.191670,61.771939,-131.978711
29247,NaN,-9.543237,2.227871,2.815346,1.343455,0.685995,0.271308,-0.333597,-0.696356,-0.180086,0.215121,0.540491,-0.001424,-0.813382,29.463267,61.478608,-132.597463
29248,NaN,-9.253394,2.968999,4.203037,0.374384,-0.412417,0.760617,-0.393348,-0.773380,-0.236647,0.215145,0.536914,-0.000054,-0.815742,28.625670,61.156949,-133.303935
29249,NaN,-7.712696,1.589006,6.052606,-2.146237,-0.136522,-0.116351,-0.424080,-0.820888,-0.255087,0.215164,0.533105,0.001452,-0.818231,27.745997,60.812718,-134.040178
29250,NaN,-7.868434,1.760870,5.607326,-1.563753,-0.142062,-0.117889,-0.340068,-0.603679,-0.171964,0.215301,0.530259,0.002615,-0.820039,27.109527,60.550749,-134.555341
29251,NaN,-7.775327,2.043507,5.287681,-1.162030,-0.362887,-0.267581,-0.315591,-0.345971,-0.060875,0.215816,0.528499,0.003671,-0.821035,26.711695,60.390941,-134.812969
29252,NaN,-7.719715,2.042290,5.339106,-1.195082,-0.399887,-0.289934,-0.318919,-0.101964,0.031584,0.216722,0.527728,0.004749,-0.821287,26.509099,60.330023,-134.844465
29253,NaN,-8.208217,2.082736,4.933526,-0.647505,-0.176290,-0.035063,-0.286998,0.053933,0.087045,0.217759,0.527641,0.005730,-0.821062,26.443546,60.336568,-134.738893
29254,NaN,-8.208671,2.363449,4.515595,-0.186705,-0.337534,-0.158156,-0.293470,0.201412,0.110010,0.218911,0.528142,0.006826,-0.820425,26.462552,60.411101,-134.532187
29255,NaN,-9.034523,2.373344,4.500462,0.102805,-0.063350,0.555288,-0.306818,0.283521,0.089307,0.220001,0.528972,0.008132,-0.819586,26.491758,60.534816,-134.304806
29256,NaN,-9.834803,2.039450,4.680244,0.084127,0.461417,1.258328,-0.287794,0.217600,0.048515,0.220884,0.529540,0.009385,-0.818969,26.467020,60.633299,-134.152478
29257,NaN,-9.802949,1.886894,4.667836,0.017845,0.576334,1.192510,-0.235142,0.134135,0.008818,0.221460,0.529830,0.010446,-0.818613,26.397402,60.700985,-134.085996
29258,NaN,-9.930613,1.784683,4.608139,0.071131,0.715418,1.256198,-0.151419,0.078643,-0.036406,0.221639,0.529974,0.011212,-0.818461,26.310243,60.749959,-134.094982
29259,NaN,-9.870561,1.670241,4.503628,0.099748,0.811492,1.134086,-0.100813,0.007619,-0.082572,0.221492,0.529889,0.011825,-0.818547,26.176247,60.775890,-134.190542
29260,NaN,-9.897613,1.441253,4.334018,0.178462,1.058215,1.034984,-0.032177,-0.067961,-0.149871,0.220899,0.529558,0.012243,-0.818915,25.986433,60.778080,-134.395394
29261,NaN,-9.664645,1.247223,4.296117,0.073633,1.148435,0.774719,0.014699,-0.108658,-0.194222,0.219996,0.529118,0.012550,-0.819438,25.763432,60.771684,-134.668766
29262,NaN,-9.412727,1.179286,4.218099,0.043380,1.128058,0.507588,0.074162,-0.067305,-0.223495,0.218818,0.528902,0.012729,-0.819890,25.566597,60.791894,-134.951411
29263,NaN,-9.722129,1.226389,4.052428,0.323765,1.216659,0.716361,0.104059,-0.085682,-0.284886,0.217304,0.528646,0.012935,-0.820454,25.320762,60.818699,-135.309508
29264,NaN,-9.974856,1.006797,4.109119,0.305333,1.465352,0.918372,0.104992,-0.217620,-0.397383,0.215339,0.527833,0.013284,-0.821490,24.913849,60.802048,-135.852894
29265,NaN,-10.057142,0.709604,4.284769,0.116341,1.692338,1.010022,0.127354,-0.373559,-0.500688,0.212894,0.526400,0.013654,-0.823039,24.357570,60.728000,-136.582185
29266,NaN,-9.781238,0.653934,4.283268,0.055912,1.623684,0.761186,0.169222,-0.454508,-0.544119,0.210168,0.524662,0.013873,-0.824844,23.755345,60.616965,-137.392471
29267,NaN,-9.601378,0.718480,4.082719,0.245811,1.528177,0.530194,0.172842,-0.456620,-0.530896,0.207479,0.522920,0.014046,-0.826626,23.171606,60.498880,-138.184704
29268,NaN,-9.169738,0.611919,3.931161,0.235286,1.495469,0.067621,0.164340,-0.432242,-0.521110,0.204852,0.521257,0.014249,-0.828326,22.607178,60.386586,-138.950084
29269,NaN,-8.976754,0.398930,4.011499,0.071495,1.583651,-0.100836,0.173062,-0.410880,-0.547254,0.202087,0.519690,0.014510,-0.829984,22.036242,60.288568,-139.729457
29270,NaN,-9.023394,0.295258,4.097588,0.029013,1.647298,-0.035962,0.199981,-0.368813,-0.554690,0.199217,0.518311,0.014719,-0.831535,21.493449,60.209937,-140.494836
29271,NaN,-9.026331,0.198117,4.283588,-0.116453,1.668248,0.039531,0.246081,-0.333881,-0.556069,0.196215,0.517123,0.014777,-0.832986,20.991709,60.147623,-141.243911
29272,NaN,-8.838883,0.390722,4.420480,-0.197867,1.375342,-0.020433,0.284711,-0.312573,-0.568516,0.193058,0.516048,0.014726,-0.834390,20.510033,60.095371,-141.995670
29273,NaN,-8.726394,0.654377,4.485910,-0.171226,1.055481,-0.037309,0.294862,-0.274970,-0.588396,0.189785,0.515138,0.014720,-0.835702,20.030886,60.064827,-142.751666
29274,NaN,-8.685173,0.683122,4.374209,-0.050873,1.011478,-0.116978,0.299996,-0.198512,-0.589044,0.186489,0.514539,0.014768,-0.836811,19.579901,60.071961,-143.478435
29275,NaN,-8.484590,0.603684,4.362235,-0.121999,0.996726,-0.306199,0.323777,-0.144294,-0.611039,0.183033,0.514187,0.014823,-0.837789,19.139827,60.110367,-144.208385
29276,NaN,-8.189749,0.413600,4.273933,-0.204427,1.074015,-0.630415,0.363904,-0.135950,-0.659839,0.179266,0.513891,0.014844,-0.838785,18.676826,60.158953,-144.990687
29277,NaN,-8.418105,0.786542,4.242461,0.049108,0.760593,-0.383978,0.398750,-0.013959,-0.676760,0.175327,0.514133,0.014870,-0.839468,18.254440,60.274435,-145.748834
29278,NaN,-7.593931,0.465463,4.461507,-0.571002,0.752234,-1.043564,0.460946,0.060894,-0.639987,0.171373,0.514733,0.014608,-0.839921,17.920300,60.421174,-146.445119
29279,NaN,-7.160084,0.593818,4.239281,-0.531496,0.527978,-1.504284,0.499785,0.342534,-0.586279,0.167522,0.516550,0.014283,-0.839589,17.742484,60.711050,-146.986294
29280,NaN,-7.637621,0.594120,4.225422,-0.361525,0.626009,-1.093884,0.534881,0.630402,-0.506676,0.163889,0.519593,0.013850,-0.838434,17.744135,61.143201,-147.342843
29281,NaN,-7.682779,0.633972,3.928540,-0.138450,0.624397,-1.184199,0.571884,0.912362,-0.412386,0.160533,0.523846,0.013244,-0.836444,17.948631,61.713386,-147.491236
29282,NaN,-8.665212,0.627862,3.706672,0.359761,0.886323,-0.415687,0.615872,1.049466,-0.395524,0.157114,0.528683,0.012523,-0.834058,18.241297,62.355056,-147.567080
29283,NaN,-9.496305,0.498460,3.530845,0.711082,1.207851,0.233693,0.657705,0.937910,-0.428276,0.153452,0.533071,0.011622,-0.831957,18.490296,62.942621,-147.719062
29284,NaN,-9.803731,0.346942,3.261515,0.952022,1.433231,0.380940,0.701923,0.645986,-0.501338,0.149376,0.536251,0.010512,-0.830669,18.579663,63.384770,-148.077196
29285,NaN,-9.764364,0.399683,3.027215,1.115896,1.371881,0.263972,0.729793,0.326444,-0.592613,0.144862,0.538110,0.009288,-0.830281,18.465180,63.670244,-148.680195
29286,NaN,-9.668654,0.487534,3.021062,1.095391,1.222150,0.194994,0.738767,0.044600,-0.686446,0.139941,0.538784,0.008080,-0.830700,18.140130,63.818121,-149.522117
29287,NaN,-9.254349,0.405742,3.448872,0.548508,1.095250,-0.004440,0.765210,-0.163529,-0.754156,0.134674,0.538597,0.006793,-0.831703,17.677224,63.862027,-150.534284
29288,NaN,-8.442660,0.376828,3.737463,-0.004463,0.866719,-0.612807,0.806427,-0.213979,-0.769877,0.129225,0.538209,0.005350,-0.832829,17.198634,63.877405,-151.589459
29289,NaN,-8.115076,0.539990,3.552013,0.088187,0.638781,-0.961306,0.860377,-0.121184,-0.732147,0.123785,0.538226,0.003634,-0.833652,16.825448,63.933834,-152.561872
29290,NaN,-8.087189,0.785103,3.670528,0.026713,0.352446,-0.903883,0.878563,0.000198,-0.691671,0.118454,0.538742,0.001815,-0.834100,16.542756,64.047815,-153.443931
29291,NaN,-8.415362,1.033225,3.746874,0.128066,0.139480,-0.545055,0.868606,0.075447,-0.662068,0.113273,0.539552,-0.000005,-0.834298,16.309791,64.196579,-154.263945
29292,NaN,-8.330721,1.197985,3.825375,0.039731,-0.073819,-0.568097,0.862889,0.115597,-0.669760,0.108067,0.540506,-0.001750,-0.834369,16.069043,64.367215,-155.087308
29293,NaN,-8.323507,1.530888,3.664829,0.221391,-0.412314,-0.602030,0.843653,0.113763,-0.713940,0.102731,0.541429,-0.003304,-0.834440,15.760794,64.542041,-155.972629
29294,NaN,-8.616156,1.781445,3.625635,0.395752,-0.641457,-0.326452,0.791051,0.037568,-0.805223,0.097147,0.541988,-0.004423,-0.834741,15.280902,64.686171,-157.012884
29295,NaN,-8.310769,1.690646,3.755687,0.131540,-0.663070,-0.562002,0.728617,-0.013924,-0.884347,0.091402,0.542288,-0.005099,-0.835191,14.650058,64.809184,-158.179861
29296,NaN,-7.854845,1.740177,3.745698,-0.043745,-0.833981,-0.977566,0.700230,0.043450,-0.955027,0.085433,0.542795,-0.005432,-0.835491,13.924529,64.968109,-159.431630
29297,NaN,-7.899459,1.772965,3.980954,-0.254815,-0.934587,-0.843064,0.649986,0.164659,-0.996468,0.079431,0.543770,-0.005398,-0.835449,13.143358,65.193167,-160.711514
29298,NaN,-7.815371,1.711304,4.155133,-0.484484,-0.957594,-0.861620,0.602671,0.295603,-1.001570,0.073534,0.545251,-0.005094,-0.835026,12.342496,65.484445,-161.980179
29299,NaN,-8.251761,1.632137,4.101049,-0.310800,-0.881781,-0.501436,0.535367,0.371265,-0.982841,0.067901,0.547006,-0.004537,-0.834358,11.522520,65.808553,-163.224787
29300,NaN,-7.730596,1.347389,4.055728,-0.546192,-0.721171,-1.025899,0.472011,0.421216,-0.950316,0.062573,0.548925,-0.003784,-0.833518,10.689847,66.149458,-164.439986
29301,NaN,-7.282104,1.590263,3.918664,-0.616415,-1.060246,-1.481460,0.431550,0.513388,-0.915377,0.057505,0.551199,-0.002934,-0.832385,9.871964,66.531865,-165.610670
29302,NaN,-7.114196,1.674228,3.899659,-0.709829,-1.213510,-1.649038,0.406412,0.634091,-0.868994,0.052696,0.553946,-0.002068,-0.830881,9.092207,66.971124,-166.720282
29303,NaN,-7.707028,1.543269,3.983119,-0.634717,-1.087195,-1.091464,0.418527,0.691444,-0.812565,0.048089,0.556918,-0.001397,-0.829173,8.372653,67.432587,-167.768681
29304,NaN,-8.291492,1.543912,3.940163,-0.442223,-1.089383,-0.578269,0.446442,0.649292,-0.740797,0.043699,0.559701,-0.001050,-0.827541,7.724120,67.858956,-168.754027
29305,NaN,-8.027553,1.580285,3.850458,-0.518785,-1.186435,-0.863514,0.478026,0.612947,-0.680450,0.039470,0.562327,-0.001013,-0.825972,7.142922,68.256697,-169.683595
29306,NaN,-8.049620,1.757837,3.700358,-0.425478,-1.395844,-0.899266,0.499913,0.660839,-0.653280,0.035290,0.565136,-0.001132,-0.824242,6.593131,68.675730,-170.590135
29307,NaN,-8.538000,1.699402,3.658460,-0.285654,-1.347320,-0.470724,0.495693,0.688906,-0.644736,0.031157,0.568047,-0.001253,-0.822405,6.029565,69.107600,-171.506332
29308,NaN,-8.757170,1.770109,3.480188,-0.110733,-1.444329,-0.334604,0.453777,0.658884,-0.660618,0.027078,0.570808,-0.001163,-0.820636,5.382248,69.519030,-172.483787
29309,NaN,-8.968545,1.682708,3.436164,-0.067064,-1.394938,-0.162680,0.404318,0.565049,-0.691865,0.023009,0.573168,-0.000792,-0.819115,4.613269,69.874882,-173.558327
29310,NaN,-8.896397,1.363139,3.289342,-0.022266,-1.127404,-0.296816,0.373582,0.470413,-0.715616,0.018932,0.575117,-0.000240,-0.817852,3.747242,70.171545,-174.715213
29311,NaN,-8.736112,1.174374,3.237304,-0.082745,-0.995988,-0.475682,0.356695,0.460529,-0.713793,0.014909,0.577018,0.000376,-0.816596,2.842829,70.457096,-175.900411
29312,NaN,-8.667216,1.060611,3.375058,-0.288245,-0.937871,-0.502831,0.354884,0.506218,-0.698375,0.010955,0.579087,0.000956,-0.815192,1.935595,70.761339,-177.085463
29313,NaN,-8.555854,0.892117,3.460082,-0.466281,-0.820386,-0.588821,0.349961,0.650719,-0.654540,0.007192,0.581736,0.001440,-0.813345,1.068175,71.142305,-178.222816
29314,NaN,-8.659513,0.605742,3.506800,-0.554808,-0.575929,-0.484691,0.376610,0.873819,-0.593120,0.003602,0.585272,0.001641,-0.810827,0.282951,71.644501,-179.286736
29315,NaN,-8.967439,0.430225,3.158236,-0.224412,-0.434390,-0.308248,0.430772,1.112547,-0.537477,0.000074,0.589761,0.001467,-0.807577,-0.429738,72.279818,179.696661
29316,NaN,-9.661420,0.334827,2.698951,0.301536,-0.373532,0.212649,0.495353,1.354174,-0.482414,-0.003421,0.595190,0.000867,-0.803577,-1.074004,73.049398,178.716753
29317,NaN,-10.674258,0.212286,2.866601,0.292561,-0.291291,1.234023,0.532707,1.355220,-0.470663,-0.006982,0.600594,0.000085,-0.799524,-1.752347,73.817131,177.683153
29318,NaN,-11.022735,0.083767,2.559123,0.544651,-0.206906,1.488452,0.561693,1.165404,-0.512380,-0.010794,0.605200,-0.000685,-0.796000,-2.563250,74.470654,176.498008
29319,NaN,-11.397928,0.173478,2.134726,0.924886,-0.353619,1.742312,0.568903,1.039145,-0.548352,-0.014773,0.609282,-0.001364,-0.792815,-3.519294,75.046507,175.161876
29320,NaN,-11.154068,0.044004,1.880050,0.995352,-0.273484,1.451548,0.579782,0.967053,-0.568010,-0.018860,0.613046,-0.002025,-0.789819,-4.587236,75.573477,173.706855
29321,NaN,-11.279626,0.085893,1.773725,1.017565,-0.373548,1.554247,0.592770,0.952202,-0.592833,-0.023088,0.616731,-0.002656,-0.786831,-5.798848,76.083830,172.099565
29322,NaN,-11.447056,0.106549,2.085277,0.650033,-0.445007,1.796497,0.571433,0.819423,-0.635088,-0.027414,0.619870,-0.003061,-0.784220,-7.185023,76.506403,170.328221
29323,NaN,-11.005046,-0.079816,2.632862,-0.059954,-0.279089,1.499570,0.519036,0.610604,-0.691554,-0.031804,0.622181,-0.003053,-0.782221,-8.762838,76.795380,168.393613
29324,NaN,-9.662766,-0.354093,2.805941,-0.577137,0.007174,0.238884,0.474212,0.541966,-0.722218,-0.036171,0.624211,-0.002768,-0.780413,-10.482829,77.029377,166.341269
29325,NaN,-8.949790,-0.409085,2.612608,-0.595954,0.036784,-0.499535,0.429976,0.581783,-0.747541,-0.040502,0.626391,-0.002233,-0.778453,-12.383635,77.268336,164.131620
29326,NaN,-8.834174,-0.638683,2.257182,-0.316416,0.199279,-0.680053,0.403174,0.664517,-0.769443,-0.044827,0.628878,-0.001547,-0.776209,-14.480148,77.532908,161.739162
29327,NaN,-8.821935,-0.810379,1.849183,0.029547,0.292334,-0.767478,0.420829,0.713546,-0.743499,-0.049110,0.631534,-0.001017,-0.773791,-16.635804,77.809270,159.278511
29328,NaN,-8.638693,-0.788328,1.386449,0.378866,0.202023,-1.038533,0.431612,0.767655,-0.711241,-0.053296,0.634373,-0.000649,-0.771188,-18.848868,78.100311,156.755281
29329,NaN,-8.637588,-0.861398,0.978349,0.714530,0.196253,-1.108815,0.462538,0.844694,-0.681334,-0.057467,0.637483,-0.000511,-0.768318,-21.162908,78.417910,154.113836
29330,NaN,-9.280299,-0.657540,0.925430,0.788655,-0.116601,-0.497301,0.499132,0.845501,-0.657327,-0.061656,0.640560,-0.000594,-0.765429,-23.523574,78.718859,151.406177
29331,NaN,-8.758192,-0.648234,0.973735,0.577579,-0.121761,-0.996491,0.527720,0.758141,-0.648245,-0.065904,0.643274,-0.000785,-0.762794,-25.867933,78.954298,148.701145
29332,NaN,-8.556244,-0.524156,0.926143,0.513023,-0.273678,-1.210176,0.548191,0.733596,-0.630384,-0.070144,0.645866,-0.001107,-0.760221,-28.218697,79.160253,145.979512
29333,NaN,-8.319442,-0.350060,1.579154,-0.246868,-0.400274,-1.350548,0.518864,0.707897,-0.594993,-0.074156,0.648353,-0.001419,-0.757718,-30.550718,79.341968,143.295986
29334,NaN,-7.499257,-0.618094,1.967190,-0.780272,-0.035471,-2.074452,0.479212,0.794882,-0.525615,-0.077771,0.651163,-0.001843,-0.754940,-32.950379,79.566341,140.568396
29335,NaN,-7.734855,-0.907162,2.065039,-0.876276,0.213997,-1.806367,0.458977,0.964295,-0.437734,-0.080987,0.654602,-0.002536,-0.751619,-35.560725,79.877098,137.640975
29336,NaN,-8.406172,-1.154644,1.858729,-0.636175,0.343305,-1.156559,0.442476,1.071033,-0.354813,-0.083830,0.658421,-0.003488,-0.747959,-38.348791,80.240524,134.545642
29337,NaN,-8.555603,-1.522990,1.405916,-0.212886,0.627239,-1.034588,0.437476,1.085900,-0.284628,-0.086395,0.662275,-0.004653,-0.744249,-41.215118,80.609253,131.377405
29338,NaN,-8.993292,-1.586788,0.739681,0.409052,0.550461,-0.676316,0.449732,1.095337,-0.201242,-0.088683,0.666130,-0.006148,-0.740519,-44.114551,80.987522,128.171791
29339,NaN,-9.002328,-1.725550,0.453314,0.623645,0.647162,-0.679419,0.451901,1.011639,-0.150306,-0.090793,0.669653,-0.007779,-0.737063,-46.913901,81.326851,125.069524
29340,NaN,-8.338824,-1.886356,0.145948,0.816779,0.843219,-1.342913,0.434403,0.904990,-0.167314,-0.092905,0.672770,-0.009244,-0.733938,-49.674570,81.594899,122.018907
29341,NaN,-8.554261,-1.956883,-0.114684,1.034251,0.842519,-1.138701,0.409765,0.849238,-0.194972,-0.095039,0.675680,-0.010495,-0.730968,-52.526744,81.807806,118.892083
29342,NaN,-8.591765,-1.952678,-0.090743,0.946570,0.828873,-1.091667,0.374808,0.849824,-0.179476,-0.096994,0.678592,-0.011674,-0.727990,-55.512365,82.005069,115.652238
29343,NaN,-8.610375,-1.889528,0.342606,0.440338,0.824146,-1.040420,0.333862,0.925120,-0.160354,-0.098736,0.681781,-0.012802,-0.724749,-58.900404,82.209017,112.031483
29344,NaN,-9.080059,-1.673702,0.318789,0.370941,0.550659,-0.598087,0.283382,1.046949,-0.117926,-0.100139,0.685415,-0.013954,-0.721099,-62.871330,82.436103,107.853582
29345,NaN,-9.852579,-1.392542,0.204731,0.368944,0.168455,0.131602,0.222356,1.147845,-0.050392,-0.101082,0.689418,-0.015165,-0.717116,-67.406732,82.680411,103.144013
29346,NaN,-10.242773,-0.992735,-0.057015,0.457901,-0.298271,0.463660,0.162572,1.199245,-0.001629,-0.101635,0.693606,-0.016356,-0.712961,-72.417044,82.909732,97.992761
29347,NaN,-10.969479,-0.552972,-0.295170,0.505853,-0.835806,1.131096,0.097864,1.231526,0.028439,-0.101851,0.697914,-0.017436,-0.708688,-77.879602,83.100302,92.425613
29348,NaN,-11.108209,-0.192209,-0.498471,0.511592,-1.213211,1.230068,0.049509,1.266479,0.069347,-0.101745,0.702340,-0.018506,-0.704290,-83.771890,83.249534,86.455562
29349,NaN,-11.385455,0.043058,-0.625927,0.454646,-1.466291,1.486147,0.035707,1.302261,0.096551,-0.101489,0.706868,-0.019639,-0.699752,-90.047006,83.339034,80.109512
29350,NaN,-11.492968,0.412376,-0.574805,0.196101,-1.795679,1.559385,0.041302,1.277377,0.129948,-0.101131,0.711273,-0.020898,-0.695289,-96.308637,83.367441,73.774568
29351,NaN,-11.139150,0.323385,-0.312385,-0.177144,-1.585606,1.220695,0.060388,1.302044,0.146419,-0.100779,0.715723,-0.022292,-0.690715,-102.671424,83.321465,67.326667
29352,NaN,-11.679397,0.513590,-0.487257,-0.202559,-1.820163,1.743855,0.145869,1.246123,0.153918,-0.100706,0.719906,-0.023982,-0.686308,-108.581943,83.209276,61.283816
29353,NaN,-11.202184,0.407446,-0.432069,-0.342268,-1.619932,1.282311,0.218221,1.105427,0.125815,-0.101007,0.723547,-0.025744,-0.682359,-113.538190,83.043797,56.158604
29354,NaN,-11.041247,0.406140,-0.535535,-0.340292,-1.593260,1.128323,0.294478,0.926032,0.059511,-0.101824,0.726527,-0.027440,-0.678998,-117.322785,82.842778,52.167973
29355,NaN,-10.716276,0.344632,-0.607654,-0.324178,-1.498756,0.816268,0.344936,0.739653,-0.018565,-0.103119,0.728843,-0.028923,-0.676252,-119.960900,82.625794,49.302074
29356,NaN,-10.595160,0.151979,-0.449584,-0.504969,-1.263626,0.705419,0.375945,0.575144,-0.079322,-0.104748,0.730587,-0.030211,-0.674061,-121.686867,82.414568,47.336900
29357,NaN,-10.192956,-0.021232,-0.297395,-0.640229,-1.027588,0.312491,0.391466,0.446489,-0.101717,-0.106534,0.731883,-0.031394,-0.672318,-122.794629,82.224628,45.985573
29358,NaN,-9.774289,-0.249465,-0.113779,-0.777048,-0.732793,-0.093067,0.363529,0.333375,-0.119877,-0.108288,0.732811,-0.032365,-0.670980,-123.437862,82.059738,45.118840
29359,NaN,-9.301211,-0.695139,0.082618,-0.866312,-0.218725,-0.528067,0.321340,0.288061,-0.109907,-0.109868,0.733604,-0.033198,-0.669815,-123.939869,81.911751,44.418730
29360,NaN,-9.487841,-0.799060,-0.159821,-0.655149,-0.187647,-0.314336,0.255201,0.319965,-0.030220,-0.110925,0.734523,-0.034128,-0.668585,-124.747176,81.791223,43.448334
29361,NaN,-9.636601,-0.988967,-0.230531,-0.592361,-0.026878,-0.140894,0.111092,0.326241,0.044161,-0.111211,0.735528,-0.034844,-0.667395,-125.795283,81.700033,42.317714
29362,NaN,-9.477183,-1.601517,0.142547,-0.844532,0.673866,-0.260998,0.012997,0.322477,0.074663,-0.111026,0.736567,-0.035351,-0.666253,-126.940195,81.622320,41.145898
29363,NaN,-9.686938,-1.989787,0.330906,-1.002900,1.086094,-0.029028,-0.009943,0.362893,0.114572,-0.110625,0.737745,-0.035942,-0.664983,-128.288456,81.543709,39.781489
29364,NaN,-10.216008,-1.812526,0.007771,-0.818154,0.816894,0.498242,-0.015804,0.416003,0.164263,-0.110019,0.739088,-0.036735,-0.663547,-129.896025,81.464069,38.158081
29365,NaN,-10.569002,-1.806092,0.021002,-0.911325,0.805713,0.840310,-0.035629,0.402977,0.161464,-0.109359,0.740399,-0.037436,-0.662155,-131.435286,81.380350,36.614823
29366,NaN,-10.729156,-1.771580,0.231747,-1.176828,0.825370,0.968811,-0.036948,0.326171,0.136130,-0.108784,0.741455,-0.038004,-0.661035,-132.672888,81.310957,35.377212
29367,NaN,-11.061301,-1.700873,0.393138,-1.416538,0.780503,1.268110,-0.047044,0.249277,0.112502,-0.108272,0.742267,-0.038401,-0.660183,-133.624790,81.257108,34.434224
29368,NaN,-10.216276,-0.032656,2.101704,-3.299231,-0.396460,0.074086,-0.183079,-0.318375,0.218331,-0.107007,0.741253,-0.038442,-0.661525,-133.385304,81.471495,34.775365
29369,NaN,-2.981927,-1.562736,1.916412,-1.911788,1.673218,-6.888295,-0.132129,-0.376775,0.271534,-0.105773,0.740009,-0.038811,-0.663093,-133.073744,81.729522,35.159599
29370,NaN,-5.786272,0.099969,1.068003,-1.731110,-0.341795,-4.198605,-0.086818,-0.200630,0.512807,-0.103866,0.739267,-0.040321,-0.664132,-133.911464,82.020108,34.356419
29371,NaN,-5.406470,-0.729515,0.185422,-0.660863,0.345165,-4.405240,-0.005103,0.325857,0.640969,-0.101734,0.740203,-0.042844,-0.663260,-136.688848,82.142763,31.548042
29372,NaN,-14.466362,-1.748196,-0.615274,-0.767401,0.593017,4.739589,0.175905,0.544810,0.594442,-0.100371,0.741766,-0.045911,-0.661514,-139.887294,82.135250,28.210326
29373,NaN,-12.029987,-0.503524,-1.288988,-0.085106,-0.522414,2.285040,0.147804,-0.056815,0.618626,-0.098967,0.741344,-0.048666,-0.662002,-141.620904,82.382277,26.368098
29374,NaN,-13.670588,-2.155630,0.484923,-1.635568,1.418784,3.864980,0.163032,-0.219736,0.312588,-0.098666,0.740438,-0.050263,-0.662941,-141.954406,82.591253,25.930302
29375,NaN,-12.032137,-1.861150,-0.068479,-0.907618,1.134320,2.275732,0.208094,-0.561311,0.329303,-0.098567,0.738374,-0.051896,-0.665128,-141.376176,82.958189,26.385765
29376,NaN,-11.746989,-1.033036,-1.143664,0.067756,0.127123,2.034076,0.311311,-0.471308,0.224188,-0.099169,0.736569,-0.053533,-0.666907,-140.561580,83.248101,27.019427
29377,NaN,-11.922790,-1.479131,-0.392136,-0.523637,0.722035,2.174750,0.330847,-0.468885,0.167543,-0.100035,0.734780,-0.055022,-0.668628,-139.461527,83.513102,27.928826
29378,NaN,-11.894858,-1.378786,-0.669177,-0.208108,0.563661,2.165423,0.359833,-0.503569,0.102652,-0.101229,0.732863,-0.056357,-0.670439,-137.882574,83.767627,29.302901
29379,NaN,-11.824500,-1.115575,-0.857210,-0.007134,0.255912,2.092443,0.371911,-0.594947,0.005448,-0.102822,0.730660,-0.057324,-0.672515,-135.445452,84.014892,31.532434
29380,NaN,-11.343739,-1.279696,-0.790941,0.082410,0.431054,1.621929,0.393174,-0.668242,-0.077061,-0.104786,0.728205,-0.058027,-0.674811,-132.171318,84.246638,34.590133
29381,NaN,-11.133155,-1.335153,-0.577946,-0.018822,0.512705,1.403373,0.427328,-0.671782,-0.122225,-0.107030,0.725730,-0.058674,-0.677065,-128.445690,84.438859,38.080754
29382,NaN,-10.450351,-1.154370,-0.830952,0.308622,0.282412,0.725690,0.441070,-0.657661,-0.149064,-0.109405,0.723283,-0.059280,-0.679248,-124.441957,84.591779,41.841781
29383,NaN,-10.175044,-1.025276,-0.777439,0.309226,0.147935,0.437639,0.397426,-0.618085,-0.218411,-0.111848,0.721012,-0.059505,-0.681242,-120.260107,84.671461,45.806144
29384,NaN,-10.281508,-1.342810,-0.425976,0.092039,0.492331,0.552775,0.387632,-0.508714,-0.237297,-0.114282,0.719106,-0.059692,-0.682835,-116.527466,84.687359,49.324628
29385,NaN,-10.039729,-1.188683,-0.490035,0.174328,0.307011,0.302866,0.390227,-0.384610,-0.213649,-0.116610,0.717616,-0.060039,-0.683977,-113.553639,84.665004,52.079600
29386,NaN,-10.391109,-0.743450,-0.549602,0.136493,-0.198815,0.616674,0.319836,-0.349810,-0.235044,-0.118744,0.716278,-0.060092,-0.685006,-110.792667,84.612216,54.661388
29387,NaN,-10.440393,-0.830348,-0.363727,0.008468,-0.110986,0.666385,0.198483,-0.401364,-0.288495,-0.120645,0.714855,-0.059504,-0.686211,-107.775638,84.527010,57.570593
29388,NaN,-10.108676,-0.715919,-0.247788,-0.080233,-0.208434,0.321864,0.086750,-0.438950,-0.326325,-0.122283,0.713368,-0.058378,-0.687564,-104.639881,84.413453,60.663798
29389,NaN,-9.630740,-0.740321,-0.277576,0.010294,-0.196500,-0.151563,-0.021726,-0.419818,-0.354675,-0.123628,0.712024,-0.056785,-0.688849,-101.782816,84.265084,63.540179
29390,NaN,-9.459913,-1.041258,0.064791,-0.212403,0.152930,-0.299029,-0.077209,-0.313822,-0.355656,-0.124745,0.711066,-0.055066,-0.689776,-99.676159,84.093764,65.694929
29391,NaN,-9.650864,-1.189985,0.205472,-0.303481,0.274764,-0.095191,-0.083565,-0.225543,-0.323978,-0.125708,0.710413,-0.053489,-0.690398,-98.200195,83.924781,67.219947
29392,NaN,-9.748585,-1.181559,0.175744,-0.269372,0.213934,0.002782,-0.078479,-0.195434,-0.301926,-0.126602,0.709843,-0.052031,-0.690932,-96.962962,83.763283,68.502274
29393,NaN,-9.512864,-1.264213,0.227757,-0.279456,0.297106,-0.222159,-0.066003,-0.194977,-0.283843,-0.127480,0.709269,-0.050676,-0.691461,-95.805117,83.608288,69.698037
29394,NaN,-9.752700,-0.840161,0.577847,-0.720216,-0.081987,-0.033660,-0.073998,-0.235477,-0.300522,-0.128394,0.708552,-0.049212,-0.692132,-94.488883,83.443923,71.058061
29395,NaN,-7.975233,-0.425373,0.234810,-0.395184,-0.410095,-1.843007,-0.072721,-0.654971,-0.263940,-0.129292,0.706377,-0.047609,-0.694298,-91.213668,83.305569,74.390027
29396,NaN,-7.961204,-1.388334,-0.831526,0.895794,0.222365,-1.741273,-0.045260,-0.020998,-0.324670,-0.130342,0.706384,-0.046300,-0.694182,-91.073079,83.114670,74.550376
29397,NaN,-10.997281,-1.617364,0.364163,-0.294260,0.361762,1.299068,-0.039634,-0.264127,-0.181824,-0.130975,0.705518,-0.045352,-0.695006,-89.823911,83.005669,75.824434
29398,NaN,-9.083900,-1.209769,-0.324839,0.361378,-0.008347,-0.649970,0.021053,-0.518749,-0.290840,-0.132255,0.703740,-0.044068,-0.696647,-87.421863,82.826550,78.225436
29399,NaN,-8.479101,-1.338492,-0.161354,0.291941,0.190833,-1.234178,0.073645,-0.603306,-0.305725,-0.133792,0.701636,-0.042854,-0.698548,-84.754287,82.622031,80.864906
29400,NaN,-8.365131,-1.340208,-0.062674,0.238473,0.195384,-1.346267,0.184595,-0.457913,-0.262941,-0.135534,0.699942,-0.042278,-0.699946,-82.758468,82.438113,82.763756
29401,NaN,-8.593226,-0.936665,-0.280961,0.378966,-0.306730,-1.177761,0.267117,-0.416447,-0.210375,-0.137374,0.698328,-0.042199,-0.701203,-80.958402,82.278779,84.418313
29402,NaN,-8.700453,-0.658072,-0.597905,0.648218,-0.696655,-1.118854,0.313334,-0.448919,-0.194990,-0.139324,0.696552,-0.042317,-0.702576,-79.049601,82.118350,86.156350
29403,NaN,-8.197461,-0.435081,-0.720331,0.748738,-0.901108,-1.655864,0.303330,-0.464404,-0.194915,-0.141244,0.694730,-0.042385,-0.703991,-77.169186,81.947975,87.872376
29404,NaN,-8.371814,-0.464663,-0.687527,0.754869,-0.916371,-1.484051,0.292559,-0.392963,-0.196235,-0.143111,0.693155,-0.042466,-0.705161,-75.637681,81.780008,89.242727
29405,NaN,-8.421266,-0.350356,-0.601988,0.666455,-1.035026,-1.452822,0.267520,-0.280423,-0.161492,-0.144748,0.691990,-0.042654,-0.705959,-74.573685,81.643021,90.155830
29406,NaN,-8.690935,-0.205759,-0.704963,0.744303,-1.258744,-1.214246,0.221516,-0.189581,-0.133365,-0.146102,0.691164,-0.042848,-0.706477,-73.865011,81.534287,90.736512
29407,NaN,-9.266669,-0.204561,-0.490683,0.550423,-1.305383,-0.639533,0.138001,-0.155333,-0.120827,-0.147120,0.690522,-0.042810,-0.706896,-73.339202,81.436481,91.181000
29408,NaN,-9.319932,-0.379763,0.013675,0.123853,-1.030394,-0.542928,0.068748,-0.187543,-0.139292,-0.147965,0.689815,-0.042446,-0.707432,-72.761452,81.323303,91.718110
29409,NaN,-9.298093,-0.194941,-0.108401,0.206463,-1.255503,-0.599365,-0.009427,-0.221852,-0.175560,-0.148681,0.689056,-0.041648,-0.708069,-72.169859,81.182826,92.314893
29410,NaN,-9.410939,-0.417354,-0.026514,0.202660,-1.062824,-0.454807,-0.086356,-0.213324,-0.210518,-0.149248,0.688385,-0.040472,-0.708670,-71.703140,81.024875,92.829961
29411,NaN,-9.114904,-0.541364,0.063514,0.155862,-0.898267,-0.727129,-0.160181,-0.115295,-0.202488,-0.149518,0.688118,-0.039127,-0.708948,-71.624597,80.887705,92.995184
29412,NaN,-9.214506,-0.597217,0.035719,0.196189,-0.886507,-0.623528,-0.245829,0.037043,-0.179973,-0.149377,0.688445,-0.037678,-0.708739,-72.077293,80.791074,92.671882
29413,NaN,-9.208069,-0.911438,0.243937,0.060345,-0.543448,-0.572573,-0.331154,0.230513,-0.125612,-0.148719,0.689513,-0.036250,-0.707913,-73.168959,80.755567,91.750887
29414,NaN,-9.564326,-1.214630,0.501081,-0.140691,-0.248117,-0.162753,-0.378467,0.372501,-0.067100,-0.147658,0.691100,-0.034970,-0.706651,-74.699108,80.772552,90.412913
29415,NaN,-9.756631,-1.560238,0.740426,-0.327407,0.115923,0.089513,-0.403774,0.435443,-0.014391,-0.146317,0.692918,-0.033820,-0.705203,-76.426042,80.820511,88.890578
29416,NaN,-9.743566,-1.668546,0.842014,-0.445211,0.256387,0.095187,-0.402496,0.423369,0.029936,-0.144819,0.694675,-0.032828,-0.703830,-78.087102,80.885678,87.434296
29417,NaN,-12.688237,1.267065,4.016555,-4.275260,-2.241022,2.654440,-0.660261,-0.302127,0.061025,-0.142440,0.694057,-0.030503,-0.705028,-77.355452,80.876776,88.551212
29418,NaN,7.753875,-3.833795,5.261145,-4.170195,6.143729,-16.694823,-0.678696,-0.281153,0.299483,-0.139144,0.693474,-0.028964,-0.706324,-76.499429,81.002527,89.804365
29419,NaN,-15.778375,0.122627,-0.396876,0.313992,-2.646639,5.744486,-0.249741,0.518254,0.285857,-0.137274,0.695415,-0.029439,-0.704760,-78.256957,81.221005,88.163074
29420,NaN,-8.144061,-0.448479,-1.937943,1.937046,-1.237375,-1.750493,-0.386365,0.418135,0.438384,-0.134397,0.697059,-0.029902,-0.703671,-79.689470,81.508234,86.930584
29421,NaN,-12.910603,-4.774606,3.364614,-2.298522,3.473948,3.731661,-0.344178,0.288346,0.164993,-0.132655,0.698260,-0.029465,-0.702828,-80.865288,81.623088,85.934038
29422,NaN,-10.040888,-3.224015,0.241216,0.415731,1.706637,0.588577,-0.173761,-0.421638,0.205074,-0.131464,0.696836,-0.029303,-0.704471,-79.181217,81.691687,87.729290
29423,NaN,-10.876463,-2.421171,-0.420060,0.910059,0.669106,1.280553,-0.117957,-0.308114,0.066464,-0.130945,0.695800,-0.028922,-0.705606,-78.001768,81.687852,88.982329
29424,NaN,-8.095398,-3.169657,0.227943,0.478243,1.940406,-1.348632,-0.073381,-0.191261,0.133561,-0.130322,0.695127,-0.029014,-0.706380,-77.176215,81.733500,89.851651
29425,NaN,-9.978689,-2.809018,-0.519622,1.135363,1.166624,0.438397,0.002525,-0.008312,0.159718,-0.129849,0.695056,-0.029578,-0.706514,-76.991535,81.815375,90.029563
29426,NaN,-9.028884,-2.257793,-1.116531,1.599795,0.651423,-0.599583,-0.035831,-0.056582,0.165323,-0.129226,0.694829,-0.030000,-0.706833,-76.621509,81.894421,90.416690
29427,NaN,-8.723633,-1.983283,-1.451202,1.870302,0.367782,-0.952221,-0.109169,-0.040959,0.133147,-0.128464,0.694718,-0.030055,-0.707079,-76.388491,81.956866,90.707995
29428,NaN,-8.913742,-1.739967,-1.574991,1.935320,0.094055,-0.801110,-0.181178,0.105280,0.160932,-0.127328,0.695158,-0.030051,-0.706852,-76.740247,82.054707,90.450243
29429,NaN,-9.106107,-1.440737,-1.464039,1.745367,-0.173400,-0.644055,-0.240597,0.286004,0.235272,-0.125697,0.696268,-0.030206,-0.706044,-77.810451,82.216043,89.501821
29430,NaN,-9.922450,-1.005830,-1.638466,1.789710,-0.708507,0.109308,-0.289784,0.414954,0.269252,-0.123753,0.697850,-0.030390,-0.704817,-79.460755,82.408341,87.996767
29431,NaN,-10.744938,-0.801736,-1.628438,1.692017,-0.972263,0.908308,-0.343376,0.461450,0.264709,-0.121633,0.699628,-0.030394,-0.703422,-81.434629,82.595578,86.197099
29432,NaN,-11.246290,-0.773964,-1.133591,1.153543,-0.917568,1.420753,-0.359870,0.455622,0.234081,-0.119558,0.701391,-0.030234,-0.702028,-83.498862,82.757163,84.316491
29433,NaN,-11.262511,-0.835422,-0.761291,0.756496,-0.746027,1.456409,-0.333378,0.433934,0.189849,-0.117738,0.703065,-0.029994,-0.700670,-85.555860,82.883013,82.428554
29434,NaN,-11.683725,-0.760960,-0.686647,0.617088,-0.826344,1.870468,-0.258538,0.389114,0.120842,-0.116424,0.704541,-0.029751,-0.699415,-87.440829,82.960329,80.671116
29435,NaN,-11.953530,-0.755545,-0.398968,0.290107,-0.787455,2.141916,-0.189051,0.298072,0.040769,-0.115652,0.705670,-0.029412,-0.698419,-88.907944,82.983047,79.294828
29436,NaN,-11.392233,-0.803777,-0.038576,-0.070920,-0.594564,1.592221,-0.105868,0.223034,-0.052292,-0.115505,0.706500,-0.028996,-0.697622,-89.983670,82.949088,78.264811
29437,NaN,-11.022384,-0.718232,0.074458,-0.215928,-0.616360,1.213997,-0.036591,0.211710,-0.130656,-0.115882,0.707261,-0.028534,-0.696806,-90.953110,82.867232,77.301818
29438,NaN,-11.288993,-0.817402,0.140290,-0.293978,-0.551258,1.489472,-0.010429,0.210929,-0.164419,-0.116464,0.708007,-0.028049,-0.695971,-91.875173,82.764984,76.371230
29439,NaN,-11.352459,-0.973126,0.462172,-0.602677,-0.358348,1.569194,-0.033167,0.135290,-0.177709,-0.117027,0.708505,-0.027387,-0.695396,-92.447087,82.654364,75.806604
29440,NaN,-10.978503,-1.319144,0.765036,-0.830601,0.066733,1.239849,-0.076793,0.016843,-0.178897,-0.117450,0.708614,-0.026507,-0.695247,-92.506661,82.546563,75.783636
29441,NaN,-10.343992,-1.692750,0.935908,-0.906917,0.523518,0.658363,-0.107052,-0.035163,-0.175607,-0.117767,0.708561,-0.025496,-0.695285,-92.360479,82.440955,75.985735
29442,NaN,-10.761340,-1.910533,1.093786,-1.031789,0.693811,1.100926,-0.113848,-0.057625,-0.152874,-0.117979,0.708428,-0.024535,-0.695420,-92.128047,82.349717,76.278760
29443,NaN,-11.014644,0.022159,6.623285,-6.765509,-0.152317,1.113996,-0.418955,-1.465245,-0.066646,-0.116984,0.703551,-0.021981,-0.700605,-86.123968,82.292600,82.572057
29444,NaN,7.328775,-2.762931,3.844442,-3.155009,4.406847,-16.650019,-0.354668,-1.196629,0.098573,-0.115596,0.699519,-0.020396,-0.704908,-81.229662,82.267894,87.708772
29445,NaN,-10.299415,0.776737,-2.111481,1.867195,-2.518413,0.252629,0.002043,0.109547,0.459930,-0.114052,0.699838,-0.022081,-0.704791,-81.381676,82.531661,87.547016
29446,NaN,-5.013134,-0.188209,-1.912227,1.857056,-0.807882,-4.840596,-0.165281,1.286187,0.756577,-0.110739,0.704339,-0.024889,-0.700731,-86.892562,83.033310,82.080341
29447,NaN,-18.357116,-4.165233,4.477332,-4.023629,2.784478,8.907080,-0.260961,1.323925,0.601841,-0.107625,0.709012,-0.026832,-0.696419,-93.394081,83.370751,75.676291
29448,NaN,-15.063775,-2.134129,1.891544,-1.847644,0.778013,5.386985,-0.184396,-0.469136,0.406666,-0.105695,0.707396,-0.027388,-0.698334,-91.192746,83.609226,77.990916
29449,NaN,-11.389834,-0.923386,0.499077,-0.518085,-0.257757,1.610700,-0.225052,-1.160864,0.003685,-0.105125,0.703432,-0.026006,-0.702464,-85.372785,83.585305,83.969898
29450,NaN,-10.171229,-1.758272,1.033608,-0.771005,0.769709,0.503625,-0.139432,-0.823668,0.013636,-0.104770,0.700580,-0.025140,-0.705392,-81.262592,83.532496,88.179226
29451,NaN,-11.040656,-1.610605,0.759816,-0.465912,0.470915,1.351022,-0.043715,-0.457921,0.129419,-0.104299,0.698954,-0.025205,-0.707071,-78.877668,83.554068,90.597380
29452,NaN,-11.577685,-1.094041,0.119362,0.126169,-0.207910,1.814631,-0.048731,-0.506097,0.114225,-0.103867,0.697148,-0.025178,-0.708916,-76.250517,83.549612,93.261992
29453,NaN,-11.225473,-1.261212,0.092025,0.245541,-0.011465,1.481096,-0.081562,-0.614148,0.085704,-0.103437,0.694983,-0.024874,-0.711112,-73.184586,83.497947,96.387437
29454,NaN,-10.589400,-1.374322,-0.141812,0.552972,0.127057,0.851366,-0.097735,-0.570788,0.114766,-0.102838,0.692962,-0.024640,-0.713176,-70.325977,83.451915,99.313680
29455,NaN,-10.189729,-1.274611,-0.455967,0.888746,0.023681,0.428041,-0.086930,-0.415252,0.170762,-0.102060,0.691487,-0.024715,-0.714716,-68.132405,83.452775,101.564587
29456,NaN,-10.617403,-1.083509,-0.683713,1.127765,-0.238708,0.819422,-0.086921,-0.304044,0.202980,-0.101150,0.690394,-0.024961,-0.715892,-66.372216,83.486515,103.379046
29457,NaN,-10.830193,-1.188299,-0.446230,0.954956,-0.103799,1.049237,-0.098909,-0.330243,0.184600,-0.100269,0.689222,-0.025084,-0.717140,-64.535645,83.497922,105.277366
29458,NaN,-10.690725,-1.236050,-0.157387,0.717281,0.018443,0.926455,-0.079872,-0.416667,0.144546,-0.099606,0.687725,-0.025097,-0.718668,-62.380404,83.459192,107.485364
29459,NaN,-10.524041,-1.083973,-0.353161,0.925853,-0.141711,0.731394,-0.030383,-0.480432,0.113632,-0.099235,0.685982,-0.025147,-0.720381,-60.039728,83.377550,109.851889
29460,NaN,-10.325241,-1.292424,-0.230454,0.887062,0.105614,0.557259,0.037864,-0.502666,0.086505,-0.099194,0.684116,-0.025341,-0.722152,-57.690091,83.264953,112.188398
29461,NaN,-10.146997,-1.467901,0.125879,0.614999,0.355923,0.416045,0.174031,-0.525278,0.074341,-0.099668,0.682105,-0.025971,-0.723964,-55.298139,83.128322,114.489685
29462,NaN,-9.843005,-1.261123,-0.323421,1.060450,0.105223,0.058680,0.317366,-0.520396,0.079533,-0.100608,0.680028,-0.027143,-0.725743,-52.914691,82.984396,116.700228
29463,NaN,-9.951570,-0.703431,-0.839443,1.526304,-0.548375,0.066717,0.413501,-0.529065,0.074668,-0.101895,0.677870,-0.028639,-0.727523,-50.564455,82.824444,118.822643
29464,NaN,-10.022273,-0.726944,-0.351785,1.115435,-0.453371,0.169701,0.451387,-0.590685,0.046003,-0.103420,0.675459,-0.030147,-0.729486,-48.166311,82.618230,120.972209
29465,NaN,-9.906579,-0.859308,0.139710,0.718071,-0.230109,0.103423,0.489720,-0.672280,0.050167,-0.105072,0.672724,-0.031763,-0.731706,-45.616511,82.370347,123.253807
29466,NaN,-9.629009,-0.819930,0.231803,0.671909,-0.227385,-0.172136,0.545438,-0.703592,0.089196,-0.106769,0.669822,-0.033701,-0.734032,-42.978375,82.111963,125.593572
29467,NaN,-9.538939,-0.622343,0.331833,0.599162,-0.393053,-0.274612,0.580128,-0.689360,0.144494,-0.108378,0.666935,-0.035955,-0.736315,-40.357084,81.866597,127.897796
29468,NaN,-9.278731,-0.579983,0.571064,0.405117,-0.354477,-0.513915,0.571345,-0.679856,0.196230,-0.109760,0.664061,-0.038357,-0.738583,-37.747347,81.629719,130.196697
29469,NaN,-10.305145,0.126428,1.213115,-0.192840,-1.018865,0.512412,0.492540,-0.846857,0.217792,-0.110833,0.660597,-0.040443,-0.741413,-34.897071,81.307644,132.786250
29470,NaN,-5.747537,0.672751,3.521104,-2.933504,-0.557619,-3.732567,0.222635,-1.250164,0.469502,-0.110155,0.655709,-0.042139,-0.745745,-30.866532,80.847125,136.729591
29471,NaN,-1.816331,-0.635773,3.429554,-2.961862,1.134534,-7.487773,0.122422,-0.807212,0.497273,-0.108952,0.652504,-0.043792,-0.748633,-27.909588,80.579397,139.647461
29472,NaN,-7.137880,0.899780,2.049085,-1.274921,-1.184023,-2.537379,0.132404,-0.275390,0.658773,-0.107055,0.651230,-0.046301,-0.749863,-25.384884,80.602961,142.122268
29473,NaN,-6.845551,0.499399,2.113519,-1.266346,-0.704695,-2.778666,0.002922,0.032685,0.774516,-0.104233,0.651152,-0.048862,-0.750166,-22.979669,80.797814,144.550561
29474,NaN,-8.959373,0.445315,1.677066,-0.546629,-0.878858,-0.745736,-0.016890,0.061677,0.793733,-0.101261,0.651170,-0.051431,-0.750385,-20.450339,80.994516,147.114515
29475,NaN,-9.937406,0.676457,1.143196,0.061552,-1.229476,0.137221,-0.035456,-0.006799,0.735382,-0.098469,0.650954,-0.053700,-0.750785,-17.958218,81.125836,149.650597
29476,NaN,-11.210126,0.131352,1.302590,0.211835,-0.695063,1.450194,-0.059798,0.008624,0.638682,-0.095950,0.650820,-0.055575,-0.751092,-15.763312,81.232664,151.899003
29477,NaN,-11.891599,0.260711,1.101865,0.494891,-0.845718,2.092420,-0.130195,-0.170334,0.615438,-0.093343,0.650054,-0.057018,-0.751975,-13.494543,81.224079,154.262858
29478,NaN,-10.701130,-0.150972,0.921379,0.623752,-0.344726,0.905416,-0.199466,-0.108850,0.535619,-0.090786,0.649561,-0.057976,-0.752640,-11.600469,81.226212,156.287560
29479,NaN,-11.190070,-0.057730,0.662120,0.937880,-0.464667,1.348118,-0.257725,0.051666,0.542992,-0.087972,0.649698,-0.058805,-0.752792,-9.822781,81.310301,158.228251
29480,NaN,-11.421859,-0.278314,0.511439,1.163769,-0.235699,1.562185,-0.282697,0.131662,0.490773,-0.085242,0.650152,-0.059411,-0.752667,-8.255535,81.425712,159.969850
29481,NaN,-11.596742,-0.692441,0.665227,1.120980,0.241801,1.767088,-0.302965,0.085237,0.405160,-0.082788,0.650465,-0.059635,-0.752652,-6.970231,81.502351,161.437848
29482,NaN,-11.533732,-0.782742,0.487694,1.304740,0.337205,1.679107,-0.283369,-0.020296,0.308972,-0.080785,0.650394,-0.059584,-0.752935,-5.970027,81.507809,162.605894
29483,NaN,-11.390845,-0.743359,0.290306,1.481755,0.292813,1.505740,-0.258340,-0.155122,0.225932,-0.079222,0.649833,-0.059295,-0.753608,-5.233021,81.429663,163.493589
29484,NaN,-10.579879,-1.028010,0.438961,1.300618,0.649323,0.726290,-0.200352,-0.239486,0.144102,-0.078174,0.648949,-0.058931,-0.754507,-4.752235,81.297501,164.088596
29485,NaN,-10.218219,-0.672769,1.435135,0.237824,0.509400,0.512434,-0.215201,-0.248925,0.079722,-0.077330,0.648057,-0.058292,-0.755410,-4.536491,81.156816,164.424418
29486,NaN,-9.989352,-1.349751,1.894650,-0.085168,1.267819,0.364935,-0.169776,-0.293638,0.062079,-0.076707,0.646978,-0.057756,-0.756439,-4.349431,80.989306,164.704845
29487,NaN,-9.581410,-0.639753,1.372154,0.249636,0.489303,-0.127971,-0.134416,-0.228679,0.085671,-0.076095,0.646126,-0.057449,-0.757252,-4.089245,80.860064,165.039079
29488,NaN,-10.664597,-0.319435,2.216378,-0.440003,0.286524,1.071809,-0.191372,-0.229201,0.070680,-0.075352,0.645294,-0.056882,-0.758078,-3.917353,80.729380,165.316911
29489,NaN,-10.282279,-0.423761,2.532773,-0.751242,0.460150,0.748728,-0.204028,-0.442931,0.116960,-0.074457,0.643643,-0.056332,-0.759610,-3.558619,80.478371,165.791764
29490,NaN,-9.320921,-0.370480,1.970938,-0.324677,0.345021,-0.290251,-0.147900,-0.463749,0.157820,-0.073589,0.641873,-0.056122,-0.761205,-3.045835,80.215775,166.390482
29491,NaN,-10.231475,-0.216725,1.566580,0.233607,0.091987,0.537241,-0.095019,-0.393282,0.212690,-0.072666,0.640337,-0.056311,-0.762573,-2.368274,79.994415,167.126278
29492,NaN,-10.972376,-0.509715,1.556110,0.472094,0.363945,1.265161,-0.058288,-0.458516,0.260543,-0.071692,0.638517,-0.056773,-0.764155,-1.539242,79.734517,167.994982
29493,NaN,-10.922940,-0.828731,1.457997,0.677595,0.676935,1.196645,-0.054750,-0.585322,0.244310,-0.070831,0.636215,-0.057147,-0.766125,-0.798689,79.400202,168.772605
29494,NaN,-10.778816,-0.508652,1.219555,0.898070,0.334452,1.004429,-0.077311,-0.720817,0.206240,-0.070078,0.633401,-0.057268,-0.768513,-0.225772,78.986047,169.393560
29495,NaN,-9.562907,-0.158685,1.294008,0.612742,0.048939,-0.180943,-0.102865,-0.772473,0.163233,-0.069426,0.630404,-0.057132,-0.771042,0.164134,78.541751,169.843880
29496,NaN,-9.336467,-0.159589,1.917511,0.043192,0.163559,-0.281537,-0.129600,-0.794056,0.102226,-0.068928,0.627338,-0.056696,-0.773616,0.343941,78.084478,170.095899
29497,NaN,-9.055901,-0.225431,2.563325,-0.548656,0.341440,-0.420525,-0.167030,-0.808113,0.077406,-0.068414,0.624229,-0.056028,-0.776221,0.419087,77.619471,170.263343
29498,NaN,-9.043371,-0.232847,2.880707,-0.779143,0.391403,-0.358880,-0.217305,-0.828044,0.074623,-0.067755,0.621047,-0.055151,-0.778889,0.451951,77.142649,170.417163
29499,NaN,-8.589772,-0.347752,3.014173,-0.913283,0.530901,-0.764263,-0.256581,-0.794664,0.094023,-0.066891,0.617995,-0.054189,-0.781455,0.501587,76.685212,170.611710
29500,NaN,-8.028634,-0.454870,3.299969,-1.235424,0.695578,-1.236829,-0.258791,-0.617678,0.134043,-0.065813,0.615611,-0.053404,-0.783479,0.642571,76.328377,170.901717
29501,NaN,-8.317301,-0.461629,3.412564,-1.231377,0.707701,-0.923426,-0.218917,-0.394728,0.194976,-0.064561,0.614070,-0.053032,-0.784817,0.942163,76.099027,171.331983
29502,NaN,-8.525618,-0.177142,3.549816,-1.332024,0.449605,-0.683490,-0.203278,-0.213764,0.279648,-0.062975,0.613203,-0.053042,-0.785622,1.443967,75.970946,171.961630
29503,NaN,-8.600488,0.315142,3.361796,-1.200848,-0.051549,-0.651647,-0.296098,-0.013359,0.380606,-0.060656,0.613128,-0.053057,-0.785862,2.128052,75.954941,172.834272
29504,NaN,-10.058163,0.516363,3.374573,-0.892666,-0.260089,0.768256,-0.391082,0.120751,0.549968,-0.057342,0.613553,-0.053261,-0.785766,3.161663,76.007203,174.123115
29505,NaN,-10.467285,-0.066537,3.299885,-0.639458,0.345447,1.138530,-0.418609,0.187295,0.690585,-0.053375,0.614207,-0.053804,-0.785497,4.522259,76.086431,175.764842
29506,NaN,-10.442466,0.533833,3.281543,-0.728055,-0.178386,1.120570,-0.414742,0.230517,0.915402,-0.048522,0.614950,-0.055065,-0.785143,6.433037,76.165732,177.970370
29507,NaN,-10.960413,0.211524,3.783465,-1.046060,0.307434,1.732882,-0.313753,0.175229,1.126586,-0.043166,0.615381,-0.057355,-0.784954,8.888884,76.178260,-179.322741
29508,NaN,-8.985079,0.369730,3.821030,-1.581073,0.262276,-0.174275,-0.221087,0.259686,1.311849,-0.037340,0.616039,-0.060596,-0.784493,11.860346,76.187542,-176.139725
29509,NaN,-8.161791,0.837958,3.312753,-1.369091,-0.171666,-1.072766,-0.089726,0.552948,1.427676,-0.031375,0.617763,-0.064759,-0.783065,15.343462,76.302875,-172.508277
29510,NaN,-6.779155,2.104113,3.428150,-2.004322,-1.342485,-2.308296,-0.207299,0.902820,1.475414,-0.024744,0.620811,-0.068661,-0.780556,19.185457,76.544949,-168.441103
29511,NaN,-6.415514,1.652670,4.087836,-2.726271,-0.728708,-2.557628,-0.343350,1.303285,1.445511,-0.017669,0.625404,-0.071982,-0.776773,23.396886,76.940839,-163.919750
29512,NaN,-8.615540,1.902731,3.496658,-1.789502,-0.819596,-0.528362,-0.396893,1.324221,1.295874,-0.010995,0.630068,-0.074624,-0.772868,27.509208,77.306509,-159.475490
29513,NaN,-10.129099,2.232073,2.429443,-0.568088,-1.055266,0.772442,-0.316452,1.046128,1.092152,-0.005468,0.633693,-0.076912,-0.769732,31.066654,77.524699,-155.652098
29514,NaN,-10.370859,2.450063,1.891261,-0.091536,-1.210742,0.941799,-0.241253,0.759303,0.913470,-0.000973,0.636240,-0.078915,-0.767444,33.969861,77.610247,-152.544901
29515,NaN,-10.114644,2.626697,1.712056,-0.032723,-1.342846,0.691202,-0.215282,0.542795,0.787142,0.002865,0.637998,-0.080609,-0.765802,36.320252,77.606968,-150.019501
29516,NaN,-9.594302,2.767730,1.200890,0.322841,-1.525961,0.123100,-0.200844,0.454431,0.656151,0.006125,0.639447,-0.081944,-0.764431,38.261610,77.586814,-147.921173
29517,NaN,-9.372471,2.927367,1.053981,0.384490,-1.670235,-0.087163,-0.231911,0.394134,0.490745,0.008822,0.640735,-0.082629,-0.763252,39.748204,77.587760,-146.270269
29518,NaN,-9.598563,2.564273,0.899634,0.588497,-1.262365,0.065431,-0.318678,0.328347,0.361986,0.011285,0.641804,-0.082577,-0.762326,40.817807,77.597916,-144.995404
29519,NaN,-8.962605,2.273500,0.869969,0.514067,-1.031022,-0.597124,-0.430612,0.310654,0.236379,0.013614,0.642857,-0.081690,-0.761496,41.550840,77.645340,-143.999653
29520,NaN,-8.703925,2.444689,0.832148,0.482392,-1.220897,-0.829148,-0.612629,0.232584,0.199008,0.016361,0.643599,-0.080001,-0.760994,41.974861,77.669674,-143.213580
29521,NaN,-6.963727,2.048983,1.059356,-0.011776,-1.021918,-2.548419,-0.720588,0.285772,0.175269,0.019380,0.644546,-0.077814,-0.760348,42.388733,77.726322,-142.374730
29522,NaN,-7.410129,2.156534,1.650597,-0.540010,-1.008724,-2.003979,-0.825729,0.574661,0.273379,0.023229,0.646520,-0.075520,-0.758795,43.463498,77.861697,-140.798372
29523,NaN,-7.633618,1.594138,1.610276,-0.460534,-0.413296,-1.873964,-0.895126,0.706050,0.425534,0.027922,0.648916,-0.073430,-0.756794,45.067754,77.984183,-138.640650
29524,NaN,-6.439097,1.407066,1.628627,-0.693739,-0.370602,-3.069139,-0.913465,0.805484,0.550825,0.033192,0.651603,-0.071667,-0.754437,47.126225,78.078009,-136.008726
29525,NaN,-6.617694,1.231925,1.574722,-0.649031,-0.150054,-2.931754,-0.907458,0.889990,0.638582,0.038794,0.654559,-0.070189,-0.751745,49.553685,78.146970,-133.004068
29526,NaN,-5.578885,1.499064,0.959920,-0.240847,-0.572978,-3.989799,-0.829590,1.049973,0.684582,0.044376,0.658070,-0.069126,-0.748463,52.474362,78.222181,-129.541826
29527,NaN,-5.914654,1.677715,0.930142,-0.228006,-0.664843,-3.634617,-0.769046,1.367319,0.669431,0.049801,0.662756,-0.068158,-0.744062,56.170041,78.371494,-125.325080
29528,NaN,-7.367283,1.739091,0.872125,-0.086063,-0.449406,-2.206669,-0.667731,1.545447,0.651723,0.054890,0.668075,-0.067465,-0.738994,60.414897,78.521555,-120.609216
29529,NaN,-8.758290,2.293648,0.312860,0.495440,-0.722811,-0.796205,-0.586012,1.546359,0.614839,0.059557,0.673390,-0.066939,-0.733838,64.759261,78.621372,-115.841818
29530,NaN,-8.880906,2.518423,-0.301665,1.000929,-0.878443,-0.673263,-0.543516,1.452764,0.560845,0.063857,0.678333,-0.066417,-0.728955,68.869395,78.656684,-111.339109
29531,NaN,-9.240054,2.511213,-0.476281,1.087547,-0.756920,-0.317706,-0.521237,1.374782,0.449428,0.067636,0.683005,-0.065612,-0.724310,72.694980,78.677929,-107.140227
