// General information: 
//  MT Manager version: 2019.0.1 
//  XDA version: 2019.0.1 build 2740 rev 84096 built on 2019-01-30
// Device information: 
//  DeviceId: 00B43876
//  ProductCode: MTW2-3A7G6
//  Firmware Version: 4.3.4
//  Hardware Version: 1.1.0
// Device settings: 
//  Filter Profile: human(46.1)
//  Option Flags: Orientation Smoother Disabled, AHS Disabled, ICC Disabled
// Coordinate system: ENU
PacketCounter,SampleTimeFine,Acc_X,Acc_Y,Acc_Z,FreeAcc_E,FreeAcc_N,FreeAcc_U,Gyr_X,Gyr_Y,Gyr_Z,Quat_q0,Quat_q1,Quat_q2,Quat_q3,Roll,Pitch,Yaw
15579,NaN,3.500616,8.847485,2.298816,0.095261,-0.163721,-0.025912,0.031071,0.014886,-0.041856,0.781089,0.590954,-0.199681,0.028307,76.328933,-20.205802,-11.792040
15580,NaN,3.540979,8.912096,2.346297,0.104572,-0.199700,0.057382,0.023027,0.019825,-0.059075,0.781041,0.591092,-0.199479,0.028179,76.341903,-20.176617,-11.791016
15581,NaN,3.413825,8.879036,2.478056,-0.034560,-0.310533,0.012516,-0.001225,0.031318,-0.055299,0.781067,0.591146,-0.199232,0.028060,76.340437,-20.145331,-11.783248
15582,NaN,3.408062,9.043775,2.392931,-0.058412,-0.183474,0.141899,0.058724,0.034994,-0.040362,0.780926,0.591402,-0.199021,0.028085,76.369788,-20.124504,-11.770520
15583,NaN,3.215350,8.256380,1.462678,0.251056,0.477440,-0.848609,0.154025,0.100424,-0.180045,0.780578,0.592177,-0.198114,0.027839,76.449350,-20.014450,-11.739624
15584,NaN,1.511770,0.938259,-1.893910,1.649991,1.757374,-8.842236,2.054627,0.276486,-1.051113,0.774854,0.601151,-0.193676,0.026609,77.620595,-19.398351,-11.721463
15585,NaN,4.940895,8.789820,2.905924,1.356039,-1.351390,0.504760,2.172599,0.226503,0.139928,0.768462,0.609375,-0.192958,0.029939,78.817722,-19.453988,-11.572348
15586,NaN,4.490186,11.030938,2.703518,0.320582,-0.719190,2.374474,2.270633,0.052037,-0.013910,0.761537,0.618058,-0.192418,0.032255,80.109969,-19.447215,-11.545329
15587,NaN,3.708443,11.695518,2.439568,-0.597210,-0.384483,2.676546,1.739997,0.032094,0.511374,0.756060,0.624169,-0.193627,0.035978,81.086382,-19.736799,-11.478382
15588,NaN,3.268639,11.318871,2.526803,-0.980191,-0.632294,2.179945,1.271791,0.047886,0.079484,0.752099,0.628871,-0.193515,0.037680,81.803924,-19.784117,-11.444961
15589,NaN,3.094471,10.489155,2.212103,-0.846307,-0.582473,1.297459,0.854083,0.049493,0.119396,0.749415,0.631961,-0.193581,0.039114,82.282746,-19.851397,-11.408254
15590,NaN,3.441683,9.930810,1.946858,-0.315688,-0.572623,0.856361,0.578863,0.037453,0.062542,0.747599,0.634050,-0.193576,0.040047,82.605907,-19.890182,-11.383231
15591,NaN,3.160289,9.857016,1.751272,-0.524205,-0.396612,0.665044,0.487445,0.003996,0.106240,0.746017,0.635776,-0.193839,0.040932,82.884607,-19.953696,-11.375897
15592,NaN,3.575320,10.215627,1.688033,-0.257519,-0.382639,1.131652,0.319993,-0.021939,0.120797,0.744945,0.636847,-0.194290,0.041642,83.070199,-20.029867,-11.382767
15593,NaN,3.568179,9.706697,1.165646,0.003277,0.004751,0.594548,0.159367,-0.054783,0.023483,0.744362,0.637437,-0.194574,0.041713,83.175328,-20.050382,-11.417507
15594,NaN,3.703882,8.968625,0.794927,0.440033,0.188194,-0.088602,0.088814,-0.065636,-0.018421,0.744012,0.637790,-0.194793,0.041540,83.241074,-20.050227,-11.461192
15595,NaN,3.604249,8.587925,0.525495,0.529110,0.386590,-0.507324,0.092941,-0.045983,-0.026261,0.743659,0.638180,-0.194899,0.041390,83.307558,-20.041760,-11.494213
15596,NaN,3.589797,8.549754,0.665134,0.492369,0.236492,-0.532118,0.142442,-0.007690,-0.002709,0.743190,0.638705,-0.194941,0.041513,83.391741,-20.046669,-11.501722
15597,NaN,3.623009,8.586570,0.198161,0.616148,0.675589,-0.535911,0.166078,0.031325,0.057112,0.742660,0.639268,-0.195011,0.041990,83.482066,-20.080507,-11.482062
15598,NaN,3.322873,8.560915,0.149546,0.348650,0.760772,-0.666499,0.233303,0.074779,0.084326,0.741960,0.640028,-0.195007,0.042789,83.599248,-20.129699,-11.433665
15599,NaN,3.423227,8.299360,-0.050680,0.558022,0.871246,-0.894732,0.312187,0.101351,0.066157,0.741027,0.641108,-0.194814,0.043666,83.758469,-20.164349,-11.371063
15600,NaN,3.671985,8.539238,0.113264,0.658275,0.685350,-0.565429,0.397980,0.127034,0.118151,0.739838,0.642432,-0.194687,0.044918,83.958550,-20.229884,-11.289066
15601,NaN,4.107164,8.711371,0.356458,0.927751,0.369939,-0.226962,0.488963,0.144599,0.162496,0.738351,0.644057,-0.194603,0.046462,84.207794,-20.317297,-11.194334
15602,NaN,4.407670,9.282833,0.813117,0.892036,-0.060738,0.456693,0.389455,0.142672,0.224066,0.737171,0.645236,-0.194760,0.048147,84.397527,-20.443040,-11.096884
15603,NaN,4.613336,8.844249,1.062427,1.141233,-0.430309,0.144457,0.282238,0.148649,0.211811,0.736335,0.646042,-0.194866,0.049686,84.526258,-20.558938,-10.997254
15604,NaN,4.493226,8.408496,1.087394,1.143813,-0.512509,-0.299365,0.206959,0.155692,0.237684,0.735746,0.646527,-0.195064,0.051286,84.608121,-20.692368,-10.891531
15605,NaN,4.053107,8.086587,0.997397,0.839444,-0.407643,-0.760370,0.288127,0.129173,0.294555,0.734845,0.647274,-0.195505,0.053071,84.742428,-20.856853,-10.799361
15606,NaN,3.645395,8.697633,1.285515,0.165206,-0.535971,-0.311342,0.337606,0.083544,0.394296,0.733716,0.648098,-0.196440,0.055142,84.911312,-21.084028,-10.729434
15607,NaN,2.868920,9.050760,1.457463,-0.742329,-0.536461,-0.250672,0.378007,0.033436,0.368831,0.732401,0.649120,-0.197446,0.056977,85.116528,-21.296183,-10.692693
15608,NaN,2.213666,9.527241,2.113323,-1.682348,-1.016925,-0.000950,0.355312,-0.016424,0.292152,0.731136,0.650129,-0.198408,0.058366,85.319744,-21.470163,-10.690694
15609,NaN,1.768651,10.058877,1.799627,-2.236943,-0.585063,0.296785,0.327820,-0.058069,0.248015,0.729920,0.651106,-0.199368,0.059412,85.519369,-21.617741,-10.717610
15610,NaN,2.061789,10.122542,1.105185,-1.875173,0.017031,0.405996,0.401989,-0.101642,0.234642,0.728429,0.652360,-0.200435,0.060357,85.769917,-21.762122,-10.771949
15611,NaN,3.800912,10.458136,0.305526,-0.270896,0.508721,1.303990,0.279139,-0.179139,0.277888,0.727235,0.653159,-0.201947,0.061067,85.969512,-21.931566,-10.873383
15612,NaN,4.707449,10.193949,0.046598,0.666527,0.541496,1.382903,0.182216,-0.171514,0.254959,0.726379,0.653609,-0.203397,0.061635,86.110731,-22.089680,-10.971109
15613,NaN,3.966655,9.479945,0.056883,0.215904,0.549959,0.446837,0.088110,-0.068193,0.190829,0.725943,0.653764,-0.204280,0.062197,86.177329,-22.204628,-11.008779
15614,NaN,2.649982,8.196961,0.450824,-0.623963,0.219931,-1.211635,0.000492,-0.020084,0.123486,0.725872,0.653640,-0.204806,0.062598,86.181844,-22.281626,-11.019030
15615,NaN,2.071831,7.749920,0.814256,-1.078413,-0.094557,-1.822391,0.055168,-0.047769,0.124059,0.725585,0.653737,-0.205406,0.062951,86.225986,-22.357590,-11.046992
15616,NaN,3.159180,8.464052,0.940318,-0.392749,-0.318929,-0.743576,0.129202,-0.132440,0.199589,0.724953,0.654036,-0.206547,0.063391,86.329670,-22.482035,-11.123814
15617,NaN,4.219049,9.592328,0.670160,0.187456,-0.112169,0.685613,0.302744,-0.237782,0.287650,0.723605,0.654918,-0.208291,0.063971,86.558675,-22.658193,-11.263549
15618,NaN,3.849734,10.328893,0.711967,-0.462858,-0.026733,1.223532,0.426321,-0.231702,0.214451,0.721886,0.656304,-0.209743,0.064448,86.856976,-22.793830,-11.402544
15619,NaN,3.587035,10.344644,0.405202,-0.670113,0.285746,1.119461,0.218742,-0.213254,0.173347,0.720869,0.656988,-0.211049,0.064606,87.034793,-22.902704,-11.532789
15620,NaN,4.243930,9.208122,-0.105077,0.434034,0.498633,0.305338,0.063707,-0.162213,0.133936,0.720434,0.657123,-0.212100,0.064638,87.110469,-22.989258,-11.632312
15621,NaN,4.604125,8.778202,0.053668,0.867283,0.217015,0.059414,-0.001522,-0.075315,0.153729,0.720290,0.656987,-0.212915,0.064945,87.129365,-23.082570,-11.677937
15622,NaN,5.013905,8.791193,0.508934,1.113530,-0.303642,0.254644,0.095524,-0.007846,0.156363,0.719905,0.657162,-0.213474,0.065600,87.185814,-23.177542,-11.681036
15623,NaN,5.007114,9.280991,0.852064,0.830306,-0.583889,0.718391,0.200017,0.033069,0.134832,0.719220,0.657735,-0.213770,0.066410,87.294040,-23.256961,-11.660009
15624,NaN,4.521074,9.486452,0.291338,0.424306,0.065466,0.691284,0.192072,0.078650,0.076483,0.718635,0.658312,-0.213724,0.067166,87.385517,-23.304113,-11.611840
15625,NaN,3.583990,9.454658,-0.414510,-0.265727,0.913123,0.262179,0.124068,0.074767,0.125988,0.718244,0.658606,-0.213867,0.068000,87.440081,-23.377450,-11.565309
15626,NaN,3.872774,9.543678,-0.117182,-0.119214,0.576874,0.470643,0.069079,0.045329,0.114062,0.718014,0.658712,-0.214105,0.068649,87.468993,-23.447010,-11.536983
15627,NaN,4.189988,9.450844,0.569134,0.039247,-0.160248,0.539662,-0.021419,0.044589,0.131699,0.718068,0.658488,-0.214424,0.069248,87.447539,-23.524417,-11.509142
15628,NaN,4.152121,9.255014,0.818955,0.012927,-0.409589,0.355799,-0.123674,0.052583,0.146598,0.718467,0.657864,-0.214810,0.069831,87.363789,-23.612340,-11.475289
15629,NaN,3.729412,8.832179,0.375695,-0.127334,0.056991,-0.219068,0.030780,0.038970,0.260897,0.718297,0.657689,-0.215555,0.070932,87.372001,-23.763801,-11.447071
15630,NaN,3.625120,9.188014,0.338090,-0.378048,0.157132,0.061912,0.109496,-0.000567,0.289011,0.717820,0.657766,-0.216517,0.072102,87.433449,-23.934580,-11.442342
15631,NaN,4.556576,9.415019,-0.371094,0.491169,0.705555,0.618207,0.047640,-0.061381,0.273218,0.717478,0.657671,-0.217656,0.072935,87.476700,-24.095685,-11.476845
15632,NaN,4.035434,8.881518,2.493216,-0.416163,-2.058416,0.034742,0.030695,0.030469,0.305869,0.717285,0.657433,-0.218590,0.074181,87.485030,-24.275303,-11.452458
15633,NaN,3.253421,8.901513,-1.631787,-0.258176,2.112552,-0.434264,0.031717,-0.022517,0.246264,0.717044,0.657294,-0.219506,0.075028,87.509670,-24.419983,-11.463503
15634,NaN,4.446251,8.788924,0.551401,0.349927,-0.246244,0.043032,0.019666,-0.110602,0.323699,0.716722,0.657047,-0.221007,0.075861,87.548231,-24.613207,-11.527480
15635,NaN,4.702006,8.879144,0.498166,0.522426,-0.228189,0.230777,0.015348,-0.038455,0.271707,0.716506,0.656824,-0.222069,0.076728,87.567546,-24.772831,-11.548083
15636,NaN,4.731605,8.930268,0.912957,0.408989,-0.627289,0.307117,0.017447,0.028374,0.293981,0.716353,0.656545,-0.222974,0.077910,87.568775,-24.945705,-11.525486
15637,NaN,4.329431,8.806662,0.741863,0.113389,-0.397791,0.019937,0.012276,0.038878,0.221866,0.716249,0.656334,-0.223596,0.078848,87.566381,-25.074913,-11.498659
15638,NaN,4.703605,8.670411,0.691782,0.488492,-0.430194,0.054164,0.079669,0.076784,0.246586,0.715962,0.656309,-0.224147,0.080089,87.590583,-25.219539,-11.446652
15639,NaN,4.398039,8.877163,0.547623,0.139204,-0.208821,0.106165,0.129486,0.110820,0.250415,0.715541,0.656455,-0.224558,0.081496,87.635466,-25.363394,-11.373574
15640,NaN,4.401331,9.064317,0.796751,-0.012804,-0.429305,0.286018,0.089820,0.106354,0.229090,0.715258,0.656471,-0.224941,0.082782,87.657378,-25.497414,-11.303320
15641,NaN,4.483160,8.852912,0.632967,0.159015,-0.308998,0.124747,0.084781,0.102272,0.232674,0.714978,0.656478,-0.225341,0.084048,87.678866,-25.631375,-11.236112
15642,NaN,4.447770,8.885488,0.499132,0.118732,-0.166219,0.134268,0.085407,0.103371,0.239316,0.714700,0.656465,-0.225770,0.085356,87.698564,-25.771364,-11.167404
15643,NaN,4.268622,8.928534,0.400609,-0.059924,-0.033408,0.091635,0.102269,0.082155,0.217008,0.714344,0.656559,-0.226182,0.086519,87.735525,-25.896867,-11.113364
15644,NaN,4.334760,8.878399,0.368958,0.005041,-0.022578,0.074257,0.106941,0.047565,0.179989,0.713955,0.656712,-0.226605,0.087455,87.783501,-26.004195,-11.081701
15645,NaN,4.339261,8.886300,0.315886,-0.001642,0.024897,0.081485,0.109419,0.037682,0.159757,0.713548,0.656913,-0.226984,0.088276,87.837490,-26.097973,-11.057526
15646,NaN,4.462051,8.764547,0.429000,0.117457,-0.126504,0.030147,0.108402,0.032733,0.149227,0.713150,0.657111,-0.227358,0.089055,87.890789,-26.188025,-11.036221
15647,NaN,4.513811,8.738417,0.483740,0.147029,-0.197980,0.031478,0.115973,0.026181,0.136361,0.712717,0.657367,-0.227698,0.089762,87.952023,-26.268687,-11.020095
15648,NaN,4.486660,8.535719,0.444863,0.201393,-0.186620,-0.163277,0.138632,0.018779,0.151722,0.712201,0.657675,-0.228115,0.090538,88.026579,-26.360495,-11.007820
15649,NaN,4.419796,8.670922,0.469698,0.063359,-0.193412,-0.071094,0.161798,0.000052,0.127793,0.711591,0.658113,-0.228499,0.091181,88.121631,-26.436792,-11.008799
15650,NaN,4.654297,8.646115,0.449403,0.270563,-0.229364,0.010444,0.170701,-0.027554,0.081323,0.710947,0.658635,-0.228835,0.091591,88.228499,-26.489172,-11.027896
15651,NaN,4.698605,8.638501,0.369772,0.318001,-0.175614,0.021199,0.190252,-0.034837,0.067522,0.710229,0.659259,-0.229131,0.091936,88.350481,-26.531545,-11.052677
15652,NaN,4.637980,8.785399,0.204023,0.224422,-0.003477,0.121361,0.199042,-0.038459,0.056700,0.709489,0.659913,-0.229411,0.092255,88.477029,-26.569966,-11.079437
15653,NaN,4.756597,8.799706,0.138446,0.326472,0.024139,0.185913,0.186538,-0.036624,0.042994,0.708791,0.660551,-0.229634,0.092503,88.597701,-26.598220,-11.105984
15654,NaN,4.743374,8.751452,0.267224,0.301319,-0.121375,0.139868,0.177951,-0.023881,0.037367,0.708144,0.661144,-0.229808,0.092778,88.708257,-26.625298,-11.123895
15655,NaN,4.787099,8.763024,0.455179,0.289300,-0.327392,0.173463,0.175143,-0.010354,0.034573,0.707517,0.661738,-0.229915,0.093070,88.814989,-26.648309,-11.133859
15656,NaN,4.816716,8.943470,0.516734,0.217745,-0.387769,0.348790,0.155903,-0.002056,0.020620,0.706975,0.662262,-0.229966,0.093332,88.906776,-26.665528,-11.138096
15657,NaN,4.791480,8.852949,0.220370,0.290956,-0.115392,0.251287,0.126039,-0.000386,-0.001755,0.706538,0.662718,-0.229940,0.093472,88.982740,-26.667595,-11.142184
15658,NaN,4.568969,8.778558,-0.050996,0.179909,0.170097,0.080738,0.125967,0.003951,-0.001468,0.706112,0.663158,-0.229911,0.093642,89.055750,-26.672124,-11.142849
15659,NaN,4.467931,8.825182,-0.050265,0.068047,0.181056,0.077275,0.112099,0.002032,0.002006,0.705721,0.663559,-0.229895,0.093787,89.123017,-26.676314,-11.145355
15660,NaN,4.663769,8.902716,0.442735,0.105257,-0.336674,0.241202,0.089260,0.007493,-0.015620,0.705427,0.663883,-0.229824,0.093876,89.174109,-26.672691,-11.143920
15661,NaN,4.657437,8.611729,0.555850,0.204924,-0.484009,-0.020532,0.083118,-0.000895,-0.033749,0.705145,0.664224,-0.229713,0.093852,89.225760,-26.656416,-11.148632
15662,NaN,4.641433,8.424609,0.411705,0.301558,-0.370515,-0.197169,0.171540,-0.017067,-0.030674,0.704557,0.664867,-0.229639,0.093901,89.331037,-26.644367,-11.163018
15663,NaN,4.711500,8.567286,0.183628,0.343934,-0.165227,-0.041060,0.271416,-0.012401,-0.018609,0.703628,0.665858,-0.229531,0.094108,89.493805,-26.636818,-11.174937
15664,NaN,4.855431,8.619855,-0.093100,0.496756,0.061369,0.068365,0.307080,0.008345,0.001707,0.702600,0.666927,-0.229411,0.094511,89.669302,-26.643194,-11.172789
15665,NaN,4.843674,8.832115,0.024308,0.365481,-0.058175,0.253643,0.311663,0.034805,-0.021574,0.701590,0.668037,-0.229107,0.094911,89.841544,-26.633767,-11.154406
15666,NaN,4.643533,9.061952,0.345791,0.026126,-0.342308,0.369799,0.256938,0.057067,-0.077814,0.700819,0.668995,-0.228574,0.095141,89.974413,-26.594601,-11.121163
15667,NaN,4.444076,9.139259,0.713485,-0.232708,-0.670787,0.350023,-0.134972,0.007456,-0.372306,0.701435,0.668951,-0.227403,0.093708,89.898710,-26.384289,-11.120527
15668,NaN,4.465798,8.457248,-0.304497,0.304627,0.259139,-0.252294,0.166234,0.015751,-0.144816,0.700951,0.669686,-0.226834,0.093460,89.991410,-26.306742,-11.113750
15669,NaN,4.721369,8.857110,-0.084000,0.322805,0.015516,0.219377,0.189263,0.021141,-0.132833,0.700382,0.670498,-0.226264,0.093281,90.097470,-26.233646,-11.104049
15670,NaN,4.810428,9.102571,-0.130451,0.311620,0.049506,0.478788,0.168383,0.042255,-0.107582,0.699902,0.671184,-0.225726,0.093254,90.183905,-26.177517,-11.080145
15671,NaN,4.611582,8.939273,-0.274820,0.243025,0.200315,0.244828,0.104712,0.079377,-0.110128,0.699671,0.671646,-0.225067,0.093255,90.225085,-26.117573,-11.033107
15672,NaN,4.585071,8.766093,-0.196802,0.286028,0.106642,0.077348,0.132563,0.113396,-0.066347,0.699371,0.672126,-0.224435,0.093570,90.271131,-26.085303,-10.963856
15673,NaN,4.176215,8.797714,-0.339144,-0.058441,0.309788,-0.073274,0.157559,0.116718,-0.046367,0.698973,0.672683,-0.223835,0.093979,90.332233,-26.062075,-10.893131
15674,NaN,4.408708,9.058773,0.188347,-0.062566,-0.238920,0.260670,0.168140,0.081385,-0.058376,0.698512,0.673293,-0.223324,0.094254,90.407745,-26.034365,-10.844307
15675,NaN,4.593737,9.094496,0.535951,0.028073,-0.617936,0.371461,0.055231,0.066538,-0.115416,0.698434,0.673592,-0.222714,0.094138,90.424177,-25.971494,-10.805242
15676,NaN,4.447502,8.831326,0.126475,0.099803,-0.215462,0.073272,0.061717,0.061431,-0.148983,0.698351,0.673939,-0.222018,0.093910,90.444092,-25.891814,-10.768671
15677,NaN,4.392764,8.790409,0.014946,0.101695,-0.106967,0.013099,0.103877,0.069932,-0.130704,0.698119,0.674423,-0.221322,0.093807,90.487504,-25.820230,-10.727353
15678,NaN,4.489310,8.865649,-0.048412,0.176542,-0.064501,0.123138,0.118719,0.066352,-0.125591,0.697838,0.674940,-0.220660,0.093740,90.538808,-25.754015,-10.687702
15679,NaN,4.452516,8.916414,-0.037946,0.131049,-0.075041,0.152550,0.111308,0.062940,-0.134461,0.697574,0.675456,-0.219972,0.093608,90.588449,-25.680303,-10.650720
15680,NaN,4.113909,8.947198,-0.173130,-0.147304,0.106980,0.034821,0.099654,0.041725,-0.125891,0.697329,0.675917,-0.219404,0.093436,90.635663,-25.613827,-10.626641
15681,NaN,4.101263,9.031583,-0.286023,-0.165555,0.217817,0.106828,0.063216,0.028186,-0.090189,0.697168,0.676232,-0.219008,0.093288,90.667460,-25.565305,-10.611971
15682,NaN,4.457580,9.097013,-0.194844,0.111392,0.071062,0.318758,-0.021074,0.012566,-0.041536,0.697259,0.676194,-0.218883,0.093179,90.653820,-25.546913,-10.607002
15683,NaN,4.448283,8.858366,-0.330843,0.232563,0.193523,0.100728,-0.065269,0.017462,-0.022739,0.697489,0.675992,-0.218813,0.093088,90.615162,-25.536962,-10.599637
15684,NaN,4.372169,8.686175,-0.536244,0.275431,0.401262,-0.085603,-0.017449,0.052030,0.016205,0.697584,0.675885,-0.218743,0.093318,90.593028,-25.551885,-10.570043
15685,NaN,4.547213,8.832863,-0.223150,0.309317,0.075474,0.119334,0.053500,0.069837,0.030243,0.697445,0.676014,-0.218614,0.093720,90.608218,-25.572599,-10.529773
15686,NaN,4.526616,9.057528,0.150041,0.126330,-0.274869,0.309569,0.063685,0.074164,-0.008026,0.697300,0.676207,-0.218348,0.094028,90.626496,-25.573800,-10.485987
15687,NaN,4.381129,9.022937,0.169734,0.010947,-0.275390,0.215300,0.042525,0.067928,-0.056448,0.697236,0.676393,-0.217938,0.094109,90.635668,-25.544855,-10.446336
15688,NaN,4.272706,8.931064,-0.144179,0.015107,0.042859,0.088759,0.031639,0.045033,-0.084355,0.697204,0.676571,-0.217530,0.094018,90.643320,-25.502146,-10.420505
15689,NaN,4.325454,8.809824,-0.141507,0.122204,0.019264,0.001958,0.056987,0.043711,-0.126157,0.697098,0.676895,-0.216961,0.093790,90.667233,-25.433119,-10.395733
15690,NaN,4.428571,8.776944,-0.078341,0.229543,-0.068968,0.015622,0.086782,0.044852,-0.177263,0.696921,0.677364,-0.216213,0.093434,90.706304,-25.337181,-10.369314
15691,NaN,4.555638,8.757229,0.133790,0.331371,-0.310525,0.049083,0.108980,0.027489,-0.222812,0.696665,0.677980,-0.215349,0.092870,90.764106,-25.212691,-10.353966
15692,NaN,4.510120,8.780491,0.261727,0.279331,-0.441313,0.048036,0.134676,0.021176,-0.251719,0.696334,0.678706,-0.214408,0.092226,90.836724,-25.073986,-10.341712
15693,NaN,4.475149,8.860277,0.090482,0.266975,-0.277958,0.106539,0.142269,0.024847,-0.261372,0.695977,0.679479,-0.213406,0.091554,90.914086,-24.927418,-10.327360
15694,NaN,4.476906,8.836438,-0.065284,0.328976,-0.142860,0.086852,0.165282,0.048311,-0.284393,0.695583,0.680330,-0.212246,0.090921,90.996738,-24.770319,-10.297228
15695,NaN,4.513092,8.868244,-0.137292,0.385694,-0.093103,0.130908,0.177257,0.092037,-0.289562,0.695188,0.681220,-0.210897,0.090416,91.076215,-24.608335,-10.239774
15696,NaN,4.393421,8.847436,-0.136537,0.312226,-0.091706,0.061113,0.180656,0.116115,-0.289106,0.694812,0.682095,-0.209477,0.090014,91.149915,-24.449407,-10.166497
15697,NaN,4.246062,8.878218,0.139775,0.146149,-0.355693,0.022117,0.206209,0.123749,-0.281262,0.694343,0.683058,-0.208032,0.089676,91.237944,-24.292700,-10.088866
15698,NaN,4.099537,8.866537,-0.007719,0.066689,-0.205890,-0.046683,0.232406,0.134557,-0.254548,0.693789,0.684064,-0.206641,0.089510,91.336923,-24.154026,-10.004129
15699,NaN,4.071940,8.905491,-0.041943,0.051190,-0.187031,-0.022255,0.267052,0.114453,-0.221987,0.693072,0.685177,-0.205402,0.089408,91.462726,-24.031396,-9.932793
15700,NaN,4.179321,9.094305,0.057476,0.072274,-0.316322,0.190865,0.269004,0.112338,-0.213467,0.692348,0.686273,-0.204211,0.089345,91.588728,-23.916217,-9.862189
15701,NaN,4.223648,8.967809,-0.108664,0.206469,-0.186158,0.096666,0.236635,0.116304,-0.195573,0.691721,0.687248,-0.203069,0.089310,91.696910,-23.809022,-9.789727
15702,NaN,4.267610,8.952519,-0.220055,0.283675,-0.102859,0.102826,0.254546,0.143158,-0.166916,0.691052,0.688228,-0.201936,0.089499,91.807255,-23.721296,-9.700326
15703,NaN,4.286872,9.111302,-0.233752,0.250730,-0.105720,0.255761,0.264584,0.173014,-0.138653,0.690358,0.689213,-0.200780,0.089883,91.917736,-23.648008,-9.593211
15704,NaN,4.130849,9.158243,-0.466001,0.135556,0.130648,0.243107,0.266361,0.194090,-0.131806,0.689680,0.690172,-0.199586,0.090380,92.022507,-23.581720,-9.472468
15705,NaN,3.722531,9.233748,-0.688107,-0.219941,0.397735,0.156577,0.205041,0.198145,-0.164676,0.689224,0.690962,-0.198279,0.090701,92.092562,-23.494383,-9.348922
15706,NaN,3.379187,9.082959,-1.098372,-0.396154,0.838313,-0.103633,0.139257,0.166800,-0.205783,0.688988,0.691566,-0.196979,0.090722,92.130998,-23.385380,-9.243512
15707,NaN,3.431959,9.006199,-0.626514,-0.370117,0.353353,-0.167968,0.084759,0.105728,-0.201971,0.688870,0.692018,-0.195916,0.090476,92.155044,-23.274878,-9.176772
15708,NaN,3.595302,9.134470,-0.231422,-0.313394,-0.063490,0.001385,0.041071,0.061616,-0.179376,0.688856,0.692304,-0.195114,0.090126,92.163828,-23.178675,-9.137635
15709,NaN,3.785070,9.171345,0.241164,-0.208657,-0.562517,0.093800,0.042246,0.030934,-0.148860,0.688787,0.692590,-0.194510,0.089762,92.182527,-23.096989,-9.118752
15710,NaN,4.018500,9.220422,0.249117,-0.004723,-0.607716,0.230083,0.029860,0.016771,-0.125839,0.688743,0.692805,-0.194052,0.089430,92.196358,-23.030405,-9.108764
15711,NaN,3.976705,9.129071,0.002715,0.039522,-0.364703,0.138169,0.034351,0.010486,-0.116386,0.688667,0.693040,-0.193635,0.089099,92.215837,-22.966870,-9.103346
15712,NaN,3.786127,9.033251,-0.392010,-0.030849,0.047206,-0.010398,0.027810,0.011798,-0.092239,0.688610,0.693217,-0.193311,0.088864,92.229937,-22.919407,-9.097197
15713,NaN,3.836216,8.910191,-0.586893,0.097596,0.225254,-0.097121,0.042315,-0.003581,-0.074571,0.688473,0.693446,-0.193084,0.088636,92.257770,-22.879500,-9.101499
15714,NaN,3.941125,9.022719,-0.590223,0.154342,0.210238,0.047447,0.053113,-0.009423,-0.056033,0.688292,0.693684,-0.192947,0.088476,92.291878,-22.852262,-9.109404
15715,NaN,3.670022,8.914967,-0.770498,-0.021090,0.417200,-0.150138,0.096951,-0.025987,-0.052359,0.687934,0.694088,-0.192849,0.088299,92.356605,-22.824544,-9.128121
15716,NaN,3.337000,9.083791,-0.119664,-0.482245,-0.187708,-0.148458,0.172860,-0.015865,-0.017176,0.687313,0.694704,-0.192816,0.088366,92.461321,-22.819353,-9.140998
15717,NaN,3.479812,9.267998,0.103966,-0.458229,-0.441847,0.067113,0.129997,-0.064801,0.009159,0.686775,0.695179,-0.193051,0.088298,92.554939,-22.825821,-9.185395
15718,NaN,3.685178,8.833032,-0.350175,-0.042096,-0.045635,-0.235541,0.126127,-0.134101,0.031877,0.686180,0.695638,-0.193614,0.088076,92.661847,-22.845474,-9.273035
15719,NaN,3.837884,8.556692,-0.434438,0.209167,-0.010576,-0.426999,0.248635,-0.136589,0.056039,0.685138,0.696505,-0.194206,0.088034,92.841348,-22.876622,-9.363459
15720,NaN,3.947595,8.734298,-0.448466,0.230019,-0.039585,-0.220085,0.339978,-0.094585,0.076600,0.683815,0.697634,-0.194694,0.088310,93.061962,-22.922540,-9.428148
15721,NaN,3.895005,9.395327,-0.334035,-0.105364,-0.170153,0.361529,0.332325,-0.058623,0.051987,0.682554,0.698753,-0.194967,0.088607,93.270710,-22.953234,-9.470293
15722,NaN,3.760104,9.764652,-0.157624,-0.403111,-0.348830,0.638506,0.211466,-0.034340,-0.054977,0.681793,0.699541,-0.194846,0.088519,93.401425,-22.925488,-9.493136
15723,NaN,3.455101,9.453856,-1.033741,-0.424838,0.548374,0.281891,-0.000501,-0.023588,-0.163645,0.681824,0.699718,-0.194391,0.087878,93.407933,-22.833882,-9.505689
15724,NaN,3.760664,8.291915,-1.080992,0.325741,0.536821,-0.665409,0.056563,-0.046209,-0.083411,0.681605,0.700010,-0.194279,0.087499,93.452292,-22.789325,-9.534773
15725,NaN,4.436364,8.740292,-0.207973,0.644430,-0.440071,-0.039852,0.217527,0.041123,-0.051376,0.680886,0.700792,-0.193901,0.087679,93.569739,-22.764173,-9.511267
15726,NaN,3.553454,9.209812,-1.275164,-0.192956,0.726780,0.112443,0.353181,0.099425,-0.037048,0.679747,0.701983,-0.193325,0.088256,93.749761,-22.751408,-9.451695
15727,NaN,2.957669,10.383748,-0.815945,-1.255511,0.344918,0.936289,0.012388,-0.033677,-0.093376,0.679692,0.702139,-0.193144,0.087832,93.766901,-22.699529,-9.472735
15728,NaN,3.260131,9.612029,-1.147189,-0.620472,0.635193,0.363122,-0.289533,-0.191443,-0.101080,0.680553,0.701335,-0.193613,0.086549,93.647345,-22.639246,-9.590881
15729,NaN,3.670827,8.904274,-1.125389,0.038697,0.568011,-0.132636,-0.343217,-0.302923,-0.032537,0.681456,0.700337,-0.194716,0.085043,93.525844,-22.612564,-9.781238
15730,NaN,3.693143,8.878146,-0.741137,0.016231,0.197688,-0.170555,-0.218612,-0.325836,0.066304,0.681860,0.699664,-0.196197,0.083926,93.481542,-22.643598,-9.989253
15731,NaN,3.984163,9.172445,-0.484976,0.121356,-0.094795,0.198246,-0.159896,-0.331042,0.115548,0.682025,0.699152,-0.197834,0.083005,93.474132,-22.700963,-10.202736
15732,NaN,3.928507,9.372407,-0.299017,-0.047674,-0.263464,0.350624,-0.167960,-0.313654,0.142675,0.682227,0.698567,-0.199518,0.082239,93.457508,-22.776220,-10.406225
15733,NaN,3.683422,9.311951,-0.375122,-0.249773,-0.142051,0.204206,-0.178990,-0.316413,0.193253,0.682436,0.697901,-0.201383,0.081615,93.437377,-22.878635,-10.613745
15734,NaN,4.066343,9.142955,-0.409157,0.149017,-0.166883,0.199609,-0.208687,-0.308611,0.237438,0.682740,0.697073,-0.203396,0.081149,93.398311,-23.008386,-10.817843
15735,NaN,4.162627,8.982530,-0.377462,0.271317,-0.209887,0.088730,-0.136250,-0.259805,0.254570,0.682826,0.696462,-0.205262,0.080974,93.390706,-23.147968,-10.992712
15736,NaN,3.994918,9.197293,-0.436011,0.018497,-0.112515,0.223577,-0.134792,-0.213438,0.290343,0.682943,0.695788,-0.207102,0.081094,93.372452,-23.311344,-11.139861
15737,NaN,4.005564,8.971529,-0.267257,0.062247,-0.274225,0.012034,-0.188276,-0.208889,0.293913,0.683241,0.694932,-0.208952,0.081176,93.324008,-23.475263,-11.284724
15738,NaN,3.973309,8.742406,-0.422811,0.124382,-0.109595,-0.201857,-0.120951,-0.174251,0.305442,0.683340,0.694269,-0.210703,0.081499,93.304961,-23.648731,-11.408115
15739,NaN,4.130133,8.963733,-0.631547,0.181809,0.078725,0.074982,-0.049672,-0.118180,0.341090,0.683227,0.693795,-0.212348,0.082202,93.314717,-23.842725,-11.498268
15740,NaN,4.588605,8.942471,-0.273553,0.504973,-0.352070,0.223192,-0.020197,-0.044758,0.331221,0.683098,0.693391,-0.213704,0.083168,93.321810,-24.035235,-11.541928
15741,NaN,4.375538,8.820949,-0.522788,0.375375,-0.066801,0.040349,0.035305,0.038407,0.321993,0.682862,0.693159,-0.214712,0.084439,93.340544,-24.223488,-11.533590
15742,NaN,4.349565,8.916210,-0.255992,0.232877,-0.318023,0.103340,0.051052,0.067882,0.327567,0.682603,0.692950,-0.215640,0.085860,93.359642,-24.417724,-11.506653
15743,NaN,4.354683,8.856682,-0.390776,0.253517,-0.184753,0.059410,0.060054,0.069995,0.311423,0.682316,0.692797,-0.216491,0.087230,93.384156,-24.601001,-11.478189
15744,NaN,4.374972,8.829149,-0.549721,0.280012,-0.031232,0.052250,0.085568,0.069468,0.285349,0.681954,0.692747,-0.217252,0.088549,93.421817,-24.771197,-11.448774
15745,NaN,4.339853,8.889296,-0.449172,0.177105,-0.124282,0.087251,0.127659,0.072476,0.262016,0.681454,0.692874,-0.217893,0.089833,93.483553,-24.926339,-11.417075
15746,NaN,4.291419,9.192013,-0.424161,-0.027784,-0.138452,0.339616,0.166658,0.082463,0.262624,0.680832,0.693116,-0.218493,0.091207,93.563825,-25.084072,-11.378891
15747,NaN,4.429048,9.289799,-0.564254,0.047201,-0.028884,0.494208,0.134642,0.086925,0.261438,0.680320,0.693257,-0.219078,0.092546,93.625661,-25.239474,-11.338385
15748,NaN,4.531615,8.982589,-0.809015,0.280913,0.182531,0.275158,0.166593,0.113946,0.282762,0.679720,0.693459,-0.219640,0.094097,93.697662,-25.409936,-11.281407
15749,NaN,4.638826,8.985017,-0.552659,0.297753,-0.094733,0.309414,0.229994,0.179085,0.323285,0.678945,0.693808,-0.220081,0.096069,93.790017,-25.604241,-11.185415
15750,NaN,4.568508,9.077968,-0.288706,0.112994,-0.347334,0.347558,0.259545,0.233628,0.360729,0.678111,0.694176,-0.220460,0.098402,93.883611,-25.824043,-11.056210
15751,NaN,4.376517,9.218925,-0.370362,-0.145741,-0.237555,0.395243,0.246598,0.262584,0.371085,0.677338,0.694480,-0.220772,0.100844,93.962673,-26.049214,-10.909556
15752,NaN,4.330141,9.274814,-0.270241,-0.270053,-0.331041,0.417789,0.224399,0.279031,0.404662,0.676645,0.694649,-0.221165,0.103442,94.023321,-26.296233,-10.753513
15753,NaN,4.370040,9.446337,-0.468259,-0.327113,-0.142437,0.599916,0.232783,0.294034,0.438614,0.675911,0.694805,-0.221609,0.106205,94.085743,-26.561575,-10.589798
15754,NaN,3.972218,9.553718,-0.534820,-0.766487,-0.009989,0.519313,0.183077,0.294117,0.488644,0.675323,0.694722,-0.222259,0.109092,94.118652,-26.857398,-10.427713
15755,NaN,3.823815,9.426702,-0.161132,-0.945438,-0.348797,0.311270,0.029622,0.223284,0.490262,0.675177,0.694161,-0.223228,0.111556,94.084623,-27.149477,-10.311171
15756,NaN,3.505249,9.040705,-1.372633,-0.913187,0.913099,-0.105092,-0.177353,0.112746,0.428659,0.675663,0.693018,-0.224478,0.113207,93.961153,-27.403352,-10.261677
15757,NaN,3.984820,8.251137,-1.327959,-0.172045,0.804371,-0.590606,-0.182731,-0.047777,0.440176,0.675970,0.691941,-0.226304,0.114324,93.883508,-27.655852,-10.316065
15758,NaN,4.647981,8.513992,-1.103365,0.208379,0.496582,-0.064918,-0.112646,-0.110442,0.493542,0.675934,0.691062,-0.228492,0.115492,93.865013,-27.937920,-10.412725
15759,NaN,4.854642,8.706436,-0.702013,0.191792,0.083636,0.178230,-0.175750,-0.145878,0.481308,0.676073,0.690009,-0.230785,0.116414,93.822524,-28.210231,-10.532344
15760,NaN,4.574142,8.277489,-0.871571,0.137295,0.302641,-0.321182,-0.221126,-0.170134,0.428843,0.676370,0.688863,-0.233011,0.117031,93.759844,-28.453186,-10.665042
15761,NaN,4.773131,8.406414,-0.634382,0.172178,0.052730,-0.126592,-0.157719,-0.170375,0.443106,0.676432,0.687920,-0.235241,0.117760,93.735485,-28.702915,-10.799028
15762,NaN,5.205988,8.891231,-0.569720,0.258418,-0.058367,0.502861,-0.138339,-0.144219,0.442785,0.676458,0.687015,-0.237376,0.118608,93.713590,-28.954950,-10.915737
15763,NaN,5.189038,8.973935,-0.580463,0.161741,-0.030956,0.568415,-0.127256,-0.107476,0.435172,0.676486,0.686138,-0.239346,0.119561,93.687748,-29.202565,-11.008649
15764,NaN,5.087389,9.040662,-0.398291,-0.031879,-0.179078,0.567123,-0.094037,-0.060402,0.451903,0.676447,0.685314,-0.241200,0.120780,93.665570,-29.463001,-11.071103
15765,NaN,5.139042,9.471272,-0.187786,-0.282460,-0.369207,0.954563,-0.056454,-0.013462,0.478606,0.676311,0.684560,-0.242955,0.122285,93.651528,-29.738948,-11.104284
15766,NaN,4.949189,9.715640,-0.225350,-0.610631,-0.278409,1.072546,-0.068896,0.012112,0.473993,0.676252,0.683742,-0.244621,0.123856,93.620926,-30.014654,-11.119936
15767,NaN,4.823330,9.668908,-0.086519,-0.767865,-0.380151,0.958822,-0.076478,0.010378,0.498299,0.676193,0.682874,-0.246372,0.125483,93.588125,-30.302747,-11.138056
15768,NaN,4.922877,9.868409,-0.086966,-0.840855,-0.373081,1.177364,-0.053446,0.014256,0.556416,0.676024,0.681996,-0.248298,0.127357,93.567328,-30.625550,-11.155415
15769,NaN,4.905539,10.078678,-0.340824,-0.984920,-0.095441,1.357839,-0.065086,0.016105,0.606632,0.675855,0.681018,-0.250389,0.129382,93.541481,-30.975812,-11.174029
15770,NaN,5.135337,10.029805,-0.624680,-0.789624,0.163842,1.443781,-0.075424,0.032051,0.657221,0.675706,0.679916,-0.252607,0.131626,93.504075,-31.356737,-11.183349
15771,NaN,5.227605,10.436038,-0.794607,-0.973109,0.353633,1.840533,-0.030128,0.094698,0.709582,0.675434,0.678860,-0.254753,0.134308,93.472894,-31.768634,-11.153102
15772,NaN,4.935478,11.044633,-0.864103,-1.613642,0.518990,2.196292,-0.016640,0.147599,0.784267,0.675129,0.677701,-0.256965,0.137443,93.430511,-32.226039,-11.089184
15773,NaN,4.852108,11.399284,-0.543061,-2.020996,0.260222,2.419583,-0.067754,0.167725,0.854135,0.674958,0.676262,-0.259374,0.140808,93.353295,-32.723044,-11.014110
15774,NaN,5.015691,11.249941,-0.305683,-1.947421,0.030318,2.353548,-0.132330,0.170880,0.915007,0.674958,0.674502,-0.262018,0.144307,93.236666,-33.255510,-10.937222
15775,NaN,5.231804,11.150375,-0.213233,-1.840270,-0.058758,2.367494,-0.116919,0.181303,0.965927,0.674862,0.672712,-0.264781,0.148025,93.125608,-33.816664,-10.853992
15776,NaN,5.606032,11.684337,-0.445510,-1.915736,0.181062,3.010941,-0.071770,0.231707,1.027209,0.674623,0.670931,-0.267538,0.152178,93.019142,-34.414603,-10.735646
15777,NaN,5.783961,11.791464,-0.718809,-1.918607,0.475881,3.191171,-0.103699,0.308308,1.042605,0.674557,0.668951,-0.270106,0.156590,92.863145,-35.023071,-10.562713
15778,NaN,5.766911,10.863773,-0.781930,-1.515795,0.546122,2.405858,-0.175007,0.432855,1.013664,0.674905,0.666646,-0.272202,0.161221,92.610173,-35.617830,-10.296757
15779,NaN,5.806304,10.111288,-0.652779,-1.182851,0.431153,1.797265,-0.099237,0.605493,1.019686,0.675203,0.664432,-0.273668,0.166544,92.324982,-36.219317,-9.904279
15780,NaN,5.511633,10.379118,-0.261909,-1.749388,0.160685,1.809926,0.075572,0.792445,1.070585,0.675112,0.662552,-0.274511,0.172893,92.052807,-36.852182,-9.372460
15781,NaN,5.098805,10.844716,0.134300,-2.532441,-0.098610,1.900518,0.179295,0.938260,1.120927,0.674795,0.660799,-0.274930,0.180028,91.768818,-37.514890,-8.729436
15782,NaN,5.176396,10.738062,-0.462800,-2.464592,0.514548,1.848113,0.422968,1.051916,1.249500,0.673678,0.659544,-0.275146,0.188295,91.562030,-38.250237,-7.996157
15783,NaN,4.249894,11.816064,-1.547231,-3.897522,1.744022,2.096904,1.085620,1.227602,1.501389,0.670307,0.659948,-0.274958,0.198884,91.644977,-39.132737,-7.130768
15784,NaN,2.874854,15.279756,-1.302910,-7.403920,1.697933,3.815320,1.516263,1.342402,1.675217,0.665408,0.661344,-0.274480,0.210992,91.905564,-40.117564,-6.175105
15785,NaN,2.010198,18.405813,-1.421476,-10.354146,1.825183,5.493592,1.316091,1.495237,1.733020,0.661197,0.661719,-0.273857,0.223491,91.958693,-41.141747,-5.095748
15786,NaN,0.983388,19.020503,-1.562864,-11.817052,1.883254,5.086555,0.971865,1.649601,1.674834,0.658299,0.660757,-0.272852,0.235786,91.707269,-42.131181,-3.876860
15787,NaN,0.960325,17.913079,-0.889456,-11.395873,1.077288,4.027676,0.652735,1.808798,1.719103,0.656503,0.658383,-0.271819,0.248293,91.155094,-43.144707,-2.506786
15788,NaN,2.886849,16.541677,0.860643,-9.359018,-0.781548,4.133354,0.266494,1.889204,1.891293,0.655772,0.654306,-0.271491,0.261036,90.291624,-44.240109,-1.033036
15789,NaN,5.122527,15.525371,1.591156,-7.328745,-1.485704,4.812018,-0.108727,1.767077,2.101830,0.655695,0.648740,-0.272722,0.273538,89.222654,-45.443163,0.397161
15790,NaN,4.776913,14.367943,-0.193660,-7.033983,0.380335,3.591140,-0.050765,1.548335,2.207918,0.654881,0.643413,-0.274846,0.285675,88.249187,-46.685251,1.711390
15791,NaN,2.859314,14.252875,-0.912671,-8.544473,1.124409,1.929227,-0.167435,1.349452,2.039783,0.654285,0.638098,-0.277240,0.296445,87.273390,-47.826056,2.911998
15792,NaN,6.162473,14.040433,0.338978,-6.425225,0.098454,4.112823,-0.903380,0.952823,2.132267,0.655268,0.630758,-0.282228,0.305150,86.067520,-49.009740,3.835385
15793,NaN,8.521970,11.333489,0.945018,-3.142579,-0.263236,4.043963,-1.203493,0.889712,2.364389,0.656620,0.622072,-0.288609,0.313977,84.656173,-50.322084,4.784662
15794,NaN,5.233123,9.905130,-1.869672,-4.443056,2.490255,0.338378,-1.035842,0.489843,2.241350,0.656971,0.614655,-0.295556,0.321303,83.562760,-51.565866,5.431880
15795,NaN,2.060289,9.678110,-1.938532,-6.411983,2.454548,-2.428493,-0.709740,0.356916,1.982542,0.656429,0.608798,-0.301630,0.327848,82.726684,-52.672655,5.978326
15796,NaN,-0.683747,8.704426,-2.520881,-7.401329,2.866747,-5.386731,-0.534849,0.496777,1.709017,0.655970,0.603667,-0.306041,0.334108,81.877096,-53.599405,6.661145
15797,NaN,-2.968131,7.049748,-3.120991,-7.459960,3.249781,-8.385861,-0.569202,0.554492,1.368901,0.656201,0.598774,-0.309325,0.339394,80.964293,-54.331058,7.388975
15798,NaN,-3.351391,5.816450,-1.720838,-6.683128,1.782640,-9.386702,-0.878730,0.400597,1.068048,0.657615,0.593593,-0.312662,0.342684,80.009407,-54.890207,7.947280
15799,NaN,0.085310,4.074994,-3.613774,-3.274847,3.870897,-7.821878,-1.223649,-0.271105,0.948302,0.659150,0.588547,-0.318484,0.343078,79.394410,-55.456133,7.844716
15800,NaN,-0.084498,4.017658,-4.009347,-3.290899,4.278306,-8.054978,-0.433702,-0.890199,0.188487,0.658670,0.588391,-0.322679,0.340335,79.859669,-55.647134,6.984121
15801,NaN,-3.732522,5.074264,-3.493076,-6.203400,3.614555,-10.390524,0.278110,-0.781701,-0.601007,0.657576,0.591612,-0.323037,0.336505,80.752377,-55.386656,6.096765
15802,NaN,-5.589970,6.317890,-2.037528,-8.321249,2.157853,-11.002025,0.494430,-0.467960,-1.111677,0.657206,0.595867,-0.320413,0.332202,81.566960,-54.790657,5.454211
15803,NaN,-4.984376,6.399855,-1.999975,-8.051223,2.164653,-10.354253,0.241932,-0.259415,-1.148956,0.657938,0.598936,-0.317465,0.328040,82.049179,-54.163715,5.034396
15804,NaN,-3.187363,5.504243,-1.763564,-6.279715,1.968858,-9.308297,0.064858,-0.234003,-1.149666,0.659239,0.601412,-0.314637,0.323591,82.401651,-53.520069,4.649620
15805,NaN,-1.772089,5.289275,-1.628400,-5.253014,1.897693,-8.208810,0.014820,-0.288673,-1.433147,0.661014,0.604179,-0.311277,0.318018,82.775982,-52.730553,4.194696
15806,NaN,-0.889157,5.311284,-1.008695,-4.714396,1.333145,-7.360322,-0.146386,-0.305608,-1.871950,0.663920,0.607134,-0.306804,0.310598,83.097675,-51.677663,3.687605
15807,NaN,-0.703193,4.740115,-0.254873,-4.119354,0.568270,-7.417891,-0.314698,-0.321286,-2.325698,0.667920,0.610126,-0.301309,0.301402,83.343527,-50.379565,3.141948
15808,NaN,-0.148824,4.282155,-0.283248,-3.346529,0.601720,-7.190326,-0.301294,-0.400124,-2.676594,0.672200,0.613765,-0.294855,0.290689,83.653689,-48.871125,2.514707
15809,NaN,-0.247740,4.188403,-0.273473,-3.265544,0.592990,-7.231576,-0.001981,-0.532677,-2.980048,0.675649,0.618868,-0.287501,0.279007,84.196492,-47.208897,1.785882
15810,NaN,-0.956076,5.097053,-0.229453,-4.328887,0.603239,-7.012487,0.390195,-0.628449,-3.227787,0.677940,0.625683,-0.278998,0.266605,84.987268,-45.390460,1.008155
15811,NaN,-1.076137,6.290123,0.446605,-5.182072,0.002207,-6.062313,0.519010,-0.707763,-3.461028,0.679809,0.633126,-0.269867,0.253345,85.841281,-43.449442,0.215751
15812,NaN,-0.097234,7.279173,0.136275,-4.972736,0.356300,-4.506734,0.457178,-0.754787,-3.728983,0.681934,0.640613,-0.259941,0.238772,86.633720,-41.333864,-0.563958
15813,NaN,1.346137,7.550396,-0.685983,-3.801212,1.142640,-3.215071,0.437995,-0.686017,-3.886594,0.684120,0.647862,-0.249291,0.223848,87.320921,-39.133988,-1.236219
15814,NaN,2.461654,8.013938,-1.079176,-2.923877,1.484899,-2.022695,0.537934,-0.547742,-3.946234,0.685963,0.655163,-0.237668,0.209116,87.954614,-36.875142,-1.757236
15815,NaN,2.477600,8.305608,-1.098962,-2.771160,1.445449,-1.654849,0.653529,-0.477890,-3.962620,0.687234,0.662490,-0.225629,0.194697,88.579898,-34.617145,-2.183168
15816,NaN,2.963704,9.050852,-1.000850,-2.451194,1.275047,-0.644496,0.770463,-0.485213,-4.083684,0.687947,0.670129,-0.212907,0.179795,89.241360,-32.270002,-2.573890
15817,NaN,3.061283,10.044833,-0.963248,-2.503020,1.159776,0.364265,0.806528,-0.548038,-4.227477,0.688278,0.677750,-0.199889,0.164236,89.907520,-29.853262,-2.965439
15818,NaN,2.632454,11.364270,-0.740734,-3.087384,0.870837,1.426210,0.691587,-0.667938,-4.295494,0.688612,0.684860,-0.186950,0.147750,90.514100,-27.377317,-3.394908
15819,NaN,3.172362,11.821067,-0.710341,-2.322077,0.691738,2.204411,0.680447,-0.705812,-4.357481,0.688649,0.691638,-0.173947,0.130931,91.088904,-24.878200,-3.810270
15820,NaN,4.157385,12.607864,-0.371762,-1.226756,0.160801,3.409230,0.607346,-0.754166,-4.462310,0.688616,0.697972,-0.160603,0.113357,91.605102,-22.298253,-4.219444
15821,NaN,3.844431,14.244866,-0.269291,-1.510038,-0.053476,4.865335,0.287830,-0.830423,-4.711773,0.689398,0.703027,-0.146849,0.094436,91.923557,-19.588120,-4.643432
15822,NaN,5.082996,10.894232,-1.131609,1.451070,0.605909,2.158283,0.540173,-0.692079,-4.432553,0.688888,0.708334,-0.133294,0.077000,92.338000,-17.021607,-4.964332
15823,NaN,4.926328,15.916488,0.491078,0.361450,-1.229576,6.804958,0.511355,-0.713630,-4.877950,0.688251,0.713413,-0.118278,0.057988,92.713737,-14.214289,-5.264288
15824,NaN,4.715345,15.746866,0.553069,0.977258,-1.414400,6.542719,0.095238,-0.742742,-4.690553,0.688616,0.716565,-0.103977,0.039142,92.839987,-11.495833,-5.569425
15825,NaN,6.694859,17.473695,1.908610,3.240120,-3.060900,8.459292,-0.779297,-1.015154,-4.691788,0.691578,0.716318,-0.090825,0.018934,92.477591,-8.786381,-6.036600
15826,NaN,12.568204,14.000212,0.524444,10.462768,-2.245545,5.668577,-0.648715,-0.951308,-4.509468,0.693688,0.716046,-0.077939,-0.000457,92.166995,-6.169859,-6.482704
15827,NaN,14.806336,16.362744,0.461431,13.149021,-2.618092,7.718609,0.071635,-0.584987,-4.491921,0.693002,0.717870,-0.063907,-0.018104,92.230430,-3.588079,-6.723323
15828,NaN,12.738086,16.496471,-1.011354,12.016084,-1.059740,7.211896,-0.062627,-0.468557,-4.354880,0.692495,0.718849,-0.049832,-0.034970,92.204270,-1.073824,-6.897669
15829,NaN,10.275460,15.195340,-0.980474,10.276836,-0.858593,5.387501,-0.147198,-0.627564,-4.120888,0.691984,0.719110,-0.037198,-0.051524,92.121302,1.296291,-7.171437
15830,NaN,10.340793,14.889132,-0.278712,10.830378,-1.669474,4.629321,-0.103492,-0.889660,-3.791015,0.691062,0.719107,-0.026578,-0.067916,92.046361,3.493982,-7.604810
15831,NaN,10.457898,14.454681,-0.106879,11.398099,-1.963865,3.770781,-0.159378,-0.882825,-3.491154,0.690209,0.718612,-0.017059,-0.083166,91.922323,5.507709,-8.045975
15832,NaN,13.133928,13.119495,-0.979893,14.448947,-1.531437,1.781932,-0.239765,-0.841892,-3.098738,0.689601,0.717618,-0.008708,-0.096950,91.739075,7.304099,-8.476793
15833,NaN,15.743671,11.298482,-1.866773,17.217763,-1.065087,-0.790844,-0.156238,-0.677539,-2.695004,0.688750,0.716807,-0.001340,-0.108674,91.602261,8.855987,-8.826831
15834,NaN,17.584306,9.970988,-2.173318,19.063626,-1.069138,-2.829215,-0.020219,-0.357499,-2.256261,0.687531,0.716522,0.005529,-0.117759,91.564147,10.157614,-9.001187
15835,NaN,18.754311,9.106825,-1.166428,20.014426,-2.241645,-4.298493,-0.021924,-0.057805,-1.693697,0.686581,0.716348,0.011369,-0.123787,91.551568,11.125664,-9.011642
15836,NaN,18.713717,7.957141,0.731172,19.523058,-4.040526,-5.741497,0.143218,0.178246,-1.020266,0.685401,0.716894,0.015528,-0.126681,91.659410,11.707687,-8.893994
15837,NaN,16.656827,8.018549,2.364302,17.316975,-5.325583,-5.442667,0.450657,0.341632,-0.286251,0.683566,0.718637,0.017397,-0.126475,91.960688,11.862539,-8.692486
15838,NaN,15.301447,9.212522,2.792634,16.174786,-5.615831,-4.012510,0.492523,0.301262,0.431545,0.682028,0.720554,0.016527,-0.123967,92.278363,11.606687,-8.529193
15839,NaN,14.846903,9.698401,1.729717,15.948869,-4.538260,-3.292215,0.400144,0.185121,1.048298,0.681201,0.722116,0.013091,-0.119760,92.524977,10.999284,-8.450454
15840,NaN,11.804647,10.239284,0.315088,13.214448,-2.791006,-1.946564,0.743423,-0.189438,1.385617,0.679331,0.724611,0.006943,-0.115762,92.924778,10.206616,-8.603000
15841,NaN,6.921305,11.172126,4.180622,7.862115,-6.001566,-0.202110,0.079937,-0.164669,1.546386,0.679912,0.724826,0.000693,-0.111110,92.947843,9.323775,-8.748335
15842,NaN,-2.425323,8.946776,-3.046680,-0.584622,2.679722,-0.448661,0.464602,0.222472,1.347357,0.678955,0.726521,-0.003756,-0.105706,93.228424,8.539694,-8.665630
15843,NaN,-13.902384,10.644629,-0.885814,-12.014511,1.987278,2.799431,1.827820,0.486715,0.193230,0.672386,0.732954,-0.003813,-0.103247,94.317430,8.408103,-8.395365
15844,NaN,-18.165584,13.720640,3.949544,-16.650502,-2.632630,5.988171,0.572475,0.361964,0.971050,0.670779,0.735041,-0.006508,-0.098634,94.669867,7.832000,-8.234530
15845,NaN,1.632993,7.194810,2.478765,2.021139,-3.406150,-3.112914,0.586135,-0.441054,2.097545,0.669593,0.736683,-0.016026,-0.093199,94.962328,6.652950,-8.593813
15846,NaN,-1.186998,13.103458,-8.366592,1.402182,6.957236,4.070146,1.773856,-1.317488,1.996682,0.663805,0.741769,-0.028666,-0.091211,95.887315,5.581327,-9.462308
15847,NaN,-2.602820,23.713777,3.012676,-1.469935,-5.370903,13.578831,1.096388,-1.053908,1.859357,0.660377,0.744614,-0.039598,-0.088790,96.453515,4.584449,-10.183760
15848,NaN,8.269537,20.975198,0.665469,8.952349,-4.657663,10.359543,-0.740085,-1.199140,2.598945,0.663970,0.741046,-0.052950,-0.084806,95.973247,3.174467,-11.033797
15849,NaN,11.194430,15.159723,0.253361,11.271827,-4.039153,4.741022,-1.472139,-1.370071,2.366783,0.669973,0.734868,-0.065678,-0.082409,95.091069,1.897722,-11.950478
15850,NaN,5.705592,9.257094,-1.035255,5.858004,-0.997697,-0.647265,-0.967361,-0.494372,1.656090,0.674009,0.730845,-0.073075,-0.078979,94.528719,0.970422,-12.316370
15851,NaN,-1.315780,6.613457,0.095279,-1.348932,-0.309753,-3.212567,-0.837169,0.224103,1.444538,0.677684,0.727565,-0.077306,-0.073599,94.051562,0.132743,-12.253925
15852,NaN,-1.863238,3.903420,-1.356572,-1.610319,1.468352,-5.837902,-0.900404,0.343019,1.475429,0.681604,0.724042,-0.081237,-0.067682,93.536033,-0.729564,-12.117664
15853,NaN,0.694172,6.234870,0.464612,0.398274,-0.934683,-3.604735,-0.561636,0.242128,0.965462,0.684038,0.721813,-0.083756,-0.063745,93.214345,-1.292735,-12.015368
15854,NaN,2.130483,7.375037,-3.581628,2.532106,2.706376,-2.195509,-0.284662,0.148097,1.161757,0.685479,0.720387,-0.087409,-0.059342,93.051096,-1.967651,-11.970844
15855,NaN,4.892054,8.517914,-5.550509,5.469808,4.005073,-0.794214,0.717707,-0.123562,1.597124,0.683274,0.722091,-0.093835,-0.054000,93.469583,-2.880029,-12.097315
15856,NaN,3.364614,14.987534,2.964977,1.594606,-4.411087,5.111363,1.448576,-0.223081,1.734758,0.678352,0.726122,-0.101306,-0.048180,94.312996,-3.868900,-12.296560
15857,NaN,0.078398,14.549805,0.019160,-1.209486,-0.866813,4.660943,-0.121646,-0.105287,1.328678,0.679032,0.725002,-0.106496,-0.044118,94.254175,-4.626281,-12.417595
15858,NaN,0.798147,9.874708,-0.478555,-0.105808,-0.187997,0.103328,-1.027346,-0.422281,1.247497,0.682772,0.720733,-0.112281,-0.041944,93.692599,-5.328432,-12.713499
15859,NaN,3.141040,7.148133,-0.432793,2.353398,-0.547945,-2.375640,-0.557187,-0.439762,1.271520,0.684768,0.718012,-0.118285,-0.039501,93.405154,-6.042750,-13.015208
15860,NaN,3.232302,7.986400,-0.196800,2.194321,-0.802326,-1.517556,0.135088,-0.189243,1.326160,0.684406,0.717638,-0.123778,-0.035543,93.501736,-6.800611,-13.174070
15861,NaN,2.431636,10.104483,-0.117981,1.003021,-0.766733,0.503889,0.347243,-0.003693,1.319515,0.683362,0.717999,-0.128624,-0.030827,93.709323,-7.557788,-13.227799
15862,NaN,1.743914,10.228456,-1.201657,0.423581,0.440923,0.614742,0.209156,0.010471,1.231847,0.682783,0.717909,-0.133100,-0.026428,93.836708,-8.268462,-13.272556
15863,NaN,1.090888,8.733292,-1.560717,-0.014241,0.981233,-0.928306,0.456410,-0.103579,1.159356,0.681200,0.718675,-0.137713,-0.022539,94.116602,-8.929765,-13.382734
15864,NaN,0.010937,8.816247,0.046859,-1.529459,-0.360586,-1.137541,0.574942,-0.192402,1.162701,0.679106,0.719796,-0.142667,-0.018857,94.474219,-9.591674,-13.548619
15865,NaN,0.975182,9.400809,-0.561683,-0.686941,-0.033608,-0.369828,0.375439,-0.450523,1.142388,0.677511,0.720205,-0.148381,-0.016333,94.746030,-10.226066,-13.866971
15866,NaN,2.073215,10.225673,-1.879478,0.390485,0.939235,0.740012,0.282933,-0.596597,1.040851,0.676108,0.720329,-0.154228,-0.014730,94.982933,-10.796877,-14.268771
15867,NaN,2.284804,10.728168,-2.347457,0.494069,1.307890,1.316955,0.183815,-0.574457,0.985816,0.675048,0.720143,-0.159771,-0.013326,95.164777,-11.333074,-14.657521
15868,NaN,2.320237,10.151712,-1.645320,0.389957,0.646040,0.702907,-0.123546,-0.568284,0.951908,0.675077,0.718918,-0.165162,-0.012243,95.173079,-11.852396,-15.042729
15869,NaN,2.230167,8.803426,-1.366209,0.455813,0.470004,-0.652376,-0.284121,-0.582219,0.937315,0.675647,0.717144,-0.170516,-0.011408,95.094575,-12.360117,-15.435492
15870,NaN,3.179160,8.516679,-1.399604,1.349278,0.287888,-0.718963,-0.188942,-0.509354,0.941596,0.675918,0.715664,-0.175656,-0.010199,95.064764,-12.877055,-15.786376
15871,NaN,4.198580,9.367142,-1.256138,1.984626,-0.127640,0.335888,-0.029146,-0.330547,0.924284,0.675754,0.714735,-0.180116,-0.008285,95.105816,-13.390445,-16.032110
15872,NaN,2.914996,10.109461,-0.449561,0.306086,-0.558637,0.698927,-0.073004,-0.210148,0.876922,0.675838,0.713684,-0.184012,-0.006123,95.106773,-13.885651,-16.205629
15873,NaN,2.419130,9.598087,-0.132704,-0.193451,-0.691203,0.060369,-0.174996,-0.251079,0.895028,0.676234,0.712260,-0.188086,-0.004156,95.056887,-14.386391,-16.404076
15874,NaN,2.872683,9.349381,-0.247397,0.241567,-0.671211,-0.054871,-0.151383,-0.282466,0.856761,0.676501,0.710930,-0.192143,-0.002393,95.026335,-14.866559,-16.619363
15875,NaN,3.067698,9.171941,-0.266125,0.394311,-0.684906,-0.170025,0.007852,-0.232745,0.859920,0.676236,0.710127,-0.196025,-0.000304,95.081330,-15.348282,-16.805763
15876,NaN,3.216895,9.646754,-0.394399,0.344961,-0.597521,0.340492,0.149986,-0.137343,0.916651,0.675545,0.709728,-0.199797,0.002470,95.205194,-15.869665,-16.940119
15877,NaN,2.972826,10.197496,-0.419207,-0.130628,-0.503725,0.804782,0.175928,-0.137413,0.955845,0.674746,0.709366,-0.203688,0.005386,95.346249,-16.410437,-17.078040
15878,NaN,3.012176,10.137912,-0.551576,-0.142743,-0.375272,0.769972,0.038127,-0.135771,0.935939,0.674422,0.708538,-0.207517,0.008116,95.409265,-16.942304,-17.215462
15879,NaN,3.735141,9.533185,-0.819206,0.678262,-0.299499,0.431992,-0.011363,-0.059157,0.952246,0.674336,0.707512,-0.211127,0.011105,95.432249,-17.484922,-17.308659
15880,NaN,3.857516,9.409594,-0.450072,0.635637,-0.661060,0.325441,-0.015059,0.089907,0.943341,0.674407,0.706452,-0.214214,0.014602,95.426552,-18.033071,-17.312633
15881,NaN,3.098749,9.484200,-0.719721,-0.091147,-0.153303,0.189204,-0.114361,0.180509,0.868325,0.674915,0.705122,-0.216717,0.018045,95.345581,-18.540762,-17.257308
15882,NaN,2.575475,9.181862,-1.306433,-0.383070,0.597714,-0.213631,-0.254517,0.075291,0.810479,0.675797,0.703372,-0.219395,0.020784,95.202675,-19.012295,-17.261142
15883,NaN,2.735318,9.032467,-1.421983,-0.223330,0.704249,-0.297270,-0.240540,-0.061576,0.777088,0.676470,0.701713,-0.222398,0.022930,95.094269,-19.455252,-17.344619
15884,NaN,3.059874,9.235177,-1.368978,-0.081467,0.600151,-0.006662,-0.171652,-0.127327,0.785336,0.676817,0.700269,-0.225654,0.024962,95.039267,-19.902053,-17.468141
15885,NaN,3.211333,9.552239,-1.070877,-0.208278,0.309919,0.314738,-0.194348,-0.175210,0.816860,0.677172,0.698711,-0.229168,0.026894,94.982837,-20.362212,-17.622155
15886,NaN,3.382055,9.311992,-0.875504,-0.096216,0.103140,0.132039,-0.234684,-0.240501,0.808669,0.677582,0.697016,-0.232889,0.028536,94.918238,-20.816860,-17.815688
15887,NaN,3.465556,9.083141,-0.860575,-0.015287,0.092039,-0.053339,-0.225709,-0.279158,0.844471,0.677896,0.695307,-0.236845,0.030161,94.869488,-21.287996,-18.034656
15888,NaN,3.510619,8.800370,-0.665551,0.001064,-0.088619,-0.315026,-0.143525,-0.297421,0.830601,0.677891,0.693875,-0.240812,0.031786,94.873510,-21.752560,-18.264811
15889,NaN,3.582556,9.378977,-0.381247,-0.312510,-0.335871,0.223954,-0.142984,-0.301285,0.882435,0.677857,0.692374,-0.244953,0.033560,94.881855,-22.244348,-18.500685
15890,NaN,4.053122,9.311168,-0.637114,0.113904,-0.207715,0.359567,-0.095949,-0.308575,0.900939,0.677632,0.690990,-0.249181,0.035440,94.921531,-22.748325,-18.743300
15891,NaN,3.980286,9.947838,-0.440941,-0.346031,-0.323227,0.900465,-0.073613,-0.269166,0.897253,0.677364,0.689669,-0.253242,0.037459,94.966869,-23.249904,-18.962384
15892,NaN,3.997325,9.132310,-0.564713,-0.058577,-0.223197,0.169430,-0.090289,-0.233504,0.908999,0.677182,0.688249,-0.257231,0.039630,94.996273,-23.761833,-19.161279
15893,NaN,4.187447,9.195206,-0.367423,-0.067376,-0.442436,0.287832,-0.003871,-0.179768,0.939458,0.676750,0.687061,-0.261108,0.042188,95.064407,-24.291687,-19.329362
15894,NaN,4.202143,9.258351,-0.481384,-0.142651,-0.313620,0.360182,0.033078,-0.099015,0.975058,0.676272,0.685913,-0.264832,0.045203,95.135459,-24.847727,-19.450359
15895,NaN,4.017895,9.543239,-0.678094,-0.463174,-0.033976,0.553609,0.096065,-0.051507,1.006857,0.675618,0.684913,-0.268472,0.048559,95.232408,-25.422267,-19.544516
15896,NaN,4.149665,9.780474,-0.973452,-0.471811,0.242414,0.842952,0.082305,-0.043681,1.022072,0.674999,0.683821,-0.272145,0.051984,95.321137,-26.007619,-19.636242
15897,NaN,4.216087,9.658598,-1.262112,-0.385875,0.510764,0.781933,0.150606,-0.007919,1.062346,0.674167,0.682881,-0.275798,0.055748,95.441652,-26.615856,-19.709132
15898,NaN,4.215995,10.299880,-0.921948,-0.895821,0.241280,1.316108,0.286738,0.048173,1.093558,0.672917,0.682316,-0.279333,0.060005,95.626450,-27.246566,-19.750440
15899,NaN,4.425896,11.072867,-0.538719,-1.322930,-0.125006,2.049847,0.252415,0.058095,1.158271,0.671756,0.681524,-0.283045,0.064454,95.792132,-27.912869,-19.791789
15900,NaN,4.711691,11.080442,-0.248295,-1.318218,-0.463943,2.149045,0.194510,0.085551,1.241147,0.670779,0.680380,-0.286965,0.069199,95.920233,-28.629513,-19.823194
15901,NaN,4.637861,10.771392,-0.234033,-1.383776,-0.445615,1.826556,0.193222,0.142042,1.312154,0.669835,0.679087,-0.290916,0.074360,96.033469,-29.388336,-19.824459
15902,NaN,4.946364,10.772278,-0.447184,-1.224874,-0.302546,1.981992,0.266685,0.218829,1.338598,0.668712,0.677936,-0.294667,0.079983,96.165459,-30.168336,-19.779109
15903,NaN,5.163614,11.234709,-0.894333,-1.323154,0.123750,2.512596,0.317033,0.314535,1.436842,0.667485,0.676740,-0.298388,0.086320,96.298179,-31.008893,-19.679196
15904,NaN,4.551468,11.601521,-0.564144,-2.280307,0.045629,2.452086,0.314195,0.396251,1.463930,0.666339,0.675414,-0.301917,0.093022,96.400953,-31.871516,-19.527886
15905,NaN,4.869289,11.673052,-1.110544,-2.097563,0.525258,2.698288,0.248515,0.432236,1.519203,0.665402,0.673732,-0.305519,0.099918,96.453604,-32.766805,-19.356457
15906,NaN,5.149875,11.665869,-1.149922,-2.053824,0.536645,2.813724,0.252140,0.531090,1.571693,0.664533,0.671883,-0.308951,0.107326,96.470467,-33.699488,-19.120610
15907,NaN,4.990645,11.766408,-1.496312,-2.342207,0.976976,2.802765,0.262896,0.617180,1.591771,0.663701,0.669947,-0.312131,0.115092,96.456727,-34.648113,-18.824584
15908,NaN,4.700398,12.232734,-1.672424,-2.999034,1.318482,2.985491,0.314761,0.774802,1.676024,0.662839,0.667903,-0.315019,0.123743,96.406460,-35.655490,-18.421151
15909,NaN,4.351111,12.976054,-2.283718,-3.784800,2.110612,3.368361,0.468117,0.943797,1.793603,0.661593,0.666016,-0.317609,0.133572,96.369749,-36.739541,-17.901602
15910,NaN,3.755935,14.256845,-2.144002,-5.310333,2.266370,3.921115,0.562936,1.086327,1.914434,0.660099,0.664074,-0.320032,0.144413,96.317622,-37.901532,-17.280782
15911,NaN,3.491315,15.181723,-2.177390,-6.369071,2.470767,4.355425,0.542308,1.136298,2.016995,0.658589,0.661776,-0.322599,0.155702,96.218660,-39.123982,-16.619803
15912,NaN,2.747693,15.836983,-1.590966,-7.766332,2.159657,4.183782,0.397044,1.257462,1.999143,0.657676,0.658839,-0.324774,0.167077,95.956486,-40.341838,-15.850955
15913,NaN,2.092351,17.067611,-1.089825,-9.459556,1.916742,4.459631,0.765194,1.524825,2.108009,0.655785,0.656606,-0.326070,0.180262,95.751929,-41.635121,-14.867782
15914,NaN,0.931327,20.186710,-0.890826,-12.754948,2.121865,5.742213,0.905168,1.780920,2.084568,0.653746,0.654512,-0.326252,0.194398,95.458319,-42.925194,-13.657730
15915,NaN,-0.425135,21.520509,0.208747,-15.156836,1.319740,5.414555,0.346667,1.772521,2.039424,0.653434,0.650543,-0.326799,0.207415,94.799973,-44.182556,-12.411311
15916,NaN,0.255956,17.360873,1.280192,-12.223298,-0.050724,2.584175,-0.589113,1.693633,2.074958,0.655882,0.643425,-0.328615,0.218712,93.592629,-45.439851,-11.174532
15917,NaN,4.391704,12.695927,2.108936,-6.426437,-1.603540,2.063384,-0.760944,1.730428,2.405921,0.658439,0.635018,-0.331507,0.230895,92.203844,-46.869612,-9.850952
15918,NaN,6.280518,12.580956,1.457369,-5.257355,-0.963745,3.274203,-0.729814,1.566881,2.687127,0.660148,0.626289,-0.335695,0.243466,90.851360,-48.432648,-8.584292
15919,NaN,4.696982,13.095958,-0.817655,-6.671701,1.713160,2.302346,-0.662591,1.419624,2.640139,0.661287,0.617879,-0.340075,0.255489,89.541526,-49.951181,-7.352979
15920,NaN,5.660126,11.935764,-0.639300,-5.482400,1.531759,2.124411,-0.838483,1.150211,2.400305,0.662683,0.609516,-0.344736,0.265515,88.231105,-51.313089,-6.276811
15921,NaN,8.534800,10.509599,0.245918,-2.998150,0.501035,3.382113,-0.868561,1.004122,2.519049,0.663622,0.600911,-0.350236,0.275402,86.925092,-52.733991,-5.249012
15922,NaN,7.424033,9.666507,-1.515801,-3.060647,2.382072,1.840828,-0.472138,0.882058,2.488520,0.663080,0.593741,-0.355413,0.285445,85.859976,-54.124726,-4.256957
15923,NaN,3.213950,9.475287,-1.800693,-5.557031,2.923308,-1.817553,-0.153883,0.833423,2.162795,0.661858,0.588168,-0.359297,0.294802,84.965237,-55.325067,-3.266707
15924,NaN,-0.176643,8.245987,-2.550039,-6.518284,3.645786,-5.482783,-0.141242,0.716571,1.805861,0.660848,0.583398,-0.362434,0.302604,84.144963,-56.315450,-2.370075
15925,NaN,-2.626585,6.610269,-3.475482,-6.469229,4.399882,-8.603303,-0.190472,0.544528,1.316781,0.660352,0.579554,-0.364784,0.308196,83.446737,-57.035148,-1.662784
15926,NaN,-4.536120,5.507462,-3.663860,-6.577622,4.457509,-10.906939,-0.276255,0.370558,0.856310,0.660481,0.576531,-0.366468,0.311573,82.877714,-57.495916,-1.171259
15927,NaN,0.917404,3.878510,-5.830906,-2.009936,6.319383,-7.381786,-0.598554,0.102614,0.700199,0.661268,0.573117,-0.369106,0.313087,82.367844,-57.889655,-0.971498
15928,NaN,0.042172,4.206209,-3.986560,-2.979443,4.561080,-7.836304,-0.008845,-0.267606,-0.074896,0.660894,0.573677,-0.369792,0.312037,82.622830,-57.865795,-1.275012
15929,NaN,-5.047899,5.334335,-3.127732,-6.753987,3.926844,-11.450403,0.519758,0.052125,-0.889916,0.660850,0.576962,-0.366282,0.310209,82.981386,-57.359602,-1.344691
15930,NaN,-5.123946,6.800870,-2.734475,-8.097563,3.710358,-10.616179,0.565234,0.434718,-1.151978,0.661765,0.580287,-0.360639,0.308663,83.057347,-56.672493,-1.045320
15931,NaN,-2.420348,6.522570,-2.325047,-6.448363,3.199771,-8.402872,0.327577,0.501219,-0.910579,0.663085,0.582242,-0.355858,0.307697,82.918466,-56.123016,-0.650938
15932,NaN,0.250511,5.882971,-0.960366,-4.572444,1.727305,-6.391682,0.106806,0.249419,-1.048082,0.664798,0.584108,-0.351810,0.305109,82.889771,-55.507262,-0.538077
15933,NaN,1.302606,5.399873,-0.303200,-3.605989,1.007022,-5.698143,-0.179086,0.054505,-1.532871,0.667707,0.586119,-0.347445,0.299854,82.904606,-54.635280,-0.678988
15934,NaN,0.687910,4.362686,-1.086129,-2.969326,1.655349,-6.791409,-0.210867,-0.001511,-2.093719,0.671402,0.589062,-0.341609,0.292451,82.997241,-53.442399,-0.938288
15935,NaN,0.242510,3.181920,-0.517820,-2.300979,0.941183,-7.746108,-0.124908,-0.040200,-2.380961,0.675108,0.592738,-0.334921,0.284111,83.177800,-52.094293,-1.252530
15936,NaN,0.402042,3.218129,0.301677,-2.270546,0.130201,-7.481142,0.088829,-0.004799,-2.545615,0.678375,0.597299,-0.327237,0.275603,83.453374,-50.643405,-1.535467
15937,NaN,0.227217,4.236824,0.402702,-3.102844,0.162256,-6.895607,0.163324,-0.017721,-2.769950,0.681583,0.602363,-0.318801,0.266401,83.773865,-49.070686,-1.829763
15938,NaN,0.356327,4.639801,0.091740,-3.194915,0.505187,-6.466223,0.350182,-0.101441,-2.975231,0.684231,0.608405,-0.309680,0.256457,84.246490,-47.378609,-2.189536
15939,NaN,0.743368,5.280842,0.106487,-3.286168,0.536339,-5.645897,0.421879,-0.166296,-3.237866,0.686724,0.615005,-0.299850,0.245498,84.779982,-45.544373,-2.589310
15940,NaN,1.282724,5.896732,-0.293747,-3.148452,0.954548,-4.745579,0.479821,-0.208640,-3.407239,0.688994,0.621963,-0.289452,0.233811,85.345312,-43.606691,-2.997804
15941,NaN,1.975272,6.419177,-0.598223,-2.781299,1.242696,-3.797661,0.521953,-0.208796,-3.580008,0.691116,0.629095,-0.278414,0.221550,85.902826,-41.573859,-3.376777
15942,NaN,2.321284,6.977209,-0.579680,-2.661907,1.208679,-3.041224,0.623263,-0.166254,-3.733865,0.692913,0.636554,-0.266499,0.208921,86.469663,-39.442355,-3.693891
15943,NaN,2.560647,7.570976,-0.368354,-2.608081,0.972457,-2.312267,0.713990,-0.112683,-3.870035,0.694375,0.644190,-0.253810,0.196070,87.033682,-37.235406,-3.940443
15944,NaN,2.607966,8.251633,-0.122784,-2.700834,0.699719,-1.620526,0.805926,-0.076048,-4.006151,0.695442,0.652047,-0.240323,0.182865,87.611792,-34.941177,-4.131528
15945,NaN,2.523735,8.754148,-0.066953,-2.728778,0.593661,-1.140985,0.718830,-0.199036,-4.052585,0.696394,0.659471,-0.227131,0.168953,88.161422,-32.628133,-4.375691
15946,NaN,2.590222,9.270832,0.219927,-2.617362,0.236554,-0.550623,0.763661,-0.301877,-4.114321,0.696833,0.666946,-0.213915,0.154428,88.749539,-30.272705,-4.657003
15947,NaN,2.845982,9.972679,0.662511,-2.398771,-0.298062,0.293442,0.809321,-0.370896,-4.149873,0.696763,0.674351,-0.200733,0.139566,89.357205,-27.901901,-4.948990
15948,NaN,3.309732,10.774169,1.324645,-1.989902,-1.087312,1.306229,0.806251,-0.393964,-4.210653,0.696403,0.681536,-0.187294,0.124309,89.945452,-25.486998,-5.221873
15949,NaN,4.095206,11.252302,1.454282,-1.021003,-1.405410,2.122950,0.733877,-0.366049,-4.310642,0.696051,0.688202,-0.173416,0.108712,90.460047,-23.019450,-5.446119
15950,NaN,4.460380,11.705564,0.696216,-0.269412,-0.814983,2.702774,0.669039,-0.359410,-4.434178,0.695649,0.694425,-0.158996,0.092559,90.918122,-20.472689,-5.638392
15951,NaN,3.735543,12.479952,0.570535,-0.644814,-0.763676,3.187313,0.758955,-0.369016,-4.534600,0.694615,0.700666,-0.144180,0.076085,91.411335,-17.873731,-5.810002
15952,NaN,3.009476,13.282491,0.538769,-0.981080,-0.821583,3.755684,0.682164,-0.459814,-4.608514,0.693435,0.706366,-0.129329,0.058903,91.862301,-15.222950,-6.009293
15953,NaN,3.257799,14.450232,1.248747,-0.476617,-1.727528,4.942982,0.603576,-0.552343,-4.687597,0.692113,0.711462,-0.114514,0.041073,92.265233,-12.530378,-6.239098
15954,NaN,4.498709,15.310527,1.529586,1.208152,-2.326013,6.001051,0.471547,-0.665818,-4.657195,0.690797,0.715721,-0.100118,0.022810,92.592118,-9.844408,-6.515409
15955,NaN,6.741109,16.523451,2.399780,3.841161,-3.639938,7.396831,0.213317,-0.740797,-4.597525,0.689984,0.718659,-0.086213,0.004379,92.761911,-7.196104,-6.823337
15956,NaN,9.706178,17.229777,2.429360,7.448042,-4.194475,8.183011,-0.037030,-0.743821,-4.528452,0.689694,0.720328,-0.072484,-0.013969,92.774644,-4.580461,-7.128231
15957,NaN,11.071677,17.257745,1.735001,9.651499,-3.825925,7.951523,0.038466,-0.689943,-4.359386,0.688820,0.721826,-0.059189,-0.031471,92.814677,-2.069240,-7.405344
15958,NaN,10.625993,17.479518,0.622430,10.080402,-2.826772,7.770440,-0.077851,-0.771126,-4.196948,0.688038,0.722528,-0.046676,-0.048757,92.777245,0.356722,-7.732332
15959,NaN,10.531631,16.297767,-0.217750,10.777057,-2.066502,6.190847,-0.235203,-1.024137,-4.019121,0.687509,0.722261,-0.035654,-0.066329,92.631617,2.681807,-8.213555
15960,NaN,11.048740,14.500040,-1.408626,11.958950,-1.022773,3.978863,-0.345213,-1.418745,-3.682179,0.687131,0.721129,-0.027123,-0.084185,92.388441,4.826720,-8.937837
15961,NaN,12.930214,13.312352,-2.289519,14.312814,-0.585548,2.204522,-0.229801,-1.709859,-3.328807,0.686196,0.719953,-0.020935,-0.101806,92.166602,6.768588,-9.849150
15962,NaN,15.655815,12.048361,-2.804088,17.279332,-0.726848,0.136676,-0.234997,-1.649132,-2.992329,0.685231,0.718525,-0.015719,-0.118039,91.915044,8.516046,-10.743455
15963,NaN,18.283618,9.833607,-3.082975,19.807090,-1.051625,-2.954095,-0.126561,-1.170554,-2.527291,0.684027,0.717536,-0.010615,-0.130905,91.742218,9.981864,-11.379399
15964,NaN,18.957578,8.530910,-1.558053,20.058002,-2.757404,-4.847497,0.286611,-0.390235,-1.912083,0.681680,0.718337,-0.005307,-0.138835,91.872909,11.082736,-11.574914
15965,NaN,18.033947,8.293831,0.197634,18.832673,-4.326484,-5.267682,0.691688,0.373118,-1.205179,0.678343,0.720974,-0.000228,-0.141585,92.318680,11.762098,-11.334848
15966,NaN,16.153945,9.576472,1.471271,17.065593,-5.287372,-3.843475,0.891793,0.843973,-0.457586,0.674780,0.724591,0.003611,-0.140095,92.935321,11.999103,-10.832539
15967,NaN,13.479712,11.514992,1.611700,14.869199,-5.086183,-1.450096,0.810198,0.663406,0.060071,0.671858,0.727787,0.005023,-0.137506,93.480726,11.940662,-10.450279
15968,NaN,14.039954,12.165471,3.947552,15.050869,-7.527775,-1.009027,-0.078757,0.063863,0.747554,0.672643,0.727589,0.002521,-0.134757,93.439157,11.506935,-10.443204
15969,NaN,18.687822,10.499934,1.819034,19.539861,-6.103828,-3.200749,-0.876341,-0.558955,1.652043,0.676911,0.724258,-0.004820,-0.131221,92.865685,10.576619,-10.825736
15970,NaN,12.273311,9.004031,-5.266865,14.357833,2.121720,-2.827726,0.033143,-0.353352,2.053413,0.678087,0.724056,-0.013532,-0.125533,92.839932,9.406245,-11.094498
15971,NaN,-3.938091,9.234507,-2.624933,-1.980007,2.496357,0.062443,1.988611,0.195971,1.388776,0.671713,0.730780,-0.019184,-0.119975,93.990927,8.602480,-11.032701
15972,NaN,-17.465990,13.796880,2.265860,-15.670791,-0.452180,6.148186,2.361281,0.768482,0.765498,0.663553,0.739044,-0.020876,-0.114347,95.404637,8.123690,-10.629539
15973,NaN,-19.182384,14.177040,-0.072163,-17.101467,1.881118,6.708211,0.640172,0.154623,1.921509,0.662258,0.741025,-0.027869,-0.107333,95.770328,7.016701,-10.652507
15974,NaN,-6.955758,18.162223,1.290163,-5.448484,-2.062181,8.787024,-0.252478,-1.230435,2.699857,0.664388,0.739076,-0.041860,-0.102970,95.533190,5.542489,-11.515501
15975,NaN,12.997545,20.891200,2.321984,13.420908,-7.143955,9.669354,-1.404539,-1.899244,3.312523,0.670737,0.732593,-0.059718,-0.099262,94.628249,3.745636,-12.775288
15976,NaN,18.746787,17.339061,2.850472,18.166907,-8.526593,6.232025,-1.250088,-1.592356,2.407634,0.675943,0.726805,-0.073303,-0.097374,93.858844,2.432798,-13.792583
15977,NaN,10.665613,11.423252,-1.709185,10.949331,-1.694748,1.340769,-1.105513,-0.545398,2.020693,0.680685,0.722018,-0.081987,-0.092929,93.214733,1.293726,-14.179745
15978,NaN,3.225418,7.467550,-1.318754,3.434750,0.074483,-2.322631,-0.448281,0.045416,2.212031,0.683298,0.719563,-0.089665,-0.085401,92.958993,0.020989,-14.225996
15979,NaN,-0.504828,5.270496,3.358710,-1.433866,-3.381919,-4.731399,0.160963,0.183792,2.238328,0.683701,0.719149,-0.097194,-0.077017,93.052763,-1.268054,-14.191707
15980,NaN,-0.994176,5.822323,-0.271877,-1.158056,0.243572,-4.019580,0.312392,0.137738,2.038611,0.683384,0.719242,-0.104229,-0.069383,93.232949,-2.444428,-14.180911
15981,NaN,0.616369,6.739715,-2.374561,0.746187,1.853270,-2.924307,0.297467,-0.208729,1.656465,0.682742,0.719303,-0.111039,-0.064318,93.414373,-3.387781,-14.359194
15982,NaN,0.793200,9.400776,1.536350,-0.351721,-2.079781,-0.489952,0.145327,-0.406673,1.359834,0.682403,0.718897,-0.117421,-0.061043,93.517973,-4.157007,-14.643458
15983,NaN,-0.129141,10.398996,-3.848115,-0.115353,3.345376,0.758866,-0.081939,-0.437618,1.303522,0.682808,0.717708,-0.123612,-0.058217,93.496642,-4.889920,-14.943996
15984,NaN,2.099885,9.578608,-3.250696,1.832241,2.257764,0.100430,0.016734,-0.462817,1.631199,0.682900,0.716598,-0.131104,-0.054283,93.538462,-5.811980,-15.271389
15985,NaN,4.144096,9.862674,-1.418379,3.133831,-0.049782,0.513570,0.381634,-0.416670,1.631564,0.681662,0.716698,-0.138512,-0.049954,93.792198,-6.732401,-15.574864
15986,NaN,2.694026,10.378357,-0.252133,1.204337,-0.818518,0.813169,0.470989,-0.342288,1.498452,0.680076,0.717159,-0.145219,-0.045732,94.096387,-7.580933,-15.835595
15987,NaN,1.115412,10.122218,0.579624,-0.642503,-1.196002,0.296432,0.434139,-0.443098,1.375378,0.678477,0.717520,-0.151793,-0.042329,94.391153,-8.350759,-16.153840
15988,NaN,2.185146,9.912450,0.018111,0.411273,-0.948518,0.284905,0.276464,-0.457518,1.333662,0.677389,0.717332,-0.158242,-0.039221,94.601271,-9.097403,-16.482886
15989,NaN,3.048068,9.906572,0.418231,0.982570,-1.572907,0.393428,0.196717,-0.445773,1.257894,0.676546,0.716905,-0.164338,-0.036404,94.768668,-9.797566,-16.804370
15990,NaN,2.945016,9.253303,-0.102152,1.019308,-1.022537,-0.209495,0.252303,-0.247118,1.245175,0.675637,0.716676,-0.169737,-0.032856,94.951781,-10.501803,-17.013171
15991,NaN,2.767669,9.360703,-0.770922,0.893581,-0.338377,-0.067798,0.394182,-0.166267,1.165602,0.674245,0.716983,-0.174577,-0.029180,95.209731,-11.161268,-17.173788
15992,NaN,3.028227,9.755248,-1.197514,1.052058,-0.025867,0.417677,0.368912,-0.081057,1.112169,0.672987,0.717233,-0.178944,-0.025385,95.445070,-11.796746,-17.285453
15993,NaN,3.141495,9.912280,-1.175637,0.998266,-0.087483,0.603602,0.305180,0.011274,1.076623,0.672012,0.717292,-0.182843,-0.021449,95.634037,-12.414003,-17.343607
15994,NaN,2.942902,9.893331,-1.451051,0.778947,0.239863,0.578601,0.227992,0.087453,1.042783,0.671361,0.717104,-0.186367,-0.017409,95.769487,-13.018764,-17.357490
15995,NaN,2.951083,9.722133,-1.719487,0.794661,0.511492,0.448471,0.161768,0.086887,0.996622,0.670923,0.716723,-0.189699,-0.013602,95.866954,-13.594528,-17.369941
15996,NaN,2.937727,9.384733,-1.527937,0.716259,0.358901,0.106761,0.102487,0.138148,0.945026,0.670727,0.716172,-0.192683,-0.009826,95.922766,-14.146462,-17.350298
15997,NaN,3.098094,8.881882,-1.325388,0.851919,0.150229,-0.352577,0.137039,0.209474,0.890458,0.670457,0.715782,-0.195213,-0.005958,95.987096,-14.668983,-17.285584
15998,NaN,3.168878,9.286740,-1.228005,0.696226,0.041564,0.051708,0.174895,0.219956,0.816469,0.670046,0.715572,-0.197456,-0.002249,96.069918,-15.152589,-17.210934
15999,NaN,3.047262,9.859460,-0.611071,0.174224,-0.516382,0.510614,0.189953,0.258304,0.809621,0.669607,0.715411,-0.199527,0.001574,96.154791,-15.632207,-17.113445
16000,NaN,2.110839,10.212240,-1.261596,-0.700496,0.379555,0.661175,0.082217,0.219577,0.763112,0.669503,0.714919,-0.201574,0.005010,96.182672,-16.085519,-17.036476
16001,NaN,1.987661,9.669770,-1.227496,-0.735196,0.417080,0.099281,-0.099485,0.034602,0.701818,0.669853,0.713879,-0.204007,0.007382,96.135533,-16.490051,-17.064817
16002,NaN,2.781750,9.128860,-1.153000,0.074559,0.160282,-0.201650,-0.146378,-0.097759,0.670280,0.670229,0.712706,-0.206785,0.009141,96.083631,-16.870913,-17.169845
16003,NaN,3.084408,8.985904,-1.309374,0.375936,0.249326,-0.232988,-0.048272,-0.100535,0.702576,0.670242,0.711824,-0.209665,0.011087,96.089738,-17.267702,-17.278355
16004,NaN,3.136868,9.477817,-1.130964,0.155566,0.073388,0.233109,0.008940,-0.079114,0.715616,0.670065,0.711104,-0.212528,0.013225,96.125894,-17.675466,-17.375578
16005,NaN,3.129238,9.741662,-0.998749,-0.040726,-0.037337,0.467688,-0.018065,-0.063741,0.709514,0.669992,0.710296,-0.215303,0.015356,96.144399,-18.078372,-17.463345
16006,NaN,3.081064,9.639852,-0.838271,-0.162361,-0.154963,0.339732,-0.079625,-0.060328,0.694376,0.670133,0.709283,-0.218029,0.017395,96.127355,-18.475071,-17.548573
16007,NaN,3.473745,9.443087,-0.666033,0.144037,-0.406317,0.261840,-0.079979,-0.040194,0.738309,0.670285,0.708215,-0.220826,0.019638,96.107710,-18.895845,-17.624314
16008,NaN,3.326405,9.404039,-0.613227,-0.060356,-0.390449,0.173324,-0.050404,-0.039401,0.739252,0.670324,0.707230,-0.223631,0.021933,96.105447,-19.319362,-17.700012
16009,NaN,3.184376,9.328995,-0.808164,-0.177094,-0.139142,0.075306,-0.099178,-0.078012,0.700566,0.670487,0.706124,-0.226418,0.023894,96.082731,-19.716362,-17.796376
16010,NaN,3.384670,9.440417,-0.875081,-0.086006,-0.108146,0.253280,-0.074108,-0.076023,0.735297,0.670551,0.705049,-0.229327,0.026018,96.075423,-20.135370,-17.894167
16011,NaN,3.559391,9.614887,-0.918893,-0.052323,-0.091877,0.480417,-0.068122,-0.084745,0.763389,0.670570,0.703957,-0.232348,0.028201,96.074784,-20.567784,-17.999055
16012,NaN,3.626931,9.658300,-0.896909,-0.090090,-0.106404,0.542110,-0.093333,-0.101096,0.800243,0.670643,0.702724,-0.235566,0.030431,96.064938,-21.022226,-18.116808
16013,NaN,3.785828,9.212560,-1.010635,0.171965,-0.020585,0.197039,-0.121480,-0.093712,0.801891,0.670812,0.701386,-0.238752,0.032647,96.038312,-21.476077,-18.230108
16014,NaN,3.663653,8.711926,-1.198947,0.232648,0.215194,-0.291313,-0.084557,-0.048492,0.797247,0.670895,0.700154,-0.241773,0.035062,96.023380,-21.931997,-18.315797
16015,NaN,3.820104,8.677399,-1.254590,0.325344,0.244835,-0.257682,0.021836,0.009309,0.830067,0.670659,0.699222,-0.244680,0.037905,96.057573,-22.408134,-18.368180
16016,NaN,3.893222,9.143845,-1.037058,0.065338,0.044218,0.179096,0.073280,0.069953,0.856862,0.670299,0.698401,-0.247474,0.041124,96.108154,-22.905093,-18.385698
16017,NaN,3.908567,9.279104,-0.927054,-0.090810,-0.043064,0.298067,0.089868,0.104328,0.856534,0.669912,0.697620,-0.250133,0.044470,96.160181,-23.402045,-18.382194
16018,NaN,3.921064,9.364816,-1.436883,-0.065182,0.460786,0.430449,0.165046,0.141025,0.885064,0.669288,0.697029,-0.252758,0.048144,96.247154,-23.919380,-18.358684
16019,NaN,3.765315,9.903502,-0.862993,-0.676749,-0.017207,0.795922,0.219389,0.167165,0.918092,0.668485,0.696561,-0.255380,0.052076,96.359648,-24.455349,-18.321778
16020,NaN,3.480469,10.527048,-0.229471,-1.463404,-0.516016,1.168033,0.246453,0.170195,0.968507,0.667562,0.696096,-0.258165,0.056231,96.488502,-25.022065,-18.287846
16021,NaN,3.306526,10.935222,-0.022468,-1.958115,-0.639252,1.424246,0.151624,0.132470,1.034323,0.666884,0.695226,-0.261314,0.060340,96.575302,-25.622066,-18.283196
16022,NaN,3.362143,10.919144,-0.636772,-1.858327,-0.039474,1.478060,0.018058,0.019493,1.081496,0.666490,0.693859,-0.265047,0.064047,96.618585,-26.243127,-18.354419
16023,NaN,3.616885,10.380151,-1.065608,-1.403030,0.316527,1.136967,-0.003518,-0.073621,1.141838,0.666006,0.692352,-0.269288,0.067592,96.679210,-26.890651,-18.490196
16024,NaN,4.166776,10.319390,-1.344918,-0.962261,0.456550,1.346377,0.064356,-0.071769,1.217154,0.665241,0.690940,-0.273759,0.071492,96.782985,-27.582484,-18.632488
16025,NaN,4.275784,10.595996,-1.373286,-1.133555,0.490097,1.629182,0.126518,0.002752,1.295191,0.664309,0.689579,-0.278211,0.075982,96.905505,-28.322043,-18.735135
16026,NaN,4.429600,10.738577,-1.075483,-1.305320,0.197073,1.778266,0.134799,0.078018,1.371111,0.663394,0.688075,-0.282666,0.081000,97.014538,-29.111218,-18.797579
16027,NaN,4.482150,11.098907,-1.050929,-1.609538,0.210330,2.092879,0.114862,0.141699,1.433330,0.662579,0.686361,-0.287110,0.086403,97.095918,-29.938764,-18.825285
16028,NaN,4.465893,11.125893,-0.972641,-1.827031,0.188466,2.074256,0.043666,0.207071,1.496353,0.662039,0.684250,-0.291576,0.092140,97.118189,-30.808030,-18.816321
16029,NaN,4.847222,11.206521,-1.042612,-1.718720,0.210154,2.318570,0.062160,0.287401,1.567887,0.661479,0.682022,-0.295988,0.098402,97.126452,-31.722399,-18.759933
16030,NaN,4.885904,11.515384,-1.130617,-2.020847,0.357157,2.578417,0.166758,0.395864,1.619585,0.660653,0.679960,-0.300151,0.105360,97.157151,-32.675042,-18.634915
16031,NaN,4.657454,12.108656,-1.117003,-2.735381,0.495638,2.908436,0.181121,0.516687,1.678814,0.659879,0.677747,-0.304081,0.112932,97.151634,-33.668862,-18.431675
16032,NaN,4.635858,12.553202,-1.511008,-3.120994,0.968032,3.251569,0.234380,0.654447,1.699797,0.659069,0.675540,-0.307578,0.121117,97.119806,-34.685330,-18.132839
16033,NaN,4.364347,13.804816,-2.172236,-4.137844,1.806615,4.113788,0.399389,0.822161,1.824318,0.657821,0.673524,-0.310808,0.130515,97.114562,-35.783453,-17.723795
16034,NaN,3.547589,16.227616,-1.877424,-6.564734,1.911655,5.441321,0.533157,1.007382,2.011790,0.656210,0.671453,-0.313940,0.141351,97.107655,-37.001982,-17.194307
16035,NaN,3.117207,18.202098,-2.747893,-8.234092,3.014603,6.670135,0.462048,1.167639,1.918853,0.655068,0.669095,-0.316239,0.152284,96.969808,-38.177669,-16.531228
16036,NaN,2.118684,20.115152,-3.411382,-10.422599,4.017679,7.390598,0.688126,1.377360,2.136822,0.653236,0.666869,-0.318361,0.164969,96.856883,-39.490881,-15.719527
16037,NaN,0.240721,19.538652,-3.275150,-11.866682,4.242561,5.474854,0.512593,1.494584,2.012366,0.652167,0.664060,-0.319775,0.177330,96.552546,-40.738586,-14.788441
16038,NaN,-0.748246,17.500984,-2.342423,-11.753013,3.401079,2.939448,0.398410,1.696344,2.035738,0.651668,0.660550,-0.320652,0.190221,96.047842,-42.006751,-13.676617
16039,NaN,-0.368042,16.607558,-0.420652,-11.484793,1.400620,2.114138,0.225245,2.064336,2.218577,0.652023,0.655696,-0.321036,0.204609,95.211132,-43.390533,-12.249791
16040,NaN,3.012430,15.042409,1.920601,-8.631312,-1.448620,2.932103,-0.038965,2.233337,2.452860,0.653112,0.649270,-0.321818,0.219832,94.066656,-44.896445,-10.635866
16041,NaN,6.953463,15.131307,3.478075,-6.463173,-3.305362,5.572054,-0.528142,1.985528,2.578150,0.655073,0.641135,-0.324274,0.233819,92.696278,-46.441048,-9.140664
16042,NaN,6.773862,13.606842,0.269922,-5.426018,0.042610,4.387465,-0.571053,1.654991,2.661264,0.656369,0.632948,-0.328033,0.246880,91.409469,-48.000194,-7.830752
16043,NaN,4.703443,12.475762,1.262699,-6.392606,-0.635906,1.938107,-0.543731,1.553492,2.555338,0.657381,0.624992,-0.331688,0.259266,90.111402,-49.479018,-6.516005
16044,NaN,7.588169,10.322713,0.754332,-3.134985,-0.331978,2.627475,-0.703004,1.398794,2.618190,0.658404,0.616469,-0.336164,0.271041,88.733420,-50.972166,-5.244714
16045,NaN,7.545074,8.934097,-1.597675,-2.128267,2.064243,1.610923,-0.380134,1.264793,2.529204,0.658180,0.609201,-0.340308,0.282603,87.545508,-52.400189,-4.006009
16046,NaN,3.394051,9.386297,-1.990479,-5.209470,2.778419,-1.522876,0.100438,1.219067,2.197708,0.656768,0.604038,-0.342840,0.293691,86.597806,-53.623245,-2.744933
16047,NaN,-0.717830,8.839590,-2.120694,-7.346933,2.985431,-5.311837,0.142508,1.216791,1.872555,0.655604,0.599483,-0.344300,0.303746,85.622975,-54.649668,-1.439007
16048,NaN,-3.364028,7.067105,-2.569095,-7.470918,3.272803,-8.657945,-0.095281,1.071375,1.400708,0.655558,0.595129,-0.345134,0.311366,84.603295,-55.397932,-0.258420
16049,NaN,-5.131228,5.073936,-2.786191,-6.839713,3.265787,-11.358478,-0.253464,0.780220,0.898687,0.656218,0.591533,-0.345669,0.316195,83.737793,-55.868128,0.616483
16050,NaN,-0.438113,3.393916,-3.941352,-2.733104,4.262582,-8.545713,-0.330073,0.413908,0.759548,0.656678,0.588499,-0.347089,0.319329,83.131949,-56.273960,1.121735
16051,NaN,-2.039679,4.193147,-3.390896,-4.338355,3.776836,-9.418856,0.380513,-0.022763,0.018832,0.655459,0.589763,-0.346641,0.319989,83.374023,-56.289599,1.095116
16052,NaN,-6.946366,5.316966,-1.954275,-8.129200,2.378020,-12.745541,0.885211,0.072218,-0.803568,0.654223,0.593955,-0.342626,0.319087,83.903829,-55.827874,1.071066
16053,NaN,-5.943194,6.495728,-1.368555,-8.614728,1.857087,-11.126123,0.927176,0.247238,-1.219915,0.653791,0.598678,-0.336735,0.317414,84.340764,-55.121429,1.187851
16054,NaN,-3.374101,6.503045,-1.035742,-7.187297,1.501863,-8.899757,0.601481,0.228695,-0.998156,0.653925,0.601978,-0.332049,0.315830,84.586578,-54.539490,1.312153
16055,NaN,-1.345462,6.274053,-0.263194,-5.852730,0.710871,-7.266504,0.328043,-0.048350,-1.090192,0.654540,0.604939,-0.328433,0.312664,84.898607,-53.923331,1.161599
16056,NaN,-0.242962,5.854664,-0.975900,-4.789656,1.390681,-6.585779,0.188254,-0.214107,-1.582083,0.656047,0.608497,-0.324052,0.307122,85.284079,-53.030237,0.819736
16057,NaN,-0.266629,5.306848,-0.741498,-4.322126,1.111010,-6.834875,0.118430,-0.297565,-2.079117,0.658333,0.612689,-0.318534,0.299576,85.700882,-51.859334,0.382012
16058,NaN,-0.763489,4.743009,-0.485691,-4.138894,0.811913,-7.462343,0.088044,-0.303237,-2.451079,0.661178,0.617319,-0.311875,0.290680,86.098824,-50.470251,-0.060310
16059,NaN,-0.417598,4.210775,0.085204,-3.478086,0.205598,-7.410222,0.023445,-0.319240,-2.699261,0.664443,0.622024,-0.304568,0.280785,86.451812,-48.942051,-0.502939
16060,NaN,-0.494764,4.479150,0.259532,-3.669267,0.046860,-7.184428,0.202808,-0.309905,-2.963661,0.667404,0.627605,-0.296068,0.270235,86.882569,-47.256224,-0.921568
16061,NaN,-0.941820,5.025404,0.136816,-4.282221,0.199766,-7.023284,0.320938,-0.333476,-3.270837,0.670205,0.633895,-0.286476,0.258716,87.370167,-45.397273,-1.338749
16062,NaN,-0.572535,5.978282,0.209264,-4.592725,0.159620,-5.941087,0.473792,-0.360026,-3.420295,0.672490,0.640779,-0.276193,0.246734,87.928811,-43.446473,-1.744789
16063,NaN,0.305851,7.056423,0.115065,-4.528144,0.259729,-4.397625,0.492305,-0.353490,-3.586541,0.674712,0.647729,-0.265271,0.234184,88.460112,-41.402043,-2.111289
16064,NaN,1.414684,7.708229,0.131133,-3.904504,0.201149,-3.019872,0.410626,-0.291223,-3.770669,0.677268,0.654366,-0.253519,0.221001,88.885316,-39.244542,-2.400240
16065,NaN,2.139755,8.006963,-0.240897,-3.236602,0.513404,-2.196922,0.407384,-0.188354,-3.934605,0.679887,0.660824,-0.240818,0.207537,89.237025,-36.995310,-2.588684
16066,NaN,2.472162,8.434649,0.011380,-2.923854,0.213021,-1.527173,0.426813,-0.109712,-4.105468,0.682439,0.667218,-0.227137,0.193665,89.550267,-34.642129,-2.701064
16067,NaN,2.463271,8.735119,-0.119918,-2.743910,0.297661,-1.166637,0.430970,-0.098941,-4.253708,0.684829,0.673474,-0.212851,0.179269,89.847304,-32.208289,-2.788469
16068,NaN,2.279141,9.182583,-0.172621,-2.757200,0.303831,-0.766401,0.575428,-0.095277,-4.350748,0.686504,0.680023,-0.197965,0.164595,90.213863,-29.713592,-2.854436
16069,NaN,2.158627,10.156381,0.343256,-2.956927,-0.268346,0.142030,0.655779,-0.095694,-4.394458,0.687605,0.686545,-0.182801,0.149796,90.613330,-27.198406,-2.900092
16070,NaN,2.755757,11.211507,0.822347,-2.463525,-0.856073,1.463133,0.636975,-0.157368,-4.441762,0.688408,0.692763,-0.167576,0.134504,91.009074,-24.650400,-2.963877
16071,NaN,3.708081,11.987102,0.634314,-1.383157,-0.806858,2.647292,0.478790,-0.258167,-4.562028,0.689400,0.698236,-0.152335,0.118274,91.327715,-22.037013,-3.070735
16072,NaN,3.736427,12.452146,0.062149,-0.921869,-0.341140,3.149684,0.563609,-0.328136,-4.677842,0.689737,0.703762,-0.136764,0.101373,91.698886,-19.350626,-3.199346
16073,NaN,3.056161,13.507982,-0.127219,-1.279434,-0.245228,3.974553,0.573823,-0.406716,-4.750704,0.689631,0.709004,-0.121159,0.083922,92.077308,-16.625363,-3.353665
16074,NaN,3.143920,15.261705,0.511844,-1.031499,-1.054058,5.706418,0.556596,-0.499297,-4.849105,0.689164,0.713877,-0.105426,0.065716,92.447731,-13.835688,-3.539453
16075,NaN,4.669230,16.050027,0.788266,1.014815,-1.581028,6.813854,0.388028,-0.673418,-4.857014,0.688795,0.717790,-0.090291,0.046761,92.730111,-11.041077,-3.809102
16076,NaN,7.212409,16.602668,1.552254,4.163294,-2.664556,7.668249,0.231383,-0.809222,-4.747716,0.688492,0.720728,-0.075965,0.027568,92.921743,-8.299085,-4.145887
16077,NaN,9.999974,17.762365,2.389427,7.523310,-3.883452,8.881034,0.102988,-0.797790,-4.667596,0.688253,0.722773,-0.061896,0.008656,93.021887,-5.607460,-4.469695
16078,NaN,12.263728,17.995040,2.554959,10.576150,-4.364388,8.889353,-0.078815,-0.780670,-4.541638,0.688295,0.723763,-0.048166,-0.009848,93.002385,-2.983621,-4.783547
16079,NaN,13.474933,17.465581,1.621674,12.677093,-3.623238,7.945110,-0.224998,-0.788890,-4.324356,0.688526,0.723827,-0.035251,-0.027638,92.885302,-0.488819,-5.111449
16080,NaN,13.153213,16.910117,0.435221,13.187448,-2.494847,6.889099,-0.295015,-0.940383,-4.150827,0.688685,0.723258,-0.023432,-0.045400,92.712819,1.913837,-5.536614
16081,NaN,12.876781,15.026074,-1.411769,13.662493,-0.659192,4.555216,-0.392366,-1.198211,-3.902452,0.688922,0.721950,-0.013393,-0.063209,92.458583,4.175647,-6.125963
16082,NaN,13.932078,13.216184,-2.490342,15.203829,0.232990,2.175558,-0.304980,-1.388433,-3.517969,0.688682,0.720575,-0.005400,-0.080367,92.220444,6.222090,-6.844702
16083,NaN,16.202515,11.713590,-3.818704,17.831650,1.149633,-0.066757,-0.246273,-1.464316,-3.080844,0.688181,0.719126,0.000716,-0.096249,91.984170,8.014026,-7.627957
16084,NaN,19.182110,10.094085,-2.631235,20.628401,-0.567645,-2.679520,-0.143566,-1.250211,-2.577503,0.687380,0.717956,0.005721,-0.109616,91.800415,9.512561,-8.306370
16085,NaN,20.953795,9.016046,-1.200267,22.104358,-2.379601,-4.567943,0.011843,-0.795598,-1.928807,0.686257,0.717474,0.009863,-0.119099,91.733615,10.628327,-8.738127
16086,NaN,21.882581,8.554616,0.949730,22.644974,-4.736980,-5.606683,0.228827,-0.254310,-1.140371,0.684748,0.718048,0.012906,-0.123939,91.841789,11.283432,-8.869266
16087,NaN,20.707422,8.791741,2.276796,21.360538,-5.921486,-5.347381,0.436513,0.185022,-0.211943,0.683027,0.719649,0.013988,-0.124032,92.115180,11.398252,-8.760577
16088,NaN,16.773612,10.662865,1.853660,17.960243,-5.049417,-2.712031,0.581283,0.277003,0.463703,0.681191,0.721841,0.012856,-0.121490,92.478848,11.122534,-8.613531
16089,NaN,17.679288,11.010857,4.496650,18.427748,-7.799026,-2.491275,-0.336041,0.044917,1.242068,0.683133,0.720796,0.008689,-0.117078,92.286803,10.407570,-8.621131
16090,NaN,18.791266,8.715418,0.727928,19.612906,-4.050200,-4.472654,-0.476160,-0.031628,1.947800,0.685951,0.719206,0.001783,-0.110505,92.004608,9.287979,-8.685872
16091,NaN,1.781790,9.009138,-6.008041,3.990152,5.066660,-0.933598,1.723763,0.247927,1.544441,0.680547,0.725228,-0.003915,-0.104328,93.009679,8.394875,-8.585067
16092,NaN,-15.190324,13.718566,3.399840,-13.577970,-2.383668,5.693251,2.383981,1.446418,0.418964,0.672076,0.734021,-0.001816,-0.097589,94.494429,8.095508,-7.769432
16093,NaN,-18.161208,13.012324,-0.680904,-16.139785,1.660780,5.560873,0.679651,1.734092,0.826246,0.669956,0.737114,0.000606,-0.088441,95.015807,7.538652,-6.813362
16094,NaN,-9.922807,16.082821,0.038972,-8.051877,-0.535047,7.274897,0.153394,0.788173,2.270897,0.670337,0.737936,-0.005244,-0.077918,95.145135,6.198112,-6.480381
16095,NaN,13.404701,24.447993,2.914630,14.793323,-6.762438,13.017192,-0.855150,-0.533152,3.980971,0.674877,0.734611,-0.021425,-0.066554,94.612438,3.948722,-6.984389
16096,NaN,18.165758,19.986609,1.692817,18.750788,-5.654165,8.861890,-0.906394,-1.272402,1.858294,0.678631,0.730881,-0.032296,-0.065042,94.045712,2.937289,-7.797145
16097,NaN,4.773188,10.440696,-0.740123,5.194557,-0.680528,0.428927,-0.606477,-0.036576,1.265199,0.681224,0.728597,-0.036886,-0.060983,93.696830,2.212690,-7.870733
16098,NaN,-3.306891,6.031752,-1.957760,-2.881342,2.001510,-3.580484,-0.864705,0.314405,1.874985,0.684960,0.725366,-0.042439,-0.053596,93.205979,1.123994,-7.759557
16099,NaN,-1.274280,4.280619,-3.184440,-0.814774,3.101436,-5.362466,-0.975713,-0.099744,1.897326,0.688935,0.721563,-0.049438,-0.047668,92.647655,0.038423,-7.875762
16100,NaN,3.629295,4.368217,-1.337094,3.718974,0.617502,-5.359808,0.023361,-0.594208,1.675342,0.689066,0.721064,-0.057591,-0.044022,92.665515,-0.910025,-8.264271
16101,NaN,3.472283,6.730309,-2.136809,3.535575,1.282334,-2.900869,1.099703,-0.315160,1.530839,0.685303,0.724318,-0.064475,-0.039568,93.302915,-1.779357,-8.493943
16102,NaN,1.482046,9.139883,-0.233234,1.061753,-0.517598,-0.626276,1.327292,-0.009085,1.538447,0.680752,0.728336,-0.070395,-0.033888,94.067596,-2.664086,-8.559820
16103,NaN,0.939032,11.303081,-0.231511,0.225159,-0.668261,1.509588,0.995858,0.061508,1.608378,0.677376,0.731145,-0.076249,-0.027840,94.642210,-3.588362,-8.598401
16104,NaN,1.976023,13.217284,-0.327623,0.908957,-0.923136,3.492420,0.499119,0.049176,1.631029,0.675761,0.732199,-0.082169,-0.021933,94.933620,-4.527283,-8.652474
16105,NaN,2.709045,12.857581,-0.133097,1.433716,-1.189144,3.195059,-0.227650,0.018783,1.413629,0.676725,0.730840,-0.087294,-0.017184,94.810430,-5.337919,-8.714482
16106,NaN,1.737628,9.894637,-1.209468,0.792703,0.273140,0.271047,-0.310350,-0.002030,1.215143,0.677937,0.729249,-0.091770,-0.013203,94.640393,-6.037008,-8.777305
16107,NaN,0.885976,8.206303,-1.549265,0.095317,0.882999,-1.461698,-0.181087,-0.045945,1.178451,0.678628,0.728087,-0.096248,-0.009462,94.547936,-6.710649,-8.861849
16108,NaN,1.186628,7.818291,-1.767265,0.379171,1.094148,-1.793001,0.017702,-0.183723,1.178106,0.678506,0.727563,-0.101216,-0.006113,94.579784,-7.380418,-9.025709
16109,NaN,1.776993,8.991044,-0.589847,0.524132,-0.226716,-0.646585,0.191331,-0.266274,1.149050,0.677683,0.727618,-0.106343,-0.003089,94.719614,-8.026954,-9.236745
16110,NaN,2.151906,10.331468,-0.283718,0.533117,-0.676216,0.709094,0.203759,-0.300263,1.046243,0.676774,0.727741,-0.111225,-0.000516,94.871004,-8.615139,-9.464677
16111,NaN,2.216643,10.517243,-0.473493,0.487222,-0.518047,0.922464,0.095710,-0.339521,0.949318,0.676215,0.727535,-0.115866,0.001512,94.965900,-9.143073,-9.711801
16112,NaN,2.189339,9.909943,-0.784496,0.515052,-0.170900,0.351979,0.015062,-0.345277,0.915759,0.675930,0.727053,-0.120419,0.003372,95.017017,-9.653722,-9.961873
16113,NaN,2.511969,9.493666,-0.903021,0.833386,-0.079493,0.013485,-0.024107,-0.292751,0.899925,0.675803,0.726434,-0.124718,0.005333,95.042837,-10.155339,-10.181156
16114,NaN,2.698492,9.459261,-0.936533,0.940703,-0.069439,0.023279,-0.003604,-0.201096,0.872664,0.675646,0.725880,-0.128621,0.007560,95.072333,-10.648358,-10.346709
16115,NaN,2.510402,9.759037,-0.777290,0.588692,-0.200482,0.274816,0.009530,-0.120425,0.867443,0.675478,0.725360,-0.132214,0.010058,95.102133,-11.139974,-10.465367
16116,NaN,2.291847,9.948647,-0.975407,0.285967,0.037278,0.438936,-0.071461,-0.084347,0.841601,0.675618,0.724564,-0.135609,0.012558,95.081976,-11.621078,-10.562185
16117,NaN,2.430764,9.687260,-0.964114,0.393807,0.036726,0.213486,-0.164555,-0.090688,0.803512,0.676080,0.723471,-0.138875,0.014831,95.009742,-12.077789,-10.660246
16118,NaN,2.181938,9.046180,-1.621775,0.333602,0.780615,-0.405066,-0.110069,-0.103339,0.764015,0.676329,0.722574,-0.142049,0.016974,94.970396,-12.513778,-10.763647
16119,NaN,1.626981,8.947339,-1.216740,-0.311447,0.502208,-0.656661,-0.001197,-0.159179,0.767147,0.676133,0.722041,-0.145397,0.018991,95.001620,-12.946422,-10.899770
16120,NaN,1.946432,9.228036,-1.063162,-0.167482,0.288679,-0.327765,-0.009319,-0.268745,0.779121,0.675875,0.721467,-0.149172,0.020659,95.043975,-13.382603,-11.101511
16121,NaN,2.405120,9.511081,-1.252995,0.161623,0.382883,0.068713,0.003638,-0.344383,0.790705,0.675500,0.720926,-0.153225,0.022090,95.106122,-13.819099,-11.348786
16122,NaN,2.460671,9.857379,-1.304657,0.059923,0.412001,0.422111,0.017687,-0.386280,0.807438,0.675027,0.720407,-0.157490,0.023449,95.184545,-14.264910,-11.622868
16123,NaN,2.412706,10.007626,-1.176582,-0.127826,0.295980,0.543642,-0.051706,-0.418602,0.847706,0.674759,0.719613,-0.162000,0.024760,95.230955,-14.729513,-11.918960
16124,NaN,2.448238,9.694021,-1.289004,-0.071179,0.424271,0.259245,-0.146821,-0.466558,0.868646,0.674776,0.718467,-0.166768,0.025903,95.233024,-15.205584,-12.245608
16125,NaN,2.418913,9.477446,-0.517957,-0.263843,-0.296532,-0.025794,-0.203310,-0.490056,0.872404,0.674958,0.717116,-0.171618,0.026915,95.209291,-15.680486,-12.586755
16126,NaN,2.421454,9.362818,-0.501343,-0.310942,-0.283133,-0.137992,-0.295976,-0.520794,0.862360,0.675429,0.715441,-0.176558,0.027714,95.140140,-16.150412,-12.946247
16127,NaN,2.935900,9.152487,-0.489086,0.153699,-0.371884,-0.196852,-0.299587,-0.535296,0.842158,0.675884,0.713757,-0.181456,0.028378,95.073904,-16.606400,-13.313301
16128,NaN,3.795737,9.305195,-0.467465,0.828788,-0.563096,0.197722,-0.213552,-0.445198,0.824161,0.676099,0.712347,-0.185981,0.029390,95.044070,-17.058983,-13.626401
16129,NaN,3.926803,9.567252,-0.480430,0.790585,-0.567500,0.494358,-0.073414,-0.242251,0.864601,0.675983,0.711330,-0.189927,0.031381,95.061735,-17.542901,-13.820808
16130,NaN,3.192814,9.802617,-0.297994,-0.090935,-0.563439,0.485259,-0.066129,-0.176285,0.908705,0.675882,0.710267,-0.193815,0.033773,95.074031,-18.057296,-13.978935
16131,NaN,3.094880,9.586718,-0.172901,-0.227458,-0.637280,0.239915,-0.115649,-0.133154,0.885834,0.675988,0.709040,-0.197467,0.036181,95.050877,-18.558816,-14.110075
16132,NaN,3.472817,9.189978,-0.658205,0.269419,-0.223671,0.027339,-0.107772,-0.081969,0.902443,0.676100,0.707795,-0.201012,0.038844,95.023700,-19.074408,-14.211626
16133,NaN,3.531027,9.049683,-0.644599,0.279463,-0.229174,-0.083910,0.022867,-0.041928,0.940945,0.675768,0.706934,-0.204515,0.041899,95.065063,-19.612017,-14.291169
16134,NaN,3.346253,9.590006,-0.558939,-0.188588,-0.254598,0.354754,0.042043,0.004078,0.961841,0.675394,0.706087,-0.207940,0.045217,95.109225,-20.165763,-14.344845
16135,NaN,3.536983,9.676952,-0.797535,-0.091736,-0.048024,0.520664,0.015398,0.023782,0.967260,0.675119,0.705127,-0.211307,0.048582,95.134734,-20.721649,-14.387138
16136,NaN,3.206718,9.655910,-0.856684,-0.469459,0.107146,0.386373,0.018749,0.024325,0.988978,0.674810,0.704133,-0.214755,0.052036,95.162986,-21.291813,-14.430949
16137,NaN,2.936116,9.425327,-0.614080,-0.777203,-0.044444,0.047731,-0.038963,-0.047549,0.991019,0.674610,0.702949,-0.218450,0.055170,95.175006,-21.857541,-14.519143
16138,NaN,3.129487,9.099830,-0.702194,-0.553889,0.018004,-0.180149,-0.076976,-0.136707,0.995151,0.674428,0.701634,-0.222476,0.057972,95.186988,-22.422793,-14.663176
16139,NaN,3.612539,9.065572,-0.864368,-0.168028,0.082452,-0.017468,-0.025731,-0.197206,1.028423,0.673972,0.700458,-0.226791,0.060719,95.245241,-23.002000,-14.847272
16140,NaN,3.908928,9.330723,-0.602516,-0.170931,-0.223282,0.317717,0.014039,-0.210564,1.072407,0.673328,0.699345,-0.231297,0.063620,95.332930,-23.607111,-15.044009
16141,NaN,4.158284,9.455907,-0.537473,-0.125712,-0.328167,0.525099,-0.014476,-0.214979,1.101328,0.672748,0.698087,-0.235911,0.066559,95.408788,-24.226493,-15.246859
16142,NaN,4.522335,9.414949,-0.614529,0.115063,-0.322110,0.644478,-0.032309,-0.178815,1.125499,0.672244,0.696702,-0.240496,0.069691,95.468357,-24.863094,-15.430476
16143,NaN,4.434912,9.503357,-0.926257,-0.045535,0.021559,0.715203,0.053938,-0.127076,1.135712,0.671475,0.695557,-0.244894,0.073130,95.566436,-25.506451,-15.583832
16144,NaN,3.989300,9.805438,-0.699023,-0.737356,-0.063580,0.770353,-0.001967,-0.090641,1.176049,0.670908,0.694134,-0.249332,0.076770,95.625866,-26.176308,-15.718621
16145,NaN,4.257780,9.614681,-1.035847,-0.464577,0.219786,0.740906,-0.042696,-0.104720,1.194851,0.670433,0.692536,-0.253879,0.080361,95.668587,-26.854329,-15.864822
16146,NaN,4.659569,9.949543,-1.491070,-0.295248,0.600009,1.254365,0.003663,-0.071346,1.209500,0.669810,0.691032,-0.258347,0.084181,95.730778,-27.544065,-15.992333
16147,NaN,4.662185,10.423145,-2.040717,-0.524014,1.169472,1.715476,0.134062,0.001140,1.216441,0.668802,0.689903,-0.262522,0.088432,95.848362,-28.240184,-16.075394
16148,NaN,4.446624,11.693996,-1.511559,-1.588360,0.769039,2.664906,0.208949,0.099809,1.259073,0.667619,0.688894,-0.266480,0.093268,95.981597,-28.967776,-16.099761
16149,NaN,4.914731,12.669219,-1.067715,-1.945719,0.285963,3.675574,0.103384,0.146823,1.359252,0.666787,0.687350,-0.270654,0.098448,96.043693,-29.753722,-16.101691
16150,NaN,5.192413,12.205506,-0.698837,-1.747743,-0.111803,3.353698,0.048284,0.189573,1.442669,0.666126,0.685450,-0.274994,0.103981,96.063375,-30.591155,-16.082122
16151,NaN,4.991976,11.553514,-0.509303,-1.805158,-0.224609,2.651292,0.084485,0.280826,1.516217,0.665392,0.683487,-0.279239,0.110108,96.074960,-31.474647,-16.006987
16152,NaN,4.891839,12.066840,-0.162691,-2.429571,-0.471374,2.971541,0.230359,0.423153,1.608027,0.664264,0.681755,-0.283233,0.117230,96.121896,-32.420397,-15.842814
16153,NaN,4.851915,12.641222,-0.410816,-2.930604,-0.152333,3.412076,0.243706,0.533610,1.664372,0.663164,0.679875,-0.287017,0.124919,96.135025,-33.403820,-15.606473
16154,NaN,4.884964,13.331401,-0.208043,-3.562208,-0.283709,3.929845,0.387094,0.694922,1.776330,0.661681,0.678147,-0.290538,0.133728,96.168201,-34.462095,-15.265422
16155,NaN,4.328870,15.044844,-0.614407,-5.152494,0.362103,4.978458,0.165631,0.707899,1.777093,0.660905,0.675616,-0.294133,0.142244,96.061275,-35.520327,-14.910146
16156,NaN,4.349461,15.339178,-0.762186,-5.542756,0.590064,5.144302,0.086715,0.778963,1.813685,0.660412,0.672653,-0.297649,0.150996,95.870822,-36.603712,-14.499290
16157,NaN,4.164597,16.697371,-1.556119,-6.653111,1.534599,6.059843,0.427897,1.000735,2.053499,0.658843,0.670216,-0.300943,0.161770,95.778170,-37.835040,-13.937643
16158,NaN,2.132551,19.211133,-2.085672,-10.022477,2.587830,6.643393,0.549726,1.191871,2.089792,0.657030,0.667873,-0.303589,0.173468,95.652673,-39.097574,-13.226807
16159,NaN,1.415145,19.373308,-3.074828,-10.873995,3.697898,6.151253,0.479489,1.325888,2.054590,0.655583,0.665136,-0.305689,0.185361,95.398344,-40.345128,-12.395975
16160,NaN,0.755531,18.775087,-3.200423,-11.326429,3.889115,5.015888,0.601221,1.605901,2.106654,0.654001,0.662346,-0.306878,0.198510,95.047004,-41.633432,-11.332439
16161,NaN,-0.308743,17.966494,-1.840703,-12.098807,2.617469,3.341439,0.663426,2.034777,2.056465,0.652788,0.659276,-0.306377,0.212971,94.465075,-42.907091,-9.899408
16162,NaN,-0.294478,16.949845,-0.422022,-11.857714,1.107528,2.258688,0.519820,2.427646,2.102439,0.652444,0.655092,-0.304818,0.228601,93.528584,-44.207724,-8.105480
16163,NaN,2.144194,16.483235,1.855671,-10.299599,-1.412017,3.288917,0.089295,2.503444,2.405947,0.653092,0.648766,-0.304416,0.244753,92.224884,-45.659477,-6.184720
16164,NaN,5.955421,15.274887,2.746202,-7.175892,-2.477669,4.975205,-0.588833,2.024593,2.690662,0.654672,0.640190,-0.307233,0.259169,90.714808,-47.231900,-4.564084
16165,NaN,5.594243,13.805866,0.146044,-6.511489,0.294054,3.581967,-0.773479,1.483439,2.672192,0.655856,0.631563,-0.311926,0.271446,89.334081,-48.766394,-3.300068
16166,NaN,7.189289,11.210628,0.872138,-3.887164,-0.409854,2.947946,-1.135876,1.232285,2.494148,0.657883,0.622221,-0.317288,0.281708,87.821825,-50.178740,-2.164228
16167,NaN,9.062400,7.764022,0.639555,-0.325720,-0.233782,2.130739,-0.995085,1.219186,2.439110,0.659381,0.613307,-0.322265,0.291920,86.312488,-51.541914,-0.950998
16168,NaN,5.357530,8.137374,-1.541339,-3.027986,2.162029,-0.677776,-0.395838,1.131247,2.469370,0.658728,0.606331,-0.326674,0.302859,85.121334,-52.905749,0.271573
16169,NaN,0.616067,8.461260,-1.811512,-6.301736,2.509739,-4.405266,-0.283078,1.032109,2.055978,0.658087,0.600449,-0.329945,0.312281,84.020246,-54.025872,1.442381
16170,NaN,-2.920552,7.129631,-2.604471,-7.333767,3.145172,-8.242201,-0.319503,0.852890,1.624869,0.657864,0.595378,-0.332518,0.319642,83.016896,-54.896936,2.453150
16171,NaN,-5.282420,4.900736,-3.093477,-6.852044,3.367083,-11.602152,-0.424277,0.570633,1.087991,0.658295,0.591261,-0.334581,0.324212,82.198478,-55.476497,3.156213
16172,NaN,-3.842559,3.358323,-3.772637,-4.709609,3.941748,-11.412140,-0.670906,0.319198,0.684287,0.659671,0.587406,-0.336651,0.326274,81.474764,-55.839510,3.570093
16173,NaN,-0.084261,2.901466,-3.899015,-2.196893,4.162558,-8.598338,-0.442714,-0.453283,0.372712,0.659568,0.586065,-0.339991,0.325429,81.561149,-56.092514,3.162075
16174,NaN,-3.902284,3.770073,-2.831299,-5.103259,3.088286,-11.182569,0.069827,-0.565317,-0.511245,0.659205,0.588104,-0.340255,0.322194,82.145068,-55.849168,2.508881
16175,NaN,-5.811593,4.856363,-2.412102,-7.114601,2.743406,-12.055972,0.546696,-0.228913,-1.215100,0.659122,0.592341,-0.336578,0.318444,82.786836,-55.179605,2.112638
16176,NaN,-4.282163,5.560045,-2.459133,-6.839532,2.876078,-10.309266,0.472909,0.110415,-1.194306,0.659771,0.595747,-0.331929,0.315613,83.095753,-54.493066,2.069506
16177,NaN,-1.855585,5.351955,-2.213366,-5.282713,2.640860,-8.362141,0.438969,0.083612,-0.988577,0.660124,0.598707,-0.328041,0.313330,83.379991,-53.928345,2.031524
16178,NaN,0.010623,5.399487,-0.988836,-4.272224,1.445045,-6.683489,0.342636,-0.163150,-1.251476,0.660753,0.602160,-0.324301,0.309253,83.818330,-53.226170,1.734272
16179,NaN,0.446110,5.369000,-0.608529,-3.956946,1.058808,-6.260768,0.145910,-0.308011,-1.843866,0.662609,0.606094,-0.319558,0.302462,84.282299,-52.197036,1.258609
16180,NaN,-0.183681,5.201229,-1.006491,-4.117305,1.430812,-6.796266,-0.036620,-0.319408,-2.355196,0.665700,0.610204,-0.313521,0.293596,84.661743,-50.871213,0.750907
16181,NaN,-0.490736,4.426159,-0.746488,-3.655848,1.111347,-7.406975,-0.134573,-0.290140,-2.624981,0.669424,0.614255,-0.306680,0.283742,84.951604,-49.391726,0.275315
16182,NaN,-0.244071,3.568572,-0.272086,-2.811159,0.573574,-7.659586,-0.084026,-0.323010,-2.803611,0.673074,0.618698,-0.299248,0.273192,85.274905,-47.806431,-0.215934
16183,NaN,-0.660305,3.979062,-0.141037,-3.337381,0.480272,-7.594852,0.120432,-0.313397,-3.037292,0.676277,0.624015,-0.290740,0.262154,85.687669,-46.089004,-0.683689
16184,NaN,-0.521370,4.969929,-0.887722,-3.814663,1.302111,-6.728793,0.153033,-0.355226,-3.413818,0.679635,0.629897,-0.281056,0.249669,86.125993,-44.151790,-1.174316
16185,NaN,0.506301,5.910668,-0.729616,-3.607274,1.188768,-5.197986,0.369383,-0.432647,-3.434857,0.682023,0.636435,-0.271238,0.237120,86.690525,-42.206358,-1.687124
16186,NaN,1.680342,6.937383,-0.768222,-3.230525,1.243463,-3.523579,0.403220,-0.434969,-3.571140,0.684249,0.643092,-0.260843,0.224047,87.240272,-40.175289,-2.166476
16187,NaN,2.150356,7.601077,-1.175009,-3.023356,1.632218,-2.603764,0.450783,-0.347078,-3.768893,0.686421,0.649832,-0.249394,0.210587,87.741539,-38.029794,-2.548584
16188,NaN,2.109287,8.375709,-1.285883,-3.232475,1.736351,-1.889225,0.471410,-0.235092,-3.964988,0.688611,0.656539,-0.236780,0.196740,88.179091,-35.763023,-2.822399
16189,NaN,2.066531,8.833670,-1.135947,-3.218380,1.554206,-1.397851,0.427524,-0.188840,-4.085211,0.690834,0.662905,-0.223585,0.182523,88.549033,-33.429513,-3.039055
16190,NaN,2.598624,9.018851,-0.812611,-2.542255,1.154336,-0.815774,0.413801,-0.193600,-4.155244,0.692865,0.669038,-0.210063,0.167929,88.894862,-31.050353,-3.237051
16191,NaN,3.089486,9.385360,-0.871015,-1.920987,1.132630,-0.148276,0.551259,-0.155953,-4.212395,0.694216,0.675363,-0.196038,0.153357,89.287868,-28.641610,-3.388116
16192,NaN,3.185802,10.266673,-0.233797,-1.876161,0.433082,0.764796,0.727055,-0.102267,-4.250186,0.694736,0.681999,-0.181446,0.138913,89.750387,-26.205415,-3.481011
16193,NaN,3.597849,11.153859,0.244483,-1.459664,-0.149870,1.816500,0.725886,-0.089986,-4.298391,0.694979,0.688332,-0.166592,0.124302,90.194454,-23.745654,-3.543016
16194,NaN,4.234887,12.003169,0.134851,-0.688892,-0.176399,2.895427,0.673114,-0.134370,-4.391122,0.695086,0.694266,-0.151494,0.109086,90.609214,-21.227533,-3.610877
16195,NaN,3.991091,12.254688,-0.594267,-0.400733,0.446566,3.074146,0.648632,-0.236211,-4.513651,0.694918,0.699898,-0.136293,0.093043,91.019857,-18.642697,-3.719447
16196,NaN,3.267036,13.388902,-0.136105,-0.872157,-0.102251,3.940434,0.790439,-0.280380,-4.645471,0.693907,0.705768,-0.120613,0.076408,91.508650,-15.976375,-3.829608
16197,NaN,2.928387,14.309639,-0.370878,-0.784132,-0.011751,4.775776,0.769673,-0.327075,-4.697894,0.692574,0.711206,-0.104881,0.059397,91.980077,-13.283126,-3.942184
16198,NaN,3.782650,15.649564,0.030379,0.423536,-0.659658,6.266952,0.680908,-0.390922,-4.697169,0.691125,0.715962,-0.089309,0.042055,92.399515,-10.583409,-4.069138
16199,NaN,5.750666,16.918350,0.901591,2.839005,-1.872570,7.751151,0.597869,-0.432756,-4.654719,0.689563,0.720009,-0.074031,0.024676,92.765399,-7.910835,-4.201987
16200,NaN,8.590830,17.881825,2.038146,6.261101,-3.402978,8.811635,0.308858,-0.427697,-4.590473,0.688656,0.722652,-0.058933,0.007390,92.958703,-5.269991,-4.319353
16201,NaN,11.083768,18.226207,1.992660,9.548615,-3.679110,9.008237,0.134201,-0.350418,-4.492771,0.688045,0.724278,-0.043927,-0.009310,93.042351,-2.691661,-4.388892
16202,NaN,11.452072,17.629341,0.839082,10.832851,-2.626745,8.029088,0.084680,-0.383211,-4.308593,0.687275,0.725343,-0.029650,-0.025524,93.095746,-0.213622,-4.479170
16203,NaN,10.976334,16.334478,-0.439156,11.183842,-1.352145,6.328074,0.141724,-0.574643,-4.176530,0.685978,0.726225,-0.016530,-0.041935,93.175396,2.190973,-4.680675
16204,NaN,10.700698,15.432642,-1.337875,11.582916,-0.513367,5.019214,0.168920,-0.852098,-3.971213,0.684303,0.726817,-0.005084,-0.058648,93.253437,4.490537,-5.044357
16205,NaN,11.352890,13.938418,-2.350015,12.742436,0.366976,3.077128,0.189432,-1.177008,-3.569402,0.682407,0.727092,0.003764,-0.075126,93.309698,6.568120,-5.606780
16206,NaN,13.312298,12.782327,-2.695183,15.004220,0.398639,1.257538,0.245448,-1.289669,-3.159284,0.680237,0.727292,0.010731,-0.090604,93.369177,8.417854,-6.247737
16207,NaN,16.324058,11.398724,-2.172903,18.009281,-0.548484,-1.068335,0.287901,-0.992751,-2.735366,0.677922,0.727605,0.017129,-0.103528,93.458481,10.013410,-6.732085
16208,NaN,19.341921,10.019596,-0.491358,20.699378,-2.602926,-3.529048,0.448280,-0.362974,-2.195625,0.675129,0.728714,0.023621,-0.112333,93.692936,11.280464,-6.866879
16209,NaN,20.117337,8.831113,1.406731,21.080578,-4.517097,-5.355030,0.555175,0.226887,-1.460957,0.672229,0.730529,0.029356,-0.116505,94.050729,12.104078,-6.680454
16210,NaN,17.823887,8.720457,2.756468,18.705943,-5.579581,-5.308294,0.764304,0.318248,-0.639888,0.668997,0.733191,0.032275,-0.117608,94.535868,12.453212,-6.469920
16211,NaN,14.746871,10.310206,4.367856,15.838197,-7.032557,-3.290192,0.557074,-0.062991,0.216317,0.667081,0.735058,0.030903,-0.117210,94.846018,12.329928,-6.520918
16212,NaN,13.039008,11.560324,2.954253,14.552687,-5.655320,-1.529050,0.070136,-0.575914,0.803665,0.667366,0.735080,0.025937,-0.116653,94.808712,11.894930,-6.900704
16213,NaN,15.522707,10.313540,5.183978,16.290934,-8.091860,-3.231311,-0.678582,-0.902297,1.514081,0.670822,0.732461,0.017715,-0.114829,94.302391,11.068502,-7.500648
16214,NaN,15.593649,8.470863,-1.224316,16.812615,-1.660506,-4.246467,-0.543024,-0.614859,2.195773,0.674073,0.730439,0.007865,-0.109652,93.911020,9.833881,-7.953558
16215,NaN,-0.338391,8.739869,-2.924987,1.421622,2.070025,-0.938813,1.687052,0.062507,1.628037,0.668746,0.736180,0.001163,-0.104001,94.873064,8.898363,-7.993504
16216,NaN,-13.422185,12.772918,4.662707,-12.115455,-4.272583,4.329002,2.125952,0.888386,0.823338,0.661285,0.743709,-0.000062,-0.097971,96.162638,8.374450,-7.531013
16217,NaN,-16.725429,13.086056,1.726744,-15.067521,-1.201895,5.203430,0.261511,0.483187,1.356672,0.660950,0.744798,-0.003678,-0.091691,96.340546,7.569001,-7.342414
16218,NaN,-11.910109,13.281876,-0.628388,-10.220283,0.506938,4.813737,-0.097926,-0.324871,1.961377,0.662168,0.744259,-0.012064,-0.086411,96.247705,6.467932,-7.657001
16219,NaN,7.268843,19.784935,0.987152,8.622523,-4.332374,8.951612,-0.294699,-0.776207,3.161305,0.664484,0.742666,-0.026310,-0.078844,96.018161,4.711883,-8.299501
16220,NaN,20.180477,22.781602,2.924529,20.611655,-8.428147,11.136208,-0.584030,-1.030186,3.010999,0.667609,0.739831,-0.040731,-0.072727,95.633123,3.051091,-9.067530
16221,NaN,12.641104,14.998317,-0.822451,13.028558,-2.720578,4.618816,-0.714429,-0.358640,1.792741,0.670786,0.736923,-0.048339,-0.068216,95.212097,2.045278,-9.373200
16222,NaN,0.097255,8.247629,-1.103997,0.365559,0.309361,-1.504864,-0.348901,0.199473,1.991950,0.672757,0.735305,-0.054947,-0.060869,95.013848,0.892794,-9.365137
16223,NaN,-3.397518,6.734926,-3.260459,-2.877190,3.199804,-2.811737,-0.789849,0.060738,2.079706,0.676256,0.732058,-0.062186,-0.053867,94.562841,-0.300237,-9.433634
16224,NaN,-0.130246,5.159246,-1.615896,-0.000558,1.239950,-4.548892,-0.843890,-0.456347,1.918400,0.679672,0.728447,-0.070578,-0.049298,94.085981,-1.381970,-9.781254
16225,NaN,2.005112,5.273127,-3.711571,2.378913,2.958642,-4.227982,-0.078368,-0.770544,1.648515,0.680050,0.727387,-0.079219,-0.046531,94.059402,-2.295515,-10.292643
16226,NaN,3.054162,7.147080,-1.597685,2.852233,0.558814,-2.429444,0.511312,-0.531412,1.618336,0.678318,0.728336,-0.087085,-0.042744,94.372166,-3.203265,-10.668859
16227,NaN,2.004672,10.026791,-1.170320,1.409647,0.121831,0.381471,0.352139,-0.299594,1.517730,0.677194,0.728790,-0.093741,-0.038536,94.591253,-4.059513,-10.912119
16228,NaN,1.395481,11.186327,-1.629175,0.635830,0.612053,1.543113,0.075049,-0.317033,1.544161,0.677036,0.728242,-0.100511,-0.034414,94.656229,-4.932163,-11.169278
16229,NaN,2.210613,11.715993,-0.435354,0.980376,-0.709698,2.056300,-0.296744,-0.482569,1.637551,0.678116,0.726311,-0.108092,-0.030778,94.521554,-5.848001,-11.525217
16230,NaN,1.638517,10.400203,-0.337642,0.381181,-0.565968,0.698972,-0.194503,-0.533905,1.611457,0.678743,0.724676,-0.115778,-0.027344,94.454037,-6.749949,-11.908725
16231,NaN,0.780260,9.789585,-0.644701,-0.462303,-0.016392,0.018119,-0.182630,-0.677570,1.487585,0.679178,0.723086,-0.123479,-0.024858,94.408679,-7.572460,-12.368915
16232,NaN,1.467670,9.015639,-0.524352,0.159602,-0.206277,-0.667124,-0.216513,-0.851890,1.462156,0.679577,0.721319,-0.131684,-0.023092,94.364196,-8.375781,-12.929041
16233,NaN,2.245296,9.255713,-0.841075,0.813282,-0.052738,-0.286333,-0.162923,-0.922603,1.416608,0.679680,0.719707,-0.139944,-0.021714,94.364085,-9.147598,-13.528564
16234,NaN,3.161318,9.891434,0.243645,1.211143,-1.326805,0.417898,-0.070087,-0.833129,1.300207,0.679455,0.718451,-0.147499,-0.020329,94.415724,-9.859146,-14.072976
16235,NaN,3.301870,9.827017,-0.070448,1.295028,-1.044577,0.419999,-0.007002,-0.659507,1.262435,0.679089,0.717418,-0.154309,-0.018415,94.492233,-10.553668,-14.516586
16236,NaN,2.675637,9.463850,-0.625303,0.774456,-0.331685,0.005839,0.023063,-0.509955,1.259702,0.678697,0.716463,-0.160615,-0.015936,94.575209,-11.255386,-14.875364
16237,NaN,2.670599,9.703677,-0.708323,0.620499,-0.241587,0.254617,-0.020362,-0.453932,1.199100,0.678470,0.715387,-0.166485,-0.013510,94.630684,-11.922050,-15.200060
16238,NaN,3.213849,9.796310,-0.732397,1.003716,-0.337367,0.468875,-0.118025,-0.368597,1.152692,0.678634,0.713991,-0.171904,-0.011002,94.623078,-12.568587,-15.474057
16239,NaN,3.529201,9.550499,-0.812964,1.268478,-0.308497,0.317613,-0.143010,-0.272587,1.094597,0.678943,0.712545,-0.176765,-0.008385,94.591001,-13.183890,-15.689216
16240,NaN,3.311690,9.491604,-0.728150,0.957066,-0.299449,0.216347,-0.184960,-0.184872,1.022494,0.679455,0.710998,-0.181081,-0.005722,94.524349,-13.764753,-15.849762
16241,NaN,2.925526,9.353158,-0.178470,0.399719,-0.687936,-0.043433,-0.217184,-0.122662,0.965831,0.680118,0.709380,-0.184962,-0.003074,94.431072,-14.313681,-15.970325
16242,NaN,2.665171,9.149210,-0.657453,0.248118,-0.118257,-0.264533,-0.189855,-0.138338,0.916553,0.680652,0.707879,-0.188734,-0.000609,94.356237,-14.836486,-16.097655
16243,NaN,2.455610,9.397125,-0.543971,-0.120456,-0.138369,-0.086555,-0.184009,-0.233713,0.862413,0.681061,0.706437,-0.192618,0.001324,94.299737,-15.321831,-16.278379
16244,NaN,3.064976,9.259246,-0.821766,0.478830,-0.008802,-0.036533,-0.111596,-0.247690,0.791194,0.681187,0.705292,-0.196310,0.003050,94.287612,-15.768470,-16.464611
16245,NaN,2.717072,9.875606,-0.721289,-0.111800,0.018311,0.454593,-0.191081,-0.282640,0.731273,0.681549,0.703928,-0.199892,0.004356,94.236235,-16.177004,-16.668808
16246,NaN,2.978542,9.818748,-0.889306,0.126848,0.137937,0.484639,-0.250666,-0.317766,0.650333,0.682076,0.702428,-0.203323,0.005217,94.157000,-16.540459,-16.890588
16247,NaN,3.281507,9.343359,-1.006915,0.519998,0.191109,0.125788,-0.277867,-0.326904,0.641861,0.682680,0.700837,-0.206736,0.005975,94.064845,-16.896593,-17.117019
16248,NaN,3.360480,9.126887,-1.021636,0.601381,0.205546,-0.053982,-0.148934,-0.277284,0.725853,0.682869,0.699583,-0.210283,0.007341,94.040476,-17.305331,-17.317711
16249,NaN,3.304857,9.755894,-0.585559,0.171364,-0.159885,0.501722,-0.129778,-0.233377,0.732314,0.683027,0.698379,-0.213684,0.008889,94.020582,-17.717233,-17.492353
16250,NaN,3.341161,9.691041,-0.361592,0.094914,-0.356399,0.437870,-0.234430,-0.190279,0.688622,0.683588,0.696849,-0.216801,0.010339,93.933506,-18.108361,-17.639564
16251,NaN,3.483053,9.035591,-0.338885,0.364220,-0.403532,-0.138363,-0.239273,-0.143220,0.668901,0.684209,0.695314,-0.219671,0.011868,93.835196,-18.487936,-17.757000
16252,NaN,3.457691,8.966791,-0.387515,0.318503,-0.322306,-0.205218,-0.122627,-0.082542,0.668966,0.684481,0.694163,-0.222338,0.013748,93.792792,-18.872287,-17.837879
16253,NaN,3.485149,9.344998,-0.535364,0.199470,-0.150989,0.172246,-0.051368,-0.016449,0.684936,0.684572,0.693228,-0.224813,0.015979,93.778747,-19.266016,-17.879118
16254,NaN,3.477935,9.643005,-0.185671,-0.075839,-0.448667,0.429896,0.002382,0.054878,0.746382,0.684541,0.692390,-0.227263,0.018740,93.782318,-19.699825,-17.879912
16255,NaN,3.217701,9.640392,-0.139451,-0.391787,-0.391524,0.336350,-0.111547,-0.046053,0.713950,0.684784,0.691203,-0.229940,0.020898,93.740895,-20.109046,-17.940348
16256,NaN,3.238482,9.079897,-0.493793,-0.142288,-0.055629,-0.161137,-0.125860,-0.129028,0.686704,0.684975,0.689993,-0.232819,0.022672,93.708897,-20.501826,-18.050430
16257,NaN,3.685208,9.055432,-0.597201,0.229611,-0.065697,-0.020813,-0.040051,-0.134821,0.718906,0.684851,0.689036,-0.235802,0.024623,93.728481,-20.910624,-18.165306
16258,NaN,3.664031,9.456430,-0.349102,-0.075452,-0.258204,0.331190,-0.008487,-0.098616,0.742873,0.684648,0.688139,-0.238751,0.026830,93.759563,-21.336572,-18.259731
16259,NaN,3.476422,9.537139,-0.364661,-0.338549,-0.162868,0.337874,-0.079866,-0.130406,0.740738,0.684643,0.687000,-0.241793,0.028823,93.757587,-21.757943,-18.373735
16260,NaN,3.583362,9.310802,-0.535779,-0.182134,-0.019150,0.176535,-0.078485,-0.156959,0.761936,0.684587,0.685829,-0.245009,0.030810,93.763860,-22.192512,-18.505581
16261,NaN,3.660185,9.345237,-0.653391,-0.166461,0.095274,0.243159,-0.056474,-0.149932,0.781264,0.684452,0.684702,-0.248246,0.032902,93.782433,-22.636289,-18.634127
16262,NaN,3.795269,9.488676,-0.786698,-0.141792,0.214334,0.433840,-0.045599,-0.126659,0.820437,0.684289,0.683544,-0.251544,0.035232,93.803518,-23.105323,-18.750692
16263,NaN,3.685643,9.520205,-0.865506,-0.307303,0.348049,0.422115,-0.035539,-0.107066,0.845619,0.684101,0.682377,-0.254842,0.037715,93.826985,-23.587438,-18.856460
16264,NaN,3.641562,9.546783,-0.914980,-0.426587,0.433957,0.427833,0.004037,-0.092953,0.887996,0.683773,0.681272,-0.258237,0.040453,93.871521,-24.096219,-18.956156
16265,NaN,3.851555,9.747422,-1.001611,-0.392883,0.490482,0.697033,0.056304,-0.050525,0.935399,0.683299,0.680265,-0.261620,0.043553,93.936960,-24.631709,-19.031945
16266,NaN,4.015530,10.101774,-0.868246,-0.540946,0.360145,1.073123,0.146487,0.011910,0.982950,0.682572,0.679471,-0.264937,0.047155,94.039681,-25.198643,-19.071935
16267,NaN,3.820811,10.866246,-0.711039,-1.193056,0.339465,1.660743,0.231318,0.064067,1.035195,0.681597,0.678870,-0.268214,0.051213,94.178693,-25.795619,-19.082531
16268,NaN,3.805992,11.263432,-0.504940,-1.565873,0.194918,1.981972,0.194222,0.102003,1.108980,0.680757,0.678009,-0.271626,0.055610,94.288256,-26.438119,-19.074210
16269,NaN,3.929741,11.458052,-0.473612,-1.695293,0.170157,2.189367,0.161658,0.120938,1.223794,0.679999,0.676857,-0.275350,0.060406,94.376513,-27.145265,-19.060276
16270,NaN,4.110340,11.443939,-0.354512,-1.721667,0.035700,2.229606,0.161496,0.127769,1.289939,0.679202,0.675579,-0.279274,0.065457,94.464646,-27.892162,-19.046598
16271,NaN,4.219675,11.429370,-0.422526,-1.763351,0.102285,2.249335,0.201350,0.167164,1.385034,0.678263,0.674263,-0.283349,0.071006,94.566150,-28.693527,-19.013312
16272,NaN,4.182785,11.418663,-0.416035,-1.960674,0.140467,2.195144,0.233671,0.200244,1.451766,0.677202,0.672911,-0.287520,0.076945,94.677724,-29.536090,-18.963567
16273,NaN,4.751187,11.443372,-0.287760,-1.724116,-0.104882,2.460070,0.287874,0.274780,1.563789,0.675983,0.671516,-0.291767,0.083578,94.798883,-30.444725,-18.872147
16274,NaN,4.879150,11.473243,-0.498341,-1.773053,0.100478,2.537710,0.361526,0.371141,1.641010,0.674577,0.670166,-0.295906,0.090905,94.931028,-31.403671,-18.722594
16275,NaN,4.708762,11.938194,-0.569748,-2.346928,0.291164,2.813485,0.444663,0.479217,1.759736,0.672943,0.668821,-0.300007,0.099102,95.074421,-32.434718,-18.508313
16276,NaN,4.315216,12.299762,-0.906405,-2.992881,0.784153,2.881791,0.478863,0.544069,1.775485,0.671224,0.667471,-0.303906,0.107618,95.210928,-33.479745,-18.251529
16277,NaN,4.295229,13.455877,-0.521780,-3.984790,0.557095,3.736755,0.373883,0.580396,1.798720,0.669836,0.665656,-0.307782,0.116157,95.269647,-34.539076,-17.970096
16278,NaN,5.039226,14.595659,-1.342603,-4.098242,1.309829,5.077275,0.409027,0.786094,1.854954,0.668548,0.663683,-0.311110,0.125618,95.261897,-35.642391,-17.545811
16279,NaN,4.331412,17.070621,-2.564575,-6.105121,2.920087,6.647323,0.751133,1.154738,2.000962,0.666521,0.662314,-0.313431,0.137300,95.291236,-36.847531,-16.864298
16280,NaN,2.629929,19.702169,-3.146129,-9.244611,4.097162,7.586194,0.926373,1.449114,2.070562,0.664218,0.661106,-0.314833,0.150444,95.276610,-38.108608,-15.964928
16281,NaN,0.678214,20.428764,-3.438625,-11.525013,4.828407,6.723898,0.743844,1.636961,2.039089,0.662717,0.659081,-0.315583,0.163786,95.042694,-39.359253,-14.906930
16282,NaN,-0.330706,18.946152,-3.297578,-11.760928,4.738031,4.649434,0.649037,1.933022,2.068745,0.661839,0.656324,-0.315464,0.178020,94.577022,-40.635917,-13.600907
16283,NaN,-1.177271,17.487497,-3.164917,-11.835833,4.570815,2.685919,0.962626,2.421489,2.185201,0.660433,0.653820,-0.313754,0.194692,93.999909,-41.991041,-11.888500
16284,NaN,-0.794894,17.931099,-1.897778,-12.427041,3.152986,2.890192,1.160586,2.800918,2.258963,0.658691,0.651278,-0.310733,0.213090,93.268690,-43.386531,-9.826308
16285,NaN,3.695106,18.497790,1.919543,-10.463646,-1.181712,5.954582,0.289687,2.831448,2.563277,0.659269,0.645124,-0.309423,0.231165,91.930855,-44.930326,-7.665207
16286,NaN,8.579906,15.711757,1.509701,-5.420334,-1.181377,7.273895,-0.650439,2.305763,2.796344,0.661566,0.635895,-0.311566,0.246768,90.239331,-46.558781,-5.821096
16287,NaN,5.512060,13.642358,-0.069916,-6.252546,0.730889,3.486107,-0.361397,2.063370,2.672054,0.662510,0.627911,-0.313670,0.261572,88.740934,-48.082360,-4.062201
16288,NaN,5.364109,12.559402,1.811107,-6.036137,-1.024344,2.528130,-0.573662,1.808874,2.718827,0.663477,0.619313,-0.316942,0.275314,87.169792,-49.603522,-2.409229
16289,NaN,7.288346,8.888123,0.368474,-2.187084,0.257974,1.474223,-0.839959,1.462359,2.633906,0.664661,0.610275,-0.321396,0.287219,85.570719,-51.059882,-0.954768
16290,NaN,4.946597,7.847876,-2.316388,-2.894336,3.014963,-1.213220,-0.420069,1.243283,2.385631,0.664430,0.603223,-0.325135,0.298232,84.284633,-52.359670,0.379969
16291,NaN,1.285726,7.866846,-1.674429,-5.362998,2.423351,-4.181810,-0.010823,1.255405,2.072944,0.663335,0.597913,-0.327240,0.308870,83.166890,-53.465093,1.775686
16292,NaN,-3.247744,7.055855,-2.151529,-7.466774,2.722029,-8.471803,-0.006027,1.271090,1.542386,0.662993,0.593398,-0.327646,0.317753,82.025813,-54.248753,3.187454
16293,NaN,-5.100635,5.564342,-1.505510,-7.396670,1.830194,-10.900667,-0.252789,1.067209,1.076891,0.663733,0.589095,-0.327725,0.324070,80.910585,-54.771733,4.381579
16294,NaN,-1.838370,3.439039,-3.754075,-3.660360,3.986789,-9.731857,-0.756694,0.502364,0.928355,0.665242,0.584262,-0.330026,0.327374,79.952863,-55.249207,5.024640
16295,NaN,-2.044434,3.860620,-3.446735,-4.128356,3.728469,-9.674099,-0.384738,-0.254609,0.213132,0.665567,0.583057,-0.332154,0.326709,79.915285,-55.398504,4.804612
16296,NaN,-5.595156,4.076879,-1.834577,-6.410669,2.002236,-12.299967,-0.044718,-0.298474,-0.610600,0.666170,0.584434,-0.331452,0.323720,80.227458,-55.084005,4.396911
16297,NaN,-5.539513,4.740948,-1.578328,-6.953376,1.833447,-11.798256,0.273332,-0.093157,-0.960412,0.666735,0.587092,-0.328539,0.320703,80.594817,-54.553848,4.141406
16298,NaN,-3.099099,4.808676,-1.315927,-5.623048,1.680572,-9.685250,0.180238,-0.014018,-0.847419,0.667510,0.589130,-0.325818,0.318117,80.826443,-54.076168,3.987015
16299,NaN,-1.484635,4.447490,-1.270172,-4.382963,1.660557,-8.536106,0.176582,-0.133189,-0.898473,0.668167,0.591401,-0.323362,0.315015,81.146980,-53.583202,3.717654
16300,NaN,-0.395422,4.394846,-0.639702,-3.711723,1.067076,-7.584594,0.182097,-0.328762,-1.333019,0.669156,0.594698,-0.320234,0.309861,81.661329,-52.856027,3.209544
16301,NaN,-0.208985,4.589518,-0.480170,-3.723711,0.931505,-7.242951,0.125506,-0.456270,-1.866739,0.670886,0.598799,-0.316031,0.302451,82.268327,-51.836951,2.536139
16302,NaN,-0.628330,4.471912,-0.292014,-3.850711,0.721991,-7.548194,0.072744,-0.499805,-2.255069,0.673220,0.603352,-0.310834,0.293468,82.879052,-50.592291,1.810114
16303,NaN,-0.295716,3.921119,-0.335201,-3.156040,0.721249,-7.555851,-0.039161,-0.550785,-2.570775,0.676169,0.607984,-0.304994,0.283072,83.442242,-49.170776,1.046865
16304,NaN,-0.675518,3.115508,0.406238,-2.795999,-0.095129,-8.231409,-0.064350,-0.543736,-2.819750,0.679433,0.612803,-0.298329,0.271741,83.960854,-47.598367,0.308057
16305,NaN,-0.643488,3.230522,-0.208094,-2.765714,0.531397,-8.091876,0.216405,-0.627925,-3.120990,0.681961,0.618981,-0.290600,0.259507,84.658777,-45.857953,-0.477453
16306,NaN,-0.821761,4.224695,-0.396723,-3.517606,0.811570,-7.436408,0.475094,-0.717923,-3.347428,0.683666,0.626332,-0.282036,0.246504,85.510362,-43.981313,-1.293496
16307,NaN,0.014543,5.790637,-0.351500,-3.886627,0.875362,-5.596117,0.551956,-0.792470,-3.523055,0.685023,0.634071,-0.273018,0.232721,86.386839,-42.003078,-2.112082
16308,NaN,1.245747,6.876488,-0.722343,-3.481363,1.259217,-3.842066,0.516899,-0.741307,-3.692875,0.686523,0.641659,-0.263206,0.218365,87.160733,-39.913142,-2.836080
