// General information: 
//  MT Manager version: 2019.0.1 
//  XDA version: 2019.0.1 build 2740 rev 84096 built on 2019-01-30
// Device information: 
//  DeviceId: 00B43876
//  ProductCode: MTW2-3A7G6
//  Firmware Version: 4.3.4
//  Hardware Version: 1.1.0
// Device settings: 
//  Filter Profile: human(46.1)
//  Option Flags: Orientation Smoother Disabled, AHS Disabled, ICC Disabled
// Coordinate system: ENU
PacketCounter,SampleTimeFine,Acc_X,Acc_Y,Acc_Z,FreeAcc_E,FreeAcc_N,FreeAcc_U,Gyr_X,Gyr_Y,Gyr_Z,Quat_q0,Quat_q1,Quat_q2,Quat_q3,Roll,Pitch,Yaw
20171,NaN,4.225929,8.588524,0.603119,0.189138,-0.054295,-0.223832,0.411467,0.020647,0.075333,0.723625,0.649057,-0.220955,0.079185,86.216402,-24.996797,-10.954153
20172,NaN,4.251897,8.344928,0.541760,0.309613,-0.069449,-0.436699,0.468828,0.003965,0.058945,0.722063,0.650694,-0.220983,0.079932,86.486398,-25.033571,-10.952877
20173,NaN,4.381927,8.539035,0.447918,0.352776,-0.013236,-0.211008,0.530666,0.001160,0.057559,0.720304,0.652533,-0.221004,0.080751,86.790197,-25.072574,-10.952616
20174,NaN,4.339531,8.703152,0.561267,0.207297,-0.139645,-0.074684,0.556554,-0.022682,0.102375,0.718399,0.654439,-0.221232,0.081664,87.117158,-25.135018,-10.967143
20175,NaN,4.335833,8.869795,0.541702,0.120734,-0.146319,0.073158,0.586465,-0.008118,0.085822,0.716424,0.656441,-0.221353,0.082616,87.455281,-25.190479,-10.972361
20176,NaN,4.357624,9.101905,0.580301,0.017072,-0.206711,0.293107,0.533322,0.006047,0.122046,0.714607,0.658220,-0.221548,0.083665,87.761331,-25.263343,-10.968990
20177,NaN,4.170716,9.364728,0.500630,-0.262277,-0.108028,0.447089,0.471574,0.004408,0.125030,0.712997,0.659752,-0.221796,0.084670,88.030107,-25.340915,-10.965974
20178,NaN,4.145814,9.314129,0.283166,-0.240485,0.066458,0.383321,0.365429,-0.035851,0.142496,0.711670,0.660919,-0.222277,0.085468,88.251478,-25.426294,-10.989485
20179,NaN,4.262046,9.350616,0.342144,-0.185504,-0.039532,0.467391,0.365308,-0.041329,0.115870,0.710357,0.662097,-0.222700,0.086170,88.472206,-25.499279,-11.016317
20180,NaN,4.412679,9.510836,0.124362,-0.091598,0.138051,0.671382,0.217570,-0.043537,0.088801,0.709529,0.662798,-0.223092,0.086586,88.611685,-25.553864,-11.046263
20181,NaN,4.342769,9.340897,0.188526,-0.107718,0.053271,0.489404,0.120884,-0.045047,0.063328,0.709042,0.663165,-0.223459,0.086817,88.693998,-25.596601,-11.076674
20182,NaN,4.343694,8.979650,0.099755,0.054919,0.093240,0.162283,0.036550,-0.058024,0.037963,0.708819,0.663286,-0.223812,0.086802,88.734178,-25.622170,-11.116750
20183,NaN,4.298260,8.741343,0.162913,0.096676,0.009630,-0.070860,0.031536,-0.053115,0.028264,0.708634,0.663380,-0.224130,0.086782,88.767848,-25.644829,-11.152885
20184,NaN,4.402288,8.705982,0.413674,0.148470,-0.263599,-0.052879,0.052969,-0.056162,0.021353,0.708365,0.663577,-0.224414,0.086733,88.817070,-25.660811,-11.192054
20185,NaN,4.425721,8.843882,0.475126,0.093176,-0.319714,0.082569,0.052734,-0.052215,0.040362,0.708105,0.663731,-0.224760,0.086782,88.862619,-25.690344,-11.227509
20186,NaN,4.375721,8.934514,0.489346,0.001391,-0.320591,0.142671,0.029351,-0.045403,0.053947,0.707913,0.663803,-0.225124,0.086858,88.895220,-25.724824,-11.259477
20187,NaN,4.435508,8.808545,0.187141,0.160254,-0.051270,0.049914,0.029442,-0.037748,0.081394,0.707728,0.663822,-0.225565,0.087074,88.923223,-25.777660,-11.285268
20188,NaN,4.248892,8.724779,0.144098,0.029515,0.013462,-0.107300,0.008539,-0.027122,0.103170,0.707604,0.663756,-0.226037,0.087361,88.938657,-25.840116,-11.305080
20189,NaN,4.186328,8.780970,-0.260570,0.024345,0.428889,-0.090850,-0.049211,-0.018362,0.062394,0.707710,0.663510,-0.226379,0.087485,88.916407,-25.881844,-11.318808
20190,NaN,4.105208,8.693679,-0.238647,-0.024926,0.413820,-0.204469,0.038671,-0.024758,0.141512,0.707471,0.663506,-0.226957,0.087950,88.948294,-25.966239,-11.336681
20191,NaN,4.095286,8.870870,0.161061,-0.205484,0.042609,-0.043062,0.010897,-0.015399,0.134809,0.707348,0.663389,-0.227503,0.088408,88.959487,-26.049356,-11.347776
20192,NaN,4.428895,8.541599,0.447236,0.157940,-0.330127,-0.187714,0.006200,-0.014597,0.108174,0.707243,0.663303,-0.227948,0.088751,88.970168,-26.114539,-11.359629
20193,NaN,4.256166,8.124958,0.803251,0.101467,-0.689000,-0.631725,-0.043580,-0.026138,0.082686,0.707311,0.663057,-0.228383,0.088927,88.953456,-26.167874,-11.378196
20194,NaN,3.987895,7.531152,0.845110,0.104337,-0.742468,-1.281942,-0.045341,-0.080719,0.058569,0.707322,0.662874,-0.228920,0.088817,88.953506,-26.205334,-11.432835
20195,NaN,3.816882,7.238431,0.568893,0.125048,-0.474668,-1.624517,0.022796,-0.178728,0.161458,0.706961,0.662839,-0.230126,0.088842,89.017436,-26.305369,-11.547948
20196,NaN,3.700688,7.852571,0.191291,-0.180453,-0.031302,-1.131618,0.130683,-0.276144,0.158589,0.706118,0.663249,-0.231606,0.088640,89.173579,-26.401775,-11.726701
20197,NaN,3.808529,9.558104,-1.107517,-0.572431,1.370721,0.428510,0.289086,-0.322452,0.157046,0.704705,0.664219,-0.233185,0.088479,89.431744,-26.499691,-11.934595
20198,NaN,4.164647,10.791541,-1.085115,-0.824259,1.366207,1.695265,0.382844,-0.252178,0.107133,0.703070,0.665561,-0.234297,0.088468,89.726644,-26.565159,-12.099423
20199,NaN,4.691291,11.117480,-0.718397,-0.604457,0.903815,2.226429,0.198642,-0.159994,0.096919,0.702167,0.666208,-0.235141,0.088527,89.887845,-26.626385,-12.204710
20200,NaN,5.637162,9.644835,-0.208066,0.746544,0.076606,1.335430,-0.181842,-0.107212,0.066438,0.702596,0.665547,-0.235856,0.088191,89.818079,-26.667618,-12.277189
20201,NaN,5.498296,7.943262,-0.472084,1.415977,0.207724,-0.247054,-0.181477,-0.026933,0.198728,0.703068,0.664680,-0.236740,0.088603,89.723410,-26.786895,-12.297011
20202,NaN,4.714599,8.133660,-0.067175,0.540200,-0.013502,-0.426723,0.133255,0.034510,0.266656,0.702526,0.664825,-0.237482,0.089815,89.793079,-26.942608,-12.277986
20203,NaN,4.319055,9.436175,0.762270,-0.588087,-0.623236,0.557575,0.129397,-0.002521,0.296759,0.701946,0.664921,-0.238468,0.091022,89.869600,-27.118203,-12.282156
20204,NaN,4.731497,9.535559,0.106038,-0.162962,-0.048018,0.831384,-0.086404,-0.058651,0.256590,0.702025,0.664346,-0.239603,0.091626,89.840858,-27.268312,-12.323398
20205,NaN,4.819871,9.033256,-0.388397,0.219636,0.380760,0.423935,-0.165236,-0.099794,0.247637,0.702327,0.663508,-0.240900,0.091984,89.777332,-27.415842,-12.390301
20206,NaN,4.539858,9.285463,-0.550209,-0.125514,0.633001,0.517673,-0.149630,-0.085528,0.278160,0.702571,0.662694,-0.242228,0.092499,89.720452,-27.578444,-12.448642
20207,NaN,4.594008,9.145034,-0.337716,-0.086516,0.417730,0.418077,-0.185417,-0.080687,0.262237,0.702952,0.661756,-0.243514,0.092947,89.640023,-27.734368,-12.503028
20208,NaN,4.954545,8.912210,0.348756,0.154688,-0.325206,0.383726,-0.228070,-0.059316,0.298775,0.703473,0.660625,-0.244854,0.093525,89.530359,-27.908820,-12.543939
20209,NaN,4.773038,8.663849,0.406975,0.072408,-0.349816,0.080850,-0.258598,-0.055151,0.280234,0.704114,0.659391,-0.246142,0.094030,89.400267,-28.075077,-12.581174
20210,NaN,4.783892,8.431241,0.243197,0.200603,-0.194660,-0.119785,-0.251627,-0.085567,0.281594,0.704683,0.658206,-0.247526,0.094432,89.285093,-28.240010,-12.638562
20211,NaN,5.074778,8.165595,0.157808,0.567562,-0.178892,-0.215760,-0.183956,-0.091422,0.270520,0.705033,0.657259,-0.248873,0.094875,89.208870,-28.401123,-12.698864
20212,NaN,5.356719,8.341258,0.537489,0.618609,-0.569520,0.079371,-0.083748,-0.034663,0.253624,0.705123,0.656672,-0.249905,0.095553,89.174314,-28.549753,-12.723009
20213,NaN,5.329121,8.563412,0.611749,0.451591,-0.600099,0.264102,-0.021927,0.040444,0.231620,0.705121,0.656279,-0.250582,0.096494,89.150070,-28.687693,-12.697499
20214,NaN,4.985041,8.653708,0.279072,0.168635,-0.190628,0.174823,0.018316,0.099898,0.225249,0.705055,0.656021,-0.250996,0.097642,89.131889,-28.818930,-12.633905
20215,NaN,4.881743,8.784221,0.321416,-0.011479,-0.187803,0.240264,0.012080,0.110535,0.213742,0.705036,0.655734,-0.251350,0.098793,89.104800,-28.946056,-12.562492
20216,NaN,4.846214,8.612077,0.256527,0.033766,-0.129396,0.071722,-0.007774,0.106496,0.208123,0.705071,0.655400,-0.251698,0.099869,89.069272,-29.067369,-12.494458
20217,NaN,4.739210,8.651752,0.260755,-0.096165,-0.098383,0.054529,-0.022418,0.084527,0.197010,0.705138,0.655024,-0.252105,0.100832,89.030349,-29.185056,-12.439925
20218,NaN,4.852312,8.692752,0.264045,-0.037109,-0.107695,0.145504,-0.045018,0.070557,0.180661,0.705262,0.654609,-0.252507,0.101646,88.984750,-29.290911,-12.395452
20219,NaN,5.006450,8.710036,0.409865,0.036517,-0.264380,0.238482,-0.070697,0.065608,0.186522,0.705468,0.654084,-0.252970,0.102448,88.923959,-29.402662,-12.353128
20220,NaN,4.954828,8.546702,0.451772,0.044382,-0.302522,0.071998,-0.085868,0.056866,0.186503,0.705703,0.653524,-0.253460,0.103187,88.859031,-29.511936,-12.317246
20221,NaN,4.741036,8.453644,0.372931,-0.092958,-0.185763,-0.115398,-0.043983,0.040847,0.197712,0.705783,0.653090,-0.254032,0.103981,88.821149,-29.630302,-12.290704
20222,NaN,4.767943,8.633850,0.283572,-0.153507,-0.073007,0.052815,-0.044509,-0.005530,0.168609,0.705812,0.652729,-0.254662,0.104505,88.800161,-29.730025,-12.295950
20223,NaN,5.263054,8.442361,0.175349,0.366211,-0.075892,0.130352,-0.063062,-0.025986,0.166515,0.705884,0.652301,-0.255378,0.104946,88.773281,-29.831254,-12.313758
20224,NaN,5.334293,8.312357,0.449750,0.411257,-0.367211,0.058900,-0.013881,-0.001617,0.173278,0.705815,0.652039,-0.255992,0.105538,88.768503,-29.933606,-12.316283
20225,NaN,5.042683,8.409251,0.577177,0.071842,-0.422426,0.000246,0.035322,0.001502,0.161490,0.705602,0.651949,-0.256543,0.106178,88.788995,-30.031698,-12.315993
20226,NaN,5.200310,8.378823,0.552494,0.209864,-0.432388,0.052511,0.048848,-0.015670,0.133314,0.705331,0.651967,-0.257043,0.106663,88.825142,-30.111323,-12.328452
20227,NaN,5.269740,8.369000,0.415436,0.289457,-0.315067,0.076692,0.050471,-0.019242,0.124099,0.705062,0.651987,-0.257536,0.107122,88.861445,-30.188259,-12.342482
20228,NaN,5.188913,8.354162,0.468406,0.202516,-0.357206,0.024366,0.068057,-0.021832,0.128423,0.704722,0.652082,-0.258032,0.107595,88.910789,-30.265137,-12.359236
20229,NaN,5.240751,8.396580,0.613253,0.179463,-0.507889,0.089531,0.083723,-0.039068,0.100369,0.704331,0.652260,-0.258500,0.107949,88.972992,-30.328712,-12.386852
20230,NaN,5.377606,8.159288,0.648690,0.390792,-0.605768,-0.045716,0.107302,-0.043143,0.095974,0.703852,0.652545,-0.258943,0.108288,89.052305,-30.387178,-12.418345
20231,NaN,5.436139,8.497328,0.661652,0.260498,-0.598446,0.275323,0.157926,-0.038695,0.052384,0.703245,0.653044,-0.259212,0.108571,89.157205,-30.423255,-12.446388
20232,NaN,5.464640,8.588063,0.235867,0.328158,-0.191491,0.362203,0.144536,-0.019742,0.007105,0.702722,0.653562,-0.259263,0.108722,89.250550,-30.430531,-12.463401
20233,NaN,5.375535,8.660513,0.098542,0.245476,-0.042199,0.377922,0.074706,-0.003068,-0.020303,0.702473,0.653843,-0.259215,0.108759,89.296100,-30.424690,-12.468476
20234,NaN,5.153571,8.341565,0.117476,0.213438,-0.063047,-0.009357,0.020689,0.015243,-0.055695,0.702434,0.653988,-0.259005,0.108643,89.306982,-30.395718,-12.462768
20235,NaN,5.547492,8.447335,-0.262608,0.581124,0.244063,0.277101,0.056922,0.037356,-0.049691,0.702311,0.654223,-0.258728,0.108685,89.328901,-30.372782,-12.441236
20236,NaN,5.318533,8.401441,-0.097657,0.376112,0.116106,0.123388,0.090450,0.081200,-0.017047,0.702107,0.654526,-0.258375,0.109011,89.357453,-30.365521,-12.391414
20237,NaN,5.253651,8.463139,-0.008355,0.271848,0.045441,0.144706,0.075931,0.089481,-0.024946,0.701975,0.654767,-0.257986,0.109336,89.372781,-30.356512,-12.335125
20238,NaN,5.241577,8.345166,0.120878,0.293270,-0.095411,0.037969,0.080728,0.089231,-0.035743,0.701823,0.655056,-0.257549,0.109609,89.393155,-30.338521,-12.280111
20239,NaN,5.318700,8.401438,0.390705,0.273630,-0.370481,0.127797,0.110199,0.083362,-0.031647,0.701574,0.655429,-0.257141,0.109935,89.430250,-30.325775,-12.227953
20240,NaN,5.421190,8.455258,0.681105,0.274382,-0.672063,0.228111,0.097705,0.090077,-0.061360,0.701381,0.655809,-0.256607,0.110143,89.460183,-30.293154,-12.172541
20241,NaN,5.288486,8.491097,0.646742,0.157803,-0.615599,0.191373,0.113264,0.102967,-0.074540,0.701170,0.656235,-0.255988,0.110387,89.492553,-30.255832,-12.107599
20242,NaN,5.280964,8.505753,0.420186,0.199839,-0.397888,0.198043,0.119069,0.106083,-0.087118,0.700942,0.656714,-0.255301,0.110585,89.529520,-30.208430,-12.041719
20243,NaN,5.369168,8.324632,0.176854,0.423290,-0.203410,0.083684,0.122735,0.098718,-0.118446,0.700718,0.657231,-0.254547,0.110672,89.568838,-30.146067,-11.979778
20244,NaN,5.485421,8.276019,0.195813,0.550459,-0.259444,0.099443,0.226110,0.122850,-0.111176,0.700170,0.658104,-0.253663,0.110977,89.661722,-30.084920,-11.902878
20245,NaN,5.467409,8.666927,0.589765,0.270647,-0.613915,0.429668,0.243499,0.142657,-0.130331,0.699609,0.659032,-0.252649,0.111321,89.755729,-30.015850,-11.811763
20246,NaN,5.464922,8.621502,0.445993,0.333230,-0.491627,0.387402,0.193326,0.167389,-0.156837,0.699249,0.659821,-0.251475,0.111571,89.815286,-29.928644,-11.705419
20247,NaN,5.232969,8.232958,-0.047301,0.438085,-0.023014,-0.067160,0.326559,0.213451,-0.135616,0.698503,0.661002,-0.250149,0.112234,89.933624,-29.856733,-11.567381
20248,NaN,5.397217,9.010424,0.083584,0.187598,-0.115363,0.688556,0.172585,0.204352,-0.222468,0.698290,0.661776,-0.248639,0.112351,89.969425,-29.732172,-11.436568
20249,NaN,5.279575,7.998068,-0.525357,0.719799,0.393788,-0.249958,0.199452,0.253206,-0.224050,0.698058,0.662596,-0.246951,0.112677,90.002511,-29.609844,-11.272484
20250,NaN,5.030228,9.018139,0.031213,-0.072191,-0.018908,0.513268,0.159048,0.242896,-0.296424,0.697975,0.663388,-0.245068,0.112646,90.018674,-29.443031,-11.116482
20251,NaN,4.813479,8.278976,-0.051808,0.141306,0.025104,-0.237038,0.090547,0.255985,-0.255115,0.698119,0.663861,-0.243327,0.112738,89.989503,-29.302965,-10.951057
20252,NaN,4.677709,8.230933,0.027049,0.057120,-0.037559,-0.345628,0.144383,0.232985,-0.263179,0.698049,0.664562,-0.241595,0.112770,90.001392,-29.155164,-10.802067
20253,NaN,4.959045,8.757039,0.260772,0.028308,-0.274707,0.250588,0.197201,0.190129,-0.297182,0.697778,0.665491,-0.239883,0.112625,90.055276,-28.991009,-10.680235
20254,NaN,4.636881,8.333488,-0.203112,0.061219,0.177229,-0.275722,0.347257,0.210662,-0.228594,0.696980,0.666865,-0.238228,0.112947,90.191210,-28.863287,-10.545966
20255,NaN,4.739144,9.174229,0.051535,-0.274523,-0.035720,0.509711,0.160813,0.158934,-0.294553,0.696787,0.667676,-0.236651,0.112664,90.234482,-28.700877,-10.444274
20256,NaN,4.755963,8.253749,-0.348423,0.272797,0.266436,-0.288009,0.165995,0.153418,-0.275295,0.696547,0.668501,-0.235140,0.112415,90.285039,-28.546529,-10.347275
20257,NaN,4.737695,8.613933,-0.191739,0.081123,0.130276,0.018831,0.228992,0.140529,-0.247238,0.696073,0.669501,-0.233746,0.112315,90.373660,-28.411295,-10.257702
20258,NaN,4.857611,8.590326,-0.294631,0.234548,0.194043,0.055655,0.207661,0.122748,-0.244792,0.695636,0.670448,-0.232419,0.112118,90.457951,-28.274529,-10.180594
20259,NaN,4.595978,8.683665,-0.226673,-0.028300,0.159262,0.013513,0.208065,0.136935,-0.229086,0.695213,0.671352,-0.231108,0.112043,90.536061,-28.149890,-10.093269
20260,NaN,4.671806,8.724024,-0.265724,0.043881,0.175028,0.085412,0.158297,0.118711,-0.209140,0.694915,0.672086,-0.229941,0.111899,90.593604,-28.033704,-10.018789
20261,NaN,4.652613,8.711869,-0.301275,0.056262,0.200249,0.066125,0.153241,0.098024,-0.208625,0.694616,0.672795,-0.228864,0.111701,90.652534,-27.920665,-9.956763
20262,NaN,4.583462,8.630202,-0.389808,0.066259,0.280185,-0.037334,0.135405,0.074752,-0.204850,0.694339,0.673466,-0.227876,0.111397,90.710500,-27.806771,-9.910693
20263,NaN,4.623835,8.745426,-0.243279,0.039111,0.125727,0.081965,0.141251,0.068509,-0.169132,0.694022,0.674103,-0.227040,0.111222,90.771841,-27.716213,-9.868008
20264,NaN,4.609781,8.822339,-0.218491,0.000339,0.098023,0.143309,0.103492,0.066119,-0.139991,0.693805,0.674593,-0.226318,0.111079,90.814439,-27.639489,-9.827932
20265,NaN,4.444743,8.626077,-0.454422,-0.005936,0.336295,-0.104016,0.074221,0.065790,-0.086306,0.693664,0.674905,-0.225807,0.111105,90.838648,-27.596374,-9.787704
20266,NaN,4.327562,8.574505,-0.680677,-0.043961,0.564839,-0.200598,0.156658,0.034782,-0.041276,0.693176,0.675484,-0.225497,0.111258,90.921553,-27.575981,-9.768767
20267,NaN,4.758625,8.763907,-0.019771,0.137986,-0.154778,0.157666,0.195538,0.014226,-0.025889,0.692533,0.676177,-0.225302,0.111456,91.031117,-27.567004,-9.762476
20268,NaN,4.826585,8.771480,-0.064445,0.201478,-0.136310,0.196296,0.168621,0.025433,-0.044326,0.691995,0.676805,-0.225006,0.111580,91.123628,-27.544820,-9.749467
20269,NaN,4.482077,8.803471,-0.024271,-0.119578,-0.137613,0.064430,0.189070,0.022823,-0.048124,0.691393,0.677495,-0.224709,0.111723,91.226759,-27.523231,-9.737283
20270,NaN,4.637465,8.658551,0.009909,0.077037,-0.216040,0.006888,0.118492,0.022030,0.000509,0.690995,0.677900,-0.224605,0.111934,91.291830,-27.526724,-9.727034
20271,NaN,4.569510,8.497208,-0.380364,0.148967,0.160083,-0.159719,0.147205,0.011017,0.038184,0.690474,0.678354,-0.224664,0.112288,91.375041,-27.554408,-9.723687
20272,NaN,4.405481,8.807250,-0.155301,-0.180591,-0.035976,0.034449,0.218815,-0.009153,0.061597,0.689665,0.679054,-0.224818,0.112717,91.507376,-27.592470,-9.734589
20273,NaN,4.582894,9.048259,-0.334077,-0.117614,0.111137,0.334200,0.126857,-0.035229,0.046046,0.689155,0.679453,-0.225074,0.112917,91.592929,-27.623908,-9.761391
20274,NaN,4.819121,8.504233,-0.464238,0.357995,0.165345,-0.034859,0.054721,-0.071062,-0.049765,0.688896,0.679747,-0.225155,0.112567,91.648916,-27.597156,-9.810408
20275,NaN,4.808011,8.306490,-0.716855,0.478108,0.392845,-0.208226,0.204144,-0.030545,0.005795,0.688150,0.680455,-0.225215,0.112732,91.777097,-27.605541,-9.833528
20276,NaN,4.543793,8.457953,-0.923432,0.202673,0.623519,-0.189494,0.259892,-0.029288,0.050095,0.687183,0.681317,-0.225376,0.113099,91.939043,-27.636571,-9.857519
20277,NaN,4.584984,8.790133,-0.601176,0.022938,0.290783,0.115292,0.281691,-0.033473,0.080410,0.686125,0.682208,-0.225655,0.113597,92.113540,-27.687528,-9.884365
20278,NaN,4.506914,9.024704,-0.327779,-0.209749,0.019260,0.277930,0.241185,-0.034945,0.094685,0.685187,0.682957,-0.225998,0.114076,92.267122,-27.743840,-9.913341
20279,NaN,4.075139,9.190068,-0.224559,-0.691224,-0.029154,0.219056,0.161682,-0.064455,0.065225,0.684509,0.683470,-0.226399,0.114280,92.382256,-27.785195,-9.960165
20280,NaN,3.747811,9.190431,-0.405952,-0.956324,0.188478,0.072899,0.029659,-0.104966,0.041941,0.684244,0.683592,-0.226921,0.114100,92.435264,-27.809529,-10.033283
20281,NaN,3.754712,8.980717,-1.679251,-0.657624,1.434403,-0.061737,-0.113605,-0.191922,0.013233,0.684391,0.683294,-0.227736,0.113377,92.430591,-27.817724,-10.161278
20282,NaN,3.992229,8.687919,-1.575479,-0.326681,1.283324,-0.213400,-0.144374,-0.319308,-0.005196,0.684502,0.682995,-0.228929,0.112105,92.448038,-27.809813,-10.371846
20283,NaN,4.332132,8.627617,-1.023088,-0.088779,0.678495,-0.128597,-0.140665,-0.390850,0.024871,0.684502,0.682701,-0.230477,0.110710,92.488451,-27.819502,-10.629080
20284,NaN,4.889795,8.838866,-0.445916,0.200818,0.022126,0.296401,-0.156913,-0.402862,0.044148,0.684526,0.682343,-0.232130,0.109306,92.524670,-27.837525,-10.895146
20285,NaN,5.333461,9.064381,0.438243,0.326297,-0.917057,0.668410,-0.168174,-0.356023,0.031046,0.684651,0.681923,-0.233594,0.108017,92.539157,-27.851354,-11.130150
20286,NaN,4.506460,9.029926,-0.544737,-0.208561,0.186778,0.290089,-0.122907,-0.297830,0.006079,0.684697,0.681664,-0.234737,0.106880,92.562706,-27.850082,-11.327193
20287,NaN,4.204297,8.909576,-0.673462,-0.392951,0.359129,0.047679,-0.154684,-0.309632,0.037291,0.684822,0.681253,-0.236054,0.105786,92.570988,-27.868556,-11.532359
20288,NaN,4.680948,8.635038,-0.227135,0.065003,-0.173374,0.010370,-0.261330,-0.327892,0.061205,0.685270,0.680467,-0.237559,0.104572,92.525200,-27.898080,-11.750516
20289,NaN,4.890728,8.465592,-0.210297,0.316789,-0.230019,-0.041483,-0.225246,-0.303193,0.077406,0.685618,0.679758,-0.239027,0.103553,92.491913,-27.939800,-11.952763
20290,NaN,4.751865,8.646831,0.098657,0.045657,-0.494091,0.041825,-0.170003,-0.279897,0.106293,0.685784,0.679201,-0.240472,0.102764,92.484808,-27.996529,-12.141221
20291,NaN,4.792505,8.921143,0.247129,-0.088733,-0.629409,0.297304,-0.134401,-0.265304,0.128556,0.685837,0.678719,-0.241934,0.102158,92.493098,-28.068566,-12.320512
20292,NaN,5.181061,9.034007,0.142200,0.200002,-0.589921,0.583892,-0.157219,-0.215613,0.122658,0.686025,0.678149,-0.243207,0.101658,92.474383,-28.136272,-12.467946
20293,NaN,5.208147,8.557020,-0.497982,0.561129,0.009580,0.201323,-0.144111,-0.147460,0.106242,0.686263,0.677597,-0.244193,0.101363,92.441033,-28.198536,-12.570220
20294,NaN,4.979012,8.588899,-0.214530,0.281597,-0.217029,0.110989,-0.066421,-0.071235,0.140059,0.686309,0.677242,-0.244983,0.101523,92.430550,-28.279827,-12.624445
20295,NaN,5.078458,8.738460,-0.056716,0.250128,-0.375468,0.284395,-0.043537,0.011224,0.162781,0.686371,0.676884,-0.245565,0.102082,92.406914,-28.378424,-12.625191
20296,NaN,5.235486,8.428172,-0.200973,0.541300,-0.276976,0.092616,0.008095,0.068095,0.225262,0.686290,0.676609,-0.246126,0.103097,92.397222,-28.511864,-12.591083
20297,NaN,4.627027,8.897508,0.247963,-0.313781,-0.565460,0.198221,0.055077,0.090544,0.200937,0.686094,0.676500,-0.246515,0.104178,92.405800,-28.634279,-12.541114
20298,NaN,4.972924,8.499992,-0.202655,0.240331,-0.210966,0.032037,0.023401,0.072295,0.211200,0.685972,0.676290,-0.247006,0.105177,92.403209,-28.759771,-12.503804
20299,NaN,4.913294,8.229050,-0.322433,0.317527,-0.097677,-0.228781,0.146936,0.099381,0.274956,0.685437,0.676397,-0.247565,0.106654,92.462305,-28.924775,-12.450014
20300,NaN,4.439398,10.132877,0.108257,-1.105138,-0.309569,1.190857,-0.051353,0.018566,0.069898,0.685574,0.676133,-0.247801,0.106895,92.431848,-28.968090,-12.443919
20301,NaN,4.748365,7.914554,-0.718351,0.381600,0.315483,-0.568338,-0.242006,-0.053578,0.112726,0.686249,0.675188,-0.248542,0.106816,92.314185,-29.036439,-12.485537
20302,NaN,5.005896,8.174192,-0.637096,0.450755,0.213020,-0.219266,-0.004212,-0.044843,0.127326,0.686118,0.675047,-0.249165,0.107098,92.331595,-29.111148,-12.522387
20303,NaN,4.985287,8.775893,-0.593296,0.118917,0.214664,0.294792,-0.010077,-0.036830,0.158140,0.686005,0.674832,-0.249877,0.107520,92.342276,-29.205959,-12.554309
20304,NaN,5.020161,8.795593,-0.616379,0.127923,0.235697,0.329919,-0.055644,-0.032751,0.156899,0.686045,0.674470,-0.250586,0.107880,92.326867,-29.297874,-12.584097
20305,NaN,4.959810,8.740679,-0.411813,0.046804,0.049198,0.245351,-0.052077,-0.027665,0.163084,0.686081,0.674099,-0.251306,0.108297,92.310782,-29.395724,-12.610193
20306,NaN,5.028601,8.752209,-0.362410,0.073515,-0.004581,0.287505,-0.066576,-0.015453,0.175612,0.686169,0.673666,-0.252023,0.108766,92.283844,-29.498766,-12.629091
20307,NaN,5.289008,8.599092,-0.377445,0.355883,-0.041681,0.283453,-0.073633,-0.019279,0.165814,0.686285,0.673212,-0.252735,0.109193,92.252806,-29.598372,-12.649703
20308,NaN,5.324400,8.593705,-0.399831,0.377320,-0.019689,0.297609,-0.038372,0.008240,0.159736,0.686315,0.672882,-0.253302,0.109722,92.234125,-29.692871,-12.652510
20309,NaN,5.321373,8.870110,-0.090620,0.160538,-0.296474,0.526093,-0.002594,0.037418,0.162218,0.686265,0.672644,-0.253768,0.110418,92.225267,-29.791744,-12.635622
20310,NaN,5.131104,8.797359,0.053603,-0.009400,-0.400057,0.363975,-0.024666,0.070180,0.156180,0.686329,0.672330,-0.254103,0.111161,92.194032,-29.885578,-12.597396
20311,NaN,5.195791,8.616852,0.058750,0.117629,-0.421462,0.240091,-0.015343,0.086821,0.168241,0.686379,0.672012,-0.254426,0.112027,92.161470,-29.988964,-12.547847
20312,NaN,5.128636,8.738893,0.210618,-0.047082,-0.542035,0.307563,0.023495,0.076131,0.185085,0.686271,0.671823,-0.254810,0.112950,92.156012,-30.099445,-12.506230
20313,NaN,4.952917,8.677534,0.029434,-0.148740,-0.331782,0.172282,0.030653,0.042953,0.197317,0.686095,0.671648,-0.255355,0.113827,92.164420,-30.218517,-12.486254
20314,NaN,5.121110,8.638309,-0.166133,0.029972,-0.172971,0.229369,0.066298,0.035357,0.215687,0.685772,0.671588,-0.255957,0.114772,92.197333,-30.345644,-12.472393
20315,NaN,5.107365,8.979734,-0.027806,-0.204232,-0.281393,0.512071,0.080226,0.049537,0.232102,0.685416,0.671533,-0.256567,0.115854,92.232296,-30.484762,-12.448985
20316,NaN,4.922099,8.955418,-0.329674,-0.312473,0.049239,0.406665,0.014438,0.039742,0.217792,0.685270,0.671288,-0.257190,0.116754,92.234034,-30.613203,-12.432359
20317,NaN,4.916663,9.019887,-0.565168,-0.327409,0.290343,0.466408,0.013236,0.021344,0.237035,0.685097,0.671012,-0.257951,0.117671,92.240137,-30.754443,-12.427825
20318,NaN,4.983021,9.333492,-0.855988,-0.400486,0.588795,0.778354,0.032814,0.003660,0.260603,0.684816,0.670794,-0.258829,0.118620,92.265240,-30.906587,-12.436382
20319,NaN,4.951311,9.651519,-0.964644,-0.598873,0.725542,1.036860,0.070190,0.024550,0.288318,0.684423,0.670642,-0.259716,0.119796,92.303721,-31.077138,-12.431235
20320,NaN,5.007885,9.932424,-0.320550,-0.855937,0.105998,1.281940,0.049772,0.040889,0.328228,0.684090,0.670369,-0.260683,0.121123,92.326753,-31.268850,-12.416936
20321,NaN,5.197526,9.427804,0.054702,-0.547424,-0.323760,0.934226,-0.056289,0.039738,0.348881,0.684100,0.669695,-0.261794,0.122390,92.288396,-31.474228,-12.403328
20322,NaN,5.260660,8.726132,0.229423,-0.201371,-0.542968,0.362629,-0.069947,0.055815,0.373468,0.684156,0.668940,-0.262932,0.123764,92.237983,-31.692167,-12.379932
20323,NaN,5.153146,8.756197,0.034398,-0.309646,-0.315963,0.337741,0.012799,0.082409,0.456767,0.683920,0.668327,-0.264213,0.125633,92.225135,-31.960167,-12.339948
20324,NaN,5.245874,9.032190,-0.478117,-0.326995,0.201442,0.636261,0.036224,0.075586,0.493307,0.683564,0.667758,-0.265616,0.127622,92.229790,-32.247144,-12.306048
20325,NaN,5.339214,9.235072,-0.803518,-0.349424,0.528329,0.866166,0.086130,0.091885,0.532134,0.683039,0.667283,-0.267066,0.129875,92.256128,-32.558425,-12.261426
20326,NaN,5.471392,9.424554,-0.840130,-0.397311,0.562061,1.095568,0.142497,0.138800,0.599208,0.682334,0.666884,-0.268533,0.132576,92.299680,-32.907496,-12.187434
20327,NaN,5.713241,9.650987,-0.414702,-0.474459,0.126254,1.399498,0.181440,0.192743,0.680945,0.681514,0.666455,-0.270066,0.135798,92.344980,-33.306236,-12.078214
20328,NaN,5.914403,9.953343,0.196569,-0.671940,-0.478426,1.737499,0.239337,0.273359,0.758091,0.680542,0.666064,-0.271532,0.139616,92.394611,-33.749550,-11.916331
20329,NaN,5.666990,10.173886,0.445604,-1.133346,-0.656075,1.767710,0.304200,0.375465,0.850660,0.679419,0.665672,-0.272912,0.144185,92.440786,-34.249874,-11.685493
20330,NaN,5.483404,10.309729,0.283066,-1.430609,-0.447387,1.771380,0.336067,0.454742,0.922421,0.678223,0.665226,-0.274227,0.149290,92.474263,-34.791919,-11.401410
20331,NaN,5.325516,10.269597,-0.123497,-1.576286,-0.015376,1.648330,0.377597,0.514469,1.007479,0.676891,0.664728,-0.275586,0.154944,92.504209,-35.385438,-11.075673
20332,NaN,5.301832,10.271330,-0.638457,-1.637541,0.502327,1.636409,0.480258,0.585991,1.145677,0.675175,0.664314,-0.277067,0.161429,92.563524,-36.058911,-10.702690
20333,NaN,5.347932,10.879392,-0.392860,-2.143546,0.293093,2.121847,0.581999,0.642338,1.254948,0.673083,0.664002,-0.278625,0.168610,92.652763,-36.797589,-10.289957
20334,NaN,5.284941,11.570098,-0.093593,-2.814881,0.043185,2.592092,0.624069,0.744564,1.349947,0.670863,0.663580,-0.280100,0.176490,92.719082,-37.593033,-9.805019
20335,NaN,5.260134,12.342549,-0.214590,-3.471482,0.203200,3.147160,0.658531,0.864541,1.471209,0.668546,0.662939,-0.281522,0.185214,92.743894,-38.461718,-9.231419
20336,NaN,4.884019,12.614537,-0.486724,-4.086570,0.529597,3.080467,0.548366,0.877588,1.384002,0.666632,0.661996,-0.282692,0.193517,92.688337,-39.280470,-8.639200
20337,NaN,4.179568,11.485819,-0.620322,-4.058034,0.702930,1.711808,0.183548,0.771291,1.185022,0.665936,0.660173,-0.283886,0.200275,92.456237,-39.980880,-8.109050
20338,NaN,4.695968,9.632267,-0.615750,-2.603079,0.597121,0.583362,-0.176207,0.609066,1.108553,0.666233,0.657399,-0.285722,0.205725,92.085787,-40.632228,-7.689496
20339,NaN,5.805916,8.549251,-0.595135,-1.176555,0.467171,0.461004,-0.126320,0.604471,1.080944,0.666372,0.654806,-0.287409,0.211125,91.734256,-41.264385,-7.262060
20340,NaN,6.445794,8.765990,-1.080230,-0.908805,0.950291,1.042137,0.281039,0.838016,1.138280,0.665412,0.653215,-0.288073,0.218063,91.490523,-41.932733,-6.649524
20341,NaN,6.111301,11.257352,-2.182213,-2.866815,2.217516,2.665250,0.961523,1.229823,1.224762,0.662659,0.653285,-0.286941,0.227524,91.420444,-42.653565,-5.725023
20342,NaN,4.447794,15.734890,-2.472228,-7.307594,2.753812,4.764351,1.306947,1.547012,1.292196,0.659066,0.653964,-0.284562,0.238720,91.363925,-43.418198,-4.542158
20343,NaN,2.275145,18.719873,-1.621508,-11.219541,2.010209,5.297349,0.824274,1.595039,1.253235,0.657088,0.652969,-0.282419,0.249212,90.978884,-44.155146,-3.300998
20344,NaN,1.847450,17.299676,-1.350750,-10.747800,1.705192,3.828753,-0.182174,1.454134,1.196559,0.658190,0.648851,-0.281795,0.257625,90.067166,-44.851299,-2.146529
20345,NaN,3.627996,14.596189,-1.098015,-7.767438,1.431340,3.033696,-0.444192,1.465824,1.389577,0.659857,0.643531,-0.282040,0.266290,88.963903,-45.638571,-0.948619
20346,NaN,5.738544,14.488683,-0.341671,-6.450064,0.756757,4.357240,-0.047508,1.483941,1.694090,0.659779,0.638981,-0.282672,0.276573,88.031952,-46.589731,0.309282
20347,NaN,5.467924,16.396977,0.463935,-8.297582,0.079670,5.356669,0.147073,1.322216,1.883515,0.658516,0.634962,-0.284101,0.287170,87.259444,-47.633849,1.481744
20348,NaN,2.700793,16.852237,-1.294384,-10.752949,1.834340,3.376979,0.022059,1.066230,1.900279,0.657166,0.630779,-0.286606,0.296828,86.530408,-48.691157,2.479748
20349,NaN,3.314681,16.232158,-0.169036,-10.151514,0.761035,3.258477,-0.402329,0.879341,2.100317,0.656525,0.625137,-0.290903,0.305867,85.627329,-49.852510,3.370764
20350,NaN,6.174427,14.789965,2.203957,-7.519727,-1.409777,4.441250,-1.067006,0.638223,2.413723,0.657009,0.617103,-0.297988,0.314208,84.433877,-51.201904,4.127240
20351,NaN,5.537472,11.884141,-1.515141,-5.952624,2.298303,1.740067,-0.656839,0.565317,2.478950,0.655922,0.610353,-0.304759,0.323043,83.463597,-52.573869,4.885770
20352,NaN,3.303764,13.212356,-0.631447,-8.626040,1.448508,0.645084,-0.708901,-0.242687,2.236588,0.654030,0.604982,-0.313535,0.328539,83.046838,-53.866184,4.901361
20353,NaN,3.309806,10.950869,-2.655871,-6.959755,3.430971,-0.997054,-0.867531,0.108435,1.945919,0.653588,0.598933,-0.320439,0.333799,82.273594,-54.956488,5.245026
20354,NaN,-1.903959,8.605119,-4.661693,-8.090133,5.054801,-6.914274,-0.101330,0.500664,1.674809,0.651844,0.595072,-0.324005,0.340600,81.614835,-55.869886,5.976981
20355,NaN,-3.064787,8.610835,0.824266,-8.885368,-0.472280,-7.566720,-0.512142,0.207862,1.503279,0.651121,0.590655,-0.328622,0.345217,80.960953,-56.694515,6.415122
20356,NaN,-0.088097,6.264145,-3.017888,-5.232552,3.443680,-6.793559,-1.474049,-0.678493,1.374255,0.651922,0.584748,-0.337445,0.345251,80.520312,-57.537713,5.936403
20357,NaN,-0.875722,4.719627,-5.124858,-4.242316,5.438212,-8.495811,-0.519804,-1.493118,0.662053,0.649757,0.584558,-0.345085,0.342087,81.481689,-58.036258,4.452994
20358,NaN,-3.528049,6.746986,-3.263608,-7.417631,3.674917,-9.506774,0.306520,-1.266168,-0.089009,0.646785,0.587873,-0.348436,0.338624,82.828172,-58.088207,3.075557
20359,NaN,-4.241003,7.771723,-2.997113,-8.666751,3.485901,-9.490474,0.429788,-0.773601,-0.642154,0.645251,0.591755,-0.348268,0.334943,83.858109,-57.762978,2.155803
20360,NaN,-3.442369,6.974910,-3.724466,-7.523143,4.171397,-9.202549,0.178304,-0.390679,-0.707292,0.645193,0.594223,-0.347164,0.331817,84.382990,-57.386126,1.657278
20361,NaN,-2.314492,5.693741,-2.637784,-5.888235,3.013676,-8.822877,0.059041,-0.110289,-0.694912,0.645975,0.595878,-0.345299,0.329264,84.587542,-56.983213,1.459707
20362,NaN,-1.477685,4.920876,-1.842558,-4.817391,2.176610,-8.453095,0.017150,0.020433,-0.976370,0.647530,0.597590,-0.342321,0.326202,84.666119,-56.428467,1.379749
20363,NaN,-1.475820,4.576304,-1.862963,-4.512176,2.172372,-8.583097,0.001204,0.102795,-1.499662,0.650128,0.600060,-0.337436,0.321556,84.711965,-55.553920,1.331334
20364,NaN,-2.056917,4.385174,-0.674740,-4.729168,0.966024,-9.027231,0.017857,0.183076,-1.988011,0.653519,0.603160,-0.330861,0.315662,84.729145,-54.413360,1.325191
20365,NaN,-2.578126,4.181427,-0.096585,-4.884680,0.366708,-9.432278,0.031854,0.212921,-2.352471,0.657440,0.606863,-0.322932,0.308553,84.763888,-53.045748,1.311350
20366,NaN,-2.716303,4.114936,0.012977,-4.911233,0.247028,-9.454188,0.209346,0.161082,-2.630075,0.661037,0.611508,-0.314102,0.300712,84.945773,-51.539919,1.235498
20367,NaN,-2.337799,4.963560,1.257833,-5.372567,-0.938264,-8.420768,0.405700,-0.086652,-2.941873,0.664007,0.617617,-0.304679,0.291227,85.424373,-49.849442,0.924543
20368,NaN,-2.217759,6.009185,2.001533,-6.067300,-1.618279,-7.446180,0.315829,-0.232161,-3.330112,0.667407,0.624002,-0.294695,0.279899,85.927989,-47.960129,0.499020
20369,NaN,-2.448579,6.088424,1.586794,-6.181358,-1.201729,-7.378649,0.150477,-0.379029,-3.631622,0.671348,0.630363,-0.284293,0.266668,86.405831,-45.882489,-0.029744
20370,NaN,-1.292774,6.353183,0.431212,-5.403049,-0.028534,-6.204193,0.125310,-0.542570,-3.872137,0.675190,0.636903,-0.273721,0.252091,86.919092,-43.688949,-0.653566
20371,NaN,-0.204900,7.047357,0.398080,-4.918759,0.033089,-4.746781,0.122350,-0.576734,-4.142652,0.679083,0.643650,-0.262177,0.236271,87.408786,-41.317565,-1.266908
20372,NaN,0.630732,7.676693,0.274432,-4.459725,0.163289,-3.529406,0.143585,-0.547457,-4.357681,0.682862,0.650353,-0.249814,0.219848,87.846511,-38.839040,-1.815874
20373,NaN,1.077290,8.274176,-0.308790,-4.151991,0.739397,-2.607126,0.180225,-0.519875,-4.532354,0.686427,0.657103,-0.236498,0.202735,88.254572,-36.235990,-2.307949
20374,NaN,1.003221,9.134941,-0.416786,-4.358505,0.854688,-1.757620,0.269920,-0.564823,-4.752278,0.689469,0.664044,-0.222517,0.184833,88.689708,-33.525806,-2.794873
20375,NaN,1.195313,9.835143,-0.665466,-4.154492,1.069352,-0.858471,0.387665,-0.651933,-4.925849,0.691788,0.671324,-0.207888,0.165941,89.186218,-30.692400,-3.301939
20376,NaN,1.247074,11.510033,0.438726,-4.548450,-0.049152,0.841375,0.524325,-0.722491,-5.056002,0.693222,0.678782,-0.192950,0.146521,89.737618,-27.802554,-3.811414
20377,NaN,3.628902,11.407980,0.689957,-1.846451,-0.560044,2.020826,0.513213,-0.719768,-5.149241,0.694311,0.685884,-0.177429,0.126549,90.242128,-24.833139,-4.275752
20378,NaN,4.008681,11.762545,0.430878,-1.026418,-0.493734,2.567926,1.338034,-0.502180,-5.074596,0.692227,0.695120,-0.160900,0.108355,91.121799,-21.925366,-4.555267
20379,NaN,2.756056,17.232563,1.166458,-3.521159,-1.307526,7.267587,0.782068,-0.872812,-5.362677,0.691437,0.702403,-0.144700,0.087220,91.732424,-18.821979,-5.010056
20380,NaN,4.540875,17.236185,1.124287,-0.910144,-1.604402,7.949321,0.071783,-1.270156,-5.497792,0.692370,0.706913,-0.129734,0.063772,91.970735,-15.652958,-5.668700
20381,NaN,8.194810,18.300359,1.187599,3.307913,-2.171478,9.877763,-0.490799,-1.644429,-5.476177,0.694483,0.709038,-0.116073,0.038527,91.902553,-12.465788,-6.532644
20382,NaN,12.930533,19.343858,1.314186,8.734991,-3.046038,11.574355,-0.264429,-1.716245,-5.335705,0.695163,0.711278,-0.103162,0.013749,91.923624,-9.380351,-7.433138
20383,NaN,16.081034,20.303348,1.186448,12.771108,-3.646741,12.451359,-0.130096,-1.509982,-5.092492,0.694936,0.713331,-0.090181,-0.009516,91.957690,-6.417005,-8.208626
20384,NaN,17.877345,19.011282,0.292647,15.845448,-3.308228,10.655546,-0.311436,-1.261129,-4.988629,0.694996,0.714211,-0.076767,-0.031484,91.836113,-3.539236,-8.842071
20385,NaN,17.497225,19.144843,-1.006565,16.620650,-2.192185,9.999253,-1.013053,-1.276518,-4.684191,0.697156,0.712082,-0.064220,-0.052803,91.281914,-0.821778,-9.503072
20386,NaN,17.793970,15.016159,-3.198371,18.125686,-0.169802,5.143435,-0.859912,-1.206365,-4.126771,0.698561,0.709929,-0.053531,-0.071747,90.786908,1.551861,-10.154946
20387,NaN,18.599555,13.223136,-3.339692,19.442538,-0.328112,2.587565,-0.796532,-1.169620,-3.555701,0.699656,0.707558,-0.044650,-0.088601,90.302154,3.606408,-10.809027
20388,NaN,22.628841,10.459667,-4.362154,23.775228,-0.216505,-1.144663,-0.531460,-0.790851,-3.062862,0.699902,0.705949,-0.036381,-0.102223,89.964060,5.359361,-11.262909
20389,NaN,24.180272,8.546161,-4.589280,25.365088,-0.373771,-3.877798,-0.174081,-0.119317,-2.440263,0.699177,0.705679,-0.028071,-0.111265,89.858167,6.764084,-11.336767
20390,NaN,24.157597,6.685430,-3.057915,24.936312,-1.810868,-6.275088,0.097561,0.460048,-2.021609,0.697726,0.706530,-0.019424,-0.116692,89.949252,7.919818,-11.076450
20391,NaN,23.996558,5.950809,-1.532943,24.447874,-3.172786,-7.399968,0.475627,0.490679,-1.428339,0.695221,0.708603,-0.012954,-0.119922,90.265112,8.739527,-10.793917
20392,NaN,23.092741,7.908396,1.627525,23.291827,-6.156163,-5.563255,0.851889,0.105624,-0.363697,0.691975,0.711652,-0.011850,-0.120758,90.764288,8.944388,-10.734306
20393,NaN,22.398639,10.591967,6.821637,22.006562,-11.287125,-2.831850,0.233163,-0.132936,0.830843,0.691620,0.712333,-0.015447,-0.118346,90.887072,8.466855,-10.821745
20394,NaN,23.404540,10.704036,4.854645,23.255313,-9.537997,-2.457201,-1.121653,-0.335488,2.118987,0.696782,0.708047,-0.023531,-0.112295,90.217673,7.251713,-11.031110
20395,NaN,3.099201,7.085112,-5.614773,4.899824,4.711634,-3.095615,0.658090,-0.139468,2.079477,0.695559,0.709977,-0.031814,-0.105440,90.585408,6.053847,-11.123761
20396,NaN,-19.447371,11.801023,0.323304,-17.888863,2.808366,3.958638,3.532203,0.448248,-0.003699,0.682970,0.722393,-0.032140,-0.103286,92.637969,6.045841,-10.869112
20397,NaN,-24.012194,16.113160,2.866571,-22.584665,0.398961,8.467943,1.839849,0.997841,0.730871,0.676813,0.729035,-0.032379,-0.096871,93.749350,5.590435,-10.322591
20398,NaN,-5.599736,11.165761,5.040318,-5.672704,-4.896329,1.379500,1.125282,0.699406,3.420563,0.674356,0.732512,-0.043060,-0.082553,94.416700,3.604299,-10.065271
20399,NaN,12.652049,26.943224,-4.291875,13.855103,-0.338657,16.873923,0.039712,-1.436302,5.053434,0.675749,0.730714,-0.066452,-0.070741,94.400361,0.777698,-11.112713
20400,NaN,20.415015,25.014502,0.491006,19.540202,-6.402715,15.084239,-1.228938,-2.394001,2.701412,0.680263,0.724692,-0.084004,-0.070759,93.696707,-0.672213,-12.593841
20401,NaN,6.315617,11.553163,-1.070180,6.033598,-1.005444,1.895877,-0.666136,-0.800006,1.290248,0.682768,0.721576,-0.091221,-0.069531,93.325212,-1.387964,-13.100497
20402,NaN,-2.429674,7.260526,-0.171710,-2.646124,0.422990,-2.638838,-1.646488,-0.074689,1.904702,0.689269,0.715010,-0.097809,-0.064046,92.387132,-2.478602,-13.201275
20403,NaN,1.129804,3.919099,-4.744931,1.963939,4.292537,-5.705937,-2.611091,-0.516738,1.722406,0.698809,0.704913,-0.104960,-0.061209,90.909211,-3.462768,-13.529729
20404,NaN,8.925570,1.481837,-0.420590,8.643053,-1.727248,-7.726900,-0.767643,-1.326411,1.435567,0.701206,0.701040,-0.114454,-0.061269,90.523636,-4.278688,-14.305187
20405,NaN,6.683420,4.740686,-0.083352,6.066154,-1.560705,-4.529469,1.436473,-0.558524,1.790993,0.696340,0.704832,-0.123188,-0.056098,91.376915,-5.306383,-14.647089
20406,NaN,2.811934,10.209137,1.041086,1.354329,-1.761476,0.592834,1.521292,0.184307,2.003800,0.691585,0.708896,-0.130065,-0.047532,92.243724,-6.460118,-14.581016
20407,NaN,0.887240,11.379984,-2.875114,0.096704,2.428354,1.704540,0.931026,0.206113,1.791249,0.688798,0.710962,-0.135984,-0.039974,92.770239,-7.498004,-14.511228
20408,NaN,1.211737,11.445057,-0.584278,-0.378579,0.097183,1.704378,0.526517,-0.098997,1.687753,0.687155,0.711587,-0.142465,-0.034155,93.089212,-8.463671,-14.621978
20409,NaN,1.843207,10.906547,-0.420257,0.083885,-0.208570,1.254108,0.142191,-0.454250,1.504668,0.686547,0.710904,-0.149465,-0.030474,93.221116,-9.317264,-14.936943
20410,NaN,2.429001,9.837224,-1.143272,0.845037,0.365335,0.342537,0.189574,-0.631342,1.535912,0.685596,0.710292,-0.157155,-0.027304,93.403048,-10.177707,-15.358623
20411,NaN,2.763845,9.779016,-0.749121,0.917877,-0.103586,0.334918,0.284883,-0.656154,1.516477,0.684237,0.709962,-0.164889,-0.024187,93.649097,-11.028813,-15.798698
20412,NaN,2.758134,9.677040,-0.288576,0.660526,-0.548185,0.217121,0.227028,-0.553493,1.441504,0.683112,0.709468,-0.171962,-0.021033,93.856755,-11.834975,-16.180423
20413,NaN,3.730846,9.527363,0.316682,1.302661,-1.390540,0.245047,0.106693,-0.486361,1.317292,0.682421,0.708631,-0.178368,-0.018143,93.991918,-12.575824,-16.521717
20414,NaN,3.685605,9.472581,-0.022345,1.234547,-1.042646,0.222327,0.061441,-0.382383,1.183187,0.681939,0.707743,-0.183907,-0.015406,94.090911,-13.239364,-16.798697
20415,NaN,3.499123,9.371610,-0.430323,1.078127,-0.586333,0.124559,0.089724,-0.276192,1.141085,0.681428,0.706964,-0.188955,-0.012384,94.194519,-13.887017,-17.013665
20416,NaN,3.571974,9.410366,-0.737712,1.108563,-0.301023,0.214160,0.144007,-0.153083,1.091787,0.680814,0.706409,-0.193381,-0.009070,94.313742,-14.507071,-17.155540
20417,NaN,3.695779,9.175674,-0.776106,1.186051,-0.290852,0.034234,0.228420,0.009499,1.049116,0.680038,0.706160,-0.197127,-0.005219,94.458162,-15.113819,-17.201534
20418,NaN,3.317577,9.646292,-0.930420,0.647581,-0.025023,0.409938,0.194610,0.031665,0.986752,0.679381,0.705847,-0.200545,-0.001560,94.579884,-15.681576,-17.232799
20419,NaN,3.358820,9.773232,-1.120249,0.601765,0.161078,0.563431,0.064544,0.015372,0.940801,0.679152,0.705113,-0.203876,0.001780,94.629659,-16.226530,-17.272773
20420,NaN,3.480737,9.788169,-1.054158,0.593614,0.083694,0.612033,0.086704,0.064757,0.958309,0.678878,0.704428,-0.207070,0.005351,94.684598,-16.779510,-17.284549
20421,NaN,3.288853,10.071178,-0.846885,0.177198,-0.034804,0.814115,0.051413,0.107682,0.950784,0.678757,0.703605,-0.210114,0.009036,94.711939,-17.334345,-17.271038
20422,NaN,2.983749,9.885745,-0.842047,-0.138600,0.074719,0.546571,-0.052619,0.105283,0.895635,0.678987,0.702480,-0.212946,0.012390,94.679134,-17.853429,-17.255910
20423,NaN,2.810442,9.325287,-1.163960,-0.112584,0.460699,-0.015295,-0.161080,0.040655,0.819903,0.679520,0.701049,-0.215759,0.015169,94.594797,-18.330239,-17.275584
20424,NaN,3.015834,8.820395,-0.863085,0.086554,0.141801,-0.452586,-0.202083,-0.044063,0.766988,0.680099,0.699539,-0.218649,0.017403,94.502304,-18.769021,-17.342777
20425,NaN,3.136263,8.787622,-1.089585,0.204806,0.354533,-0.427719,-0.127953,-0.110231,0.718397,0.680340,0.698322,-0.221608,0.019343,94.464951,-19.180969,-17.447553
20426,NaN,3.177204,9.298184,-1.185333,0.032871,0.470188,0.073328,-0.090631,-0.179441,0.724771,0.680363,0.697229,-0.224795,0.021082,94.463676,-19.589691,-17.594381
20427,NaN,3.340562,9.848785,-1.051756,-0.113768,0.334827,0.634255,-0.152860,-0.235630,0.730902,0.680529,0.695906,-0.228219,0.022597,94.439628,-20.003110,-17.776187
20428,NaN,3.581244,9.816243,-0.955743,0.017815,0.201951,0.678062,-0.203788,-0.243383,0.729292,0.680854,0.694409,-0.231645,0.024000,94.389149,-20.411716,-17.962532
20429,NaN,3.489585,9.345861,-0.748131,-0.023363,0.045922,0.191257,-0.232866,-0.238363,0.748283,0.681270,0.692771,-0.235140,0.025471,94.322729,-20.835068,-18.147063
20430,NaN,3.373135,9.065485,-0.493342,-0.165043,-0.142875,-0.129901,-0.196291,-0.224910,0.765234,0.681563,0.691232,-0.238618,0.027069,94.275699,-21.265354,-18.323907
20431,NaN,3.544999,9.090099,-0.202637,-0.176107,-0.441915,-0.065319,-0.118542,-0.202311,0.785554,0.681598,0.689911,-0.242095,0.028926,94.270054,-21.711644,-18.488426
20432,NaN,4.087463,9.314082,-0.180579,0.137232,-0.587930,0.342462,-0.085809,-0.170068,0.787926,0.681549,0.688690,-0.245441,0.030922,94.276962,-22.157311,-18.633405
20433,NaN,3.984792,9.346233,-0.259160,-0.021148,-0.457690,0.340505,-0.036947,-0.120041,0.817629,0.681375,0.687572,-0.248727,0.033269,94.302058,-22.625298,-18.749731
20434,NaN,3.911737,9.275279,-0.282958,-0.132525,-0.396361,0.248986,0.031401,-0.083239,0.847119,0.680997,0.686639,-0.251953,0.035909,94.359029,-23.108406,-18.845107
20435,NaN,4.068222,9.177938,-0.313510,-0.033383,-0.399470,0.223346,0.028693,-0.060368,0.855950,0.680641,0.685662,-0.255147,0.038672,94.410144,-23.600606,-18.927769
20436,NaN,4.324931,9.022422,-0.599887,0.252671,-0.191871,0.205683,0.036702,-0.037747,0.842369,0.680278,0.684719,-0.258191,0.041457,94.460740,-24.082854,-18.996174
20437,NaN,4.231716,9.337473,-0.753497,0.003413,0.020149,0.466540,0.075520,0.005698,0.849763,0.679823,0.683870,-0.261119,0.044484,94.523420,-24.574250,-19.038729
20438,NaN,4.182213,9.547252,-1.004175,-0.137341,0.306111,0.653264,0.060392,0.033600,0.804027,0.679456,0.683018,-0.263776,0.047412,94.569650,-25.037717,-19.061876
20439,NaN,4.387562,8.862093,-1.292626,0.324941,0.495118,0.142551,0.207990,0.118071,0.932494,0.678650,0.682458,-0.266562,0.051276,94.681047,-25.581334,-19.039266
20440,NaN,4.588496,9.897408,-0.858739,-0.184486,0.098422,1.128317,0.378323,0.236767,0.998836,0.677388,0.682346,-0.269103,0.055978,94.859035,-26.165626,-18.946017
20441,NaN,4.367717,10.621354,-0.269780,-0.980249,-0.343577,1.627713,0.312064,0.282159,1.015245,0.676386,0.681946,-0.271574,0.060817,94.986371,-26.764539,-18.826238
20442,NaN,3.720125,10.509619,-0.329701,-1.574096,-0.086894,1.228768,0.138453,0.202028,1.003196,0.675853,0.680988,-0.274303,0.065087,95.036256,-27.349930,-18.757299
20443,NaN,3.846610,10.005010,-0.341055,-1.339754,-0.115940,0.827028,0.039730,0.088342,1.029108,0.675472,0.679672,-0.277544,0.068936,95.063670,-27.946976,-18.763349
20444,NaN,4.595881,9.673164,-0.540036,-0.611512,-0.133040,0.892035,0.133216,0.080369,1.084394,0.674726,0.678585,-0.280944,0.073057,95.148981,-28.572601,-18.778274
20445,NaN,4.660948,9.786564,-0.496003,-0.743340,-0.160870,1.011709,0.158674,0.123482,1.138582,0.673911,0.677464,-0.284379,0.077555,95.237518,-29.233723,-18.769631
20446,NaN,4.601397,9.938451,-0.371892,-1.027757,-0.227414,1.094856,0.202970,0.152206,1.194573,0.672942,0.676384,-0.287865,0.082385,95.344376,-29.925957,-18.746633
20447,NaN,4.375397,10.236352,-0.625148,-1.425884,0.123365,1.244792,0.212018,0.134452,1.224871,0.671878,0.675265,-0.291511,0.087280,95.463646,-30.636739,-18.738774
20448,NaN,4.656083,10.530404,-0.523631,-1.514775,-0.000067,1.613000,0.096342,0.113107,1.280828,0.671122,0.673665,-0.295444,0.092105,95.526471,-31.376089,-18.749854
20449,NaN,5.089807,9.886878,-0.952734,-0.853392,0.284969,1.311741,0.013397,0.128086,1.312415,0.670625,0.671697,-0.299469,0.096972,95.537863,-32.136216,-18.753643
20450,NaN,5.418451,9.633987,-1.186156,-0.536205,0.442715,1.282122,0.119721,0.197615,1.367507,0.669816,0.669945,-0.303370,0.102400,95.587319,-32.929676,-18.714490
20451,NaN,5.243047,9.776541,-1.178398,-0.905775,0.533334,1.293708,0.207858,0.281802,1.371840,0.668805,0.668400,-0.306953,0.108264,95.655597,-33.732152,-18.618843
20452,NaN,5.216232,10.169065,-1.043683,-1.335323,0.482688,1.575461,0.219789,0.367268,1.391127,0.667840,0.666790,-0.310283,0.114481,95.697449,-34.548758,-18.465617
20453,NaN,5.211094,11.010793,-0.950430,-2.006986,0.512623,2.229022,0.177031,0.446924,1.474753,0.667055,0.664818,-0.313641,0.121178,95.683590,-35.419185,-18.261478
20454,NaN,4.822941,10.903556,-1.226128,-2.345118,0.922634,1.904742,0.115736,0.457477,1.459050,0.666460,0.662626,-0.316921,0.127746,95.625567,-36.279563,-18.045909
20455,NaN,4.993845,10.814994,-1.319419,-2.307779,1.018498,1.903859,0.137066,0.474123,1.489049,0.665762,0.660402,-0.320219,0.134502,95.569057,-37.159073,-17.817103
20456,NaN,4.997335,11.526484,-1.284609,-2.922517,1.105204,2.423219,0.225992,0.604999,1.549779,0.664894,0.658249,-0.323194,0.142019,95.503464,-38.078987,-17.494384
20457,NaN,4.927668,12.386147,-1.597980,-3.632219,1.558495,3.017960,0.362488,0.759572,1.672578,0.663687,0.656187,-0.325942,0.150667,95.443253,-39.078015,-17.061906
20458,NaN,4.308450,13.231086,-1.717026,-4.820377,1.945306,3.208331,0.361573,0.891242,1.705262,0.662612,0.653912,-0.328326,0.159835,95.310697,-40.101282,-16.525837
20459,NaN,4.336769,14.186754,-1.452929,-5.718107,1.817049,3.831993,0.532404,1.108299,1.801974,0.661186,0.651799,-0.330137,0.170298,95.158752,-41.190420,-15.821444
20460,NaN,3.528064,15.520502,-1.618208,-7.417059,2.290649,4.175990,0.706947,1.387606,1.860159,0.659515,0.649843,-0.331020,0.182127,94.945782,-42.324799,-14.890609
20461,NaN,1.949377,18.250291,-1.201336,-10.755042,2.397676,4.914324,0.920525,1.703738,1.791670,0.657630,0.648314,-0.330388,0.195079,94.655016,-43.431774,-13.685400
20462,NaN,0.426637,22.851350,-0.324498,-15.467962,2.082133,6.886380,0.947682,1.990446,1.883417,0.655914,0.646318,-0.329022,0.209272,94.185172,-44.598374,-12.225086
20463,NaN,-0.323522,22.585353,0.932178,-16.333655,0.863743,5.792480,0.286239,2.037000,2.009336,0.656146,0.641767,-0.328524,0.222886,93.256598,-45.823945,-10.682939
20464,NaN,1.742223,18.128055,2.445704,-12.236824,-1.147430,3.846524,-0.681309,1.899742,2.203813,0.658897,0.633733,-0.330119,0.235071,91.785194,-47.136226,-9.189656
20465,NaN,5.408850,14.269511,1.971151,-7.186838,-1.171778,3.741647,-1.010444,1.524863,2.625860,0.661426,0.624216,-0.334573,0.246841,90.274913,-48.655845,-7.931895
20466,NaN,5.599360,12.629548,-0.221305,-5.864834,1.056034,2.652541,-0.745244,1.058268,2.728572,0.662052,0.615820,-0.340503,0.257897,89.136024,-50.219123,-6.992431
20467,NaN,4.624915,13.260540,-0.542092,-7.227235,1.681187,2.122738,-0.360830,0.976713,2.581049,0.661416,0.608934,-0.345657,0.268793,88.203020,-51.683711,-6.054718
20468,NaN,8.411776,13.640712,0.884414,-5.712079,0.254251,5.183890,-0.982095,0.858276,2.730965,0.662116,0.599753,-0.352445,0.278714,86.920580,-53.229283,-5.144696
20469,NaN,8.774429,10.087919,-0.589307,-2.832552,1.472117,3.183535,-0.780281,0.839419,2.556611,0.662291,0.591461,-0.358389,0.288274,85.690946,-54.658769,-4.174078
20470,NaN,3.803239,9.403984,-2.441839,-5.160112,3.557851,-1.471770,-0.248386,0.886733,2.442273,0.661009,0.584944,-0.363033,0.298520,84.652657,-56.013695,-3.082520
20471,NaN,-0.026954,8.893076,-3.883961,-6.853960,5.069676,-5.176913,0.035119,0.794648,2.084239,0.659180,0.580083,-0.366429,0.307759,83.811672,-57.154564,-2.047967
20472,NaN,-1.982314,7.411602,-4.713247,-6.667565,5.715727,-7.825659,0.090788,0.601588,1.592587,0.657515,0.576528,-0.368943,0.314914,83.168078,-58.025479,-1.221768
20473,NaN,-4.470255,5.866685,-3.782851,-6.830203,4.591321,-10.801900,-0.061038,0.360331,1.043772,0.656683,0.573860,-0.370857,0.319244,82.690984,-58.591495,-0.698790
20474,NaN,0.528587,4.005907,-3.673699,-2.671917,4.193613,-7.555022,-0.365518,0.219006,0.833588,0.656771,0.570770,-0.373138,0.321934,82.179006,-59.051860,-0.342924
20475,NaN,1.665075,4.518395,-2.722623,-2.639315,3.327117,-6.267926,-0.195767,-0.584778,0.040983,0.656150,0.571027,-0.375487,0.320008,82.626228,-59.117035,-0.991288
20476,NaN,-5.412074,5.845857,-3.417500,-7.310298,4.269602,-11.676451,0.247960,-0.280433,-0.619130,0.655873,0.573458,-0.374270,0.317645,83.113291,-58.788392,-1.391728
20477,NaN,-5.659792,5.809754,-2.112815,-7.597785,2.965292,-11.744046,0.594825,0.065620,-1.188006,0.656142,0.577556,-0.369692,0.315015,83.532592,-58.105107,-1.479928
20478,NaN,-2.682388,5.891219,-1.481108,-6.188813,2.283442,-9.051500,0.406053,0.178884,-1.015230,0.656860,0.580485,-0.365558,0.312953,83.712914,-57.519004,-1.415830
20479,NaN,-1.070178,5.613290,-0.927962,-5.146383,1.658733,-7.744248,0.232661,0.024297,-1.053727,0.657848,0.583172,-0.362044,0.309951,83.936063,-56.913816,-1.518519
20480,NaN,-1.256620,5.678032,-1.579971,-5.202606,2.306084,-7.830368,0.191157,-0.114038,-1.552828,0.659442,0.586782,-0.357614,0.304854,84.288115,-56.038844,-1.807129
20481,NaN,-1.586673,5.346781,-1.423881,-5.100334,2.108384,-8.177710,0.193970,-0.139727,-2.094878,0.661759,0.591393,-0.351605,0.297832,84.692496,-54.847906,-2.158766
20482,NaN,-1.416745,4.849560,-0.556025,-4.660398,1.177461,-8.161164,0.131373,-0.060718,-2.470788,0.664864,0.596227,-0.344308,0.289691,84.998044,-53.444395,-2.440487
20483,NaN,-0.809282,4.231204,-0.118895,-3.809583,0.647799,-7.905214,0.144347,0.032481,-2.717955,0.668345,0.601329,-0.335847,0.280937,85.239789,-51.886898,-2.635785
20484,NaN,-0.727291,4.626820,0.236233,-4.046229,0.329213,-7.465309,0.274699,0.069145,-3.021972,0.671775,0.607166,-0.326137,0.271480,85.526527,-50.161133,-2.799669
20485,NaN,-1.068689,5.478003,0.373123,-4.847461,0.284889,-7.036353,0.302042,0.062299,-3.242469,0.675252,0.613348,-0.315620,0.261196,85.829530,-48.301364,-2.966202
20486,NaN,-0.868823,5.667986,-0.234032,-4.690777,0.880965,-6.626362,0.348257,-0.058006,-3.569285,0.678619,0.620144,-0.304397,0.249480,86.223923,-46.266762,-3.228733
20487,NaN,-0.271476,6.295357,-0.303701,-4.586407,0.962048,-5.589893,0.498288,-0.151428,-3.765455,0.681397,0.627687,-0.292545,0.236907,86.737989,-44.113762,-3.545410
20488,NaN,0.404106,7.050083,-0.249113,-4.446962,0.905909,-4.397309,0.562417,-0.162273,-3.929973,0.683890,0.635430,-0.280074,0.223789,87.261722,-41.873180,-3.837962
20489,NaN,1.102235,7.847300,-0.183466,-4.224320,0.816707,-3.156275,0.605599,-0.149562,-4.094979,0.686171,0.643309,-0.266823,0.210068,87.777082,-39.527527,-4.090109
20490,NaN,1.653566,8.724986,-0.350922,-4.041785,0.953682,-1.956145,0.516219,-0.252385,-4.235589,0.688442,0.650860,-0.253497,0.195369,88.258049,-37.110282,-4.385564
20491,NaN,1.957671,9.335611,-0.126449,-3.833807,0.676148,-1.104540,0.511745,-0.347313,-4.409160,0.690451,0.658429,-0.239765,0.179616,88.749368,-34.584439,-4.717067
20492,NaN,2.368560,9.916900,-0.188778,-3.417154,0.656100,-0.228057,0.531913,-0.382167,-4.521259,0.692099,0.665867,-0.225695,0.163344,89.232104,-32.001263,-5.037620
20493,NaN,3.182658,10.681919,0.170487,-2.710479,0.175195,0.997610,0.549932,-0.331541,-4.553398,0.693408,0.673042,-0.211157,0.147013,89.680726,-29.388377,-5.291516
20494,NaN,4.038498,11.260798,0.466813,-1.769919,-0.276228,2.023635,0.494592,-0.284494,-4.594704,0.694614,0.679647,-0.196298,0.130611,90.058071,-26.759191,-5.486950
20495,NaN,4.551634,11.340442,0.088894,-0.763225,-0.063167,2.382253,0.481692,-0.341882,-4.695047,0.695491,0.685996,-0.181144,0.113530,90.427151,-24.062315,-5.694995
20496,NaN,4.217326,11.975843,-0.349236,-0.702795,0.285658,2.864899,0.638149,-0.373359,-4.815371,0.695471,0.692595,-0.165548,0.096051,90.872571,-21.304024,-5.896682
20497,NaN,3.328435,13.510142,0.077338,-1.492304,-0.188313,4.018655,0.768798,-0.382532,-4.904730,0.694609,0.699329,-0.149456,0.078228,91.377331,-18.484091,-6.074526
20498,NaN,3.188603,15.239184,0.377200,-1.497264,-0.644839,5.673899,0.657905,-0.489742,-4.939454,0.693639,0.705287,-0.133621,0.059829,91.819257,-15.650171,-6.289048
20499,NaN,4.627535,16.422422,0.770080,0.313633,-1.379607,7.206134,0.409442,-0.653343,-5.009826,0.693012,0.710051,-0.118038,0.040354,92.127856,-12.762545,-6.576183
20500,NaN,6.842965,16.724354,1.129275,3.201701,-2.170147,7.872846,0.226999,-0.773873,-4.972709,0.692517,0.713713,-0.103023,0.020498,92.327188,-9.901167,-6.918720
20501,NaN,9.075433,17.156462,1.603417,6.126820,-3.099800,8.409708,0.173517,-0.746513,-4.951407,0.691781,0.716741,-0.087874,0.000724,92.476163,-7.043093,-7.233564
20502,NaN,10.931905,17.921015,2.089482,8.685350,-4.014002,8.986295,0.041124,-0.621947,-4.876559,0.691155,0.718821,-0.072563,-0.018355,92.525129,-4.238986,-7.472386
20503,NaN,12.430199,17.841755,1.143078,11.163260,-3.419127,8.565326,-0.175016,-0.608361,-4.658714,0.690924,0.719670,-0.057877,-0.036744,92.439471,-1.552394,-7.708229
20504,NaN,13.396155,17.753317,0.155927,13.065494,-2.707477,7.978926,-0.138916,-0.649031,-4.468271,0.690226,0.720189,-0.044042,-0.054547,92.363030,1.018221,-7.976068
20505,NaN,13.254334,16.067641,-1.506555,13.854880,-1.117891,5.770712,-0.237476,-0.860714,-4.212636,0.689564,0.719910,-0.031769,-0.072261,92.213792,3.453012,-8.375711
20506,NaN,13.588315,13.563292,-2.905160,14.829528,0.165025,2.719323,-0.130922,-1.088657,-3.916018,0.688295,0.719547,-0.021414,-0.089690,92.097181,5.715746,-8.919910
20507,NaN,15.800314,11.678187,-3.805598,17.394819,0.598138,0.063041,0.024802,-1.209139,-3.468271,0.686387,0.719352,-0.013116,-0.105986,92.040336,7.728465,-9.547859
20508,NaN,18.804496,10.196741,-3.507418,20.372203,-0.353528,-2.417156,0.166295,-1.195767,-2.917490,0.684069,0.719399,-0.006854,-0.120279,92.042736,9.420552,-10.183646
20509,NaN,21.514448,8.851866,-1.366354,22.551541,-3.086932,-4.816057,0.263779,-0.909967,-2.225769,0.681684,0.719790,-0.002141,-0.131165,92.111699,10.713809,-10.669079
20510,NaN,21.996243,7.694084,0.184781,22.567642,-4.786873,-6.519556,0.455000,-0.421290,-1.415581,0.679085,0.721066,0.001177,-0.137501,92.332376,11.530763,-10.886486
20511,NaN,20.793728,8.310571,1.258424,21.329581,-5.754412,-5.944540,0.763819,0.023224,-0.499665,0.675966,0.723677,0.002495,-0.139123,92.777403,11.813872,-10.863322
20512,NaN,18.425489,10.166822,2.512757,19.147718,-6.760262,-3.743077,0.743841,0.117748,0.319655,0.673481,0.726278,0.001177,-0.137629,93.216750,11.624632,-10.807982
20513,NaN,14.466281,12.323995,1.479012,15.883236,-5.279349,-0.691806,0.485099,-0.080649,0.842337,0.672281,0.727863,-0.002539,-0.135082,93.481498,11.141289,-10.887514
20514,NaN,15.266928,11.225826,3.918768,15.848522,-7.756213,-1.868342,-0.344324,-0.554107,1.482040,0.674497,0.726296,-0.009604,-0.132121,93.216013,10.309342,-11.264258
20515,NaN,14.597874,8.894266,-2.270922,15.939983,-1.404292,-3.386507,-0.514605,-0.632661,2.314064,0.677806,0.723984,-0.019861,-0.126616,92.849216,8.998734,-11.706472
20516,NaN,-0.019716,8.774895,-4.499443,2.097903,3.635734,-0.889658,1.598315,-0.093276,1.765264,0.673070,0.729122,-0.027619,-0.120808,93.749720,7.989279,-11.822939
20517,NaN,-12.987405,13.266336,3.073880,-11.714528,-1.747721,4.809835,2.007756,0.758458,0.852990,0.666316,0.736180,-0.029452,-0.114869,94.955802,7.462603,-11.427074
20518,NaN,-15.647822,13.830297,3.203759,-14.475102,-1.564369,5.497802,0.056112,0.272194,1.538430,0.667003,0.736281,-0.034281,-0.108734,94.999122,6.568252,-11.351324
20519,NaN,-11.401559,14.100565,1.156286,-10.131737,-0.296581,5.267316,-0.475898,-0.934500,1.824749,0.669540,0.733839,-0.043911,-0.106155,94.662027,5.566449,-11.980314
20520,NaN,8.467883,21.673352,0.592332,9.461829,-4.411876,10.989937,-0.649704,-1.442010,3.289138,0.673230,0.730061,-0.060495,-0.100564,94.212354,3.748716,-12.956710
20521,NaN,20.616636,23.145028,2.356829,20.195997,-8.886178,12.081322,-1.097509,-1.801434,3.401480,0.678257,0.724290,-0.078467,-0.095992,93.528192,1.868785,-14.123264
20522,NaN,14.997280,14.640622,-0.823853,14.840320,-3.830866,4.505829,-0.696333,-0.771109,2.022084,0.681390,0.720725,-0.088106,-0.092197,93.119490,0.734982,-14.635256
20523,NaN,1.875328,7.734824,-2.558933,2.384829,1.599016,-1.961168,-0.475481,-0.249532,1.948920,0.683848,0.718097,-0.095822,-0.086641,92.848219,-0.379418,-14.840138
20524,NaN,-1.691141,4.584594,1.569043,-2.170728,-1.267645,-5.338281,-0.584459,0.063114,2.331792,0.686925,0.714963,-0.103759,-0.078718,92.515799,-1.718498,-14.870131
20525,NaN,0.375797,3.195490,1.682326,-0.228695,-1.820431,-6.679655,-0.217833,-0.242563,2.097912,0.688354,0.712992,-0.112065,-0.072468,92.400680,-2.920051,-15.064631
20526,NaN,3.605246,5.119794,-2.229494,3.695721,1.071234,-4.392940,0.537838,-0.153073,1.742927,0.686940,0.713788,-0.119036,-0.066713,92.718875,-3.916603,-15.200677
20527,NaN,4.677204,7.842856,0.823920,3.595596,-2.265904,-1.688638,1.302372,0.172111,1.731015,0.682920,0.717247,-0.125115,-0.059354,93.463764,-4.918851,-15.159543
20528,NaN,3.606380,11.818293,1.101359,1.913028,-2.454942,2.195654,1.044133,0.410167,1.686312,0.679883,0.719849,-0.130106,-0.051470,94.048070,-5.901119,-14.991230
20529,NaN,1.702446,12.866569,-1.367756,0.352442,0.336438,3.228621,0.639081,0.291188,1.657490,0.678160,0.720989,-0.135306,-0.044349,94.405584,-6.867154,-14.898288
20530,NaN,0.361048,11.220658,-0.756969,-1.079154,0.148171,1.386273,0.483125,0.197181,1.684005,0.676883,0.721510,-0.140850,-0.037601,94.680121,-7.840651,-14.865504
20531,NaN,1.422032,9.245828,0.051440,-0.141258,-0.822692,-0.495435,0.537684,-0.009097,1.654375,0.675210,0.722135,-0.147008,-0.031635,95.002922,-8.791147,-14.955676
20532,NaN,2.597303,8.699733,-0.420389,1.031515,-0.661998,-0.806922,0.702927,-0.088747,1.546938,0.672811,0.723338,-0.153039,-0.026217,95.429525,-9.671856,-15.092379
20533,NaN,2.734213,9.435843,-1.884472,1.226468,0.650453,0.093512,0.730747,0.075406,1.443605,0.670379,0.724677,-0.158159,-0.020508,95.857403,-10.505513,-15.135435
20534,NaN,2.753178,9.613679,-2.691149,1.248179,1.385933,0.373789,0.642375,0.096526,1.364358,0.668232,0.725747,-0.162880,-0.015078,96.233365,-11.291328,-15.167091
20535,NaN,2.459275,9.894315,-1.462390,0.470325,0.240556,0.473395,0.443223,-0.034877,1.241098,0.666659,0.726199,-0.167592,-0.010677,96.510275,-12.002004,-15.272124
20536,NaN,2.973654,9.856755,-1.870083,0.936388,0.499666,0.597300,0.163635,-0.118161,1.118755,0.665998,0.725795,-0.172093,-0.007241,96.637485,-12.633623,-15.419945
20537,NaN,3.276611,9.705256,-2.245843,1.240505,0.804675,0.569259,0.006189,-0.079212,0.989753,0.665919,0.724952,-0.176008,-0.004208,96.669190,-13.197720,-15.537820
20538,NaN,3.100786,9.552128,-1.914655,0.946325,0.568180,0.351216,-0.214354,-0.021012,0.857076,0.666671,0.723483,-0.179217,-0.001621,96.565577,-13.686711,-15.612186
20539,NaN,3.124105,9.180483,-1.488217,0.888176,0.211644,-0.044274,-0.329541,0.013254,0.791132,0.667858,0.721670,-0.182091,0.000788,96.390477,-14.144000,-15.661340
20540,NaN,3.093587,9.218403,-0.966340,0.654162,-0.240729,-0.066068,-0.235501,0.064442,0.819338,0.668740,0.720137,-0.184871,0.003541,96.262281,-14.617257,-15.680747
20541,NaN,2.711560,9.744218,-1.090802,0.108468,-0.002667,0.359813,-0.115208,0.072534,0.855127,0.669182,0.718954,-0.187768,0.006574,96.202417,-15.114817,-15.697280
20542,NaN,2.669938,10.119606,-0.767348,-0.195857,-0.283419,0.675614,-0.117373,-0.007766,0.851236,0.669545,0.717762,-0.190895,0.009283,96.153748,-15.601838,-15.760200
20543,NaN,2.774191,9.804386,-0.492167,-0.155891,-0.530256,0.373493,-0.230028,-0.077879,0.815938,0.670234,0.716211,-0.194152,0.011533,96.051684,-16.067822,-15.862225
20544,NaN,2.950055,8.985635,-0.872386,0.269589,-0.151293,-0.320085,-0.240004,-0.118178,0.763514,0.670911,0.714673,-0.197333,0.013435,95.950214,-16.498429,-15.983934
20545,NaN,3.145409,8.776344,-0.967310,0.469397,-0.077467,-0.451772,-0.107301,-0.064941,0.767656,0.671155,0.713555,-0.200358,0.015690,95.916605,-16.937847,-16.074294
20546,NaN,3.447522,9.312827,-1.055964,0.533226,-0.059147,0.159317,-0.055342,-0.044800,0.788580,0.671222,0.712584,-0.203363,0.018120,95.910232,-17.387249,-16.153657
20547,NaN,3.640916,9.999330,-0.911871,0.380841,-0.232988,0.858509,-0.127385,-0.005720,0.811175,0.671572,0.711327,-0.206340,0.020710,95.856587,-17.854951,-16.211323
20548,NaN,3.392971,10.544362,-1.046633,-0.068457,-0.002547,1.313220,-0.256749,0.059690,0.819733,0.672437,0.709612,-0.209119,0.023409,95.716974,-18.328315,-16.229284
20549,NaN,2.815767,10.126573,-1.630839,-0.389444,0.769994,0.788748,-0.324721,0.069848,0.792621,0.673544,0.707678,-0.211789,0.026000,95.535732,-18.789831,-16.238498
20550,NaN,2.553543,9.456143,-1.420153,-0.524483,0.692243,0.046379,-0.354625,0.052385,0.794165,0.674726,0.705636,-0.214506,0.028484,95.340312,-19.248309,-16.256447
20551,NaN,2.741592,8.938814,-1.167468,-0.308026,0.448741,-0.406048,-0.338177,-0.003092,0.847868,0.675768,0.703579,-0.217609,0.030987,95.166262,-19.737414,-16.309766
20552,NaN,2.494667,8.922334,-0.976823,-0.643581,0.378338,-0.526804,-0.337400,-0.097528,0.909684,0.676680,0.701463,-0.221227,0.033350,95.013292,-20.254293,-16.422151
20553,NaN,2.722874,8.924937,-0.952569,-0.520733,0.340801,-0.453844,-0.337061,-0.247000,0.956460,0.677400,0.699297,-0.225526,0.035362,94.894110,-20.793432,-16.627501
20554,NaN,3.002722,8.704131,-1.139048,-0.220347,0.479732,-0.550054,-0.267415,-0.417074,0.977567,0.677662,0.697359,-0.230438,0.036913,94.854265,-21.333904,-16.937615
20555,NaN,2.963952,8.989607,-0.981026,-0.486792,0.375762,-0.316290,-0.221753,-0.537368,1.046947,0.677590,0.695489,-0.236001,0.038346,94.872544,-21.910775,-17.326630
20556,NaN,3.587338,8.994140,-0.905989,-0.046009,0.160770,-0.088714,-0.302713,-0.627034,1.037887,0.677670,0.693352,-0.241826,0.039325,94.869160,-22.475486,-17.771766
20557,NaN,4.394496,8.650346,-1.157120,0.776329,0.188746,-0.074105,-0.280769,-0.566032,1.028536,0.677723,0.691257,-0.247414,0.040523,94.868539,-23.040308,-18.180782
20558,NaN,4.355992,8.799961,-1.015883,0.552524,0.092253,0.042842,-0.134266,-0.437166,1.007184,0.677411,0.689640,-0.252437,0.042259,94.923928,-23.596593,-18.510208
20559,NaN,4.099748,9.486640,-0.193415,-0.280567,-0.565020,0.504423,-0.113185,-0.336004,1.035897,0.677126,0.688011,-0.257221,0.044481,94.970535,-24.176428,-18.780367
20560,NaN,4.358992,9.463873,-0.253268,-0.134029,-0.556385,0.594106,-0.124562,-0.286702,1.047103,0.676922,0.686302,-0.261855,0.046880,95.000970,-24.762516,-19.021518
20561,NaN,4.418016,9.292505,-0.263008,-0.113579,-0.546871,0.464752,-0.033747,-0.251929,1.049115,0.676430,0.684864,-0.266364,0.049536,95.077458,-25.353651,-19.242971
20562,NaN,4.351687,9.576349,0.153502,-0.522489,-0.885131,0.656778,0.023372,-0.200704,1.055583,0.675790,0.683583,-0.270685,0.052451,95.175502,-25.948441,-19.434096
20563,NaN,4.560991,10.148530,0.163512,-0.713510,-0.901481,1.255245,0.064855,-0.167461,1.040007,0.675037,0.682430,-0.274836,0.055495,95.290518,-26.538036,-19.605686
20564,NaN,4.631377,10.532044,-0.371300,-0.790578,-0.368287,1.665528,0.126755,-0.077454,1.116004,0.674156,0.681340,-0.278904,0.059172,95.419536,-27.173191,-19.726274
20565,NaN,4.786232,11.194386,-0.411666,-1.090956,-0.309601,2.315952,0.178165,0.020973,1.203161,0.673187,0.680245,-0.282924,0.063561,95.553731,-27.865371,-19.791602
20566,NaN,4.631355,11.504878,-0.671372,-1.438104,0.034471,2.523887,0.133794,0.051761,1.244265,0.672375,0.678911,-0.286971,0.068115,95.655840,-28.580419,-19.841365
20567,NaN,4.480478,11.214722,-0.820279,-1.532747,0.239206,2.191847,0.100675,0.103596,1.320127,0.671695,0.677305,-0.291112,0.073061,95.726433,-29.343624,-19.864117
20568,NaN,4.533965,11.268415,-1.167305,-1.572637,0.602053,2.272781,0.098282,0.152950,1.386349,0.671039,0.675550,-0.295287,0.078378,95.782486,-30.145366,-19.859732
20569,NaN,4.906206,11.657904,-1.132619,-1.648960,0.539159,2.766964,0.114703,0.206662,1.484981,0.670333,0.673643,-0.299604,0.084239,95.833693,-31.008303,-19.827499
20570,NaN,5.084833,11.925848,-0.938716,-1.889227,0.380962,3.042062,0.128253,0.305256,1.591593,0.669643,0.671544,-0.303914,0.090793,95.861756,-31.935925,-19.736829
20571,NaN,4.975311,11.672420,-0.819880,-2.076499,0.343920,2.726744,0.124236,0.427600,1.665957,0.669070,0.669210,-0.308055,0.098004,95.844313,-32.914764,-19.568061
20572,NaN,5.189344,12.049191,-1.007002,-2.271291,0.564493,3.135064,0.233162,0.590356,1.754553,0.668287,0.666976,-0.311859,0.106206,95.827620,-33.951867,-19.291822
20573,NaN,5.208220,12.843373,-1.756856,-2.734545,1.414594,3.813732,0.429413,0.812476,1.849568,0.667080,0.665061,-0.315112,0.115771,95.833833,-35.057514,-18.865211
20574,NaN,4.379390,14.418269,-2.291118,-4.417547,2.347351,4.584581,0.533575,1.050640,1.948583,0.665766,0.663126,-0.317793,0.126599,95.795804,-36.231858,-18.272074
20575,NaN,3.751978,15.707345,-2.179716,-6.005535,2.559164,5.117896,0.677072,1.233613,2.043264,0.664112,0.661304,-0.320050,0.138566,95.749690,-37.471527,-17.545249
20576,NaN,2.620939,18.884820,-1.509110,-9.317412,2.479995,6.704024,0.728946,1.463238,2.179925,0.662446,0.659168,-0.321900,0.151799,95.614294,-38.800072,-16.646587
20577,NaN,1.796221,22.445412,-2.022914,-12.490120,3.436654,8.714906,1.011519,1.641650,2.348341,0.659871,0.657422,-0.323435,0.166604,95.534508,-40.233825,-15.607439
20578,NaN,-0.142128,22.068266,-2.217309,-14.091047,3.952214,6.852921,0.550045,1.625823,2.248766,0.658727,0.654188,-0.325007,0.180243,95.154837,-41.606151,-14.543783
20579,NaN,-0.855494,18.214968,-2.352375,-12.402343,3.903938,3.186335,0.370217,1.789784,2.216838,0.658334,0.650134,-0.326027,0.193981,94.540609,-42.960754,-13.312728
20580,NaN,-0.490070,17.221800,-1.150929,-11.999783,2.580617,2.331656,0.347769,2.029492,2.354828,0.658122,0.645400,-0.326658,0.208876,93.730692,-44.393157,-11.848767
20581,NaN,3.041009,17.024337,1.285599,-10.101566,-0.291442,4.279410,-0.074329,1.888331,2.538232,0.658688,0.638971,-0.328698,0.223169,92.689659,-45.907357,-10.437661
20582,NaN,8.812253,15.352132,1.288201,-5.337717,-0.939521,7.087148,-0.677708,1.613924,2.830371,0.660229,0.630207,-0.333168,0.236505,91.386335,-47.563856,-9.178670
20583,NaN,8.068043,13.437530,-1.367312,-4.477555,1.853492,5.154816,-0.258676,1.487373,2.865223,0.660024,0.622755,-0.337571,0.250183,90.311862,-49.219191,-7.937242
20584,NaN,7.237848,13.167960,0.884444,-5.510843,-0.118936,4.193133,-0.419845,1.408787,2.909706,0.659954,0.614623,-0.342494,0.263433,89.103336,-50.885293,-6.672292
20585,NaN,7.276612,9.901733,-0.772174,-3.097490,1.383452,2.022422,-0.755797,1.339233,2.630753,0.661005,0.605807,-0.347134,0.274898,87.653995,-52.371358,-5.373391
20586,NaN,3.630378,8.333294,-2.682071,-4.092291,3.451325,-1.992675,-0.128002,1.405968,2.461616,0.660355,0.599128,-0.350116,0.287047,86.420135,-53.741507,-3.919079
20587,NaN,0.289427,8.385626,-2.104179,-6.343285,3.053286,-4.786093,0.309095,1.435393,2.091772,0.658861,0.594398,-0.351188,0.298764,85.342412,-54.878858,-2.371300
20588,NaN,-1.971931,8.073249,-2.646312,-7.442529,3.573830,-7.001611,0.351836,1.484920,1.796169,0.657666,0.590155,-0.351115,0.309696,84.188494,-55.829465,-0.721387
20589,NaN,-4.254305,6.128822,-2.822781,-7.168086,3.485119,-10.129617,0.102688,1.330288,1.306366,0.657622,0.586137,-0.350436,0.318075,83.000891,-56.488948,0.782334
20590,NaN,-1.944072,3.715278,-3.463189,-3.858575,3.829722,-9.669659,-0.256126,1.128842,0.992683,0.658724,0.581755,-0.350060,0.324194,81.768719,-56.970446,2.082806
20591,NaN,-0.366582,3.576744,-2.877698,-2.949199,3.255894,-8.430695,-0.118711,0.459964,0.577354,0.658908,0.579631,-0.350428,0.327213,81.230505,-57.259125,2.646059
20592,NaN,-5.068559,4.449393,-2.395930,-6.273115,2.753901,-11.884370,0.120208,0.185276,-0.352460,0.659431,0.580352,-0.348628,0.326804,81.191179,-57.046824,2.777130
20593,NaN,-6.541528,4.913465,-0.888058,-7.607089,1.252246,-12.691174,0.464629,0.155962,-1.072991,0.660071,0.583518,-0.344247,0.324510,81.472835,-56.425828,2.762205
20594,NaN,-4.842919,5.518238,-0.738001,-7.207661,1.193677,-10.848836,0.390338,0.079501,-1.098517,0.660811,0.586570,-0.340171,0.321789,81.772279,-55.799976,2.673211
20595,NaN,-2.202344,5.794221,-0.148423,-5.995262,0.693636,-8.391175,0.244212,-0.173860,-1.018590,0.661404,0.589412,-0.337369,0.318309,82.183174,-55.235712,2.348198
20596,NaN,-0.118684,5.488904,-0.434399,-4.510999,0.991094,-6.812847,0.078544,-0.487801,-1.280503,0.662344,0.592606,-0.335106,0.312767,82.765237,-54.548380,1.694059
20597,NaN,0.234103,4.932971,-0.992379,-3.766609,1.490778,-6.818804,0.124783,-0.659755,-1.740975,0.663538,0.596974,-0.331930,0.305225,83.527537,-53.602432,0.844838
20598,NaN,-0.523184,4.498232,-0.600060,-3.843785,1.045331,-7.576712,0.175444,-0.763353,-2.186854,0.665012,0.602321,-0.327676,0.295967,84.386506,-52.405775,-0.102324
20599,NaN,-0.961880,4.157092,-0.225088,-3.822876,0.640408,-8.014965,0.105730,-0.879559,-2.501679,0.666872,0.608051,-0.322888,0.285128,85.254921,-51.022727,-1.127476
20600,NaN,-0.616272,3.811788,-0.191632,-3.290239,0.573785,-7.865801,0.047671,-0.994972,-2.751301,0.668945,0.614017,-0.317770,0.272981,86.114502,-49.496905,-2.207213
20601,NaN,-0.140556,3.831013,-0.513031,-2.901309,0.881002,-7.411724,0.179732,-1.070922,-3.033495,0.670722,0.620850,-0.311759,0.259777,87.038745,-47.797204,-3.297075
20602,NaN,0.110763,4.590508,-0.758685,-3.176912,1.170307,-6.619546,0.357557,-1.106541,-3.253632,0.671986,0.628476,-0.304891,0.245954,88.011575,-45.965209,-4.346370
20603,NaN,0.790426,5.945478,-0.741360,-3.539545,1.201140,-5.064208,0.423948,-1.071087,-3.450450,0.673130,0.636403,-0.297082,0.231579,88.927227,-44.003682,-5.293606
20604,NaN,1.681694,6.838748,-1.016855,-3.295713,1.434021,-3.672128,0.348353,-0.953848,-3.629733,0.674663,0.643969,-0.288320,0.216808,89.664849,-41.933873,-6.079988
20605,NaN,2.323896,7.398895,-1.210845,-2.926829,1.548980,-2.696724,0.375845,-0.792162,-3.772461,0.676251,0.651442,-0.278389,0.202009,90.279820,-39.770709,-6.686230
20606,NaN,2.672879,7.839689,-1.042988,-2.678164,1.303488,-2.014473,0.318329,-0.700327,-3.870551,0.677993,0.658496,-0.267809,0.187048,90.771710,-37.552411,-7.178454
20607,NaN,2.881637,8.286420,-0.906690,-2.485414,1.093165,-1.421764,0.306559,-0.599467,-4.021540,0.679778,0.665372,-0.256264,0.171788,91.177325,-35.240609,-7.560872
20608,NaN,3.027297,8.721216,-0.530730,-2.314749,0.643542,-0.884019,0.285688,-0.443910,-4.153587,0.681654,0.671910,-0.243689,0.156526,91.479896,-32.858437,-7.805401
20609,NaN,3.004983,9.268473,-0.486233,-2.254257,0.542487,-0.337432,0.279225,-0.258350,-4.261693,0.683558,0.678129,-0.229983,0.141410,91.694556,-30.411242,-7.903895
20610,NaN,2.963443,9.819412,-0.296427,-2.181743,0.293714,0.208692,0.306360,-0.129861,-4.310744,0.685236,0.684076,-0.215578,0.126559,91.872615,-27.943140,-7.905092
20611,NaN,3.255548,10.596892,0.043060,-1.884896,-0.146098,1.109803,0.296826,-0.072008,-4.364204,0.686719,0.689704,-0.200663,0.111622,92.025387,-25.440306,-7.859920
20612,NaN,3.978340,11.295398,0.230024,-1.064650,-0.500028,2.106148,0.239615,-0.080677,-4.470412,0.688114,0.694894,-0.185378,0.096208,92.145125,-22.881836,-7.812313
20613,NaN,4.188663,11.840987,0.072053,-0.518644,-0.462710,2.727172,0.265434,-0.075714,-4.598564,0.689130,0.699945,-0.169490,0.080315,92.278423,-20.244921,-7.753192
20614,NaN,3.821188,12.390182,-0.346808,-0.421569,-0.113129,3.149464,0.397722,-0.104947,-4.645757,0.689309,0.705114,-0.153426,0.064257,92.492107,-17.585758,-7.703383
20615,NaN,3.228190,13.822808,0.180204,-0.859545,-0.710333,4.338014,0.567830,-0.137100,-4.718847,0.688501,0.710557,-0.137043,0.047898,92.807783,-14.878910,-7.658332
20616,NaN,3.716319,15.226182,0.304699,-0.079527,-1.081238,5.824382,0.406454,-0.297736,-4.781135,0.687783,0.715107,-0.120985,0.030647,93.050791,-12.137205,-7.693277
20617,NaN,5.394525,15.444463,0.353542,2.235244,-1.523310,6.323927,0.392805,-0.432643,-4.723325,0.686625,0.719198,-0.105496,0.013056,93.297844,-9.418968,-7.795930
20618,NaN,7.108860,17.151891,1.095934,4.314635,-2.725338,8.070729,0.311099,-0.482084,-4.723495,0.685351,0.722595,-0.090156,-0.004734,93.494902,-6.703785,-7.916131
20619,NaN,8.753456,17.766087,1.389830,6.656199,-3.439531,8.571596,0.154397,-0.421993,-4.678367,0.684284,0.725039,-0.074688,-0.022248,93.593325,-4.011372,-7.995259
20620,NaN,10.362109,17.500819,1.393850,9.089883,-3.796822,8.033372,0.035432,-0.372692,-4.558330,0.683317,0.726641,-0.059464,-0.039177,93.618025,-1.394158,-8.047817
20621,NaN,11.715432,16.471064,0.246722,11.373285,-2.916884,6.639829,0.020604,-0.415706,-4.299278,0.682100,0.727752,-0.045268,-0.055386,93.632373,1.080688,-8.132958
20622,NaN,11.860032,16.345177,-0.400001,12.273417,-2.423932,6.043397,0.045259,-0.644445,-4.083511,0.680501,0.728505,-0.032651,-0.071638,93.651409,3.436325,-8.356634
20623,NaN,12.033973,15.380197,-1.803445,13.199016,-1.149715,4.645317,-0.029948,-0.930201,-3.843176,0.678934,0.728566,-0.021820,-0.088115,93.604904,5.668090,-8.753691
20624,NaN,12.465790,13.373788,-2.681592,14.070505,-0.364971,2.157891,-0.022508,-1.113030,-3.495104,0.677230,0.728266,-0.012894,-0.104025,93.533493,7.703688,-9.272647
20625,NaN,14.784283,11.336996,-2.859421,16.465469,-0.568227,-0.657662,-0.027362,-1.052203,-2.997230,0.675604,0.727738,-0.005554,-0.118009,93.444504,9.453913,-9.778880
20626,NaN,18.215434,9.508909,-1.286615,19.442021,-2.683121,-3.594563,0.035360,-0.722039,-2.296342,0.674042,0.727450,0.000300,-0.128388,93.406344,10.789204,-10.122192
20627,NaN,19.885989,8.341077,1.095313,20.501406,-5.291821,-5.581162,0.303966,-0.139339,-1.496261,0.671945,0.728371,0.005042,-0.133943,93.576678,11.647866,-10.153721
20628,NaN,18.493996,8.201124,2.814388,18.857044,-6.731303,-5.774553,0.532164,0.393232,-0.659618,0.669539,0.730405,0.008367,-0.134743,93.935005,12.007462,-9.902457
20629,NaN,15.924866,9.381685,3.589967,16.488023,-7.157351,-4.207100,0.642210,0.509130,0.194727,0.667288,0.732909,0.008883,-0.132259,94.364157,11.871745,-9.617082
20630,NaN,13.674536,11.680783,2.918169,14.840481,-6.384066,-1.389409,0.435939,0.186424,0.809988,0.666202,0.734522,0.006206,-0.128896,94.629524,11.397991,-9.549274
20631,NaN,13.212749,11.957689,4.478619,14.067059,-7.874372,-0.996288,-0.360303,-0.261735,1.160797,0.668262,0.733182,0.001251,-0.125972,94.384741,10.742283,-9.758810
20632,NaN,17.606447,8.757796,0.825020,18.336675,-4.669499,-4.398150,-1.117664,-0.438807,1.840446,0.673472,0.729145,-0.006300,-0.121421,93.686984,9.705349,-10.092778
20633,NaN,11.701087,7.241179,-8.064820,13.911331,5.213651,-4.009551,0.426572,0.212528,1.938097,0.673061,0.730619,-0.012969,-0.114089,93.940112,8.583609,-10.048573
20634,NaN,-4.889566,11.055489,-1.294547,-3.139802,0.928203,1.895274,2.507010,1.162714,1.233989,0.664596,0.739562,-0.015034,-0.105517,95.465293,7.821654,-9.440083
20635,NaN,-15.472944,16.427113,2.453411,-13.707879,-2.032007,8.165692,1.409085,1.796968,0.765257,0.659869,0.745088,-0.012697,-0.096203,96.403707,7.273318,-8.456920
20636,NaN,-15.078203,14.861176,-2.154463,-13.006686,2.390305,6.859053,-0.126303,0.754793,1.827162,0.661224,0.744890,-0.016993,-0.087371,96.369772,6.182223,-8.145223
20637,NaN,0.562445,20.365164,-0.007430,2.054936,-2.539378,10.295635,-0.299033,-0.185700,3.408256,0.663705,0.743427,-0.030222,-0.076800,96.170659,4.248003,-8.469600
20638,NaN,18.494297,21.337207,4.245837,18.426276,-9.316381,9.908365,-1.666390,-1.395192,3.541687,0.670893,0.736674,-0.047410,-0.070473,95.160461,2.304924,-9.470725
20639,NaN,15.473813,9.382679,-0.630177,15.474047,-2.844362,-0.850677,-0.178805,-0.451672,2.455171,0.672249,0.735279,-0.057960,-0.063926,95.048593,0.921299,-9.857825
20640,NaN,1.498960,12.240494,2.828114,0.896278,-4.129798,2.112610,0.373158,0.324217,1.722064,0.671482,0.736116,-0.063359,-0.056838,95.264999,-0.080750,-9.765210
20641,NaN,-4.053438,6.938151,-1.522181,-3.920797,1.587170,-2.813315,-0.553354,0.155351,1.976998,0.674086,0.733639,-0.070015,-0.049786,94.949473,-1.222937,-9.781462
20642,NaN,1.256342,4.788534,-2.698691,1.482008,2.071348,-4.782389,-0.828073,-0.356775,1.900567,0.677422,0.730061,-0.078020,-0.044980,94.486041,-2.294084,-10.078577
20643,NaN,4.607816,5.014034,-1.013243,4.401635,-0.178917,-4.521959,0.242862,-0.655680,1.489211,0.676582,0.730134,-0.085789,-0.042218,94.647797,-3.120579,-10.525502
20644,NaN,2.712500,7.920383,-1.412997,2.311593,0.296879,-1.648554,1.184766,-0.253605,1.376603,0.672396,0.733475,-0.091959,-0.037980,95.341858,-3.896352,-10.743038
20645,NaN,1.658659,11.879072,0.532855,0.440281,-1.792454,2.050599,0.691221,-0.096131,1.458267,0.670061,0.735088,-0.097820,-0.033094,95.750004,-4.728567,-10.883059
20646,NaN,0.584531,12.950045,-2.974536,-0.252399,1.762454,3.367644,-0.338713,-0.381970,1.272018,0.671299,0.733258,-0.103756,-0.030405,95.583948,-5.434851,-11.177703
20647,NaN,1.790878,10.861665,-3.758202,1.178384,2.536736,1.478101,-0.679857,-0.393557,1.234320,0.673745,0.730259,-0.109557,-0.028041,95.225885,-6.123521,-11.474348
20648,NaN,4.003412,9.075844,-1.862888,3.091302,0.442736,-0.215023,-0.580960,-0.211727,1.252807,0.675895,0.727576,-0.114800,-0.024914,94.916275,-6.830477,-11.663547
20649,NaN,3.336239,8.398646,-1.049253,2.272720,-0.128234,-1.004401,-0.230309,0.014983,1.245073,0.676869,0.726073,-0.119308,-0.020767,94.793106,-7.547918,-11.719826
20650,NaN,1.333746,8.618480,-0.600598,0.103283,-0.146514,-1.072859,0.015191,0.080779,1.292267,0.676967,0.725355,-0.123765,-0.016093,94.806444,-8.292308,-11.739543
20651,NaN,0.434516,9.260396,-1.020210,-0.903099,0.427680,-0.539881,0.113202,-0.126687,1.260133,0.676551,0.724936,-0.128831,-0.012200,94.893967,-9.011469,-11.878509
20652,NaN,0.558858,9.682226,-0.431957,-1.083042,-0.184797,-0.167162,0.140227,-0.417755,1.200861,0.675817,0.724604,-0.134642,-0.009564,95.025871,-9.678932,-12.184217
20653,NaN,1.364536,9.546008,-0.549952,-0.373471,-0.225742,-0.163896,0.127605,-0.644502,1.182118,0.674947,0.724195,-0.141165,-0.007803,95.176969,-10.326420,-12.622927
20654,NaN,2.228241,9.266971,-1.115459,0.511700,0.146790,-0.231371,0.223993,-0.734803,1.187986,0.673631,0.724072,-0.147991,-0.006298,95.398533,-10.968063,-13.117100
20655,NaN,2.344971,9.728165,-0.773857,0.338789,-0.251735,0.215049,0.287620,-0.704552,1.216665,0.672073,0.724103,-0.154832,-0.004522,95.659656,-11.628611,-13.599437
20656,NaN,2.817847,10.369844,0.284464,0.287981,-1.434102,0.836893,0.178145,-0.690694,1.267113,0.670887,0.723692,-0.161779,-0.002629,95.863378,-12.313860,-14.080255
20657,NaN,4.039477,10.802901,-0.441236,1.357862,-1.048331,1.600902,0.157110,-0.538795,1.294012,0.669867,0.723150,-0.168324,-0.000095,96.042431,-13.024764,-14.477908
20658,NaN,4.249124,10.436476,-0.793118,1.573177,-0.744001,1.348576,0.158531,-0.284037,1.330339,0.669022,0.722550,-0.174121,0.003466,96.193963,-13.767922,-14.731620
20659,NaN,3.483707,9.113228,-0.866455,1.074217,-0.415665,-0.085923,0.078590,-0.061045,1.247140,0.668633,0.721716,-0.178883,0.007501,96.270083,-14.479966,-14.851635
20660,NaN,2.300647,7.453451,-1.194792,0.381367,0.280137,-1.935516,0.126894,0.100556,1.153299,0.668193,0.721099,-0.182740,0.011831,96.349763,-15.145689,-14.871419
20661,NaN,2.291649,8.517779,-0.905111,-0.082956,-0.027475,-0.946174,0.115475,0.080413,1.052118,0.667761,0.720510,-0.186312,0.015757,96.424738,-15.755347,-14.897697
20662,NaN,3.254466,9.128106,-0.821856,0.517720,-0.358403,-0.107436,0.189488,0.129495,1.060498,0.667087,0.720141,-0.189721,0.019940,96.534829,-16.370050,-14.896266
20663,NaN,3.079476,10.530251,-1.117119,-0.111541,-0.072607,1.214480,0.187751,0.099286,1.062918,0.666372,0.719739,-0.193252,0.024036,96.649434,-16.986935,-14.914488
20664,NaN,3.005966,10.339116,-0.960750,-0.277147,-0.190899,0.992018,0.217777,0.025446,1.127380,0.665447,0.719368,-0.197233,0.028093,96.796363,-17.632717,-14.982493
20665,NaN,2.812927,10.079139,-0.835656,-0.518706,-0.246576,0.669154,0.115791,-0.121398,1.083012,0.664730,0.718692,-0.201568,0.031388,96.912146,-18.245768,-15.137177
20666,NaN,3.042448,9.285008,-1.386856,-0.028450,0.271092,0.052206,0.016264,-0.163870,1.038360,0.664316,0.717722,-0.205877,0.034265,96.980031,-18.827543,-15.315367
20667,NaN,3.339408,9.228232,-1.575205,0.204138,0.398881,0.116640,-0.009637,-0.108578,1.056384,0.664029,0.716612,-0.210082,0.037389,97.024721,-19.425871,-15.463106
20668,NaN,3.820215,9.572793,-1.405516,0.377864,0.125680,0.581941,-0.027424,-0.063413,1.078389,0.663830,0.715397,-0.214196,0.040712,97.052378,-20.037188,-15.585886
20669,NaN,3.560286,9.711020,-1.258616,-0.045735,0.073962,0.606293,-0.092813,-0.009743,1.030830,0.663913,0.713978,-0.217986,0.044013,97.031417,-20.627771,-15.673335
20670,NaN,3.493179,9.549189,-0.853072,-0.236660,-0.263851,0.384890,-0.140315,-0.018444,0.988295,0.664148,0.712437,-0.221641,0.047074,96.984792,-21.191059,-15.762587
20671,NaN,3.797398,9.140824,-0.662631,0.057865,-0.476282,0.096048,-0.319948,-0.069560,0.936995,0.664962,0.710345,-0.225335,0.049596,96.845850,-21.724245,-15.878890
20672,NaN,4.122135,8.298680,-1.264483,0.735024,0.076880,-0.490010,-0.335025,-0.158569,0.847864,0.665735,0.708314,-0.228992,0.051474,96.716848,-22.198480,-16.042101
20673,NaN,3.599751,8.584341,-0.934718,0.007477,-0.080612,-0.457704,-0.109957,-0.143518,0.891535,0.665703,0.706958,-0.232706,0.053821,96.715773,-22.701177,-16.199460
20674,NaN,3.872961,9.478665,-0.816939,-0.222579,-0.247908,0.453789,-0.049421,-0.169971,0.947108,0.665397,0.705736,-0.236668,0.056315,96.758942,-23.231232,-16.377755
20675,NaN,4.274176,9.641419,-1.032584,0.020847,-0.120202,0.783354,-0.128693,-0.190351,0.946744,0.665331,0.704234,-0.240727,0.058654,96.763638,-23.762000,-16.569873
20676,NaN,4.644766,9.299667,-0.896251,0.361883,-0.321302,0.609690,-0.148620,-0.168399,0.958398,0.665341,0.702633,-0.244740,0.061070,96.753623,-24.298524,-16.749683
20677,NaN,4.462489,8.985496,-0.882840,0.241125,-0.257933,0.252447,-0.161471,-0.106192,0.948811,0.665460,0.700960,-0.248525,0.063668,96.721557,-24.836154,-16.890665
20678,NaN,4.455962,8.697711,-1.244649,0.360881,0.122848,0.031545,-0.182761,-0.059168,0.930471,0.665702,0.699213,-0.252076,0.066330,96.665412,-25.364266,-17.000643
20679,NaN,4.450563,8.727673,-1.263361,0.262136,0.174736,0.060303,-0.099781,-0.002852,0.928265,0.665710,0.697705,-0.255412,0.069297,96.642353,-25.897212,-17.075245
20680,NaN,4.486398,9.024931,-1.223644,0.061723,0.160862,0.338373,-0.042763,0.037873,0.929835,0.665557,0.696361,-0.258579,0.072469,96.641309,-26.431482,-17.124098
20681,NaN,4.591665,9.377657,-1.816460,0.041506,0.737479,0.759776,0.047028,0.087325,0.922861,0.665142,0.695286,-0.261532,0.075918,96.677973,-26.967289,-17.141602
20682,NaN,4.384428,10.201503,-1.231870,-0.762652,0.265895,1.329933,0.164930,0.142232,0.978011,0.664354,0.694500,-0.264430,0.079881,96.768442,-27.535910,-17.128617
20683,NaN,4.360045,11.182861,-0.968250,-1.427626,0.058893,2.143943,0.145624,0.142320,1.008576,0.663602,0.693585,-0.267448,0.083930,96.849298,-28.124091,-17.119075
20684,NaN,4.683147,11.293682,-0.750185,-1.386930,-0.208716,2.355848,0.100084,0.129342,1.086092,0.662940,0.692407,-0.270776,0.088116,96.911139,-28.753337,-17.124494
20685,NaN,4.776973,11.135739,-0.383615,-1.453952,-0.560367,2.209857,0.084432,0.152654,1.191908,0.662294,0.690994,-0.274403,0.092721,96.961164,-29.446389,-17.124085
20686,NaN,4.632724,10.715888,-0.168135,-1.556472,-0.708555,1.736951,0.089238,0.206343,1.272111,0.661643,0.689441,-0.278104,0.097768,96.999900,-30.186779,-17.095304
20687,NaN,4.698919,10.226005,-0.316450,-1.361476,-0.562481,1.348821,0.149466,0.244746,1.324997,0.660781,0.687959,-0.281830,0.103212,97.062339,-30.961846,-17.046183
20688,NaN,4.755380,10.548803,-0.576305,-1.578657,-0.283892,1.661107,0.237388,0.319213,1.408618,0.659647,0.686582,-0.285526,0.109297,97.152813,-31.787902,-16.955030
20689,NaN,4.736209,10.806521,-0.952239,-1.812868,0.126653,1.884076,0.199793,0.355596,1.439852,0.658640,0.684973,-0.289225,0.115561,97.209110,-32.636185,-16.842628
20690,NaN,5.094508,11.112128,-0.931143,-1.874778,0.067240,2.302508,0.247852,0.423227,1.548448,0.657464,0.683289,-0.293018,0.122466,97.271615,-33.549409,-16.693506
20691,NaN,5.408190,11.213691,-1.260255,-1.801837,0.357910,2.564933,0.233502,0.488983,1.570570,0.656374,0.681434,-0.296668,0.129648,97.299196,-34.481695,-16.500590
20692,NaN,5.553528,11.363493,-1.504472,-1.922930,0.616546,2.763176,0.257620,0.623283,1.636746,0.655310,0.679428,-0.300056,0.137522,97.286888,-35.459767,-16.218246
20693,NaN,5.281294,11.793499,-1.323707,-2.640627,0.572777,2.892645,0.325892,0.784675,1.701486,0.654157,0.677375,-0.303070,0.146255,97.243895,-36.487676,-15.824280
20694,NaN,4.884844,12.538503,-1.797223,-3.529155,1.206690,3.240646,0.298931,0.880095,1.737301,0.653151,0.675051,-0.305877,0.155366,97.136694,-37.540914,-15.358535
20695,NaN,5.051195,12.877795,-2.663317,-3.690305,2.089686,3.620638,0.361131,0.972092,1.752692,0.651999,0.672763,-0.308363,0.164924,97.012174,-38.609863,-14.818346
20696,NaN,3.781538,15.007670,-2.134832,-6.351116,1.960437,4.325906,0.439866,1.183551,1.807337,0.650789,0.670401,-0.310238,0.175467,96.822416,-39.722102,-14.115834
20697,NaN,3.544108,17.233221,-2.808109,-8.157078,2.768498,5.782680,0.744330,1.369380,1.880217,0.648695,0.668660,-0.311447,0.187323,96.700541,-40.887713,-13.265436
20698,NaN,2.192189,20.689562,-2.121402,-11.894435,2.415140,7.217762,0.824445,1.631040,1.918409,0.646599,0.666768,-0.311805,0.200268,96.468618,-42.089414,-12.199447
20699,NaN,0.052525,21.093197,-1.687930,-14.131181,2.285214,5.770829,0.498664,1.729656,1.905616,0.645645,0.663628,-0.312074,0.212958,95.959815,-43.284929,-11.024983
20700,NaN,-0.534883,18.309912,-0.207463,-13.102140,0.810015,2.964205,0.113234,1.872763,1.940042,0.646040,0.658921,-0.312350,0.225594,95.105782,-44.497488,-9.696884
20701,NaN,0.405293,16.713814,1.273835,-11.723567,-0.793550,2.147962,0.040646,2.037519,2.188581,0.646524,0.653273,-0.312926,0.239412,94.064591,-45.842841,-8.193483
20702,NaN,3.407659,15.885518,2.434060,-9.435383,-2.178403,3.457672,-0.320955,1.875235,2.502461,0.647404,0.646005,-0.315416,0.253097,92.843862,-47.341661,-6.763822
20703,NaN,6.901744,15.715213,2.451742,-7.308494,-2.268063,5.744735,-0.965073,1.311629,2.706348,0.649062,0.636886,-0.321117,0.264536,91.524305,-48.921314,-5.732117
20704,NaN,6.304232,12.960374,0.271785,-5.819941,0.070246,3.374261,-1.188685,0.968674,2.681408,0.650751,0.627377,-0.328077,0.274385,90.222553,-50.468902,-4.915852
20705,NaN,7.907837,10.067639,0.696086,-2.935689,-0.403764,2.660615,-0.915996,0.900981,2.571088,0.651486,0.618892,-0.334453,0.284041,89.049486,-51.939964,-4.081918
20706,NaN,8.915818,9.916829,0.253761,-2.479344,0.173805,3.291119,-0.866710,0.925402,2.630975,0.651881,0.610300,-0.340806,0.293999,87.809513,-53.435437,-3.144965
20707,NaN,5.355327,8.669220,-1.355242,-3.734880,1.939371,-0.434232,-0.410098,0.977922,2.324323,0.651308,0.603531,-0.345305,0.303832,86.719871,-54.740167,-2.087494
20708,NaN,1.567975,8.269308,-2.717498,-5.656396,3.404105,-3.927212,-0.033877,0.981825,2.020320,0.649966,0.598414,-0.348264,0.313300,85.787080,-55.861761,-0.974268
20709,NaN,-1.040515,8.132872,-3.425114,-7.060753,4.125348,-6.336689,0.086746,0.825025,1.719200,0.648399,0.594400,-0.350591,0.321487,85.017392,-56.806775,0.012657
20710,NaN,-3.961620,6.200022,-3.996206,-7.052527,4.509334,-9.989261,-0.109264,0.493799,1.188711,0.647636,0.591167,-0.352721,0.326615,84.428583,-57.462263,0.641400
20711,NaN,-4.639930,4.913997,-3.977507,-6.332006,4.369331,-11.332930,-0.464772,0.202644,0.696486,0.648201,0.588119,-0.354893,0.328639,83.923329,-57.848134,0.926939
20712,NaN,1.918251,3.437551,-4.809962,-1.520309,5.127777,-6.646188,-0.474713,-0.265549,0.498676,0.648272,0.586139,-0.358027,0.328634,83.851662,-58.151782,0.692982
20713,NaN,-1.441394,4.241862,-4.473875,-3.990455,4.856322,-9.051829,0.052249,-0.365629,-0.226448,0.647811,0.587337,-0.358475,0.326912,84.245962,-58.044896,0.266700
20714,NaN,-5.610949,5.130749,-2.867372,-7.093684,3.319702,-11.977741,0.760805,-0.029245,-1.063144,0.647220,0.591753,-0.354226,0.324744,84.807288,-57.443452,0.120668
20715,NaN,-4.951630,6.038337,-2.327461,-7.578249,2.823258,-10.810359,0.721652,0.284592,-1.278595,0.647622,0.595901,-0.348352,0.322706,85.078033,-56.699410,0.293877
20716,NaN,-2.875517,5.951174,-2.156393,-6.394228,2.613297,-9.025839,0.376502,0.244998,-1.092128,0.648649,0.598628,-0.343721,0.320554,85.170090,-56.067283,0.444676
20717,NaN,-1.292572,5.462577,-1.087133,-5.162301,1.500031,-7.865249,0.139515,-0.000346,-1.202573,0.650122,0.601165,-0.339902,0.316871,85.342327,-55.380258,0.336371
20718,NaN,-0.560283,5.074868,-0.535933,-4.429451,0.921193,-7.386547,-0.000716,-0.205536,-1.690658,0.652402,0.604352,-0.335508,0.310750,85.624031,-54.427124,-0.006078
20719,NaN,-0.674949,4.545401,-0.380822,-4.031244,0.729726,-7.696806,-0.069336,-0.230349,-2.198914,0.655578,0.608164,-0.329710,0.302729,85.899494,-53.179738,-0.393081
20720,NaN,-0.500164,3.739436,-0.194411,-3.246815,0.485120,-7.943624,-0.031111,-0.221584,-2.584873,0.659137,0.612620,-0.322627,0.293510,86.185518,-51.714233,-0.773900
20721,NaN,-0.659286,3.396029,-0.328458,-3.019901,0.593542,-8.199426,0.128026,-0.209372,-2.887049,0.662551,0.617971,-0.314260,0.283511,86.542747,-50.070066,-1.135967
20722,NaN,-1.319154,4.414873,-0.021599,-4.189445,0.367319,-7.930240,0.287877,-0.244577,-3.139153,0.665618,0.624138,-0.304955,0.272778,86.992795,-48.285409,-1.510127
20723,NaN,-1.401982,5.278259,0.354349,-4.839462,0.048416,-7.258158,0.224379,-0.397220,-3.368626,0.668787,0.630501,-0.295422,0.260610,87.475930,-46.367342,-1.988358
20724,NaN,-0.430800,5.937645,0.064123,-4.514522,0.349457,-5.947653,0.205073,-0.548982,-3.593275,0.671875,0.637117,-0.285646,0.247128,87.999168,-44.325683,-2.555917
20725,NaN,0.856563,6.571895,-0.295555,-3.840717,0.685721,-4.447597,0.228465,-0.606256,-3.783126,0.674811,0.643947,-0.275303,0.232747,88.524828,-42.168072,-3.127761
20726,NaN,1.664555,7.208211,-0.712741,-3.408942,1.068570,-3.296021,0.319433,-0.540106,-3.956323,0.677482,0.650981,-0.263994,0.218056,89.024311,-39.911461,-3.606692
20727,NaN,1.763770,7.996213,-0.883946,-3.545295,1.221272,-2.480490,0.491666,-0.404177,-4.145545,0.679698,0.658443,-0.251281,0.203275,89.521654,-37.537536,-3.946663
20728,NaN,1.774232,9.158242,-0.619381,-3.932810,0.945157,-1.384709,0.419383,-0.430954,-4.308866,0.681971,0.665575,-0.238110,0.187695,89.956136,-35.072898,-4.271268
20729,NaN,2.307625,9.432080,-0.659320,-3.270891,0.889821,-0.690314,0.358984,-0.468407,-4.429853,0.684184,0.672373,-0.224574,0.171386,90.342363,-32.531981,-4.590465
20730,NaN,2.896597,9.872548,-0.429700,-2.606915,0.552152,0.133300,0.458118,-0.450180,-4.539487,0.685826,0.679257,-0.210438,0.154816,90.750307,-29.931669,-4.867152
20731,NaN,3.332560,10.940405,0.189051,-2.333939,-0.170889,1.382591,0.547917,-0.403303,-4.595633,0.686893,0.686125,-0.195736,0.138194,91.171007,-27.292743,-5.083930
20732,NaN,3.823839,11.859956,0.556435,-1.817128,-0.675714,2.508174,0.503145,-0.380890,-4.603521,0.687769,0.692447,-0.180889,0.121534,91.538889,-24.653615,-5.261146
20733,NaN,4.371218,12.784666,0.402293,-1.101270,-0.677567,3.641345,0.356988,-0.449307,-4.726637,0.688783,0.698050,-0.165806,0.103984,91.824279,-21.936602,-5.458397
20734,NaN,4.348202,13.160005,0.076849,-0.594073,-0.474032,4.025067,0.381694,-0.490576,-4.811023,0.689324,0.703412,-0.150495,0.085991,92.116085,-19.174934,-5.660982
20735,NaN,4.258217,14.697419,0.396993,-0.516549,-0.932850,5.455579,0.446706,-0.495077,-4.892971,0.689255,0.708653,-0.134760,0.067665,92.430997,-16.359913,-5.845231
20736,NaN,4.800325,15.946524,0.816191,0.379809,-1.577608,6.779814,0.399604,-0.497977,-4.943441,0.688944,0.713319,-0.118823,0.049114,92.705076,-13.520432,-6.012587
20737,NaN,6.047808,17.081660,1.204614,2.122309,-2.270618,8.078196,0.211466,-0.498759,-4.945480,0.688877,0.716906,-0.102820,0.030379,92.861155,-10.673861,-6.167042
20738,NaN,7.951667,18.214704,1.861444,4.602619,-3.297659,9.327136,0.075057,-0.464786,-4.896681,0.688889,0.719546,-0.086866,0.011877,92.926962,-7.861222,-6.296637
20739,NaN,10.170183,19.230861,2.600099,7.509123,-4.421694,10.286873,-0.241563,-0.543361,-4.808481,0.689588,0.720638,-0.071435,-0.006778,92.810801,-5.091868,-6.473950
20740,NaN,12.565809,18.874688,2.021648,10.900170,-4.179417,9.728814,-0.469763,-0.578374,-4.621665,0.690715,0.720462,-0.056783,-0.024964,92.557369,-2.434070,-6.684998
20741,NaN,13.440656,17.796071,0.875772,12.791838,-3.167162,8.197785,-0.460498,-0.606362,-4.402549,0.691465,0.719878,-0.042959,-0.042503,92.300388,0.102244,-6.928420
20742,NaN,12.530193,15.714596,-1.107997,12.843291,-1.089396,5.646514,-0.423699,-0.816357,-4.101099,0.691779,0.718971,-0.030962,-0.059703,92.050952,2.465204,-7.310254
20743,NaN,12.868522,13.156794,-2.956844,13.871641,0.680299,2.617722,-0.334840,-1.148715,-3.678318,0.691565,0.717914,-0.021626,-0.076617,91.824534,4.594144,-7.901126
20744,NaN,15.424134,11.257946,-3.905701,16.785224,1.166504,0.023892,-0.169993,-1.284472,-3.171965,0.690709,0.717081,-0.014655,-0.092205,91.663042,6.430228,-8.588125
20745,NaN,18.262776,9.947436,-2.913330,19.546219,-0.392340,-2.149108,-0.048892,-1.110173,-2.584307,0.689531,0.716528,-0.009226,-0.105120,91.561761,7.927449,-9.190321
20746,NaN,19.758610,8.812116,-1.118167,20.712637,-2.525746,-3.990600,0.129325,-0.631098,-1.979414,0.687951,0.716703,-0.004419,-0.114197,91.587898,9.068178,-9.527848
20747,NaN,18.411855,8.406305,0.169969,19.201311,-3.660379,-4.559548,0.542611,-0.105622,-1.401115,0.685174,0.718529,-0.000109,-0.119386,91.894319,9.870153,-9.567935
20748,NaN,17.353095,10.188683,2.810555,18.058518,-6.253845,-2.912250,0.714405,0.170756,-0.581311,0.682244,0.721078,0.002097,-0.120766,92.324397,10.196521,-9.459820
20749,NaN,17.414063,11.594951,4.001092,18.154771,-7.560705,-1.630937,0.191841,0.068616,0.268418,0.681704,0.721784,0.001201,-0.119605,92.441541,10.037611,-9.430105
20750,NaN,18.255061,11.009528,3.285019,18.947891,-6.942428,-2.195327,-0.494914,-0.179242,0.975137,0.684055,0.719993,-0.002675,-0.116927,92.137787,9.480589,-9.560504
20751,NaN,19.987323,9.762769,0.424104,20.838991,-4.299058,-3.314456,-0.924842,-0.295798,1.691587,0.688331,0.716606,-0.009291,-0.112205,91.577231,8.512365,-9.767651
20752,NaN,17.962023,8.416894,-4.864547,19.476146,1.331194,-3.809849,-0.149762,-0.177948,2.243210,0.690064,0.715849,-0.017898,-0.105126,91.474029,7.227363,-9.908653
20753,NaN,0.784384,9.670616,-4.830222,2.660917,4.086499,-0.133848,1.978239,0.261873,1.904688,0.683936,0.722580,-0.024914,-0.097413,92.621945,6.125021,-9.800881
20754,NaN,-13.687545,14.403703,1.106833,-12.300658,0.079647,5.830340,2.473700,1.116143,0.753274,0.675427,0.731425,-0.025062,-0.090490,94.104075,5.653871,-9.188209
20755,NaN,-17.055103,15.679063,-0.478230,-15.461896,1.748818,7.357007,0.538253,0.743350,1.297235,0.674109,0.733400,-0.027600,-0.083307,94.448075,4.875125,-8.821321
20756,NaN,-3.190690,16.981185,0.998575,-2.368060,-1.929335,7.221922,-0.423502,-0.162066,3.458210,0.676966,0.731324,-0.040687,-0.072295,94.190626,2.903606,-9.067373
20757,NaN,16.900883,20.824598,4.230561,16.385683,-8.425228,10.127913,-1.591357,-1.674672,3.691882,0.683607,0.724415,-0.059325,-0.066220,93.244556,0.849809,-10.166417
20758,NaN,14.598828,12.604048,0.306419,14.242424,-3.614769,2.683540,-0.892757,-1.009237,2.004899,0.687143,0.720389,-0.069777,-0.063286,92.731695,-0.270032,-10.807369
20759,NaN,3.686109,7.740605,-2.283984,3.879006,1.206900,-1.924978,-0.109106,-0.135436,1.705015,0.687994,0.719354,-0.076410,-0.057934,92.672532,-1.248462,-10.934875
20760,NaN,-0.775989,5.566103,0.292412,-1.043406,-0.359032,-4.294504,-0.054452,0.179748,2.164311,0.688832,0.718357,-0.083596,-0.049863,92.641883,-2.494798,-10.893059
20761,NaN,-0.681093,5.408097,-0.901407,-0.831631,0.818426,-4.412547,0.212340,-0.213238,2.030752,0.688439,0.718152,-0.091736,-0.043526,92.774984,-3.657531,-11.074257
20762,NaN,1.210412,6.639080,-2.019150,1.037778,1.505670,-3.010154,0.442234,-0.514851,1.620531,0.686927,0.718799,-0.099460,-0.039594,93.055142,-4.572646,-11.420578
20763,NaN,2.141761,8.211485,-0.589505,1.420424,-0.165963,-1.427183,0.612477,-0.615128,1.310814,0.684645,0.720110,-0.106463,-0.036980,93.442334,-5.308639,-11.820433
20764,NaN,1.470135,9.680302,-1.810271,0.737814,1.061489,0.060207,0.640810,-0.529081,1.214728,0.682248,0.721547,-0.112804,-0.034386,93.846065,-5.986727,-12.172547
20765,NaN,1.496923,11.188966,-2.551956,0.599343,1.683721,1.621910,0.340521,-0.476739,1.431117,0.680962,0.721802,-0.119710,-0.031014,94.080385,-6.791916,-12.507769
20766,NaN,2.693078,11.300980,-0.700922,1.190751,-0.380308,1.758433,0.047558,-0.322115,1.584371,0.680806,0.720949,-0.126568,-0.026754,94.141668,-7.686873,-12.762624
20767,NaN,3.923756,10.606775,0.782890,1.994511,-2.043704,1.157964,-0.007784,-0.206397,1.500726,0.680870,0.719928,-0.132736,-0.022377,94.165456,-8.541904,-12.948696
20768,NaN,2.821631,9.546445,0.833586,0.939907,-1.793518,-0.030593,0.203734,-0.106084,1.358937,0.680186,0.719698,-0.138049,-0.017999,94.303239,-9.316641,-13.071964
20769,NaN,1.682683,9.626173,0.333308,-0.201832,-1.054517,-0.094080,0.346615,-0.086560,1.396734,0.678972,0.719889,-0.143457,-0.013302,94.523413,-10.116741,-13.188657
20770,NaN,1.825469,9.767900,0.264326,-0.214744,-1.020729,0.072887,0.121019,-0.238432,1.335247,0.678422,0.719317,-0.149117,-0.009542,94.631886,-10.871153,-13.392994
20771,NaN,1.585803,9.191815,-0.435974,-0.300064,-0.250602,-0.483142,0.037594,-0.399121,1.223024,0.678018,0.718500,-0.154928,-0.006784,94.712544,-11.556850,-13.687601
20772,NaN,2.192319,9.351872,-1.085992,0.276437,0.247509,-0.153261,0.038743,-0.489240,1.154492,0.677509,0.717714,-0.160772,-0.004599,94.807727,-12.195487,-14.032925
20773,NaN,2.836112,9.860773,-1.852708,0.837021,0.834422,0.546515,-0.029646,-0.529998,1.137940,0.677186,0.716674,-0.166706,-0.002652,94.872828,-12.825340,-14.403305
20774,NaN,3.139757,9.940159,-1.838098,0.993795,0.760854,0.698064,-0.118514,-0.479085,1.145106,0.677196,0.715305,-0.172466,-0.000592,94.884589,-13.458412,-14.745260
20775,NaN,3.503709,9.897916,-1.508697,1.161482,0.379155,0.724251,-0.214028,-0.414219,1.118334,0.677577,0.713603,-0.177923,0.001546,94.836154,-14.082522,-15.048755
20776,NaN,3.723172,9.511705,-1.270071,1.304351,0.130713,0.396536,-0.160457,-0.259071,1.089335,0.677883,0.712088,-0.182725,0.004168,94.798476,-14.694695,-15.259386
20777,NaN,3.244686,9.766539,-0.970037,0.613510,-0.009430,0.506070,-0.128525,-0.132861,1.070721,0.678168,0.710668,-0.187046,0.007224,94.761941,-15.305452,-15.395006
20778,NaN,3.021617,9.342631,-0.952506,0.417798,0.070710,0.043362,-0.155560,-0.036071,1.063310,0.678621,0.709144,-0.190988,0.010555,94.695546,-15.913611,-15.472374
20779,NaN,2.931223,9.073054,-0.576505,0.225116,-0.232326,-0.265995,-0.130077,-0.027767,0.990785,0.678976,0.707751,-0.194658,0.013712,94.642225,-16.483821,-15.541181
20780,NaN,3.090656,8.982539,-0.536881,0.301599,-0.282670,-0.307169,-0.040309,-0.020161,0.941240,0.679009,0.706698,-0.198096,0.016796,94.638757,-17.023120,-15.602623
20781,NaN,3.358770,9.650512,-0.542743,0.255794,-0.323884,0.411654,0.050245,0.006037,0.954991,0.678730,0.705916,-0.201501,0.020126,94.683566,-17.574410,-15.649776
20782,NaN,3.152573,10.087523,-0.607539,-0.151583,-0.185790,0.770676,0.005192,-0.009489,0.958442,0.678579,0.704968,-0.204952,0.023350,94.705864,-18.123976,-15.706566
20783,NaN,3.158610,9.566931,-0.430192,-0.118350,-0.336672,0.265009,-0.043787,-0.055790,0.939712,0.678539,0.703857,-0.208513,0.026313,94.709374,-18.663525,-15.790918
20784,NaN,3.235087,9.149013,-0.556534,0.031659,-0.213847,-0.095044,-0.036293,-0.071241,0.907291,0.678447,0.702796,-0.211989,0.029102,94.720356,-19.180956,-15.882996
20785,NaN,3.341850,9.292074,-0.497050,-0.021484,-0.275788,0.070655,-0.014665,-0.075282,0.916200,0.678259,0.701781,-0.215519,0.031946,94.745790,-19.706046,-15.978746
20786,NaN,3.679303,9.713501,-0.551255,0.063537,-0.281295,0.584880,-0.093059,-0.101370,0.888004,0.678308,0.700524,-0.219030,0.034502,94.732014,-20.211001,-16.088976
20787,NaN,3.783430,9.245349,-0.637068,0.256643,-0.207059,0.191675,-0.057286,-0.067461,0.900028,0.678252,0.699350,-0.222474,0.037271,94.732886,-20.727159,-16.179752
20788,NaN,3.646838,9.209027,-0.273168,-0.029601,-0.498798,0.083267,-0.053521,-0.045318,0.892313,0.678196,0.698184,-0.225794,0.040079,94.731654,-21.237237,-16.256596
20789,NaN,3.647735,8.964634,-0.698598,0.082890,-0.070019,-0.109787,-0.018122,-0.011393,0.896423,0.678039,0.697107,-0.229018,0.043074,94.744033,-21.753924,-16.313446
20790,NaN,3.723096,9.471717,-0.646547,-0.140046,-0.103600,0.383482,-0.047589,-0.035332,0.888013,0.677947,0.695936,-0.232279,0.045907,94.745341,-22.262004,-16.384584
20791,NaN,3.674834,9.482928,-0.964235,-0.194856,0.242063,0.398230,-0.071852,-0.067280,0.897410,0.677885,0.694660,-0.235698,0.048647,94.741297,-22.776532,-16.476487
20792,NaN,3.982529,9.381315,-1.204978,0.087821,0.416490,0.441075,-0.040999,-0.076985,0.950404,0.677677,0.693418,-0.239305,0.051553,94.759183,-23.318254,-16.577280
20793,NaN,4.214364,9.368304,-1.078437,0.168037,0.256929,0.511744,0.007940,-0.053995,0.998810,0.677298,0.692257,-0.242999,0.054774,94.801726,-23.891182,-16.667299
20794,NaN,4.068386,9.499769,-0.871797,-0.164577,0.125547,0.556196,-0.050426,-0.060862,0.973889,0.677103,0.690918,-0.246625,0.057801,94.812991,-24.446994,-16.760695
20795,NaN,4.006352,9.381646,-0.948176,-0.244693,0.240828,0.426771,-0.112209,-0.066113,0.961540,0.677101,0.689364,-0.250252,0.060704,94.791102,-24.997965,-16.857393
20796,NaN,4.243022,9.328053,-1.116668,-0.065793,0.370703,0.488779,-0.099976,-0.046979,0.953332,0.677069,0.687846,-0.253762,0.063645,94.771636,-25.542741,-16.941489
20797,NaN,4.337536,9.416459,-1.149078,-0.107829,0.410530,0.609565,-0.025446,0.000263,0.938143,0.676828,0.686563,-0.257045,0.066803,94.782534,-26.083483,-16.995457
20798,NaN,4.349494,9.742532,-0.972896,-0.384995,0.277669,0.890366,0.075876,0.056933,0.960901,0.676291,0.685565,-0.260160,0.070349,94.836524,-26.637535,-17.014824
20799,NaN,4.444660,10.352129,-0.684404,-0.762053,0.026303,1.448193,0.133362,0.086069,1.030633,0.675550,0.684637,-0.263403,0.074316,94.917488,-27.235093,-17.020480
20800,NaN,4.608519,10.678728,-0.510760,-0.937637,-0.143418,1.790480,0.096902,0.097728,1.084791,0.674913,0.683496,-0.266783,0.078443,94.975714,-27.861836,-17.022186
20801,NaN,4.579287,10.461610,-0.408564,-1.011738,-0.216150,1.567573,0.057675,0.122680,1.135593,0.674399,0.682118,-0.270273,0.082784,95.005654,-28.521011,-17.011452
20802,NaN,4.480572,10.245974,-0.117417,-1.191553,-0.449838,1.297924,0.056296,0.156116,1.186338,0.673893,0.680634,-0.273802,0.087393,95.025510,-29.208637,-16.981796
20803,NaN,4.525935,10.283691,-0.292849,-1.260606,-0.254602,1.352820,0.079518,0.178610,1.243659,0.673287,0.679110,-0.277441,0.092312,95.052896,-29.932199,-16.941073
20804,NaN,4.572830,10.687928,-0.479450,-1.520431,-0.028513,1.722388,0.162602,0.210843,1.304949,0.672387,0.677741,-0.281118,0.097646,95.118548,-30.690327,-16.882763
20805,NaN,4.616803,11.381949,-0.660108,-1.955192,0.210403,2.329380,0.199354,0.252571,1.398254,0.671343,0.676307,-0.284950,0.103494,95.193503,-31.505854,-16.803089
20806,NaN,4.782175,11.703746,-0.873660,-2.114329,0.432382,2.675297,0.202135,0.302179,1.484827,0.670279,0.674701,-0.288880,0.109786,95.254357,-32.371501,-16.695573
20807,NaN,4.873111,12.103508,-0.937196,-2.436504,0.541122,3.028155,0.205824,0.399959,1.619047,0.669226,0.672811,-0.292925,0.116867,95.284337,-33.320709,-16.529984
20808,NaN,4.775380,12.206692,-0.679989,-2.842058,0.372603,2.995499,0.194082,0.479986,1.686756,0.668241,0.670690,-0.296904,0.124408,95.276087,-34.311027,-16.311907
20809,NaN,4.644716,12.111140,-1.028522,-3.027512,0.794137,2.817036,0.132309,0.575672,1.754702,0.667507,0.668143,-0.300815,0.132403,95.191685,-35.346517,-16.028176
20810,NaN,4.937119,12.709012,-1.520808,-3.268141,1.313391,3.446096,0.278350,0.718574,1.869112,0.666362,0.665758,-0.304496,0.141456,95.128675,-36.452810,-15.645474
20811,NaN,4.058270,13.466985,-2.385468,-4.467448,2.463590,3.509683,0.261058,0.839959,1.881700,0.665380,0.663136,-0.307803,0.150921,94.993250,-37.573178,-15.168998
20812,NaN,4.025071,15.242750,-2.611502,-5.820128,2.867181,4.790656,0.606293,1.011006,2.016580,0.663334,0.661249,-0.310682,0.161907,94.970638,-38.777233,-14.567283
20813,NaN,3.525506,18.983305,-2.666790,-8.891891,3.293349,7.216045,0.843896,1.365640,2.074046,0.660903,0.659669,-0.312340,0.174606,94.902770,-40.032096,-13.695682
20814,NaN,1.744219,21.427078,-3.087929,-12.129641,4.161385,7.715275,0.786419,1.560975,2.089159,0.658837,0.657590,-0.313391,0.187872,94.678612,-41.302349,-12.657367
20815,NaN,0.341128,19.843773,-3.050205,-12.511456,4.219843,5.314597,0.469975,1.644460,1.985347,0.657921,0.654434,-0.314068,0.200542,94.189098,-42.512181,-11.518379
20816,NaN,-0.143921,18.510008,-3.107516,-12.298922,4.237193,3.717407,0.521208,1.808217,2.078688,0.656880,0.651016,-0.314402,0.214098,93.600122,-43.773624,-10.217647
20817,NaN,0.982830,19.406814,0.864268,-12.964314,0.203568,4.685937,0.266181,1.908763,2.060732,0.656717,0.646556,-0.314554,0.227474,92.753347,-45.015227,-8.786278
20818,NaN,6.553289,16.931252,2.991434,-7.907063,-2.514526,6.609797,-0.637429,1.831292,2.553934,0.658642,0.638290,-0.317514,0.240751,91.370636,-46.518297,-7.363730
20819,NaN,8.771559,14.180738,0.983281,-4.582562,-0.625035,6.236818,-0.709952,1.562096,2.885040,0.659797,0.629418,-0.322411,0.254071,90.019846,-48.183621,-6.077600
20820,NaN,6.425251,13.478466,0.533120,-5.969337,0.181190,3.882355,-0.618708,1.400170,2.840828,0.660280,0.620947,-0.327508,0.266822,88.727996,-49.805549,-4.833134
20821,NaN,6.923498,10.582483,1.426665,-3.880559,-0.779649,2.281957,-0.689540,1.425654,2.782367,0.660935,0.612150,-0.332339,0.279265,87.278002,-51.371710,-3.465161
20822,NaN,6.206895,8.298440,-1.977782,-2.514782,2.589056,0.100196,-0.389601,1.395502,2.717196,0.660546,0.604337,-0.336580,0.291839,85.915692,-52.881645,-2.019879
20823,NaN,3.465802,8.094925,-2.762589,-4.169388,3.496975,-2.359228,0.207242,1.250705,2.322347,0.658554,0.599254,-0.339154,0.303605,84.931619,-54.152197,-0.645591
20824,NaN,0.436507,9.108864,-2.644513,-6.942810,3.497631,-4.361505,0.507145,1.323353,1.958639,0.656228,0.595561,-0.339901,0.314862,84.010980,-55.199541,0.841205
20825,NaN,-3.418773,8.191264,-2.483604,-8.506224,3.157408,-8.192422,0.377554,1.456484,1.489541,0.655173,0.591965,-0.338961,0.324703,82.882971,-55.953299,2.473862
20826,NaN,-4.586075,5.447700,-2.965952,-6.901152,3.289100,-10.842745,0.017357,1.340583,1.042858,0.655648,0.588068,-0.337646,0.332109,81.642231,-56.445438,3.981203
20827,NaN,-1.340394,2.323788,-4.823837,-2.433029,4.947447,-10.075093,-0.051889,0.809786,0.914936,0.655611,0.585024,-0.337776,0.337386,80.801874,-56.893449,4.954639
20828,NaN,-4.470246,5.377760,-2.987400,-6.799564,3.217332,-10.927380,0.217818,0.458313,0.182935,0.655408,0.584666,-0.336469,0.339698,80.509087,-56.957757,5.455261
20829,NaN,-7.195798,5.460948,-1.638912,-8.430903,1.705923,-13.021524,0.299578,0.398724,-0.769734,0.656477,0.586288,-0.332413,0.338829,80.457427,-56.485550,5.725875
20830,NaN,-5.379303,5.373943,-1.209794,-7.404050,1.339891,-11.444847,0.247719,0.383338,-0.996692,0.658038,0.588112,-0.327838,0.337093,80.423840,-55.889475,5.939430
20831,NaN,-3.280027,4.952757,-0.939976,-5.905389,1.138707,-9.850112,0.231382,0.251015,-0.888751,0.659235,0.589932,-0.324016,0.335267,80.481467,-55.363481,6.033968
20832,NaN,-1.702316,4.630433,-0.962953,-4.742837,1.221384,-8.681525,0.164287,0.016256,-1.091795,0.660568,0.592218,-0.320491,0.331983,80.714791,-54.748334,5.866500
20833,NaN,-1.242688,4.302065,-1.426304,-4.179108,1.681465,-8.473420,0.225060,-0.178749,-1.603776,0.662231,0.595841,-0.315957,0.326489,81.194394,-53.856627,5.438651
20834,NaN,-1.384546,4.168870,-0.931657,-4.144146,1.169424,-8.539048,0.317117,-0.335120,-2.088175,0.664100,0.600716,-0.310340,0.319063,81.872799,-52.704961,4.821415
20835,NaN,-1.685227,4.055190,-0.432329,-4.221372,0.649646,-8.704341,0.306310,-0.508687,-2.451033,0.666223,0.606333,-0.304161,0.309828,82.668854,-51.351873,4.038428
20836,NaN,-1.570481,3.980884,-0.203396,-4.066424,0.426391,-8.533451,0.296937,-0.681922,-2.718339,0.668403,0.612465,-0.297733,0.299131,83.544599,-49.855884,3.127921
20837,NaN,-1.658274,4.319047,-0.266118,-4.337454,0.515428,-8.265433,0.367849,-0.812886,-3.021501,0.670479,0.619364,-0.290616,0.287034,84.504028,-48.181463,2.140667
20838,NaN,-1.508458,5.026160,-0.682247,-4.687167,0.984615,-7.562915,0.426224,-0.938352,-3.305757,0.672413,0.626863,-0.282901,0.273626,85.511753,-46.344600,1.103917
20839,NaN,-0.810926,5.933453,-0.992318,-4.745711,1.353491,-6.278525,0.460265,-0.990442,-3.535619,0.674268,0.634691,-0.274476,0.259216,86.498831,-44.361722,0.091945
20840,NaN,0.119947,6.745322,-1.032117,-4.486167,1.419528,-4.869760,0.424759,-0.963893,-3.719964,0.676267,0.642370,-0.265352,0.244155,87.374657,-42.266024,-0.827009
20841,NaN,1.163123,7.365539,-1.199927,-3.904701,1.571218,-3.542052,0.398207,-0.877761,-3.874142,0.678395,0.649832,-0.255343,0.228690,88.125179,-40.065779,-1.615434
20842,NaN,1.959745,7.971156,-1.097712,-3.415515,1.427924,-2.405229,0.450098,-0.742518,-4.039997,0.680435,0.657238,-0.244200,0.213104,88.781593,-37.766424,-2.246608
20843,NaN,2.379421,8.811829,-0.830221,-3.283901,1.116342,-1.329981,0.464741,-0.715400,-4.180003,0.682310,0.664566,-0.232351,0.197023,89.386536,-35.376027,-2.809298
20844,NaN,2.466117,9.431147,-0.985055,-3.188097,1.212665,-0.628536,0.456260,-0.692197,-4.316908,0.684054,0.671670,-0.219898,0.180481,89.931214,-32.908031,-3.310388
20845,NaN,2.845843,10.134794,-0.954185,-2.831838,1.096656,0.310677,0.490187,-0.665775,-4.426479,0.685474,0.678674,-0.206814,0.163570,90.447603,-30.368038,-3.752919
20846,NaN,3.618878,10.975005,-0.418085,-2.146829,0.439555,1.540572,0.431319,-0.600109,-4.514588,0.686881,0.685144,-0.193182,0.146466,90.873247,-27.780531,-4.116155
20847,NaN,4.661733,11.443312,-0.086624,-0.929956,-0.053651,2.507763,0.353688,-0.570081,-4.610681,0.688286,0.691072,-0.179036,0.128949,91.219539,-25.130522,-4.431047
20848,NaN,4.954490,11.823545,-0.636064,-0.210330,0.366118,3.014571,0.409228,-0.545606,-4.698095,0.689199,0.696854,-0.164404,0.111227,91.566431,-22.434819,-4.704888
20849,NaN,4.269890,12.543375,-0.764340,-0.498427,0.414771,3.442430,0.636264,-0.516857,-4.728858,0.688966,0.703046,-0.149311,0.093590,92.017066,-19.714649,-4.935036
20850,NaN,3.859472,15.399929,-0.162444,-1.208328,-0.336439,6.013097,0.667916,-0.573290,-4.861545,0.688236,0.709040,-0.133877,0.075299,92.475462,-16.921318,-5.169511
20851,NaN,4.801727,16.521231,-0.160375,0.163769,-0.609407,7.379562,0.318048,-0.702070,-4.972444,0.688271,0.713526,-0.118506,0.055855,92.737294,-14.054091,-5.455548
20852,NaN,6.555051,16.304215,-0.119593,2.752258,-0.960313,7.515041,0.210750,-0.765868,-4.925172,0.688210,0.717172,-0.103515,0.036282,92.927797,-11.216757,-5.765448
20853,NaN,8.438773,17.377451,0.538317,5.185359,-1.995657,8.694987,0.215226,-0.723417,-4.861554,0.687716,0.720364,-0.088506,0.017027,93.100993,-8.410597,-6.040166
20854,NaN,9.930191,18.431680,0.756092,7.364885,-2.572413,9.628708,0.127225,-0.636893,-4.694773,0.687167,0.722740,-0.073792,-0.001359,93.203075,-5.707497,-6.261899
20855,NaN,10.911150,19.350021,0.761899,9.145292,-2.871054,10.239524,-0.069652,-0.631953,-4.599665,0.686949,0.724017,-0.059329,-0.019502,93.182663,-3.053789,-6.480488
20856,NaN,11.244579,17.678425,-0.242467,10.532601,-1.946087,8.193769,-0.289695,-0.780582,-4.380792,0.687156,0.724075,-0.046150,-0.037457,93.028391,-0.526039,-6.794835
20857,NaN,11.439014,15.997897,-0.988305,11.558430,-1.261738,6.078017,-0.221131,-0.982985,-4.129894,0.686782,0.723935,-0.034537,-0.055273,92.899090,1.867556,-7.238167
20858,NaN,12.681913,14.143151,-2.865070,13.572385,0.386294,3.776303,-0.183900,-1.216750,-3.812960,0.686035,0.723490,-0.024897,-0.072794,92.764864,4.081191,-7.830888
20859,NaN,14.475141,12.008441,-4.189427,15.852554,1.370679,1.052851,0.019834,-1.345056,-3.408011,0.684423,0.723385,-0.017206,-0.089355,92.718462,6.068835,-8.513147
20860,NaN,16.871497,10.470469,-3.815700,18.324411,0.509615,-1.282735,0.249437,-1.142034,-2.934593,0.682016,0.723899,-0.010651,-0.103499,92.793324,7.776934,-9.093694
20861,NaN,18.774930,9.197697,-2.166486,19.952133,-1.525844,-3.382201,0.492597,-0.608121,-2.370745,0.678904,0.725347,-0.004427,-0.113763,93.036384,9.150256,-9.378976
20862,NaN,19.333341,8.470886,0.832503,19.984332,-4.612932,-4.756681,0.720012,0.069173,-1.693619,0.675293,0.727845,0.001499,-0.119244,93.466288,10.114017,-9.286694
20863,NaN,17.158577,8.605927,2.838064,17.619608,-6.269092,-4.637979,0.980426,0.534489,-0.924345,0.671137,0.731461,0.006044,-0.120429,94.092506,10.619765,-8.944045
20864,NaN,14.519525,10.274820,3.984788,15.188542,-7.165292,-2.725130,0.813038,0.424538,-0.148373,0.668045,0.734441,0.007480,-0.119402,94.606398,10.683355,-8.694431
20865,NaN,13.539798,10.924810,3.591240,14.392768,-6.733423,-1.870202,0.124886,-0.206565,0.498430,0.667877,0.734762,0.004837,-0.118497,94.653524,10.404442,-8.841582
20866,NaN,13.470629,10.576079,1.488299,14.536947,-4.674028,-1.916267,-0.319494,-0.801829,1.054111,0.669670,0.733236,-0.001566,-0.117917,94.381485,9.835821,-9.358869
20867,NaN,13.065301,10.039059,1.217072,13.976721,-4.368594,-2.162451,-0.515144,-1.159607,1.515158,0.672401,0.730789,-0.010755,-0.117085,93.967486,9.013362,-10.098464
20868,NaN,16.015658,8.351637,0.984868,16.490846,-4.597240,-3.971195,-0.922661,-1.265235,2.202623,0.676923,0.726768,-0.022557,-0.114346,93.321432,7.797194,-10.914534
20869,NaN,7.569854,6.801132,-5.739713,9.271089,3.582649,-3.672007,0.763304,-0.804967,2.279913,0.675298,0.728584,-0.034064,-0.109443,93.692697,6.515353,-11.462924
20870,NaN,-8.760881,12.634020,2.212266,-7.874595,-1.628708,3.476062,2.354369,-0.044596,1.472423,0.667444,0.736194,-0.040905,-0.104226,95.033626,5.673397,-11.556787
20871,NaN,-16.693498,16.575390,3.131379,-15.731345,-1.487382,7.894004,0.677814,-0.134549,1.142129,0.665491,0.738144,-0.045973,-0.100752,95.411176,5.022699,-11.697681
20872,NaN,-15.944148,12.565634,-2.607609,-14.255879,4.544551,4.151892,-0.570666,-1.232600,1.912450,0.668220,0.735141,-0.056883,-0.099066,95.022512,3.993010,-12.506823
20873,NaN,-1.502274,16.955582,1.511167,-1.196410,-2.709737,7.016901,-0.833442,-1.622462,2.797562,0.672103,0.730661,-0.072220,-0.095897,94.487163,2.467838,-13.571596
20874,NaN,22.422914,20.340273,3.790621,20.949849,-10.630853,9.651226,-1.954005,-1.932905,3.739635,0.680142,0.721628,-0.091460,-0.091075,93.337906,0.402939,-14.826649
20875,NaN,23.581039,14.913137,-2.921829,23.267564,-4.080391,5.318350,-1.043670,-0.883273,2.163909,0.684423,0.716632,-0.101849,-0.087359,92.743951,-0.814032,-15.401637
20876,NaN,9.802744,9.264848,-3.313380,9.977446,0.205393,-0.152952,0.271250,-0.004752,2.183712,0.684348,0.716408,-0.109843,-0.079762,92.902997,-2.066380,-15.469610
20877,NaN,-2.984506,8.981220,8.704717,-5.693243,-7.962075,-1.474243,0.846170,0.636331,2.307415,0.682519,0.718235,-0.116326,-0.069094,93.376248,-3.413332,-15.181624
20878,NaN,-5.572290,6.770149,1.320554,-6.266029,-0.071644,-3.539090,-0.266145,0.198290,2.180725,0.684288,0.716090,-0.123422,-0.061092,93.222992,-4.670059,-15.143647
20879,NaN,-1.636586,4.125540,-2.700298,-1.287888,2.919537,-5.713025,-0.518087,-0.691579,1.846471,0.686233,0.712930,-0.132299,-0.057548,92.969374,-5.711513,-15.602246
20880,NaN,2.642427,5.041325,-0.899475,2.174913,0.037431,-4.476575,0.112510,-0.928336,1.627908,0.685641,0.711947,-0.141354,-0.055196,93.098849,-6.617596,-16.189771
20881,NaN,2.721216,9.296305,-3.438377,2.296073,2.342476,-0.071655,0.629717,-0.751289,1.488339,0.683239,0.712819,-0.149458,-0.052302,93.521163,-7.450412,-16.676333
20882,NaN,1.839282,12.379180,-3.139178,0.789442,2.219612,2.873110,0.165645,-1.001834,1.480547,0.682244,0.711994,-0.158235,-0.050690,93.704926,-8.263629,-17.312263
20883,NaN,2.355174,10.799510,-1.275287,0.819099,0.336185,1.278575,-0.053969,-1.019153,1.701500,0.682012,0.710172,-0.167809,-0.048534,93.776089,-9.204619,-17.970154
20884,NaN,4.398376,10.309782,0.039261,2.251298,-1.506752,1.063765,-0.057406,-0.974886,1.655547,0.681752,0.708323,-0.177031,-0.046397,93.851350,-10.116698,-18.603198
20885,NaN,4.497109,10.537534,0.746817,1.901616,-2.195821,1.295007,0.076651,-0.686005,1.494480,0.681180,0.707080,-0.184736,-0.043643,93.982034,-10.950399,-19.065619
20886,NaN,3.449646,9.918344,0.212847,1.057104,-1.328869,0.552326,0.013980,-0.420971,1.472775,0.681026,0.705660,-0.191414,-0.040101,94.052938,-11.778017,-19.375069
20887,NaN,2.383103,9.637635,0.204952,-0.013509,-0.940363,0.072600,0.011920,-0.354753,1.480319,0.680905,0.704192,-0.197904,-0.036279,94.119682,-12.615844,-19.648439
20888,NaN,2.354280,9.449265,0.048912,-0.081927,-0.746418,-0.103499,-0.061850,-0.405756,1.351768,0.680932,0.702558,-0.204068,-0.033166,94.153412,-13.374307,-19.947505
20889,NaN,3.210087,8.690919,-0.644310,0.992951,-0.350898,-0.585455,-0.068543,-0.367571,1.191285,0.680964,0.701034,-0.209551,-0.030450,94.180577,-14.045970,-20.218896
20890,NaN,3.367380,8.861393,-1.028451,1.115718,-0.014797,-0.342984,0.049050,-0.267511,1.122932,0.680654,0.699977,-0.214441,-0.027512,94.262806,-14.679072,-20.429363
20891,NaN,3.343598,9.807301,-0.859036,0.679626,-0.126240,0.561403,0.082096,-0.195997,1.146220,0.680285,0.698988,-0.219188,-0.024188,94.356309,-15.331695,-20.600564
20892,NaN,3.081057,10.455030,-0.954584,0.180223,0.095442,1.126644,0.002419,-0.229818,1.135258,0.680132,0.697717,-0.223973,-0.021126,94.411360,-15.972909,-20.792363
20893,NaN,3.006330,9.954325,-1.309819,0.263946,0.481420,0.653439,-0.164520,-0.234537,1.088912,0.680529,0.695902,-0.228609,-0.018405,94.373522,-16.590793,-20.985935
20894,NaN,2.994353,9.251138,-1.215382,0.334576,0.421881,-0.028203,-0.253440,-0.223948,1.022392,0.681221,0.693845,-0.232941,-0.015994,94.283581,-17.167956,-21.169685
20895,NaN,3.383248,8.824882,-1.022151,0.659503,0.135462,-0.330299,-0.226515,-0.262835,1.002367,0.681751,0.691875,-0.237352,-0.013735,94.217864,-17.735555,-21.375975
20896,NaN,3.270110,9.374814,-0.813095,0.232538,0.041631,0.146496,-0.161284,-0.265952,0.971545,0.682033,0.690150,-0.241644,-0.011533,94.191236,-18.282278,-21.582545
20897,NaN,3.024366,9.589620,-0.558754,-0.226784,-0.062155,0.255272,-0.172178,-0.321041,0.936536,0.682264,0.688403,-0.246017,-0.009635,94.170842,-18.809999,-21.821586
20898,NaN,3.359836,9.611346,-0.433775,-0.066576,-0.257224,0.374724,-0.213427,-0.378928,0.913057,0.682549,0.686529,-0.250478,-0.008086,94.139674,-19.318778,-22.094676
20899,NaN,4.022533,9.475439,-0.674295,0.561203,-0.236344,0.485270,-0.251201,-0.352250,0.881141,0.682976,0.684545,-0.254750,-0.006583,94.083821,-19.813734,-22.351030
20900,NaN,4.044963,9.131813,-0.538979,0.571132,-0.352906,0.166836,-0.225852,-0.278390,0.870883,0.683397,0.682653,-0.258709,-0.004848,94.028651,-20.302930,-22.561883
