// General information: 
//  MT Manager version: 2019.0.1 
//  XDA version: 2019.0.1 build 2740 rev 84096 built on 2019-01-30
// Device information: 
//  DeviceId: 00B43876
//  ProductCode: MTW2-3A7G6
//  Firmware Version: 4.3.4
//  Hardware Version: 1.1.0
// Device settings: 
//  Filter Profile: human(46.1)
//  Option Flags: Orientation Smoother Disabled, AHS Disabled, ICC Disabled
// Coordinate system: ENU
PacketCounter,SampleTimeFine,Acc_X,Acc_Y,Acc_Z,FreeAcc_E,FreeAcc_N,FreeAcc_U,Gyr_X,Gyr_Y,Gyr_Z,Quat_q0,Quat_q1,Quat_q2,Quat_q3,Roll,Pitch,Yaw
17695,NaN,-0.242737,9.668779,-1.852394,0.010202,0.009338,0.034920,0.002545,0.011948,0.005688,0.409105,0.508468,-0.578881,-0.488868,100.797338,1.346654,-98.524322
17696,NaN,-0.229716,9.688063,-1.861228,0.012774,-0.003709,0.055207,0.002892,0.007175,0.006877,0.409109,0.508445,-0.578926,-0.488833,100.800822,1.340882,-98.526523
17697,NaN,-0.227130,9.677250,-1.883243,0.035483,-0.008601,0.048653,0.000526,0.015280,0.005031,0.409148,0.508453,-0.578935,-0.488782,100.802918,1.335390,-98.521975
17698,NaN,-0.230096,9.698810,-1.839835,-0.010674,0.001880,0.061761,0.003718,0.013803,0.002525,0.409167,0.508467,-0.578952,-0.488731,100.806854,1.331152,-98.518461
17699,NaN,-0.227657,9.687984,-1.861897,0.012035,-0.003014,0.055208,0.000525,0.015282,0.005029,0.409205,0.508474,-0.578961,-0.488681,100.808948,1.325661,-98.513912
17700,NaN,-0.251654,9.719872,-1.825264,-0.026379,0.027260,0.080208,0.002393,0.007585,0.004248,0.409214,0.508473,-0.578988,-0.488643,100.812388,1.321481,-98.513209
17701,NaN,-0.238467,9.668607,-1.853842,0.008642,0.010697,0.034920,0.003702,0.014654,0.007449,0.409249,0.508478,-0.579012,-0.488579,100.816288,1.314695,-98.509275
17702,NaN,-0.227259,9.698696,-1.840790,-0.011821,0.002752,0.061760,0.000374,0.010918,0.003590,0.409266,0.508477,-0.579032,-0.488543,100.818772,1.310508,-98.507811
17703,NaN,-0.210722,9.696379,-1.893233,0.036673,-0.020544,0.068949,0.004561,0.008623,0.006340,0.409277,0.508473,-0.579068,-0.488495,100.823089,1.304994,-98.507154
17704,NaN,-0.225894,9.698612,-1.841401,-0.012292,0.003247,0.061759,0.002121,0.014547,0.003773,0.409305,0.508479,-0.579084,-0.488447,100.826005,1.299899,-98.503871
17705,NaN,-0.246286,9.708913,-1.848415,-0.004723,0.023299,0.073653,0.000449,0.013103,0.004306,0.409335,0.508483,-0.579096,-0.488403,100.828028,1.295047,-98.500473
17706,NaN,-0.243792,9.698114,-1.870322,0.018021,0.018423,0.067104,0.000795,0.008328,0.005497,0.409354,0.508469,-0.579123,-0.488370,100.830002,1.289837,-98.500243
17707,NaN,-0.209836,9.707091,-1.872164,0.012780,-0.014479,0.075501,0.002120,0.014549,0.003771,0.409383,0.508482,-0.579134,-0.488319,100.833001,1.285131,-98.495974
17708,NaN,-0.223226,9.698541,-1.842100,-0.013234,0.004178,0.061758,0.003203,0.015068,0.004816,0.409414,0.508492,-0.579151,-0.488262,100.836577,1.279544,-98.491845
17709,NaN,-0.234852,9.679173,-1.833945,-0.016303,0.017672,0.041466,0.004063,0.009034,0.003711,0.409422,0.508496,-0.579178,-0.488220,100.840619,1.275465,-98.490675
17710,NaN,-0.221964,9.698365,-1.843176,-0.013705,0.004637,0.061757,0.009919,0.008183,0.005929,0.409417,0.508499,-0.579230,-0.488160,100.847881,1.270040,-98.490756
17711,NaN,-0.186500,9.696421,-1.867360,0.003998,-0.033390,0.063611,0.004052,0.020851,-0.004467,0.409439,0.508555,-0.579212,-0.488104,100.852083,1.269288,-98.482053
17712,NaN,-0.198696,9.676966,-1.859601,0.000932,-0.019859,0.043319,0.011263,0.013557,-0.000725,0.409433,0.508597,-0.579236,-0.488037,100.860337,1.266994,-98.477690
17713,NaN,-0.242591,9.708245,-1.852408,-0.006623,0.025155,0.073647,0.005648,0.020114,-0.005721,0.409446,0.508658,-0.579220,-0.487981,100.865448,1.267026,-98.469267
17714,NaN,-0.221881,9.697788,-1.846222,-0.014681,0.005587,0.061755,0.007834,0.020302,-0.008554,0.409447,0.508728,-0.579205,-0.487925,100.871780,1.268327,-98.460954
17715,NaN,-0.199446,9.676498,-1.861956,0.000198,-0.019168,0.043321,0.008180,0.015525,-0.007360,0.409436,0.508787,-0.579201,-0.487877,100.878288,1.269775,-98.454936
17716,NaN,-0.229657,9.716270,-1.885058,0.018365,0.007467,0.087398,0.007170,0.017194,-0.007693,0.409429,0.508849,-0.579194,-0.487827,100.884553,1.271095,-98.448355
17717,NaN,-0.212762,9.656834,-1.855159,-0.003161,-0.005433,0.023027,0.011963,0.014976,-0.011444,0.409397,0.508926,-0.579189,-0.487778,100.893233,1.274899,-98.442204
17718,NaN,-0.201314,9.675949,-1.864606,-0.000582,-0.018465,0.043322,0.006254,0.020198,-0.012238,0.409390,0.509002,-0.579163,-0.487737,100.898626,1.278383,-98.433988
17719,NaN,-0.231798,9.715686,-1.887805,0.017638,0.008138,0.087399,0.010437,0.017906,-0.009483,0.409376,0.509078,-0.579154,-0.487680,100.906464,1.280764,-98.426400
17720,NaN,-0.225414,9.696736,-1.851309,-0.016156,0.006988,0.061752,0.004138,0.022201,-0.008696,0.409394,0.509148,-0.579122,-0.487629,100.910523,1.281910,-98.416404
17721,NaN,-0.211755,9.705085,-1.882321,0.009353,-0.011219,0.075510,0.009112,0.011683,-0.007752,0.409369,0.509201,-0.579127,-0.487589,100.917520,1.283990,-98.412505
17722,NaN,-0.224473,9.685628,-1.874497,0.006337,0.002298,0.055213,0.004833,0.012643,-0.006301,0.409361,0.509240,-0.579126,-0.487558,100.921883,1.284954,-98.408758
17723,NaN,-0.222974,9.674693,-1.896831,0.029041,-0.002638,0.048677,0.005494,0.015758,-0.007169,0.409358,0.509294,-0.579115,-0.487516,100.926856,1.286264,-98.402629
17724,NaN,-0.237509,9.666083,-1.867082,0.003049,0.016022,0.034916,0.005842,0.010978,-0.005970,0.409345,0.509334,-0.579117,-0.487483,100.931931,1.287275,-98.399193
17725,NaN,-0.223645,9.674470,-1.897887,0.028554,-0.002192,0.048679,0.003582,0.008604,-0.003853,0.409334,0.509357,-0.579125,-0.487458,100.935711,1.287495,-98.397450
17726,NaN,-0.248693,9.706312,-1.861707,-0.009695,0.028215,0.073637,0.005913,0.013167,-0.005257,0.409327,0.509392,-0.579130,-0.487422,100.940555,1.287623,-98.394008
17727,NaN,-0.226024,9.685099,-1.877044,0.005171,0.003442,0.055214,0.003232,0.013387,-0.005056,0.409328,0.509430,-0.579123,-0.487389,100.944198,1.287999,-98.389443
17728,NaN,-0.205335,9.674756,-1.870350,-0.002916,-0.016150,0.043326,0.001418,0.007565,-0.005949,0.409318,0.509454,-0.579120,-0.487375,100.946746,1.289358,-98.387472
17729,NaN,-0.224848,9.674167,-1.899287,0.027627,-0.001265,0.048682,0.002150,0.012868,-0.006105,0.409318,0.509492,-0.579110,-0.487349,100.949764,1.290381,-98.383085
17730,NaN,-0.227089,9.684948,-1.877690,0.004418,0.004158,0.055214,0.001489,0.009754,-0.005236,0.409312,0.509515,-0.579110,-0.487330,100.952457,1.290965,-98.380926
17731,NaN,-0.216663,9.644497,-1.884120,0.016487,-0.007349,0.016496,0.000239,0.005711,-0.002785,0.409305,0.509521,-0.579118,-0.487320,100.954282,1.290899,-98.380928
17732,NaN,-0.192420,9.683109,-1.901219,0.021869,-0.033647,0.057097,0.000758,0.004451,-0.005081,0.409286,0.509527,-0.579126,-0.487320,100.956136,1.292011,-98.381986
17733,NaN,-0.205091,9.663806,-1.892593,0.018829,-0.020164,0.036798,-0.003284,0.011120,-0.006418,0.409294,0.509549,-0.579105,-0.487314,100.956020,1.293399,-98.378548
17734,NaN,-0.226512,9.674133,-1.899264,0.026385,-0.000102,0.048685,-0.002934,0.006338,-0.005215,0.409289,0.509558,-0.579100,-0.487316,100.956289,1.294546,-98.378062
17735,NaN,-0.228678,9.685018,-1.877137,0.003186,0.005277,0.055214,-0.004112,0.004482,-0.002050,0.409291,0.509550,-0.579102,-0.487320,100.955603,1.294200,-98.378836
17736,NaN,-0.239373,9.725480,-1.870609,-0.009407,0.017246,0.093929,-0.000280,0.006971,-0.000490,0.409294,0.509552,-0.579113,-0.487303,100.957323,1.292559,-98.378340
17737,NaN,-0.249597,9.695398,-1.883587,0.010511,0.025560,0.067099,-0.006301,0.004292,0.000780,0.409307,0.509531,-0.579117,-0.487309,100.955374,1.290642,-98.379528
17738,NaN,-0.230349,9.696028,-1.854409,-0.020515,0.011140,0.061740,-0.002610,0.002406,0.000914,0.409307,0.509512,-0.579134,-0.487308,100.955416,1.288702,-98.381733
17739,NaN,-0.201835,9.713085,-1.914700,0.030698,-0.025536,0.089294,-0.004281,0.000958,0.001449,0.409308,0.509485,-0.579152,-0.487315,100.954581,1.286771,-98.384871
17740,NaN,-0.215749,9.704665,-1.884035,0.004729,-0.006817,0.075517,-0.003129,0.003666,0.003210,0.409315,0.509456,-0.579176,-0.487310,100.954420,1.283196,-98.387567
17741,NaN,-0.213831,9.693907,-1.905504,0.027429,-0.011782,0.068993,-0.003944,0.008007,-0.005550,0.409318,0.509467,-0.579162,-0.487312,100.953884,1.284434,-98.385976
17742,NaN,-0.261580,9.676405,-1.873435,0.006546,0.040002,0.046793,-0.000771,0.007380,-0.003120,0.409313,0.509470,-0.579169,-0.487305,100.955091,1.284210,-98.386085
17743,NaN,-0.198898,9.716123,-1.832944,-0.049757,-0.015616,0.076679,0.000731,0.005304,-0.000156,0.409310,0.509468,-0.579185,-0.487290,100.957186,1.282709,-98.386603
17744,NaN,-0.207258,9.675188,-1.867901,-0.006844,-0.012448,0.043329,-0.003691,0.001887,-0.000135,0.409309,0.509447,-0.579199,-0.487296,100.956515,1.281254,-98.389105
17745,NaN,-0.226453,9.674700,-1.896379,0.023712,0.002407,0.048692,-0.002162,-0.001040,-0.002096,0.409290,0.509430,-0.579217,-0.487309,100.956878,1.281535,-98.392981
17746,NaN,-0.203573,9.653630,-1.911061,0.038526,-0.022370,0.030288,-0.001291,0.008640,-0.000825,0.409299,0.509435,-0.579221,-0.487291,100.958045,1.279927,-98.391441
17747,NaN,-0.228398,9.685595,-1.874191,0.000238,0.008042,0.055212,-0.003692,0.001887,-0.000135,0.409297,0.509417,-0.579234,-0.487297,100.957563,1.278786,-98.393884
17748,NaN,-0.212387,9.683315,-1.926096,0.048611,-0.015383,0.062481,-0.000491,0.000409,-0.002630,0.409275,0.509408,-0.579253,-0.487302,100.959159,1.279194,-98.396995
17749,NaN,-0.195282,9.694727,-1.875243,-0.005394,-0.024617,0.063636,-0.005642,0.007410,-0.000091,0.409293,0.509399,-0.579250,-0.487300,100.957629,1.277427,-98.396335
17750,NaN,-0.228709,9.685734,-1.873433,-0.000536,0.008710,0.055212,-0.000252,0.006123,-0.005417,0.409279,0.509408,-0.579253,-0.487298,100.959123,1.278666,-98.396564
17751,NaN,-0.193985,9.683968,-1.896678,0.017066,-0.029364,0.057120,-0.001712,-0.004487,-0.005105,0.409241,0.509392,-0.579271,-0.487325,100.959707,1.281014,-98.402052
17752,NaN,-0.225763,9.664121,-1.916820,0.044840,-0.001217,0.042179,-0.000842,0.005194,-0.003834,0.409233,0.509398,-0.579276,-0.487320,100.961075,1.281389,-98.402127
17753,NaN,-0.194807,9.683994,-1.896460,0.016541,-0.028901,0.057122,-0.001333,0.005603,-0.006465,0.409220,0.509412,-0.579271,-0.487323,100.962007,1.283404,-98.401789
17754,NaN,-0.195438,9.684025,-1.896236,0.016286,-0.028648,0.057124,-0.003495,0.004563,-0.008562,0.409204,0.509422,-0.579260,-0.487339,100.961752,1.286477,-98.402195
17755,NaN,-0.208453,9.664722,-1.887539,0.013277,-0.015170,0.036816,-0.000814,0.004345,-0.008762,0.409180,0.509440,-0.579253,-0.487348,100.962971,1.289921,-98.402315
17756,NaN,-0.234192,9.696623,-1.850815,-0.025005,0.015315,0.061724,-0.001236,0.006943,-0.010680,0.409161,0.509468,-0.579237,-0.487355,100.964060,1.293912,-98.400800
17757,NaN,-0.268231,9.687574,-1.849136,-0.020141,0.048619,0.053293,-0.002063,0.000299,-0.006311,0.409135,0.509466,-0.579241,-0.487373,100.964506,1.296417,-98.403464
17758,NaN,-0.219413,9.694387,-1.902422,0.023165,-0.007897,0.069008,-0.005096,0.005303,-0.007316,0.409130,0.509472,-0.579226,-0.487389,100.963207,1.298725,-98.403269
17759,NaN,-0.221955,9.705306,-1.880007,-0.000031,-0.002478,0.075520,-0.007778,0.005522,-0.007118,0.409131,0.509474,-0.579204,-0.487412,100.960448,1.301115,-98.402907
17760,NaN,-0.232657,9.675271,-1.892713,0.019891,0.005840,0.048699,-0.004842,-0.000822,-0.001899,0.409117,0.509447,-0.579220,-0.487433,100.959451,1.300993,-98.407380
17761,NaN,-0.230977,9.664551,-1.914029,0.042589,0.000841,0.042189,-0.005264,0.001777,-0.003816,0.409110,0.509436,-0.579220,-0.487451,100.958075,1.301934,-98.409485
17762,NaN,-0.221062,9.694813,-1.900061,0.022151,-0.006942,0.069011,-0.008368,0.004593,-0.005536,0.409111,0.509423,-0.579208,-0.487477,100.954976,1.303194,-98.410835
17763,NaN,-0.212805,9.665323,-1.883977,0.011280,-0.013289,0.036821,-0.004744,0.000519,-0.006113,0.409093,0.509416,-0.579206,-0.487502,100.953888,1.305564,-98.413398
17764,NaN,-0.222015,9.695060,-1.898689,0.021670,-0.006483,0.069012,-0.010627,0.002214,-0.003420,0.409102,0.509392,-0.579194,-0.487534,100.949373,1.306021,-98.415381
17765,NaN,-0.232740,9.665099,-1.911047,0.041621,0.001774,0.042193,-0.009449,0.004075,-0.006586,0.409105,0.509385,-0.579172,-0.487564,100.945636,1.308269,-98.415892
17766,NaN,-0.214247,9.665739,-1.881675,0.010525,-0.012599,0.036823,-0.003075,0.001970,-0.006648,0.409084,0.509386,-0.579172,-0.487581,100.945689,1.310687,-98.417797
17767,NaN,-0.213011,9.655039,-1.902896,0.033222,-0.017607,0.030317,-0.009282,0.007605,-0.010087,0.409088,0.509398,-0.579134,-0.487610,100.942101,1.314520,-98.415941
17768,NaN,-0.226546,9.706340,-1.874113,-0.002303,-0.000354,0.075520,-0.003566,0.002382,-0.009280,0.409063,0.509403,-0.579128,-0.487634,100.941785,1.318253,-98.417816
17769,NaN,-0.225376,9.695615,-1.895458,0.020393,-0.005364,0.069016,-0.006179,0.004789,-0.008369,0.409055,0.509410,-0.579108,-0.487657,100.939935,1.321426,-98.417732
17770,NaN,-0.217313,9.666126,-1.879333,0.009551,-0.011691,0.036825,-0.008203,0.008127,-0.009040,0.409059,0.509419,-0.579077,-0.487681,100.936838,1.324469,-98.416267
17771,NaN,-0.241041,9.687285,-1.863846,-0.005759,0.013570,0.055205,-0.005522,0.007909,-0.009238,0.409057,0.509438,-0.579050,-0.487695,100.935407,1.327792,-98.414332
17772,NaN,-0.227690,9.695942,-1.893505,0.019697,-0.004673,0.069018,-0.007683,0.006871,-0.011338,0.409052,0.509453,-0.579016,-0.487724,100.932619,1.332201,-98.413014
17773,NaN,-0.261605,9.686994,-1.891167,0.024598,0.028620,0.060578,-0.009972,0.005335,-0.004294,0.409066,0.509442,-0.578996,-0.487748,100.928593,1.333023,-98.413066
17774,NaN,-0.240901,9.676901,-1.883326,0.016473,0.009032,0.048702,-0.008302,0.006786,-0.004828,0.409078,0.509438,-0.578977,-0.487765,100.925524,1.333861,-98.412349
17775,NaN,-0.243189,9.687863,-1.860560,-0.006717,0.014478,0.055203,-0.011642,0.003885,-0.003763,0.409093,0.509418,-0.578957,-0.487796,100.920521,1.334541,-98.413275
17776,NaN,-0.231307,9.707401,-1.868025,-0.004210,0.001495,0.075519,-0.009028,0.001480,-0.004675,0.409088,0.509392,-0.578953,-0.487832,100.916895,1.335620,-98.416822
17777,NaN,-0.229636,9.696795,-1.888897,0.018485,-0.003529,0.069020,-0.010562,0.004405,-0.002714,0.409104,0.509372,-0.578938,-0.487857,100.912515,1.335653,-98.417569
17778,NaN,-0.221092,9.667360,-1.872535,0.007646,-0.009828,0.036828,-0.008960,0.003669,-0.003961,0.409110,0.509352,-0.578929,-0.487884,100.908935,1.336169,-98.419454
17779,NaN,-0.223318,9.678329,-1.849688,-0.015544,-0.004374,0.043326,-0.012588,0.007744,-0.003386,0.409139,0.509339,-0.578900,-0.487908,100.903439,1.336218,-98.418250
17780,NaN,-0.221520,9.667745,-1.870495,0.007160,-0.009397,0.036829,-0.008537,0.001068,-0.002044,0.409140,0.509310,-0.578901,-0.487936,100.900119,1.336194,-98.421532
17781,NaN,-0.209664,9.687259,-1.878113,0.009635,-0.022442,0.057148,-0.008795,0.007204,-0.007463,0.409148,0.509315,-0.578872,-0.487958,100.896800,1.338595,-98.420189
17782,NaN,-0.212235,9.698187,-1.855408,-0.013567,-0.016955,0.063645,-0.009808,0.008874,-0.007799,0.409159,0.509318,-0.578841,-0.487982,100.893005,1.340857,-98.418762
17783,NaN,-0.244357,9.678473,-1.874781,0.014301,0.011087,0.048704,-0.010790,0.009703,-0.013067,0.409166,0.509341,-0.578788,-0.488016,100.888590,1.346141,-98.415407
17784,NaN,-0.234863,9.708761,-1.860499,-0.006182,0.003330,0.075518,-0.008016,-0.000186,-0.004344,0.409157,0.509318,-0.578787,-0.488049,100.885715,1.347382,-98.419135
17785,NaN,-0.235494,9.708887,-1.859762,-0.006430,0.003544,0.075518,-0.007261,0.004283,-0.009427,0.409148,0.509324,-0.578763,-0.488078,100.883241,1.351205,-98.419225
17786,NaN,-0.234215,9.698246,-1.880868,0.016228,-0.001484,0.069025,-0.007784,0.005538,-0.007130,0.409147,0.509325,-0.578744,-0.488102,100.880686,1.353570,-98.419275
17787,NaN,-0.232809,9.687608,-1.901998,0.038921,-0.006525,0.062533,-0.006771,0.003869,-0.006795,0.409142,0.509324,-0.578728,-0.488125,100.878481,1.355957,-98.419883
17788,NaN,-0.261901,9.670505,-1.840737,-0.012656,0.030740,0.034874,-0.008864,0.005021,-0.008183,0.409142,0.509325,-0.578703,-0.488153,100.875242,1.358850,-98.419622
17789,NaN,-0.212821,9.677615,-1.893613,0.030503,-0.025889,0.050664,-0.005133,0.006161,-0.002395,0.409150,0.509321,-0.578698,-0.488157,100.873994,1.358514,-98.419417
17790,NaN,-0.238068,9.709512,-1.856166,-0.007711,0.004679,0.075516,-0.010990,0.007013,-0.004640,0.409170,0.509309,-0.578673,-0.488182,100.869337,1.359212,-98.418927
17791,NaN,-0.250743,9.690337,-1.846622,-0.010667,0.018149,0.055193,-0.012494,0.009099,-0.007610,0.409192,0.509312,-0.578631,-0.488211,100.863924,1.361492,-98.416504
17792,NaN,-0.236965,9.699117,-1.876025,0.014730,-0.000145,0.069027,-0.005267,0.001786,-0.003827,0.409184,0.509299,-0.578632,-0.488230,100.862576,1.362387,-98.418879
17793,NaN,-0.237236,9.699233,-1.875395,0.014482,0.000069,0.069028,-0.007883,0.004192,-0.002918,0.409192,0.509285,-0.578623,-0.488248,100.859727,1.362557,-98.419725
17794,NaN,-0.251621,9.690755,-1.844304,-0.011436,0.018852,0.055191,-0.009845,0.009721,-0.002874,0.409217,0.509275,-0.578605,-0.488259,100.856022,1.361843,-98.418500
17795,NaN,-0.239544,9.710295,-1.851877,-0.008980,0.005813,0.075515,-0.007884,0.004193,-0.002919,0.409225,0.509261,-0.578596,-0.488277,100.853173,1.362013,-98.419346
17796,NaN,-0.216751,9.689474,-1.865843,0.005853,-0.019019,0.057159,-0.010633,0.002224,-0.003441,0.409233,0.509233,-0.578585,-0.488312,100.848475,1.362434,-98.421837
17797,NaN,-0.214800,9.678934,-1.886638,0.028543,-0.024076,0.050674,-0.011024,0.007854,0.000288,0.409268,0.509213,-0.578569,-0.488323,100.843867,1.360404,-98.420968
17798,NaN,-0.237805,9.700099,-1.870835,0.013251,0.001233,0.069029,-0.008832,0.008053,-0.002540,0.409291,0.509206,-0.578551,-0.488333,100.840615,1.359904,-98.419627
17799,NaN,-0.247980,9.670133,-1.883463,0.033244,0.009425,0.042221,-0.007983,0.002844,0.001296,0.409306,0.509177,-0.578555,-0.488346,100.837681,1.357847,-98.421686
17800,NaN,-0.237868,9.700362,-1.869466,0.012776,0.001672,0.069030,-0.003956,0.008034,-0.005561,0.409309,0.509187,-0.578542,-0.488349,100.837028,1.359009,-98.420208
17801,NaN,-0.273321,9.702058,-1.845623,-0.005192,0.040229,0.067055,-0.008408,0.005449,-0.000623,0.409328,0.509168,-0.578535,-0.488361,100.833890,1.357751,-98.420593
17802,NaN,-0.216968,9.690390,-1.861056,0.004383,-0.017687,0.057162,-0.009422,0.007121,-0.000960,0.409350,0.509147,-0.578525,-0.488375,100.830127,1.356337,-98.420885
17803,NaN,-0.216996,9.690547,-1.860235,0.004134,-0.017473,0.057162,-0.007819,0.006385,-0.002206,0.409366,0.509137,-0.578514,-0.488386,100.827343,1.355869,-98.420574
17804,NaN,-0.215194,9.679963,-1.881306,0.026747,-0.022527,0.050683,-0.008309,0.006803,-0.004841,0.409374,0.509132,-0.578499,-0.488402,100.824738,1.356821,-98.420452
17805,NaN,-0.231586,9.682121,-1.828707,-0.022066,0.001506,0.043315,-0.002977,0.007201,-0.000293,0.409384,0.509128,-0.578502,-0.488393,100.824734,1.355189,-98.419887
17806,NaN,-0.226241,9.720532,-1.873739,0.013863,-0.010232,0.089360,-0.008964,0.003681,-0.003976,0.409389,0.509113,-0.578492,-0.488417,100.821593,1.355928,-98.421296
17807,NaN,-0.238816,9.701301,-1.864465,0.010927,0.003233,0.069032,-0.009683,0.013271,-0.006380,0.409419,0.509128,-0.578451,-0.488425,100.817844,1.357069,-98.416660
17808,NaN,-0.251336,9.682085,-1.855109,0.008005,0.016710,0.048703,-0.010928,0.009213,-0.003935,0.409449,0.509124,-0.578421,-0.488440,100.813269,1.357192,-98.414377
17809,NaN,-0.225246,9.710322,-1.892824,0.036063,-0.014868,0.082885,-0.007785,0.005554,-0.007142,0.409450,0.509126,-0.578399,-0.488463,100.810506,1.359592,-98.414003
17810,NaN,-0.195877,9.670622,-1.869476,0.017306,-0.040990,0.038823,-0.013382,0.015165,-0.006528,0.409495,0.509134,-0.578347,-0.488478,100.804591,1.360384,-98.408699
17811,NaN,-0.236306,9.680632,-1.904020,0.055838,-0.006449,0.056082,-0.013447,0.012978,-0.007247,0.409532,0.509143,-0.578296,-0.488498,100.798684,1.362046,-98.404135
17812,NaN,-0.243065,9.712989,-1.837232,-0.013217,0.009687,0.075507,-0.012988,0.009539,-0.010263,0.409549,0.509150,-0.578248,-0.488534,100.793023,1.365561,-98.401766
17813,NaN,-0.208595,9.711655,-1.859253,0.004225,-0.028454,0.077498,-0.012334,0.012665,-0.011129,0.409573,0.509171,-0.578190,-0.488560,100.787760,1.369442,-98.396962
17814,NaN,-0.265780,9.723624,-1.841898,-0.005775,0.029954,0.087371,-0.011320,0.010995,-0.010794,0.409594,0.509192,-0.578136,-0.488584,100.783009,1.373161,-98.392516
17815,NaN,-0.220331,9.681919,-1.870614,0.023998,-0.020051,0.050695,-0.009816,0.008904,-0.007822,0.409609,0.509200,-0.578100,-0.488606,100.779129,1.375584,-98.390184
17816,NaN,-0.258332,9.694321,-1.824532,-0.016850,0.023855,0.055173,-0.011549,0.005263,-0.008013,0.409616,0.509192,-0.578070,-0.488644,100.774120,1.378317,-98.390509
17817,NaN,-0.256833,9.683824,-1.845253,0.005840,0.018767,0.048701,-0.012076,0.006516,-0.005715,0.409635,0.509183,-0.578039,-0.488674,100.768908,1.379811,-98.389749
17818,NaN,-0.234296,9.663088,-1.859033,0.020627,-0.006093,0.030366,-0.010535,0.003593,-0.007677,0.409637,0.509174,-0.578014,-0.488711,100.764422,1.382466,-98.390613
17819,NaN,-0.234850,9.663291,-1.857905,0.020380,-0.005880,0.030366,-0.013092,0.008190,-0.006054,0.409662,0.509168,-0.577976,-0.488741,100.758651,1.383971,-98.388874
17820,NaN,-0.260142,9.695134,-1.819947,-0.017851,0.024791,0.055168,-0.013066,0.011209,-0.000403,0.409705,0.509149,-0.577953,-0.488753,100.753212,1.381834,-98.387107
17821,NaN,-0.258019,9.684669,-1.840646,0.004838,0.019696,0.048699,-0.011162,0.003488,-0.001164,0.409724,0.509122,-0.577942,-0.488779,100.748471,1.381090,-98.388538
17822,NaN,-0.236900,9.674659,-1.832477,-0.003335,0.000105,0.036836,-0.013358,0.003286,0.001660,0.409754,0.509080,-0.577934,-0.488806,100.742423,1.378763,-98.390544
17823,NaN,-0.236837,9.674843,-1.831511,-0.003582,0.000320,0.036836,-0.006809,0.004723,-0.001879,0.409764,0.509067,-0.577929,-0.488818,100.740194,1.378289,-98.391204
17824,NaN,-0.257763,9.685241,-1.837671,0.004124,0.020384,0.048698,-0.010611,0.005256,0.002188,0.409794,0.509032,-0.577927,-0.488831,100.735723,1.375214,-98.392463
17825,NaN,-0.245367,9.704850,-1.845045,0.006539,0.007354,0.069033,-0.009431,0.007132,-0.000974,0.409819,0.509017,-0.577913,-0.488842,100.732023,1.373973,-98.391863
17826,NaN,-0.211871,9.714237,-1.845346,0.000952,-0.025459,0.077507,-0.012217,0.005992,0.003430,0.409855,0.508977,-0.577911,-0.488856,100.727078,1.370292,-98.393105
17827,NaN,-0.242680,9.694599,-1.864778,0.028916,0.002488,0.062570,-0.010611,0.005258,0.002186,0.409886,0.508946,-0.577906,-0.488869,100.722668,1.367471,-98.393898
17828,NaN,-0.221464,9.684571,-1.856700,0.020678,-0.017095,0.050708,-0.012116,0.007354,-0.000788,0.409917,0.508925,-0.577888,-0.488886,100.717731,1.366087,-98.393312
17829,NaN,-0.223312,9.695451,-1.833744,-0.002503,-0.011557,0.057172,-0.010911,0.012247,0.001703,0.409968,0.508912,-0.577866,-0.488882,100.713245,1.362794,-98.390116
17830,NaN,-0.233320,9.665559,-1.846265,0.017493,-0.003411,0.030373,-0.010872,0.011421,-0.003233,0.409998,0.508905,-0.577841,-0.488894,100.708987,1.362330,-98.388007
17831,NaN,-0.254425,9.676009,-1.852164,0.025189,0.016609,0.042235,-0.012180,0.005168,-0.001509,0.410023,0.508881,-0.577823,-0.488919,100.703687,1.361599,-98.388455
17832,NaN,-0.265120,9.716545,-1.844562,0.012576,0.028729,0.080894,-0.009535,0.005775,0.003239,0.410052,0.508847,-0.577826,-0.488927,100.700080,1.358071,-98.389775
17833,NaN,-0.280968,9.718628,-1.791542,-0.036186,0.052850,0.073474,-0.011078,0.008700,0.005199,0.410101,0.508814,-0.577821,-0.488926,100.695442,1.353188,-98.388948
17834,NaN,-0.221874,9.696488,-1.828426,-0.003845,-0.010445,0.057172,-0.013103,-0.002869,0.007065,0.410122,0.508741,-0.577843,-0.488958,100.689698,1.348490,-98.395520
17835,NaN,-0.223414,9.707356,-1.805474,-0.027026,-0.004894,0.063630,-0.009173,0.000976,0.004437,0.410143,0.508695,-0.577856,-0.488973,100.686050,1.344857,-98.398962
17836,NaN,-0.220859,9.696886,-1.826437,-0.004357,-0.009995,0.057173,-0.009833,0.012768,0.002756,0.410193,0.508680,-0.577841,-0.488964,100.682284,1.340830,-98.395967
17837,NaN,-0.218192,9.686412,-1.847460,0.018327,-0.015116,0.050716,-0.008032,0.003680,0.006210,0.410222,0.508638,-0.577856,-0.488965,100.679322,1.335911,-98.398074
17838,NaN,-0.236723,9.686189,-1.875498,0.048924,-0.000399,0.056121,-0.009369,0.009331,-0.000262,0.410252,0.508623,-0.577845,-0.488970,100.675919,1.333848,-98.396983
17839,NaN,-0.238806,9.696967,-1.852929,0.025745,0.005155,0.062577,-0.005502,0.010987,-0.003607,0.410272,0.508633,-0.577826,-0.488965,100.674527,1.333681,-98.393932
17840,NaN,-0.217772,9.686870,-1.845106,0.017544,-0.014391,0.050719,-0.012055,0.009554,-0.000078,0.410312,0.508612,-0.577806,-0.488976,100.669398,1.331432,-98.392615
17841,NaN,-0.229783,9.667623,-1.835871,0.014656,-0.000935,0.030378,-0.007930,0.005044,0.001992,0.410335,0.508586,-0.577808,-0.488982,100.666523,1.328743,-98.393505
17842,NaN,-0.250577,9.678056,-1.841966,0.022313,0.019113,0.042237,-0.011040,0.007880,0.000258,0.410363,0.508559,-0.577800,-0.488996,100.662225,1.326598,-98.394005
17843,NaN,-0.217200,9.687429,-1.842239,0.016747,-0.013715,0.050721,-0.010087,0.004017,-0.000123,0.410383,0.508532,-0.577793,-0.489016,100.658107,1.325208,-98.395249
17844,NaN,-0.229336,9.668172,-1.833036,0.013856,-0.000227,0.030380,-0.009370,0.009335,-0.000265,0.410412,0.508514,-0.577782,-0.489022,100.654540,1.323148,-98.394579
17845,NaN,-0.231137,9.678986,-1.810226,-0.009321,0.005340,0.036830,-0.010192,0.002654,0.004092,0.410439,0.508471,-0.577789,-0.489037,100.650333,1.319529,-98.397037
17846,NaN,-0.216650,9.687919,-1.839725,0.016009,-0.013025,0.050723,-0.003471,0.007641,-0.002932,0.410444,0.508471,-0.577786,-0.489036,100.649972,1.319263,-98.396572
17847,NaN,-0.193418,9.667109,-1.854201,0.030731,-0.037966,0.032418,-0.005183,0.007012,0.002525,0.410467,0.508454,-0.577792,-0.489028,100.648696,1.316065,-98.396409
17848,NaN,-0.218578,9.698731,-1.816892,-0.007523,-0.007221,0.057173,-0.006581,0.010479,-0.004666,0.410480,0.508463,-0.577774,-0.489029,100.647301,1.316547,-98.394126
17849,NaN,-0.239677,9.709081,-1.823403,0.000190,0.012797,0.069030,-0.004000,0.008892,-0.000635,0.410498,0.508462,-0.577771,-0.489019,100.646734,1.314929,-98.392570
17850,NaN,-0.225277,9.717912,-1.853461,0.025489,-0.005574,0.082928,0.001663,0.016380,-0.003061,0.410513,0.508493,-0.577764,-0.488981,100.649567,1.313829,-98.387453
17851,NaN,-0.239601,9.709101,-1.823307,-0.000313,0.013241,0.069029,-0.002693,0.015151,-0.002357,0.410541,0.508515,-0.577747,-0.488956,100.649834,1.312518,-98.382189
17852,NaN,-0.220712,9.709460,-1.794459,-0.031491,-0.000951,0.063618,0.002978,0.007711,-0.002243,0.410527,0.508524,-0.577766,-0.488935,100.653492,1.311813,-98.382489
17853,NaN,-0.206247,9.718265,-1.824657,-0.006190,-0.019336,0.077519,-0.002207,0.014726,0.000278,0.410559,0.508538,-0.577758,-0.488903,100.654026,1.309062,-98.377744
17854,NaN,-0.251441,9.689665,-1.815084,-0.003710,0.027186,0.048682,0.000186,0.006569,0.002155,0.410568,0.508533,-0.577776,-0.488880,100.655835,1.305937,-98.377477
17855,NaN,-0.236834,9.698513,-1.845076,0.021590,0.008798,0.062585,-0.003278,-0.000717,0.001762,0.410562,0.508503,-0.577800,-0.488888,100.655553,1.303987,-98.381588
17856,NaN,-0.198948,9.686525,-1.889692,0.061828,-0.034736,0.058192,-0.004699,0.006589,0.005157,0.410587,0.508477,-0.577816,-0.488873,100.654673,1.299207,-98.382174
17857,NaN,-0.227108,9.669052,-1.828662,0.010490,0.002693,0.030383,-0.011511,0.011328,0.003264,0.410641,0.508456,-0.577800,-0.488871,100.649824,1.295136,-98.379660
17858,NaN,-0.233401,9.688328,-1.864835,0.043692,0.004100,0.056145,-0.009011,0.004536,0.000925,0.410658,0.508428,-0.577801,-0.488884,100.646696,1.293140,-98.381296
17859,NaN,-0.216361,9.699456,-1.813285,-0.010383,-0.004734,0.057172,-0.007217,0.010369,0.001841,0.410694,0.508417,-0.577793,-0.488875,100.644298,1.289972,-98.379171
17860,NaN,-0.237070,9.709830,-1.819752,-0.002682,0.015308,0.069026,-0.004594,0.007957,0.000940,0.410711,0.508404,-0.577799,-0.488867,100.643528,1.287436,-98.379050
17861,NaN,-0.201489,9.708492,-1.842340,0.014633,-0.022886,0.071082,-0.006326,0.004314,0.000742,0.410724,0.508383,-0.577802,-0.488873,100.641568,1.285527,-98.380219
17862,NaN,-0.234491,9.699443,-1.840479,0.019731,0.010371,0.062587,-0.007218,0.010371,0.001839,0.410757,0.508369,-0.577798,-0.488865,100.639285,1.282319,-98.378670
17863,NaN,-0.271552,9.711566,-1.795188,-0.021002,0.054383,0.066966,0.000309,0.010951,0.003593,0.410780,0.508370,-0.577811,-0.488829,100.641203,1.278103,-98.376403
17864,NaN,-0.199037,9.768476,-1.842913,0.004083,-0.023509,0.130074,-0.002263,-0.002393,0.002099,0.410761,0.508332,-0.577848,-0.488840,100.641726,1.276134,-98.382608
17865,NaN,-0.210366,9.678700,-1.854734,0.033894,-0.014157,0.044299,-0.002269,0.012542,-0.000442,0.410785,0.508343,-0.577842,-0.488816,100.642196,1.274022,-98.379017
17866,NaN,-0.223272,9.729663,-1.826102,-0.001586,0.003434,0.089374,-0.001023,0.016613,-0.002882,0.410810,0.508368,-0.577829,-0.488785,100.643237,1.272595,-98.373801
17867,NaN,-0.214532,9.699988,-1.810653,-0.012416,-0.002912,0.057170,-0.003409,0.009840,-0.002220,0.410825,0.508375,-0.577821,-0.488775,100.643024,1.271769,-98.371545
17868,NaN,-0.212494,9.689390,-1.832446,0.010193,-0.008080,0.050736,0.001247,0.004071,-0.002439,0.410805,0.508375,-0.577841,-0.488767,100.645804,1.271705,-98.373334
17869,NaN,-0.177391,9.687941,-1.855572,0.027485,-0.046285,0.052804,-0.000615,0.010984,-0.006618,0.410806,0.508404,-0.577826,-0.488754,100.647217,1.273234,-98.369967
17870,NaN,-0.225386,9.669955,-1.824097,0.007078,0.005594,0.030385,-0.003541,0.020398,-0.006203,0.410839,0.508445,-0.577790,-0.488727,100.647192,1.273494,-98.361906
17871,NaN,-0.205533,9.730104,-1.796545,-0.033830,-0.009862,0.083953,-0.002355,0.022282,-0.009363,0.410869,0.508506,-0.577741,-0.488696,100.647756,1.275373,-98.351885
17872,NaN,-0.243778,9.729418,-1.854269,0.027728,0.019187,0.094793,-0.001039,0.013606,-0.008540,0.410871,0.508542,-0.577719,-0.488683,100.649070,1.277512,-98.347482
17873,NaN,-0.223355,9.719166,-1.847107,0.019493,-0.000392,0.082943,-0.002055,0.015285,-0.008882,0.410882,0.508584,-0.577686,-0.488668,100.649717,1.279861,-98.341453
17874,NaN,-0.227393,9.670028,-1.823461,0.006098,0.006528,0.030385,-0.001995,0.017477,-0.008166,0.410900,0.508626,-0.577654,-0.488648,100.650316,1.281346,-98.334843
17875,NaN,-0.259508,9.720656,-1.823581,0.001493,0.038504,0.080869,-0.005385,0.015392,-0.002192,0.410936,0.508642,-0.577630,-0.488629,100.649042,1.279916,-98.329463
17876,NaN,-0.248499,9.680439,-1.829688,0.013584,0.026761,0.042235,-0.005676,0.007449,-0.000128,0.410952,0.508629,-0.577630,-0.488629,100.647551,1.278128,-98.329546
17877,NaN,-0.266961,9.680228,-1.857954,0.044252,0.041363,0.047658,-0.008775,0.013306,0.003781,0.411005,0.508616,-0.577618,-0.488613,100.644293,1.273555,-98.325973
17878,NaN,-0.225163,9.730267,-1.822644,-0.004662,0.006178,0.089372,-0.010445,0.011852,0.004300,0.411056,0.508590,-0.577610,-0.488606,100.640089,1.268623,-98.324119
17879,NaN,-0.246719,9.681009,-1.826908,0.012844,0.027445,0.042235,-0.014973,0.007061,0.008496,0.411119,0.508536,-0.577607,-0.488614,100.633190,1.262057,-98.324562
17880,NaN,-0.198086,9.699313,-1.856866,0.032693,-0.023985,0.064672,-0.011633,0.009971,0.007456,0.411175,0.508493,-0.577607,-0.488609,100.628254,1.255667,-98.324169
17881,NaN,-0.253443,9.711284,-1.839486,0.022928,0.034457,0.074439,-0.017832,0.003726,0.012169,0.411244,0.508414,-0.577613,-0.488626,100.619668,1.247385,-98.326877
17882,NaN,-0.239909,9.731102,-1.845920,0.025249,0.021454,0.094795,-0.018487,0.000595,0.013028,0.411305,0.508321,-0.577630,-0.488653,100.610737,1.238899,-98.332037
17883,NaN,-0.231845,9.712367,-1.806843,-0.008497,0.020524,0.069013,-0.021588,0.006456,0.016935,0.411403,0.508227,-0.577633,-0.488664,100.600023,1.227644,-98.333707
17884,NaN,-0.242234,9.693326,-1.796697,-0.011317,0.033994,0.048655,-0.019075,0.002671,0.020252,0.411492,0.508119,-0.577660,-0.488671,100.590685,1.214775,-98.337948
17885,NaN,-0.236607,9.742934,-1.818111,0.001586,0.027547,0.101218,-0.022057,-0.005045,0.022486,0.411572,0.507980,-0.577700,-0.488701,100.579554,1.201604,-98.346677
17886,NaN,-0.221470,9.692487,-1.844568,0.036562,0.010383,0.056169,-0.021043,-0.006720,0.022823,0.411640,0.507833,-0.577753,-0.488734,100.569270,1.188311,-98.357458
17887,NaN,-0.190206,9.723222,-1.799825,-0.014959,-0.011572,0.077521,-0.021456,-0.001082,0.026552,0.411739,0.507693,-0.577796,-0.488744,100.558525,1.172429,-98.364378
17888,NaN,-0.195952,9.683140,-1.833010,0.028032,-0.008970,0.044324,-0.028933,-0.002466,0.019847,0.411835,0.507553,-0.577809,-0.488793,100.543673,1.160457,-98.371670
17889,NaN,-0.179690,9.692518,-1.860669,0.053273,-0.027408,0.058265,-0.020577,-0.010150,0.019795,0.411889,0.507412,-0.577857,-0.488837,100.533346,1.149329,-98.382982
17890,NaN,-0.192116,9.684167,-1.827987,0.027440,-0.008521,0.044326,-0.033406,0.009900,0.022212,0.412033,0.507283,-0.577845,-0.488864,100.516432,1.134717,-98.384439
17891,NaN,-0.213109,9.705602,-1.810363,0.012274,0.016915,0.062590,-0.023503,-0.000718,0.020202,0.412123,0.507158,-0.577866,-0.488892,100.504538,1.122368,-98.390474
17892,NaN,-0.180162,9.725792,-1.786923,-0.016369,-0.010423,0.077520,-0.030738,-0.008278,0.018904,0.412202,0.506999,-0.577888,-0.488965,100.488624,1.111409,-98.401557
17893,NaN,-0.213057,9.657485,-1.781514,-0.001390,0.024040,0.010023,-0.028818,0.001943,0.021265,0.412316,0.506867,-0.577894,-0.488999,100.473714,1.098180,-98.406198
17894,NaN,-0.211575,9.728306,-1.758393,-0.034370,0.028467,0.075420,-0.024406,-0.009591,0.023814,0.412386,0.506703,-0.577946,-0.489048,100.461347,1.084742,-98.418659
17895,NaN,-0.153267,9.716951,-1.772258,-0.025157,-0.029551,0.065674,-0.019284,-0.018813,0.020577,0.412414,0.506542,-0.578016,-0.489109,100.451683,1.074058,-98.434920
17896,NaN,-0.205796,9.718609,-1.776174,-0.012013,0.023494,0.069003,-0.021238,0.001693,0.018099,0.412494,0.506429,-0.578040,-0.489131,100.441517,1.062562,-98.440523
17897,NaN,-0.193780,9.748854,-1.761045,-0.032625,0.015932,0.095777,-0.006014,-0.008584,0.020669,0.412518,0.506320,-0.578122,-0.489127,100.439569,1.050759,-98.451025
17898,NaN,-0.142295,9.756497,-1.813391,0.009978,-0.040968,0.111832,-0.009021,-0.019302,0.017234,0.412505,0.506187,-0.578213,-0.489166,100.436282,1.042083,-98.467707
17899,NaN,-0.152662,9.666930,-1.825121,0.039886,-0.031752,0.026078,-0.005881,0.007737,0.013946,0.412560,0.506137,-0.578245,-0.489134,100.434593,1.032375,-98.468312
17900,NaN,-0.178496,9.708940,-1.766036,-0.021175,0.004604,0.057155,-0.000795,0.014275,0.013126,0.412612,0.506112,-0.578280,-0.489076,100.436270,1.022424,-98.466307
17901,NaN,-0.165048,9.728402,-1.774131,-0.018874,-0.008399,0.077518,0.000057,-0.009746,0.008884,0.412589,0.506046,-0.578349,-0.489082,100.437817,1.017382,-98.476240
17902,NaN,-0.180214,9.647497,-1.845470,0.067414,-0.003522,0.011155,-0.002597,0.008446,0.012195,0.412630,0.506008,-0.578385,-0.489043,100.438235,1.008574,-98.476740
17903,NaN,-0.173062,9.698518,-1.787762,0.000956,-0.000176,0.050745,0.001284,0.010093,0.008874,0.412660,0.505994,-0.578416,-0.488995,100.440684,1.001479,-98.475492
17904,NaN,-0.134454,9.686539,-1.832790,0.041009,-0.043833,0.046452,-0.000391,0.008645,0.009386,0.412687,0.505965,-0.578455,-0.488957,100.442544,0.994076,-98.476290
17905,NaN,-0.156034,9.637163,-1.838510,0.058582,-0.022627,-0.000683,0.000867,0.012716,0.006960,0.412721,0.505962,-0.578475,-0.488908,100.444783,0.987786,-98.473365
17906,NaN,-0.176484,9.717836,-1.824998,0.033576,0.001649,0.076548,-0.000018,0.018782,0.008062,0.412776,0.505967,-0.578486,-0.488843,100.446867,0.980167,-98.467492
17907,NaN,-0.183304,9.689650,-1.757897,-0.025618,0.019441,0.036784,-0.000264,0.013031,0.010825,0.412824,0.505951,-0.578512,-0.488788,100.448453,0.971667,-98.464793
17908,NaN,-0.134578,9.707583,-1.789218,-0.005891,-0.031978,0.059269,0.003712,0.001095,0.005814,0.412812,0.505921,-0.578566,-0.488765,100.452253,0.966961,-98.469405
17909,NaN,-0.136440,9.705785,-1.870444,0.073172,-0.041579,0.072268,0.002401,0.006771,-0.000645,0.412807,0.505928,-0.578583,-0.488742,100.455326,0.965573,-98.469042
17910,NaN,-0.169428,9.696784,-1.869176,0.078374,-0.008334,0.063746,-0.006418,0.017926,0.002416,0.412859,0.505931,-0.578568,-0.488713,100.453640,0.961176,-98.463708
17911,NaN,-0.173306,9.717938,-1.824763,0.032287,0.002811,0.076552,-0.005925,0.029436,-0.003117,0.412935,0.505983,-0.578511,-0.488662,100.452161,0.958826,-98.450315
17912,NaN,-0.212811,9.740587,-1.757203,-0.031267,0.052464,0.087230,-0.009300,0.011588,0.000424,0.412972,0.505971,-0.578498,-0.488659,100.448854,0.956204,-98.448222
17913,NaN,-0.168424,9.709491,-1.763996,-0.024656,0.007651,0.057145,-0.012897,0.002936,0.004214,0.413007,0.505923,-0.578497,-0.488680,100.443118,0.952477,-98.450524
17914,NaN,-0.170230,9.708015,-1.843639,0.054279,-0.001964,0.070156,-0.013727,0.008184,0.000387,0.413041,0.505895,-0.578482,-0.488699,100.437688,0.950400,-98.450495
17915,NaN,-0.174228,9.729329,-1.798242,0.008194,0.009197,0.082954,-0.018314,0.016173,0.001317,0.413121,0.505877,-0.578433,-0.488708,100.428978,0.946931,-98.445037
17916,NaN,-0.184071,9.699696,-1.810467,0.028266,0.017194,0.056187,-0.015339,0.008931,0.001616,0.413166,0.505840,-0.578415,-0.488728,100.422292,0.943915,-98.444939
17917,NaN,-0.162721,9.689609,-1.801812,0.019983,-0.002370,0.044347,-0.018275,0.003411,0.004551,0.413216,0.505781,-0.578401,-0.488763,100.413480,0.939948,-98.447008
17918,NaN,-0.149734,9.709432,-1.807866,0.022201,-0.015356,0.064718,-0.023876,0.013087,0.005140,0.413307,0.505732,-0.578359,-0.488788,100.401882,0.934613,-98.444124
17919,NaN,-0.184476,9.711304,-1.782718,0.004542,0.023342,0.062584,-0.021189,0.012853,0.004967,0.413393,0.505689,-0.578320,-0.488806,100.391487,0.929434,-98.440912
17920,NaN,-0.141805,9.690851,-1.766786,-0.011800,-0.015980,0.038904,-0.017385,0.000359,0.009090,0.413438,0.505605,-0.578332,-0.488840,100.383282,0.923126,-98.446477
17921,NaN,-0.164014,9.699975,-1.853034,0.075288,-0.005863,0.063772,-0.018151,0.007803,0.005985,0.413504,0.505553,-0.578313,-0.488861,100.374580,0.917895,-98.446215
17922,NaN,-0.146574,9.710899,-1.800230,0.021122,-0.014411,0.064722,-0.021063,0.017246,0.006405,0.413600,0.505509,-0.578277,-0.488867,100.364597,0.911212,-98.442060
17923,NaN,-0.195593,9.703763,-1.745305,-0.021959,0.042996,0.048602,-0.019637,0.012937,0.008654,0.413691,0.505459,-0.578251,-0.488873,100.355084,0.903948,-98.439178
17924,NaN,-0.144672,9.711608,-1.796552,0.020598,-0.013957,0.064723,-0.016127,0.004438,0.006660,0.413740,0.505396,-0.578250,-0.488897,100.347621,0.898615,-98.441883
17925,NaN,-0.143690,9.711945,-1.794811,0.020344,-0.013737,0.064724,-0.019888,0.007182,0.011412,0.413822,0.505323,-0.578242,-0.488913,100.337910,0.890390,-98.442528
17926,NaN,-0.155119,9.692819,-1.785143,0.017567,-0.000271,0.044352,-0.013789,0.009023,0.005299,0.413874,0.505279,-0.578236,-0.488922,100.331799,0.885251,-98.442677
17927,NaN,-0.156631,9.703546,-1.761807,-0.005599,0.005443,0.050742,-0.015152,0.015530,0.003767,0.413950,0.505258,-0.578202,-0.488918,100.324885,0.880477,-98.437828
17928,NaN,-0.141554,9.712813,-1.790279,0.019520,-0.013019,0.064727,-0.016642,0.017653,0.000791,0.414023,0.505244,-0.578160,-0.488922,100.317471,0.877052,-98.432487
17929,NaN,-0.153359,9.693655,-1.780746,0.016757,0.000416,0.044353,-0.014741,0.012906,0.005675,0.414094,0.505213,-0.578138,-0.488920,100.310767,0.871473,-98.429312
17930,NaN,-0.163433,9.734222,-1.772591,0.004063,0.012694,0.082953,-0.011865,0.016238,0.002025,0.414153,0.505203,-0.578113,-0.488910,100.306220,0.867708,-98.424841
17931,NaN,-0.139835,9.713580,-1.786245,0.018675,-0.012363,0.064729,-0.014555,0.016479,0.002189,0.414226,0.505190,-0.578075,-0.488906,100.299657,0.863728,-98.419293
17932,NaN,-0.172634,9.704855,-1.783753,0.023933,0.020879,0.056191,-0.017245,0.016721,0.002353,0.414302,0.505168,-0.578036,-0.488910,100.291768,0.859486,-98.414536
17933,NaN,-0.161617,9.735011,-1.768423,0.003272,0.013390,0.082952,-0.011865,0.019252,0.007668,0.414390,0.505152,-0.578013,-0.488880,100.286761,0.852135,-98.407985
17934,NaN,-0.158571,9.724795,-1.789226,0.025838,0.008118,0.076568,-0.012468,0.015304,0.003588,0.414452,0.505135,-0.577992,-0.488870,100.281933,0.847497,-98.404042
17935,NaN,-0.116108,9.704154,-1.773900,0.009481,-0.031215,0.052896,-0.013132,0.012170,0.004435,0.414514,0.505109,-0.577972,-0.488868,100.276145,0.842694,-98.401152
17936,NaN,-0.150859,9.705844,-1.749611,-0.008183,0.007515,0.050739,-0.015696,0.016800,0.006042,0.414594,0.505079,-0.577947,-0.488860,100.269224,0.836495,-98.396867
17937,NaN,-0.183363,9.697107,-1.747253,-0.002879,0.040726,0.042197,-0.014083,0.016056,0.004812,0.414671,0.505059,-0.577918,-0.488850,100.262922,0.831083,-98.391824
17938,NaN,-0.136995,9.725813,-1.754827,-0.006302,-0.005229,0.071116,-0.014210,0.011670,0.003366,0.414722,0.505026,-0.577904,-0.488857,100.257166,0.826895,-98.390757
17939,NaN,-0.159134,9.676736,-1.759501,0.011367,0.015902,0.023979,-0.013261,0.007789,0.002984,0.414769,0.504993,-0.577889,-0.488869,100.251270,0.823358,-98.390187
17940,NaN,-0.133772,9.715864,-1.774249,0.016011,-0.010264,0.064736,-0.012122,0.010489,0.004770,0.414817,0.504957,-0.577886,-0.488870,100.246595,0.818399,-98.389768
17941,NaN,-0.166459,9.707096,-1.772106,0.021324,0.022944,0.056193,-0.013484,0.017004,0.003237,0.414891,0.504945,-0.577852,-0.488859,100.240645,0.813781,-98.384028
17942,NaN,-0.153375,9.726825,-1.778610,0.023481,0.009980,0.076572,-0.017155,0.006150,0.006281,0.414946,0.504888,-0.577845,-0.488880,100.232985,0.808466,-98.385435
17943,NaN,-0.129583,9.706194,-1.792288,0.038077,-0.015096,0.058362,-0.008421,0.008561,0.004946,0.414987,0.504861,-0.577846,-0.488872,100.229867,0.803745,-98.384629
17944,NaN,-0.155854,9.677948,-1.753116,0.009925,0.017110,0.023979,-0.018043,0.012231,0.007381,0.415064,0.504808,-0.577829,-0.488881,100.221380,0.797052,-98.383402
17945,NaN,-0.130031,9.717137,-1.767540,0.014643,-0.009089,0.064740,-0.013265,0.010804,0.008624,0.415132,0.504766,-0.577822,-0.488874,100.215498,0.790028,-98.381704
17946,NaN,-0.126827,9.706984,-1.788200,0.037183,-0.014369,0.058366,-0.013994,0.005475,0.008746,0.415181,0.504705,-0.577833,-0.488883,100.209840,0.783422,-98.384167
17947,NaN,-0.113470,9.726717,-1.794691,0.039410,-0.027358,0.078749,-0.016367,0.013684,0.006872,0.415261,0.504668,-0.577809,-0.488881,100.202205,0.777095,-98.380666
17948,NaN,-0.172793,9.689569,-1.754147,0.016752,0.037809,0.035811,-0.020895,0.023894,0.008514,0.415377,0.504636,-0.577767,-0.488866,100.192743,0.768818,-98.373304
17949,NaN,-0.146802,9.728790,-1.768392,0.021457,0.011612,0.076575,-0.013302,-0.004176,0.011116,0.415408,0.504550,-0.577797,-0.488892,100.186723,0.761909,-98.380304
17950,NaN,-0.087133,9.706850,-1.804398,0.053347,-0.051965,0.060551,-0.023081,0.007905,0.008878,0.415487,0.504471,-0.577782,-0.488925,100.175296,0.754899,-98.381980
17951,NaN,-0.169744,9.690642,-1.748509,0.015985,0.038498,0.035810,-0.023804,0.030359,0.003281,0.415626,0.504470,-0.577695,-0.488910,100.163527,0.748912,-98.368707
17952,NaN,-0.142270,9.731080,-1.681740,-0.058646,0.022366,0.063469,-0.011371,0.003044,0.007852,0.415660,0.504410,-0.577714,-0.488921,100.159015,0.743109,-98.372428
17953,NaN,-0.120222,9.709314,-1.775967,0.035206,-0.012778,0.058376,-0.022324,-0.002557,0.006319,0.415707,0.504323,-0.577707,-0.488979,100.147848,0.738737,-98.378026
17954,NaN,-0.119648,9.709675,-1.774033,0.034869,-0.012523,0.058377,-0.017573,0.008806,0.004350,0.415763,0.504273,-0.577692,-0.489000,100.139986,0.734193,-98.378466
17955,NaN,-0.121441,9.720375,-1.750264,0.011706,-0.006757,0.064746,-0.019404,0.015770,0.000186,0.415841,0.504255,-0.577639,-0.489016,100.130633,0.731430,-98.373107
17956,NaN,-0.156694,9.722099,-1.725624,-0.005904,0.032020,0.062559,-0.018046,0.009250,0.001713,0.415894,0.504213,-0.577614,-0.489044,100.122352,0.728338,-98.372892
17957,NaN,-0.108417,9.740448,-1.754794,0.013606,-0.019488,0.085132,-0.014406,0.005119,0.001172,0.415931,0.504176,-0.577597,-0.489070,100.115784,0.726093,-98.373641
17958,NaN,-0.139303,9.721423,-1.774278,0.041736,0.008184,0.070213,-0.020135,0.010443,0.000301,0.415986,0.504137,-0.577565,-0.489103,100.106760,0.723780,-98.372960
17959,NaN,-0.122836,9.731922,-1.721697,-0.012411,-0.000259,0.071111,-0.011521,0.008454,-0.002464,0.416016,0.504124,-0.577539,-0.489120,100.101874,0.723251,-98.371461
17960,NaN,-0.105967,9.730929,-1.772176,0.035525,-0.024329,0.078772,-0.017571,0.005810,-0.001308,0.416050,0.504084,-0.577515,-0.489160,100.093994,0.722294,-98.372874
17961,NaN,-0.141644,9.732593,-1.747763,0.017983,0.014423,0.076578,-0.015289,0.008201,-0.003375,0.416087,0.504066,-0.577479,-0.489191,100.086950,0.722304,-98.371426
17962,NaN,-0.135656,9.713244,-1.709325,-0.015804,0.013655,0.050723,-0.015636,0.013034,-0.004561,0.416127,0.504057,-0.577437,-0.489215,100.080254,0.722486,-98.368609
17963,NaN,-0.152192,9.703313,-1.758910,0.037837,0.022529,0.049831,-0.015227,0.010399,-0.002654,0.416172,0.504042,-0.577398,-0.489238,100.073259,0.721870,-98.365994
17964,NaN,-0.139827,9.723022,-1.765453,0.039963,0.009573,0.070219,-0.012536,0.010153,-0.002811,0.416201,0.504025,-0.577375,-0.489258,100.068264,0.721270,-98.365178
17965,NaN,-0.121190,9.723098,-1.735091,0.008718,-0.004409,0.064750,-0.014438,0.017931,-0.002049,0.416267,0.504029,-0.577324,-0.489258,100.061775,0.719559,-98.358374
17966,NaN,-0.142073,9.733808,-1.740948,0.016482,0.015634,0.076579,-0.010858,0.011601,-0.003313,0.416296,0.504021,-0.577301,-0.489269,100.057721,0.718949,-98.356546
17967,NaN,-0.121179,9.723511,-1.732777,0.008141,-0.003909,0.064751,-0.012066,0.009713,-0.000182,0.416337,0.504004,-0.577277,-0.489280,100.052530,0.717007,-98.354566
17968,NaN,-0.102427,9.723545,-1.702572,-0.023111,-0.017878,0.059279,-0.011401,0.012854,-0.001024,0.416384,0.503998,-0.577246,-0.489282,100.047769,0.715201,-98.350696
17969,NaN,-0.133428,9.704443,-1.722649,0.005179,0.009746,0.044361,-0.012476,0.012354,-0.002093,0.416429,0.503992,-0.577211,-0.489291,100.042363,0.714074,-98.347034
17970,NaN,-0.123117,9.734419,-1.707500,-0.015537,0.002344,0.071107,-0.008301,0.009969,0.000729,0.416464,0.503981,-0.577199,-0.489288,100.039356,0.711568,-98.344966
17971,NaN,-0.141542,9.734764,-1.735639,0.015203,0.016762,0.076579,-0.011402,0.012857,-0.001027,0.416510,0.503976,-0.577168,-0.489290,100.034568,0.709790,-98.341126
17972,NaN,-0.120552,9.724431,-1.727649,0.006853,-0.002774,0.064752,-0.007697,0.010916,-0.000839,0.416542,0.503973,-0.577151,-0.489286,100.031915,0.708074,-98.338368
17973,NaN,-0.132900,9.705084,-1.719072,0.004156,0.010651,0.044361,-0.007697,0.010917,-0.000839,0.416574,0.503970,-0.577134,-0.489282,100.029235,0.706384,-98.335642
17974,NaN,-0.097297,9.703891,-1.741053,0.021149,-0.027664,0.046573,-0.008833,0.008221,-0.002633,0.416597,0.503963,-0.577115,-0.489292,100.025914,0.705950,-98.334225
17975,NaN,-0.099595,9.714348,-1.718234,-0.002011,-0.021862,0.052926,-0.008045,0.015754,-0.002025,0.416641,0.503974,-0.577084,-0.489279,100.023071,0.704447,-98.328650
17976,NaN,-0.151370,9.705696,-1.745785,0.034385,0.025516,0.049836,-0.008650,0.014810,-0.000461,0.416688,0.503978,-0.577057,-0.489267,100.019897,0.702130,-98.323732
17977,NaN,-0.117825,9.714820,-1.745759,0.028472,-0.007226,0.058403,-0.007637,0.013116,-0.000118,0.416728,0.503978,-0.577037,-0.489256,100.017266,0.699815,-98.319837
17978,NaN,-0.153150,9.716307,-1.722120,0.010971,0.031550,0.056186,-0.010935,0.012420,0.001599,0.416779,0.503965,-0.577015,-0.489253,100.012764,0.696575,-98.316472
17979,NaN,-0.150351,9.706198,-1.743079,0.033621,0.026188,0.049837,-0.011132,0.008833,0.005073,0.416828,0.503932,-0.577009,-0.489252,100.008095,0.691757,-98.315510
17980,NaN,-0.116372,9.715371,-1.742790,0.027697,-0.006548,0.058406,-0.010119,0.007139,0.005417,0.416870,0.503897,-0.577010,-0.489251,100.004020,0.686890,-98.315505
17981,NaN,-0.107472,9.685564,-1.726906,0.016911,-0.012890,0.026187,-0.010270,0.015565,0.000756,0.416926,0.503895,-0.576980,-0.489240,99.999895,0.683838,-98.310314
17982,NaN,-0.130282,9.706560,-1.710922,0.001850,0.012692,0.044359,-0.011950,0.014120,0.001251,0.416983,0.503885,-0.576951,-0.489236,99.994823,0.680627,-98.305954
17983,NaN,-0.138065,9.736736,-1.724823,0.012126,0.019481,0.076579,-0.008986,0.009837,0.007207,0.417035,0.503854,-0.576954,-0.489221,99.991387,0.674505,-98.304636
17984,NaN,-0.141446,9.687425,-1.701229,-0.001089,0.026343,0.023963,-0.009516,0.008088,0.003848,0.417075,0.503826,-0.576950,-0.489220,99.987666,0.670429,-98.303938
17985,NaN,-0.105410,9.686284,-1.722989,0.015882,-0.011988,0.026190,-0.010651,0.005393,0.002053,0.417106,0.503795,-0.576944,-0.489233,99.983253,0.667658,-98.304615
17986,NaN,-0.090358,9.695669,-1.751768,0.040948,-0.030554,0.040243,-0.010998,0.010232,0.000867,0.417148,0.503779,-0.576925,-0.489236,99.978700,0.665051,-98.302410
17987,NaN,-0.140707,9.687979,-1.698133,-0.001852,0.027020,0.023961,-0.011874,0.013323,-0.003677,0.417191,0.503781,-0.576885,-0.489244,99.973644,0.664726,-98.298042
17988,NaN,-0.130596,9.717912,-1.682982,-0.022589,0.019652,0.050700,-0.007413,0.003894,-0.000390,0.417203,0.503760,-0.576884,-0.489256,99.971105,0.663457,-98.299289
17989,NaN,-0.090338,9.696203,-1.748811,0.040174,-0.029883,0.040249,-0.011846,0.000502,-0.000470,0.417217,0.503722,-0.576880,-0.489290,99.965978,0.662594,-98.302475
17990,NaN,-0.134315,9.727660,-1.740149,0.033228,0.015469,0.070237,-0.005326,0.002697,0.001025,0.417224,0.503698,-0.576890,-0.489296,99.964625,0.660646,-98.304538
17991,NaN,-0.113551,9.717286,-1.732266,0.024864,-0.004069,0.058415,-0.010982,0.007237,-0.004784,0.417244,0.503691,-0.576863,-0.489319,99.960042,0.661550,-98.303495
17992,NaN,-0.136933,9.738290,-1.716122,0.009814,0.021527,0.076577,-0.014221,0.008738,-0.002346,0.417282,0.503673,-0.576830,-0.489342,99.953636,0.660905,-98.301814
17993,NaN,-0.118519,9.738280,-1.685670,-0.021452,0.007598,0.071093,-0.013268,0.004846,-0.002727,0.417306,0.503649,-0.576807,-0.489374,99.947725,0.660885,-98.302324
17994,NaN,-0.128982,9.708739,-1.698612,-0.001224,0.015415,0.044355,-0.013737,0.005295,-0.005363,0.417326,0.503633,-0.576776,-0.489411,99.941578,0.662285,-98.302288
17995,NaN,-0.116867,9.728442,-1.705173,0.000934,0.002446,0.064754,-0.011302,-0.000744,-0.002765,0.417329,0.503599,-0.576769,-0.489451,99.936757,0.662839,-98.305950
17996,NaN,-0.102496,9.737853,-1.733934,0.025985,-0.016130,0.078818,-0.010090,0.001152,-0.005894,0.417327,0.503582,-0.576754,-0.489488,99.932673,0.664947,-98.308200
17997,NaN,-0.117609,9.728790,-1.703135,0.000419,0.002902,0.064754,-0.010516,0.006794,-0.002153,0.417351,0.503566,-0.576735,-0.489506,99.928351,0.664410,-98.307668
17998,NaN,-0.111855,9.709237,-1.665066,-0.033264,0.002181,0.038867,-0.013798,0.003102,-0.006091,0.417363,0.503547,-0.576706,-0.489550,99.922155,0.666438,-98.308798
17999,NaN,-0.126023,9.689191,-1.737030,0.043296,0.005317,0.031685,-0.011501,-0.004335,0.000705,0.417364,0.503494,-0.576715,-0.489592,99.917193,0.665386,-98.314830
18000,NaN,-0.116167,9.719117,-1.721792,0.022544,-0.002031,0.058421,-0.008411,0.002601,-0.006389,0.417360,0.503485,-0.576700,-0.489623,99.914080,0.667631,-98.316214
18001,NaN,-0.118933,9.729526,-1.698834,-0.000610,0.003814,0.064754,-0.010637,0.002403,-0.003606,0.417368,0.503463,-0.576686,-0.489655,99.909662,0.668347,-98.318016
18002,NaN,-0.096109,9.708931,-1.712792,0.013910,-0.021336,0.046602,-0.009683,-0.001490,-0.003989,0.417362,0.503434,-0.576682,-0.489694,99.905791,0.669640,-98.321946
18003,NaN,-0.104956,9.739078,-1.726894,0.024175,-0.014545,0.078825,-0.005658,0.004547,-0.005811,0.417358,0.503434,-0.576671,-0.489711,99.904242,0.671390,-98.322322
18004,NaN,-0.107964,9.749420,-1.704269,0.001016,-0.008691,0.085156,-0.006534,0.007644,-0.010355,0.417355,0.503453,-0.576639,-0.489732,99.902243,0.675376,-98.320468
18005,NaN,-0.077351,9.698720,-1.703884,0.005016,-0.040416,0.034785,-0.003610,-0.001841,-0.010775,0.417316,0.503456,-0.576634,-0.489769,99.901830,0.680557,-98.323960
18006,NaN,-0.101751,9.719545,-1.688463,-0.010021,-0.014801,0.052934,-0.006107,0.002006,-0.014101,0.417286,0.503473,-0.576606,-0.489810,99.900042,0.687212,-98.324921
18007,NaN,-0.100648,9.709391,-1.709919,0.012621,-0.020204,0.046606,-0.005989,0.006399,-0.012648,0.417271,0.503496,-0.576572,-0.489838,99.898324,0.692638,-98.323577
18008,NaN,-0.135345,9.700442,-1.708820,0.018091,0.012974,0.038021,-0.003217,0.005353,-0.017723,0.417235,0.503537,-0.576535,-0.489870,99.898219,0.701007,-98.322292
18009,NaN,-0.091201,9.729018,-1.716869,0.014499,-0.032939,0.067012,-0.004232,0.007053,-0.018069,0.417205,0.503582,-0.576491,-0.489902,99.897519,0.709429,-98.320046
18010,NaN,-0.123725,9.709823,-1.737797,0.042870,-0.005396,0.052101,-0.005482,0.017988,-0.018144,0.417209,0.503651,-0.576421,-0.489909,99.896207,0.716792,-98.311587
18011,NaN,-0.163353,9.721288,-1.692824,0.002556,0.039043,0.056165,0.000082,0.006058,-0.019439,0.417162,0.503705,-0.576386,-0.489934,99.897974,0.726084,-98.309767
18012,NaN,-0.142345,9.770618,-1.685874,-0.015818,0.018533,0.103300,-0.008432,0.012448,-0.015255,0.417165,0.503746,-0.576328,-0.489958,99.894930,0.732362,-98.304720
18013,NaN,-0.159932,9.701605,-1.655128,-0.031366,0.038570,0.030264,-0.000840,0.015142,-0.012678,0.417163,0.503802,-0.576289,-0.489949,99.896226,0.736945,-98.298439
18014,NaN,-0.131116,9.720163,-1.714796,0.018946,0.001145,0.058429,0.003069,-0.008084,-0.004619,0.417104,0.503786,-0.576328,-0.489970,99.899609,0.739242,-98.306029
18015,NaN,-0.097942,9.659197,-1.736893,0.045837,-0.036238,0.001744,-0.003961,0.003010,-0.011966,0.417077,0.503803,-0.576308,-0.489998,99.899029,0.744617,-98.306667
18016,NaN,-0.128372,9.699657,-1.758948,0.064225,-0.009688,0.045786,0.006167,0.013897,-0.014192,0.417050,0.503875,-0.576285,-0.489974,99.904361,0.750152,-98.300906
18017,NaN,-0.149002,9.710752,-1.685415,-0.007101,0.020655,0.044343,0.000116,0.011251,-0.013063,0.417033,0.503924,-0.576256,-0.489973,99.906178,0.755334,-98.296782
18018,NaN,-0.156134,9.730487,-1.722433,0.026053,0.021807,0.070246,0.002501,0.003010,-0.011188,0.416991,0.503953,-0.576254,-0.489981,99.909325,0.760246,-98.297462
18019,NaN,-0.136119,9.719969,-1.715505,0.017665,0.002276,0.058431,0.000993,0.008151,-0.008516,0.416975,0.503983,-0.576245,-0.489975,99.911617,0.763167,-98.295536
18020,NaN,-0.151412,9.710673,-1.685653,-0.007867,0.021341,0.044341,-0.002855,0.008695,-0.004514,0.416979,0.503995,-0.576235,-0.489970,99.911730,0.763753,-98.293666
18021,NaN,-0.145754,9.749965,-1.730318,0.027667,0.009298,0.090656,0.003816,-0.005728,-0.010386,0.416911,0.504003,-0.576256,-0.489995,99.915537,0.769098,-98.299389
18022,NaN,-0.127882,9.749717,-1.701188,-0.003624,-0.004575,0.085158,-0.003461,0.007744,-0.002949,0.416918,0.504007,-0.576251,-0.489991,99.915293,0.768894,-98.298210
18023,NaN,-0.169181,9.700654,-1.736810,0.045299,0.030468,0.043521,0.001105,0.012545,-0.007064,0.416917,0.504044,-0.576236,-0.489971,99.917681,0.770562,-98.293946
18024,NaN,-0.161844,9.740675,-1.700342,0.001627,0.028821,0.076563,-0.003824,-0.002446,-0.001654,0.416899,0.504019,-0.576254,-0.489991,99.917149,0.770633,-98.298646
18025,NaN,-0.156992,9.720287,-1.743996,0.047163,0.017733,0.063932,-0.004865,0.002241,0.003656,0.416910,0.503988,-0.576273,-0.489991,99.916024,0.767267,-98.301257
18026,NaN,-0.175094,9.661543,-1.691094,0.008758,0.043418,-0.002799,-0.006923,0.008626,0.008620,0.416957,0.503953,-0.576287,-0.489971,99.913788,0.760447,-98.300721
18027,NaN,-0.154024,9.721144,-1.662207,-0.032542,0.028594,0.050650,0.001507,-0.012003,0.011847,0.416931,0.503877,-0.576372,-0.489972,99.916197,0.753863,-98.312180
18028,NaN,-0.099965,9.719066,-1.736703,0.032478,-0.034280,0.060719,-0.000607,-0.007813,0.016083,0.416932,0.503794,-0.576454,-0.489959,99.917448,0.744453,-98.321660
18029,NaN,-0.144341,9.690541,-1.728051,0.035631,0.012063,0.031710,-0.005735,0.013519,0.011145,0.416996,0.503767,-0.576466,-0.489918,99.915898,0.735748,-98.318644
18030,NaN,-0.201912,9.712534,-1.689971,0.003510,0.076308,0.047548,-0.004674,-0.001018,0.014696,0.417024,0.503696,-0.576520,-0.489903,99.914873,0.726450,-98.324151
18031,NaN,-0.118892,9.739995,-1.720806,0.016955,-0.008186,0.078847,0.001579,-0.019653,0.021430,0.416999,0.503573,-0.576646,-0.489903,99.917265,0.715213,-98.340874
18032,NaN,-0.097907,9.728881,-1.794506,0.087738,-0.038143,0.080331,-0.004478,0.002585,0.011220,0.417029,0.503522,-0.576684,-0.489886,99.916383,0.707522,-98.344005
18033,NaN,-0.188947,9.682740,-1.674377,-0.007752,0.070418,0.015317,-0.004740,0.014814,0.017144,0.417109,0.503483,-0.576711,-0.489826,99.915403,0.695303,-98.340850
18034,NaN,-0.083311,9.759417,-1.698790,-0.012501,-0.034765,0.093759,0.004758,-0.023343,0.018262,0.417058,0.503367,-0.576844,-0.489832,99.919630,0.686197,-98.359310
18035,NaN,-0.074809,9.728762,-1.764794,0.055919,-0.051555,0.074836,-0.007017,-0.005605,0.016021,0.417082,0.503276,-0.576905,-0.489833,99.917208,0.676626,-98.367570
18036,NaN,-0.158947,9.651960,-1.710816,0.029127,0.040003,-0.009114,-0.001354,0.014722,0.010506,0.417136,0.503263,-0.576924,-0.489778,99.918200,0.668141,-98.363780
18037,NaN,-0.143532,9.731276,-1.719071,0.021202,0.026110,0.070248,0.001649,-0.020440,0.016493,0.417097,0.503152,-0.577039,-0.489790,99.920649,0.659769,-98.380459
18038,NaN,-0.050107,9.718302,-1.757596,0.046983,-0.070629,0.063033,0.004657,-0.012698,0.014326,0.417067,0.503073,-0.577140,-0.489778,99.924902,0.651835,-98.392524
18039,NaN,-0.099772,9.710219,-1.705265,0.004386,-0.012937,0.046625,-0.002437,0.024070,0.000578,0.417127,0.503109,-0.577111,-0.489723,99.925317,0.648050,-98.382511
18040,NaN,-0.139575,9.731887,-1.638642,-0.058748,0.037264,0.056933,0.004760,0.001539,0.006925,0.417120,0.503087,-0.577164,-0.489690,99.929730,0.642888,-98.385808
18041,NaN,-0.082285,9.779157,-1.736306,0.019076,-0.032271,0.119685,0.008118,-0.013591,0.002765,0.417050,0.503046,-0.577246,-0.489695,99.935950,0.641590,-98.397268
18042,NaN,-0.068973,9.728546,-1.766220,0.054092,-0.049978,0.074854,0.005623,0.008283,0.002614,0.417050,0.503055,-0.577275,-0.489652,99.940906,0.638194,-98.396334
18043,NaN,-0.154715,9.721648,-1.691566,-0.005573,0.046336,0.056132,0.003302,0.018723,0.001465,0.417082,0.503087,-0.577274,-0.489592,99.944571,0.634435,-98.389427
18044,NaN,-0.144129,9.751281,-1.677981,-0.026406,0.039076,0.082850,0.011395,-0.009900,0.006709,0.417018,0.503045,-0.577373,-0.489573,99.952909,0.630547,-98.400483
18045,NaN,-0.055434,9.747676,-1.776105,0.055621,-0.062483,0.095280,0.009039,-0.004650,-0.000818,0.416963,0.503039,-0.577429,-0.489560,99.959718,0.630390,-98.406542
18046,NaN,-0.128501,9.690321,-1.730532,0.031147,0.015904,0.031720,-0.003252,0.029368,-0.003249,0.417021,0.503091,-0.577389,-0.489505,99.960338,0.628242,-98.394885
18047,NaN,-0.156056,9.731486,-1.671935,-0.029617,0.052953,0.062426,0.011103,-0.002857,0.006253,0.416983,0.503073,-0.577464,-0.489467,99.968334,0.623918,-98.400634
18048,NaN,-0.088066,9.738394,-1.777046,0.060494,-0.028834,0.086680,0.007102,-0.011892,0.002423,0.416911,0.503025,-0.577550,-0.489476,99.974338,0.622451,-98.413153
18049,NaN,-0.058696,9.697759,-1.755662,0.041572,-0.054930,0.042645,0.004865,0.015778,-0.000483,0.416926,0.503059,-0.577554,-0.489423,99.978882,0.620079,-98.407718
18050,NaN,-0.140544,9.740427,-1.703653,-0.005311,0.034851,0.076542,0.004573,0.022822,-0.000944,0.416950,0.503101,-0.577556,-0.489358,99.983982,0.617105,-98.400569
18051,NaN,-0.165140,9.701339,-1.688606,-0.010235,0.061429,0.035701,0.003917,-0.008196,0.005586,0.416913,0.503057,-0.577623,-0.489356,99.987831,0.613690,-98.409266
18052,NaN,-0.053709,9.747085,-1.779397,0.053437,-0.060813,0.095302,0.001422,-0.004347,0.002257,0.416875,0.503017,-0.577679,-0.489363,99.990722,0.611757,-98.417574
18053,NaN,-0.137361,9.730091,-1.726269,0.016741,0.029839,0.070246,-0.003567,0.021380,-0.001234,0.416925,0.503050,-0.577649,-0.489322,99.990469,0.609251,-98.408904
18054,NaN,-0.152055,9.720805,-1.696644,-0.008839,0.048954,0.056117,0.006112,0.004841,-0.000404,0.416897,0.503054,-0.577688,-0.489295,99.996290,0.607962,-98.411091
18055,NaN,-0.067987,9.737736,-1.750132,0.027329,-0.041253,0.081182,0.003567,-0.003350,0.004401,0.416872,0.503025,-0.577741,-0.489284,99.999971,0.604735,-98.416937
18056,NaN,-0.092579,9.698680,-1.734902,0.022354,-0.014657,0.040340,0.001214,0.019930,0.000037,0.416903,0.503053,-0.577738,-0.489233,100.002819,0.601578,-98.410659
18057,NaN,-0.153484,9.730905,-1.675552,-0.032546,0.055366,0.062403,0.002927,0.008540,0.002755,0.416910,0.503056,-0.577761,-0.489197,100.006205,0.598098,-98.409632
18058,NaN,-0.090034,9.758361,-1.736031,0.011674,-0.015097,0.099283,0.004265,-0.013042,0.006774,0.416851,0.502991,-0.577851,-0.489206,100.010802,0.594562,-98.422905
18059,NaN,-0.105224,9.678309,-1.808915,0.098321,-0.011387,0.033282,0.000433,0.012389,-0.000576,0.416867,0.503008,-0.577852,-0.489175,100.012786,0.592577,-98.419376
18060,NaN,-0.135153,9.729803,-1.728061,0.014624,0.031465,0.070244,0.002029,0.014636,0.003856,0.416889,0.503014,-0.577871,-0.489127,100.016109,0.587809,-98.416491
18061,NaN,-0.126525,9.699763,-1.713345,0.003873,0.025119,0.038014,0.000956,-0.003897,-0.000377,0.416858,0.502991,-0.577907,-0.489135,100.018298,0.587335,-98.422171
18062,NaN,-0.096838,9.718232,-1.773083,0.053941,-0.012427,0.066289,0.003418,0.005094,-0.000260,0.416840,0.502992,-0.577938,-0.489114,100.022459,0.585870,-98.423921
18063,NaN,-0.093182,9.708705,-1.714234,-0.002584,-0.007329,0.046632,-0.002003,0.018437,-0.003184,0.416873,0.503025,-0.577913,-0.489079,100.023084,0.584752,-98.416720
18064,NaN,-0.105541,9.689229,-1.706341,-0.005249,0.006086,0.026207,-0.001564,0.002949,0.001941,0.416866,0.503003,-0.577942,-0.489074,100.024425,0.582264,-98.419993
18065,NaN,-0.075646,9.707752,-1.765789,0.044892,-0.031486,0.054490,0.000058,0.002198,0.000724,0.416857,0.502990,-0.577966,-0.489066,100.026134,0.580561,-98.422344
18066,NaN,-0.103949,9.678273,-1.809183,0.096172,-0.009780,0.033305,-0.001797,0.012192,0.002203,0.416878,0.502990,-0.577977,-0.489037,100.027464,0.576953,-98.420410
18067,NaN,-0.094766,9.719029,-1.691834,-0.026696,-0.000652,0.052914,0.000374,0.010193,-0.001303,0.416886,0.503003,-0.577980,-0.489013,100.029402,0.575596,-98.418048
18068,NaN,-0.081571,9.668532,-1.720902,0.008211,-0.018456,0.008120,-0.002985,0.007298,-0.000319,0.416892,0.502999,-0.577988,-0.489002,100.030064,0.574053,-98.418005
18069,NaN,-0.108336,9.698802,-1.764997,0.049517,0.002345,0.045875,0.003733,0.013091,-0.002288,0.416898,0.503029,-0.577990,-0.488963,100.033944,0.572962,-98.413911
18070,NaN,-0.123825,9.759526,-1.714047,-0.008960,0.026353,0.096947,0.001388,0.008495,-0.000956,0.416894,0.503036,-0.578005,-0.488941,100.036791,0.571570,-98.413396
18071,NaN,-0.098262,9.728505,-1.750991,0.028366,-0.004635,0.072585,-0.000756,0.007497,-0.003101,0.416893,0.503046,-0.578007,-0.488930,100.038069,0.571496,-98.412376
18072,NaN,-0.123808,9.759514,-1.714116,-0.009594,0.026819,0.096945,0.001187,0.004897,0.002520,0.416887,0.503036,-0.578039,-0.488908,100.041149,0.568543,-98.414145
18073,NaN,-0.100262,9.738745,-1.729047,0.004845,0.001565,0.078864,-0.000177,0.011445,0.000983,0.416906,0.503044,-0.578043,-0.488878,100.042776,0.565771,-98.411306
18074,NaN,-0.114839,9.729501,-1.699260,-0.020675,0.020707,0.064711,-0.000842,0.008297,0.001823,0.416915,0.503039,-0.578060,-0.488856,100.044469,0.562877,-98.411095
18075,NaN,-0.109914,9.708994,-1.743347,0.024837,0.009446,0.052159,0.001331,0.006297,-0.001681,0.416909,0.503046,-0.578073,-0.488840,100.046934,0.562122,-98.410895
18076,NaN,-0.078928,9.728215,-1.722021,-0.004235,-0.017470,0.067061,0.001445,0.010696,-0.000234,0.416913,0.503055,-0.578086,-0.488811,100.049705,0.560008,-98.409398
18077,NaN,-0.089053,9.698447,-1.736390,0.016097,-0.009824,0.040358,-0.000440,0.015497,-0.005133,0.416930,0.503090,-0.578066,-0.488784,100.051210,0.560281,-98.403662
18078,NaN,-0.110100,9.708939,-1.743640,0.023946,0.010169,0.052161,0.001938,0.007248,-0.003246,0.416913,0.503099,-0.578083,-0.488769,100.054563,0.560207,-98.404309
18079,NaN,-0.097797,9.728467,-1.751226,0.025981,-0.002775,0.072592,-0.004814,0.014301,-0.004499,0.416938,0.503121,-0.578057,-0.488756,100.053554,0.560241,-98.399311
18080,NaN,-0.113039,9.719222,-1.721404,0.000499,0.016401,0.058433,0.002805,0.013999,-0.007565,0.416930,0.503160,-0.578050,-0.488730,100.057243,0.561893,-98.395467
18081,NaN,-0.092551,9.708695,-1.714327,-0.007955,-0.003112,0.046631,-0.001106,0.012351,-0.004295,0.416941,0.503184,-0.578037,-0.488711,100.058348,0.562007,-98.391590
18082,NaN,-0.113537,9.719206,-1.721460,-0.000114,0.016852,0.058432,-0.000035,0.012851,-0.003223,0.416947,0.503207,-0.578035,-0.488686,100.060648,0.561543,-98.388405
18083,NaN,-0.101205,9.738707,-1.729208,0.001915,0.003911,0.078864,0.000573,0.013802,-0.004788,0.416957,0.503239,-0.578022,-0.488659,100.062724,0.561790,-98.383660
18084,NaN,-0.113741,9.719162,-1.721696,-0.000751,0.017299,0.058432,0.003121,0.012150,-0.000729,0.416958,0.503261,-0.578035,-0.488621,100.066966,0.560035,-98.381048
18085,NaN,-0.110972,9.708874,-1.743947,0.021874,0.011762,0.052164,0.001296,0.009300,0.003964,0.416975,0.503258,-0.578055,-0.488585,100.069423,0.555795,-98.379720
18086,NaN,-0.166905,9.720601,-1.728787,0.012795,0.070394,0.061599,0.002422,0.012000,0.005759,0.416995,0.503257,-0.578083,-0.488537,100.072936,0.550278,-98.377997
18087,NaN,-0.099444,9.738608,-1.729868,0.000691,0.004817,0.078864,-0.001602,0.005951,0.007584,0.417018,0.503230,-0.578112,-0.488511,100.073712,0.544331,-98.378922
18088,NaN,-0.108449,9.708866,-1.744152,0.021001,0.012485,0.052165,0.000652,0.011351,0.011174,0.417052,0.503201,-0.578154,-0.488461,100.076056,0.535586,-98.378908
18089,NaN,-0.107349,9.708887,-1.744105,0.020744,0.012708,0.052165,-0.001896,0.013005,0.007112,0.417095,0.503192,-0.578167,-0.488418,100.076701,0.529198,-98.375807
18090,NaN,-0.108780,9.719175,-1.721945,-0.002463,0.018700,0.058429,-0.001141,0.005502,0.010219,0.417116,0.503155,-0.578210,-0.488387,100.078140,0.521878,-98.378040
18091,NaN,-0.072106,9.717954,-1.744289,0.014224,-0.019745,0.060802,-0.002673,0.005454,0.006509,0.417138,0.503128,-0.578235,-0.488368,100.078300,0.516588,-98.379139
18092,NaN,-0.069030,9.707768,-1.765973,0.036809,-0.025274,0.054541,-0.004442,0.014660,0.003050,0.417176,0.503124,-0.578234,-0.488340,100.077721,0.512231,-98.375883
18093,NaN,-0.137452,9.700106,-1.742664,0.025553,0.046517,0.043529,-0.001953,0.010807,0.006388,0.417211,0.503112,-0.578249,-0.488305,100.078321,0.506472,-98.373950
18094,NaN,-0.093313,9.738931,-1.728391,-0.001303,0.006484,0.078863,-0.007105,0.002057,0.006417,0.417227,0.503060,-0.578278,-0.488310,100.076211,0.501466,-98.378407
18095,NaN,-0.092006,9.669025,-1.749236,0.031453,0.001742,0.013672,-0.005774,0.008359,0.004733,0.417260,0.503039,-0.578285,-0.488295,100.074612,0.496886,-98.377688
18096,NaN,-0.069012,9.718347,-1.742223,0.012864,-0.018535,0.060806,-0.001916,0.007806,0.000742,0.417268,0.503027,-0.578300,-0.488284,100.075158,0.494342,-98.378319
18097,NaN,-0.102084,9.709400,-1.741564,0.018556,0.014583,0.052167,-0.001860,0.010008,0.001464,0.417288,0.503027,-0.578305,-0.488261,100.075811,0.491440,-98.376343
18098,NaN,-0.081006,9.698921,-1.734135,0.009991,-0.004913,0.040369,-0.002931,0.009509,0.000391,0.417300,0.503023,-0.578313,-0.488246,100.076389,0.489199,-98.375699
18099,NaN,-0.070719,9.728727,-1.719483,-0.010885,-0.012063,0.067064,-0.003597,0.006358,0.001232,0.417313,0.503011,-0.578320,-0.488237,100.076031,0.486794,-98.375759
18100,NaN,-0.098942,9.699312,-1.762748,0.040569,0.009520,0.045912,-0.002931,0.009510,0.000390,0.417329,0.503005,-0.578326,-0.488223,100.076124,0.484303,-98.374959
18101,NaN,-0.103570,9.719860,-1.718394,-0.005444,0.021323,0.058422,-0.003541,0.008560,0.001953,0.417350,0.502997,-0.578331,-0.488207,100.075808,0.481271,-98.373849
18102,NaN,-0.113186,9.690150,-1.732558,0.014934,0.028960,0.031728,-0.000387,0.007856,0.004451,0.417364,0.502978,-0.578358,-0.488183,100.077256,0.476632,-98.374639
18103,NaN,-0.111201,9.749940,-1.733021,0.004531,0.028389,0.090657,-0.001418,0.004355,-0.002267,0.417358,0.502976,-0.578366,-0.488180,100.078140,0.476401,-98.375479
18104,NaN,-0.097887,9.699466,-1.761959,0.039479,0.010458,0.045915,-0.003193,0.003706,0.003146,0.417362,0.502951,-0.578390,-0.488174,100.078429,0.473210,-98.377985
18105,NaN,-0.108235,9.739783,-1.754590,0.026819,0.023048,0.084404,-0.001805,0.012213,0.002183,0.417390,0.502955,-0.578392,-0.488144,100.079123,0.469681,-98.374838
18106,NaN,-0.078760,9.699265,-1.732316,0.007751,-0.003048,0.040372,-0.001861,0.010011,0.001461,0.417404,0.502954,-0.578402,-0.488121,100.080402,0.466983,-98.373654
18107,NaN,-0.086656,9.729355,-1.746873,0.017966,0.003747,0.072610,-0.005167,0.009314,0.003163,0.417434,0.502940,-0.578405,-0.488106,100.079156,0.463193,-98.372241
18108,NaN,-0.068159,9.729132,-1.717298,-0.013384,-0.009899,0.067064,-0.001766,0.009212,-0.003462,0.417434,0.502942,-0.578409,-0.488100,100.079844,0.462815,-98.372087
18109,NaN,-0.098957,9.709976,-1.738528,0.015216,0.017409,0.052168,-0.005571,0.011969,0.001246,0.417469,0.502940,-0.578400,-0.488083,100.078381,0.459839,-98.368984
18110,NaN,-0.087899,9.669766,-1.745348,0.027284,0.005245,0.013683,-0.001196,0.013166,0.000618,0.417490,0.502951,-0.578401,-0.488052,100.079869,0.457218,-98.365658
18111,NaN,-0.090756,9.750046,-1.701689,-0.028886,0.016306,0.085105,-0.001862,0.010014,0.001459,0.417510,0.502951,-0.578406,-0.488029,100.080521,0.454319,-98.363679
18112,NaN,-0.118692,9.720652,-1.744990,0.022537,0.037835,0.063963,-0.004765,0.006663,0.005076,0.417530,0.502920,-0.578428,-0.488018,100.079875,0.449551,-98.365345
18113,NaN,-0.087338,9.739947,-1.722966,-0.006588,0.010987,0.078857,-0.004209,0.005411,0.002791,0.417546,0.502900,-0.578440,-0.488010,100.079161,0.446361,-98.366097
18114,NaN,-0.094449,9.700035,-1.759010,0.036684,0.012764,0.045924,-0.003084,0.008113,0.004586,0.417568,0.502878,-0.578458,-0.487992,100.079016,0.441737,-98.366506
18115,NaN,-0.078016,9.710022,-1.707518,-0.017557,0.004891,0.046618,-0.001404,0.009564,0.004096,0.417593,0.502871,-0.578472,-0.487963,100.079926,0.437395,-98.365047
18116,NaN,-0.087615,9.680343,-1.721573,0.002745,0.012467,0.019930,-0.005224,0.007116,0.002437,0.417608,0.502850,-0.578484,-0.487957,100.079112,0.434230,-98.365906
18117,NaN,-0.115955,9.720995,-1.743261,0.021193,0.038989,0.063961,-0.003849,0.005761,0.010349,0.417643,0.502810,-0.578515,-0.487931,100.078601,0.426742,-98.367218
18118,NaN,-0.063430,9.729736,-1.714054,-0.016205,-0.007524,0.067062,-0.003751,0.004961,0.005427,0.417657,0.502774,-0.578544,-0.487922,100.078323,0.421846,-98.370047
18119,NaN,-0.070159,9.689845,-1.750041,0.027053,-0.005789,0.034134,-0.004863,0.007466,0.009995,0.417698,0.502737,-0.578568,-0.487896,100.077238,0.414387,-98.370362
18120,NaN,-0.089995,9.700474,-1.756824,0.034999,0.014182,0.045928,-0.004655,0.011072,0.006515,0.417737,0.502715,-0.578582,-0.487870,100.076510,0.408421,-98.369243
18121,NaN,-0.102434,9.751059,-1.727258,-0.000537,0.032629,0.090645,-0.003696,0.007166,0.006146,0.417765,0.502690,-0.578600,-0.487849,100.076096,0.403162,-98.369342
18122,NaN,-0.075807,9.720149,-1.763577,0.036678,0.001514,0.066376,-0.006601,0.003815,0.009761,0.417794,0.502635,-0.578635,-0.487841,100.074213,0.395990,-98.372982
18123,NaN,-0.102442,9.691469,-1.725833,0.009099,0.033873,0.031719,-0.002281,0.002807,0.008415,0.417811,0.502596,-0.578671,-0.487822,100.074592,0.389888,-98.375768
18124,NaN,-0.081425,9.750987,-1.696762,-0.032545,0.019474,0.085088,-0.003962,0.001358,0.008903,0.417823,0.502546,-0.578714,-0.487813,100.074515,0.383625,-98.380504
18125,NaN,-0.108682,9.721627,-1.740206,0.018965,0.040911,0.063958,-0.000352,0.000200,0.014040,0.417842,0.502489,-0.578775,-0.487784,100.075986,0.374611,-98.385324
18126,NaN,-0.082191,9.760651,-1.755373,0.023035,0.014833,0.104855,-0.002034,-0.001248,0.014528,0.417857,0.502423,-0.578840,-0.487761,100.077122,0.365548,-98.391536
18127,NaN,-0.095456,9.681458,-1.746898,0.030748,0.028953,0.025483,-0.004976,0.003065,0.008549,0.417882,0.502379,-0.578870,-0.487749,100.075959,0.359345,-98.394190
18128,NaN,-0.050960,9.720187,-1.732554,0.003760,-0.010976,0.060825,-0.002436,0.001408,0.012611,0.417900,0.502318,-0.578927,-0.487729,100.076520,0.350846,-98.399536
18129,NaN,-0.049780,9.720239,-1.732299,0.003500,-0.010751,0.060825,-0.002837,0.004063,0.010696,0.417928,0.502275,-0.578965,-0.487704,100.076585,0.343332,-98.401842
18130,NaN,-0.066983,9.720636,-1.761245,0.034344,0.003395,0.066384,-0.003850,0.005769,0.010342,0.417957,0.502227,-0.579004,-0.487683,100.076204,0.335622,-98.404678
18131,NaN,-0.086547,9.731259,-1.768220,0.042336,0.023340,0.078175,-0.001712,0.006767,0.012489,0.417994,0.502187,-0.579044,-0.487645,100.076922,0.326826,-98.405639
18132,NaN,-0.079532,9.711482,-1.731100,0.008653,0.022860,0.052165,-0.002782,0.006269,0.011414,0.418024,0.502144,-0.579086,-0.487613,100.077571,0.318631,-98.407697
18133,NaN,-0.050637,9.740273,-1.768185,0.035681,-0.009063,0.086838,-0.001713,0.006768,0.012487,0.418061,0.502105,-0.579125,-0.487575,100.078290,0.309835,-98.408658
18134,NaN,-0.056291,9.700952,-1.723721,-0.000167,0.003632,0.040375,0.003221,0.006706,0.009581,0.418073,0.502078,-0.579177,-0.487530,100.082152,0.302476,-98.410630
18135,NaN,-0.061078,9.720790,-1.760613,0.032904,0.004577,0.066388,-0.003638,0.009378,0.006862,0.418109,0.502057,-0.579193,-0.487503,100.081778,0.296592,-98.409556
18136,NaN,-0.039524,9.710282,-1.753014,0.024309,-0.014900,0.054601,-0.003695,0.007174,0.006141,0.418131,0.502029,-0.579217,-0.487483,100.081826,0.291282,-98.410704
18137,NaN,-0.030674,9.680274,-1.737859,0.013588,-0.021248,0.022360,-0.002069,0.006419,0.004932,0.418150,0.502010,-0.579238,-0.487463,100.082344,0.286783,-98.411105
18138,NaN,-0.025955,9.729855,-1.760155,0.025877,-0.027595,0.075056,-0.002312,0.010475,-0.001181,0.418161,0.502018,-0.579239,-0.487444,100.083372,0.285388,-98.409176
18139,NaN,-0.071816,9.701533,-1.751803,0.029477,0.018644,0.045938,-0.005007,0.010733,-0.001047,0.418185,0.502020,-0.579228,-0.487434,100.082222,0.283830,-98.406544
18140,NaN,-0.043401,9.730983,-1.707582,-0.022648,-0.002253,0.067052,-0.006076,0.010235,-0.002122,0.418202,0.502018,-0.579220,-0.487431,100.080852,0.282829,-98.405138
18141,NaN,-0.074118,9.711937,-1.728783,0.006026,0.024979,0.052162,-0.003539,0.008577,0.001941,0.418224,0.502010,-0.579225,-0.487416,100.080536,0.279801,-98.404022
18142,NaN,-0.063688,9.741715,-1.713985,-0.014949,0.017976,0.078838,-0.004552,0.010283,0.001587,0.418245,0.501996,-0.579232,-0.487403,100.079933,0.276517,-98.403552
18143,NaN,-0.025012,9.730235,-1.758066,0.024455,-0.026393,0.075063,-0.002527,0.006871,0.002294,0.418260,0.501984,-0.579244,-0.487387,100.080192,0.273460,-98.403434
18144,NaN,-0.075544,9.722338,-1.705792,-0.017737,0.031599,0.058380,-0.002471,0.009076,0.003014,0.418276,0.501972,-0.579261,-0.487367,100.080949,0.269713,-98.403292
18145,NaN,-0.072532,9.712158,-1.727608,0.004872,0.025956,0.052160,-0.002072,0.006420,0.004930,0.418295,0.501953,-0.579281,-0.487346,100.081466,0.265215,-98.403693
18146,NaN,-0.074361,9.722448,-1.705219,-0.018317,0.032074,0.058378,-0.005381,0.005729,0.006624,0.418320,0.501918,-0.579304,-0.487333,100.080460,0.259758,-98.405311
18147,NaN,-0.068763,9.702093,-1.748823,0.027158,0.020555,0.045941,-0.004153,0.007629,0.003501,0.418344,0.501902,-0.579313,-0.487318,100.079788,0.255945,-98.404887
18148,NaN,-0.057961,9.731865,-1.734032,0.006180,0.013547,0.072615,-0.003587,0.011588,0.007576,0.418383,0.501878,-0.579333,-0.487286,100.079698,0.249248,-98.403941
18149,NaN,-0.064795,9.691999,-1.770217,0.049469,0.015164,0.039726,-0.002072,0.006422,0.004928,0.418401,0.501858,-0.579354,-0.487265,100.080216,0.244750,-98.404341
18150,NaN,-0.025174,9.681071,-1.733504,0.009711,-0.018167,0.022371,-0.001060,0.004715,0.005283,0.418409,0.501835,-0.579386,-0.487245,100.081823,0.240291,-98.406309
18151,NaN,-0.030250,9.700960,-1.770209,0.042768,-0.017250,0.048401,-0.003085,0.008129,0.004574,0.418434,0.501819,-0.579399,-0.487224,100.081765,0.235822,-98.405711
18152,NaN,-0.044742,9.691709,-1.740526,0.017475,0.002055,0.034158,0.002020,0.014680,0.003832,0.418459,0.501822,-0.579418,-0.487177,100.084615,0.230764,-98.402929
18153,NaN,-0.013412,9.710806,-1.718887,-0.011748,-0.024696,0.049045,-0.000844,0.008323,0.001804,0.418473,0.501819,-0.579429,-0.487154,100.085842,0.227838,-98.401944
18154,NaN,0.007406,9.700223,-1.711569,-0.020319,-0.044149,0.037261,-0.000069,0.010675,-0.003954,0.418472,0.501835,-0.579430,-0.487138,100.087730,0.227746,-98.400224
18155,NaN,-0.029237,9.700960,-1.770228,0.041702,-0.016267,0.048407,0.000999,0.011174,-0.002880,0.418478,0.501856,-0.579428,-0.487113,100.090021,0.227176,-98.397161
18156,NaN,-0.044612,9.691683,-1.740675,0.016400,0.003014,0.034159,0.000489,0.009421,-0.006236,0.418467,0.501875,-0.579427,-0.487104,100.092050,0.228512,-98.396027
18157,NaN,-0.032331,9.711167,-1.748248,0.018311,-0.009904,0.054620,-0.001082,0.012384,-0.004311,0.418478,0.501899,-0.579414,-0.487085,100.093152,0.228627,-98.392138
18158,NaN,-0.047790,9.701860,-1.718859,-0.007000,0.009398,0.040369,0.005880,0.008905,-0.006500,0.418452,0.501929,-0.579427,-0.487062,100.098361,0.230088,-98.391216
18159,NaN,-0.056661,9.731894,-1.733913,0.003189,0.016196,0.072613,-0.002443,0.013741,-0.012221,0.418451,0.501977,-0.579388,-0.487060,100.098690,0.234529,-98.385767
18160,NaN,-0.013451,9.700510,-1.741335,0.009178,-0.028861,0.042839,0.001718,0.011324,-0.009362,0.418435,0.502013,-0.579379,-0.487048,100.101708,0.237407,-98.383185
18161,NaN,-0.035047,9.711072,-1.748724,0.017199,-0.008923,0.054623,0.000252,0.013485,-0.012355,0.418426,0.502066,-0.579347,-0.487038,100.103581,0.241948,-98.377867
18162,NaN,-0.051139,9.701786,-1.719184,-0.008159,0.010347,0.040367,0.001264,0.011779,-0.012000,0.418406,0.502114,-0.579326,-0.487030,100.106434,0.246478,-98.374110
18163,NaN,-0.037092,9.711032,-1.748907,0.016606,-0.008468,0.054624,0.000810,0.012233,-0.014638,0.418387,0.502172,-0.579293,-0.487027,100.108627,0.252432,-98.369269
18164,NaN,-0.074168,9.712324,-1.726608,-0.000435,0.030546,0.052148,-0.000528,0.005919,-0.012953,0.418351,0.502201,-0.579280,-0.487043,100.110309,0.257903,-98.369407
18165,NaN,-0.003673,9.709749,-1.771102,0.032774,-0.046740,0.057104,-0.002339,0.012946,-0.017147,0.418336,0.502261,-0.579231,-0.487053,100.110701,0.265201,-98.363911
18166,NaN,-0.074222,9.702152,-1.748273,0.021843,0.025118,0.045944,-0.002556,0.009337,-0.013668,0.418314,0.502297,-0.579204,-0.487066,100.111366,0.270786,-98.361854
18167,NaN,-0.042170,9.711107,-1.748371,0.015450,-0.007507,0.054627,-0.001327,0.011242,-0.016794,0.418292,0.502354,-0.579162,-0.487077,100.112335,0.278056,-98.357355
18168,NaN,-0.051845,9.741150,-1.763313,0.025584,-0.000677,0.086873,0.002328,0.007072,-0.017287,0.418241,0.502404,-0.579144,-0.487091,100.115701,0.285870,-98.356432
18169,NaN,-0.068401,9.731849,-1.733744,0.000307,0.018597,0.072609,-0.001597,0.005426,-0.014034,0.418210,0.502438,-0.579120,-0.487111,100.116499,0.292168,-98.355491
18170,NaN,-0.058929,9.691615,-1.740632,0.012393,0.006370,0.034163,-0.003625,0.008843,-0.014749,0.418185,0.502474,-0.579089,-0.487131,100.116583,0.298388,-98.353732
18171,NaN,-0.062776,9.701849,-1.718439,-0.010728,0.012509,0.040362,0.000084,0.006880,-0.014522,0.418153,0.502517,-0.579065,-0.487143,100.118348,0.304815,-98.351922
18172,NaN,-0.072309,9.731876,-1.733435,-0.000619,0.019333,0.072608,0.002060,0.001259,-0.014528,0.418093,0.502546,-0.579064,-0.487165,100.121676,0.311725,-98.354228
18173,NaN,-0.062806,9.691602,-1.740566,0.011539,0.007066,0.034164,-0.002212,0.004477,-0.012475,0.418064,0.502573,-0.579045,-0.487186,100.122118,0.317238,-98.353979
18174,NaN,-0.051500,9.711122,-1.748040,0.013354,-0.005819,0.054631,0.000030,0.004676,-0.015244,0.418018,0.502608,-0.579030,-0.487207,100.124271,0.324200,-98.354298
18175,NaN,-0.037761,9.720372,-1.777877,0.038097,-0.024653,0.068904,0.004755,0.001006,-0.014660,0.417956,0.502647,-0.579029,-0.487221,100.128695,0.331296,-98.355787
18176,NaN,-0.087690,9.702077,-1.748062,0.019010,0.027512,0.045943,-0.003733,0.004434,-0.016192,0.417919,0.502673,-0.579003,-0.487258,100.128185,0.338662,-98.356427
18177,NaN,-0.035261,9.700568,-1.740707,0.004291,-0.024816,0.042854,-0.002558,0.004136,-0.020039,0.417871,0.502719,-0.578964,-0.487296,100.128432,0.348476,-98.355608
18178,NaN,-0.085991,9.681685,-1.791788,0.064168,0.016141,0.033557,0.001921,0.009749,-0.019219,0.417825,0.502780,-0.578934,-0.487309,100.131547,0.357072,-98.353011
18179,NaN,-0.085461,9.741967,-1.711601,-0.025390,0.026947,0.078796,0.004966,0.004628,-0.018148,0.417765,0.502838,-0.578918,-0.487320,100.136107,0.365770,-98.352104
18180,NaN,-0.081884,9.721490,-1.755895,0.019979,0.015316,0.066412,-0.000024,0.002477,-0.015969,0.417711,0.502874,-0.578903,-0.487347,100.138320,0.373501,-98.353149
18181,NaN,-0.065273,9.721173,-1.726531,-0.011444,0.001766,0.060825,-0.000427,0.005140,-0.017892,0.417667,0.502921,-0.578873,-0.487372,100.139792,0.382003,-98.351979
18182,NaN,-0.097664,9.701913,-1.748445,0.017300,0.028928,0.045942,0.003285,0.003180,-0.017665,0.417603,0.502965,-0.578863,-0.487394,100.143565,0.390416,-98.353075
18183,NaN,-0.091846,9.741776,-1.712363,-0.026543,0.027892,0.078790,0.004754,0.001018,-0.014667,0.417541,0.503003,-0.578862,-0.487408,100.147987,0.397514,-98.354555
18184,NaN,-0.079990,9.691267,-1.741724,0.008410,0.009692,0.034165,-0.000479,0.002937,-0.018615,0.417484,0.503044,-0.578840,-0.487441,100.149817,0.406567,-98.355328
18185,NaN,-0.092428,9.731487,-1.734661,-0.004269,0.022429,0.072600,0.001704,0.006143,-0.015743,0.417442,0.503092,-0.578818,-0.487453,100.152513,0.413756,-98.353808
18186,NaN,-0.091295,9.721257,-1.756721,0.018309,0.016734,0.066413,-0.001042,0.004190,-0.016334,0.417395,0.503126,-0.578798,-0.487481,100.153766,0.421367,-98.354306
18187,NaN,-0.072071,9.710756,-1.749344,0.009739,-0.002748,0.054637,-0.000076,0.000278,-0.016696,0.417339,0.503159,-0.578782,-0.487516,100.155418,0.429685,-98.355997
18188,NaN,-0.076187,9.720954,-1.727320,-0.013435,0.003446,0.060822,0.000023,0.004692,-0.015259,0.417293,0.503195,-0.578766,-0.487536,100.157490,0.436656,-98.356218
18189,NaN,-0.080441,9.731130,-1.705405,-0.036551,0.009618,0.067005,0.002166,0.000485,-0.019469,0.417225,0.503240,-0.578748,-0.487569,100.160430,0.446517,-98.357512
18190,NaN,-0.086739,9.680925,-1.764040,0.029575,0.005136,0.027982,0.000732,-0.005044,-0.012853,0.417157,0.503250,-0.578757,-0.487606,100.162888,0.453219,-98.362928
18191,NaN,-0.096482,9.710956,-1.778838,0.039751,0.011932,0.060231,-0.002774,0.000534,-0.016571,0.417108,0.503278,-0.578734,-0.487647,100.162996,0.461440,-98.364486
18192,NaN,-0.088008,9.740707,-1.764324,0.018758,0.005010,0.086887,0.001443,0.000326,-0.012981,0.417053,0.503296,-0.578737,-0.487672,100.165521,0.467464,-98.367644
18193,NaN,-0.080973,9.710679,-1.749386,0.008064,-0.001340,0.054639,-0.002271,0.002285,-0.013211,0.417016,0.503319,-0.578720,-0.487700,100.165921,0.473614,-98.368555
18194,NaN,-0.082216,9.710708,-1.749167,0.007753,-0.001081,0.054639,-0.002272,0.002286,-0.013212,0.416974,0.503337,-0.578710,-0.487729,100.166648,0.479606,-98.370559
18195,NaN,-0.091762,9.740735,-1.763977,0.017926,0.005717,0.086889,0.000424,0.002036,-0.013342,0.416929,0.503365,-0.578699,-0.487751,100.168591,0.485854,-98.371597
18196,NaN,-0.097277,9.691156,-1.741465,0.005078,0.012480,0.034164,-0.001303,-0.001626,-0.013574,0.416876,0.503382,-0.578693,-0.487786,100.169766,0.492724,-98.374773
18197,NaN,-0.106816,9.721136,-1.756518,0.015252,0.019278,0.066414,0.004544,-0.002584,-0.011190,0.416812,0.503402,-0.578708,-0.487802,100.174045,0.498227,-98.378634
18198,NaN,-0.105316,9.710913,-1.778573,0.037865,0.013565,0.060237,-0.003903,0.003038,-0.012008,0.416783,0.503415,-0.578692,-0.487833,100.173443,0.503462,-98.379939
18199,NaN,-0.057454,9.729954,-1.727402,-0.022641,-0.026815,0.069519,0.002962,0.000373,-0.009265,0.416737,0.503432,-0.578702,-0.487843,100.176828,0.507580,-98.382326
18200,NaN,-0.109948,9.721061,-1.756738,0.014428,0.019989,0.066413,0.001848,-0.002332,-0.011062,0.416678,0.503445,-0.578714,-0.487866,100.179950,0.512956,-98.386515
18201,NaN,-0.069334,9.700095,-1.742319,-0.002480,-0.019189,0.042867,0.002962,0.000374,-0.009266,0.416632,0.503463,-0.578723,-0.487875,100.183335,0.517075,-98.388901
18202,NaN,-0.111726,9.720951,-1.757233,0.013841,0.020424,0.066413,0.002398,0.001623,-0.006981,0.416594,0.503478,-0.578736,-0.487877,100.186800,0.519908,-98.390814
18203,NaN,-0.091806,9.710428,-1.750243,0.005256,0.000947,0.054640,0.004544,-0.002580,-0.011193,0.416531,0.503497,-0.578751,-0.487893,100.191077,0.525413,-98.394671
18204,NaN,-0.071904,9.699870,-1.743464,-0.003313,-0.018502,0.042868,0.006771,0.002832,-0.007599,0.416485,0.503519,-0.578773,-0.487884,100.196577,0.528175,-98.396594
18205,NaN,-0.093772,9.710235,-1.751207,0.004756,0.001422,0.054641,0.001691,0.006162,-0.015760,0.416443,0.503567,-0.578751,-0.487897,100.199269,0.535369,-98.395057
18206,NaN,-0.092562,9.699933,-1.773675,0.027291,-0.004328,0.048470,0.007443,0.000795,-0.014814,0.416371,0.503612,-0.578758,-0.487902,100.205577,0.542611,-98.396726
18207,NaN,-0.104845,9.740002,-1.767293,0.014606,0.008447,0.086892,0.007537,0.005208,-0.013377,0.416318,0.503663,-0.578759,-0.487895,100.211612,0.548559,-98.395967
18208,NaN,-0.097843,9.709854,-1.753099,0.003860,0.002123,0.054641,0.007082,0.005667,-0.016022,0.416255,0.503718,-0.578757,-0.487894,100.217764,0.555842,-98.395605
18209,NaN,-0.101889,9.719934,-1.731729,-0.019251,0.008327,0.060809,0.006109,0.009581,-0.015664,0.416212,0.503783,-0.578739,-0.487885,100.223007,0.562634,-98.392147
18210,NaN,-0.118938,9.709816,-1.783695,0.034439,0.016317,0.060245,0.005968,0.002964,-0.017822,0.416140,0.503835,-0.578735,-0.487897,100.228679,0.571215,-98.393051
18211,NaN,-0.107979,9.729252,-1.791916,0.036271,0.003416,0.080726,0.007127,0.007878,-0.015307,0.416090,0.503897,-0.578724,-0.487888,100.234497,0.577979,-98.390589
18212,NaN,-0.114579,9.749553,-1.748493,-0.009773,0.015610,0.093059,0.005133,0.013498,-0.015309,0.416058,0.503969,-0.578700,-0.487870,100.239675,0.584235,-98.385253
18213,NaN,-0.110743,9.729016,-1.793025,0.035672,0.003860,0.080728,0.004948,0.004675,-0.018185,0.415998,0.504027,-0.578683,-0.487881,100.244231,0.592947,-98.384303
18214,NaN,-0.127298,9.719532,-1.764010,0.010420,0.023194,0.066412,0.006878,0.002053,-0.012536,0.415936,0.504066,-0.578693,-0.487882,100.250192,0.598783,-98.385718
18215,NaN,-0.092544,9.718381,-1.786733,0.026760,-0.015392,0.068960,0.002798,0.008878,-0.013976,0.415904,0.504118,-0.578673,-0.487880,100.253536,0.604693,-98.382825
18216,NaN,-0.150578,9.729737,-1.772296,0.018221,0.043354,0.078181,0.006468,0.004720,-0.014464,0.415846,0.504166,-0.578672,-0.487880,100.259111,0.611223,-98.382750
18217,NaN,-0.109982,9.708835,-1.758012,0.001284,0.004184,0.054641,0.001986,0.004296,-0.008916,0.415815,0.504190,-0.578672,-0.487882,100.261957,0.614747,-98.382957
18218,NaN,-0.125841,9.699427,-1.728620,-0.023927,0.023551,0.040319,0.002031,0.006503,-0.008198,0.415788,0.504213,-0.578675,-0.487878,100.264993,0.617499,-98.382897
18219,NaN,-0.129545,9.708935,-1.787749,0.031938,0.018357,0.060250,0.001376,0.003337,-0.007349,0.415759,0.504229,-0.578679,-0.487881,100.267482,0.620238,-98.383804
18220,NaN,-0.111919,9.708726,-1.758494,0.000459,0.004898,0.054641,0.000810,0.004584,-0.005063,0.415738,0.504238,-0.578689,-0.487878,100.269830,0.621490,-98.384722
18221,NaN,-0.145602,9.699486,-1.758547,0.006470,0.037936,0.045925,0.004892,-0.002239,-0.003622,0.415694,0.504237,-0.578723,-0.487877,100.274296,0.622697,-98.389153
18222,NaN,-0.133412,9.719017,-1.766394,0.008279,0.025069,0.066409,0.000610,0.000960,-0.001568,0.415672,0.504225,-0.578749,-0.487877,100.276412,0.622258,-98.392668
18223,NaN,-0.121117,9.738557,-1.774200,0.010095,0.012173,0.086894,0.003961,0.003880,-0.002546,0.415650,0.504234,-0.578771,-0.487860,100.280381,0.622233,-98.393760
18224,NaN,-0.110216,9.698339,-1.781367,0.022257,-0.000160,0.048484,-0.002086,0.001205,-0.001439,0.415636,0.504217,-0.578790,-0.487868,100.280942,0.621717,-98.397154
18225,NaN,-0.113073,9.708578,-1.759235,-0.000850,0.006070,0.054640,-0.000455,0.000459,-0.002646,0.415615,0.504208,-0.578808,-0.487873,100.282359,0.622099,-98.400165
18226,NaN,-0.102305,9.668348,-1.766461,0.011304,-0.006273,0.016231,0.003551,0.006546,-0.004475,0.415594,0.504225,-0.578822,-0.487856,100.286238,0.622795,-98.400145
18227,NaN,-0.121986,9.738465,-1.774650,0.009033,0.013111,0.086894,0.002940,0.005587,-0.002907,0.415579,0.504237,-0.578836,-0.487840,100.289633,0.622800,-98.400238
18228,NaN,-0.090510,9.687843,-1.774493,0.012806,-0.018923,0.036719,-0.000300,0.001878,-0.006861,0.415548,0.504242,-0.578846,-0.487850,100.291452,0.625314,-98.402656
18229,NaN,-0.111991,9.698195,-1.782038,0.020899,0.000992,0.048487,0.004071,0.003094,-0.007479,0.415511,0.504264,-0.578857,-0.487846,100.295485,0.628151,-98.403686
18230,NaN,-0.115200,9.708381,-1.760188,-0.002230,0.007251,0.054639,-0.000866,0.003125,-0.004575,0.415491,0.504263,-0.578867,-0.487851,100.296840,0.629241,-98.405600
18231,NaN,-0.092447,9.687780,-1.774738,0.012005,-0.018236,0.036721,-0.001210,0.002796,-0.012155,0.415456,0.504287,-0.578854,-0.487872,100.297849,0.634744,-98.406319
18232,NaN,-0.116869,9.708379,-1.760088,-0.002725,0.007716,0.054639,0.001008,0.008212,-0.008562,0.415438,0.504314,-0.578847,-0.487868,100.300058,0.637548,-98.404886
18233,NaN,-0.102614,9.717708,-1.789838,0.021923,-0.011197,0.068977,0.002184,0.007927,-0.012417,0.415408,0.504357,-0.578831,-0.487867,100.303045,0.642673,-98.402685
18234,NaN,-0.116289,9.698083,-1.782374,0.019589,0.002143,0.048489,0.000010,0.004719,-0.015294,0.415366,0.504396,-0.578810,-0.487887,100.304877,0.649745,-98.402095
18235,NaN,-0.105140,9.717658,-1.789964,0.021387,-0.010750,0.068979,0.000096,0.009134,-0.013859,0.415342,0.504443,-0.578783,-0.487892,100.306678,0.655560,-98.399066
18236,NaN,-0.103361,9.708125,-1.730937,-0.035015,-0.005033,0.049020,-0.001622,0.005466,-0.014089,0.415307,0.504475,-0.578763,-0.487913,100.307702,0.661796,-98.398715
18237,NaN,-0.132584,9.678446,-1.774757,0.016726,0.015942,0.028000,0.001683,0.006184,-0.015786,0.415265,0.504522,-0.578741,-0.487925,100.310396,0.669000,-98.397151
18238,NaN,-0.121572,9.698003,-1.782454,0.018491,0.003049,0.048491,0.000661,0.007891,-0.016149,0.415228,0.504573,-0.578714,-0.487937,100.312689,0.676261,-98.394883
18239,NaN,-0.156110,9.688780,-1.782103,0.024546,0.036074,0.039765,-0.003907,0.003045,-0.012033,0.415200,0.504591,-0.578695,-0.487965,100.312154,0.681670,-98.395473
18240,NaN,-0.135078,9.738220,-1.775046,0.005505,0.016073,0.086892,-0.000189,0.001097,-0.011800,0.415157,0.504614,-0.578688,-0.487986,100.313932,0.687340,-98.396921
18241,NaN,-0.104141,9.687682,-1.774626,0.009317,-0.016004,0.036728,-0.002149,0.008923,-0.011089,0.415144,0.504647,-0.578663,-0.487992,100.314443,0.691614,-98.394295
18242,NaN,-0.149626,9.718636,-1.767194,0.002869,0.029625,0.066399,-0.001624,0.005472,-0.014094,0.415110,0.504683,-0.578640,-0.488011,100.315659,0.698039,-98.393348
18243,NaN,-0.129919,9.708291,-1.759656,-0.005752,0.010158,0.054635,-0.001821,0.001843,-0.010595,0.415077,0.504698,-0.578631,-0.488033,100.316310,0.702761,-98.394763
18244,NaN,-0.130869,9.708286,-1.759616,-0.006071,0.010368,0.054635,0.000917,0.003808,-0.010005,0.415043,0.504724,-0.578628,-0.488040,100.318884,0.707079,-98.395098
18245,NaN,-0.116619,9.717691,-1.789073,0.018558,-0.008561,0.068987,-0.003453,0.002588,-0.009388,0.415019,0.504734,-0.578617,-0.488063,100.318603,0.711045,-98.396217
18246,NaN,-0.130035,9.698109,-1.781282,0.016201,0.004766,0.048494,-0.001212,0.002807,-0.012165,0.414981,0.504758,-0.578606,-0.488083,100.319941,0.716643,-98.397011
18247,NaN,-0.133754,9.708358,-1.759003,-0.006899,0.011030,0.054633,-0.004476,0.004294,-0.009751,0.414964,0.504771,-0.578588,-0.488106,100.319086,0.720639,-98.397130
18248,NaN,-0.131907,9.698170,-1.780810,0.015665,0.005211,0.048495,0.000266,0.000641,-0.009155,0.414924,0.504783,-0.578592,-0.488122,100.321055,0.724679,-98.399534
18249,NaN,-0.117373,9.708255,-1.729311,-0.038650,-0.002163,0.049007,-0.002431,0.000883,-0.009028,0.414894,0.504790,-0.578588,-0.488145,100.321347,0.728617,-98.401651
18250,NaN,-0.151780,9.698310,-1.810023,0.046296,0.019304,0.054122,0.000916,0.003811,-0.010007,0.414858,0.504813,-0.578587,-0.488153,100.323993,0.732803,-98.402430
18251,NaN,-0.104031,9.717646,-1.758858,-0.014359,-0.020861,0.063364,-0.000107,0.005518,-0.010370,0.414832,0.504840,-0.578576,-0.488161,100.325651,0.737021,-98.401796
18252,NaN,-0.161756,9.728943,-1.743830,-0.022753,0.037891,0.072528,-0.004477,0.004296,-0.009754,0.414814,0.504854,-0.578558,-0.488183,100.324844,0.741060,-98.401955
18253,NaN,-0.136461,9.698205,-1.780277,0.014302,0.006323,0.048496,0.000460,0.004275,-0.012658,0.414777,0.504885,-0.578545,-0.488197,100.326822,0.746696,-98.401787
18254,NaN,-0.161190,9.718755,-1.765522,-0.000471,0.032277,0.066392,-0.003260,0.006223,-0.012894,0.414753,0.504916,-0.578520,-0.488216,100.326962,0.752357,-98.400550
18255,NaN,-0.159462,9.708538,-1.787487,0.022116,0.026444,0.060258,0.002313,-0.002767,-0.008433,0.414702,0.504922,-0.578536,-0.488234,100.329943,0.756335,-98.404786
18256,NaN,-0.127189,9.717838,-1.787555,0.015516,-0.006096,0.068994,-0.004560,-0.000116,-0.011192,0.414666,0.504923,-0.578528,-0.488273,100.328995,0.761400,-98.408075
18257,NaN,-0.140576,9.698263,-1.779640,0.013234,0.007233,0.048497,-0.002806,0.005762,-0.010246,0.414648,0.504945,-0.578510,-0.488287,100.329110,0.765523,-98.407316
18258,NaN,-0.123341,9.698193,-1.749902,-0.018268,-0.006161,0.042867,-0.004479,0.004298,-0.009757,0.414629,0.504957,-0.578494,-0.488309,100.328398,0.769493,-98.407682
18259,NaN,-0.150839,9.728316,-1.793900,0.023100,0.014263,0.080756,-0.002472,-0.001319,-0.009751,0.414591,0.504961,-0.578493,-0.488340,100.328650,0.774065,-98.410966
18260,NaN,-0.130972,9.718035,-1.786212,0.014429,-0.005194,0.068996,-0.003871,0.005263,-0.011328,0.414569,0.504981,-0.578472,-0.488361,100.328341,0.778843,-98.410668
18261,NaN,-0.147023,9.708645,-1.756358,-0.010688,0.014200,0.054626,-0.002056,-0.003988,-0.007819,0.414526,0.504973,-0.578483,-0.488393,100.328808,0.782600,-98.415655
18262,NaN,-0.132987,9.718109,-1.785661,0.013876,-0.004764,0.068997,-0.003344,0.001815,-0.014335,0.414487,0.504998,-0.578461,-0.488426,100.328800,0.789545,-98.416504
18263,NaN,-0.122878,9.677992,-1.792455,0.026058,-0.017189,0.030612,-0.002432,0.000889,-0.009034,0.414457,0.505005,-0.578457,-0.488450,100.329089,0.793485,-98.418617
18264,NaN,-0.116702,9.718023,-1.755976,-0.017895,-0.017939,0.063364,0.002056,0.008735,-0.007495,0.414440,0.505037,-0.578452,-0.488437,100.332184,0.795811,-98.416541
18265,NaN,-0.171614,9.718966,-1.763374,-0.003394,0.034757,0.066383,0.001521,0.004785,-0.011583,0.414405,0.505069,-0.578443,-0.488444,100.334772,0.800788,-98.416195
18266,NaN,-0.160145,9.738590,-1.770926,-0.001683,0.021857,0.086882,-0.001745,0.006268,-0.009169,0.414387,0.505093,-0.578429,-0.488451,100.335749,0.804397,-98.415009
18267,NaN,-0.158105,9.728413,-1.792746,0.020900,0.016005,0.080758,-0.002353,0.005304,-0.007599,0.414373,0.505107,-0.578420,-0.488459,100.336116,0.807076,-98.414780
18268,NaN,-0.137806,9.718149,-1.785073,0.012264,-0.003437,0.069000,-0.003609,0.001168,-0.005177,0.414355,0.505098,-0.578424,-0.488479,100.335692,0.808698,-98.417519
18269,NaN,-0.150648,9.698536,-1.777327,0.009999,0.009889,0.048499,-0.000603,0.011184,-0.006652,0.414356,0.505127,-0.578409,-0.488466,100.337107,0.810238,-98.414072
18270,NaN,-0.163321,9.678904,-1.769690,0.007656,0.023217,0.027997,-0.001442,0.004377,-0.002297,0.414347,0.505127,-0.578419,-0.488462,100.338452,0.810074,-98.415000
18271,NaN,-0.154099,9.708771,-1.755052,-0.013432,0.016416,0.054619,-0.002354,0.005305,-0.007600,0.414332,0.505141,-0.578410,-0.488470,100.338820,0.812753,-98.414770
18272,NaN,-0.139319,9.718273,-1.784284,0.011159,-0.002524,0.069001,-0.004408,-0.003433,-0.000104,0.414314,0.505104,-0.578436,-0.488494,100.337923,0.811977,-98.420830
18273,NaN,-0.154556,9.708897,-1.754312,-0.013939,0.016885,0.054618,-0.004139,0.004617,-0.002171,0.414316,0.505096,-0.578437,-0.488498,100.337254,0.811667,-98.421547
18274,NaN,-0.142240,9.728610,-1.761480,-0.012212,0.003996,0.075120,-0.003722,0.001946,-0.000237,0.414313,0.505079,-0.578450,-0.488504,100.336900,0.810617,-98.423801
18275,NaN,-0.146360,9.678465,-1.819526,0.054045,-0.000943,0.036264,-0.005433,-0.001727,-0.000467,0.414304,0.505049,-0.578465,-0.488524,100.335437,0.809998,-98.428269
18276,NaN,-0.139664,9.718572,-1.782629,0.010080,-0.001647,0.069003,-0.003153,0.000704,-0.002526,0.414288,0.505034,-0.578478,-0.488537,100.335485,0.810320,-98.431418
18277,NaN,-0.137227,9.708413,-1.804433,0.032660,-0.007516,0.062887,-0.001251,0.008014,-0.005800,0.414284,0.505052,-0.578471,-0.488532,100.336504,0.811706,-98.429847
18278,NaN,-0.143154,9.728832,-1.760183,-0.013266,0.004884,0.075118,-0.003570,0.003376,-0.004460,0.414274,0.505049,-0.578470,-0.488543,100.336118,0.812844,-98.431058
18279,NaN,-0.138117,9.708501,-1.803892,0.032151,-0.007081,0.062889,-0.003001,0.002135,-0.006749,0.414254,0.505051,-0.578468,-0.488560,100.336088,0.815369,-98.432703
18280,NaN,-0.141447,9.718736,-1.781594,0.009063,-0.000736,0.069004,-0.002962,0.004342,-0.006031,0.414241,0.505053,-0.578466,-0.488572,100.336086,0.817098,-98.433821
18281,NaN,-0.130636,9.678632,-1.788446,0.021250,-0.013192,0.030630,-0.001899,0.004843,-0.004949,0.414231,0.505059,-0.578466,-0.488575,100.336707,0.818330,-98.434125
18282,NaN,-0.139634,9.708618,-1.803144,0.031397,-0.006385,0.062892,-0.003001,0.002136,-0.006750,0.414210,0.505059,-0.578465,-0.488594,100.336617,0.820808,-98.436035
18283,NaN,-0.142979,9.718835,-1.780929,0.008305,-0.000063,0.069005,-0.001291,0.005809,-0.006520,0.414197,0.505073,-0.578460,-0.488596,100.337596,0.822826,-98.435632
18284,NaN,-0.161410,9.718972,-1.810162,0.039268,0.013738,0.074649,-0.002469,0.006085,-0.002661,0.414196,0.505074,-0.578462,-0.488593,100.338014,0.822640,-98.435704
18285,NaN,-0.146455,9.729111,-1.758365,-0.015064,0.006489,0.075115,-0.005318,-0.002503,-0.005410,0.414172,0.505056,-0.578468,-0.488626,100.336616,0.824887,-98.440101
18286,NaN,-0.156520,9.699342,-1.772414,0.005523,0.013711,0.048498,-0.003571,0.003377,-0.004462,0.414162,0.505052,-0.578469,-0.488638,100.336312,0.825963,-98.441603
18287,NaN,-0.135900,9.689093,-1.764748,-0.003139,-0.005744,0.036743,-0.002089,0.001206,-0.001446,0.414150,0.505038,-0.578484,-0.488643,100.336789,0.825595,-98.444317
18288,NaN,-0.159778,9.709632,-1.749775,-0.017835,0.020284,0.054605,-0.005242,0.001911,-0.003974,0.414139,0.505024,-0.578487,-0.488663,100.335561,0.826480,-98.446961
18289,NaN,-0.147704,9.729357,-1.756900,-0.016110,0.007411,0.075113,-0.003153,0.000705,-0.002528,0.414126,0.505010,-0.578499,-0.488675,100.335426,0.826773,-98.449847
18290,NaN,-0.154808,9.689415,-1.792946,0.027298,0.008520,0.042391,-0.006268,0.003617,-0.004337,0.414122,0.505000,-0.578494,-0.488694,100.333693,0.827727,-98.451369
18291,NaN,-0.134316,9.679188,-1.785162,0.018631,-0.010935,0.030638,-0.001900,0.004845,-0.004950,0.414112,0.505006,-0.578494,-0.488697,100.334313,0.828959,-98.451672
18292,NaN,-0.161074,9.709881,-1.748270,-0.018938,0.021188,0.054601,-0.003533,0.005585,-0.003744,0.414109,0.505009,-0.578492,-0.488699,100.334325,0.829510,-98.451671
18293,NaN,-0.170158,9.739877,-1.762894,-0.008805,0.027993,0.086863,-0.002811,0.005778,-0.010257,0.414091,0.505030,-0.578474,-0.488714,100.334439,0.833638,-98.450902
18294,NaN,-0.167907,9.729720,-1.784745,0.013740,0.022092,0.080759,-0.000799,0.007553,-0.003150,0.414089,0.505040,-0.578476,-0.488703,100.335892,0.833635,-98.449954
18295,NaN,-0.157157,9.689597,-1.791757,0.025932,0.009614,0.042394,-0.001140,0.007247,-0.010746,0.414069,0.505070,-0.578457,-0.488710,100.336976,0.837887,-98.448308
18296,NaN,-0.163339,9.709974,-1.747542,-0.020045,0.022064,0.054597,-0.002889,0.008760,-0.004597,0.414072,0.505085,-0.578448,-0.488705,100.337365,0.838648,-98.446356
18297,NaN,-0.145797,9.709339,-1.798773,0.027335,-0.003053,0.062906,-0.003990,0.006053,-0.006399,0.414067,0.505093,-0.578436,-0.488714,100.336800,0.840573,-98.445829
18298,NaN,-0.158555,9.689718,-1.790979,0.025093,0.010256,0.042395,-0.001863,0.007054,-0.004233,0.414063,0.505103,-0.578433,-0.488710,100.337559,0.841221,-98.445077
18299,NaN,-0.161641,9.699937,-1.768697,0.002005,0.016603,0.048495,-0.003916,0.010468,-0.004962,0.414074,0.505118,-0.578416,-0.488705,100.337071,0.841882,-98.442208
18300,NaN,-0.159067,9.689823,-1.790368,0.024554,0.010723,0.042396,-0.003498,0.007795,-0.003028,0.414078,0.505119,-0.578415,-0.488703,100.336981,0.841602,-98.441826
18301,NaN,-0.144196,9.699371,-1.819584,0.049094,-0.008279,0.056812,-0.003309,0.011437,-0.006534,0.414086,0.505142,-0.578393,-0.488697,100.336851,0.843049,-98.438250
18302,NaN,-0.144499,9.700030,-1.738063,-0.030067,0.003767,0.042839,-0.008322,0.007034,-0.005072,0.414096,0.505139,-0.578375,-0.488714,100.333972,0.844073,-98.437697
18303,NaN,-0.138879,9.679814,-1.781414,0.015340,-0.008275,0.030646,-0.005931,0.003925,0.003254,0.414113,0.505111,-0.578387,-0.488714,100.332263,0.840776,-98.439362
18304,NaN,-0.126536,9.699546,-1.788583,0.017010,-0.021154,0.051161,-0.001256,0.008025,-0.005805,0.414107,0.505129,-0.578380,-0.488709,100.333465,0.842240,-98.437813
18305,NaN,-0.150567,9.720027,-1.773787,0.002346,0.004876,0.069007,-0.002890,0.008764,-0.004600,0.414112,0.505141,-0.578370,-0.488705,100.333550,0.842872,-98.435943
18306,NaN,-0.142396,9.690133,-1.758515,-0.008296,-0.001471,0.036742,-0.004598,0.005089,-0.004832,0.414107,0.505139,-0.578365,-0.488716,100.332661,0.843949,-98.436585
18307,NaN,-0.148416,9.710003,-1.794967,0.024659,-0.000806,0.062913,-0.005589,0.009004,-0.004478,0.414119,0.505146,-0.578348,-0.488719,100.331202,0.844488,-98.434593
18308,NaN,-0.161092,9.690439,-1.786851,0.022438,0.012523,0.042399,-0.007296,0.005329,-0.004710,0.414122,0.505138,-0.578337,-0.488737,100.328818,0.845440,-98.435266
18309,NaN,-0.128242,9.699950,-1.786270,0.015706,-0.020017,0.051165,-0.006652,0.008505,-0.005563,0.414133,0.505145,-0.578316,-0.488746,100.326748,0.846642,-98.433443
18310,NaN,-0.191225,9.730890,-1.807933,0.040688,0.039209,0.086414,-0.005625,0.006798,-0.005198,0.414136,0.505151,-0.578302,-0.488755,100.325516,0.847906,-98.432546
18311,NaN,-0.134528,9.720455,-1.741178,-0.030515,-0.007291,0.063347,-0.004144,0.004623,-0.002179,0.414137,0.505143,-0.578303,-0.488759,100.324845,0.847599,-98.433260
18312,NaN,-0.131890,9.710365,-1.762799,-0.007970,-0.013225,0.057257,-0.004180,0.002415,-0.002898,0.414130,0.505134,-0.578307,-0.488770,100.324282,0.848013,-98.435026
18313,NaN,-0.129447,9.700291,-1.784330,0.014602,-0.019151,0.051169,-0.006045,0.009476,-0.007135,0.414138,0.505149,-0.578282,-0.488778,100.322570,0.850001,-98.432495
18314,NaN,-0.150901,9.710651,-1.791254,0.022724,0.000744,0.062918,-0.004409,0.008737,-0.008341,0.414135,0.505169,-0.578260,-0.488785,100.322103,0.852773,-98.430449
18315,NaN,-0.142167,9.740540,-1.776367,0.001582,-0.005971,0.089523,-0.003193,0.010676,-0.011483,0.414129,0.505206,-0.578228,-0.488791,100.322042,0.857089,-98.426795
18316,NaN,-0.134446,9.710638,-1.761102,-0.009074,-0.012357,0.057257,-0.004410,0.008739,-0.008342,0.414128,0.505229,-0.578202,-0.488798,100.321367,0.860015,-98.424080
18317,NaN,-0.156344,9.720981,-1.768044,-0.000896,0.007535,0.069005,-0.005773,0.010148,-0.016308,0.414115,0.505273,-0.578153,-0.488822,100.319831,0.867105,-98.420228
18318,NaN,-0.190739,9.711655,-1.767376,0.005363,0.040533,0.060234,-0.007305,0.017512,-0.012949,0.414134,0.505318,-0.578095,-0.488828,100.317388,0.871421,-98.413173
18319,NaN,-0.173505,9.711627,-1.737348,-0.026155,0.027245,0.054570,-0.005054,0.005564,-0.007493,0.414128,0.505326,-0.578079,-0.488844,100.316212,0.874013,-98.412811
18320,NaN,-0.146660,9.740919,-1.773921,0.000305,-0.004872,0.089524,-0.003418,0.004826,-0.008698,0.414113,0.505340,-0.578064,-0.488859,100.315883,0.877397,-98.412622
18321,NaN,-0.172042,9.701632,-1.758386,-0.003823,0.021524,0.048485,-0.008781,0.007512,-0.007740,0.414121,0.505346,-0.578034,-0.488882,100.312589,0.879928,-98.411136
18322,NaN,-0.151868,9.691480,-1.750278,-0.012555,0.002075,0.036737,-0.005475,0.008244,-0.009431,0.414117,0.505367,-0.578008,-0.488895,100.311411,0.883390,-98.409085
18323,NaN,-0.170582,9.691678,-1.779233,0.018457,0.015801,0.042402,-0.005055,0.005566,-0.007495,0.414111,0.505375,-0.577991,-0.488911,100.310235,0.885983,-98.408721
18324,NaN,-0.158859,9.711475,-1.786090,0.020147,0.002928,0.062923,-0.007753,0.005805,-0.007376,0.414112,0.505379,-0.577967,-0.488934,100.307429,0.888524,-98.408163
18325,NaN,-0.150704,9.681626,-1.770574,0.009519,-0.003433,0.030657,-0.005175,0.006334,-0.002550,0.414121,0.505375,-0.577962,-0.488938,100.306182,0.888251,-98.407873
18326,NaN,-0.138863,9.701442,-1.777351,0.011126,-0.016293,0.051178,-0.009236,0.007986,-0.010399,0.414122,0.505389,-0.577926,-0.488965,100.303017,0.892272,-98.406080
18327,NaN,-0.160224,9.711834,-1.784013,0.019314,0.003596,0.062925,-0.006846,0.004865,-0.002065,0.414131,0.505376,-0.577920,-0.488977,100.300800,0.891876,-98.406668
18328,NaN,-0.175745,9.702367,-1.753962,-0.005749,0.023081,0.048480,-0.005022,0.007778,-0.006778,0.414130,0.505388,-0.577904,-0.488985,100.299986,0.893840,-98.405489
18329,NaN,-0.176326,9.702460,-1.753388,-0.006003,0.023304,0.048479,-0.007113,0.008988,-0.008231,0.414136,0.505402,-0.577874,-0.489000,100.297662,0.896497,-98.403121
18330,NaN,-0.128475,9.721571,-1.782330,0.011939,-0.028478,0.071704,-0.004635,0.002891,-0.005561,0.414124,0.505399,-0.577871,-0.489017,100.296856,0.898284,-98.404623
18331,NaN,-0.128982,9.721658,-1.781819,0.011681,-0.028256,0.071705,-0.006051,0.009488,-0.007146,0.414133,0.505414,-0.577845,-0.489025,100.295143,0.900279,-98.402085
18332,NaN,-0.165468,9.722439,-1.759175,-0.004940,0.010895,0.069001,-0.006627,0.010726,-0.004857,0.414148,0.505425,-0.577823,-0.489027,100.293499,0.900902,-98.399350
18333,NaN,-0.163046,9.712396,-1.780697,0.017629,0.004938,0.062927,-0.004027,0.003863,-0.007133,0.414135,0.505430,-0.577814,-0.489043,100.292896,0.903465,-98.399985
18334,NaN,-0.169443,9.732711,-1.736242,-0.028327,0.017505,0.075072,-0.004415,0.008753,-0.008352,0.414134,0.505454,-0.577790,-0.489048,100.292395,0.906366,-98.397310
18335,NaN,-0.151993,9.732239,-1.787295,0.018982,-0.007718,0.083453,-0.005056,0.005573,-0.007501,0.414128,0.505463,-0.577773,-0.489064,100.291219,0.908961,-98.396943
18336,NaN,-0.146974,9.712499,-1.749800,-0.014442,-0.007880,0.057256,-0.007114,0.008992,-0.008235,0.414134,0.505475,-0.577744,-0.489080,100.288765,0.911516,-98.394889
18337,NaN,-0.159946,9.692890,-1.741729,-0.016611,0.005424,0.036730,-0.006086,0.007284,-0.007869,0.414134,0.505486,-0.577721,-0.489096,100.287015,0.914145,-98.393520
18338,NaN,-0.178677,9.693119,-1.770568,0.014332,0.019109,0.042403,-0.007180,0.004577,-0.009675,0.414123,0.505498,-0.577697,-0.489122,100.285062,0.918217,-98.393287
18339,NaN,-0.146207,9.702697,-1.769896,0.007533,-0.013413,0.051186,-0.006726,0.004104,-0.007018,0.414118,0.505498,-0.577681,-0.489146,100.282914,0.920692,-98.393798
18340,NaN,-0.167818,9.713019,-1.776851,0.015683,0.006480,0.062930,-0.003451,0.002631,-0.009426,0.414092,0.505508,-0.577672,-0.489168,100.282925,0.924671,-98.395170
18341,NaN,-0.147798,9.702870,-1.768815,0.006970,-0.012961,0.051187,-0.008850,0.003107,-0.009193,0.414083,0.505507,-0.577647,-0.489205,100.279555,0.928473,-98.396021
18342,NaN,-0.166510,9.703109,-1.797622,0.037960,0.000738,0.056864,-0.005058,0.005577,-0.007504,0.414075,0.505514,-0.577634,-0.489221,100.278589,0.931047,-98.396033
18343,NaN,-0.164501,9.693483,-1.738000,-0.018305,0.006768,0.036726,-0.009240,0.007999,-0.010413,0.414078,0.505528,-0.577595,-0.489248,100.275043,0.935037,-98.394001
18344,NaN,-0.183171,9.693713,-1.766848,0.012680,0.020457,0.042403,-0.003997,0.006077,-0.006418,0.414072,0.505538,-0.577585,-0.489257,100.274724,0.936994,-98.393604
18345,NaN,-0.150537,9.703292,-1.766270,0.005867,-0.012060,0.051189,-0.007758,0.005817,-0.007389,0.414073,0.505541,-0.577562,-0.489280,100.272002,0.939502,-98.393112
18346,NaN,-0.174931,9.723760,-1.750939,-0.008721,0.014052,0.068994,-0.007758,0.005818,-0.007389,0.414073,0.505539,-0.577541,-0.489305,100.269143,0.941830,-98.393245
18347,NaN,-0.164026,9.683798,-1.757460,0.003484,0.001489,0.030661,-0.005666,0.004607,-0.005935,0.414069,0.505540,-0.577530,-0.489322,100.267606,0.943641,-98.393584
18348,NaN,-0.152255,9.703616,-1.764337,0.005124,-0.011370,0.051190,-0.005698,0.002399,-0.006655,0.414057,0.505537,-0.577521,-0.489346,100.266042,0.946112,-98.395140
18349,NaN,-0.173754,9.713902,-1.771448,0.013333,0.008513,0.062932,-0.001329,0.003634,-0.007255,0.414036,0.505547,-0.577518,-0.489356,100.266983,0.948768,-98.395894
18350,NaN,-0.174524,9.713932,-1.771206,0.013042,0.008727,0.062932,-0.003843,0.007529,-0.010649,0.414023,0.505573,-0.577493,-0.489369,100.266723,0.953017,-98.394102
18351,NaN,-0.165874,9.743834,-1.756133,-0.008140,0.002083,0.089522,-0.005698,0.002400,-0.006657,0.414011,0.505570,-0.577484,-0.489393,100.265149,0.955461,-98.395612
18352,NaN,-0.178762,9.724159,-1.748335,-0.010267,0.015411,0.068991,-0.002329,0.007553,-0.006904,0.414003,0.505583,-0.577476,-0.489397,100.265459,0.957336,-98.394969
18353,NaN,-0.173767,9.704340,-1.711117,-0.043702,0.015263,0.042777,-0.004452,0.006557,-0.009080,0.413994,0.505599,-0.577455,-0.489412,100.264641,0.960721,-98.393888
18354,NaN,-0.180195,9.724251,-1.747679,-0.010774,0.015860,0.068990,-0.002783,0.008030,-0.009564,0.413983,0.505623,-0.577435,-0.489420,100.264783,0.964219,-98.392135
18355,NaN,-0.175227,9.704111,-1.791372,0.034610,0.003652,0.056876,-0.005151,-0.001042,-0.009670,0.413952,0.505622,-0.577427,-0.489458,100.263494,0.968713,-98.395279
18356,NaN,-0.155139,9.693964,-1.783428,0.025869,-0.015763,0.045137,-0.005061,0.005584,-0.007510,0.413943,0.505627,-0.577414,-0.489475,100.262412,0.971194,-98.395550
18357,NaN,-0.192034,9.694565,-1.761228,0.009382,0.023409,0.042400,0.000523,0.008770,-0.011251,0.413923,0.505665,-0.577395,-0.489474,100.264470,0.975578,-98.392999
18358,NaN,-0.183587,9.724402,-1.746487,-0.011851,0.016775,0.068987,-0.003208,0.010718,-0.011505,0.413915,0.505703,-0.577364,-0.489479,100.264668,0.979970,-98.389287
18359,NaN,-0.181433,9.714347,-1.768233,0.010713,0.010776,0.062933,-0.002999,0.002165,-0.006776,0.413895,0.505706,-0.577361,-0.489496,100.264637,0.982505,-98.390918
18360,NaN,-0.161112,9.704204,-1.760313,0.001958,-0.008644,0.051194,-0.006700,0.006321,-0.006309,0.413896,0.505707,-0.577346,-0.489513,100.262675,0.984288,-98.390721
18361,NaN,-0.164733,9.714379,-1.737742,-0.021115,-0.002196,0.057246,-0.004483,0.004353,-0.009804,0.413879,0.505720,-0.577327,-0.489535,100.261820,0.988307,-98.390809
18362,NaN,-0.171121,9.734327,-1.774149,0.011766,-0.001623,0.083467,-0.005699,0.002403,-0.006662,0.413866,0.505719,-0.577318,-0.489558,100.260449,0.990836,-98.392166
18363,NaN,-0.181173,9.704577,-1.788253,0.032451,0.005443,0.056882,-0.005486,0.008273,-0.009453,0.413864,0.505739,-0.577290,-0.489572,100.259057,0.994257,-98.390080
18364,NaN,-0.163926,9.704521,-1.758305,0.000849,-0.007755,0.051195,-0.004031,0.003877,-0.007146,0.413848,0.505744,-0.577284,-0.489588,100.258746,0.996823,-98.390996
18365,NaN,-0.194649,9.684993,-1.779830,0.030017,0.018963,0.036349,-0.007946,0.002163,-0.003889,0.413848,0.505728,-0.577276,-0.489613,100.255876,0.997730,-98.392923
18366,NaN,-0.170398,9.724598,-1.794033,0.033472,-0.006974,0.077420,-0.004214,0.000216,-0.003635,0.413833,0.505716,-0.577282,-0.489631,100.255325,0.998820,-98.395712
18367,NaN,-0.165227,9.704838,-1.756434,0.000046,-0.007103,0.051196,-0.010463,0.006063,-0.007287,0.413842,0.505714,-0.577252,-0.489661,100.251056,1.001246,-98.395094
18368,NaN,-0.198953,9.695414,-1.755776,0.006398,0.025858,0.042396,-0.004638,0.002903,-0.005575,0.413830,0.505709,-0.577250,-0.489679,100.250134,1.002961,-98.396845
18369,NaN,-0.151012,9.714725,-1.784612,0.024214,-0.025952,0.065687,-0.006307,0.001430,-0.005093,0.413820,0.505698,-0.577245,-0.489704,100.248197,1.004621,-98.399063
18370,NaN,-0.184731,9.705283,-1.784053,0.030576,0.007014,0.056887,-0.006731,0.004117,-0.007033,0.413813,0.505694,-0.577233,-0.489729,100.246063,1.006984,-98.400231
18371,NaN,-0.185405,9.705374,-1.783486,0.030321,0.007235,0.056888,-0.005092,0.003383,-0.008237,0.413798,0.505700,-0.577219,-0.489752,100.244847,1.010218,-98.401027
18372,NaN,-0.158883,9.735153,-1.738823,-0.022194,-0.012784,0.077777,-0.005489,0.008279,-0.009456,0.413796,0.505720,-0.577191,-0.489766,100.243492,1.013669,-98.398857
18373,NaN,-0.186875,9.705533,-1.782470,0.029805,0.007674,0.056889,-0.005460,0.010489,-0.008737,0.413802,0.505743,-0.577160,-0.489773,100.242137,1.016461,-98.395596
18374,NaN,-0.193691,9.725730,-1.737975,-0.016108,0.020375,0.068974,-0.003270,0.006315,-0.012953,0.413779,0.505775,-0.577133,-0.489793,100.242157,1.022153,-98.394089
18375,NaN,-0.170621,9.705498,-1.752266,-0.002036,-0.005302,0.051197,-0.002943,0.006589,-0.005339,0.413775,0.505784,-0.577125,-0.489795,100.242199,1.023427,-98.393373
18376,NaN,-0.213007,9.725925,-1.766963,0.014663,0.034239,0.074667,-0.002154,0.011231,-0.010423,0.413768,0.505819,-0.577099,-0.489795,100.242917,1.027050,-98.389926
18377,NaN,-0.187278,9.695847,-1.722440,-0.027245,0.014474,0.036697,-0.001757,0.006335,-0.009204,0.413751,0.505841,-0.577085,-0.489803,100.243643,1.030528,-98.388959
18378,NaN,-0.196593,9.725812,-1.737190,-0.017166,0.021277,0.068970,-0.000299,0.001936,-0.006894,0.413724,0.505850,-0.577089,-0.489812,100.245244,1.033207,-98.390592
18379,NaN,-0.161276,9.725332,-1.758993,-0.001245,-0.017471,0.071737,-0.002845,0.003630,-0.011015,0.413697,0.505868,-0.577074,-0.489834,100.245323,1.037983,-98.390966
18380,NaN,-0.153404,9.695173,-1.824822,0.066931,-0.036006,0.053624,-0.003642,0.013425,-0.013457,0.413694,0.505915,-0.577031,-0.489839,100.245107,1.043089,-98.385836
18381,NaN,-0.217240,9.726018,-1.765936,0.013373,0.035354,0.074664,-0.003398,0.007071,-0.008004,0.413687,0.505932,-0.577015,-0.489847,100.244899,1.045816,-98.384576
18382,NaN,-0.176358,9.705681,-1.750683,-0.003943,-0.003753,0.051197,-0.003271,0.006321,-0.012959,0.413664,0.505966,-0.576986,-0.489865,100.245146,1.051629,-98.382794
18383,NaN,-0.174404,9.695660,-1.772394,0.018616,-0.009791,0.045161,-0.003852,0.007553,-0.010667,0.413652,0.505991,-0.576961,-0.489879,100.244688,1.055809,-98.380991
18384,NaN,-0.235348,9.716430,-1.735465,-0.012168,0.055317,0.060156,-0.005285,0.014164,-0.012259,0.413657,0.506035,-0.576916,-0.489882,100.243771,1.060281,-98.375339
18385,NaN,-0.212293,9.696245,-1.749613,0.001895,0.029626,0.042388,-0.003660,-0.003221,-0.006654,0.413624,0.506022,-0.576923,-0.489915,100.243304,1.063296,-98.380021
18386,NaN,-0.149453,9.725325,-1.808018,0.044265,-0.041540,0.080215,-0.002446,-0.001264,-0.009799,0.413585,0.506029,-0.576921,-0.489943,100.243760,1.068018,-98.382966
18387,NaN,-0.177813,9.695879,-1.770855,0.017508,-0.008926,0.045164,-0.005868,0.015396,-0.009967,0.413603,0.506067,-0.576876,-0.489942,100.242229,1.071004,-98.376812
18388,NaN,-0.220737,9.716522,-1.704305,-0.044487,0.042823,0.054449,-0.005520,0.006081,-0.010189,0.413593,0.506081,-0.576851,-0.489965,100.240603,1.074973,-98.376166
18389,NaN,-0.224129,9.726459,-1.762647,0.011228,0.037096,0.074661,-0.006734,0.004123,-0.007045,0.413588,0.506081,-0.576835,-0.489988,100.238452,1.077460,-98.376667
18390,NaN,-0.197617,9.696264,-1.798741,0.048108,0.005129,0.050868,-0.004162,0.004637,-0.002201,0.413589,0.506073,-0.576837,-0.489994,100.237691,1.077138,-98.377574
18391,NaN,-0.209996,9.736579,-1.709925,-0.043390,0.030441,0.074986,-0.009204,0.012447,-0.009008,0.413609,0.506094,-0.576793,-0.490007,100.234217,1.079884,-98.373181
18392,NaN,-0.216651,9.696809,-1.745952,0.000047,0.031170,0.042383,-0.005829,0.003161,-0.001721,0.413608,0.506081,-0.576796,-0.490017,100.233106,1.079599,-98.374741
18393,NaN,-0.207544,9.726767,-1.730561,-0.021181,0.024608,0.068955,-0.008556,0.001187,-0.002331,0.413611,0.506056,-0.576793,-0.490044,100.229871,1.079727,-98.377378
18394,NaN,-0.189492,9.726584,-1.781307,0.026057,-0.000777,0.077445,-0.005855,0.000953,-0.002442,0.413605,0.506035,-0.576798,-0.490065,100.227981,1.079873,-98.380420
18395,NaN,-0.204984,9.716955,-1.751247,0.001159,0.018785,0.062926,-0.007923,0.004376,-0.003182,0.413613,0.506022,-0.576788,-0.490083,100.225143,1.080156,-98.381171
18396,NaN,-0.184071,9.706912,-1.743050,-0.007640,-0.000679,0.051195,-0.007018,0.003412,0.002144,0.413630,0.505999,-0.576792,-0.490088,100.222982,1.077788,-98.382277
18397,NaN,-0.181105,9.696999,-1.764378,0.014916,-0.006737,0.045170,-0.007949,0.002168,-0.003904,0.413630,0.505982,-0.576785,-0.490113,100.220108,1.078703,-98.384200
18398,NaN,-0.205340,9.717377,-1.748860,0.000398,0.019440,0.062925,-0.011684,0.004116,-0.004165,0.413643,0.505959,-0.576767,-0.490147,100.214933,1.079393,-98.385616
18399,NaN,-0.214805,9.687691,-1.762744,0.021127,0.026437,0.036355,-0.005428,-0.001738,-0.000501,0.413634,0.505929,-0.576783,-0.490168,100.213455,1.078785,-98.390089
18400,NaN,-0.190311,9.727402,-1.776747,0.024481,0.000519,0.077449,-0.008505,0.005608,-0.000891,0.413652,0.505915,-0.576773,-0.490178,100.210535,1.077817,-98.390015
18401,NaN,-0.181786,9.697565,-1.761194,0.013888,-0.005847,0.045172,-0.006889,0.002667,-0.002814,0.413653,0.505899,-0.576770,-0.490197,100.208271,1.078065,-98.391768
18402,NaN,-0.205914,9.717888,-1.745954,-0.000663,0.020319,0.062923,-0.006890,0.002667,-0.002814,0.413653,0.505881,-0.576769,-0.490217,100.206030,1.078275,-98.393811
18403,NaN,-0.172929,9.727626,-1.745147,-0.007610,-0.012161,0.071742,-0.006864,0.004876,-0.002093,0.413662,0.505869,-0.576764,-0.490229,100.203802,1.077892,-98.394391
18404,NaN,-0.203250,9.708089,-1.766688,0.021613,0.014475,0.056903,-0.006890,0.002668,-0.002815,0.413662,0.505852,-0.576762,-0.490247,100.201689,1.078149,-98.396342
18405,NaN,-0.206578,9.718204,-1.744116,-0.001448,0.020992,0.062922,-0.003984,0.008314,-0.005716,0.413665,0.505865,-0.576747,-0.490249,100.201155,1.079461,-98.394615
18406,NaN,-0.170558,9.717874,-1.765609,0.014322,-0.017794,0.065724,-0.004746,0.005870,0.000090,0.413675,0.505855,-0.576752,-0.490246,100.200622,1.077886,-98.394809
18407,NaN,-0.162192,9.687957,-1.750468,0.003731,-0.024160,0.033447,-0.002367,0.005374,-0.007640,0.413661,0.505869,-0.576742,-0.490255,100.200987,1.080581,-98.394546
18408,NaN,-0.171351,9.717966,-1.765025,0.013774,-0.017368,0.065726,-0.002949,0.006603,-0.005347,0.413657,0.505881,-0.576733,-0.490256,100.201218,1.082004,-98.393514
18409,NaN,-0.189813,9.718166,-1.794214,0.044846,-0.003802,0.071439,-0.004462,0.006591,-0.009103,0.413648,0.505898,-0.576712,-0.490271,100.200399,1.085401,-98.392416
18410,NaN,-0.172644,9.718065,-1.764354,0.013253,-0.016926,0.065727,-0.002367,0.005375,-0.007641,0.413633,0.505912,-0.576703,-0.490280,100.200822,1.088126,-98.392171
18411,NaN,-0.170275,9.708089,-1.786092,0.035804,-0.023008,0.059714,-0.004437,0.008801,-0.008382,0.413632,0.505932,-0.576679,-0.490288,100.200039,1.090892,-98.389900
18412,NaN,-0.183360,9.688373,-1.778204,0.033719,-0.009735,0.039164,-0.007616,0.007313,-0.011661,0.413626,0.505952,-0.576643,-0.490315,100.197539,1.095692,-98.388196
18413,NaN,-0.199474,9.678681,-1.748215,0.008850,0.009847,0.024626,-0.005473,0.010516,-0.008755,0.413632,0.505975,-0.576613,-0.490322,100.196182,1.098494,-98.384920
18414,NaN,-0.199306,9.738506,-1.748082,-0.002100,0.009915,0.083469,0.001238,0.004172,-0.002422,0.413616,0.505979,-0.576629,-0.490312,100.198767,1.098389,-98.385989
18415,NaN,-0.191320,9.708536,-1.733192,-0.012686,0.003550,0.051189,-0.003272,0.006348,-0.012972,0.413594,0.506009,-0.576602,-0.490332,100.198635,1.103993,-98.384635
18416,NaN,-0.213055,9.718749,-1.740292,-0.004445,0.023403,0.062916,-0.005046,0.007823,-0.006814,0.413595,0.506022,-0.576582,-0.490340,100.197664,1.106076,-98.382947
18417,NaN,-0.210418,9.708807,-1.761897,0.018108,0.017313,0.056905,-0.004594,0.007338,-0.004149,0.413600,0.506026,-0.576572,-0.490343,100.196768,1.106604,-98.381930
18418,NaN,-0.231645,9.719037,-1.768954,0.026383,0.037193,0.068631,-0.004618,0.005129,-0.004871,0.413596,0.506024,-0.576567,-0.490355,100.195858,1.107670,-98.382566
18419,NaN,-0.177785,9.718602,-1.760878,0.010870,-0.014920,0.065733,-0.003737,0.001948,-0.000264,0.413594,0.506006,-0.576580,-0.490361,100.195387,1.106553,-98.384984
18420,NaN,-0.210941,9.709014,-1.760691,0.017375,0.017982,0.056905,-0.004142,0.006853,-0.001485,0.413605,0.506003,-0.576576,-0.490359,100.194573,1.105684,-98.384257
18421,NaN,-0.217081,9.729126,-1.716067,-0.028487,0.030844,0.068919,-0.006463,-0.000026,-0.000879,0.413602,0.505976,-0.576585,-0.490379,100.192520,1.105114,-98.387726
