// General information: 
//  MT Manager version: 2019.0.1 
//  XDA version: 2019.0.1 build 2740 rev 84096 built on 2019-01-30
// Device information: 
//  DeviceId: 00B4381A
//  ProductCode: MTW2-3A7G6
//  Firmware Version: 4.3.4
//  Hardware Version: 1.1.0
// Device settings: 
//  Filter Profile: human(46.1)
//  Option Flags: Orientation Smoother Disabled, AHS Disabled, ICC Disabled
// Coordinate system: ENU
PacketCounter,SampleTimeFine,Acc_X,Acc_Y,Acc_Z,FreeAcc_E,FreeAcc_N,FreeAcc_U,Gyr_X,Gyr_Y,Gyr_Z,Quat_q0,Quat_q1,Quat_q2,Quat_q3,Roll,Pitch,Yaw
53015,NaN,-1.018775,9.715669,0.853256,0.075789,0.028368,-0.006892,-0.008244,-0.030942,0.047867,0.107288,0.161965,-0.655870,-0.729446,84.974125,5.483369,-158.242836
53016,NaN,-1.057055,9.716129,0.813082,0.129536,0.006496,-0.006322,-0.012473,-0.030966,0.045135,0.107287,0.161739,-0.655911,-0.729460,84.972056,5.464172,-158.261023
53017,NaN,-1.086069,9.716216,0.863858,0.140580,0.065081,0.000908,-0.010072,-0.024994,0.047117,0.107320,0.161527,-0.655959,-0.729458,84.971701,5.443243,-158.275071
53018,NaN,-1.124858,9.716698,0.823732,0.194337,0.043205,0.001508,-0.011478,-0.030097,0.036450,0.107291,0.161334,-0.655996,-0.729472,84.970211,5.428971,-158.293089
53019,NaN,-1.123692,9.675863,0.799118,0.207307,0.025392,-0.041302,-0.013672,-0.028578,0.036647,0.107277,0.161141,-0.656025,-0.729490,84.967557,5.413836,-158.309719
53020,NaN,-1.107775,9.647047,0.845073,0.178984,0.065756,-0.067408,-0.008986,-0.037771,0.029993,0.107195,0.160942,-0.656071,-0.729506,84.967082,5.403002,-158.332656
53021,NaN,-1.150861,9.676150,0.850781,0.216657,0.084481,-0.034032,0.001721,-0.036352,0.025918,0.107104,0.160764,-0.656151,-0.729486,84.972784,5.393601,-158.354283
53022,NaN,-1.105322,9.676233,0.892384,0.159531,0.107411,-0.034621,0.003542,-0.041270,0.016787,0.106951,0.160599,-0.656234,-0.729470,84.979278,5.389988,-158.380212
53023,NaN,-1.102146,9.696987,0.905713,0.150703,0.117184,-0.013190,0.001389,-0.046570,0.012767,0.106779,0.160427,-0.656308,-0.729466,84.984181,5.387585,-158.408361
53024,NaN,-1.040472,9.734375,0.887034,0.098589,0.073612,0.016470,-0.002286,-0.053088,0.011625,0.106577,0.160237,-0.656371,-0.729481,84.986599,5.386407,-158.440698
53025,NaN,-0.960777,9.755047,0.893281,0.021689,0.047800,0.030037,-0.012643,-0.058776,0.009997,0.106366,0.160022,-0.656398,-0.729535,84.982794,5.384975,-158.475984
53026,NaN,-0.927014,9.734729,0.832598,0.014661,-0.018900,0.001433,-0.015101,-0.057955,0.012230,0.106166,0.159810,-0.656415,-0.729595,84.977525,5.383176,-158.510227
53027,NaN,-0.901220,9.730614,0.838492,-0.010141,-0.022789,-0.004554,-0.013416,-0.052186,0.020857,0.106017,0.159584,-0.656444,-0.729640,84.973686,5.375871,-158.541187
53028,NaN,-0.952933,9.706016,0.838935,0.040265,-0.000362,-0.024071,-0.003589,-0.047913,0.026537,0.105889,0.159365,-0.656510,-0.729647,84.975682,5.366467,-158.569387
53029,NaN,-0.976272,9.739059,0.882048,0.045698,0.045277,0.014634,-0.001492,-0.044511,0.030004,0.105789,0.159142,-0.656586,-0.729642,84.979140,5.354328,-158.595486
53030,NaN,-1.056800,9.706314,0.897986,0.117690,0.094334,-0.008964,0.000199,-0.037659,0.028764,0.105698,0.158954,-0.656663,-0.729627,84.983896,5.344199,-158.618104
53031,NaN,-1.052545,9.727131,0.911603,0.108835,0.104129,0.012447,-0.002640,-0.040210,0.022074,0.105584,0.158773,-0.656726,-0.729626,84.986897,5.336805,-158.642136
53032,NaN,-1.103386,9.723161,0.924797,0.151976,0.135756,0.014369,-0.006353,-0.038822,0.015293,0.105447,0.158621,-0.656768,-0.729641,84.987732,5.334174,-158.665755
53033,NaN,-1.092130,9.727606,0.872879,0.161027,0.082802,0.013207,-0.016762,-0.053219,0.008911,0.105254,0.158428,-0.656776,-0.729704,84.981890,5.333641,-158.697907
53034,NaN,-1.092657,9.706982,0.861724,0.166641,0.074123,-0.008163,-0.011290,-0.051626,0.000908,0.105018,0.158268,-0.656798,-0.729753,84.979291,5.338623,-158.730896
53035,NaN,-1.090704,9.727395,0.877005,0.157774,0.083926,0.013250,-0.020853,-0.063142,-0.001159,0.104759,0.158070,-0.656788,-0.729842,84.970525,5.343334,-158.769245
53036,NaN,-1.056949,9.727470,0.829928,0.143432,0.026438,0.006086,-0.017804,-0.068637,-0.001285,0.104471,0.157858,-0.656791,-0.729927,84.963160,5.348787,-158.811031
53037,NaN,-1.036971,9.731161,0.869449,0.109685,0.053941,0.011355,-0.015046,-0.066911,-0.005018,0.104180,0.157662,-0.656801,-0.730001,84.957494,5.355501,-158.851737
53038,NaN,-1.031494,9.743480,0.851264,0.109598,0.032314,0.021487,-0.013416,-0.061938,-0.006805,0.103883,0.157488,-0.656814,-0.730070,84.953057,5.364504,-158.891078
53039,NaN,-0.984160,9.734923,0.860905,0.061577,0.023978,0.009435,-0.013485,-0.063839,-0.007359,0.103593,0.157312,-0.656826,-0.730138,84.948427,5.372703,-158.930144
53040,NaN,-0.970530,9.800834,0.848506,0.048464,-0.001348,0.072447,-0.012787,-0.056801,-0.009780,0.103303,0.157169,-0.656835,-0.730201,84.944579,5.383595,-158.966380
53041,NaN,-0.899523,9.788126,0.861554,-0.022794,-0.014135,0.054334,-0.008810,-0.057517,-0.005048,0.103038,0.157010,-0.656863,-0.730248,84.942967,5.390789,-159.001706
53042,NaN,-0.913319,9.866289,0.878551,-0.021660,-0.003615,0.134633,-0.015561,-0.058580,-0.006055,0.102766,0.156853,-0.656864,-0.730319,84.937314,5.399460,-159.037715
53043,NaN,-0.882554,9.894963,0.877550,-0.052183,-0.020392,0.160083,-0.020705,-0.064469,-0.003762,0.102492,0.156658,-0.656853,-0.730410,84.928507,5.405562,-159.076964
53044,NaN,-0.880578,9.915317,0.893161,-0.061240,-0.010589,0.181451,-0.017302,-0.075326,0.000246,0.102183,0.156412,-0.656863,-0.730496,84.921119,5.409636,-159.123282
53045,NaN,-0.816658,9.993446,0.902255,-0.128083,-0.035500,0.253706,-0.024020,-0.084346,0.004870,0.101878,0.156115,-0.656856,-0.730609,84.909375,5.409790,-159.173487
53046,NaN,-0.742146,10.001244,0.929999,-0.206864,-0.039063,0.256882,-0.030865,-0.090303,0.012628,0.101574,0.155766,-0.656834,-0.730745,84.893461,5.406156,-159.227863
53047,NaN,-0.677471,10.009813,0.867093,-0.242735,-0.123049,0.253747,-0.027928,-0.079053,0.024089,0.101360,0.155423,-0.656825,-0.730856,84.879864,5.395588,-159.274047
53048,NaN,-0.597225,10.009709,0.861263,-0.312537,-0.157972,0.245647,-0.029482,-0.068498,0.034892,0.101209,0.155080,-0.656814,-0.730959,84.866065,5.380164,-159.314792
53049,NaN,-0.566583,9.977004,0.821779,-0.321043,-0.202425,0.206938,-0.030283,-0.058823,0.048911,0.101154,0.154728,-0.656806,-0.731049,84.852350,5.356448,-159.348094
53050,NaN,-0.589129,9.968816,0.841230,-0.301137,-0.175233,0.202833,-0.019699,-0.068288,0.072124,0.101137,0.154273,-0.656857,-0.731101,84.844273,5.319764,-159.386006
53051,NaN,-0.536216,9.968670,0.883662,-0.358131,-0.152105,0.201871,-0.007190,-0.080033,0.097133,0.101170,0.153697,-0.656981,-0.731107,84.842943,5.267429,-159.428959
53052,NaN,-0.546819,9.993998,0.893883,-0.343988,-0.137788,0.229260,0.002956,-0.100918,0.117003,0.101186,0.152981,-0.657168,-0.731087,84.846543,5.203389,-159.484251
53053,NaN,-0.568848,10.002500,0.977197,-0.341868,-0.047740,0.247598,0.012744,-0.127482,0.147636,0.101233,0.152075,-0.657427,-0.731037,84.854522,5.119800,-159.551780
53054,NaN,-0.587629,10.011309,1.060221,-0.339876,0.042286,0.265921,0.013063,-0.152035,0.172256,0.101275,0.150995,-0.657718,-0.730993,84.861738,5.021689,-159.633553
53055,NaN,-0.587866,10.008880,1.023066,-0.309286,0.015985,0.260742,0.010417,-0.174238,0.193875,0.101338,0.149765,-0.658024,-0.730962,84.866501,4.909331,-159.725483
53056,NaN,-0.632711,9.940557,1.050641,-0.254566,0.073421,0.199735,0.013487,-0.195326,0.215262,0.101456,0.148441,-0.658357,-0.730916,84.872414,4.784429,-159.820120
53057,NaN,-0.635356,9.954630,1.080192,-0.241889,0.109925,0.216994,0.021359,-0.218203,0.232093,0.101506,0.146930,-0.658752,-0.730858,84.881938,4.648034,-159.935255
53058,NaN,-0.721710,9.916653,1.113743,-0.148088,0.185513,0.189557,0.024418,-0.242590,0.250289,0.101594,0.145326,-0.659170,-0.730790,84.892459,4.500679,-160.054330
53059,NaN,-0.719857,9.931467,1.142851,-0.135410,0.222023,0.206825,0.034432,-0.294512,0.268048,0.101513,0.143423,-0.659674,-0.730723,84.906841,4.339922,-160.211313
53060,NaN,-0.798284,9.964232,1.249384,-0.072788,0.356807,0.254658,0.033485,-0.319631,0.278904,0.101441,0.141446,-0.660180,-0.730660,84.920137,4.172483,-160.373483
53061,NaN,-0.829405,9.967608,1.350740,-0.049038,0.473486,0.268926,0.020050,-0.364359,0.285253,0.101202,0.139222,-0.660674,-0.730675,84.924408,3.998427,-160.569551
53062,NaN,-0.803017,9.937248,1.360010,-0.044915,0.486993,0.237391,0.003724,-0.399890,0.292883,0.100946,0.136894,-0.661114,-0.730752,84.918451,3.818577,-160.775558
53063,NaN,-0.770472,9.947646,1.396985,-0.055453,0.519073,0.248537,-0.009323,-0.422376,0.300067,0.100589,0.134393,-0.661532,-0.730887,84.905021,3.633082,-161.003936
53064,NaN,-0.726909,9.953925,1.348090,-0.046583,0.466158,0.247470,-0.027611,-0.425378,0.307856,0.100321,0.131903,-0.661873,-0.731069,84.881676,3.443285,-161.223949
53065,NaN,-0.743597,9.924756,1.323017,0.013103,0.457246,0.217005,-0.042672,-0.425129,0.307853,0.100004,0.129347,-0.662167,-0.731303,84.850587,3.253025,-161.453259
53066,NaN,-0.786218,9.908842,1.330464,0.086863,0.484169,0.203866,-0.055316,-0.432005,0.311709,0.099744,0.126805,-0.662404,-0.731569,84.812706,3.060574,-161.676669
53067,NaN,-0.735683,9.918931,1.232173,0.106457,0.377766,0.201828,-0.073127,-0.442960,0.318517,0.099425,0.124132,-0.662593,-0.731899,84.765231,2.862992,-161.915270
53068,NaN,-0.713914,9.921719,1.153251,0.147553,0.297970,0.195783,-0.084752,-0.463842,0.320792,0.099103,0.121421,-0.662737,-0.732267,84.711360,2.663294,-162.156904
53069,NaN,-0.681493,9.874145,1.105743,0.169863,0.248737,0.141959,-0.093499,-0.474941,0.326121,0.098717,0.118594,-0.662862,-0.732670,84.653101,2.459232,-162.412914
53070,NaN,-0.703938,9.863782,0.923316,0.284436,0.083689,0.114760,-0.095216,-0.488711,0.324490,0.098331,0.115770,-0.662972,-0.733073,84.594478,2.255449,-162.668262
53071,NaN,-0.621956,9.825852,0.893906,0.252938,0.034787,0.070022,-0.099308,-0.518749,0.331616,0.097822,0.112760,-0.663089,-0.733505,84.533817,2.045349,-162.948481
53072,NaN,-0.574461,9.732288,0.822527,0.266958,-0.037445,-0.032544,-0.088643,-0.536046,0.338984,0.097336,0.109722,-0.663240,-0.733893,84.479835,1.829960,-163.228242
53073,NaN,-0.574540,9.761577,0.755272,0.323996,-0.103465,-0.010998,-0.077356,-0.551168,0.340226,0.096737,0.106572,-0.663445,-0.734251,84.433322,1.612630,-163.526015
53074,NaN,-0.493003,9.731238,0.755762,0.283498,-0.120932,-0.044572,-0.067164,-0.567260,0.354673,0.096186,0.103373,-0.663687,-0.734562,84.393536,1.386284,-163.822967
53075,NaN,-0.496808,9.748549,0.707248,0.338973,-0.164791,-0.033166,-0.057553,-0.576362,0.355239,0.095546,0.100088,-0.663971,-0.734844,84.360409,1.158565,-164.133903
53076,NaN,-0.457575,9.765593,0.782781,0.319415,-0.101152,-0.010824,-0.055282,-0.594535,0.365173,0.094932,0.096753,-0.664262,-0.735107,84.329836,0.924147,-164.446158
53077,NaN,-0.416878,9.766777,0.790697,0.317915,-0.100393,-0.010767,-0.053108,-0.605198,0.371605,0.094251,0.093308,-0.664568,-0.735363,84.301580,0.685129,-164.772317
53078,NaN,-0.357992,9.832859,0.782975,0.304652,-0.125205,0.052285,-0.053902,-0.612095,0.377814,0.093617,0.089856,-0.664867,-0.735605,84.274683,0.441838,-165.094648
53079,NaN,-0.344708,9.918793,0.806971,0.328710,-0.109751,0.138807,-0.060950,-0.615181,0.382502,0.092945,0.086332,-0.665137,-0.735868,84.244673,0.195716,-165.425613
53080,NaN,-0.301455,9.919522,0.815295,0.327248,-0.108801,0.138865,-0.066766,-0.616633,0.388886,0.092341,0.082818,-0.665379,-0.736129,84.213309,-0.054648,-165.749545
53081,NaN,-0.230149,9.926008,0.804115,0.304114,-0.134601,0.142936,-0.077323,-0.611668,0.393477,0.091725,0.079261,-0.665574,-0.736421,84.176795,-0.307196,-166.077591
53082,NaN,-0.220297,9.892532,0.786700,0.340785,-0.147754,0.106561,-0.077083,-0.587405,0.391676,0.091234,0.075842,-0.665747,-0.736685,84.142113,-0.557700,-166.383892
53083,NaN,-0.208931,9.863836,0.714985,0.388033,-0.214561,0.069284,-0.077147,-0.581816,0.393596,0.090715,0.072392,-0.665914,-0.736946,84.108370,-0.808965,-166.694630
53084,NaN,-0.184712,9.799357,0.739218,0.398460,-0.187907,0.006362,-0.073362,-0.567766,0.386772,0.090269,0.069062,-0.666075,-0.737174,84.078464,-1.056049,-166.989703
53085,NaN,-0.216670,9.807299,0.767395,0.464990,-0.151483,0.014807,-0.064993,-0.559883,0.386303,0.089790,0.065721,-0.666258,-0.737373,84.054121,-1.302178,-167.288155
53086,NaN,-0.160490,9.681936,0.731033,0.453116,-0.183834,-0.114192,-0.058452,-0.558719,0.380431,0.089349,0.062455,-0.666452,-0.737535,84.034975,-1.545397,-167.577375
53087,NaN,-0.141798,9.691777,0.825109,0.455202,-0.093538,-0.095931,-0.047843,-0.561006,0.373719,0.088813,0.059158,-0.666679,-0.737666,84.023026,-1.784617,-167.877120
53088,NaN,-0.125219,9.694057,0.884808,0.466351,-0.034516,-0.088774,-0.041499,-0.560669,0.369844,0.088316,0.055926,-0.666920,-0.737760,84.016323,-2.021761,-168.168428
53089,NaN,-0.005070,9.616454,0.971015,0.365963,0.036868,-0.154340,-0.044673,-0.558577,0.353658,0.087710,0.052705,-0.667138,-0.737873,84.008644,-2.249490,-168.468001
53090,NaN,0.090443,9.633773,0.966397,0.312255,0.016045,-0.135199,-0.053058,-0.550956,0.349081,0.087171,0.049572,-0.667312,-0.737996,83.997540,-2.474402,-168.754946
53091,NaN,0.248939,9.599284,1.055604,0.175264,0.079414,-0.154252,-0.059641,-0.532587,0.340807,0.086607,0.046482,-0.667447,-0.738142,83.982994,-2.693367,-169.040475
53092,NaN,0.301000,9.637176,1.085964,0.158832,0.099020,-0.111661,-0.073111,-0.511848,0.351172,0.086208,0.043477,-0.667519,-0.738307,83.961692,-2.917201,-169.305102
53093,NaN,0.407152,9.600644,1.110113,0.086337,0.108548,-0.140505,-0.088505,-0.490547,0.354862,0.085841,0.040482,-0.667519,-0.738519,83.931511,-3.141850,-169.565736
53094,NaN,0.436112,9.571006,1.071128,0.101472,0.068817,-0.172849,-0.103877,-0.468913,0.363214,0.085634,0.037583,-0.667450,-0.738759,83.893272,-3.369970,-169.804861
53095,NaN,0.451949,9.496877,1.062141,0.121083,0.063927,-0.246905,-0.110186,-0.462170,0.367565,0.085411,0.034640,-0.667349,-0.739020,83.851696,-3.600457,-170.048347
53096,NaN,0.489236,9.420219,0.997923,0.128124,0.001012,-0.328006,-0.114487,-0.457206,0.371466,0.085278,0.031757,-0.667223,-0.739279,83.808513,-3.832787,-170.279369
53097,NaN,0.539960,9.382664,0.959283,0.120190,-0.043315,-0.366539,-0.123474,-0.453931,0.368000,0.085086,0.028837,-0.667058,-0.739569,83.760945,-4.063383,-170.517898
53098,NaN,0.629983,9.304551,0.959377,0.062740,-0.052442,-0.437980,-0.123922,-0.441123,0.360566,0.084966,0.026049,-0.666877,-0.739850,83.713491,-4.288557,-170.739830
53099,NaN,0.652311,9.262022,0.943308,0.076464,-0.070151,-0.480512,-0.133748,-0.429975,0.354799,0.084805,0.023257,-0.666651,-0.740164,83.660905,-4.510531,-170.965254
53100,NaN,0.765948,9.187644,0.920234,-0.002583,-0.105930,-0.547972,-0.126501,-0.431324,0.355930,0.084699,0.020520,-0.666445,-0.740443,83.613317,-4.732648,-171.181575
53101,NaN,0.861353,9.193961,0.970575,-0.066873,-0.073285,-0.528135,-0.122246,-0.430626,0.351911,0.084522,0.017740,-0.666252,-0.740709,83.569088,-4.953395,-171.407323
53102,NaN,0.908599,9.203399,1.045207,-0.086496,-0.009570,-0.506083,-0.130507,-0.435822,0.352933,0.084391,0.014996,-0.666022,-0.740991,83.520960,-5.174449,-171.625912
53103,NaN,0.974600,9.059391,1.059331,-0.131770,0.006861,-0.640607,-0.137244,-0.444822,0.357463,0.084187,0.012138,-0.665769,-0.741294,83.470575,-5.399653,-171.859199
53104,NaN,1.066854,9.038878,1.149433,-0.199260,0.083656,-0.641326,-0.115500,-0.465766,0.368999,0.084014,0.009235,-0.665598,-0.741509,83.434466,-5.632279,-172.093790
53105,NaN,1.151568,9.154711,1.176100,-0.235225,0.087015,-0.514568,-0.116569,-0.444838,0.359365,0.083814,0.006379,-0.665411,-0.741730,83.397761,-5.858889,-172.326826
53106,NaN,1.242248,9.120311,1.286135,-0.304311,0.185917,-0.525595,-0.138419,-0.425369,0.358411,0.083735,0.003652,-0.665127,-0.742011,83.348117,-6.083073,-172.538866
53107,NaN,1.278338,9.029628,1.328246,-0.318289,0.230019,-0.605178,-0.134980,-0.393683,0.351842,0.083677,0.001003,-0.664840,-0.742284,83.299548,-6.302368,-172.742948
53108,NaN,1.378774,9.075427,1.259637,-0.367405,0.142726,-0.555496,-0.135828,-0.366960,0.354118,0.083776,-0.001492,-0.664532,-0.742548,83.249177,-6.520567,-172.921471
53109,NaN,1.607589,9.174692,1.209482,-0.537746,0.052690,-0.435583,-0.140699,-0.355225,0.366954,0.083901,-0.004051,-0.664198,-0.742823,83.196204,-6.746216,-173.102282
53110,NaN,1.667865,9.230195,1.200315,-0.551216,0.028007,-0.372652,-0.136838,-0.306075,0.371124,0.084264,-0.006377,-0.663852,-0.743074,83.142452,-6.970315,-173.244578
53111,NaN,1.807068,9.258798,1.270556,-0.653850,0.074865,-0.316799,-0.141815,-0.261637,0.372832,0.084720,-0.008608,-0.663467,-0.743343,83.083547,-7.193222,-173.371073
53112,NaN,1.741164,9.313672,1.306288,-0.547071,0.107740,-0.264310,-0.137575,-0.228584,0.373466,0.085349,-0.010655,-0.663079,-0.743591,83.024816,-7.413727,-173.468449
53113,NaN,1.829541,9.352614,1.350054,-0.594292,0.132254,-0.206937,-0.142192,-0.205895,0.387208,0.086043,-0.012727,-0.662662,-0.743851,82.962305,-7.641174,-173.561613
53114,NaN,1.841442,9.458362,1.398491,-0.555070,0.162016,-0.092976,-0.146884,-0.194756,0.404493,0.086899,-0.014755,-0.662217,-0.744110,82.896082,-7.877198,-173.636969
53115,NaN,1.897564,9.460411,1.476235,-0.574682,0.225948,-0.071132,-0.165332,-0.183781,0.426487,0.087809,-0.016885,-0.661694,-0.744423,82.818854,-8.125619,-173.714170
53116,NaN,1.921148,9.372413,1.381832,-0.558210,0.131409,-0.163162,-0.181249,-0.171809,0.451103,0.088910,-0.018997,-0.661101,-0.744768,82.731266,-8.386722,-173.772443
53117,NaN,1.894754,9.363496,1.446793,-0.493178,0.190287,-0.164956,-0.183014,-0.152588,0.467421,0.090074,-0.021153,-0.660487,-0.745115,82.641401,-8.656357,-173.828052
53118,NaN,1.879231,9.405715,1.429769,-0.422068,0.160661,-0.125631,-0.185041,-0.139758,0.480746,0.091390,-0.023245,-0.659853,-0.745454,82.548960,-8.932157,-173.864904
53119,NaN,1.887351,9.438500,1.410506,-0.373999,0.126645,-0.092566,-0.194712,-0.125136,0.493568,0.092739,-0.025391,-0.659172,-0.745820,82.449991,-9.214771,-173.901933
53120,NaN,1.856780,9.483330,1.452945,-0.290461,0.155131,-0.046236,-0.194495,-0.091955,0.494555,0.094263,-0.027354,-0.658470,-0.746179,82.347698,-9.494936,-173.909242
53121,NaN,1.853989,9.603757,1.460101,-0.217406,0.136216,0.073428,-0.199714,-0.062692,0.494459,0.095819,-0.029271,-0.657732,-0.746559,82.240029,-9.773388,-173.909270
53122,NaN,1.840516,9.646951,1.448512,-0.146327,0.106695,0.112852,-0.219985,-0.038323,0.481534,0.097465,-0.031004,-0.656904,-0.747005,82.118039,-10.042091,-173.885693
53123,NaN,1.856925,9.639664,1.439638,-0.115368,0.080903,0.108188,-0.225327,-0.019315,0.464532,0.099047,-0.032673,-0.656045,-0.747480,81.991495,-10.300123,-173.861941
53124,NaN,1.832690,9.678775,1.398343,-0.035108,0.019989,0.136732,-0.244909,0.002858,0.445152,0.100688,-0.034146,-0.655102,-0.748022,81.851163,-10.544866,-173.816371
53125,NaN,1.856756,9.644141,1.377038,-0.019661,-0.019720,0.104583,-0.267284,0.003621,0.426228,0.102194,-0.035624,-0.654073,-0.748649,81.698278,-10.779179,-173.781259
53126,NaN,1.907875,9.533789,1.253237,-0.040041,-0.154829,-0.010750,-0.257112,0.014478,0.403104,0.103713,-0.036921,-0.653078,-0.749246,81.549675,-10.999008,-173.731099
53127,NaN,1.935844,9.610277,1.302892,-0.016461,-0.138608,0.075831,-0.236887,0.046865,0.386483,0.105216,-0.038092,-0.652141,-0.749794,81.409548,-11.206948,-173.673174
53128,NaN,1.946138,9.723815,1.314520,0.033291,-0.162037,0.189337,-0.217575,0.079962,0.364299,0.106810,-0.038996,-0.651261,-0.750287,81.276375,-11.398918,-173.587455
53129,NaN,1.926687,9.649770,1.375035,0.065697,-0.108868,0.122333,-0.194564,0.118393,0.332139,0.108349,-0.039698,-0.650450,-0.750732,81.152646,-11.569562,-173.491995
53130,NaN,2.024920,9.692271,1.497771,-0.000184,-0.021430,0.201461,-0.172069,0.153920,0.313044,0.110000,-0.040133,-0.649707,-0.751113,81.037265,-11.725570,-173.367243
53131,NaN,2.134240,9.674056,1.553054,-0.087799,0.006755,0.214599,-0.153927,0.199840,0.276328,0.111601,-0.040326,-0.649010,-0.751468,80.927578,-11.856938,-173.229010
53132,NaN,2.113991,9.619467,1.623288,-0.063120,0.069191,0.168762,-0.143389,0.242758,0.245725,0.113292,-0.040192,-0.648335,-0.751805,80.818652,-11.966311,-173.058413
53133,NaN,2.158645,9.546773,1.662546,-0.106188,0.095893,0.114253,-0.137537,0.271383,0.228139,0.114948,-0.039951,-0.647666,-0.752144,80.710031,-12.063332,-172.882720
53134,NaN,2.117383,9.461538,1.561645,-0.058585,-0.003527,0.007662,-0.135238,0.295041,0.213683,0.116689,-0.039511,-0.646992,-0.752478,80.599326,-12.149097,-172.684320
53135,NaN,2.209228,9.326419,1.597568,-0.164895,0.022073,-0.097376,-0.128165,0.314510,0.213079,0.118428,-0.039053,-0.646332,-0.752798,80.490482,-12.232888,-172.484647
53136,NaN,2.217340,9.270006,1.552692,-0.164890,-0.031780,-0.157005,-0.118106,0.341170,0.222988,0.120356,-0.038460,-0.645689,-0.753074,80.383130,-12.318835,-172.258239
53137,NaN,2.182964,9.212558,1.587645,-0.130855,-0.000772,-0.213729,-0.104973,0.380087,0.243920,0.122426,-0.037840,-0.645065,-0.753307,80.278110,-12.413004,-172.017156
53138,NaN,2.114216,9.248915,1.617689,-0.039731,0.018527,-0.188381,-0.082857,0.413736,0.278514,0.124804,-0.037133,-0.644494,-0.753441,80.179880,-12.522689,-171.742776
53139,NaN,1.918488,9.351013,1.664585,0.190166,0.065489,-0.124945,-0.065369,0.447944,0.311072,0.127352,-0.036449,-0.643956,-0.753507,80.086512,-12.647290,-171.455155
53140,NaN,1.691561,9.538794,1.759503,0.466270,0.154414,0.021158,-0.066672,0.476483,0.314861,0.130069,-0.035612,-0.643391,-0.753566,79.987732,-12.770266,-171.140300
53141,NaN,1.494754,9.574790,1.847543,0.676026,0.253625,0.026160,-0.088186,0.488952,0.292156,0.132672,-0.034727,-0.642735,-0.753713,79.875122,-12.879098,-170.830177
53142,NaN,1.255012,9.602274,1.891023,0.925721,0.316671,0.005531,-0.108376,0.486198,0.236364,0.135115,-0.033629,-0.642009,-0.753948,79.751653,-12.955785,-170.517045
53143,NaN,1.063512,9.580679,1.911540,1.113849,0.356452,-0.055295,-0.120730,0.453774,0.169705,0.137136,-0.032504,-0.641266,-0.754265,79.626909,-12.997919,-170.239501
53144,NaN,0.971641,9.604543,1.924988,1.212548,0.366548,-0.050912,-0.134993,0.395185,0.101256,0.138774,-0.031333,-0.640514,-0.754653,79.502414,-13.006675,-169.992736
53145,NaN,0.966209,9.552121,1.878202,1.212705,0.312683,-0.110328,-0.158037,0.316613,0.043370,0.139872,-0.030347,-0.639739,-0.755149,79.377041,-12.990876,-169.807884
53146,NaN,0.995159,9.509495,1.877080,1.172636,0.295130,-0.144075,-0.163016,0.230633,-0.010872,0.140552,-0.029453,-0.639010,-0.755675,79.260799,-12.952475,-169.668429
53147,NaN,0.972282,9.531284,1.877628,1.195929,0.278646,-0.127220,-0.172609,0.146763,-0.041258,0.140785,-0.028849,-0.638308,-0.756247,79.151352,-12.906536,-169.591095
53148,NaN,1.030503,9.539857,1.918773,1.132783,0.289298,-0.097463,-0.185973,0.037567,-0.043977,0.140720,-0.028598,-0.637633,-0.756838,79.048051,-12.870226,-169.567149
53149,NaN,1.108493,9.692452,1.942918,1.091309,0.258440,0.071115,-0.200211,-0.055938,-0.034546,0.140327,-0.028801,-0.636968,-0.757464,78.948783,-12.849952,-169.606193
53150,NaN,1.279248,9.734039,2.034859,0.927883,0.292813,0.166385,-0.231727,-0.127583,0.001659,0.139901,-0.029352,-0.636226,-0.758144,78.839262,-12.857247,-169.672394
53151,NaN,1.440503,9.868165,2.069019,0.809280,0.257559,0.336955,-0.249402,-0.160339,0.031360,0.139418,-0.030194,-0.635436,-0.758862,78.723563,-12.885796,-169.764169
53152,NaN,1.459689,9.958939,2.010001,0.830802,0.162382,0.416419,-0.252305,-0.165311,0.042643,0.139024,-0.031032,-0.634635,-0.759571,78.606089,-12.920603,-169.847337
53153,NaN,1.397933,9.973036,2.060472,0.897128,0.199334,0.425310,-0.247009,-0.153580,0.042163,0.138603,-0.031881,-0.633845,-0.760272,78.490689,-12.954812,-169.933861
53154,NaN,1.270715,9.965574,2.140797,1.014133,0.280317,0.405107,-0.226984,-0.134719,-0.007279,0.138119,-0.032429,-0.633125,-0.760936,78.385297,-12.958484,-170.005337
53155,NaN,1.076659,10.017015,2.155736,1.213002,0.299555,0.414034,-0.219203,-0.145107,-0.066989,0.137314,-0.032881,-0.632450,-0.761624,78.287623,-12.930775,-170.099828
53156,NaN,0.928470,10.071803,2.337853,1.342092,0.471589,0.470560,-0.229486,-0.166234,-0.134275,0.136245,-0.033146,-0.631761,-0.762376,78.188159,-12.866956,-170.204624
53157,NaN,0.796255,10.273070,2.541814,1.483513,0.633700,0.676752,-0.265006,-0.199751,-0.230936,0.134634,-0.033320,-0.630973,-0.763306,78.075398,-12.754089,-170.350398
53158,NaN,0.604186,10.535748,2.757216,1.687659,0.797285,0.933718,-0.346423,-0.246769,-0.346979,0.132479,-0.033299,-0.629921,-0.764552,77.924201,-12.581012,-170.527468
53159,NaN,0.597162,10.747119,2.810753,1.708940,0.767964,1.153026,-0.452611,-0.280473,-0.498419,0.129559,-0.033062,-0.628504,-0.766227,77.720284,-12.328862,-170.753069
53160,NaN,0.629568,10.678022,2.871630,1.613146,0.772704,1.117220,-0.597684,-0.308643,-0.590194,0.126233,-0.032675,-0.626553,-0.768394,77.437613,-12.028542,-170.997135
53161,NaN,0.787115,10.639279,2.811799,1.411516,0.621846,1.111605,-0.706898,-0.299121,-0.657174,0.122599,-0.032174,-0.624174,-0.770935,77.092519,-11.692180,-171.255864
53162,NaN,0.861858,10.731541,2.748058,1.314129,0.447022,1.211510,-0.750347,-0.305801,-0.700734,0.118824,-0.031524,-0.621622,-0.773611,76.722793,-11.332469,-171.516062
53163,NaN,0.844875,10.650929,2.663873,1.265276,0.294322,1.121836,-0.804873,-0.317377,-0.719886,0.114869,-0.030954,-0.618850,-0.776448,76.322801,-10.966912,-171.797461
53164,NaN,0.962691,10.454790,2.578710,1.059188,0.143817,0.945360,-0.832035,-0.317486,-0.733542,0.110911,-0.030295,-0.615954,-0.779347,75.905853,-10.594265,-172.073279
53165,NaN,1.133257,10.230424,2.411311,0.802835,-0.083674,0.728079,-0.831708,-0.287007,-0.739641,0.106961,-0.029560,-0.613024,-0.782232,75.485154,-10.217464,-172.345021
53166,NaN,1.221864,9.995058,2.273181,0.620310,-0.262531,0.488132,-0.800602,-0.226903,-0.742175,0.103244,-0.028505,-0.610166,-0.785001,75.075096,-9.831162,-172.576335
53167,NaN,1.261695,9.811172,2.189072,0.490228,-0.386676,0.299302,-0.743112,-0.154750,-0.750054,0.099664,-0.027172,-0.607476,-0.787592,74.690187,-9.432669,-172.780201
53168,NaN,1.232422,9.644070,2.127857,0.427769,-0.474773,0.119361,-0.660340,-0.080817,-0.751885,0.096367,-0.025443,-0.605064,-0.789914,74.345349,-9.021866,-172.936150
53169,NaN,1.115244,9.668866,2.301062,0.467704,-0.365336,0.170935,-0.563796,-0.013658,-0.753173,0.093221,-0.023455,-0.602982,-0.791942,74.048982,-8.602072,-173.066131
53170,NaN,0.666112,10.008646,2.726230,0.866516,-0.050913,0.545637,-0.513419,0.048503,-0.755495,0.090313,-0.021129,-0.601062,-0.793802,73.776072,-8.170018,-173.154587
53171,NaN,0.290475,10.280748,3.279879,1.165161,0.387959,0.912364,-0.571252,0.088010,-0.804044,0.087267,-0.018587,-0.598882,-0.795852,73.467373,-7.707145,-173.240398
53172,NaN,0.021656,10.306815,3.557269,1.330692,0.601210,0.992481,-0.683582,0.101754,-0.884428,0.083984,-0.015739,-0.596244,-0.798243,73.095180,-7.196764,-173.325636
53173,NaN,-0.261015,10.191050,3.795128,1.486372,0.801745,0.933244,-0.810053,0.079977,-0.952978,0.080296,-0.012886,-0.593089,-0.801019,72.652448,-6.654847,-173.447071
53174,NaN,-0.279122,9.953330,3.740074,1.383994,0.716938,0.708898,-0.900524,0.024377,-1.017817,0.076231,-0.010042,-0.589576,-0.804045,72.162030,-6.086857,-173.605516
53175,NaN,-0.201823,9.717635,3.633941,1.192805,0.569136,0.479557,-0.954035,-0.013775,-1.062502,0.071810,-0.007296,-0.585833,-0.807211,71.642485,-5.504100,-173.806818
53176,NaN,-0.072222,9.432179,3.479397,0.947722,0.388487,0.188646,-0.950759,-0.016984,-1.099758,0.067287,-0.004393,-0.582073,-0.810336,71.123668,-4.901970,-174.012195
53177,NaN,-0.026131,9.165662,3.388735,0.784497,0.279847,-0.076248,-0.914693,0.006372,-1.123923,0.062670,-0.001373,-0.578423,-0.813325,70.623317,-4.285872,-174.224204
53178,NaN,0.043065,8.989313,3.269150,0.610024,0.124006,-0.267636,-0.829995,0.065474,-1.139027,0.058222,0.002018,-0.575066,-0.816030,70.167054,-3.650419,-174.402424
53179,NaN,0.038972,8.771760,3.222231,0.498991,0.070202,-0.481404,-0.726425,0.124886,-1.155038,0.053814,0.005668,-0.572089,-0.818405,69.767081,-2.997730,-174.566060
53180,NaN,0.039744,8.702970,3.239070,0.390014,0.038361,-0.534755,-0.607463,0.196120,-1.163437,0.049632,0.009725,-0.569549,-0.820400,69.431381,-2.325654,-174.687435
53181,NaN,-0.107305,8.730091,3.296714,0.428733,0.036140,-0.490242,-0.494557,0.269107,-1.174522,0.045543,0.014079,-0.567432,-0.822039,69.158149,-1.635269,-174.785152
53182,NaN,-0.462821,9.019675,3.540344,0.668791,0.140542,-0.136201,-0.416291,0.328213,-1.204108,0.041554,0.018839,-0.565591,-0.823423,68.927515,-0.915657,-174.850547
53183,NaN,-1.161723,9.359769,3.724652,1.244930,0.201896,0.248910,-0.399713,0.329608,-1.249326,0.037318,0.023674,-0.563794,-0.824732,68.706071,-0.173620,-174.937131
53184,NaN,-2.010207,9.780016,4.011692,1.950831,0.333679,0.763907,-0.441335,0.239424,-1.316718,0.032542,0.028329,-0.561803,-0.826145,68.458863,0.586914,-175.089217
53185,NaN,-3.378557,10.537636,4.339426,3.163640,0.400255,1.637887,-0.547881,0.037570,-1.407593,0.026848,0.032376,-0.559365,-0.827853,68.146928,1.350540,-175.371483
53186,NaN,-4.879117,10.935735,4.547865,4.501004,0.449599,2.171232,-0.744835,-0.373354,-1.518960,0.019635,0.035066,-0.556105,-0.830140,67.710457,2.084914,-175.891393
53187,NaN,-5.346350,10.812142,4.348485,4.846001,0.176057,2.056411,-0.950065,-0.896342,-1.673936,0.010298,0.035931,-0.551971,-0.833025,67.136887,2.779610,-176.738734
53188,NaN,-4.887537,10.255710,3.861361,4.300384,-0.288166,1.385335,-1.070932,-1.305682,-1.881677,-0.001027,0.035668,-0.547237,-0.836217,66.468284,3.484337,-177.857291
53189,NaN,-4.065074,9.825699,3.383859,3.380469,-0.795350,0.791743,-1.090177,-1.487423,-2.091147,-0.013708,0.035197,-0.542292,-0.839340,65.764716,4.241013,-179.128827
53190,NaN,-3.193257,9.462226,2.930630,2.389002,-1.261542,0.237951,-1.027666,-1.448323,-2.261677,-0.027021,0.035357,-0.537467,-0.842110,65.076079,5.082828,179.568408
53191,NaN,-2.395819,9.032798,2.723497,1.457523,-1.414693,-0.293295,-0.904706,-1.236606,-2.355285,-0.040162,0.036621,-0.533068,-0.844325,64.445923,6.007456,178.341937
53192,NaN,-1.999525,8.734455,2.659785,0.909535,-1.445941,-0.623479,-0.732703,-0.893257,-2.361285,-0.052451,0.039325,-0.529359,-0.845862,63.911818,7.010922,177.280123
53193,NaN,-2.113850,8.633033,2.706294,0.845630,-1.446474,-0.674259,-0.533676,-0.508240,-2.282720,-0.063405,0.043375,-0.526528,-0.846680,63.500998,8.060498,176.427777
53194,NaN,-2.586434,8.808752,2.893868,1.090174,-1.441079,-0.358078,-0.351429,-0.123864,-2.171507,-0.072923,0.048712,-0.524539,-0.846858,63.210973,9.149227,175.794147
53195,NaN,-3.936600,9.079021,3.238517,2.166597,-1.390250,0.276048,-0.231368,0.166440,-2.103468,-0.081396,0.055034,-0.523123,-0.846574,63.005631,10.273160,175.322708
53196,NaN,-5.363667,9.213591,3.522859,3.318488,-1.346275,0.828750,-0.166657,0.245984,-2.131773,-0.089805,0.061751,-0.521941,-0.845990,62.832803,11.433368,174.879009
53197,NaN,-6.390657,9.131901,3.609351,4.104665,-1.364709,1.075071,-0.130704,0.152880,-2.245719,-0.098924,0.068331,-0.520775,-0.845185,62.654702,12.623220,174.351367
53198,NaN,-6.917493,8.949895,3.671475,4.412142,-1.335020,1.149815,-0.093723,-0.047704,-2.427781,-0.109350,0.074528,-0.519526,-0.844145,62.449462,13.853794,173.662320
53199,NaN,-7.053006,8.923767,3.601149,4.288832,-1.470590,1.222835,-0.054803,-0.260305,-2.649528,-0.121244,0.080351,-0.518163,-0.842823,62.207190,15.134851,172.792878
53200,NaN,-6.717741,8.814449,3.587050,3.720660,-1.472979,1.126629,-0.021630,-0.421920,-2.860428,-0.134454,0.086024,-0.516650,-0.841187,61.921697,16.478516,171.767305
53201,NaN,-6.065550,8.568169,3.463857,2.891659,-1.460761,0.756105,0.005069,-0.472537,-3.034473,-0.148488,0.091876,-0.515029,-0.839199,61.601722,17.887981,170.651636
53202,NaN,-5.268929,8.323057,3.280105,1.936540,-1.451431,0.283342,0.058162,-0.374238,-3.119224,-0.162634,0.098319,-0.513535,-0.836759,61.288006,19.364403,169.545511
53203,NaN,-4.690327,7.979380,3.104943,1.241343,-1.389553,-0.229793,0.147692,-0.136681,-3.125980,-0.176181,0.105654,-0.512483,-0.833762,61.035743,20.901371,168.547225
53204,NaN,-4.614426,7.743835,3.018311,0.985730,-1.350624,-0.454922,0.277256,0.183241,-3.071615,-0.188728,0.114066,-0.512150,-0.830104,60.895230,22.500207,167.720611
53205,NaN,-5.021179,7.603190,2.954664,1.135431,-1.397487,-0.405143,0.429128,0.508552,-2.977998,-0.200074,0.123395,-0.512692,-0.825767,60.897764,24.138525,167.088856
53206,NaN,-5.804970,7.703043,3.030858,1.502953,-1.467688,0.076703,0.587756,0.785917,-2.891920,-0.210426,0.133484,-0.514093,-0.820738,61.047112,25.815014,166.629946
53207,NaN,-6.787793,7.967761,3.047592,1.936911,-1.669649,0.784416,0.728002,0.988151,-2.839591,-0.220066,0.144066,-0.516200,-0.815079,61.323895,27.519180,166.302183
53208,NaN,-7.991327,8.365685,3.141982,2.444688,-1.867962,1.773529,0.829954,1.129569,-2.861280,-0.229469,0.155154,-0.518729,-0.808821,61.687493,29.278063,166.053207
53209,NaN,-9.157865,8.546754,3.140836,2.971349,-2.040167,2.587791,0.889945,1.218119,-3.004951,-0.239187,0.166840,-0.521355,-0.801962,62.087506,31.131340,165.821295
53210,NaN,-10.196972,8.459305,3.075401,3.472812,-2.139127,3.161933,0.936066,1.203337,-3.246326,-0.249898,0.179013,-0.523784,-0.794453,62.466853,33.108130,165.513608
53211,NaN,-10.903739,8.252756,2.890843,3.715253,-2.245665,3.472185,0.989490,1.070136,-3.531181,-0.262030,0.191251,-0.525827,-0.786301,62.775602,35.192573,165.041612
53212,NaN,-11.170050,8.141127,2.694776,3.503399,-2.320601,3.627029,1.048670,0.839722,-3.788091,-0.275755,0.203131,-0.527346,-0.777563,62.966981,37.353468,164.338198
53213,NaN,-10.963421,7.961068,2.524457,2.947154,-2.275380,3.456072,1.106569,0.549715,-3.996082,-0.290972,0.214242,-0.528260,-0.768360,63.001132,39.542247,163.362663
53214,NaN,-10.607345,7.809576,2.348585,2.264507,-2.232825,3.182828,1.180879,0.256982,-4.126543,-0.307435,0.224392,-0.528649,-0.758724,62.868954,41.724809,162.110439
53215,NaN,-10.067171,7.786348,2.320633,1.381437,-2.052434,2.884454,1.261868,-0.000192,-4.164338,-0.324643,0.233411,-0.528664,-0.748759,62.582183,43.851505,160.614135
53216,NaN,-9.650418,7.846747,2.302720,0.555169,-1.904740,2.679229,1.337119,-0.170081,-4.113627,-0.342068,0.241453,-0.528487,-0.738506,62.175101,45.904918,158.942007
53217,NaN,-9.324119,7.814980,2.364226,-0.104947,-1.668341,2.466975,1.414419,-0.221168,-4.004060,-0.359134,0.248747,-0.528401,-0.727970,61.715008,47.875911,157.192635
53218,NaN,-9.292121,7.660360,2.325796,-0.455650,-1.558926,2.343736,1.524808,-0.156981,-3.948769,-0.375827,0.255842,-0.528654,-0.716815,61.262011,49.831267,155.422063
53219,NaN,-9.422195,7.506445,2.188125,-0.704724,-1.563135,2.309760,1.686500,0.009203,-4.010000,-0.392309,0.263247,-0.529481,-0.704588,60.869819,51.850526,153.661520
53220,NaN,-9.829115,7.384389,2.161757,-0.837045,-1.510145,2.549014,1.876799,0.183576,-4.123302,-0.408806,0.271086,-0.530901,-0.691038,60.535714,53.972370,151.886334
53221,NaN,-9.854716,7.566236,2.471174,-1.426221,-1.025320,2.731713,2.021126,0.330266,-4.193936,-0.425114,0.279155,-0.532747,-0.676410,60.228710,56.160770,150.091246
53222,NaN,-9.684411,7.967265,2.796291,-2.293984,-0.439580,2.820806,2.027515,0.438254,-4.190116,-0.440917,0.287436,-0.534550,-0.661233,59.860587,58.376130,148.264788
53223,NaN,-9.567587,8.089456,3.257485,-2.854146,0.307271,2.809752,1.908201,0.467517,-4.128382,-0.456008,0.295733,-0.535830,-0.646131,59.313627,60.557514,146.352809
53224,NaN,-9.616452,7.969953,3.574060,-3.111557,0.869911,2.769489,1.739409,0.367128,-4.015385,-0.470542,0.303660,-0.536224,-0.631541,58.438090,62.645379,144.217086
53225,NaN,-9.500656,7.687798,3.535061,-3.293323,1.101861,2.425933,1.594710,0.185519,-3.874094,-0.484660,0.310812,-0.535707,-0.617673,57.144178,64.586010,141.745532
53226,NaN,-9.183841,7.407799,3.246257,-3.544817,1.108659,1.846940,1.484741,0.015277,-3.755097,-0.498506,0.317273,-0.534385,-0.604369,55.381105,66.389342,138.865779
53227,NaN,-9.094990,6.981746,3.001264,-3.549394,1.052847,1.445717,1.419004,-0.144312,-3.654878,-0.512154,0.323001,-0.532421,-0.591521,53.114241,68.046288,135.518337
53228,NaN,-9.192096,6.056366,2.594282,-3.036296,0.710329,1.057916,1.474153,-0.296952,-3.550571,-0.525810,0.327754,-0.530185,-0.578797,50.352849,69.546848,131.643694
53229,NaN,-9.160068,5.251523,2.214294,-2.648475,0.398091,0.637497,1.719972,-0.450998,-3.467382,-0.539821,0.331051,-0.528199,-0.565689,47.146726,70.875662,127.182310
53230,NaN,-8.799432,5.305183,2.283681,-3.036011,0.700571,0.240880,2.058064,-0.552497,-3.368559,-0.554183,0.332775,-0.526843,-0.551886,43.592210,72.034590,122.182762
53231,NaN,-8.281292,5.917120,2.625119,-3.869858,1.415413,-0.143281,2.265359,-0.632601,-3.240097,-0.568509,0.333214,-0.525848,-0.537820,39.704975,73.002326,116.739846
53232,NaN,-7.381052,6.584313,2.822146,-4.765350,2.140287,-0.952535,2.285632,-0.683883,-3.100205,-0.582416,0.332974,-0.524777,-0.523956,35.467245,73.781478,110.944548
53233,NaN,-6.742342,6.859603,2.404482,-5.343991,2.159701,-1.746294,2.245912,-0.712974,-2.969461,-0.595759,0.332289,-0.523547,-0.510444,30.959450,74.375271,104.912148
53234,NaN,-5.797909,6.909273,1.858283,-5.723189,2.095879,-2.909477,2.224756,-0.692591,-2.825883,-0.608451,0.331240,-0.522370,-0.497189,26.357240,74.807559,98.809635
53235,NaN,-4.935653,6.976735,1.303067,-6.068872,2.016316,-3.996160,2.257521,-0.620368,-2.634164,-0.620320,0.329650,-0.521650,-0.484164,21.963216,75.103051,92.913572
53236,NaN,-4.393595,7.020532,1.082733,-6.234705,2.161993,-4.692753,2.277254,-0.494767,-2.407181,-0.631171,0.327622,-0.521577,-0.471428,17.960708,75.309319,87.417715
53237,NaN,-4.267271,6.830605,1.480760,-5.931738,2.678684,-4.843285,2.239123,-0.316828,-2.148875,-0.640709,0.325363,-0.522270,-0.459201,14.488915,75.479852,82.497384
53238,NaN,-4.343589,6.453202,2.252149,-5.286149,3.385504,-4.696536,2.157532,-0.124856,-1.874704,-0.648847,0.323024,-0.523709,-0.447641,11.565755,75.652638,78.195733
53239,NaN,-4.645840,5.654707,2.894385,-4.285307,3.716998,-4.357850,2.028129,0.013852,-1.600474,-0.655668,0.320628,-0.525662,-0.437009,9.161069,75.825395,74.508691
53240,NaN,-4.955976,4.775551,3.384530,-3.265572,3.829424,-4.025375,1.912054,0.103289,-1.386072,-0.661505,0.318200,-0.527908,-0.427168,7.128183,75.995776,71.276415
53241,NaN,-4.874565,4.262579,3.521898,-2.695571,3.841530,-4.128468,1.815240,0.175218,-1.277191,-0.666670,0.315912,-0.530296,-0.417777,5.251761,76.173903,68.264826
53242,NaN,-4.653223,3.723316,2.986296,-2.393444,3.266482,-4.517935,1.741930,0.174460,-1.209683,-0.671507,0.313651,-0.532563,-0.408753,3.427775,76.324482,65.352651
53243,NaN,-4.360722,3.591538,2.757668,-2.315551,3.148115,-4.888597,1.833447,0.265448,-1.153116,-0.676043,0.311079,-0.535356,-0.399488,1.751197,76.505206,62.540161
53244,NaN,-4.510934,4.346800,2.994869,-2.824447,3.772436,-4.713428,1.913794,0.484822,-1.027578,-0.679789,0.308300,-0.539173,-0.390039,0.360937,76.791627,59.977398
53245,NaN,-4.903795,5.673138,4.118933,-3.371148,5.413745,-4.109896,1.883115,0.678453,-0.825554,-0.682483,0.305419,-0.543841,-0.381016,-0.635702,77.177813,57.840165
53246,NaN,-5.815330,5.932279,4.391425,-3.457935,5.710425,-3.200072,1.428913,0.649593,-0.595193,-0.684064,0.303376,-0.547838,-0.374022,-1.394619,77.541231,56.216422
53247,NaN,-6.972009,5.388134,3.601429,-3.467147,4.643034,-2.260766,1.202138,0.373818,-0.287909,-0.685437,0.300736,-0.550910,-0.369097,-1.510251,77.749534,55.386030
53248,NaN,-7.599773,4.991242,2.571468,-3.698370,3.520254,-1.862148,1.182600,-0.092326,-0.019820,-0.687548,0.296548,-0.552723,-0.365834,-0.906540,77.693511,55.303475
53249,NaN,-7.365517,4.447965,1.485811,-3.763343,2.384110,-2.302963,1.368779,-0.627855,0.260018,-0.690865,0.289957,-0.553431,-0.363792,0.529270,77.332796,55.963891
53250,NaN,-6.570345,4.717852,0.940910,-4.154162,2.218066,-3.169219,1.552868,-1.183684,0.536944,-0.695432,0.280923,-0.552904,-0.362979,2.644716,76.643735,57.214886
53251,NaN,-5.484478,5.509972,1.151827,-4.501763,3.017054,-4.120866,1.591519,-1.309870,0.837873,-0.699772,0.270668,-0.552375,-0.363236,5.278546,75.860845,58.980606
53252,NaN,-4.423446,6.240083,0.840272,-5.083698,3.392000,-5.137111,1.345077,-1.306177,1.115707,-0.703181,0.260474,-0.551714,-0.365104,8.139018,75.040845,61.132503
53253,NaN,-3.589405,5.967833,0.900379,-4.677687,3.425855,-5.851463,1.010294,-1.262640,1.357315,-0.705509,0.250848,-0.550852,-0.368639,11.046822,74.197548,63.540848
53254,NaN,-2.685774,4.582953,-0.578696,-4.304742,1.650047,-7.111249,0.879993,-1.102841,1.605971,-0.706698,0.241253,-0.550558,-0.373178,14.149967,73.378690,66.240162
53255,NaN,-2.688155,2.968819,-1.750954,-3.698255,-0.234297,-7.494566,1.111037,-0.784084,1.859876,-0.706724,0.230717,-0.552065,-0.377537,17.720415,72.654524,69.300605
53256,NaN,-4.188145,2.413674,-2.193383,-3.648925,-1.344590,-6.199610,1.455399,-0.405580,2.049773,-0.705642,0.219110,-0.555694,-0.381136,21.768277,72.038420,72.666050
53257,NaN,-5.967518,2.845746,-2.251303,-4.118712,-1.686612,-4.430456,1.613152,-0.271315,2.157129,-0.704032,0.206878,-0.560123,-0.384451,25.909453,71.398099,76.046658
53258,NaN,-7.378919,3.122223,-1.248584,-3.705418,-1.301639,-2.718389,1.583287,-0.347437,2.266113,-0.702261,0.194248,-0.564232,-0.388251,29.869815,70.615228,79.268188
53259,NaN,-8.378356,3.612996,-0.055558,-3.242480,-0.596096,-1.304997,1.580571,-0.668627,2.369425,-0.701051,0.180686,-0.567195,-0.392644,33.400639,69.579350,82.052760
53260,NaN,-8.916047,4.630464,1.937089,-2.579525,1.059496,0.031395,1.456798,-1.066268,2.520083,-0.700399,0.166297,-0.568529,-0.398197,36.392957,68.253545,84.357537
53261,NaN,-8.939973,5.433561,4.013975,-1.635962,2.712805,0.934962,1.241057,-1.502758,2.705221,-0.700263,0.151236,-0.567912,-0.405260,38.787042,66.628952,86.172409
53262,NaN,-9.052522,6.179467,5.500004,-1.035121,3.787776,1.804089,0.922856,-1.893679,2.877343,-0.700434,0.135951,-0.565243,-0.414017,40.585608,64.743030,87.557897
53263,NaN,-8.421623,6.458864,6.453411,-0.457264,4.455981,1.771979,0.550265,-2.191057,2.961031,-0.700791,0.121087,-0.560631,-0.424172,41.805207,62.684698,88.558773
53264,NaN,-7.574387,5.884261,6.524909,0.105660,4.129196,1.026735,0.247066,-2.276473,2.997534,-0.700877,0.106945,-0.554902,-0.435222,42.675032,60.566349,89.378317
53265,NaN,-7.248299,5.858102,6.474247,0.155235,3.861003,0.856291,0.033088,-1.921345,2.894935,-0.699862,0.094589,-0.549716,-0.446160,43.473651,58.633353,90.274291
53266,NaN,-7.508511,6.023856,6.432202,0.071283,3.468060,1.232532,-0.152206,-1.220490,2.621163,-0.697261,0.085156,-0.546297,-0.456219,44.335855,57.089736,91.387067
53267,NaN,-8.167034,6.330121,6.303138,-0.157333,2.948723,1.925114,-0.350763,-0.444453,2.212439,-0.693275,0.079305,-0.544867,-0.464974,45.222939,56.020190,92.682882
53268,NaN,-9.558426,6.301404,6.773057,0.302831,2.274049,3.290004,-0.714209,0.338654,1.794730,-0.687900,0.077645,-0.545076,-0.472924,46.071489,55.422137,94.196490
53269,NaN,-10.698311,5.738744,6.479097,0.646605,1.064136,3.891862,-1.161176,0.927370,1.401815,-0.681614,0.079996,-0.546050,-0.480450,46.760486,55.210987,95.835205
53270,NaN,-11.586555,5.761909,5.855249,0.339827,0.173264,4.385405,-1.438837,1.250711,1.095007,-0.674990,0.084879,-0.547272,-0.487522,47.306675,55.241917,97.495325
53271,NaN,-11.878249,5.393804,5.461401,0.442784,-0.395338,4.317421,-1.699925,1.365332,0.905915,-0.668321,0.091449,-0.548097,-0.494544,47.670907,55.392384,99.114479
53272,NaN,-12.316866,4.784280,4.872163,0.622023,-1.283707,4.197925,-1.844230,1.253947,0.875463,-0.661869,0.098277,-0.548098,-0.501856,47.875581,55.505462,100.637645
53273,NaN,-12.290224,4.892859,4.747463,0.496944,-1.273277,4.175158,-1.941442,0.957242,0.887648,-0.656065,0.104655,-0.546808,-0.509536,47.849566,55.500793,101.947582
53274,NaN,-11.952962,4.683438,4.177049,0.287465,-1.592624,3.590164,-2.103760,0.605756,0.912097,-0.650980,0.110570,-0.543884,-0.517870,47.525915,55.349689,103.010223
53275,NaN,-11.217238,4.015961,3.708170,0.439709,-1.854956,2.518996,-2.234347,0.359006,0.886079,-0.646474,0.116344,-0.539733,-0.526521,46.957880,55.121013,103.868896
53276,NaN,-10.466101,3.390463,3.018686,0.434807,-2.248302,1.363306,-2.256245,0.303407,0.851218,-0.642098,0.122103,-0.535239,-0.535089,46.322726,54.887484,104.663405
53277,NaN,-9.952426,2.301448,2.264497,0.839418,-2.985674,0.180129,-2.114822,0.361141,0.840340,-0.637599,0.127592,-0.531234,-0.543119,45.793577,54.688690,105.490556
53278,NaN,-9.926852,1.702366,2.245235,1.356583,-3.232462,-0.107421,-1.756060,0.422727,0.888264,-0.632957,0.131946,-0.528364,-0.550261,45.530146,54.495748,106.393582
53279,NaN,-10.089099,2.045033,2.741645,1.405589,-2.843072,0.357352,-1.383492,0.356254,0.923160,-0.628591,0.134851,-0.526291,-0.556513,45.456279,54.265859,107.269527
53280,NaN,-9.643727,2.610740,3.310200,1.189435,-1.994504,0.452878,-1.195514,0.268988,0.928167,-0.624523,0.136886,-0.524431,-0.562321,45.437806,53.997025,108.083764
53281,NaN,-9.291650,3.063449,3.910727,1.078111,-1.225465,0.596394,-1.166521,0.180884,0.930145,-0.620669,0.138584,-0.522355,-0.568075,45.380764,53.694493,108.832519
53282,NaN,-9.053398,3.255021,4.264072,1.066602,-0.805005,0.625492,-1.223416,0.097940,0.943487,-0.616916,0.140167,-0.519834,-0.574056,45.246542,53.351746,109.529081
53283,NaN,-9.662925,3.535563,4.631895,1.139284,-0.843435,1.381816,-1.330845,-0.119863,1.001262,-0.613452,0.141311,-0.516345,-0.580600,44.957449,52.901098,110.112448
53284,NaN,-10.299004,3.624520,4.738378,1.247808,-1.209434,1.961744,-1.480198,-0.673040,1.111999,-0.610936,0.140996,-0.510756,-0.588222,44.345869,52.181141,110.402091
53285,NaN,-10.023563,3.324418,4.472725,1.316867,-1.519768,1.478060,-1.545096,-1.349513,1.254938,-0.609611,0.138522,-0.502956,-0.596843,43.436719,51.129505,110.363069
53286,NaN,-9.191324,2.964633,4.391422,1.393573,-1.419420,0.608045,-1.530532,-1.901476,1.366023,-0.609249,0.134041,-0.493503,-0.606056,42.354991,49.800715,110.089047
53287,NaN,-7.764295,3.053867,4.441652,1.002070,-0.752438,-0.444510,-1.432509,-2.169332,1.449976,-0.609234,0.128227,-0.483491,-0.615328,41.291665,48.324331,109.759104
53288,NaN,-6.561440,2.994507,4.471891,0.781398,-0.230810,-1.365837,-1.345740,-2.061060,1.484003,-0.608777,0.122361,-0.473988,-0.624303,40.378985,46.876849,109.558468
53289,NaN,-6.002075,3.524820,4.556399,0.216747,0.084838,-1.496873,-1.206613,-1.658348,1.427840,-0.607518,0.117450,-0.466032,-0.632409,39.703219,45.626757,109.570711
53290,NaN,-6.024400,3.802592,4.876213,0.108331,0.177005,-1.182196,-1.171620,-1.169921,1.313634,-0.605421,0.114218,-0.459535,-0.639725,39.187968,44.632735,109.781627
53291,NaN,-6.355320,3.835418,4.984113,0.201736,-0.103624,-0.874616,-1.158893,-0.767439,1.210779,-0.602678,0.112470,-0.454200,-0.646399,38.780044,43.858031,110.138960
53292,NaN,-6.603866,3.797785,5.084596,0.337499,-0.321409,-0.665602,-1.149315,-0.531365,1.141866,-0.599579,0.111593,-0.449526,-0.652670,38.427107,43.213618,110.573077
53293,NaN,-6.837789,3.849251,5.128092,0.372916,-0.546693,-0.462252,-1.099676,-0.455360,1.121801,-0.596363,0.110864,-0.445207,-0.658674,38.116469,42.614109,111.032291
53294,NaN,-7.063124,3.994945,5.228949,0.352618,-0.715771,-0.192312,-1.032888,-0.471117,1.142139,-0.593112,0.109821,-0.441037,-0.664563,37.843399,42.000313,111.496120
53295,NaN,-7.366925,4.345332,5.392121,0.203105,-0.885773,0.257143,-0.995956,-0.515497,1.157886,-0.589890,0.108490,-0.436845,-0.670392,37.579974,41.364215,111.947944
53296,NaN,-7.828507,4.475767,5.616436,0.321385,-1.161161,0.742369,-1.014739,-0.645743,1.208450,-0.586732,0.106650,-0.432197,-0.676444,37.281778,40.651258,112.369630
53297,NaN,-8.104608,4.501943,5.746933,0.451018,-1.412890,0.993661,-1.042254,-0.969040,1.296532,-0.583914,0.103608,-0.426526,-0.682924,36.903472,39.763654,112.698204
53298,NaN,-7.464704,4.585963,5.654228,0.181372,-1.209487,0.542201,-1.072893,-1.353901,1.395428,-0.581499,0.099110,-0.419626,-0.689891,36.434998,38.665678,112.919238
53299,NaN,-6.692638,4.184523,5.404582,0.240799,-1.046001,-0.307145,-1.092456,-1.548696,1.447438,-0.579229,0.093884,-0.412070,-0.697049,35.924483,37.463073,113.095506
53300,NaN,-5.705669,4.173673,5.434081,-0.021617,-0.508691,-0.910955,-1.044754,-1.580876,1.475311,-0.576867,0.088329,-0.404535,-0.704112,35.445851,36.235963,113.284683
53301,NaN,-5.249591,4.396712,5.521406,-0.309909,-0.306986,-1.027364,-1.010238,-1.459672,1.464879,-0.574234,0.083118,-0.397417,-0.710919,35.014567,35.071721,113.526237
53302,NaN,-5.197128,4.215112,5.714073,-0.077422,-0.318804,-1.019644,-1.004688,-1.357091,1.454696,-0.571361,0.078257,-0.390552,-0.717559,34.606092,33.959103,113.809730
53303,NaN,-5.116974,4.775802,6.185074,-0.417526,-0.156993,-0.482900,-1.009766,-1.281988,1.449408,-0.568292,0.073690,-0.383842,-0.724072,34.207979,32.886803,114.125073
53304,NaN,-5.114539,4.919614,6.459796,-0.436821,-0.170118,-0.227927,-1.107154,-1.118677,1.387491,-0.565031,0.070092,-0.377169,-0.730459,33.766730,31.912453,114.473248
53305,NaN,-4.538126,4.721559,6.875844,-0.329756,0.382994,-0.330740,-1.252149,-0.899826,1.336413,-0.561435,0.067801,-0.370535,-0.736816,33.268428,31.062670,114.879862
53306,NaN,-4.293216,4.528380,6.565813,-0.360457,0.253441,-0.765465,-1.334058,-0.553021,1.312970,-0.557198,0.067045,-0.364521,-0.743075,32.778756,30.388385,115.404668
53307,NaN,-4.980002,4.680187,6.492046,-0.279642,-0.462160,-0.402136,-1.341755,-0.244986,1.242027,-0.552614,0.067587,-0.359287,-0.748975,32.317104,29.889952,116.002887
53308,NaN,-5.397536,4.616754,6.473687,-0.089708,-0.892218,-0.244432,-1.412069,-0.136728,1.175742,-0.548011,0.068834,-0.354029,-0.754724,31.812272,29.467179,116.604085
53309,NaN,-5.313878,4.416644,6.428226,0.017319,-0.917080,-0.419919,-1.443390,-0.051721,1.159350,-0.543265,0.070519,-0.348858,-0.760387,31.296788,29.096941,117.227193
53310,NaN,-5.400856,4.220911,6.407370,0.192040,-1.051327,-0.490838,-1.499127,-0.054896,1.131813,-0.538562,0.072377,-0.343421,-0.766013,30.738592,28.737001,117.835580
53311,NaN,-5.088241,3.878641,6.112449,0.260755,-1.007444,-1.025621,-1.490376,-0.084397,1.122431,-0.533903,0.074117,-0.337910,-0.771538,30.175895,28.371823,118.430727
53312,NaN,-4.973752,3.697637,5.974234,0.313232,-1.043124,-1.273632,-1.442514,-0.058047,1.099999,-0.529258,0.075855,-0.332613,-0.776853,29.636227,28.029892,119.023811
53313,NaN,-4.672971,3.540543,5.950913,0.295050,-0.858467,-1.508405,-1.328112,0.020854,1.074028,-0.524588,0.077642,-0.327939,-0.781815,29.165034,27.740568,119.628916
53314,NaN,-4.635038,3.895558,6.211643,0.011916,-0.819893,-1.177252,-1.192213,0.047596,1.117014,-0.519721,0.079093,-0.323855,-0.786608,28.784375,27.455492,120.267574
53315,NaN,-4.963232,4.071722,6.765444,0.114348,-0.852702,-0.525962,-1.139120,0.000414,1.136320,-0.514844,0.080193,-0.319850,-0.791329,28.429843,27.146230,120.902866
53316,NaN,-4.924582,4.302416,7.035103,-0.053806,-0.804130,-0.241650,-1.148300,-0.201418,1.135830,-0.510253,0.080505,-0.315263,-0.796097,28.038513,26.737760,121.476769
53317,NaN,-4.266431,4.368261,7.220054,-0.391801,-0.311307,-0.370129,-1.233698,-0.351222,1.077722,-0.506063,0.080533,-0.309914,-0.800855,27.560415,26.273927,121.974226
53318,NaN,-3.117115,4.262817,7.222585,-0.870715,0.486331,-0.921234,-1.330785,-0.359246,1.043010,-0.501947,0.080815,-0.304116,-0.805625,27.014460,25.818015,122.452348
53319,NaN,-2.366975,3.866426,7.152419,-0.945460,1.036488,-1.461654,-1.376990,-0.164067,1.035816,-0.497510,0.082012,-0.298601,-0.810306,26.462910,25.469071,122.985325
53320,NaN,-2.481540,3.405208,7.156806,-0.544214,1.020949,-1.588686,-1.350727,0.099466,1.033294,-0.492663,0.084201,-0.293820,-0.814778,25.955926,25.259480,123.593053
53321,NaN,-2.930402,3.381507,7.169245,-0.348506,0.636538,-1.392899,-1.282817,0.253246,1.035900,-0.487575,0.086848,-0.289680,-0.819032,25.505456,25.134415,124.245531
53322,NaN,-3.360303,3.605238,7.437916,-0.329840,0.332117,-0.902444,-1.264385,0.296324,1.020457,-0.482461,0.089633,-0.285689,-0.823152,25.065631,25.038750,124.901348
53323,NaN,-3.724749,3.534888,7.713669,-0.095281,0.188750,-0.548524,-1.300783,0.290078,0.993126,-0.477422,0.092523,-0.281507,-0.827201,24.596981,24.952413,125.540076
53324,NaN,-3.995587,3.744701,8.031420,-0.144519,0.027158,-0.093170,-1.331791,0.236310,0.945477,-0.472608,0.095316,-0.277022,-0.831153,24.092117,24.852868,126.137743
53325,NaN,-4.464155,4.124886,8.326577,-0.237092,-0.374445,0.486733,-1.399773,0.147214,0.878207,-0.468134,0.097995,-0.271999,-0.835024,23.521820,24.728582,126.674259
53326,NaN,-4.368119,3.914753,7.974066,-0.199076,-0.491576,0.072117,-1.435335,0.006127,0.865381,-0.463854,0.100170,-0.266466,-0.838928,22.912190,24.536613,127.169045
53327,NaN,-4.348878,3.336766,7.821495,0.217869,-0.394854,-0.272323,-1.261601,-0.101602,0.893762,-0.459659,0.101456,-0.261415,-0.842664,22.397065,24.287154,127.655306
53328,NaN,-4.865466,3.077120,7.837618,0.703465,-0.716132,-0.139962,-0.966657,-0.186147,0.910389,-0.455628,0.101671,-0.257402,-0.846056,22.044786,23.991330,128.132230
53329,NaN,-5.456455,3.232671,7.864271,0.921552,-1.262513,0.168604,-0.697663,-0.362991,0.917371,-0.451915,0.100522,-0.254124,-0.849170,21.829299,23.603459,128.572106
53330,NaN,-5.518050,3.459634,7.995805,0.814214,-1.413836,0.370058,-0.550474,-0.542250,0.893036,-0.448591,0.098298,-0.251038,-0.852106,21.672816,23.125509,128.956373
53331,NaN,-5.052299,3.469062,8.014770,0.585936,-1.156257,0.193088,-0.488041,-0.702750,0.866015,-0.445599,0.095288,-0.247842,-0.854948,21.528756,22.569844,129.288126
53332,NaN,-4.307393,3.343467,7.639868,0.279569,-0.838101,-0.468241,-0.456798,-0.715954,0.843969,-0.442715,0.092170,-0.244725,-0.857681,21.393511,22.011479,129.604339
53333,NaN,-3.832885,2.944453,7.447923,0.352366,-0.472240,-0.953526,-0.390923,-0.561921,0.825120,-0.439742,0.089593,-0.242221,-0.860191,21.302410,21.540850,129.944323
53334,NaN,-3.695387,3.107566,7.454166,0.176206,-0.503809,-0.947455,-0.305838,-0.321573,0.773450,-0.436726,0.087917,-0.240577,-0.862359,21.266280,21.208674,130.308015
53335,NaN,-3.631342,3.329436,7.544888,-0.005288,-0.557593,-0.819018,-0.240918,-0.098588,0.707024,-0.433751,0.087146,-0.239672,-0.864189,21.269971,21.010420,130.682782
53336,NaN,-3.853912,3.456360,7.949380,0.072342,-0.595855,-0.345301,-0.209412,0.129315,0.656706,-0.430727,0.087344,-0.239368,-0.865764,21.298457,20.943290,131.079182
53337,NaN,-3.907994,3.823111,8.173618,-0.158089,-0.712533,-0.006367,-0.181559,0.264534,0.661486,-0.427529,0.088067,-0.239479,-0.867244,21.354593,20.947976,131.508316
53338,NaN,-4.329169,4.065132,8.375726,-0.063586,-1.025405,0.403195,-0.133602,0.289095,0.638472,-0.424416,0.088814,-0.239834,-0.868598,21.435429,20.969224,131.929884
53339,NaN,-4.407495,4.337200,8.686930,-0.195975,-1.057334,0.795973,-0.098317,0.280279,0.619093,-0.421409,0.089477,-0.240315,-0.869860,21.532137,20.990100,132.338460
53340,NaN,-4.763823,4.721100,8.985053,-0.239875,-1.349953,1.315387,-0.156238,0.244645,0.592852,-0.418528,0.090131,-0.240452,-0.871145,21.587446,20.996200,132.724149
53341,NaN,-4.885872,4.749343,8.896095,-0.180798,-1.494100,1.291523,-0.336835,0.205545,0.512914,-0.415957,0.091094,-0.239685,-0.872486,21.519885,20.999135,133.055344
53342,NaN,-4.610032,4.368636,8.536100,-0.087109,-1.291536,0.747932,-0.501735,0.230552,0.440692,-0.413591,0.092589,-0.238213,-0.873856,21.345183,21.030458,133.351008
53343,NaN,-4.324174,3.539577,7.926256,0.321207,-0.957212,-0.167319,-0.545356,0.381423,0.440413,-0.411021,0.094838,-0.236862,-0.875194,21.157851,21.143999,133.680034
53344,NaN,-4.515622,2.923599,7.651069,0.877208,-0.870604,-0.541791,-0.382924,0.657537,0.401367,-0.408364,0.098001,-0.236764,-0.876115,21.078816,21.413252,134.048084
53345,NaN,-4.752816,3.064815,7.894212,0.892503,-0.942848,-0.189019,-0.188906,0.897871,0.312708,-0.405899,0.101928,-0.237961,-0.876488,21.114052,21.830032,134.419117
53346,NaN,-4.833922,3.460127,8.243243,0.606604,-0.968396,0.286012,-0.026978,1.129596,0.236442,-0.403563,0.106627,-0.240291,-0.876372,21.248727,22.385367,134.799973
53347,NaN,-5.057815,3.524788,8.883623,0.653811,-0.722172,0.956428,0.090459,1.343640,0.174571,-0.401289,0.112100,-0.243525,-0.875840,21.460651,23.067281,135.196878
53348,NaN,-5.405279,3.890211,9.839243,0.538716,-0.524385,2.044551,0.210752,1.424847,0.123522,-0.399186,0.117741,-0.247409,-0.874972,21.743843,23.801214,135.588203
53349,NaN,-6.191220,4.522515,11.190620,0.492825,-0.520794,3.733454,0.171202,1.272446,0.109140,-0.397293,0.122810,-0.250796,-0.874172,21.993015,24.455926,135.941254
53350,NaN,-6.729762,4.854009,11.892095,0.515062,-0.554345,4.668317,-0.093878,0.824870,0.088306,-0.395877,0.126469,-0.252114,-0.873914,22.045589,24.876171,136.179811
53351,NaN,-6.143483,4.380051,11.659048,0.434033,-0.006530,4.067944,-0.411708,0.300811,0.057724,-0.395051,0.128507,-0.250985,-0.874315,21.857266,25.025080,136.276564
53352,NaN,-4.877190,3.558944,10.623667,0.202602,0.662324,2.387119,-0.615617,-0.007856,0.050203,-0.394511,0.129605,-0.248347,-0.875150,21.519616,25.011349,136.296137
53353,NaN,-4.158909,2.760493,9.694629,0.318759,1.018095,1.039234,-0.652636,0.000061,0.044748,-0.393957,0.130818,-0.245557,-0.876006,21.160133,25.003389,136.314342
53354,NaN,-4.079884,2.260724,9.037604,0.619441,0.966948,0.292540,-0.609890,0.177477,-0.003797,-0.393422,0.132779,-0.243269,-0.876590,20.830049,25.100058,136.344174
53355,NaN,-4.118169,2.070336,8.569104,0.751009,0.788029,-0.143674,-0.573982,0.384477,-0.064689,-0.392921,0.135653,-0.241503,-0.876862,20.524741,25.320495,136.383631
53356,NaN,-3.959558,1.880047,8.121383,0.745169,0.761576,-0.645692,-0.566582,0.619517,-0.117498,-0.392368,0.139602,-0.240190,-0.876851,20.232046,25.677543,136.442411
53357,NaN,-4.060386,1.370111,7.752013,1.139396,0.817615,-1.066815,-0.528540,0.856394,-0.161938,-0.391743,0.144567,-0.239475,-0.876521,19.971981,26.171395,136.524788
53358,NaN,-4.431629,1.025137,7.649001,1.565878,0.771070,-1.086281,-0.405016,0.993514,-0.208480,-0.391237,0.149942,-0.239526,-0.875830,19.783128,26.748151,136.607114
53359,NaN,-4.791922,0.792479,7.782112,1.884783,0.806882,-0.871347,-0.260855,0.993737,-0.229826,-0.390920,0.155058,-0.240189,-0.874898,19.671455,27.329680,136.675379
53360,NaN,-5.193276,0.673185,8.112612,2.136533,0.865500,-0.435945,-0.096264,0.847583,-0.203805,-0.390785,0.159178,-0.241297,-0.873914,19.646598,27.827146,136.727046
53361,NaN,-5.778238,0.803471,8.139536,2.362258,0.497561,-0.093758,0.007739,0.524909,-0.140465,-0.390839,0.161607,-0.242280,-0.873172,19.667322,28.138562,136.747368
53362,NaN,-5.921149,0.575421,7.933240,2.624136,0.453705,-0.260962,0.063131,0.125516,-0.113368,-0.391303,0.162150,-0.242740,-0.872735,19.685764,28.229126,136.696678
53363,NaN,-5.323920,0.322141,7.698500,2.457574,0.830512,-0.813500,0.119617,-0.175304,-0.115411,-0.392185,0.161273,-0.242862,-0.872468,19.705552,28.157971,136.579200
53364,NaN,-4.440982,-0.118310,7.386698,2.272365,1.434887,-1.622630,0.181129,-0.256071,-0.104430,-0.393168,0.159911,-0.243095,-0.872211,19.754646,28.041189,136.450298
53365,NaN,-3.650691,-0.680309,7.364782,2.216560,2.219051,-2.184252,0.245548,-0.099632,-0.095059,-0.393968,0.159091,-0.243929,-0.871767,19.860565,28.007076,136.361921
53366,NaN,-3.482059,-1.306520,7.766601,2.566596,2.912560,-2.126249,0.343691,0.199986,-0.068783,-0.394368,0.159354,-0.245794,-0.871014,20.060108,28.129418,136.355203
53367,NaN,-3.539033,-1.752562,8.456337,2.893399,3.549383,-1.680298,0.451132,0.453754,-0.041251,-0.394416,0.160472,-0.248655,-0.869974,20.357701,28.382750,136.423556
53368,NaN,-3.482515,-1.974434,9.129035,2.974231,4.142777,-1.247848,0.516060,0.600703,0.052177,-0.393926,0.161987,-0.252148,-0.868910,20.735255,28.695786,136.583576
53369,NaN,-3.034475,-1.882456,9.877908,2.556567,4.859353,-0.858656,0.532737,0.689427,0.180915,-0.392767,0.163685,-0.256000,-0.867989,21.174383,29.028890,136.846958
53370,NaN,-3.123955,-1.233595,10.528016,2.056713,4.899030,-0.123073,0.394531,0.714588,0.376153,-0.390614,0.165515,-0.259441,-0.867592,21.596121,29.332808,137.238101
53371,NaN,-3.037105,-0.765940,10.323522,1.639195,4.648019,-0.216116,0.061110,0.697778,0.488981,-0.387703,0.167770,-0.261506,-0.867844,21.864401,29.601856,137.698556
53372,NaN,-2.251029,-0.908784,9.207835,1.289767,4.598673,-1.574650,-0.315050,0.882354,0.624556,-0.383645,0.171378,-0.262384,-0.868677,21.981327,29.938433,138.288402
53373,NaN,-2.086070,-1.679930,7.744162,1.825223,4.336776,-3.104069,-0.534804,1.311339,0.836326,-0.377891,0.176980,-0.263320,-0.869793,22.099933,30.456483,139.119981
53374,NaN,-3.372946,-1.706433,6.677458,2.702346,3.090888,-3.330495,-0.526682,1.823395,1.032124,-0.370592,0.184524,-0.265384,-0.870738,22.359588,31.200986,140.207280
53375,NaN,-4.635231,-0.903926,5.201791,3.034782,1.184854,-3.588153,-0.380671,2.252476,1.260138,-0.361805,0.193332,-0.269075,-0.871389,22.860655,32.116337,141.564575
53376,NaN,-6.268724,0.636123,4.111941,3.094800,-1.072918,-3.039431,-0.185386,2.613324,1.553484,-0.351381,0.202933,-0.274473,-0.871788,23.654642,33.142109,143.226627
53377,NaN,-8.575168,2.335910,2.953892,3.605618,-3.736011,-2.018460,0.053643,2.859612,1.793355,-0.339716,0.212799,-0.281545,-0.871804,24.759603,34.216979,145.151353
53378,NaN,-10.519456,4.530083,1.857880,3.630545,-6.393714,-0.837218,0.291939,3.036683,1.908703,-0.327462,0.222816,-0.289969,-0.871229,26.129136,35.320831,147.252176
53379,NaN,-11.913946,6.217280,0.980989,3.698710,-8.269132,0.161312,0.430240,3.246575,1.911825,-0.314921,0.233430,-0.299269,-0.869927,27.694061,36.485967,149.488550
53380,NaN,-13.072433,7.339184,-0.271641,4.137170,-9.873718,0.684571,0.607385,3.500016,1.766251,-0.302735,0.245013,-0.309437,-0.867507,29.438863,37.767284,151.794667
53381,NaN,-14.442569,8.317007,-0.681715,4.644688,-10.817305,2.002665,0.765180,3.695199,1.506769,-0.291433,0.257491,-0.320162,-0.863864,31.320914,39.159867,154.104246
53382,NaN,-14.883099,9.252601,-1.051041,4.490120,-11.313955,2.837153,0.780039,3.725614,1.155888,-0.281511,0.270559,-0.330403,-0.859292,33.186747,40.617208,156.307838
53383,NaN,-15.073948,9.864075,-0.993887,4.203041,-11.212753,3.681184,0.734393,3.740440,0.764164,-0.273065,0.284275,-0.339824,-0.853899,34.986223,42.149875,158.382704
53384,NaN,-13.984712,10.436794,-1.898613,3.286801,-11.463771,3.065622,0.719335,3.774333,0.431967,-0.265868,0.298642,-0.348623,-0.847696,36.764698,43.764054,160.377888
53385,NaN,-13.324333,10.139241,-2.863970,3.249551,-11.409250,2.343905,0.799587,3.867718,0.202577,-0.259486,0.313555,-0.357415,-0.840598,38.650731,45.449844,162.401218
53386,NaN,-11.743113,9.208837,-3.905583,3.046574,-10.903041,0.664493,0.977574,3.957109,-0.004542,-0.254001,0.328889,-0.366607,-0.832415,40.726245,47.204344,164.485605
53387,NaN,-10.223709,8.724703,-4.530528,2.466609,-10.458478,-0.556419,1.274716,4.254536,-0.202546,-0.249157,0.345265,-0.376916,-0.822586,43.179766,49.098974,166.789175
53388,NaN,-9.299633,8.788922,-4.579243,1.691394,-10.038981,-0.811224,1.499521,4.586743,-0.369442,-0.244635,0.362888,-0.388084,-0.811083,46.070489,51.127417,169.425041
53389,NaN,-8.855403,8.462402,-4.005995,1.221387,-8.965858,-0.638169,1.598541,4.703487,-0.384737,-0.239972,0.380640,-0.399522,-0.798692,49.358162,53.108753,172.420557
53390,NaN,-8.317617,7.738018,-3.149106,0.843224,-7.435064,-0.704333,1.672619,4.551040,-0.263770,-0.235132,0.397258,-0.411080,-0.786074,52.986500,54.871620,175.708992
53391,NaN,-7.997733,7.086101,-2.310647,0.562620,-5.998434,-0.691315,1.719334,4.219613,-0.059499,-0.230127,0.411842,-0.422590,-0.773851,56.829972,56.295162,179.164923
53392,NaN,-8.300157,5.676100,-1.950457,1.393659,-4.593250,-0.765016,1.812803,3.668673,0.135175,-0.225621,0.423618,-0.434054,-0.762391,60.685746,57.329461,-177.481075
53393,NaN,-8.640829,5.152820,-1.581871,1.633775,-3.674645,-0.456733,2.084316,3.027109,0.260735,-0.222513,0.432173,-0.445907,-0.751586,64.420086,58.002400,-174.483172
53394,NaN,-9.343902,5.345843,-0.785910,1.364015,-2.736701,0.538333,2.331151,2.447847,0.240525,-0.221239,0.438221,-0.457885,-0.741186,67.927470,58.452968,-171.940786
53395,NaN,-9.845489,5.351346,0.136828,1.070277,-1.595868,1.227609,2.514211,1.940022,0.109670,-0.221952,0.442330,-0.469543,-0.731171,71.111808,58.789463,-169.906282
53396,NaN,-9.622415,5.554920,0.820903,0.376268,-0.826410,1.290926,2.658539,1.497850,-0.064375,-0.224606,0.444998,-0.480764,-0.721384,73.988064,59.092058,-168.338840
53397,NaN,-8.458229,5.527093,1.526983,-0.606892,-0.048941,0.387572,2.786837,1.330819,-0.221136,-0.228457,0.447155,-0.491771,-0.711352,76.772645,59.413897,-166.964629
53398,NaN,-7.136003,5.649059,2.459776,-1.841609,0.841275,-0.605103,2.843378,1.386683,-0.275620,-0.232438,0.449506,-0.502824,-0.700775,79.685694,59.740837,-165.487941
53399,NaN,-6.264834,5.939040,3.712739,-3.069824,2.023492,-1.165180,2.785880,1.617343,-0.230943,-0.235489,0.452466,-0.513889,-0.689737,82.828398,60.019568,-163.707913
53400,NaN,-6.036950,6.538524,4.977376,-4.198444,3.218154,-1.096062,2.515142,1.841170,-0.056822,-0.236698,0.455990,-0.524569,-0.678878,86.104387,60.163833,-161.602825
53401,NaN,-6.410647,6.528453,5.713106,-4.331437,4.238961,-0.889755,2.086672,1.915943,0.181047,-0.235869,0.459514,-0.534286,-0.669142,89.221595,60.112253,-159.394891
53402,NaN,-6.942424,6.478162,5.953707,-4.159082,4.825887,-0.592215,1.603571,1.803393,0.411578,-0.233421,0.462565,-0.542709,-0.661071,91.940974,59.875415,-157.327093
53403,NaN,-7.276857,6.112913,5.889855,-3.697395,5.159134,-0.608393,1.191113,1.596767,0.580428,-0.229989,0.464865,-0.549829,-0.654747,94.160905,59.502036,-155.554048
53404,NaN,-7.076392,5.577462,5.291647,-3.141578,4.895204,-1.132280,0.927452,1.456231,0.692042,-0.225946,0.466683,-0.556143,-0.649507,96.045610,59.042112,-153.990526
53405,NaN,-6.421396,5.505306,4.600574,-3.133670,4.282009,-1.778386,0.850922,1.545581,0.785839,-0.221148,0.468549,-0.562466,-0.644351,97.898574,58.495146,-152.401652
53406,NaN,-6.226295,5.810452,3.930279,-3.228184,3.690708,-1.817077,0.872456,1.800073,0.879895,-0.215360,0.470916,-0.569313,-0.638547,99.927926,57.845685,-150.612195
53407,NaN,-6.594313,6.010297,3.670283,-3.124412,3.678648,-1.459171,0.891555,2.132146,0.990922,-0.208286,0.473921,-0.576748,-0.631964,102.154018,57.061890,-148.585524
53408,NaN,-7.670553,6.297614,3.687269,-2.865099,4.152885,-0.505062,0.943821,2.400802,1.088758,-0.200220,0.477377,-0.584770,-0.624554,104.522174,56.146014,-146.408214
53409,NaN,-9.330861,6.607943,4.092733,-2.493103,5.236147,0.856831,0.954331,2.446024,1.156774,-0.191789,0.480647,-0.592903,-0.616978,106.789097,55.136976,-144.332902
53410,NaN,-10.655271,7.523502,4.518329,-2.766698,6.166877,2.223007,0.907543,2.258115,1.161075,-0.183755,0.483291,-0.600620,-0.609852,108.772510,54.116091,-142.549434
53411,NaN,-11.297902,8.335425,4.656813,-3.158331,6.651108,3.016452,0.686704,2.004165,1.083921,-0.176153,0.485502,-0.607134,-0.603859,110.361284,53.153706,-141.073524
53412,NaN,-11.610543,8.384055,4.366363,-2.929204,6.758838,3.221662,0.333962,1.765337,0.954955,-0.168793,0.487649,-0.611992,-0.599311,111.549290,52.289051,-139.831640
53413,NaN,-11.492971,7.694538,3.649152,-2.153852,6.409563,2.792299,0.019535,1.548099,0.777710,-0.161842,0.489895,-0.615232,-0.596070,112.406026,51.551238,-138.766075
53414,NaN,-11.008676,7.018154,2.900264,-1.553024,5.829555,2.122951,-0.161243,1.340883,0.626657,-0.155532,0.492113,-0.617361,-0.593717,113.035635,50.931291,-137.850761
53415,NaN,-10.430045,6.879988,2.290436,-1.473129,5.185855,1.689576,-0.296720,1.082199,0.516340,-0.150000,0.493977,-0.618582,-0.592320,113.427422,50.422198,-137.133276
53416,NaN,-9.018758,7.502550,1.337879,-2.230619,3.692216,1.178570,-0.480183,0.881684,0.472535,-0.144768,0.495512,-0.618982,-0.591922,113.589987,49.980609,-136.573940
53417,NaN,-7.338074,7.371634,-0.613594,-2.089001,1.316543,0.309925,-0.546387,0.908613,0.481260,-0.139251,0.497122,-0.619206,-0.591661,113.718279,49.526495,-136.004563
53418,NaN,-6.628691,6.915871,-2.096554,-1.410032,-0.145219,-0.109365,-0.395622,1.093847,0.507818,-0.133459,0.499083,-0.620049,-0.590461,114.031147,49.014931,-135.302774
53419,NaN,-6.801705,6.796054,-2.734606,-0.929712,-0.505025,0.127493,-0.183561,1.257977,0.545118,-0.127563,0.501243,-0.621693,-0.588202,114.536918,48.441120,-134.498904
53420,NaN,-7.599646,6.945665,-2.661805,-0.676126,0.020217,0.799720,-0.011385,1.238313,0.587152,-0.122038,0.503087,-0.623908,-0.585448,115.102239,47.845938,-133.741491
53421,NaN,-8.341065,6.865769,-2.467941,-0.327215,0.680907,1.243124,0.068782,0.999210,0.619452,-0.117354,0.504054,-0.626267,-0.583050,115.550407,47.287509,-133.196826
53422,NaN,-8.413238,6.617968,-2.263252,-0.161580,1.039434,1.077450,0.090340,0.648353,0.613987,-0.113841,0.503996,-0.628454,-0.581441,115.808618,46.817402,-132.925252
53423,NaN,-8.095516,6.309127,-2.140981,-0.091504,1.113251,0.612195,0.080883,0.354902,0.555370,-0.111390,0.503261,-0.630287,-0.580568,115.910533,46.449638,-132.858104
53424,NaN,-7.613162,6.111473,-1.943509,-0.221220,1.119771,0.075919,0.052400,0.207272,0.450979,-0.109641,0.502443,-0.631689,-0.580085,115.944466,46.173324,-132.863208
53425,NaN,-7.135276,5.938350,-1.934819,-0.291627,0.948696,-0.382179,0.027162,0.177600,0.360743,-0.108177,0.501830,-0.632770,-0.579712,115.969849,45.950210,-132.858953
53426,NaN,-6.773594,5.888786,-1.907264,-0.416157,0.825468,-0.683485,0.000467,0.236681,0.327567,-0.106561,0.501511,-0.633721,-0.579249,116.021113,45.730129,-132.798370
53427,NaN,-6.395732,6.096150,-2.114061,-0.641030,0.455056,-0.761746,-0.047991,0.387973,0.336847,-0.104310,0.501619,-0.634632,-0.578568,116.119638,45.466335,-132.631438
53428,NaN,-6.749379,6.113291,-2.285807,-0.387505,0.533812,-0.447006,-0.121670,0.567565,0.388405,-0.101162,0.502122,-0.635546,-0.577686,116.255592,45.131176,-132.352598
53429,NaN,-7.210740,6.129706,-2.680478,0.024295,0.496416,0.011040,-0.154584,0.644721,0.435730,-0.097541,0.502701,-0.636515,-0.576737,116.395669,44.750847,-132.038475
53430,NaN,-7.605416,6.189076,-3.246870,0.455490,0.285438,0.502340,-0.143171,0.643934,0.436271,-0.093955,0.503269,-0.637508,-0.575740,116.539119,44.370709,-131.727733
53431,NaN,-7.865057,6.382179,-3.623577,0.637513,0.142799,0.924836,-0.106238,0.577001,0.400475,-0.090769,0.503729,-0.638477,-0.574774,116.674458,44.024732,-131.455976
53432,NaN,-8.104551,6.666361,-3.430574,0.475849,0.439595,1.208792,-0.073874,0.437217,0.333104,-0.088312,0.503988,-0.639299,-0.574015,116.774753,43.749718,-131.261028
53433,NaN,-7.485244,6.625817,-3.944208,0.473530,-0.272008,0.919915,-0.035199,0.225774,0.298853,-0.086719,0.503724,-0.640050,-0.573653,116.799821,43.545800,-131.205278
53434,NaN,-7.016065,6.543597,-4.082204,0.392222,-0.598646,0.589040,0.047048,0.176323,0.225858,-0.085708,0.503521,-0.640830,-0.573113,116.866849,43.392865,-131.157951
53435,NaN,-6.894318,6.487838,-3.889317,0.293799,-0.472870,0.406925,0.117685,0.116623,0.186896,-0.085170,0.503234,-0.641687,-0.572485,116.953457,43.274367,-131.139846
53436,NaN,-6.652487,6.386753,-3.990203,0.302590,-0.650327,0.209957,0.166519,0.070318,0.157334,-0.084995,0.502895,-0.642589,-0.571797,117.054214,43.183871,-131.143082
53437,NaN,-5.992882,6.390639,-4.093324,0.030535,-1.075966,-0.202718,0.187637,0.110665,0.162360,-0.084722,0.502638,-0.643580,-0.570948,117.183567,43.079394,-131.121012
53438,NaN,-5.603392,5.987684,-4.362802,0.265973,-1.417140,-0.636345,0.258014,0.255921,0.223071,-0.083992,0.502576,-0.644985,-0.569524,117.408447,42.906607,-131.019217
53439,NaN,-5.638911,5.597397,-4.538917,0.650022,-1.432150,-0.798474,0.426332,0.455189,0.312385,-0.082780,0.502712,-0.647171,-0.567096,117.798530,42.634360,-130.814440
53440,NaN,-6.308798,5.745213,-4.414415,0.793004,-0.905129,-0.281334,0.615640,0.616242,0.377680,-0.081343,0.503013,-0.650115,-0.563660,118.353615,42.285161,-130.526205
53441,NaN,-7.821426,5.990365,-3.809227,1.041630,0.496054,0.686718,0.731549,0.563614,0.394835,-0.080311,0.503044,-0.653390,-0.559980,118.939711,41.938982,-130.287321
53442,NaN,-8.537287,6.593610,-2.901201,0.506031,1.640879,1.224930,0.705655,0.144923,0.366238,-0.080669,0.502003,-0.656341,-0.557407,119.328158,41.723175,-130.322876
53443,NaN,-7.801317,7.121847,-2.638055,-0.364320,1.416225,0.976293,0.569484,-0.260902,0.350158,-0.082052,0.499924,-0.658697,-0.556293,119.459703,41.628882,-130.625923
53444,NaN,-6.953768,6.712614,-2.817389,-0.379793,0.852970,0.211281,0.409020,-0.463407,0.324861,-0.083779,0.497432,-0.660452,-0.556189,119.417870,41.605326,-131.053451
53445,NaN,-6.473942,6.290265,-2.852306,-0.269853,0.600084,-0.369062,0.362330,-0.528285,0.317327,-0.085615,0.494790,-0.662023,-0.556398,119.320911,41.602465,-131.522314
53446,NaN,-5.994550,6.118403,-2.998407,-0.303167,0.225784,-0.745327,0.385735,-0.526776,0.325364,-0.087489,0.492117,-0.663670,-0.556515,119.237599,41.595592,-131.992250
53447,NaN,-5.833470,5.884301,-3.217203,-0.106689,-0.019903,-0.924888,0.452678,-0.444197,0.325145,-0.089245,0.489631,-0.665531,-0.556206,119.228035,41.564457,-132.407649
53448,NaN,-5.579778,5.821912,-3.171780,-0.207646,-0.105118,-1.150438,0.596612,-0.320184,0.330820,-0.090933,0.487407,-0.667852,-0.555103,119.356313,41.497027,-132.741269
53449,NaN,-6.731427,6.785121,-1.950421,-0.859726,1.478294,-0.209065,0.601709,-0.248293,0.304190,-0.092456,0.485456,-0.670147,-0.553794,119.524776,41.422305,-133.017735
53450,NaN,-7.752618,6.517884,-1.134524,-0.464964,2.752421,-0.010596,0.404681,-0.475966,0.198824,-0.094564,0.483319,-0.671525,-0.553637,119.507701,41.465662,-133.405266
53451,NaN,-7.079695,6.355372,-1.678323,-0.456711,1.931512,-0.358047,0.343763,-0.650226,0.086483,-0.097410,0.481093,-0.672374,-0.554052,119.404533,41.612856,-133.868046
53452,NaN,-6.469117,5.652407,-2.766734,0.193140,0.717873,-0.818174,0.395406,-0.670346,0.018604,-0.100645,0.479014,-0.673180,-0.554297,119.337942,41.800282,-134.319684
53453,NaN,-6.556226,5.217982,-3.285653,0.756167,0.335175,-0.850391,0.642625,-0.649132,0.028510,-0.104362,0.476821,-0.674696,-0.553657,119.417150,41.975639,-134.762631
53454,NaN,-6.875634,5.974147,-2.824578,0.150045,0.826664,-0.313367,0.853496,-0.809901,0.139025,-0.108825,0.473692,-0.676954,-0.552727,119.516125,42.142986,-135.355830
53455,NaN,-7.381395,6.179159,-2.222172,0.024241,1.572189,-0.059092,0.904753,-1.064647,0.224087,-0.114021,0.469517,-0.679389,-0.552253,119.503948,42.338855,-136.155115
53456,NaN,-8.212453,5.574799,-2.379088,0.989806,1.845361,0.177172,0.901477,-1.469353,0.222928,-0.120592,0.464206,-0.681535,-0.552703,119.300729,42.649446,-137.231247
53457,NaN,-8.818909,5.038554,-2.515837,1.781381,1.955875,0.311028,0.998422,-1.867708,0.101339,-0.129058,0.458101,-0.683366,-0.553623,118.987259,43.127058,-138.542305
53458,NaN,-10.045903,5.759803,-1.626738,1.607756,3.154761,1.331891,1.121224,-2.374740,-0.114016,-0.140129,0.451190,-0.684613,-0.555065,118.537545,43.847968,-140.139540
53459,NaN,-10.780148,6.421167,-0.829852,1.280327,3.960173,2.053329,0.995739,-3.260141,-0.176516,-0.154074,0.442012,-0.684595,-0.558763,117.552511,44.822801,-142.374904
53460,NaN,-10.608000,6.274451,-0.473424,1.256598,3.876634,1.827791,0.772493,-4.370343,-0.136133,-0.171169,0.429599,-0.682911,-0.565490,115.767836,46.025863,-145.510803
53461,NaN,-9.711637,6.161068,0.034959,0.805442,3.562579,1.092067,0.423639,-5.500167,0.043427,-0.190739,0.413402,-0.679239,-0.575632,112.964265,47.311381,-149.706975
53462,NaN,-8.236936,6.083728,0.463202,0.043123,2.982943,-0.007056,0.042542,-6.412442,0.233822,-0.211917,0.393932,-0.673373,-0.588623,109.143873,48.517170,-154.894312
53463,NaN,-7.493936,5.482568,0.796642,0.157797,2.595299,-0.864749,-0.439434,-7.072068,0.434060,-0.233517,0.371902,-0.665025,-0.604070,104.352718,49.455266,-160.916532
53464,NaN,-6.059650,4.845016,1.075046,-0.110946,2.072164,-2.261459,-0.851132,-7.575627,0.683938,-0.254969,0.347501,-0.654390,-0.621295,98.757588,49.951418,-167.617140
53465,NaN,-4.415445,4.278295,1.482952,-0.593716,1.833499,-3.790248,-1.154330,-7.804361,1.025086,-0.275176,0.321126,-0.642132,-0.639392,92.746256,49.822470,-174.617371
53466,NaN,-3.918564,3.685810,2.095557,-0.337207,2.068666,-4.434517,-1.325776,-7.708697,1.254841,-0.293649,0.294053,-0.628798,-0.657204,86.822716,49.095076,178.584511
53467,NaN,-4.508645,3.133834,2.593878,0.624606,2.208014,-4.191775,-1.442172,-7.497034,1.304475,-0.310656,0.267235,-0.614517,-0.674127,81.254972,47.911257,172.248766
53468,NaN,-5.489274,3.147456,3.557033,1.472164,2.623491,-3.208619,-1.609922,-7.781381,1.279562,-0.327928,0.239383,-0.598219,-0.690865,75.781343,46.311630,166.034537
53469,NaN,-5.547047,2.946669,2.917460,1.789073,1.502112,-3.294568,-1.778276,-7.034295,1.205384,-0.342517,0.214249,-0.581605,-0.706056,71.044997,44.504307,160.807834
53470,NaN,-6.917564,3.226018,3.655272,2.718262,1.326420,-1.910800,-1.935932,-7.086075,1.139501,-0.356868,0.189105,-0.563459,-0.720693,66.567278,42.433552,155.908048
53471,NaN,-6.564112,3.186302,3.389119,2.602407,0.574088,-2.223775,-2.079883,-7.440498,1.112418,-0.371644,0.162740,-0.543342,-0.734967,62.248125,40.021600,151.155834
53472,NaN,-5.946191,3.305891,2.798516,2.096184,-0.355821,-2.772216,-2.160742,-7.765097,1.044593,-0.386911,0.135264,-0.521380,-0.748443,58.155035,37.295818,146.583117
53473,NaN,-5.121003,3.831261,2.263365,1.115398,-1.107536,-3.214891,-2.135436,-8.063918,0.945581,-0.402667,0.106644,-0.498006,-0.760576,54.378974,34.283181,142.210864
53474,NaN,-4.629967,4.166505,2.110959,0.537192,-1.558635,-3.447679,-2.014119,-8.175043,0.737903,-0.418854,0.077692,-0.473851,-0.770708,50.995089,31.111406,138.079746
53475,NaN,-3.119220,5.031155,2.718142,-0.860322,-0.835006,-3.411245,-1.762305,-7.938708,0.579511,-0.434453,0.049357,-0.450307,-0.778484,48.149196,27.912414,134.342102
53476,NaN,-2.294681,5.947072,3.048001,-1.884380,-0.643841,-3.034184,-1.237335,-7.227064,0.483755,-0.448311,0.022799,-0.429622,-0.783532,46.027042,24.893736,131.158390
53477,NaN,-1.592773,6.637355,4.983546,-2.036017,0.686385,-1.639560,-0.604465,-6.035657,0.432455,-0.459361,-0.000436,-0.413617,-0.786071,44.685806,22.291192,128.656912
53478,NaN,-2.143938,7.325412,6.703089,-1.417043,0.919676,0.203540,-0.070735,-4.688727,0.431968,-0.467303,-0.019589,-0.402483,-0.786925,43.985796,20.202086,126.824070
53479,NaN,-3.136888,8.585911,8.882291,-0.723879,0.908993,2.879588,0.140322,-3.291166,0.244177,-0.472943,-0.033366,-0.395308,-0.786730,43.644700,18.748551,125.539706
53480,NaN,-4.580508,9.544076,10.160559,0.032127,0.071514,4.860320,-0.123786,-1.898289,0.051674,-0.476560,-0.040642,-0.390343,-0.786684,43.335849,17.944706,124.765321
53481,NaN,-6.466096,10.035316,10.603954,0.919846,-1.527867,6.054669,-0.618553,-2.181472,0.015444,-0.480905,-0.047789,-0.382727,-0.787380,42.719511,17.028927,123.871235
53482,NaN,-5.918232,10.097651,9.254329,-0.055174,-2.195703,4.945193,-1.133217,-2.546650,0.018617,-0.485995,-0.055122,-0.372127,-0.788855,41.784251,15.946373,122.848120
53483,NaN,-5.827400,9.087438,8.409779,0.171672,-2.681752,3.604872,-1.386471,-2.722299,0.033878,-0.491304,-0.062561,-0.360035,-0.790621,40.716358,14.764640,121.790037
53484,NaN,-6.621153,8.181070,7.658130,0.804836,-3.873163,2.586943,-1.365444,-3.459088,0.041247,-0.497768,-0.072954,-0.346083,-0.791916,39.621305,13.237670,120.483455
53485,NaN,-5.589409,7.188873,6.154036,0.250175,-3.854070,0.476308,-1.082199,-4.152905,-0.064159,-0.505539,-0.086592,-0.331452,-0.791879,38.671890,11.418971,118.909941
53486,NaN,-3.058460,6.512451,5.006782,-1.036593,-2.303284,-1.419264,-0.533753,-4.023272,-0.342628,-0.513746,-0.100596,-0.319278,-0.789941,38.073069,9.737029,117.290053
53487,NaN,-0.685581,6.407475,4.143372,-2.447749,-0.697558,-2.586718,0.074486,-3.090548,-0.703615,-0.521406,-0.111877,-0.311994,-0.786308,37.894318,8.592795,115.857546
53488,NaN,-1.352542,5.524635,4.623819,-1.231121,-0.920775,-2.645601,0.666340,-1.642781,-1.134256,-0.528081,-0.118310,-0.310982,-0.781296,38.118339,8.254840,114.746472
53489,NaN,-1.833602,7.737536,5.956779,-1.981075,-1.354252,-0.171402,1.225524,-0.368331,-1.655138,-0.534412,-0.120426,-0.315805,-0.774705,38.696127,8.682067,113.855862
53490,NaN,-2.397757,9.042410,7.661743,-1.804867,-1.341925,2.068049,1.491802,0.673001,-1.926215,-0.539920,-0.118770,-0.324545,-0.767496,39.455117,9.680046,113.226982
53491,NaN,-1.163147,13.251003,11.602755,-3.296749,0.752455,7.511007,1.465847,1.570376,-1.846097,-0.543578,-0.113714,-0.335518,-0.760934,40.257524,11.052222,112.981034
53492,NaN,-4.683618,13.047259,16.097528,0.610432,-0.171607,11.421182,0.430613,1.800610,-1.211156,-0.544937,-0.106012,-0.342746,-0.757846,40.536564,12.290559,113.116938
53493,NaN,-6.362490,11.880268,16.655257,2.292655,-0.904671,11.469632,-0.423082,1.052529,-0.872484,-0.546696,-0.099392,-0.344509,-0.756675,40.301779,13.077480,113.120904
53494,NaN,-5.587926,12.019810,15.678966,1.151589,-0.521998,10.679423,-1.076896,0.042269,-0.662433,-0.549706,-0.095161,-0.340899,-0.756674,39.623131,13.342815,112.830723
53495,NaN,-2.856342,9.485418,12.875551,0.391805,1.117414,6.389324,-1.268060,-0.652866,-0.279189,-0.552511,-0.093687,-0.334475,-0.757681,38.816902,13.157709,112.453607
53496,NaN,-1.355740,7.082386,11.466040,0.845908,2.172788,3.530105,-0.808011,-0.690997,0.029611,-0.553977,-0.094137,-0.329512,-0.758729,38.302942,12.840361,112.206499
53497,NaN,-2.286391,7.117843,10.591409,0.668360,0.901171,3.102815,-0.286034,-0.279163,0.054488,-0.554412,-0.094514,-0.327671,-0.759162,38.127430,12.698806,112.123333
53498,NaN,-4.662741,7.613351,9.659078,0.651826,-1.709347,3.212486,-0.246902,0.227859,-0.115616,-0.554645,-0.092792,-0.327443,-0.759302,37.995158,12.845034,112.144875
53499,NaN,-6.164650,7.411867,8.620443,0.766189,-3.400363,2.641225,-0.628242,0.561182,-0.523672,-0.556047,-0.088082,-0.326897,-0.759073,37.631135,13.286383,112.097012
53500,NaN,-6.652153,7.086588,7.540761,0.531429,-4.134147,1.761302,-0.856809,0.861948,-1.045900,-0.559020,-0.080731,-0.326516,-0.757869,37.099950,14.045466,111.907698
53501,NaN,-6.654345,6.693166,6.709525,0.264078,-4.297252,0.937004,-1.021111,0.976124,-1.464746,-0.563408,-0.071804,-0.325992,-0.755741,36.432445,14.999079,111.552020
53502,NaN,-7.027797,6.802051,7.383991,0.425201,-4.261185,1.669377,-1.042306,0.653652,-1.542990,-0.568575,-0.063891,-0.324460,-0.753237,35.701616,15.825568,111.031674
53503,NaN,-7.504077,6.848926,8.165993,0.688892,-4.329480,2.462438,-1.197815,-0.410479,-1.372653,-0.574817,-0.059824,-0.319248,-0.751057,34.797625,16.090488,110.215356
53504,NaN,-5.534079,6.441055,8.916384,0.485131,-2.273677,2.278807,-1.367815,-1.576217,-1.274088,-0.582539,-0.059784,-0.309968,-0.748996,33.699341,15.758351,109.051431
53505,NaN,-2.564993,6.681349,10.319301,-0.219745,0.760794,2.720193,-1.569531,-2.304976,-1.207416,-0.591083,-0.061990,-0.297742,-0.747079,32.446761,15.031982,107.695421
53506,NaN,0.173474,6.509588,11.657873,-0.464747,3.557562,3.049283,-1.850607,-2.351704,-1.119390,-0.599318,-0.063642,-0.284218,-0.745646,31.061703,14.227034,106.390999
53507,NaN,1.665584,6.723240,13.145737,-0.604795,5.186375,4.098191,-2.108312,-1.995883,-1.023551,-0.606618,-0.063330,-0.270710,-0.744796,29.590851,13.538537,105.267495
53508,NaN,1.594622,7.257890,13.921406,-0.987625,5.073216,5.097034,-2.437523,-1.539550,-0.890984,-0.612775,-0.060475,-0.257240,-0.744766,27.991238,13.013575,104.363357
53509,NaN,1.295962,7.093699,13.723320,-1.193745,4.541902,4.960961,-2.773836,-1.100737,-0.773810,-0.617886,-0.055102,-0.243783,-0.745487,26.251622,12.656448,103.656368
53510,NaN,0.679389,6.605340,13.078176,-1.248608,3.662892,4.334409,-2.888265,-0.637623,-0.686288,-0.621998,-0.047737,-0.231229,-0.746574,24.485438,12.495878,103.123930
53511,NaN,-0.548100,6.137770,12.668754,-1.095402,2.324006,4.038491,-2.877334,-0.219541,-0.558760,-0.625006,-0.038989,-0.219954,-0.747976,22.765751,12.510566,102.764352
53512,NaN,-1.605084,5.402154,11.785609,-0.867650,1.088353,3.176207,-2.809208,0.075172,-0.388653,-0.626914,-0.029528,-0.209754,-0.749740,21.116663,12.633823,102.561112
53513,NaN,-2.984625,4.358560,10.999730,-0.189053,-0.351208,2.382866,-2.648899,0.330812,-0.211129,-0.627743,-0.019794,-0.200912,-0.751786,19.593291,12.854810,102.504821
53514,NaN,-4.494768,4.016191,10.058245,-0.110033,-2.027757,1.735944,-2.498704,0.325875,-0.122718,-0.628127,-0.010634,-0.192556,-0.753834,18.163197,13.053867,102.490362
53515,NaN,-5.000080,3.102275,8.333334,0.172293,-2.891184,-0.031230,-2.391418,0.087364,-0.065030,-0.628421,-0.002765,-0.183844,-0.755831,16.793269,13.113638,102.461640
53516,NaN,-4.287335,1.968393,6.843319,0.566858,-2.500624,-1.906341,-2.176777,-0.108588,-0.018702,-0.628639,0.003650,-0.175284,-0.757678,15.542648,13.056485,102.425073
53517,NaN,-3.450353,1.442813,6.225985,0.626272,-1.829164,-2.811954,-1.856247,-0.091070,-0.030916,-0.628826,0.009131,-0.167994,-0.759126,14.477027,13.011188,102.385942
53518,NaN,-2.666729,1.960736,6.502892,-0.094008,-1.110683,-2.601585,-1.627641,0.130884,-0.171039,-0.629325,0.014858,-0.162234,-0.759875,13.529610,13.107353,102.298708
53519,NaN,-1.654784,2.607574,7.299020,-0.903323,-0.035017,-1.939013,-1.587329,0.534514,-0.288837,-0.629900,0.022081,-0.157893,-0.760137,12.603419,13.443349,102.196496
53520,NaN,-0.979944,2.938062,8.546514,-1.301195,0.923056,-0.863511,-1.645910,0.948331,-0.261142,-0.629989,0.031044,-0.154608,-0.760425,11.655522,14.005508,102.155160
53521,NaN,-1.836607,2.739258,9.488516,-0.968579,0.459063,0.175126,-1.727925,1.071073,-0.139713,-0.629444,0.040628,-0.151417,-0.761066,10.680612,14.623074,102.189021
53522,NaN,-2.559786,2.287902,9.428016,-0.574050,-0.119730,0.203688,-1.773000,0.728938,-0.076004,-0.628849,0.049005,-0.146961,-0.761938,9.675911,15.040945,102.212723
53523,NaN,-2.353866,2.410339,8.206084,-1.035760,-0.285717,-1.007358,-1.805840,0.266464,0.016161,-0.628177,0.055647,-0.140951,-0.763171,8.655004,15.189939,102.239598
53524,NaN,-2.622494,2.493213,6.467334,-1.358868,-1.076311,-2.607581,-1.924986,-0.050427,0.060151,-0.627476,0.061421,-0.133476,-0.764648,7.563280,15.155298,102.262453
53525,NaN,-2.435316,1.894695,4.825006,-1.041352,-1.293000,-4.331431,-1.946219,-0.154512,0.004284,-0.626990,0.066892,-0.125578,-0.765924,6.450651,15.066597,102.246023
53526,NaN,-2.776029,0.816565,3.406330,-0.071055,-1.834641,-5.737771,-1.684739,-0.002408,-0.037100,-0.626605,0.072150,-0.119122,-0.766792,5.482927,15.066120,102.215796
53527,NaN,-3.883781,0.283356,3.056270,0.613890,-2.878422,-5.832425,-1.201017,0.463302,-0.073679,-0.626221,0.077693,-0.115973,-0.767048,4.794555,15.333506,102.189115
53528,NaN,-5.527748,-0.019495,4.300267,1.232494,-3.997725,-4.195996,-0.775730,1.067049,-0.140162,-0.625882,0.084260,-0.116304,-0.766580,4.344571,15.948209,102.148365
53529,NaN,-7.072643,0.418783,5.913807,1.085922,-4.998395,-2.131158,-0.481701,1.454638,-0.290838,-0.625985,0.091470,-0.118915,-0.765268,4.042219,16.790706,102.030892
53530,NaN,-8.055729,0.410808,7.945899,1.230780,-5.199048,0.169965,-0.349934,1.431885,-0.502256,-0.626934,0.098311,-0.121849,-0.763178,3.773114,17.628285,101.780553
53531,NaN,-7.696240,0.245323,9.767813,1.236444,-4.159160,1.843790,-0.300219,0.906606,-0.636148,-0.628708,0.103059,-0.123261,-0.760863,3.498607,18.168827,101.425084
53532,NaN,-6.128963,0.350491,10.849474,0.752265,-2.337148,2.408994,-0.311289,-0.030472,-0.673027,-0.631181,0.104312,-0.121660,-0.758900,3.196362,18.174014,101.010442
53533,NaN,-4.531406,0.994163,11.303206,-0.237078,-0.900080,2.369918,-0.459225,-1.207148,-0.644067,-0.634159,0.101531,-0.115799,-0.757710,2.807358,17.501583,100.577449
53534,NaN,-1.863149,1.084945,10.728626,-0.842814,1.209142,1.030466,-0.770094,-2.242554,-0.579913,-0.637274,0.095782,-0.105496,-0.757350,2.251267,16.232819,100.163044
53535,NaN,1.171260,0.111581,9.287378,-0.433310,3.585045,-1.175939,-1.084411,-2.676213,-0.471618,-0.639940,0.089302,-0.092656,-0.757573,1.545797,14.708058,99.822423
53536,NaN,2.789118,-0.680359,8.542519,0.037738,4.848064,-2.216190,-1.184257,-2.401363,-0.264240,-0.641523,0.084082,-0.080387,-0.758233,0.825762,13.335263,99.628993
53537,NaN,2.019614,-0.340700,8.673647,-0.242851,3.904034,-1.804983,-1.206535,-1.883180,-0.003109,-0.641799,0.080767,-0.069798,-0.759407,0.137061,12.254955,99.610292
53538,NaN,-0.342649,-0.119736,9.691871,-0.190355,1.645725,-0.256702,-1.153660,-1.426675,0.152262,-0.641282,0.078963,-0.060921,-0.760797,-0.501442,11.436623,99.694156
53539,NaN,-2.284213,0.467741,11.169435,-0.597338,-0.204449,1.579900,-1.075913,-1.312802,0.180114,-0.640603,0.077317,-0.052719,-0.762149,-1.090372,10.684404,99.802445
53540,NaN,-2.764239,0.949110,12.267929,-1.136396,-0.736231,2.725521,-1.063528,-1.344706,0.158844,-0.639973,0.075520,-0.044442,-0.763385,-1.675888,9.914914,99.906018
53541,NaN,-2.806499,1.052626,12.381800,-1.333397,-0.964259,2.819889,-1.101383,-1.253716,0.157829,-0.639265,0.074177,-0.036317,-0.764539,-2.282028,9.198442,100.015391
53542,NaN,-2.893142,2.297757,13.785674,-2.762560,-1.232547,4.135059,-1.348442,-0.854991,0.133924,-0.638443,0.075156,-0.028503,-0.765461,-3.034654,8.711135,100.108333
53543,NaN,-4.749100,2.326240,14.257691,-2.693780,-3.123950,4.823756,-1.785917,-0.547313,0.110300,-0.637454,0.078698,-0.019993,-0.766198,-4.039850,8.400150,100.184327
53544,NaN,-6.332099,2.491686,14.694309,-2.883119,-4.780266,5.387741,-2.266790,-0.525796,0.016877,-0.636561,0.083863,-0.009669,-0.766592,-5.328747,8.099179,100.211454
53545,NaN,-7.662887,2.313329,14.275810,-2.752402,-6.278108,5.048786,-2.769523,-0.924649,-0.076278,-0.635724,0.089082,0.003890,-0.766749,-6.908021,7.565547,100.217337
53546,NaN,-6.935547,2.199892,12.421762,-2.845556,-5.999338,2.959660,-3.143901,-1.625509,-0.143261,-0.634796,0.092789,0.021135,-0.766797,-8.698085,6.630576,100.255585
53547,NaN,-4.385678,1.924118,9.727200,-2.866423,-3.955626,-0.133968,-3.322771,-1.932138,-0.207831,-0.633785,0.095840,0.040067,-0.766503,-10.588705,5.516627,100.316944
53548,NaN,-2.332275,2.099125,7.021170,-3.091455,-2.350734,-3.175481,-3.428806,-1.678439,-0.153492,-0.632331,0.100185,0.058547,-0.765958,-12.537363,4.555959,100.417011
53549,NaN,-0.668310,2.249232,3.010639,-2.754366,-1.006689,-7.369735,-3.526881,-1.113376,-0.029270,-0.630298,0.106995,0.075548,-0.765225,-14.542020,3.928743,100.543560
53550,NaN,1.078140,1.605557,-2.685608,-0.974295,0.705720,-12.895619,-3.445982,-0.281804,0.072318,-0.628030,0.116746,0.089522,-0.764156,-16.503631,3.783048,100.620208
53551,NaN,3.069841,-0.463121,-11.138637,3.263193,2.975135,-20.499096,-2.789094,0.855371,0.212352,-0.625962,0.128802,0.097329,-0.762960,-18.097471,4.283558,100.583924
53552,NaN,1.386086,-4.243757,-20.741722,10.441415,1.746956,-28.198962,-1.143652,2.085414,0.184782,-0.625545,0.140373,0.094995,-0.761554,-18.769486,5.448779,100.299035
53553,NaN,0.247582,-7.637137,-27.325472,16.014469,0.452551,-33.228962,1.580608,3.127632,-0.082658,-0.628414,0.147225,0.079211,-0.759701,-17.924890,7.131083,99.679759
53554,NaN,-3.329367,-4.972715,-27.907594,13.663237,-4.920358,-34.377039,5.120003,5.068795,-0.381955,-0.635216,0.150094,0.044079,-0.756326,-15.141902,9.848358,98.636040
53555,NaN,-8.055963,2.937330,-22.435086,3.939574,-11.846602,-30.321555,7.396232,5.130958,-0.632075,-0.643694,0.145666,0.000230,-0.751292,-11.100497,12.625575,97.589382
53556,NaN,-10.161279,7.427530,-15.028037,-3.311864,-14.190123,-22.914414,8.237944,4.441412,-1.345204,-0.653953,0.135645,-0.043979,-0.742975,-6.662590,15.015633,96.413650
53557,NaN,-9.745583,7.559796,-7.405329,-5.786675,-12.176025,-14.821967,8.874041,2.659946,-1.923373,-0.665850,0.116743,-0.084300,-0.732058,-1.914571,16.450589,95.146464
53558,NaN,-4.718077,11.215790,1.264216,-10.826434,-5.002079,-7.109717,9.708996,1.215233,-1.908488,-0.676863,0.089520,-0.122547,-0.720295,3.320954,17.148938,94.061989
53559,NaN,2.434905,15.383977,13.021452,-14.353418,5.670359,3.365775,9.366180,-0.622226,-1.304056,-0.685420,0.056251,-0.153468,-0.709565,8.453472,16.870363,93.238994
53560,NaN,7.523965,17.001547,22.415497,-13.305411,13.742428,12.136727,7.959749,-0.828497,-0.868171,-0.690438,0.026663,-0.178407,-0.700540,12.842884,16.482052,92.699953
53561,NaN,8.761088,15.499338,29.123117,-8.468989,17.083858,18.493054,5.975580,-0.563460,-0.500775,-0.693225,0.004460,-0.197273,-0.693183,16.165930,16.241847,92.318418
53562,NaN,9.711579,13.689531,31.471124,-4.476697,18.709012,20.219389,3.981471,0.075961,-0.056650,-0.693152,-0.009038,-0.211294,-0.689067,18.446642,16.287779,92.323710
53563,NaN,10.322436,10.453491,29.051202,-1.197319,18.708991,16.801184,2.133371,1.522697,0.351154,-0.690222,-0.011592,-0.223919,-0.687982,19.816041,17.047139,92.812817
53564,NaN,6.960147,3.726579,25.014735,4.267312,14.602915,11.553507,0.617240,4.247904,0.436561,-0.683710,0.000366,-0.240633,-0.688938,20.527099,19.241537,93.952610
53565,NaN,-3.235149,3.990523,22.890617,3.982507,5.336001,12.679968,0.128055,5.274069,0.786379,-0.674462,0.017114,-0.259050,-0.691160,21.166298,21.906652,95.542944
53566,NaN,-6.344012,3.150470,20.519548,4.223462,2.604380,11.318255,-0.915714,4.870453,0.883173,-0.664789,0.035842,-0.272302,-0.694710,21.277909,24.320899,97.157576
53567,NaN,-6.746874,-1.081222,17.180280,7.057175,1.653821,7.194252,-1.500106,4.999594,0.853989,-0.654567,0.056987,-0.283797,-0.698394,21.135608,26.815961,98.803625
53568,NaN,-8.756569,-1.802852,12.733245,6.581886,-1.361335,4.217092,-1.460276,4.988001,0.734330,-0.644278,0.078088,-0.295121,-0.701222,21.058528,29.327089,100.415635
53569,NaN,-12.884090,-2.005855,12.457153,7.301104,-4.255844,6.116229,-1.343999,4.358762,0.650148,-0.634925,0.096691,-0.304654,-0.703354,21.021661,31.525649,101.849977
53570,NaN,-14.055604,-0.638438,12.134868,6.075545,-4.809324,7.074054,-1.604368,2.429343,0.600055,-0.628330,0.109372,-0.306992,-0.706396,20.615223,32.704324,102.803723
53571,NaN,-11.190409,-2.217884,10.805370,6.643827,-2.902081,4.127715,-1.817814,0.592967,0.550740,-0.624505,0.116300,-0.302748,-0.710501,19.842276,32.915200,103.286942
53572,NaN,-6.725287,-2.496588,9.165510,5.586335,-0.149170,0.397027,-1.707908,-0.627408,0.540792,-0.622577,0.118560,-0.295032,-0.715051,18.974043,32.473694,103.481858
53573,NaN,-2.674048,-1.822561,8.692383,3.948212,2.808458,-1.903695,-1.503901,-1.143533,0.536912,-0.621480,0.118328,-0.286426,-0.719529,18.166502,31.755629,103.570995
53574,NaN,-0.027623,-1.322385,8.170580,2.750092,4.593771,-3.500773,-1.421914,-1.209355,0.566335,-0.620370,0.117562,-0.277879,-0.723950,17.409868,30.996993,103.674160
53575,NaN,1.649396,-0.948942,7.478295,1.840645,5.522013,-4.746738,-1.346694,-0.936542,0.662746,-0.618514,0.117396,-0.270505,-0.728345,16.762410,30.373301,103.904199
53576,NaN,1.867309,-0.245150,7.045472,0.953903,5.372550,-4.974258,-1.285828,-0.363968,0.831916,-0.615272,0.118898,-0.265175,-0.732794,16.255540,30.037348,104.353383
53577,NaN,0.442289,0.299417,6.821167,0.608005,3.991463,-4.288971,-1.242621,0.331580,0.915823,-0.610777,0.122689,-0.262206,-0.736985,15.868190,30.075387,104.988038
53578,NaN,-1.570388,1.000119,7.055606,0.328504,2.374575,-2.920613,-1.240501,0.928128,0.881557,-0.605598,0.128713,-0.260993,-0.740653,15.522993,30.449385,105.706252
53579,NaN,-3.639887,1.311907,7.199180,0.449705,0.751124,-1.686759,-1.275048,1.266122,0.807396,-0.600164,0.136175,-0.260640,-0.743859,15.174196,31.027064,106.439945
53580,NaN,-6.005971,1.668164,7.578306,0.649645,-0.955538,-0.068507,-1.315274,1.236981,0.732246,-0.594979,0.143738,-0.259937,-0.746842,14.776074,31.601779,107.117073
53581,NaN,-8.280789,1.855587,8.124805,1.025776,-2.457407,1.630014,-1.339329,0.821317,0.660052,-0.590523,0.149898,-0.257871,-0.749877,14.310824,31.962768,107.677891
53582,NaN,-9.539689,2.453022,8.473757,0.744301,-3.370954,2.713679,-1.310919,-0.014027,0.577306,-0.587453,0.152948,-0.253333,-0.753212,13.755609,31.873533,108.041827
53583,NaN,-8.743807,3.846154,8.953533,-0.826635,-2.810402,2.947750,-1.264239,-0.835068,0.462548,-0.585845,0.152898,-0.246492,-0.756736,13.123580,31.346894,108.205098
53584,NaN,-7.782880,4.662320,9.239032,-1.906144,-2.213230,2.802157,-1.252003,-1.242302,0.400140,-0.584954,0.151347,-0.238405,-0.760319,12.443342,30.601031,108.270680
53585,NaN,-7.680376,4.721566,9.838928,-2.005845,-2.035012,3.222523,-1.108669,-1.351263,0.471771,-0.583970,0.148856,-0.230613,-0.763963,11.869383,29.787400,108.379078
53586,NaN,-7.917126,5.406111,10.615543,-2.595623,-2.190752,4.081761,-0.973561,-1.239594,0.510352,-0.582776,0.146349,-0.223646,-0.767422,11.390825,29.031788,108.532680
53587,NaN,-8.254652,5.729867,11.085961,-2.821975,-2.504311,4.665952,-0.948067,-0.896407,0.490567,-0.581249,0.145091,-0.217779,-0.770500,10.946960,28.473481,108.725157
53588,NaN,-8.365752,5.840837,11.290652,-2.936090,-2.673149,4.877854,-1.013935,-0.400054,0.419257,-0.579394,0.146016,-0.213016,-0.773050,10.469665,28.202912,108.934559
53589,NaN,-8.738221,5.738604,11.412517,-2.801336,-2.991750,5.111606,-1.097823,0.047326,0.362211,-0.577193,0.148961,-0.209199,-0.775174,9.955463,28.192690,109.163230
53590,NaN,-9.290222,5.694940,11.591728,-2.696862,-3.401631,5.492978,-1.184953,0.270845,0.286543,-0.574974,0.153109,-0.205608,-0.776973,9.377269,28.317856,109.366368
53591,NaN,-9.686782,5.270555,11.416929,-2.293291,-3.749728,5.439773,-1.265017,0.197998,0.167600,-0.573201,0.157309,-0.201416,-0.778541,8.716000,28.414523,109.485874
53592,NaN,-9.824983,4.734520,11.352391,-1.869213,-3.819365,5.344460,-1.264743,-0.106889,0.000829,-0.572367,0.160495,-0.196201,-0.779835,7.987382,28.353914,109.466524
53593,NaN,-9.652865,4.655776,11.565838,-1.985810,-3.659086,5.395434,-1.259896,-0.481624,-0.186713,-0.572605,0.162371,-0.189784,-0.780859,7.191761,28.094055,109.296294
53594,NaN,-9.714721,4.476099,11.802708,-1.946453,-3.716935,5.553030,-1.293542,-0.966312,-0.346666,-0.573871,0.162606,-0.181704,-0.781802,6.313504,27.568002,108.990315
53595,NaN,-8.803467,4.151978,11.718485,-2.037793,-3.141169,4.953323,-1.392274,-1.457902,-0.453105,-0.575867,0.161273,-0.171729,-0.782865,5.342623,26.762680,108.596280
53596,NaN,-7.096456,3.627734,11.183110,-2.135891,-2.067591,3.593902,-1.532919,-1.661875,-0.556006,-0.578257,0.159624,-0.160510,-0.783822,4.270234,25.840316,108.144666
53597,NaN,-5.367302,3.078779,10.572094,-2.203008,-0.956866,2.198994,-1.661290,-1.492268,-0.602248,-0.580512,0.159018,-0.149222,-0.784508,3.131652,25.008406,107.694044
53598,NaN,-4.107896,2.413755,9.783509,-2.005052,-0.214106,0.880651,-1.759856,-1.074589,-0.554436,-0.582117,0.160291,-0.138785,-0.784975,1.967802,24.407644,107.306277
53599,NaN,-3.367917,1.639034,9.109546,-1.556430,0.238460,-0.089992,-1.793893,-0.539599,-0.438749,-0.582811,0.163656,-0.129844,-0.785295,0.826756,24.103438,107.014241
53600,NaN,-3.515893,1.227106,8.559114,-1.217289,-0.069586,-0.558668,-1.753603,-0.031668,-0.317869,-0.582683,0.168829,-0.122636,-0.785454,-0.257173,24.087399,106.805941
53601,NaN,-4.123726,0.626272,8.160440,-0.581624,-0.617200,-0.687498,-1.652839,0.313538,-0.237832,-0.582071,0.174979,-0.116881,-0.785439,-1.262965,24.263676,106.645910
53602,NaN,-5.063037,0.604522,8.120247,-0.451763,-1.454652,-0.346089,-1.467773,0.472781,-0.257993,-0.581567,0.181223,-0.112305,-0.785064,-2.170416,24.529921,106.466822
53603,NaN,-6.134008,0.867473,8.188732,-0.575462,-2.438440,0.144979,-1.318178,0.467853,-0.385977,-0.581672,0.187067,-0.108165,-0.784196,-3.029276,24.785895,106.202320
53604,NaN,-7.304958,1.105252,8.695405,-0.736042,-3.344679,1.071402,-1.291380,0.203326,-0.572658,-0.582646,0.191902,-0.103199,-0.782973,-3.920092,24.882920,105.825620
53605,NaN,-8.437038,1.200482,8.881759,-0.735965,-4.352911,1.677212,-1.418707,-0.428598,-0.697723,-0.584281,0.194674,-0.095750,-0.782017,-4.904532,24.605317,105.399573
53606,NaN,-8.875870,0.599420,8.440588,-0.125043,-4.872694,1.439849,-1.573580,-1.264231,-0.795503,-0.586489,0.194660,-0.085164,-0.781591,-5.974533,23.840075,104.970182
53607,NaN,-7.562860,-0.119911,7.595159,0.288622,-4.022165,0.118567,-1.626054,-1.941633,-0.937731,-0.589407,0.192184,-0.072222,-0.781312,-7.077624,22.671478,104.519010
53608,NaN,-5.775349,-0.596759,7.116154,0.323340,-2.684429,-1.035784,-1.528041,-2.198636,-1.012311,-0.592683,0.188408,-0.058832,-0.780877,-8.113383,21.345027,104.071743
53609,NaN,-4.502781,-0.317306,7.210017,-0.338681,-1.805227,-1.507128,-1.350356,-2.039282,-0.989387,-0.595884,0.184681,-0.046606,-0.780156,-9.029236,20.102642,103.651050
53610,NaN,-3.824393,0.263685,7.485244,-1.181572,-1.455254,-1.614661,-1.196281,-1.639873,-0.940882,-0.598850,0.182023,-0.036236,-0.779059,-9.842887,19.087591,103.243374
53611,NaN,-3.272771,0.821891,7.684454,-1.954831,-1.194806,-1.738873,-1.144074,-1.228987,-0.874567,-0.601473,0.180769,-0.027329,-0.777693,-10.618568,18.302898,102.847428
53612,NaN,-2.459076,1.032374,7.626878,-2.390628,-0.622416,-2.119945,-1.143780,-0.865516,-0.799177,-0.603700,0.180914,-0.019622,-0.776164,-11.382030,17.729868,102.467552
53613,NaN,-1.302972,0.784979,7.014323,-2.313553,0.294079,-3.024838,-1.124977,-0.507755,-0.715315,-0.605554,0.182361,-0.013102,-0.774518,-12.130149,17.358627,102.101630
53614,NaN,-0.299715,0.512583,6.306921,-2.135694,1.093231,-3.949831,-1.056017,-0.129496,-0.604748,-0.606984,0.185076,-0.008139,-0.772821,-12.829024,17.213934,101.757084
53615,NaN,-0.111134,0.532406,5.849256,-2.122958,1.144285,-4.456106,-0.969574,0.263203,-0.547687,-0.608243,0.189009,-0.004710,-0.770904,-13.485464,17.286265,101.394008
53616,NaN,-1.379714,0.414031,5.823320,-1.823487,-0.010254,-4.097751,-0.885098,0.493765,-0.569472,-0.609634,0.193578,-0.002320,-0.768680,-14.105919,17.483361,100.984889
53617,NaN,-2.574516,0.202037,5.842773,-1.478048,-1.058615,-3.688862,-0.836028,0.391277,-0.648794,-0.611365,0.197590,0.000303,-0.766284,-14.711782,17.604759,100.541663
53618,NaN,-2.940136,-0.288715,5.695955,-0.974550,-1.315189,-3.608508,-0.783642,0.060972,-0.675556,-0.613224,0.200182,0.003725,-0.764113,-15.275036,17.538951,100.133686
53619,NaN,-2.423285,-0.916879,5.283539,-0.398906,-0.795026,-3.995702,-0.686789,-0.231687,-0.641257,-0.615036,0.201342,0.007677,-0.762321,-15.763853,17.309372,99.792826
53620,NaN,-1.435526,-1.545343,4.778073,0.151532,0.138407,-4.593823,-0.527207,-0.319413,-0.557493,-0.616666,0.201684,0.011176,-0.760869,-16.138492,17.045246,99.518025
53621,NaN,-0.413295,-1.901075,4.067639,0.530477,0.999426,-5.448024,-0.282969,-0.164771,-0.447804,-0.618133,0.201857,0.013188,-0.759600,-16.362977,16.879360,99.281138
53622,NaN,-0.059928,-2.125379,3.515652,0.858802,1.250071,-5.994257,0.014609,0.156450,-0.352982,-0.619550,0.202344,0.012950,-0.758319,-16.414250,16.907983,99.045904
53623,NaN,-0.445418,-2.232794,3.538870,1.015395,0.921145,-5.834269,0.332707,0.506658,-0.267189,-0.620990,0.203169,0.010366,-0.756959,-16.288913,17.139973,98.799826
53624,NaN,-1.886591,-1.682177,3.953216,0.590333,-0.445655,-5.179151,0.613660,0.778696,-0.204599,-0.622473,0.204160,0.005781,-0.755522,-16.004651,17.535560,98.545720
53625,NaN,-3.491825,-1.090398,4.614094,0.066748,-1.889656,-4.236293,0.758162,0.941632,-0.252781,-0.624277,0.205299,0.000221,-0.753744,-15.657494,18.011699,98.237801
53626,NaN,-4.826392,-1.010223,5.426817,-0.069805,-2.899849,-3.078403,0.793622,0.952120,-0.371426,-0.626532,0.206370,-0.005413,-0.751558,-15.312107,18.480453,97.862302
53627,NaN,-5.693369,-1.190125,6.067849,0.022836,-3.449791,-2.147976,0.755561,0.738708,-0.459500,-0.629068,0.206742,-0.010115,-0.749285,-14.997825,18.816832,97.470206
53628,NaN,-5.437598,-1.579791,6.471889,0.250304,-2.982743,-1.751106,0.680397,0.335041,-0.453898,-0.631421,0.205829,-0.013253,-0.747507,-14.705434,18.932451,97.159133
53629,NaN,-4.415563,-2.314098,6.570830,0.820282,-1.842878,-1.815256,0.630506,-0.033347,-0.380976,-0.633552,0.203692,-0.015135,-0.746252,-14.410413,18.855838,96.933739
53630,NaN,-3.040068,-3.184482,6.495527,1.550679,-0.417695,-2.131834,0.690713,-0.234156,-0.299286,-0.635434,0.200622,-0.016722,-0.745449,-14.053769,18.684604,96.786898
53631,NaN,-1.520573,-3.898574,6.458939,2.126382,1.116221,-2.500978,0.859177,-0.194197,-0.183728,-0.637050,0.197136,-0.019146,-0.744941,-13.582521,18.548251,96.699879
53632,NaN,-0.742232,-3.948563,6.726467,2.088146,1.926688,-2.511020,1.075820,0.062452,0.002238,-0.638137,0.193912,-0.023408,-0.744736,-12.962672,18.584453,96.686137
53633,NaN,-0.671727,-3.412603,7.156156,1.542701,2.037902,-2.277854,1.257991,0.408591,0.233221,-0.638485,0.191343,-0.029645,-0.744880,-12.210580,18.839032,96.762697
53634,NaN,-1.003993,-2.583938,7.615289,0.766679,1.764991,-1.940395,1.327236,0.767145,0.427415,-0.638080,0.189867,-0.037496,-0.745251,-11.392979,19.320283,96.914565
53635,NaN,-1.633941,-1.895643,7.995341,0.184186,1.255540,-1.531592,1.277794,1.103671,0.552038,-0.637063,0.189747,-0.046325,-0.745654,-10.588728,19.998515,97.108853
53636,NaN,-2.288356,-1.484027,8.165119,-0.082771,0.746479,-1.237037,1.139187,1.363715,0.657422,-0.635400,0.191016,-0.055586,-0.746116,-9.844594,20.835132,97.349676
53637,NaN,-3.055298,-1.507380,8.280359,0.090845,0.223549,-0.862234,0.994366,1.503518,0.755632,-0.633143,0.193204,-0.064815,-0.746727,-9.159834,21.753593,97.647778
53638,NaN,-3.901966,-1.740235,8.153265,0.525625,-0.395607,-0.631510,0.895112,1.529518,0.807952,-0.630517,0.195785,-0.073824,-0.747440,-8.510314,22.691527,97.989531
53639,NaN,-4.689282,-2.203476,8.152671,1.154462,-0.864911,-0.261392,0.884913,1.412009,0.782099,-0.627973,0.197933,-0.082369,-0.748123,-7.859345,23.553624,98.338861
53640,NaN,-5.213121,-2.485857,8.359298,1.544802,-1.058513,0.173543,0.955804,1.146076,0.703698,-0.625766,0.198892,-0.090233,-0.748811,-7.169318,24.254715,98.687910
53641,NaN,-5.245466,-2.873775,8.491786,2.002414,-0.837736,0.344604,1.084544,0.776441,0.627058,-0.624190,0.198077,-0.097367,-0.749448,-6.405825,24.736621,99.014312
53642,NaN,-4.357540,-2.794536,8.493074,1.915189,0.027710,-0.052590,1.244982,0.395738,0.591660,-0.623048,0.195362,-0.103896,-0.750234,-5.543206,24.998811,99.352894
53643,NaN,-2.963427,-2.583233,8.347918,1.655414,1.227884,-0.818636,1.385066,0.204145,0.629121,-0.621978,0.191441,-0.110363,-0.751209,-4.583094,25.145043,99.729926
53644,NaN,-1.976947,-2.034211,8.277175,1.111609,2.015829,-1.371303,1.497977,0.251858,0.734403,-0.620545,0.187300,-0.117516,-0.752351,-3.528309,25.320417,100.175059
53645,NaN,-1.888167,-1.081842,8.444950,0.278923,2.030095,-1.336151,1.543660,0.470772,0.833897,-0.618612,0.183746,-0.125584,-0.753515,-2.419991,25.612750,100.679969
53646,NaN,-2.827306,-0.315847,8.795118,-0.217242,1.272809,-0.659666,1.508186,0.741243,0.872261,-0.616273,0.181302,-0.134398,-0.754503,-1.317448,26.055206,101.211683
53647,NaN,-3.962107,0.012732,8.958032,-0.219989,0.385948,-0.027767,1.385391,0.949310,0.826025,-0.613809,0.180014,-0.143317,-0.755178,-0.290138,26.604159,101.722964
53648,NaN,-4.884764,-0.170269,8.995193,0.254392,-0.236518,0.418628,1.275917,1.071826,0.780467,-0.611271,0.179562,-0.152163,-0.755613,0.672033,27.218517,102.218769
53649,NaN,-5.421565,-0.452287,9.129331,0.744170,-0.439405,0.779414,1.209135,1.161576,0.718605,-0.608794,0.179665,-0.160946,-0.755769,1.589288,27.874499,102.689508
53650,NaN,-6.174413,-0.985383,9.401982,1.513551,-0.699300,1.354609,1.235075,1.119067,0.595417,-0.606785,0.179635,-0.169589,-0.755502,2.494739,28.505140,103.094121
53651,NaN,-6.610458,-0.893706,9.924865,1.604957,-0.701585,2.016463,1.280449,0.864636,0.452212,-0.605535,0.178593,-0.177476,-0.754940,3.386934,28.985529,103.409746
53652,NaN,-6.242362,-0.693253,10.333329,1.446061,-0.126276,2.192156,1.240798,0.431686,0.331751,-0.605049,0.176157,-0.183799,-0.754388,4.214967,29.222085,103.637252
53653,NaN,-4.620636,-0.811672,10.194889,1.364305,1.262744,1.254723,1.152388,0.130127,0.275537,-0.604956,0.172871,-0.188804,-0.753987,4.969288,29.282915,103.815896
53654,NaN,-2.878627,-0.691360,10.071490,1.004567,2.690206,0.284436,1.047317,0.149139,0.311330,-0.604594,0.169961,-0.193509,-0.753746,5.675630,29.353943,104.020149
53655,NaN,-1.857270,-0.438651,9.822876,0.645776,3.425484,-0.432982,0.901319,0.378445,0.465134,-0.603293,0.168177,-0.198468,-0.753899,6.357036,29.540986,104.342002
53656,NaN,-1.734480,-0.178212,9.327383,0.448474,3.293366,-0.924944,0.739466,0.655083,0.670713,-0.600784,0.167738,-0.203828,-0.754571,7.025118,29.871263,104.822958
53657,NaN,-2.180019,-0.077589,8.763905,0.514240,2.692809,-1.207577,0.625718,0.845337,0.828347,-0.597370,0.168168,-0.209444,-0.755647,7.694627,30.290333,105.429947
53658,NaN,-2.722295,0.139967,8.404024,0.481523,2.103665,-1.245320,0.576044,0.989439,0.870079,-0.593575,0.169259,-0.215334,-0.756737,8.363976,30.783966,106.085940
53659,NaN,-2.994315,0.355326,8.088307,0.387121,1.769229,-1.372798,0.543939,1.098990,0.879080,-0.589571,0.170821,-0.221417,-0.757760,9.035058,31.329910,106.769538
53660,NaN,-3.181349,0.474409,8.108318,0.365096,1.712384,-1.267282,0.523783,1.241402,0.946981,-0.585098,0.172914,-0.227891,-0.758833,9.737406,31.944908,107.525237
53661,NaN,-3.772335,0.358033,8.472674,0.679423,1.586036,-0.693154,0.520471,1.381197,1.036026,-0.580081,0.175415,-0.234819,-0.759997,10.494621,32.619599,108.371968
53662,NaN,-4.293348,0.377423,8.938075,0.855568,1.573715,-0.052896,0.513139,1.444198,1.096094,-0.574708,0.178109,-0.241935,-0.761219,11.290599,33.315193,109.283788
53663,NaN,-4.421374,0.350013,9.151708,0.974696,1.757794,0.156391,0.474700,1.422402,1.135902,-0.569124,0.180749,-0.248856,-0.762560,12.098517,33.981432,110.238779
53664,NaN,-3.936657,0.193085,9.172476,1.036280,2.335971,-0.161984,0.413029,1.383762,1.189370,-0.563281,0.183351,-0.255456,-0.764093,12.906017,34.609649,111.241887
53665,NaN,-3.088949,0.326352,9.151935,0.695762,3.087539,-0.681035,0.373954,1.425905,1.309248,-0.556837,0.186038,-0.262115,-0.765910,13.762959,35.231916,112.352735
53666,NaN,-2.707864,0.542904,9.150451,0.402404,3.463270,-0.913256,0.347851,1.504974,1.501072,-0.549476,0.188844,-0.269038,-0.768136,14.708898,35.857755,113.627547
53667,NaN,-2.393169,0.624944,9.122000,0.248060,3.802838,-1.163792,0.354379,1.642316,1.665100,-0.541232,0.191900,-0.276491,-0.770581,15.767556,36.515484,115.065186
53668,NaN,-2.640203,1.462622,9.606738,-0.432237,3.870711,-0.526827,0.371343,1.909955,1.692866,-0.532451,0.195886,-0.284706,-0.772701,16.909168,37.294078,116.603279
53669,NaN,-3.474353,2.065273,10.308690,-0.684082,3.760642,0.579184,0.238914,2.190599,1.634318,-0.523268,0.201345,-0.293061,-0.774446,18.030534,38.211105,118.200077
53670,NaN,-4.471160,1.956047,10.848199,-0.219905,3.691585,1.493006,0.037395,2.425101,1.663530,-0.513328,0.208164,-0.301204,-0.776169,19.129292,39.225529,119.914055
53671,NaN,-5.623985,1.698978,11.202143,0.436185,3.504768,2.333197,-0.176569,2.542976,1.792503,-0.502362,0.215741,-0.308901,-0.778247,20.240786,40.252679,121.800201
53672,NaN,-7.137658,1.335912,11.146423,1.351074,2.900195,3.099627,-0.352626,2.578482,1.878585,-0.490702,0.223716,-0.315998,-0.780581,21.355041,41.252612,123.808808
53673,NaN,-8.506752,0.990224,10.682686,2.231103,2.154744,3.522779,-0.498184,2.513242,1.841247,-0.478995,0.231792,-0.322266,-0.782931,22.421533,42.197032,125.829793
53674,NaN,-9.784342,0.551296,9.992371,3.200751,1.363408,3.743569,-0.585062,2.272635,1.736284,-0.467889,0.239256,-0.327398,-0.785269,23.391069,43.010469,127.750275
53675,NaN,-10.747923,0.368873,9.354665,3.838769,0.702544,3.895972,-0.587827,1.848699,1.562170,-0.458059,0.245297,-0.331284,-0.787567,24.229432,43.619911,129.453398
53676,NaN,-10.731562,0.700762,8.806031,3.601779,0.423653,3.605502,-0.538390,1.344835,1.419716,-0.449642,0.249456,-0.333966,-0.789975,24.932441,43.984055,130.908466
53677,NaN,-9.954167,0.822041,8.273358,3.216202,0.570329,2.738753,-0.449361,0.909009,1.345262,-0.442304,0.251786,-0.335926,-0.792543,25.564197,44.128202,132.177519
53678,NaN,-9.151111,0.889352,7.833065,2.869075,0.755234,1.895752,-0.286164,0.604106,1.334993,-0.435715,0.252564,-0.337795,-0.795147,26.207920,44.108171,133.332037
53679,NaN,-8.840473,1.578377,7.930379,2.182511,0.805614,1.939877,-0.122189,0.399134,1.290901,-0.429815,0.252217,-0.339827,-0.797599,26.876524,43.984247,134.384694
53680,NaN,-8.353263,2.679420,8.230646,1.033643,0.905125,2.137691,-0.083842,0.324621,1.057485,-0.425024,0.251894,-0.341512,-0.799546,27.423064,43.876310,135.236344
53681,NaN,-7.710160,3.116230,8.372292,0.362063,1.208541,1.920210,-0.210640,0.419418,0.733400,-0.421178,0.252751,-0.342508,-0.800884,27.767478,43.896770,135.897515
53682,NaN,-7.335284,2.909877,8.457393,0.338369,1.587554,1.640098,-0.367964,0.552440,0.553111,-0.417639,0.254793,-0.342886,-0.801927,27.962731,44.031683,136.477299
53683,NaN,-7.190229,2.428137,8.480705,0.647524,1.924066,1.385348,-0.494324,0.688873,0.596481,-0.413503,0.257549,-0.343124,-0.803088,28.151894,44.221443,137.146077
53684,NaN,-7.003135,2.335288,8.482481,0.592714,2.112718,1.216119,-0.599347,0.884945,0.681315,-0.408562,0.261172,-0.343408,-0.804324,28.372093,44.486408,137.947318
53685,NaN,-6.903776,2.316170,8.234096,0.543752,2.048398,0.973172,-0.725918,1.095816,0.753317,-0.402763,0.265749,-0.343726,-0.805613,28.626743,44.834496,138.891702
53686,NaN,-7.330555,2.399530,7.902163,0.694949,1.639946,1.085276,-0.856291,1.262603,0.825867,-0.396210,0.271134,-0.343892,-0.806996,28.892083,45.244274,139.955374
53687,NaN,-7.677369,2.282416,7.497403,0.985040,1.314877,1.034535,-0.971081,1.310366,0.876191,-0.389160,0.276816,-0.343768,-0.808549,29.151185,45.659569,141.090173
53688,NaN,-7.786380,2.497546,7.083559,0.887218,0.936471,0.928697,-1.004232,1.245475,0.926712,-0.381965,0.282206,-0.343385,-0.810277,29.403550,46.025828,142.239462
53689,NaN,-7.572907,2.715475,6.692089,0.627375,0.699799,0.609545,-1.022955,1.166282,0.992334,-0.374556,0.287159,-0.342879,-0.812208,29.675479,46.329277,143.419353
53690,NaN,-7.249073,2.610843,6.167188,0.612277,0.547351,0.022193,-0.994201,1.126326,1.065344,-0.366956,0.291764,-0.342451,-0.814214,29.991824,46.589216,144.637196
53691,NaN,-7.161210,2.726737,5.870469,0.515973,0.367027,-0.180502,-0.914440,1.199433,1.071249,-0.359266,0.296468,-0.342502,-0.815921,30.397923,46.876978,145.905130
53692,NaN,-7.070394,3.221810,5.706264,0.087772,0.100268,-0.173516,-0.884024,1.362080,0.968227,-0.351759,0.301951,-0.342746,-0.817078,30.822683,47.270336,147.172554
53693,NaN,-7.133060,3.339350,5.239316,0.113282,-0.261771,-0.357524,-0.921276,1.539703,0.825957,-0.344413,0.308423,-0.342945,-0.817706,31.233597,47.784948,148.436103
53694,NaN,-7.311440,2.919136,4.716401,0.633100,-0.416849,-0.666793,-0.950380,1.650272,0.732922,-0.337207,0.315545,-0.342999,-0.817970,31.627798,48.377320,149.693142
53695,NaN,-7.996449,2.595972,4.478414,1.289698,-0.557722,-0.391277,-0.929694,1.579599,0.658844,-0.330396,0.322420,-0.342907,-0.818107,32.000956,48.950076,150.890545
53696,NaN,-8.587412,2.256689,4.296322,1.892009,-0.607837,-0.151182,-0.885750,1.273747,0.547772,-0.324637,0.328157,-0.342244,-0.818409,32.240551,49.406333,151.873127
53697,NaN,-8.936968,2.106881,4.099712,2.230965,-0.715956,-0.033837,-0.823526,0.776964,0.416457,-0.320323,0.331947,-0.340835,-0.819168,32.282300,49.658129,152.539345
53698,NaN,-8.874483,2.179843,3.968060,2.166013,-0.814417,-0.122550,-0.748307,0.236870,0.320567,-0.317467,0.333584,-0.338664,-0.820514,32.111779,49.680672,152.873407
53699,NaN,-8.402052,2.276265,3.779956,1.891061,-0.888950,-0.555395,-0.669717,-0.230843,0.271915,-0.315700,0.333230,-0.336024,-0.822423,31.799591,49.488675,152.958487
53700,NaN,-7.692746,2.523816,3.660989,1.359874,-0.954668,-1.084006,-0.604330,-0.509250,0.254559,-0.314605,0.331681,-0.333141,-0.824638,31.410076,49.169659,152.896777
53701,NaN,-6.887205,2.837158,3.699387,0.676587,-0.918224,-1.574526,-0.562936,-0.546826,0.241956,-0.313659,0.329898,-0.330382,-0.826821,31.035716,48.832460,152.819166
53702,NaN,-6.368712,3.161706,3.752381,0.140148,-0.959032,-1.831605,-0.553209,-0.370123,0.204245,-0.312617,0.328919,-0.327836,-0.828617,30.699752,48.596454,152.789162
53703,NaN,-6.197858,3.060040,3.761835,0.123959,-0.874793,-1.992969,-0.579970,-0.110844,0.186676,-0.311147,0.329051,-0.325589,-0.830003,30.433876,48.489887,152.868777
53704,NaN,-6.034007,2.735187,3.791417,0.255241,-0.628975,-2.209756,-0.555172,0.144483,0.224364,-0.309170,0.330171,-0.323866,-0.830970,30.279314,48.502445,153.082261
53705,NaN,-5.636080,2.753624,3.905279,-0.037989,-0.438655,-2.436700,-0.477292,0.333106,0.294740,-0.306694,0.331806,-0.322906,-0.831610,30.278590,48.584590,153.437170
53706,NaN,-5.149847,3.242206,4.131913,-0.765100,-0.413652,-2.508645,-0.422603,0.464095,0.453246,-0.303461,0.333673,-0.322600,-0.832167,30.434661,48.688999,153.962723
53707,NaN,-4.891289,3.377971,4.318467,-1.080601,-0.267926,-2.550109,-0.435745,0.532882,0.717794,-0.298962,0.335382,-0.322813,-0.833026,30.763885,48.744969,154.724082
53708,NaN,-4.731819,3.749130,4.511634,-1.498052,-0.288012,-2.432055,-0.451186,0.598503,0.993507,-0.293199,0.336963,-0.323479,-0.834177,31.254571,48.751871,155.715360
53709,NaN,-5.281066,4.228662,4.566144,-1.499025,-0.666212,-1.817077,-0.481096,0.672488,1.217696,-0.286292,0.338488,-0.324525,-0.835551,31.885022,48.717520,156.911819
53710,NaN,-6.610301,4.542908,4.767944,-0.940677,-1.019955,-0.585461,-0.494009,0.575174,1.363730,-0.278920,0.339397,-0.325576,-0.837265,32.544984,48.586122,158.162421
53711,NaN,-7.565640,5.136502,4.936004,-0.747257,-1.467295,0.447643,-0.492234,0.240957,1.458820,-0.271655,0.338702,-0.326342,-0.839634,33.137735,48.251599,159.322842
53712,NaN,-7.682221,5.656332,4.983949,-0.928422,-1.773546,0.762820,-0.537683,-0.183935,1.511614,-0.264792,0.336206,-0.326380,-0.842809,33.561298,47.693963,160.301831
53713,NaN,-7.152294,5.924306,4.828590,-1.234996,-1.949214,0.397171,-0.565257,-0.511353,1.554718,-0.258193,0.332245,-0.325948,-0.846586,33.864020,46.958716,161.144870
53714,NaN,-6.383497,6.186178,4.659395,-1.674396,-2.100123,-0.142570,-0.531866,-0.676058,1.646028,-0.251532,0.327397,-0.325545,-0.850625,34.150169,46.116747,161.952509
53715,NaN,-5.717053,6.371286,4.568717,-2.026323,-2.172054,-0.575550,-0.467535,-0.652099,1.789438,-0.244284,0.322278,-0.325676,-0.854633,34.532929,45.232815,162.852535
53716,NaN,-5.055561,6.678354,4.736941,-2.561343,-2.133001,-0.785780,-0.297788,-0.388684,1.924360,-0.236299,0.317855,-0.327021,-0.858014,35.131621,44.426805,163.936606
53717,NaN,-3.980744,7.764301,5.287562,-4.030301,-2.243814,-0.712744,0.006665,0.308905,1.936139,-0.227565,0.315988,-0.330503,-0.859729,36.111972,43.927663,165.328156
53718,NaN,-4.746763,9.364852,5.817141,-4.550383,-3.007433,0.879271,0.412604,1.295653,1.877531,-0.218083,0.317985,-0.336708,-0.859042,37.603030,43.882780,167.129391
53719,NaN,-6.501621,11.398382,6.772361,-4.816717,-3.779959,3.624679,0.810826,2.082244,1.881326,-0.207842,0.322841,-0.345444,-0.856297,39.601152,44.146128,169.326540
53720,NaN,-8.211757,14.204918,8.311720,-5.812547,-4.450915,7.059978,0.868131,2.529220,1.981294,-0.196452,0.329318,-0.354958,-0.852620,41.861877,44.509755,171.840871
53721,NaN,-8.832460,16.135654,8.935078,-6.684213,-4.969956,8.863912,0.436228,2.691723,2.074354,-0.183601,0.336635,-0.362852,-0.849297,44.011334,44.833282,174.532823
53722,NaN,-8.970264,16.456576,8.401378,-6.466858,-5.280538,8.953161,-0.302167,2.734416,2.051682,-0.169474,0.344764,-0.367507,-0.846968,45.776413,45.119072,177.264851
53723,NaN,-9.254238,15.153747,7.235034,-4.958048,-5.085995,7.996608,-1.006100,2.657507,1.827844,-0.155172,0.353466,-0.368622,-0.845636,47.042713,45.414810,179.849174
53724,NaN,-9.113269,13.070202,5.786441,-3.202937,-4.638955,6.174352,-1.461258,2.264490,1.510295,-0.142087,0.361356,-0.366862,-0.845367,47.778260,45.660419,-177.957991
53725,NaN,-8.462337,10.959985,4.056714,-1.646700,-4.422674,3.822459,-1.562502,1.646386,1.144617,-0.131475,0.367301,-0.363491,-0.845978,48.052878,45.810448,-176.333829
53726,NaN,-7.503505,9.146824,2.842535,-0.720111,-4.064748,1.633093,-1.387260,1.055028,0.791708,-0.123726,0.371226,-0.359795,-0.847012,48.037320,45.881281,-175.259117
53727,NaN,-6.161467,8.420127,1.654804,-0.598811,-4.478265,-0.263513,-0.957016,0.412651,0.574176,-0.118854,0.372532,-0.357082,-0.848284,47.897221,45.799745,-174.699491
53728,NaN,-5.291008,8.294595,1.368578,-0.923793,-4.660503,-1.089497,-0.503843,-0.049809,0.498300,-0.115958,0.371735,-0.355889,-0.849535,47.788216,45.572712,-174.460564
53729,NaN,-4.391019,8.077833,1.337110,-1.375856,-4.594433,-1.855411,-0.142655,-0.351994,0.500212,-0.114275,0.369436,-0.356031,-0.850706,47.751029,45.229442,-174.407486
53730,NaN,-3.552294,7.871205,1.529711,-1.924578,-4.361910,-2.451697,0.125470,-0.390270,0.555377,-0.112901,0.366719,-0.357420,-0.851482,47.877371,44.846941,-174.343662
53731,NaN,-2.977610,8.111515,1.927500,-2.611936,-4.273089,-2.512261,0.303965,-0.172093,0.682971,-0.110938,0.364597,-0.359892,-0.851610,48.238402,44.494493,-174.087464
53732,NaN,-3.314174,8.557909,2.731168,-2.966674,-3.964988,-1.617689,0.292073,0.202145,0.825007,-0.107651,0.363812,-0.362810,-0.851130,48.804324,44.220004,-173.531398
53733,NaN,-4.382617,7.795937,3.254596,-2.106246,-2.912818,-1.000478,0.163257,0.516513,0.939376,-0.103093,0.364219,-0.365511,-0.850363,49.457344,44.011271,-172.737385
53734,NaN,-5.911760,6.142478,3.451282,-0.358918,-1.389125,-0.728017,0.096148,0.664544,0.948973,-0.098070,0.365256,-0.368051,-0.849417,50.139098,43.844130,-171.848752
53735,NaN,-7.413963,4.720685,3.217490,1.481056,-0.307823,-0.576073,0.170882,0.580420,0.831103,-0.093864,0.366110,-0.370600,-0.848415,50.774270,43.693415,-171.081849
53736,NaN,-8.382547,3.295586,2.744232,3.060882,0.558903,-0.925789,0.348074,0.342677,0.618218,-0.091297,0.366255,-0.373433,-0.847390,51.340080,43.543790,-170.565611
