// General information: 
//  MT Manager version: 2019.0.1 
//  XDA version: 2019.0.1 build 2740 rev 84096 built on 2019-01-30
// Device information: 
//  DeviceId: 00B43876
//  ProductCode: MTW2-3A7G6
//  Firmware Version: 4.3.4
//  Hardware Version: 1.1.0
// Device settings: 
//  Filter Profile: human(46.1)
//  Option Flags: Orientation Smoother Disabled, AHS Disabled, ICC Disabled
// Coordinate system: ENU
PacketCounter,SampleTimeFine,Acc_X,Acc_Y,Acc_Z,FreeAcc_E,FreeAcc_N,FreeAcc_U,Gyr_X,Gyr_Y,Gyr_Z,Quat_q0,Quat_q1,Quat_q2,Quat_q3,Roll,Pitch,Yaw
46041,NaN,0.433429,9.808129,-1.052361,-0.022636,-0.007987,0.061225,-0.004946,-0.012441,0.001841,0.300946,0.307086,-0.677960,-0.596238,96.197665,-2.399429,-129.110123
46042,NaN,0.487556,9.808977,-1.045957,-0.061649,-0.045536,0.063643,-0.001061,-0.014407,-0.001170,0.300882,0.307013,-0.678005,-0.596257,96.199487,-2.400396,-129.122455
46043,NaN,0.498832,9.787682,-1.048373,-0.065791,-0.057745,0.043223,-0.003208,-0.011663,-0.002710,0.300827,0.306953,-0.678035,-0.596281,96.199971,-2.400351,-129.132836
46044,NaN,0.507481,9.762097,-1.026700,-0.086475,-0.053353,0.015836,-0.005150,-0.010680,-0.001204,0.300778,0.306879,-0.678066,-0.596309,96.199487,-2.401698,-129.143931
46045,NaN,0.490999,9.759728,-1.078296,-0.035919,-0.073187,0.018357,-0.006750,-0.009139,-0.005955,0.300727,0.306832,-0.678077,-0.596347,96.197874,-2.399961,-129.152672
46046,NaN,0.445081,9.733347,-1.062666,-0.017608,-0.030737,-0.011455,-0.003852,-0.014845,-0.004582,0.300657,0.306768,-0.678108,-0.596380,96.198192,-2.398854,-129.164674
46047,NaN,0.420639,9.718007,-1.042882,-0.016752,-0.001016,-0.029850,-0.002895,-0.019567,-0.001704,0.300577,0.306681,-0.678152,-0.596414,96.199047,-2.398894,-129.179624
46048,NaN,0.455532,9.785277,-0.976947,-0.094055,0.020040,0.031312,0.001387,-0.029297,-0.005276,0.300446,0.306581,-0.678222,-0.596453,96.202742,-2.396600,-129.200333
46049,NaN,0.445779,9.810926,-0.998514,-0.073411,0.016779,0.058703,0.000948,-0.034239,-0.004104,0.300303,0.306464,-0.678296,-0.596500,96.206141,-2.394362,-129.223498
46050,NaN,0.429013,9.808478,-1.050917,-0.022818,-0.003030,0.061227,0.001551,-0.043763,-0.001619,0.300135,0.306309,-0.678392,-0.596556,96.210090,-2.393271,-129.252517
46051,NaN,0.463727,9.802542,-1.073450,-0.027860,-0.044449,0.059213,0.002533,-0.040022,-0.006006,0.299965,0.306184,-0.678476,-0.596609,96.214528,-2.389589,-129.278860
46052,NaN,0.503391,9.805263,-1.143650,0.000231,-0.118866,0.071158,-0.000743,-0.032836,-0.007293,0.299819,0.306076,-0.678541,-0.596664,96.217026,-2.385930,-129.301439
46053,NaN,0.438377,9.772061,-1.156675,0.052578,-0.080333,0.036883,-0.000390,-0.028033,-0.006903,0.299692,0.305986,-0.678598,-0.596710,96.219499,-2.382478,-129.320892
46054,NaN,0.466482,9.796141,-1.223970,0.084773,-0.142027,0.069252,-0.003374,-0.022468,-0.006707,0.299588,0.305905,-0.678639,-0.596757,96.220203,-2.379755,-129.337368
46055,NaN,0.451297,9.813232,-1.197162,0.072291,-0.112241,0.082694,-0.005148,-0.021206,-0.008327,0.299486,0.305832,-0.678669,-0.596811,96.219783,-2.375916,-129.352840
46056,NaN,0.541763,9.827746,-1.134271,-0.034807,-0.142043,0.094042,-0.007070,-0.011761,-0.014078,0.299404,0.305805,-0.678670,-0.596865,96.218019,-2.369609,-129.362435
46057,NaN,0.551696,9.806633,-1.135920,-0.038964,-0.154264,0.073637,-0.012731,0.006211,-0.019462,0.299374,0.305840,-0.678620,-0.596919,96.212577,-2.361129,-129.361587
46058,NaN,0.523496,9.787132,-1.091202,-0.054618,-0.107973,0.048250,-0.010861,0.024077,-0.019542,0.299401,0.305929,-0.678549,-0.596940,96.207827,-2.354018,-129.350846
46059,NaN,0.422956,9.818028,-1.094860,0.010104,-0.031230,0.075195,-0.015974,0.026102,-0.021357,0.299437,0.306026,-0.678456,-0.596978,96.200057,-2.345690,-129.338542
46060,NaN,0.318823,9.786502,-1.060435,0.050980,0.065772,0.035910,-0.008646,0.017235,-0.026224,0.299419,0.306123,-0.678392,-0.597010,96.196735,-2.334283,-129.330987
46061,NaN,0.363908,9.832611,-0.996290,-0.030431,0.074132,0.076642,-0.007238,0.002707,-0.017738,0.299374,0.306151,-0.678365,-0.597049,96.194526,-2.326568,-129.332245
46062,NaN,0.364673,9.837087,-1.019460,-0.013895,0.058169,0.083624,-0.007562,-0.008377,-0.018610,0.299289,0.306146,-0.678355,-0.597106,96.192509,-2.317934,-129.339966
46063,NaN,0.438243,9.849260,-1.008539,-0.070455,0.007982,0.097515,-0.005301,-0.017261,-0.019118,0.299168,0.306122,-0.678362,-0.597171,96.191867,-2.308199,-129.352523
46064,NaN,0.494876,9.800971,-1.035457,-0.083762,-0.058887,0.054715,-0.006266,-0.012538,-0.021994,0.299057,0.306118,-0.678356,-0.597235,96.190643,-2.297371,-129.362347
46065,NaN,0.456572,9.748905,-0.998500,-0.086066,-0.012744,-0.002538,-0.003332,-0.005535,-0.021237,0.298967,0.306139,-0.678348,-0.597278,96.190851,-2.287154,-129.368089
46066,NaN,0.484772,9.734504,-0.972861,-0.124201,-0.021037,-0.018498,0.001570,-0.005794,-0.022468,0.298865,0.306166,-0.678355,-0.597307,96.193873,-2.276570,-129.374333
46067,NaN,0.445540,9.779070,-1.043850,-0.048876,-0.031975,0.031851,0.003134,-0.005292,-0.023893,0.298758,0.306207,-0.678363,-0.597332,96.197772,-2.264854,-129.379771
46068,NaN,0.382185,9.808129,-1.095414,0.027390,-0.013684,0.063772,0.004380,-0.015875,-0.026192,0.298606,0.306222,-0.678388,-0.597371,96.202758,-2.251438,-129.391347
46069,NaN,0.414891,9.802390,-1.118053,0.022298,-0.055103,0.061800,0.002930,-0.022518,-0.026812,0.298433,0.306221,-0.678415,-0.597427,96.206915,-2.236992,-129.406422
46070,NaN,0.485446,9.795280,-1.186386,0.028680,-0.154927,0.064856,-0.004340,-0.017759,-0.030161,0.298274,0.306229,-0.678413,-0.597505,96.207018,-2.221272,-129.419269
46071,NaN,0.439650,9.773199,-1.194398,0.063597,-0.129134,0.041986,-0.008682,-0.005996,-0.032751,0.298156,0.306279,-0.678372,-0.597585,96.204135,-2.204467,-129.424557
46072,NaN,0.422280,9.790388,-1.166874,0.051190,-0.099286,0.055399,-0.012138,0.000903,-0.030901,0.298074,0.306337,-0.678314,-0.597662,96.199090,-2.189440,-129.426171
46073,NaN,0.357567,9.776546,-1.099840,0.040637,-0.011118,0.031934,-0.014920,0.004700,-0.027656,0.298017,0.306393,-0.678247,-0.597738,96.192410,-2.176199,-129.425680
46074,NaN,0.362238,9.804896,-1.067383,0.010764,0.006113,0.056778,-0.018211,0.003412,-0.021676,0.297978,0.306415,-0.678182,-0.597819,96.183887,-2.166641,-129.426758
46075,NaN,0.400114,9.823156,-1.033122,-0.040760,-0.002087,0.072663,-0.017406,0.006876,-0.022932,0.297947,0.306458,-0.678111,-0.597893,96.175747,-2.156226,-129.425322
46076,NaN,0.487427,9.818830,-1.047597,-0.084946,-0.081484,0.073192,-0.017836,0.010402,-0.029022,0.297912,0.306530,-0.678025,-0.597972,96.167294,-2.142791,-129.421444
46077,NaN,0.508160,9.776630,-1.051214,-0.093247,-0.106483,0.032399,-0.014489,0.022353,-0.029431,0.297909,0.306646,-0.677929,-0.598022,96.160483,-2.129625,-129.410789
46078,NaN,0.514230,9.693247,-1.014063,-0.121242,-0.098484,-0.054235,-0.016224,0.030037,-0.032135,0.297927,0.306788,-0.677815,-0.598070,96.152584,-2.115677,-129.395812
46079,NaN,0.484224,9.697468,-1.164270,0.012871,-0.171997,-0.035104,-0.016182,0.036461,-0.033221,0.297963,0.306956,-0.677687,-0.598110,96.144504,-2.101215,-129.376885
46080,NaN,0.384705,9.732342,-1.191412,0.094252,-0.111832,-0.001237,-0.017670,0.044572,-0.040623,0.298008,0.307168,-0.677534,-0.598153,96.135439,-2.083315,-129.353064
46081,NaN,0.288436,9.805716,-1.061390,0.049757,0.047862,0.054280,-0.015851,0.037032,-0.039490,0.298026,0.307360,-0.677397,-0.598201,96.127534,-2.065311,-129.333432
46082,NaN,0.345602,9.719076,-0.994493,-0.033874,0.034385,-0.036872,-0.012293,0.021810,-0.035653,0.298000,0.307496,-0.677300,-0.598252,96.122103,-2.048795,-129.322775
46083,NaN,0.458790,9.793049,-1.066975,-0.055241,-0.094379,0.048386,-0.010730,0.022317,-0.037079,0.297969,0.307643,-0.677204,-0.598301,96.117448,-2.031262,-129.311683
46084,NaN,0.455232,9.793347,-1.065760,-0.055266,-0.093831,0.048391,-0.011252,0.038412,-0.042206,0.297980,0.307856,-0.677074,-0.598333,96.112230,-2.011940,-129.290699
46085,NaN,0.460909,9.826097,-1.057700,-0.068649,-0.093154,0.080237,-0.005979,0.049398,-0.044119,0.298012,0.308115,-0.676941,-0.598335,96.109751,-1.992046,-129.263743
46086,NaN,0.418453,9.827541,-1.010733,-0.080079,-0.034103,0.075167,-0.009616,0.047541,-0.052465,0.298018,0.308389,-0.676789,-0.598363,96.105317,-1.967530,-129.237406
46087,NaN,0.339209,9.800439,-1.122822,0.055941,-0.049353,0.057410,-0.006788,0.050181,-0.056798,0.298016,0.308692,-0.676632,-0.598385,96.102356,-1.940457,-129.209234
46088,NaN,0.298340,9.806209,-1.099999,0.061047,-0.006864,0.059342,-0.005056,0.050979,-0.061360,0.298000,0.309013,-0.676474,-0.598406,96.100447,-1.911104,-129.180498
46089,NaN,0.291914,9.821239,-0.996946,-0.018402,0.060032,0.063137,-0.003068,0.047959,-0.056697,0.297985,0.309314,-0.676332,-0.598418,96.099687,-1.883951,-129.153602
46090,NaN,0.334327,9.794797,-1.021063,-0.027672,0.005861,0.040819,-0.005287,0.037844,-0.056077,0.297944,0.309582,-0.676198,-0.598451,96.097820,-1.856677,-129.131936
46091,NaN,0.340114,9.788606,-0.920967,-0.111257,0.059998,0.024217,0.004037,0.042941,-0.050207,0.297920,0.309856,-0.676095,-0.598438,96.101260,-1.832916,-129.108296
46092,NaN,0.351576,9.733093,-0.855141,-0.169100,0.084668,-0.037607,0.010138,0.036219,-0.045503,0.297880,0.310104,-0.676028,-0.598406,96.108365,-1.811625,-129.088546
46093,NaN,0.359308,9.770048,-0.873278,-0.165957,0.068811,0.001245,0.019543,0.030807,-0.046772,0.297801,0.310354,-0.675994,-0.598353,96.120931,-1.789087,-129.072026
46094,NaN,0.291718,9.794068,-0.902943,-0.106170,0.103560,0.026122,0.024233,0.017437,-0.042689,0.297683,0.310557,-0.676001,-0.598298,96.136545,-1.768250,-129.063218
46095,NaN,0.327231,9.812234,-0.872928,-0.157698,0.095449,0.042009,0.032914,0.002277,-0.043180,0.297498,0.310730,-0.676056,-0.598240,96.157290,-1.746017,-129.063166
46096,NaN,0.345427,9.750445,-0.960210,-0.103109,0.020597,-0.009553,0.038342,-0.011997,-0.045442,0.297250,0.310873,-0.676145,-0.598188,96.181408,-1.721887,-129.071220
46097,NaN,0.359372,9.699113,-0.921727,-0.144454,0.028678,-0.064362,0.045096,-0.019760,-0.045514,0.296964,0.311005,-0.676265,-0.598125,96.209502,-1.696962,-129.083563
46098,NaN,0.319317,9.646126,-0.890264,-0.146610,0.074745,-0.121702,0.052737,-0.038809,-0.040046,0.296620,0.311072,-0.676445,-0.598058,96.242246,-1.674218,-129.107051
46099,NaN,0.261010,9.644068,-0.902366,-0.107475,0.113215,-0.124238,0.064917,-0.050177,-0.036806,0.296226,0.311113,-0.676682,-0.597963,96.282205,-1.652337,-129.137240
46100,NaN,0.197524,9.749207,-0.896721,-0.086718,0.177665,-0.022331,0.078464,-0.074162,-0.029673,0.295754,0.311078,-0.677007,-0.597847,96.330397,-1.633183,-129.181372
46101,NaN,0.150454,9.856968,-0.840035,-0.116478,0.262628,0.076983,0.084915,-0.108033,-0.020679,0.295181,0.310921,-0.677415,-0.597750,96.382756,-1.616766,-129.245507
46102,NaN,0.132856,9.873115,-0.822067,-0.128803,0.292548,0.090325,0.082922,-0.143419,-0.020373,0.294492,0.310649,-0.677871,-0.597714,96.434575,-1.598545,-129.330311
46103,NaN,0.108539,9.861011,-0.834863,-0.111303,0.305652,0.078849,0.085206,-0.171543,-0.017613,0.293712,0.310292,-0.678377,-0.597709,96.488068,-1.579662,-129.430783
46104,NaN,0.113878,9.815141,-0.900543,-0.069127,0.260057,0.040664,0.084035,-0.196988,0.000924,0.292959,0.309854,-0.678917,-0.597694,96.541219,-1.569768,-129.536603
46105,NaN,0.061401,9.859234,-1.056485,0.073206,0.211928,0.100644,0.097738,-0.218570,0.019254,0.292110,0.309248,-0.679585,-0.597664,96.602657,-1.568591,-129.666234
46106,NaN,0.139635,9.859878,-1.182989,0.112435,0.078925,0.117936,0.102748,-0.235671,0.032509,0.291288,0.308611,-0.680285,-0.597598,96.667036,-1.573983,-129.796474
46107,NaN,0.112822,9.876903,-1.241410,0.167084,0.071676,0.140904,0.073972,-0.235411,0.057317,0.290532,0.307790,-0.680963,-0.597617,96.715224,-1.593073,-129.938233
46108,NaN,0.172912,9.807988,-1.355075,0.216541,-0.045166,0.087506,0.074370,-0.234765,0.071559,0.289872,0.306978,-0.681635,-0.597589,96.763449,-1.620563,-130.070862
46109,NaN,0.292826,9.838591,-1.321352,0.108339,-0.103795,0.117423,0.068809,-0.214326,0.075787,0.289249,0.306149,-0.682293,-0.597565,96.808503,-1.651353,-130.201904
46110,NaN,0.357109,9.805369,-1.254672,0.015598,-0.104344,0.078513,0.077691,-0.199258,0.074272,0.288715,0.305440,-0.682924,-0.597465,96.858022,-1.682563,-130.314255
46111,NaN,0.333989,9.780302,-1.195435,-0.016442,-0.041581,0.045959,0.087940,-0.188228,0.067796,0.288127,0.304743,-0.683588,-0.597346,96.913721,-1.710373,-130.429954
46112,NaN,0.320894,9.775762,-1.257248,0.034128,-0.061575,0.048560,0.104993,-0.184834,0.059607,0.287553,0.304162,-0.684259,-0.597150,96.978981,-1.734047,-130.533707
46113,NaN,0.313707,9.811692,-1.163663,-0.041116,0.018171,0.072645,0.114056,-0.182211,0.055575,0.286909,0.303562,-0.684971,-0.596949,97.049611,-1.755070,-130.645193
46114,NaN,0.347725,9.796198,-1.151039,-0.079185,0.009872,0.056705,0.128095,-0.192395,0.049325,0.286243,0.303025,-0.685704,-0.596700,97.128045,-1.772173,-130.752604
46115,NaN,0.367851,9.797920,-1.112113,-0.129719,0.030920,0.054103,0.117922,-0.190411,0.051930,0.285553,0.302417,-0.686432,-0.596501,97.201100,-1.790245,-130.868551
46116,NaN,0.434513,9.830364,-1.114493,-0.182104,-0.006290,0.088511,0.136321,-0.180535,0.045797,0.284902,0.301935,-0.687167,-0.596212,97.284040,-1.806045,-130.969574
46117,NaN,0.463867,9.806813,-1.056464,-0.253299,0.018520,0.058501,0.153102,-0.169042,0.033337,0.284176,0.301504,-0.687939,-0.595885,97.376886,-1.814777,-131.072065
46118,NaN,0.425509,9.834851,-1.269260,-0.082082,-0.075434,0.112227,0.161009,-0.162007,0.029496,0.283504,0.301178,-0.688693,-0.595499,97.474197,-1.821885,-131.160243
46119,NaN,0.309245,9.787929,-1.449894,0.121949,-0.098785,0.085632,0.147108,-0.164196,0.033212,0.282803,0.300753,-0.689440,-0.595183,97.563549,-1.830573,-131.259999
46120,NaN,0.281836,9.864750,-1.554117,0.200446,-0.126028,0.174901,0.162106,-0.166417,0.029103,0.282112,0.300416,-0.690201,-0.594799,97.661596,-1.836802,-131.350676
46121,NaN,0.346288,9.709399,-1.639557,0.221874,-0.235688,0.034936,0.160831,-0.149530,0.031722,0.281435,0.300058,-0.690963,-0.594415,97.758567,-1.845439,-131.442016
46122,NaN,0.267158,9.764587,-1.327880,0.028019,0.044047,0.045257,0.110596,-0.140924,0.043719,0.280952,0.299674,-0.691555,-0.594149,97.826711,-1.861628,-131.519368
46123,NaN,0.365095,9.643887,-1.548252,0.131015,-0.177501,-0.040981,0.093100,-0.130278,0.054519,0.280511,0.299199,-0.692122,-0.593937,97.884627,-1.884479,-131.601584
46124,NaN,0.415109,9.729847,-1.615788,0.136363,-0.238714,0.055312,0.103250,-0.105147,0.070954,0.280243,0.298815,-0.692682,-0.593604,97.948036,-1.918758,-131.660809
46125,NaN,0.131954,9.789354,-1.586406,0.294017,0.010513,0.100889,0.096952,-0.094760,0.080767,0.279996,0.298360,-0.693248,-0.593288,98.007645,-1.959152,-131.725000
46126,NaN,-0.005199,9.611472,-1.707830,0.484442,0.023297,-0.062720,0.126788,-0.124243,0.043988,0.279495,0.297986,-0.693890,-0.592962,98.084925,-1.976442,-131.802980
46127,NaN,0.249574,10.036819,-1.338696,0.003630,0.137245,0.315158,0.047162,-0.142826,0.117533,0.279264,0.297190,-0.694430,-0.592838,98.117142,-2.033673,-131.897513
46128,NaN,0.189020,9.803677,-1.360358,0.080548,0.152665,0.085221,0.086272,-0.155615,0.124918,0.279005,0.296445,-0.695088,-0.592561,98.172221,-2.094179,-131.989905
46129,NaN,0.255009,9.879528,-1.055969,-0.192607,0.327341,0.119126,0.056603,-0.155016,0.147088,0.278805,0.295523,-0.695715,-0.592380,98.210405,-2.167026,-132.093868
46130,NaN,0.422321,9.917411,-0.925623,-0.401847,0.309779,0.143853,0.106370,-0.170896,0.145246,0.278523,0.294690,-0.696483,-0.592026,98.277645,-2.237622,-132.196718
46131,NaN,0.431060,9.774611,-1.179912,-0.208174,0.134772,0.039191,0.095318,-0.178901,0.153570,0.278200,0.293728,-0.697265,-0.591735,98.338837,-2.311955,-132.314929
46132,NaN,0.390825,9.717841,-1.201941,-0.159844,0.160179,-0.015616,0.111820,-0.201867,0.157478,0.277837,0.292767,-0.698108,-0.591388,98.410252,-2.386643,-132.436545
46133,NaN,0.326789,9.580891,-1.360632,0.011092,0.102102,-0.130694,0.103273,-0.232878,0.165986,0.277350,0.291612,-0.699004,-0.591129,98.477660,-2.463191,-132.586608
46134,NaN,0.158905,9.579766,-1.479203,0.212062,0.162897,-0.121780,0.094359,-0.272348,0.158168,0.276767,0.290415,-0.699890,-0.590942,98.541162,-2.531983,-132.748450
46135,NaN,0.222474,9.742617,-1.710208,0.323750,-0.001074,0.076097,0.110141,-0.302113,0.142600,0.275958,0.289145,-0.700865,-0.590788,98.614532,-2.589015,-132.935972
46136,NaN,0.319896,9.787895,-1.735251,0.270261,-0.067328,0.129079,0.106458,-0.317127,0.166512,0.275223,0.287801,-0.701857,-0.590609,98.686552,-2.658245,-133.124111
46137,NaN,0.043135,9.901976,-1.419122,0.223747,0.377242,0.180936,0.037126,-0.348715,0.200881,0.274525,0.286087,-0.702759,-0.590694,98.720038,-2.743834,-133.343259
46138,NaN,0.395001,9.434442,-1.847010,0.332680,-0.216035,-0.199218,0.090107,-0.365445,0.195321,0.273728,0.284475,-0.703806,-0.590597,98.784707,-2.824809,-133.561456
46139,NaN,0.595913,10.052939,-1.393117,-0.177869,0.050516,0.352117,0.081790,-0.315821,0.224768,0.273150,0.282832,-0.704823,-0.590441,98.843630,-2.926387,-133.764254
46140,NaN,0.538517,9.816723,-1.387048,-0.117453,0.082331,0.115119,0.044799,-0.302315,0.244616,0.272782,0.281169,-0.705713,-0.590342,98.881509,-3.040401,-133.951216
46141,NaN,0.609275,9.801626,-1.293114,-0.222656,0.111049,0.089499,0.011784,-0.334960,0.239648,0.272276,0.279319,-0.706565,-0.590434,98.901761,-3.148433,-134.166361
46142,NaN,1.140024,9.613203,-1.704297,-0.278070,-0.559916,-0.003146,0.078219,-0.297318,0.192145,0.271723,0.277900,-0.707469,-0.590276,98.959090,-3.232959,-134.345990
46143,NaN,0.902682,9.574458,-1.775496,-0.057672,-0.428324,-0.042802,0.068454,-0.272901,0.168153,0.271145,0.276561,-0.708299,-0.590175,99.010108,-3.305734,-134.519762
46144,NaN,0.937021,9.802300,-1.776023,-0.095425,-0.404536,0.184541,0.045494,-0.227321,0.157768,0.270781,0.275424,-0.708960,-0.590080,99.046706,-3.376785,-134.656790
46145,NaN,0.815959,9.837846,-1.731285,-0.041912,-0.269354,0.205897,0.049520,-0.195351,0.139451,0.270418,0.274390,-0.709587,-0.589975,99.084537,-3.440076,-134.784138
46146,NaN,0.701453,9.934318,-1.480433,-0.143014,0.011508,0.254775,0.044698,-0.179901,0.126127,0.270130,0.273503,-0.710136,-0.589858,99.119217,-3.497340,-134.891526
46147,NaN,0.772512,9.884339,-1.295356,-0.318424,0.093531,0.180547,0.065037,-0.185775,0.119929,0.269721,0.272586,-0.710767,-0.589710,99.165758,-3.550290,-135.011766
46148,NaN,0.573693,9.809201,-1.317174,-0.156824,0.219977,0.097484,0.074206,-0.191386,0.118161,0.269327,0.271733,-0.711406,-0.589513,99.217927,-3.601814,-135.125036
46149,NaN,0.592335,9.779147,-1.281443,-0.193998,0.240731,0.062994,0.104449,-0.220333,0.115371,0.268728,0.270783,-0.712191,-0.589276,99.288481,-3.648771,-135.264553
46150,NaN,0.383290,9.688102,-1.428948,0.063512,0.284244,-0.016602,0.064511,-0.246111,0.129996,0.268186,0.269712,-0.712888,-0.589170,99.337370,-3.701651,-135.410052
46151,NaN,0.413930,9.563246,-1.674174,0.222269,0.084038,-0.098091,0.073242,-0.290886,0.125643,0.267407,0.268474,-0.713687,-0.589123,99.392951,-3.747564,-135.590605
46152,NaN,0.499690,9.545397,-1.904480,0.323487,-0.127846,-0.072547,0.052418,-0.305072,0.150861,0.266731,0.267138,-0.714453,-0.589109,99.437523,-3.806429,-135.771576
46153,NaN,0.674235,9.613640,-2.048428,0.295943,-0.327352,0.029974,0.045706,-0.304038,0.160078,0.266041,0.265701,-0.715230,-0.589128,99.478408,-3.870273,-135.962927
46154,NaN,0.916442,9.760715,-2.131281,0.173754,-0.518283,0.205045,0.003067,-0.268698,0.167778,0.265609,0.264344,-0.715820,-0.589216,99.493854,-3.941895,-136.124996
46155,NaN,0.936623,9.686692,-2.165876,0.195286,-0.560275,0.139611,-0.037086,-0.208266,0.159979,0.265370,0.263078,-0.716222,-0.589402,99.484008,-4.014627,-136.262151
46156,NaN,0.871862,9.664443,-2.067725,0.185903,-0.443056,0.097217,-0.047499,-0.148153,0.163648,0.265423,0.262023,-0.716496,-0.589516,99.466084,-4.095322,-136.355548
46157,NaN,0.876486,9.718097,-1.883807,0.065185,-0.300879,0.120266,-0.068620,-0.102798,0.164690,0.265617,0.261008,-0.716669,-0.589668,99.434269,-4.180730,-136.433360
46158,NaN,0.828165,9.779600,-1.745920,0.016693,-0.153739,0.154797,-0.080572,-0.063620,0.171749,0.266039,0.260129,-0.716742,-0.589777,99.394232,-4.274037,-136.479543
46159,NaN,0.715271,9.810503,-1.610913,0.020639,0.031054,0.154820,-0.080556,-0.050398,0.185104,0.266496,0.259179,-0.716836,-0.589875,99.353729,-4.375979,-136.529464
46160,NaN,0.672405,9.926079,-1.464756,-0.037102,0.191329,0.241499,-0.078899,-0.059066,0.203289,0.267025,0.258202,-0.716947,-0.589929,99.314870,-4.487620,-136.575889
46161,NaN,0.618276,9.961754,-1.378576,-0.039235,0.305106,0.258291,-0.075778,-0.082178,0.231468,0.267497,0.256998,-0.717156,-0.589987,99.279063,-4.612902,-136.648019
46162,NaN,0.427032,9.784252,-1.397412,0.140781,0.405265,0.070763,-0.016868,-0.123977,0.252803,0.267821,0.255689,-0.717614,-0.589852,99.279271,-4.746533,-136.743049
46163,NaN,0.818580,10.194397,-1.191918,-0.284251,0.369705,0.473173,-0.081221,-0.132109,0.282670,0.268271,0.254145,-0.717936,-0.589923,99.243460,-4.896211,-136.848202
46164,NaN,0.818272,9.792322,-1.313550,-0.156903,0.228362,0.097293,-0.065191,-0.120600,0.302296,0.268814,0.252603,-0.718307,-0.589887,99.216727,-5.058182,-136.945733
46165,NaN,1.078462,9.783442,-1.088941,-0.475434,0.226079,0.076063,-0.063179,-0.093591,0.302486,0.269436,0.251124,-0.718651,-0.589814,99.190032,-5.222703,-137.030735
46166,NaN,1.319272,9.511589,-1.369158,-0.424953,-0.169137,-0.123717,-0.050226,-0.080022,0.281570,0.270042,0.249794,-0.718982,-0.589699,99.170119,-5.376755,-137.103387
46167,NaN,1.428060,9.365979,-1.804865,-0.181557,-0.565282,-0.186374,-0.043641,-0.064636,0.237298,0.270551,0.248661,-0.719261,-0.589605,99.152929,-5.507105,-137.165883
46168,NaN,1.308523,9.274911,-1.985225,0.048214,-0.618300,-0.257967,-0.043984,-0.045702,0.188550,0.270997,0.247774,-0.719445,-0.589548,99.134212,-5.611720,-137.210473
46169,NaN,1.257511,9.315544,-2.098101,0.174017,-0.649630,-0.204857,-0.055621,-0.039762,0.135692,0.271310,0.247062,-0.719527,-0.589603,99.108072,-5.686894,-137.249485
46170,NaN,1.234690,9.338095,-2.163097,0.245184,-0.673289,-0.174740,-0.071523,-0.021121,0.089948,0.271588,0.246564,-0.719475,-0.589748,99.071423,-5.738003,-137.271154
46171,NaN,1.218096,9.510014,-2.107533,0.222661,-0.591350,-0.016436,-0.075800,0.009362,0.043612,0.271830,0.246301,-0.719316,-0.589939,99.030145,-5.765550,-137.273803
46172,NaN,1.207048,9.575691,-1.844008,0.056638,-0.386623,0.005586,-0.082679,0.036458,0.015766,0.272111,0.246225,-0.719061,-0.590153,98.983163,-5.779877,-137.255794
46173,NaN,1.146358,9.738594,-1.466831,-0.154683,-0.051474,0.100908,-0.089050,0.037920,-0.001389,0.272339,0.246190,-0.718769,-0.590418,98.932248,-5.784508,-137.238117
46174,NaN,0.855698,9.771690,-1.254358,-0.082704,0.296795,0.071473,-0.081081,0.007361,-0.009738,0.272439,0.246123,-0.718525,-0.590696,98.887614,-5.781787,-137.234240
46175,NaN,0.784375,9.863619,-1.159759,-0.093962,0.423776,0.140345,-0.065280,-0.023701,-0.010236,0.272390,0.245970,-0.718376,-0.590963,98.853769,-5.775938,-137.250833
46176,NaN,0.860637,9.874401,-1.177984,-0.134103,0.357304,0.161604,-0.053383,-0.044475,0.008700,0.272324,0.245722,-0.718308,-0.591180,98.828133,-5.779087,-137.278096
46177,NaN,0.970988,9.865308,-1.151643,-0.228908,0.298490,0.159870,-0.035234,-0.057646,0.026684,0.272226,0.245377,-0.718339,-0.591331,98.813782,-5.791174,-137.317271
46178,NaN,0.924211,9.799311,-1.207501,-0.151685,0.277865,0.098847,-0.028966,-0.057351,0.018956,0.272113,0.245086,-0.718373,-0.591462,98.802969,-5.799014,-137.352768
46179,NaN,1.068968,9.668207,-1.349225,-0.154880,0.055202,0.006187,-0.020890,-0.051262,0.022603,0.272008,0.244794,-0.718433,-0.591559,98.796445,-5.809364,-137.387947
46180,NaN,1.219286,9.648364,-1.500846,-0.159977,-0.157602,0.024980,-0.004204,-0.040726,0.011042,0.271901,0.244615,-0.718507,-0.591592,98.798797,-5.814188,-137.413304
46181,NaN,1.169561,9.592897,-1.631363,-0.033268,-0.227863,-0.014736,-0.013347,-0.033237,-0.010372,0.271754,0.244505,-0.718524,-0.591684,98.795266,-5.807447,-137.435320
46182,NaN,1.149046,9.535694,-1.836024,0.121307,-0.373128,-0.041975,-0.012585,-0.028268,-0.033434,0.271571,0.244510,-0.718503,-0.591792,98.791703,-5.788187,-137.449766
46183,NaN,1.211475,9.565303,-1.831299,0.068760,-0.410209,-0.007416,-0.019383,-0.016848,-0.059223,0.271345,0.244615,-0.718420,-0.591952,98.783328,-5.755224,-137.458156
46184,NaN,1.199336,9.625108,-1.697276,-0.018795,-0.300921,0.029617,-0.026781,-0.002782,-0.080139,0.271133,0.244845,-0.718265,-0.592143,98.769756,-5.711753,-137.453954
46185,NaN,1.262629,9.691852,-1.562423,-0.163041,-0.242095,0.080856,-0.029649,0.011644,-0.093176,0.270922,0.245143,-0.718071,-0.592351,98.753586,-5.662054,-137.443166
46186,NaN,1.003109,9.717452,-1.553029,0.015303,-0.064430,0.078854,-0.032957,0.005435,-0.103052,0.270677,0.245470,-0.717859,-0.592585,98.735830,-5.606332,-137.432390
46187,NaN,0.716286,9.852538,-1.452505,0.147428,0.214648,0.168671,-0.045462,0.014133,-0.129112,0.270388,0.245883,-0.717570,-0.592896,98.710183,-5.536490,-137.417084
46188,NaN,0.885431,9.910422,-1.293211,-0.091623,0.214199,0.218193,-0.054814,-0.002080,-0.105413,0.270137,0.246166,-0.717299,-0.593220,98.680313,-5.478764,-137.410335
46189,NaN,1.162381,9.909182,-1.143179,-0.399832,0.124693,0.220979,-0.059555,-0.002434,-0.092994,0.269913,0.246381,-0.717035,-0.593552,98.647824,-5.427935,-137.407661
46190,NaN,1.053761,9.911781,-1.259625,-0.243137,0.105539,0.230729,-0.058226,-0.032463,-0.063967,0.269680,0.246422,-0.716846,-0.593870,98.617976,-5.391068,-137.421855
46191,NaN,0.145315,9.671078,-1.401993,0.525523,0.563594,-0.069863,-0.073344,-0.040703,-0.100705,0.269312,0.246532,-0.716583,-0.594308,98.579569,-5.332589,-137.440352
46192,NaN,0.878046,9.698944,-1.524872,0.067829,-0.023665,0.044317,-0.054592,-0.071430,-0.076279,0.268899,0.246506,-0.716440,-0.594677,98.553722,-5.285431,-137.475598
46193,NaN,0.924415,9.705281,-1.568511,0.061637,-0.094134,0.061247,-0.077004,-0.069877,-0.056050,0.268564,0.246365,-0.716260,-0.595104,98.515067,-5.249794,-137.514572
46194,NaN,0.897425,9.758486,-1.602551,0.102957,-0.100909,0.116099,-0.085547,-0.058989,-0.058438,0.268286,0.246269,-0.716031,-0.595545,98.470937,-5.213851,-137.544391
46195,NaN,0.965586,9.552069,-1.775034,0.177815,-0.315904,-0.055962,-0.096776,-0.043280,-0.049522,0.268090,0.246157,-0.715764,-0.596001,98.419591,-5.184213,-137.568832
46196,NaN,1.150546,9.668332,-1.776925,0.040868,-0.431662,0.075176,-0.081707,-0.003266,-0.060392,0.268001,0.246240,-0.715469,-0.596361,98.374763,-5.151876,-137.566810
46197,NaN,1.190584,9.679130,-1.693672,-0.043662,-0.406549,0.076922,-0.087633,0.061768,-0.067917,0.268114,0.246519,-0.715065,-0.596679,98.323142,-5.120590,-137.529971
46198,NaN,1.078794,9.736388,-1.648824,0.009043,-0.300398,0.116529,-0.101422,0.104814,-0.075651,0.268390,0.246952,-0.714546,-0.596996,98.261435,-5.088541,-137.465160
46199,NaN,1.215843,9.707259,-1.545183,-0.157000,-0.334919,0.084782,-0.112218,0.126112,-0.077244,0.268736,0.247423,-0.713970,-0.597335,98.192469,-5.057164,-137.390993
46200,NaN,1.489746,9.795030,-1.448598,-0.420799,-0.447754,0.181452,-0.116347,0.107479,-0.050620,0.269114,0.247755,-0.713434,-0.597668,98.122333,-5.039387,-137.326844
46201,NaN,-0.210684,9.509354,-1.386856,0.795689,0.684894,-0.257932,-0.135897,0.129126,-0.119587,0.269373,0.248353,-0.712730,-0.598143,98.039437,-4.984044,-137.247625
46202,NaN,0.725381,9.587307,-1.200768,-0.017757,0.183788,-0.125047,-0.092478,0.094297,-0.115651,0.269480,0.248909,-0.712201,-0.598494,97.983281,-4.928160,-137.185877
46203,NaN,1.156914,9.684308,-1.204231,-0.333203,-0.108874,0.008288,-0.107670,0.090872,-0.094223,0.269642,0.249340,-0.711663,-0.598881,97.918751,-4.884000,-137.130601
46204,NaN,0.857210,9.798491,-1.196651,-0.121560,0.103668,0.094465,-0.112037,0.097426,-0.109441,0.269803,0.249856,-0.711077,-0.599289,97.851383,-4.831749,-137.067573
46205,NaN,0.656883,9.704495,-1.298526,0.097888,0.137673,-0.001146,-0.100745,0.066665,-0.105561,0.269837,0.250265,-0.710578,-0.599696,97.792007,-4.779141,-137.025307
46206,NaN,0.703547,9.774145,-1.376804,0.115470,0.047435,0.082205,-0.098131,0.054144,-0.098743,0.269859,0.250632,-0.710105,-0.600093,97.734840,-4.729485,-136.987929
46207,NaN,0.783850,9.816333,-1.360473,0.045408,-0.002042,0.128320,-0.106051,0.061271,-0.092026,0.269920,0.250968,-0.709613,-0.600506,97.672844,-4.684061,-136.949894
46208,NaN,0.763609,9.798509,-1.426788,0.108232,-0.051515,0.117833,-0.109948,0.078597,-0.084407,0.270086,0.251342,-0.709089,-0.600895,97.607920,-4.644336,-136.899758
46209,NaN,0.810176,9.741101,-1.400651,0.061726,-0.085628,0.061324,-0.113135,0.106579,-0.071186,0.270379,0.251730,-0.708539,-0.601248,97.539969,-4.614084,-136.837591
46210,NaN,0.903878,9.769818,-1.433778,0.020466,-0.181047,0.101385,-0.120996,0.142112,-0.066805,0.270837,0.252217,-0.707917,-0.601570,97.465975,-4.589003,-136.752706
46211,NaN,0.952962,9.716667,-1.429768,-0.009569,-0.231699,0.052007,-0.126861,0.182355,-0.057295,0.271457,0.252765,-0.707240,-0.601857,97.386852,-4.572096,-136.648464
46212,NaN,0.873481,9.722867,-1.489061,0.096625,-0.230407,0.059089,-0.126965,0.218278,-0.055892,0.272224,0.253434,-0.706509,-0.602088,97.306112,-4.558562,-136.520981
46213,NaN,0.816707,9.731064,-1.498127,0.152314,-0.208547,0.063461,-0.135762,0.237018,-0.059246,0.273042,0.254141,-0.705727,-0.602338,97.219461,-4.544209,-136.385484
46214,NaN,0.758291,9.677248,-1.467926,0.184235,-0.166888,0.001442,-0.139777,0.240832,-0.059088,0.273894,0.254870,-0.704919,-0.602588,97.130416,-4.530100,-136.244968
46215,NaN,0.747050,9.746899,-1.391335,0.146266,-0.107077,0.059650,-0.139987,0.234440,-0.058160,0.274710,0.255559,-0.704126,-0.602852,97.041538,-4.515765,-136.111068
46216,NaN,0.778131,9.782925,-1.319901,0.082445,-0.085525,0.088782,-0.145496,0.238063,-0.059628,0.275558,0.256274,-0.703302,-0.603123,96.949397,-4.500713,-135.971962
46217,NaN,0.753262,9.807547,-1.176049,0.008396,0.023525,0.093766,-0.146170,0.241589,-0.065706,0.276384,0.257001,-0.702468,-0.603408,96.856694,-4.482153,-135.833515
46218,NaN,0.833647,9.721487,-1.050411,-0.125730,0.030216,0.000003,-0.151333,0.244003,-0.070428,0.277225,0.257762,-0.701601,-0.603705,96.761007,-4.460929,-135.690559
46219,NaN,0.860802,9.703374,-0.987557,-0.180377,0.038456,-0.023016,-0.144513,0.249313,-0.077726,0.278039,0.258556,-0.700743,-0.603988,96.668958,-4.435593,-135.546964
46220,NaN,0.833276,9.695239,-0.974182,-0.162843,0.051482,-0.034556,-0.133526,0.242945,-0.084358,0.278811,0.259387,-0.699911,-0.604241,96.583563,-4.405905,-135.403572
46221,NaN,0.762442,9.724689,-0.980620,-0.102956,0.086248,-0.009910,-0.126824,0.227851,-0.091871,0.279483,0.260189,-0.699115,-0.604507,96.502672,-4.370687,-135.271392
46222,NaN,0.680484,9.730936,-1.042344,0.003236,0.087504,-0.002847,-0.118159,0.203149,-0.092317,0.280071,0.260948,-0.698372,-0.604767,96.427943,-4.333519,-135.150381
46223,NaN,0.631120,9.725614,-1.107053,0.087726,0.063355,-0.004542,-0.103354,0.186030,-0.091877,0.280565,0.261655,-0.697703,-0.605004,96.362474,-4.295287,-135.042185
46224,NaN,0.220383,9.819040,-1.014419,0.312092,0.417727,0.047295,-0.095388,0.178312,-0.090798,0.281040,0.262364,-0.697064,-0.605213,96.302036,-4.257136,-134.935632
46225,NaN,0.509691,9.789339,-1.101660,0.173509,0.136940,0.049144,-0.104743,0.192123,-0.093069,0.281552,0.263092,-0.696380,-0.605447,96.235660,-4.218369,-134.823978
46226,NaN,1.276628,9.709982,-1.133049,-0.337789,-0.451887,0.030025,-0.120132,0.208133,-0.117370,0.282083,0.263949,-0.695586,-0.605739,96.159823,-4.166675,-134.698775
46227,NaN,1.285665,9.704980,-1.020420,-0.421234,-0.397618,0.013057,-0.114414,0.220905,-0.139670,0.282567,0.264911,-0.694768,-0.606032,96.086723,-4.102837,-134.567939
46228,NaN,0.737557,9.588383,-1.046262,-0.014723,-0.058126,-0.139419,-0.120036,0.212875,-0.151710,0.283009,0.265902,-0.693920,-0.606364,96.010879,-4.031535,-134.437990
46229,NaN,0.529788,9.613722,-1.085529,0.157642,0.048246,-0.124782,-0.112627,0.168338,-0.161888,0.283239,0.266784,-0.693150,-0.606750,95.941140,-3.951565,-134.336041
46230,NaN,0.713915,9.767741,-1.062956,0.007185,-0.066634,0.038393,-0.100974,0.132262,-0.167974,0.283327,0.267612,-0.692450,-0.607143,95.879675,-3.865906,-134.251344
46231,NaN,0.828410,9.979414,-0.931765,-0.174907,-0.051180,0.242655,-0.104756,0.128451,-0.170115,0.283383,0.268412,-0.691747,-0.607565,95.816246,-3.778691,-134.171899
46232,NaN,0.744511,9.989829,-0.845748,-0.180892,0.049786,0.238732,-0.119229,0.130022,-0.172195,0.283473,0.269221,-0.690987,-0.608029,95.744638,-3.690336,-134.088501
46233,NaN,0.615076,9.813443,-0.773047,-0.140772,0.152125,0.048174,-0.116813,0.113858,-0.178399,0.283469,0.269988,-0.690255,-0.608522,95.675062,-3.597376,-134.017146
46234,NaN,0.541274,9.747889,-0.702588,-0.141763,0.226792,-0.028191,-0.101564,0.095055,-0.174869,0.283406,0.270724,-0.689594,-0.608975,95.615079,-3.505330,-133.953809
46235,NaN,0.556087,9.729012,-0.645814,-0.196391,0.235048,-0.051226,-0.090749,0.081193,-0.167899,0.283285,0.271391,-0.689000,-0.609406,95.561839,-3.416384,-133.901914
46236,NaN,0.587200,9.712612,-0.713859,-0.172876,0.147644,-0.058840,-0.075020,0.073145,-0.160160,0.283154,0.272047,-0.688468,-0.609775,95.518038,-3.331402,-133.852078
46237,NaN,0.470605,9.806394,-0.891619,0.028209,0.104849,0.044798,-0.061197,0.059978,-0.152977,0.282965,0.272639,-0.688014,-0.610111,95.482635,-3.249722,-133.813268
46238,NaN,0.338457,9.950626,-0.936148,0.141970,0.171107,0.185134,-0.055233,0.046262,-0.143026,0.282768,0.273183,-0.687603,-0.610423,95.451211,-3.172962,-133.779695
46239,NaN,0.397243,10.220096,-0.823461,0.006458,0.221377,0.445831,-0.049588,0.040132,-0.130781,0.282562,0.273654,-0.687241,-0.610714,95.423255,-3.102822,-133.753525
46240,NaN,0.554226,10.229116,-0.684292,-0.206970,0.191642,0.450385,-0.065736,0.046272,-0.119885,0.282450,0.274104,-0.686829,-0.611028,95.385981,-3.039199,-133.721261
46241,NaN,0.651979,10.006851,-0.668489,-0.281735,0.096072,0.233228,-0.070115,0.057761,-0.118997,0.282369,0.274559,-0.686395,-0.611349,95.345833,-2.976693,-133.685743
46242,NaN,0.623006,9.676438,-0.729959,-0.209221,0.028699,-0.091071,-0.069266,0.073598,-0.117457,0.282362,0.275078,-0.685936,-0.611634,95.305795,-2.915876,-133.638084
46243,NaN,0.389843,9.445214,-0.855201,0.047205,0.076833,-0.321256,-0.060105,0.073583,-0.110763,0.282346,0.275568,-0.685521,-0.611886,95.271028,-2.858855,-133.594051
46244,NaN,0.131893,9.523421,-0.919327,0.266199,0.217798,-0.250271,-0.042921,0.037974,-0.091372,0.282260,0.275925,-0.685228,-0.612093,95.247234,-2.811033,-133.568297
46245,NaN,0.062799,9.681383,-1.035494,0.390124,0.196556,-0.085687,-0.029558,-0.008224,-0.070021,0.282046,0.276067,-0.685078,-0.612295,95.232425,-2.772941,-133.573183
46246,NaN,0.202381,9.803853,-1.125741,0.353885,0.040119,0.051234,-0.036685,-0.036563,-0.039965,0.281853,0.276028,-0.684980,-0.612511,95.214406,-2.750574,-133.592844
46247,NaN,0.330726,9.821082,-1.137838,0.274297,-0.064018,0.075608,-0.046825,-0.044222,-0.019076,0.281696,0.275861,-0.684898,-0.612750,95.190813,-2.739683,-133.620968
46248,NaN,0.403686,9.939870,-1.105390,0.199188,-0.086922,0.194242,-0.053428,-0.033393,-0.000949,0.281657,0.275675,-0.684798,-0.612963,95.163218,-2.739712,-133.640677
46249,NaN,0.400504,9.920538,-1.003784,0.133360,-0.020187,0.165632,-0.070721,-0.004763,0.018453,0.281783,0.275467,-0.684639,-0.613177,95.124947,-2.752293,-133.648198
46250,NaN,0.466980,9.890262,-0.950574,0.057002,-0.037292,0.133885,-0.073393,0.023235,0.032143,0.282066,0.275313,-0.684443,-0.613334,95.084431,-2.774156,-133.637342
46251,NaN,0.456604,9.838589,-0.854293,0.004530,0.028960,0.073427,-0.085367,0.038404,0.040988,0.282429,0.275140,-0.684209,-0.613506,95.036628,-2.801791,-133.621320
46252,NaN,0.439582,9.828265,-0.849126,0.022081,0.041939,0.061865,-0.081065,0.032544,0.046904,0.282801,0.274953,-0.683997,-0.613655,94.991490,-2.832498,-133.605696
46253,NaN,0.431683,9.839871,-0.789303,-0.006622,0.088512,0.067825,-0.080239,0.020707,0.056800,0.283144,0.274679,-0.683825,-0.613812,94.947147,-2.868255,-133.600529
46254,NaN,0.336114,9.856473,-0.707053,0.009215,0.214833,0.072489,-0.083129,0.005025,0.064555,0.283478,0.274344,-0.683669,-0.613981,94.901658,-2.907659,-133.601503
46255,NaN,0.324020,9.802864,-0.761267,0.068850,0.181261,0.023118,-0.082132,-0.027410,0.075532,0.283717,0.273855,-0.683584,-0.614183,94.857674,-2.951756,-133.624699
46256,NaN,0.334155,9.760098,-0.812571,0.110925,0.135261,-0.014686,-0.080723,-0.060997,0.083236,0.283877,0.273255,-0.683556,-0.614407,94.815617,-2.998674,-133.664638
46257,NaN,0.378449,9.823784,-0.890121,0.145877,0.057642,0.057351,-0.073342,-0.081007,0.095729,0.283983,0.272544,-0.683602,-0.614623,94.778373,-3.051768,-133.719384
46258,NaN,0.420251,9.813469,-0.884018,0.124154,0.032815,0.048640,-0.077309,-0.092091,0.102282,0.284091,0.271788,-0.683653,-0.614851,94.739322,-3.108147,-133.777856
46259,NaN,0.538535,9.867142,-0.860973,0.036459,-0.028811,0.106466,-0.075162,-0.083013,0.111170,0.284239,0.271016,-0.683716,-0.615053,94.701242,-3.170036,-133.834413
46260,NaN,0.687524,9.835680,-0.755334,-0.129641,-0.063020,0.074831,-0.075519,-0.063590,0.121011,0.284500,0.270286,-0.683757,-0.615209,94.662481,-3.238518,-133.877365
46261,NaN,0.774518,9.787430,-0.730918,-0.193756,-0.109601,0.029992,-0.072066,-0.030595,0.115080,0.284835,0.269666,-0.683759,-0.615323,94.624601,-3.305147,-133.904044
46262,NaN,0.765643,9.786900,-0.774977,-0.143303,-0.129726,0.032760,-0.069524,-0.007666,0.112814,0.285252,0.269143,-0.683728,-0.615394,94.587533,-3.371584,-133.914702
46263,NaN,0.722735,9.792019,-0.794349,-0.087557,-0.107936,0.037066,-0.064317,0.011675,0.105574,0.285691,0.268696,-0.683680,-0.615438,94.552688,-3.434748,-133.916680
46264,NaN,0.645518,9.856163,-0.777205,-0.035667,-0.030745,0.095010,-0.064975,0.014976,0.102715,0.286149,0.268284,-0.683617,-0.615476,94.517433,-3.496477,-133.913897
46265,NaN,0.638382,9.871851,-0.892882,0.064138,-0.100555,0.119280,-0.067917,0.008720,0.095602,0.286552,0.267856,-0.683549,-0.615551,94.480601,-3.553815,-133.917038
46266,NaN,0.592968,9.925511,-0.876552,0.094288,-0.048728,0.168518,-0.065169,0.011564,0.089702,0.286957,0.267478,-0.683471,-0.615612,94.445323,-3.607946,-133.915515
46267,NaN,0.623780,9.936079,-0.866284,0.076755,-0.060604,0.180092,-0.075192,0.013971,0.089480,0.287369,0.267077,-0.683364,-0.615713,94.404116,-3.662022,-133.915305
46268,NaN,0.827697,9.865300,-0.841068,-0.070157,-0.195698,0.120761,-0.081699,0.037373,0.077438,0.287848,0.266796,-0.683182,-0.615814,94.358327,-3.710302,-133.898284
46269,NaN,0.909318,9.758165,-0.803115,-0.141598,-0.239200,0.016675,-0.088016,0.067557,0.061396,0.288373,0.266637,-0.682921,-0.615926,94.307691,-3.750653,-133.866089
46270,NaN,0.848785,9.721662,-0.780355,-0.105396,-0.184835,-0.025204,-0.079038,0.078875,0.048807,0.288902,0.266586,-0.682648,-0.616003,94.261796,-3.784289,-133.823959
46271,NaN,0.719637,9.749707,-0.696693,-0.067726,-0.033144,-0.011955,-0.072720,0.087868,0.037431,0.289402,0.266594,-0.682372,-0.616071,94.219044,-3.811755,-133.779047
46272,NaN,0.658145,9.825182,-0.675165,-0.033368,0.031639,0.057524,-0.066792,0.077401,0.030276,0.289852,0.266619,-0.682113,-0.616134,94.180148,-3.834649,-133.736870
46273,NaN,0.609941,9.842297,-0.741562,0.055282,0.020294,0.076159,-0.072017,0.067540,0.022650,0.290236,0.266616,-0.681849,-0.616247,94.138500,-3.852760,-133.702944
46274,NaN,0.635520,9.858509,-0.754589,0.054180,-0.008109,0.094910,-0.069914,0.058662,0.021790,0.290599,0.266607,-0.681597,-0.616358,94.098500,-3.870016,-133.671311
46275,NaN,0.647631,9.885282,-0.715712,0.024405,0.009544,0.119572,-0.071956,0.041392,0.016672,0.290876,0.266542,-0.681363,-0.616515,94.057862,-3.883597,-133.652092
46276,NaN,0.739816,9.867601,-0.533074,-0.165104,0.063430,0.095378,-0.063629,0.046719,0.014496,0.291167,0.266531,-0.681138,-0.616631,94.021938,-3.896121,-133.627000
46277,NaN,0.824791,9.786578,-0.466029,-0.266332,0.037023,0.015957,-0.061568,0.046635,0.005120,0.291412,0.266537,-0.680913,-0.616761,93.987007,-3.903285,-133.604295
46278,NaN,0.903683,9.754352,-0.513909,-0.281175,-0.059211,-0.007303,-0.051825,0.060918,-0.003893,0.291678,0.266648,-0.680679,-0.616845,93.957242,-3.905851,-133.570453
46279,NaN,0.850972,9.819504,-0.546299,-0.218114,-0.040481,0.056256,-0.045944,0.064983,-0.014204,0.291905,0.266800,-0.680450,-0.616926,93.930492,-3.902668,-133.536465
46280,NaN,0.786271,9.799789,-0.599198,-0.132578,-0.035823,0.035879,-0.045559,0.072662,-0.025977,0.292136,0.267032,-0.680188,-0.617005,93.903749,-3.893036,-133.494796
46281,NaN,0.818981,9.800302,-0.642873,-0.121449,-0.093748,0.041571,-0.039437,0.074719,-0.031759,0.292333,0.267283,-0.679940,-0.617076,93.880314,-3.880167,-133.454549
46282,NaN,0.829074,9.737376,-0.702562,-0.083649,-0.152787,-0.016407,-0.042118,0.075477,-0.044445,0.292511,0.267591,-0.679660,-0.617166,93.855447,-3.860052,-133.410715
46283,NaN,0.912209,9.726490,-0.696441,-0.144724,-0.215359,-0.022160,-0.032411,0.089599,-0.051879,0.292687,0.267966,-0.679385,-0.617223,93.835441,-3.836220,-133.361180
46284,NaN,0.896434,9.695459,-0.700286,-0.131376,-0.215360,-0.053985,-0.034926,0.102873,-0.063202,0.292891,0.268433,-0.679062,-0.617279,93.813586,-3.806443,-133.300937
46285,NaN,0.867095,9.733480,-0.663780,-0.139393,-0.172314,-0.020652,-0.025690,0.121042,-0.079686,0.293079,0.269009,-0.678724,-0.617311,93.796225,-3.767874,-133.232347
46286,NaN,0.827239,9.745260,-0.659422,-0.117621,-0.146387,-0.011974,-0.024961,0.139054,-0.084021,0.293328,0.269673,-0.678350,-0.617314,93.778723,-3.727540,-133.150588
46287,NaN,0.819398,9.799278,-0.643589,-0.126752,-0.132289,0.040124,-0.019323,0.156964,-0.091266,0.293592,0.270408,-0.677962,-0.617292,93.763751,-3.683664,-133.061010
46288,NaN,0.755855,9.741788,-0.632241,-0.094721,-0.090957,-0.022068,-0.016808,0.173662,-0.094083,0.293917,0.271225,-0.677547,-0.617235,93.749736,-3.638808,-132.958874
46289,NaN,0.640039,9.748801,-0.659430,0.000371,-0.031465,-0.020720,-0.013757,0.174712,-0.097003,0.294217,0.272042,-0.677142,-0.617178,93.737441,-3.592273,-132.858943
46290,NaN,0.549048,9.724137,-0.743668,0.119914,-0.031032,-0.045498,-0.006286,0.170529,-0.100240,0.294497,0.272884,-0.676755,-0.617097,93.729696,-3.543781,-132.758529
46291,NaN,0.367808,9.752141,-0.772259,0.258555,0.079158,-0.026840,0.009298,0.155914,-0.091498,0.294717,0.273658,-0.676454,-0.616978,93.731450,-3.499669,-132.669592
46292,NaN,0.112416,9.886793,-0.831776,0.468689,0.233491,0.095843,0.005673,0.158560,-0.094622,0.294957,0.274461,-0.676128,-0.616865,93.731145,-3.453941,-132.576312
46293,NaN,0.541434,9.891586,-0.828665,0.170489,-0.084503,0.126483,0.019316,0.162555,-0.101325,0.295156,0.275304,-0.675834,-0.616716,93.738533,-3.404466,-132.483210
46294,NaN,0.752574,10.007712,-0.687413,-0.084155,-0.140942,0.245456,0.018617,0.162370,-0.115655,0.295326,0.276208,-0.675512,-0.616584,93.745594,-3.346882,-132.386889
46295,NaN,1.009692,9.938837,-0.610095,-0.320987,-0.292959,0.186478,0.002284,0.188936,-0.134379,0.295534,0.277218,-0.675080,-0.616504,93.742467,-3.279511,-132.277443
46296,NaN,0.902964,9.816538,-0.518149,-0.323752,-0.173621,0.052062,0.000828,0.206612,-0.154767,0.295758,0.278365,-0.674581,-0.616426,93.738045,-3.201189,-132.154135
46297,NaN,0.782371,9.827197,-0.421566,-0.324136,-0.030724,0.049239,0.010060,0.200202,-0.177103,0.295861,0.279564,-0.674095,-0.616365,93.739232,-3.109801,-132.036662
46298,NaN,0.767916,9.781034,-0.456991,-0.298565,-0.060302,0.004357,0.006837,0.198036,-0.193447,0.295927,0.280822,-0.673571,-0.616334,93.738821,-3.009069,-131.917007
46299,NaN,0.646915,9.745303,-0.548175,-0.161471,-0.047547,-0.032015,0.012502,0.197782,-0.207447,0.295924,0.282119,-0.673051,-0.616312,93.741832,-2.900245,-131.799803
46300,NaN,0.532603,9.847370,-0.607569,-0.055968,-0.007027,0.067610,0.024469,0.188455,-0.210932,0.295877,0.283431,-0.672569,-0.616259,93.752207,-2.789171,-131.684995
46301,NaN,0.495922,9.911443,-0.545151,-0.093722,0.053222,0.125531,0.024978,0.181287,-0.216513,0.295772,0.284725,-0.672096,-0.616229,93.763255,-2.674580,-131.576881
46302,NaN,0.518262,9.875494,-0.527017,-0.136128,0.032006,0.089441,0.026362,0.181486,-0.214915,0.295686,0.286032,-0.671621,-0.616182,93.775300,-2.561013,-131.465750
46303,NaN,0.480978,9.880785,-0.453541,-0.181173,0.095240,0.088072,0.025763,0.182447,-0.210199,0.295603,0.287307,-0.671156,-0.616136,93.787204,-2.450120,-131.357183
46304,NaN,0.465528,9.771161,-0.606435,-0.067438,-0.014839,-0.011908,0.020780,0.192658,-0.198460,0.295612,0.288584,-0.670668,-0.616066,93.796223,-2.346433,-131.240307
46305,NaN,0.347142,9.733299,-0.700551,0.069660,-0.002149,-0.048288,0.023963,0.201707,-0.186283,0.295668,0.289835,-0.670200,-0.615961,93.807082,-2.249983,-131.121607
46306,NaN,0.239922,9.727060,-0.786826,0.193424,0.011158,-0.052831,0.022737,0.190711,-0.174935,0.295739,0.291028,-0.669754,-0.615850,93.817694,-2.159708,-131.006752
46307,NaN,0.047136,9.728978,-0.878870,0.378319,0.087507,-0.051701,0.022945,0.183773,-0.153525,0.295836,0.292112,-0.669355,-0.615724,93.828763,-2.081345,-130.899541
46308,NaN,0.087189,9.720360,-0.978719,0.418020,-0.016489,-0.051752,0.014892,0.170024,-0.147684,0.295973,0.293181,-0.668934,-0.615608,93.835697,-2.006001,-130.790180
46309,NaN,0.070531,9.767950,-0.943491,0.392477,0.014195,-0.006885,0.002709,0.157403,-0.132494,0.296076,0.294082,-0.668541,-0.615555,93.835996,-1.938673,-130.698852
46310,NaN,0.157109,9.801884,-0.826211,0.238979,0.019219,0.022289,0.000793,0.143076,-0.121487,0.296222,0.294958,-0.668154,-0.615486,93.835641,-1.877288,-130.606026
46311,NaN,0.269379,9.858448,-0.751376,0.100750,-0.021328,0.077485,0.000640,0.129835,-0.116574,0.296284,0.295718,-0.667817,-0.615456,93.835481,-1.818004,-130.531084
46312,NaN,0.294521,9.923298,-0.681905,0.023668,0.001261,0.138344,-0.007978,0.123429,-0.106807,0.296369,0.296412,-0.667479,-0.615449,93.830652,-1.764261,-130.460151
46313,NaN,0.272991,9.944580,-0.676689,0.027894,0.014794,0.158577,-0.013031,0.116821,-0.101557,0.296454,0.297061,-0.667141,-0.615461,93.823044,-1.713053,-130.393240
46314,NaN,0.268907,9.966006,-0.618707,-0.018271,0.049133,0.175988,-0.025076,0.110958,-0.090401,0.296572,0.297636,-0.666792,-0.615504,93.808763,-1.668188,-130.330048
46315,NaN,0.133628,9.966902,-0.552229,0.015419,0.187795,0.168617,-0.024169,0.092921,-0.082707,0.296651,0.298132,-0.666483,-0.615561,93.795294,-1.626820,-130.277548
46316,NaN,-0.026330,9.925374,-0.649333,0.191906,0.238162,0.129235,-0.030759,0.063838,-0.064021,0.296703,0.298466,-0.666225,-0.615654,93.778632,-1.595217,-130.242330
46317,NaN,0.036956,9.902390,-0.771200,0.243765,0.104506,0.116215,-0.032396,0.047642,-0.049959,0.296744,0.298701,-0.666007,-0.615756,93.761259,-1.570837,-130.216986
46318,NaN,0.122805,9.910417,-0.681846,0.120032,0.092355,0.120762,-0.035285,0.035681,-0.033958,0.296800,0.298841,-0.665821,-0.615861,93.742518,-1.555329,-130.199016
46319,NaN,0.158025,9.922185,-0.621394,0.052070,0.101320,0.129540,-0.038888,0.026845,-0.019273,0.296877,0.298901,-0.665659,-0.615971,93.721794,-1.547700,-130.186728
46320,NaN,0.169178,9.901590,-0.621326,0.047863,0.088889,0.109306,-0.038538,0.026855,-0.003353,0.297003,0.298907,-0.665523,-0.616055,93.701358,-1.549351,-130.174962
46321,NaN,0.278162,9.905613,-0.606037,-0.030874,0.014032,0.115287,-0.040335,0.036255,0.008620,0.297198,0.298900,-0.665384,-0.616113,93.679686,-1.558009,-130.158327
46322,NaN,0.402382,9.894410,-0.617882,-0.097428,-0.090353,0.108269,-0.042574,0.055970,0.012105,0.297475,0.298939,-0.665215,-0.616144,93.656498,-1.569564,-130.130498
46323,NaN,0.372960,9.909774,-0.638179,-0.059215,-0.081032,0.124109,-0.038891,0.073112,0.009425,0.297793,0.299045,-0.665027,-0.616142,93.635068,-1.580012,-130.092802
46324,NaN,0.286474,9.966851,-0.755108,0.088260,-0.087276,0.186061,-0.038715,0.090621,0.009687,0.298172,0.299204,-0.664814,-0.616111,93.613527,-1.591420,-130.045055
46325,NaN,0.290118,9.972862,-0.773965,0.104666,-0.103310,0.193288,-0.051191,0.110520,0.001244,0.298608,0.299434,-0.664520,-0.616106,93.584433,-1.598505,-129.985656
46326,NaN,0.239534,9.927770,-0.683361,0.074197,-0.011769,0.141173,-0.058819,0.127658,0.000834,0.299112,0.299706,-0.664176,-0.616099,93.550757,-1.606121,-129.916385
46327,NaN,0.257381,9.869363,-0.613536,0.016512,0.012477,0.079054,-0.068052,0.133560,-0.002494,0.299638,0.299994,-0.663790,-0.616120,93.511613,-1.611812,-129.843665
46328,NaN,0.353146,9.771054,-0.545270,-0.089022,-0.026934,-0.020503,-0.059930,0.128237,-0.007195,0.300120,0.300293,-0.663429,-0.616128,93.477283,-1.614760,-129.773768
46329,NaN,0.295341,9.772976,-0.419099,-0.144994,0.094830,-0.027805,-0.043984,0.116835,-0.010300,0.300530,0.300591,-0.663129,-0.616105,93.452183,-1.615322,-129.710340
46330,NaN,0.283915,9.784853,-0.513899,-0.061783,0.041435,-0.010518,-0.042926,0.099139,-0.005749,0.300895,0.300821,-0.662867,-0.616098,93.428047,-1.618045,-129.657156
46331,NaN,0.334233,9.766244,-0.560091,-0.055030,-0.029527,-0.024887,-0.024942,0.084594,-0.004219,0.301188,0.301028,-0.662683,-0.616051,93.414381,-1.620934,-129.612383
46332,NaN,0.403523,9.826843,-0.510086,-0.137507,-0.048683,0.034576,-0.020655,0.087743,-0.008307,0.301474,0.301265,-0.662502,-0.615991,93.403176,-1.621769,-129.565609
46333,NaN,0.482171,9.836871,-0.623314,-0.099152,-0.181699,0.053528,-0.015490,0.105270,-0.010792,0.301801,0.301572,-0.662306,-0.615891,93.394583,-1.621585,-129.508781
46334,NaN,0.557657,9.791463,-0.598754,-0.163435,-0.228228,0.008893,-0.016749,0.129061,-0.013159,0.302202,0.301957,-0.662067,-0.615763,93.384944,-1.621037,-129.438217
46335,NaN,0.499144,9.769168,-0.658677,-0.077905,-0.223870,-0.011491,-0.019325,0.152864,-0.018832,0.302668,0.302431,-0.661774,-0.615616,93.373378,-1.617842,-129.353884
46336,NaN,0.347272,9.801688,-0.690431,0.043376,-0.126216,0.018517,-0.016797,0.161544,-0.019316,0.303158,0.302936,-0.661476,-0.615447,93.363189,-1.614843,-129.264523
46337,NaN,0.280238,9.820777,-0.691356,0.087019,-0.075014,0.035712,-0.012062,0.161003,-0.017405,0.303643,0.303441,-0.661195,-0.615261,93.355662,-1.612708,-129.175582
46338,NaN,0.286133,9.862096,-0.577680,-0.005240,-0.006728,0.070452,-0.011105,0.158443,-0.020809,0.304109,0.303950,-0.660916,-0.615079,93.348793,-1.608724,-129.087939
46339,NaN,0.288656,9.897608,-0.440245,-0.113897,0.078122,0.097949,-0.015841,0.152550,-0.021885,0.304558,0.304438,-0.660628,-0.614924,93.339245,-1.603720,-129.003687
46340,NaN,0.333296,9.808699,-0.429210,-0.147256,0.043216,0.009854,-0.019983,0.149785,-0.020988,0.305008,0.304907,-0.660334,-0.614785,93.327436,-1.599315,-128.920990
46341,NaN,0.238805,9.775212,-0.547567,0.006248,0.038991,-0.019319,-0.018857,0.142951,-0.013677,0.305455,0.305333,-0.660064,-0.614642,93.316331,-1.598654,-128.842505
46342,NaN,0.120867,9.798055,-0.579836,0.105743,0.111274,0.002053,-0.008959,0.133924,-0.008978,0.305872,0.305731,-0.659846,-0.614471,93.311104,-1.600570,-128.769296
46343,NaN,0.039708,9.831945,-0.555546,0.137276,0.192064,0.032190,0.000146,0.101819,0.001190,0.306200,0.306010,-0.659719,-0.614305,93.311554,-1.607038,-128.714840
46344,NaN,0.177660,9.923426,-0.617367,0.097304,0.052448,0.130897,0.000920,0.079306,0.005249,0.306466,0.306208,-0.659636,-0.614163,93.312865,-1.615276,-128.673353
46345,NaN,0.314239,9.891491,-0.633535,0.026325,-0.064906,0.103804,-0.002440,0.080042,0.005007,0.306737,0.306404,-0.659540,-0.614033,93.312174,-1.623207,-128.631484
46346,NaN,0.389723,9.904829,-0.620157,-0.030700,-0.114264,0.118481,-0.006728,0.088005,-0.005712,0.307009,0.306652,-0.659403,-0.613919,93.308941,-1.625464,-128.584661
46347,NaN,0.441625,9.827485,-0.657065,-0.031334,-0.182399,0.044898,-0.006381,0.099454,-0.007673,0.307311,0.306944,-0.659246,-0.613791,93.305659,-1.626780,-128.531264
46348,NaN,0.458858,9.847853,-0.547525,-0.127814,-0.127051,0.059398,-0.002535,0.123472,-0.014363,0.307668,0.307336,-0.659054,-0.613623,93.304245,-1.625255,-128.463854
46349,NaN,0.389176,9.802168,-0.516295,-0.107814,-0.056433,0.010026,0.000682,0.131252,-0.019636,0.308027,0.307775,-0.658851,-0.613441,93.304486,-1.620776,-128.391866
46350,NaN,0.362780,9.814506,-0.338701,-0.231577,0.074020,0.011352,0.002348,0.132011,-0.022607,0.308378,0.308228,-0.658647,-0.613256,93.305733,-1.614819,-128.319296
46351,NaN,0.334009,9.835617,-0.387658,-0.176972,0.066715,0.034415,0.005445,0.120029,-0.021990,0.308686,0.308647,-0.658472,-0.613078,93.308897,-1.608626,-128.253652
46352,NaN,0.318270,9.777105,-0.429611,-0.133902,0.049237,-0.022014,0.007470,0.106198,-0.021662,0.308947,0.309025,-0.658325,-0.612914,93.313506,-1.602364,-128.195887
46353,NaN,0.257117,9.748745,-0.470710,-0.064740,0.070062,-0.049665,0.016155,0.103827,-0.022675,0.309182,0.309414,-0.658206,-0.612727,93.323078,-1.595254,-128.139491
46354,NaN,0.158520,9.797463,-0.422072,-0.045265,0.180509,-0.006622,0.011794,0.081095,-0.014323,0.309376,0.309698,-0.658122,-0.612576,93.330574,-1.592372,-128.096332
46355,NaN,0.238623,9.822452,-0.457367,-0.069569,0.097973,0.022568,0.024699,0.062116,-0.013444,0.309490,0.309941,-0.658108,-0.612411,93.345721,-1.589172,-128.064108
46356,NaN,0.220439,9.816785,-0.488091,-0.035587,0.094239,0.018179,0.010336,0.045991,-0.002188,0.309608,0.310075,-0.658092,-0.612300,93.352953,-1.592067,-128.041438
46357,NaN,0.181032,9.858490,-0.535183,0.023273,0.099939,0.061445,0.019500,0.031449,-0.007574,0.309646,0.310197,-0.658119,-0.612190,93.365613,-1.591205,-128.026958
46358,NaN,0.286454,9.841856,-0.577557,-0.009559,-0.008622,0.050253,0.020526,0.020183,-0.003859,0.309658,0.310273,-0.658172,-0.612088,93.379094,-1.592285,-128.019007
46359,NaN,0.348558,9.876002,-0.562536,-0.062382,-0.044922,0.085163,0.019527,0.024987,-0.006650,0.309678,0.310372,-0.658210,-0.611988,93.391873,-1.591741,-128.008256
46360,NaN,0.449443,9.868444,-0.501645,-0.174063,-0.086338,0.076806,0.019304,0.033304,-0.010597,0.309714,0.310509,-0.658228,-0.611880,93.404436,-1.589416,-127.992566
46361,NaN,0.493824,9.838260,-0.504446,-0.200212,-0.124133,0.048052,0.016502,0.045862,-0.015957,0.309779,0.310698,-0.658210,-0.611771,93.415143,-1.584264,-127.969553
46362,NaN,0.469240,9.806202,-0.567430,-0.136536,-0.145231,0.019100,0.013908,0.058799,-0.024450,0.309865,0.310950,-0.658151,-0.611662,93.424199,-1.574898,-127.938805
46363,NaN,0.484500,9.811911,-0.539249,-0.170534,-0.140361,0.023488,0.012312,0.066932,-0.030155,0.309962,0.311244,-0.658065,-0.611556,93.432169,-1.562355,-127.903249
46364,NaN,0.457429,9.794818,-0.521879,-0.169303,-0.110914,0.004598,0.003812,0.078376,-0.039400,0.310083,0.311589,-0.657922,-0.611474,93.435135,-1.545120,-127.860780
46365,NaN,0.250703,9.868344,-0.659156,0.061347,-0.029242,0.080590,0.008024,0.079123,-0.035724,0.310210,0.311931,-0.657795,-0.611371,93.440476,-1.529817,-127.818056
46366,NaN,0.076677,9.861167,-1.066452,0.487161,-0.141947,0.093287,0.018087,0.076945,-0.034947,0.310317,0.312279,-0.657704,-0.611237,93.451669,-1.515091,-127.776558
46367,NaN,0.170925,10.001150,-0.868067,0.265152,-0.087802,0.223634,0.021370,0.089150,-0.036568,0.310453,0.312676,-0.657601,-0.611076,93.464527,-1.499667,-127.728064
46368,NaN,0.214176,10.077895,-0.463847,-0.086490,0.128084,0.276966,0.017092,0.092643,-0.035064,0.310613,0.313071,-0.657482,-0.610920,93.474948,-1.485430,-127.677572
46369,NaN,0.253448,10.006481,-0.577494,-0.020519,0.022328,0.213602,-0.001716,0.084071,-0.031481,0.310784,0.313399,-0.657324,-0.610835,93.474682,-1.472753,-127.632156
46370,NaN,0.021642,9.836372,-0.550046,0.103492,0.211133,0.036269,-0.003451,0.059317,-0.027807,0.310889,0.313636,-0.657205,-0.610787,93.473848,-1.461515,-127.600988
46371,NaN,0.120273,9.955043,-0.734734,0.184543,0.026253,0.168416,0.000204,0.037347,-0.021698,0.310933,0.313793,-0.657141,-0.610754,93.475388,-1.452810,-127.582642
46372,NaN,0.210211,9.859463,-0.871483,0.240704,-0.134468,0.083608,-0.010563,0.044855,-0.014066,0.311044,0.313930,-0.657045,-0.610731,93.470704,-1.448922,-127.560218
46373,NaN,0.253653,9.923988,-0.746425,0.113338,-0.090459,0.141508,-0.013037,0.049284,-0.017063,0.311162,0.314087,-0.656928,-0.610715,93.464493,-1.443279,-127.535206
46374,NaN,0.297786,9.791529,-0.643752,0.010182,-0.072105,0.004228,-0.021341,0.061058,-0.013536,0.311344,0.314255,-0.656775,-0.610701,93.453412,-1.440247,-127.503530
46375,NaN,0.316636,9.759312,-0.545148,-0.077149,-0.030451,-0.033386,-0.019173,0.069186,-0.009301,0.311561,0.314437,-0.656621,-0.610662,93.443409,-1.439721,-127.467401
46376,NaN,0.243248,9.766323,-0.501446,-0.066084,0.053924,-0.030847,-0.014791,0.068084,-0.002585,0.311789,0.314601,-0.656493,-0.610598,93.435990,-1.443184,-127.432084
46377,NaN,0.189044,9.822901,-0.519460,-0.019303,0.089250,0.025332,-0.011438,0.058665,0.004777,0.312002,0.314717,-0.656402,-0.610528,93.430578,-1.450339,-127.402458
46378,NaN,0.204945,9.866785,-0.555947,0.000059,0.057409,0.071706,-0.012315,0.044072,0.004792,0.312170,0.314787,-0.656331,-0.610483,93.424919,-1.457193,-127.381137
46379,NaN,0.211568,9.834500,-0.510982,-0.036935,0.078111,0.036972,-0.013095,0.031857,0.013038,0.312323,0.314792,-0.656289,-0.610447,93.418948,-1.468151,-127.367129
46380,NaN,0.266949,9.836775,-0.501244,-0.076453,0.041146,0.040084,-0.010514,0.027618,0.014471,0.312464,0.314782,-0.656264,-0.610407,93.414569,-1.479973,-127.355553
46381,NaN,0.301732,9.827520,-0.497743,-0.098369,0.016394,0.031549,-0.006052,0.022278,0.015990,0.312583,0.314759,-0.656263,-0.610358,93.412772,-1.492289,-127.347125
46382,NaN,0.343587,9.829841,-0.541411,-0.087581,-0.041542,0.037570,-0.005353,0.019137,0.017338,0.312697,0.314722,-0.656272,-0.610310,93.411473,-1.505459,-127.340495
46383,NaN,0.291424,9.827611,-0.549135,-0.048080,-0.003472,0.034449,-0.010070,0.019677,0.015300,0.312812,0.314687,-0.656262,-0.610280,93.407409,-1.517293,-127.333530
46384,NaN,0.254519,9.869245,-0.594472,0.010789,0.002223,0.077714,-0.007860,0.010444,0.017784,0.312902,0.314619,-0.656277,-0.610252,93.404799,-1.530425,-127.331893
46385,NaN,0.226737,9.884335,-0.619665,0.049018,0.011440,0.093520,-0.010074,0.000087,0.019686,0.312967,0.314509,-0.656304,-0.610246,93.401034,-1.544100,-127.336285
46386,NaN,0.207873,9.872911,-0.624182,0.066636,0.024240,0.081865,-0.018737,-0.014907,0.018841,0.312994,0.314343,-0.656328,-0.610293,93.392584,-1.556972,-127.349179
46387,NaN,0.254661,9.901731,-0.633925,0.047709,-0.016297,0.112454,-0.019885,-0.023414,0.021042,0.313001,0.314142,-0.656364,-0.610354,93.383569,-1.570628,-127.367060
46388,NaN,0.338671,9.868290,-0.653167,0.015937,-0.095972,0.082514,-0.027551,-0.023619,0.018617,0.313012,0.313936,-0.656374,-0.610443,93.370213,-1.583081,-127.384928
46389,NaN,0.341140,9.809600,-0.639697,0.008627,-0.092712,0.023225,-0.025675,-0.013832,0.021408,0.313061,0.313754,-0.656378,-0.610507,93.357736,-1.597276,-127.397332
46390,NaN,0.415705,9.837984,-0.543302,-0.110912,-0.091198,0.048007,-0.022906,-0.000338,0.021483,0.313150,0.313617,-0.656370,-0.610540,93.346679,-1.612158,-127.401971
46391,NaN,0.452956,9.814000,-0.617975,-0.070498,-0.166620,0.029514,-0.023668,0.015740,0.018263,0.313283,0.313539,-0.656329,-0.610557,93.334877,-1.625546,-127.397343
46392,NaN,0.391934,9.838572,-0.644097,-0.010346,-0.132097,0.053843,-0.025905,0.031445,0.014850,0.313461,0.313515,-0.656252,-0.610560,93.321582,-1.637695,-127.383568
46393,NaN,0.291859,9.881359,-0.569550,-0.006968,-0.005018,0.089371,-0.027994,0.040874,0.010808,0.313661,0.313532,-0.656146,-0.610563,93.306880,-1.647649,-127.364304
46394,NaN,0.284047,9.884420,-0.440334,-0.101989,0.079487,0.084767,-0.024755,0.039955,0.012648,0.313858,0.313543,-0.656056,-0.610553,93.294096,-1.658812,-127.345576
46395,NaN,0.204143,9.859259,-0.405725,-0.077487,0.162981,0.055378,-0.019804,0.024613,0.019570,0.314018,0.313494,-0.656014,-0.610540,93.284357,-1.673235,-127.335902
46396,NaN,0.178418,9.918701,-0.520355,0.030393,0.118810,0.120499,-0.017545,0.002437,0.023910,0.314116,0.313366,-0.656022,-0.610547,93.276330,-1.689607,-127.339019
46397,NaN,0.174772,9.871948,-0.607812,0.106055,0.067786,0.078697,-0.011992,-0.007532,0.026663,0.314179,0.313207,-0.656067,-0.610548,93.271614,-1.707034,-127.347969
46398,NaN,0.338527,9.936907,-0.591476,-0.005348,-0.046805,0.147451,-0.015057,-0.008468,0.027835,0.314250,0.313037,-0.656105,-0.610558,93.265212,-1.725287,-127.357446
46399,NaN,0.359388,9.824806,-0.538878,-0.053898,-0.036462,0.033232,-0.018036,-0.002744,0.026512,0.314338,0.312884,-0.656123,-0.610572,93.256955,-1.742785,-127.363647
46400,NaN,0.050997,9.688980,-0.489672,0.102301,0.232037,-0.114522,-0.043167,-0.019901,0.050781,0.314484,0.312559,-0.656130,-0.610656,93.234675,-1.773797,-127.380402
46401,NaN,-0.142749,9.489664,-0.518894,0.250755,0.360848,-0.317938,0.051705,-0.045349,0.047055,0.314387,0.312318,-0.656460,-0.610475,93.267164,-1.801663,-127.411651
46402,NaN,0.805548,10.458891,0.142403,-0.874435,0.071731,0.641394,-0.007810,-0.069682,0.052588,0.314320,0.311891,-0.656655,-0.610517,93.266061,-1.832073,-127.456974
46403,NaN,0.371269,9.707523,-0.898011,0.238303,-0.255547,-0.062909,-0.025240,-0.071507,0.040982,0.314238,0.311469,-0.656782,-0.610639,93.254970,-1.855608,-127.503001
46404,NaN,0.327187,9.811187,-0.826458,0.209482,-0.168589,0.035011,-0.017689,-0.054156,0.046750,0.314219,0.311092,-0.656913,-0.610699,93.247947,-1.883200,-127.539243
46405,NaN,0.399883,9.915786,-0.864686,0.196456,-0.240577,0.143915,-0.019675,-0.055412,0.038433,0.314173,0.310737,-0.657027,-0.610781,93.239778,-1.905812,-127.575970
46406,NaN,0.443859,9.741710,-0.873855,0.185299,-0.290514,-0.027861,-0.045656,-0.050227,0.029863,0.314160,0.310384,-0.657041,-0.610953,93.216678,-1.923888,-127.609414
46407,NaN,0.518695,9.793621,-0.922231,0.181299,-0.376445,0.029060,-0.045128,-0.036329,0.020197,0.314160,0.310106,-0.657018,-0.611117,93.193560,-1.936704,-127.634620
46408,NaN,0.549349,9.872188,-0.766537,0.042006,-0.302296,0.099744,-0.050716,-0.006941,0.014698,0.314250,0.309927,-0.656925,-0.611263,93.166719,-1.947507,-127.642774
46409,NaN,0.432379,9.827049,-0.561142,-0.043366,-0.089389,0.039361,-0.057393,0.003252,0.007090,0.314360,0.309794,-0.656782,-0.611427,93.135798,-1.954095,-127.644897
46410,NaN,0.399705,9.871458,-0.422323,-0.129703,0.021369,0.075008,-0.051664,0.006593,0.004846,0.314466,0.309688,-0.656649,-0.611569,93.108155,-1.959692,-127.644991
46411,NaN,0.434872,9.882390,-0.358561,-0.197641,0.030804,0.083741,-0.050076,0.007157,0.003474,0.314565,0.309590,-0.656517,-0.611709,93.081345,-1.964334,-127.644760
46412,NaN,0.401721,9.892070,-0.356364,-0.175695,0.056659,0.092228,-0.043495,0.009797,-0.005126,0.314639,0.309539,-0.656389,-0.611835,93.058296,-1.964336,-127.642724
46413,NaN,0.406386,9.918394,-0.319111,-0.205366,0.074743,0.116751,-0.045343,-0.002032,-0.003381,0.314680,0.309443,-0.656275,-0.611984,93.034371,-1.964776,-127.647542
46414,NaN,0.279129,9.889492,-0.416948,-0.046243,0.111616,0.088788,-0.048041,-0.015319,-0.005070,0.314678,0.309307,-0.656172,-0.612164,93.009210,-1.964045,-127.659878
46415,NaN,0.237233,9.832811,-0.560174,0.097281,0.051567,0.038309,-0.047322,-0.031404,-0.001918,0.314630,0.309114,-0.656101,-0.612363,92.984730,-1.964446,-127.681555
46416,NaN,0.271586,9.868339,-0.643081,0.144875,-0.026565,0.079215,-0.052364,-0.037893,0.001643,0.314581,0.308880,-0.656031,-0.612581,92.957542,-1.966898,-127.707023
46417,NaN,0.344665,9.861664,-0.679756,0.133560,-0.109810,0.076872,-0.058097,-0.041233,0.003869,0.314536,0.308620,-0.655951,-0.612821,92.927089,-1.970342,-127.734497
46418,NaN,0.401171,9.732004,-0.724568,0.141655,-0.192208,-0.048425,-0.063171,-0.034781,0.005614,0.314526,0.308366,-0.655848,-0.613064,92.893648,-1.975169,-127.758255
46419,NaN,0.453737,9.714201,-0.766315,0.147971,-0.263285,-0.062426,-0.068519,-0.033128,0.006819,0.314532,0.308105,-0.655728,-0.613320,92.857070,-1.980566,-127.781169
46420,NaN,0.502335,9.749342,-0.794777,0.145259,-0.320331,-0.024431,-0.066757,-0.012754,-0.000379,0.314582,0.307932,-0.655570,-0.613550,92.821158,-1.982626,-127.792167
46421,NaN,0.493183,9.810546,-0.671980,0.057631,-0.238338,0.030151,-0.066583,0.007056,-0.006202,0.314676,0.307840,-0.655372,-0.613759,92.784882,-1.981727,-127.791699
46422,NaN,0.468036,9.886313,-0.522108,-0.041969,-0.126570,0.097563,-0.064095,0.035154,-0.009285,0.314851,0.307848,-0.655134,-0.613920,92.749550,-1.980036,-127.775034
46423,NaN,0.415340,9.879500,-0.321456,-0.163793,0.033243,0.079351,-0.058895,0.046251,-0.010732,0.315049,0.307903,-0.654891,-0.614050,92.716900,-1.977615,-127.751998
46424,NaN,0.292626,9.910733,-0.249132,-0.142483,0.172591,0.102968,-0.051495,0.041622,-0.008869,0.315226,0.307949,-0.654681,-0.614160,92.688644,-1.976312,-127.731610
46425,NaN,0.171984,9.928149,-0.257756,-0.058923,0.261069,0.116690,-0.037206,0.033634,-0.003452,0.315372,0.307976,-0.654536,-0.614227,92.668678,-1.977698,-127.715998
46426,NaN,0.192586,9.939498,-0.248467,-0.076567,0.249496,0.128356,-0.027796,0.021621,-0.002175,0.315468,0.307976,-0.654441,-0.614278,92.654402,-1.979674,-127.707238
46427,NaN,0.248070,10.020008,-0.191575,-0.154861,0.244243,0.208049,-0.015191,0.006390,0.007064,0.315522,0.307919,-0.654422,-0.614299,92.647597,-1.986349,-127.707506
46428,NaN,0.328963,10.025501,-0.278917,-0.133606,0.127788,0.220383,-0.012462,0.006725,0.010579,0.315586,0.307855,-0.654417,-0.614303,92.642404,-1.995233,-127.707635
46429,NaN,0.479528,10.018087,-0.384937,-0.140034,-0.055836,0.223122,-0.013056,0.016551,0.006805,0.315669,0.307834,-0.654389,-0.614301,92.636619,-2.002028,-127.702076
46430,NaN,0.413112,9.925074,-0.571098,0.050733,-0.121445,0.136513,-0.008496,0.035196,0.007732,0.315811,0.307874,-0.654347,-0.614254,92.633128,-2.010029,-127.685814
46431,NaN,0.330799,9.880073,-0.594629,0.121349,-0.072292,0.089782,-0.001013,0.043708,0.006267,0.315963,0.307957,-0.654312,-0.614171,92.633695,-2.017230,-127.664687
46432,NaN,0.275354,9.720937,-0.695602,0.238293,-0.097589,-0.066407,-0.000454,0.046828,0.008260,0.316132,0.308043,-0.654277,-0.614078,92.634567,-2.025845,-127.641786
46433,NaN,0.300030,9.830611,-0.586668,0.136030,-0.043337,0.038948,0.001151,0.040924,0.007783,0.316276,0.308115,-0.654255,-0.613991,92.636426,-2.033841,-127.622293
46434,NaN,0.391523,9.828894,-0.598964,0.090686,-0.122042,0.041048,-0.000729,0.042034,0.007701,0.316428,0.308188,-0.654226,-0.613907,92.637233,-2.042015,-127.602138
46435,NaN,0.419855,9.826817,-0.493045,-0.009827,-0.079216,0.035121,-0.001863,0.042269,0.002817,0.316566,0.308277,-0.654185,-0.613835,92.637328,-2.047205,-127.581744
46436,NaN,0.501538,9.826458,-0.378545,-0.149972,-0.073730,0.032422,-0.000444,0.044716,-0.001551,0.316697,0.308388,-0.654138,-0.613761,92.638230,-2.050152,-127.559796
46437,NaN,0.475806,9.789327,-0.417589,-0.102700,-0.078638,-0.003765,0.003168,0.055246,-0.001613,0.316857,0.308539,-0.654085,-0.613660,92.640935,-2.053150,-127.531853
46438,NaN,0.493387,9.820009,-0.534640,-0.021276,-0.161279,0.032890,0.007528,0.064902,-0.006476,0.317027,0.308741,-0.654023,-0.613536,92.645993,-2.053801,-127.498184
46439,NaN,0.448738,9.757985,-0.660276,0.105854,-0.204971,-0.024819,0.010837,0.083587,-0.008877,0.317245,0.309015,-0.653937,-0.613377,92.652502,-2.053396,-127.453818
46440,NaN,0.561597,9.866000,-0.564627,-0.041753,-0.229845,0.082644,0.021957,0.100516,-0.020199,0.317467,0.309394,-0.653842,-0.613173,92.665092,-2.047160,-127.399415
46441,NaN,0.471828,9.854037,-0.633499,0.065780,-0.200949,0.070697,0.011971,0.115897,-0.024423,0.317741,0.309819,-0.653684,-0.612985,92.671585,-2.038734,-127.336129
46442,NaN,0.378001,9.751498,-0.521839,0.034410,-0.065070,-0.040201,0.002783,0.117494,-0.017299,0.318057,0.310210,-0.653507,-0.612812,92.672845,-2.034630,-127.272072
46443,NaN,0.271036,9.649914,-0.463176,0.053277,0.049602,-0.148137,0.009650,0.114143,-0.013731,0.318361,0.310591,-0.653361,-0.612617,92.678064,-2.032285,-127.210077
46444,NaN,0.162105,9.620892,-0.335088,0.017257,0.212655,-0.186961,0.002221,0.079770,0.005661,0.318625,0.310791,-0.653277,-0.612467,92.679803,-2.040313,-127.168237
46445,NaN,0.198980,9.656603,-0.422919,0.064697,0.134467,-0.145932,0.014681,0.057858,0.017444,0.318833,0.310905,-0.653285,-0.612293,92.689071,-2.054310,-127.139312
46446,NaN,0.298642,9.720351,-0.290371,-0.102118,0.141996,-0.084988,0.024572,0.040208,0.027813,0.319000,0.310947,-0.653367,-0.612097,92.704437,-2.073966,-127.120751
46447,NaN,0.369565,9.858636,-0.194650,-0.223392,0.155550,0.051037,0.026663,0.028670,0.036378,0.319152,0.310929,-0.653487,-0.611899,92.721178,-2.098021,-127.109062
46448,NaN,0.407453,9.992163,-0.360607,-0.115530,0.038028,0.193540,0.018345,0.018711,0.034376,0.319279,0.310874,-0.653594,-0.611745,92.733418,-2.120847,-127.102979
46449,NaN,0.405736,10.024976,-0.405267,-0.078666,0.018400,0.228352,0.011855,0.016194,0.026996,0.319385,0.310825,-0.653674,-0.611630,92.741923,-2.139197,-127.098188
46450,NaN,0.436238,10.107184,-0.457257,-0.056533,-0.028970,0.314036,0.017295,0.016815,0.019692,0.319463,0.310810,-0.653759,-0.611507,92.753572,-2.153576,-127.092807
46451,NaN,0.484684,10.057503,-0.336248,-0.181947,0.004403,0.260456,0.010309,0.015524,-0.000377,0.319484,0.310846,-0.653792,-0.611441,92.761175,-2.156244,-127.087652
46452,NaN,0.535180,9.955103,-0.228274,-0.298342,0.023702,0.154912,0.015289,0.015294,-0.015801,0.319452,0.310939,-0.653818,-0.611383,92.771675,-2.150266,-127.082155
46453,NaN,0.599152,9.818248,-0.203894,-0.356929,-0.021108,0.019438,0.019050,0.008618,-0.033645,0.319336,0.311077,-0.653837,-0.611353,92.784401,-2.133705,-127.080030
46454,NaN,0.442514,9.727464,-0.203543,-0.265734,0.097568,-0.077152,0.032630,-0.000682,-0.047480,0.319127,0.311252,-0.653892,-0.611314,92.805137,-2.109157,-127.082789
46455,NaN,0.472640,9.698996,-0.081268,-0.386792,0.144069,-0.110618,0.039695,-0.012445,-0.054330,0.318847,0.311426,-0.653976,-0.611282,92.830112,-2.080168,-127.092132
46456,NaN,0.322894,9.699066,-0.083408,-0.301642,0.261201,-0.116097,0.051644,-0.033125,-0.055201,0.318479,0.311558,-0.654129,-0.611244,92.862392,-2.050286,-127.113251
46457,NaN,0.180069,9.691103,-0.189476,-0.138085,0.310651,-0.124023,0.057668,-0.066094,-0.045274,0.318022,0.311567,-0.654367,-0.611222,92.898756,-2.024924,-127.153542
46458,NaN,0.063170,9.779124,-0.267069,-0.014525,0.363158,-0.036467,0.062506,-0.101099,-0.034101,0.317480,0.311439,-0.654693,-0.611220,92.938611,-2.005095,-127.214125
46459,NaN,0.042750,9.832567,-0.313476,0.026689,0.356625,0.018466,0.068865,-0.148672,-0.020908,0.316810,0.311133,-0.655134,-0.611250,92.983035,-1.991174,-127.302380
46460,NaN,0.219428,9.847977,-0.467282,0.034767,0.127607,0.047924,0.073737,-0.179246,-0.006097,0.316079,0.310692,-0.655661,-0.611288,93.030876,-1.984927,-127.408540
46461,NaN,0.475829,9.843626,-0.564173,-0.051464,-0.130654,0.057569,0.081427,-0.170314,-0.010748,0.315349,0.310306,-0.656190,-0.611294,93.082908,-1.976011,-127.509471
46462,NaN,0.802748,9.929808,-0.781517,-0.088761,-0.512012,0.166602,0.092106,-0.123683,-0.017484,0.314790,0.310158,-0.656639,-0.611175,93.140138,-1.964775,-127.573438
46463,NaN,0.839015,10.049504,-0.856453,-0.063782,-0.575001,0.291534,0.087510,-0.046940,-0.030670,0.314394,0.310224,-0.656960,-0.611000,93.193180,-1.948173,-127.603098
46464,NaN,0.670813,10.140735,-0.967790,0.115709,-0.501816,0.383189,0.070386,0.008204,-0.052254,0.314142,0.310501,-0.657109,-0.610829,93.235329,-1.921169,-127.600447
46465,NaN,0.355205,10.211118,-1.129780,0.426249,-0.346523,0.452191,0.051447,0.045031,-0.071175,0.313981,0.310924,-0.657112,-0.610694,93.265889,-1.884341,-127.576125
46466,NaN,0.114600,10.231881,-1.063060,0.511052,-0.115916,0.461552,0.053439,0.070200,-0.077929,0.313879,0.311448,-0.657071,-0.610522,93.297162,-1.844688,-127.537117
46467,NaN,0.278762,10.231490,-0.964911,0.325405,-0.189415,0.461084,0.030114,0.088646,-0.084910,0.313853,0.312016,-0.656919,-0.610410,93.314723,-1.801468,-127.487346
46468,NaN,0.229716,9.904910,-0.699467,0.147088,-0.013316,0.118448,0.017917,0.102443,-0.080024,0.313906,0.312589,-0.656715,-0.610308,93.325133,-1.761702,-127.429770
46469,NaN,0.145337,9.664554,-0.570113,0.097053,0.114244,-0.131402,0.021337,0.099782,-0.060800,0.314003,0.313098,-0.656556,-0.610169,93.337561,-1.732666,-127.374413
46470,NaN,-0.003792,9.504991,-0.660289,0.259462,0.167502,-0.289795,0.026898,0.085633,-0.032945,0.314131,0.313479,-0.656480,-0.609989,93.353504,-1.719303,-127.328048
46471,NaN,0.033377,9.459528,-0.414399,0.039488,0.285252,-0.348408,0.040596,0.057274,-0.000867,0.314241,0.313692,-0.656539,-0.609759,93.377782,-1.723150,-127.299015
46472,NaN,0.143906,9.563464,-0.299115,-0.124393,0.277487,-0.248298,0.046587,0.015578,0.032210,0.314306,0.313677,-0.656735,-0.609522,93.406285,-1.744706,-127.294934
46473,NaN,0.247902,9.621356,-0.654363,0.092997,-0.010281,-0.166373,0.027082,-0.020243,0.050353,0.314339,0.313463,-0.656956,-0.609378,93.424216,-1.775227,-127.312009
46474,NaN,0.393448,9.757449,-0.804592,0.121198,-0.202369,-0.017059,0.025368,-0.020999,0.053277,0.314381,0.313234,-0.657177,-0.609235,93.441250,-1.807574,-127.329602
46475,NaN,0.565069,9.813526,-0.894316,0.087552,-0.383885,0.049835,0.024655,-0.007090,0.040254,0.314430,0.313090,-0.657354,-0.609093,93.457559,-1.832762,-127.338821
46476,NaN,0.591999,9.751141,-0.959095,0.124648,-0.443985,-0.007463,0.018626,0.017167,0.021327,0.314512,0.313071,-0.657445,-0.608962,93.470002,-1.848147,-127.333462
46477,NaN,0.651402,9.838177,-0.929946,0.062527,-0.465469,0.079647,0.018498,0.042918,0.003191,0.314622,0.313192,-0.657466,-0.608821,93.481823,-1.853872,-127.312790
46478,NaN,0.758288,9.762998,-0.958816,0.021566,-0.571391,0.009915,0.018666,0.082184,-0.021524,0.314786,0.313512,-0.657387,-0.608656,93.493060,-1.847026,-127.268757
46479,NaN,0.677443,9.740570,-0.748916,-0.098302,-0.382504,-0.027876,0.022323,0.125338,-0.043888,0.315017,0.314044,-0.657216,-0.608447,93.505512,-1.828718,-127.199281
46480,NaN,0.762194,9.636618,-0.659966,-0.220495,-0.405086,-0.134455,0.016840,0.152738,-0.060896,0.315297,0.314705,-0.656959,-0.608238,93.514396,-1.801846,-127.113450
46481,NaN,0.633056,9.447557,-0.473001,-0.289872,-0.204891,-0.338785,0.023184,0.181095,-0.071738,0.315625,0.315499,-0.656658,-0.607981,93.526380,-1.769598,-127.011088
46482,NaN,0.709679,9.393973,-0.168433,-0.582017,-0.090885,-0.408873,0.020130,0.164854,-0.076957,0.315890,0.316255,-0.656365,-0.607767,93.537004,-1.734018,-126.917768
46483,NaN,0.598050,9.395754,-0.211951,-0.486292,-0.032478,-0.408155,0.033959,0.133955,-0.097717,0.315967,0.317007,-0.656129,-0.607590,93.556074,-1.685290,-126.841442
46484,NaN,0.459877,9.538798,-0.149577,-0.466213,0.118638,-0.273762,0.044051,0.090070,-0.110597,0.315846,0.317683,-0.655973,-0.607468,93.581783,-1.627855,-126.789660
46485,NaN,0.333153,9.901898,-0.158734,-0.405206,0.230153,0.085120,0.045117,0.034684,-0.128824,0.315484,0.318253,-0.655878,-0.607460,93.608949,-1.557837,-126.768968
46486,NaN,0.144973,10.194469,-0.321909,-0.183197,0.292357,0.382056,0.025752,-0.008257,-0.151309,0.314946,0.318736,-0.655756,-0.607618,93.625711,-1.473605,-126.771867
46487,NaN,0.062113,10.412267,-0.509712,-0.002172,0.248031,0.609280,0.008481,-0.051784,-0.162437,0.314257,0.319095,-0.655632,-0.607921,93.633146,-1.381243,-126.799374
46488,NaN,0.171875,10.367391,-0.653408,0.038033,0.058756,0.576458,-0.003348,-0.065906,-0.165223,0.313534,0.319402,-0.655489,-0.608287,93.633951,-1.286971,-126.834738
46489,NaN,-0.004450,10.283235,-0.545073,0.051186,0.244805,0.481946,-0.038838,-0.073211,-0.173186,0.312817,0.319657,-0.655236,-0.608795,93.614439,-1.187689,-126.874117
46490,NaN,-0.003066,10.030486,-0.702673,0.178687,0.119538,0.240081,-0.046213,-0.083820,-0.167134,0.312150,0.319904,-0.654959,-0.609305,93.590800,-1.091690,-126.909724
46491,NaN,-0.139500,9.983885,-0.499451,0.094386,0.332565,0.178676,-0.050208,-0.097060,-0.141777,0.311469,0.319965,-0.654757,-0.609838,93.564917,-1.009548,-126.963944
46492,NaN,-0.168247,9.919235,-0.513535,0.121026,0.330947,0.115004,-0.038148,-0.128434,-0.114874,0.310802,0.319917,-0.654657,-0.610311,93.546223,-0.941903,-127.027054
46493,NaN,-0.141317,9.957515,-0.417810,0.023572,0.358492,0.148114,-0.034868,-0.151040,-0.088064,0.310082,0.319661,-0.654671,-0.610796,93.529526,-0.888607,-127.114101
46494,NaN,-0.119432,9.963487,-0.331035,-0.060586,0.384967,0.149393,-0.046568,-0.175850,-0.064739,0.309426,0.319291,-0.654698,-0.611294,93.506305,-0.848005,-127.206131
46495,NaN,-0.026845,9.896492,-0.429044,-0.035141,0.241015,0.090141,-0.065875,-0.194269,-0.046394,0.308741,0.318718,-0.654750,-0.611883,93.472098,-0.817107,-127.319401
46496,NaN,-0.043379,9.717844,-0.621826,0.137957,0.121779,-0.076612,-0.076454,-0.199484,-0.024140,0.308179,0.318095,-0.654785,-0.612453,93.431810,-0.799026,-127.426374
46497,NaN,-0.014446,9.548665,-0.882300,0.337712,-0.072723,-0.229560,-0.067688,-0.190454,0.004875,0.307666,0.317362,-0.654905,-0.612962,93.396491,-0.797729,-127.539250
46498,NaN,0.069640,9.458417,-0.887722,0.298227,-0.149982,-0.318315,-0.045064,-0.185800,0.020509,0.307235,0.316683,-0.655085,-0.613337,93.374112,-0.805780,-127.639941
46499,NaN,0.120464,9.511028,-0.659878,0.088512,-0.050080,-0.278577,-0.038278,-0.184824,0.029273,0.306768,0.315932,-0.655325,-0.613702,93.355637,-0.818724,-127.750419
46500,NaN,0.387372,9.445159,-0.840418,0.073019,-0.373573,-0.329940,-0.013401,-0.180683,0.040256,0.306363,0.315252,-0.655624,-0.613934,93.351421,-0.838314,-127.848875
46501,NaN,0.441861,9.630604,-0.887081,0.071242,-0.434150,-0.141228,-0.009403,-0.166962,0.042080,0.305948,0.314558,-0.655944,-0.614155,93.349415,-0.859210,-127.949561
46502,NaN,0.495761,9.771445,-0.844980,0.000240,-0.441185,-0.002169,0.018454,-0.117768,0.027752,0.305662,0.314161,-0.656224,-0.614202,93.362957,-0.873724,-128.011494
46503,NaN,0.567481,10.027313,-0.898960,-0.011980,-0.516147,0.257597,0.012058,-0.062664,0.004163,0.305438,0.313944,-0.656390,-0.614246,93.372363,-0.876413,-128.051249
46504,NaN,0.495819,10.197147,-0.790365,-0.061234,-0.384356,0.419655,0.009586,0.008193,-0.022134,0.305372,0.314026,-0.656400,-0.614227,93.379718,-0.866649,-128.049514
46505,NaN,0.241581,10.198475,-0.520259,-0.119386,-0.019414,0.401190,0.005092,0.071022,-0.038304,0.305467,0.314348,-0.656274,-0.614149,93.383954,-0.849556,-128.011362
46506,NaN,0.103321,10.134930,-0.124256,-0.346912,0.328053,0.312279,0.023841,0.090846,-0.040692,0.305593,0.314767,-0.656171,-0.613982,93.398761,-0.831975,-127.961678
46507,NaN,0.129373,10.164646,-0.191750,-0.315893,0.266588,0.346184,0.037374,0.072770,-0.046029,0.305620,0.315169,-0.656130,-0.613807,93.421500,-0.810543,-127.922255
46508,NaN,0.208404,10.018613,-0.398819,-0.201725,0.069260,0.213758,0.039064,0.071394,-0.058806,0.305601,0.315610,-0.656075,-0.613647,93.445257,-0.781978,-127.883138
46509,NaN,0.307332,9.884358,-0.600127,-0.105305,-0.140165,0.093089,0.044539,0.072261,-0.067761,0.305548,0.316093,-0.656021,-0.613483,93.472134,-0.748133,-127.843237
46510,NaN,0.356779,9.693994,-0.822878,0.039864,-0.326655,-0.082854,0.052028,0.074493,-0.084365,0.305441,0.316647,-0.655961,-0.613315,93.503292,-0.705121,-127.801467
46511,NaN,0.364408,9.703005,-1.001444,0.166795,-0.443947,-0.062863,0.060454,0.093881,-0.094281,0.305352,0.317307,-0.655881,-0.613104,93.539187,-0.656914,-127.748232
46512,NaN,0.221121,9.672306,-0.983328,0.231587,-0.323577,-0.096156,0.067918,0.116023,-0.102426,0.305301,0.318073,-0.655776,-0.612845,93.579257,-0.605058,-127.681864
46513,NaN,0.114956,9.779810,-0.772695,0.114588,-0.109540,-0.003008,0.062585,0.117692,-0.117253,0.305216,0.318884,-0.655629,-0.612623,93.616327,-0.544643,-127.614123
46514,NaN,-0.020535,9.887121,-0.666985,0.097968,0.061925,0.096248,0.044542,0.105647,-0.126839,0.305092,0.319661,-0.655429,-0.612493,93.643203,-0.478551,-127.552809
46515,NaN,-0.112545,10.000764,-0.425661,-0.052915,0.280650,0.193688,0.045501,0.082928,-0.121119,0.304908,0.320352,-0.655275,-0.612389,93.670789,-0.414725,-127.504744
46516,NaN,-0.257475,9.990106,-0.350807,-0.033838,0.435515,0.177345,0.048339,0.047981,-0.100432,0.304671,0.320872,-0.655216,-0.612298,93.700175,-0.361653,-127.477256
46517,NaN,-0.395129,9.929002,-0.491171,0.155058,0.453513,0.124754,0.044637,0.016961,-0.073604,0.304417,0.321203,-0.655236,-0.612229,93.727589,-0.322593,-127.468609
46518,NaN,-0.400383,9.807631,-0.653575,0.285204,0.352900,0.014377,0.058767,-0.004514,-0.043895,0.304163,0.321392,-0.655380,-0.612102,93.763185,-0.299934,-127.473321
46519,NaN,-0.296921,9.749912,-0.608189,0.182140,0.297992,-0.045556,0.076330,-0.015384,-0.014332,0.303934,0.321479,-0.655641,-0.611891,93.808872,-0.293548,-127.485360
46520,NaN,-0.188999,9.800573,-0.689613,0.171829,0.170589,0.010951,0.092537,-0.026443,0.013463,0.303729,0.321465,-0.656013,-0.611601,93.863874,-0.302798,-127.504687
46521,NaN,0.229219,9.829223,-0.682321,-0.096440,-0.147886,0.041274,0.098845,-0.012863,0.023499,0.303588,0.321469,-0.656400,-0.611254,93.922464,-0.318113,-127.516744
46522,NaN,0.516868,9.832456,-0.674554,-0.283630,-0.363203,0.045659,0.085050,0.018298,0.025187,0.303578,0.321542,-0.656699,-0.610899,93.973068,-0.335778,-127.510955
46523,NaN,0.538115,9.636922,-0.854403,-0.149007,-0.491427,-0.136628,0.077585,0.060685,0.012645,0.303679,0.321774,-0.656892,-0.610519,94.019230,-0.347803,-127.480568
46524,NaN,0.393578,9.568400,-1.026412,0.073792,-0.478190,-0.193509,0.080466,0.088101,0.002867,0.303837,0.322125,-0.657035,-0.610101,94.066921,-0.355577,-127.434063
46525,NaN,0.274407,9.601585,-0.992546,0.111980,-0.355581,-0.163237,0.086344,0.098570,-0.005098,0.303994,0.322545,-0.657168,-0.609658,94.117954,-0.359063,-127.381320
46526,NaN,0.246055,9.699174,-0.803257,-0.032798,-0.208412,-0.079486,0.089438,0.104001,-0.018668,0.304125,0.323029,-0.657279,-0.609216,94.170705,-0.355258,-127.324776
46527,NaN,0.093302,9.868649,-0.641177,-0.086312,0.024010,0.076802,0.100971,0.102190,-0.032060,0.304188,0.323570,-0.657406,-0.608761,94.230107,-0.343589,-127.268839
46528,NaN,0.275723,9.960779,-0.473890,-0.344562,-0.012055,0.157209,0.098788,0.100304,-0.051723,0.304190,0.324165,-0.657498,-0.608344,94.288243,-0.320864,-127.213025
46529,NaN,0.247211,9.985190,-0.354555,-0.434597,0.086264,0.172027,0.107292,0.113221,-0.060803,0.304191,0.324843,-0.657580,-0.607892,94.351267,-0.293366,-127.149521
46530,NaN,0.194734,9.992317,-0.421415,-0.362337,0.090665,0.183431,0.115262,0.120776,-0.065666,0.304191,0.325572,-0.657667,-0.607408,94.418836,-0.263689,-127.081328
46531,NaN,0.047261,9.970940,-0.510840,-0.214831,0.156205,0.167907,0.134151,0.120954,-0.078078,0.304121,0.326371,-0.657790,-0.606881,94.497295,-0.226821,-127.012572
46532,NaN,0.036515,9.900284,-0.668547,-0.093772,0.069757,0.109522,0.142872,0.118745,-0.079003,0.304081,0.327237,-0.657912,-0.606302,94.580763,-0.189564,-126.934696
46533,NaN,0.023308,9.887802,-0.837435,0.034537,-0.018989,0.110462,0.122489,0.115541,-0.089583,0.303977,0.328039,-0.657988,-0.605839,94.652640,-0.146066,-126.868399
46534,NaN,0.067165,9.862955,-1.075397,0.185032,-0.196109,0.105284,0.124880,0.126495,-0.096364,0.303939,0.328956,-0.658014,-0.605332,94.725897,-0.099490,-126.785362
46535,NaN,0.093251,9.960946,-1.008139,0.094837,-0.170653,0.197675,0.119248,0.145632,-0.095266,0.303921,0.329862,-0.658024,-0.604837,94.795998,-0.054346,-126.701504
46536,NaN,-0.058552,9.932377,-1.073240,0.226148,-0.088410,0.174726,0.097080,0.155162,-0.093681,0.304031,0.330816,-0.657924,-0.604369,94.853428,-0.010822,-126.602012
46537,NaN,0.011307,9.981848,-0.857688,-0.005519,-0.013267,0.205936,0.131965,0.166272,-0.104912,0.304030,0.331834,-0.657924,-0.603812,94.930953,0.038629,-126.505797
46538,NaN,0.263596,10.299935,-0.423012,-0.540025,0.056491,0.484995,0.079161,0.167456,-0.109142,0.304161,0.332847,-0.657725,-0.603404,94.978304,0.090144,-126.398520
46539,NaN,-0.116347,9.821938,-0.877790,0.072923,0.065523,0.048596,0.045353,0.157964,-0.112235,0.304254,0.333732,-0.657462,-0.603155,95.006368,0.144020,-126.306595
46540,NaN,-0.181242,9.767734,-0.979546,0.188066,0.050826,0.003780,0.036990,0.138608,-0.102131,0.304383,0.334570,-0.657189,-0.602923,95.029571,0.192860,-126.216029
46541,NaN,-0.309607,9.607018,-1.039026,0.316658,0.107678,-0.150475,0.015392,0.109211,-0.076754,0.304472,0.335146,-0.656968,-0.602799,95.040510,0.228869,-126.153674
46542,NaN,-0.415843,9.559076,-1.195171,0.504061,0.096753,-0.183884,0.013712,0.059601,-0.047689,0.304491,0.335473,-0.656865,-0.602720,95.050254,0.250578,-126.120918
46543,NaN,-0.454283,9.625111,-1.212620,0.533400,0.120143,-0.116264,0.011114,0.015386,-0.010203,0.304480,0.335541,-0.656885,-0.602666,95.058536,0.253319,-126.115459
46544,NaN,-0.489530,9.691420,-1.229041,0.562776,0.143554,-0.048647,-0.004167,-0.024697,0.029423,0.304484,0.335334,-0.656987,-0.602668,95.057853,0.235260,-126.134777
46545,NaN,-0.486702,9.713737,-1.171962,0.517002,0.178589,-0.031692,-0.021300,-0.066176,0.060681,0.304473,0.334873,-0.657152,-0.602750,95.047369,0.201661,-126.179446
46546,NaN,-0.621200,9.549158,-1.052123,0.518852,0.353299,-0.206167,-0.040725,-0.107114,0.096520,0.304470,0.334143,-0.657380,-0.602908,95.025606,0.149521,-126.248983
46547,NaN,-0.764332,9.562137,-0.767128,0.381742,0.643872,-0.218583,0.003373,-0.190676,0.134082,0.304229,0.333103,-0.657932,-0.603003,95.029189,0.080259,-126.368381
46548,NaN,-0.498505,9.842600,-0.509683,0.005043,0.606774,0.037026,0.025728,-0.275793,0.154509,0.303786,0.331830,-0.658684,-0.603108,95.045689,0.003461,-126.527348
46549,NaN,0.014274,10.126059,-0.190752,-0.569213,0.412470,0.290753,0.045883,-0.329262,0.154978,0.303080,0.330366,-0.659605,-0.603259,95.073986,-0.070655,-126.726935
46550,NaN,0.440524,10.209074,-0.364254,-0.685970,-0.014003,0.389330,0.012860,-0.337426,0.140834,0.302412,0.328931,-0.660386,-0.603525,95.083616,-0.136377,-126.920411
46551,NaN,0.856739,9.984389,-0.685254,-0.660543,-0.539822,0.195503,0.008685,-0.278146,0.110332,0.301799,0.327711,-0.661040,-0.603779,95.090957,-0.187515,-127.088594
46552,NaN,1.014201,9.869813,-0.869379,-0.599791,-0.773707,0.098884,0.026216,-0.168775,0.072356,0.301458,0.327028,-0.661491,-0.603825,95.108188,-0.222745,-127.182480
46553,NaN,0.861556,9.816087,-1.236672,-0.211920,-0.870085,0.077978,0.009809,-0.062111,0.045036,0.301360,0.326677,-0.661715,-0.603819,95.115869,-0.247577,-127.224065
46554,NaN,0.665208,9.762484,-1.355260,0.004953,-0.785326,0.034574,0.008184,0.014799,0.003798,0.301397,0.326692,-0.661750,-0.603755,95.122258,-0.253017,-127.219516
46555,NaN,0.180770,9.870301,-1.428125,0.348348,-0.436860,0.146372,-0.008243,0.045372,-0.014371,0.301505,0.326834,-0.661660,-0.603722,95.119326,-0.249437,-127.196728
46556,NaN,-0.077519,9.996000,-1.411365,0.482339,-0.215699,0.268920,-0.016349,0.043722,-0.039391,0.301548,0.327043,-0.661506,-0.603756,95.111639,-0.231660,-127.173354
46557,NaN,-0.044117,10.081347,-1.207181,0.293401,-0.118709,0.335840,-0.026726,0.040443,-0.053596,0.301551,0.327273,-0.661304,-0.603851,95.098132,-0.205438,-127.151381
46558,NaN,0.012101,10.020246,-0.879441,0.003091,0.024298,0.246054,-0.044050,0.047245,-0.059622,0.301589,0.327515,-0.661029,-0.604002,95.074552,-0.176384,-127.125223
46559,NaN,-0.083279,9.898895,-0.612585,-0.142565,0.247646,0.101376,-0.045926,0.050778,-0.051503,0.301664,0.327740,-0.660757,-0.604141,95.050049,-0.151862,-127.097477
46560,NaN,-0.141782,9.853008,-0.525961,-0.171890,0.338847,0.048049,-0.039284,0.036287,-0.029701,0.301748,0.327858,-0.660562,-0.604248,95.029345,-0.139263,-127.079061
46561,NaN,-0.137157,9.756353,-0.644613,-0.071463,0.255696,-0.037706,-0.041126,0.026821,-0.001933,0.301885,0.327854,-0.660421,-0.604335,95.007643,-0.141811,-127.067491
46562,NaN,-0.174859,9.752187,-0.800373,0.078946,0.192049,-0.028353,-0.024240,0.033327,0.032495,0.302123,0.327782,-0.660377,-0.604304,94.995531,-0.164516,-127.053769
46563,NaN,-0.215451,9.779358,-1.001215,0.266106,0.108224,0.015953,-0.027128,0.021980,0.059976,0.302409,0.327580,-0.660387,-0.604259,94.981859,-0.202155,-127.048046
46564,NaN,-0.167610,9.925023,-1.237938,0.422012,-0.059014,0.181565,-0.020258,0.034833,0.081098,0.302792,0.327356,-0.660433,-0.604138,94.971990,-0.252717,-127.035990
46565,NaN,-0.059039,9.836981,-1.190156,0.332159,-0.115173,0.089966,-0.028540,0.049597,0.103966,0.303304,0.327090,-0.660469,-0.603987,94.957432,-0.316833,-127.016668
46566,NaN,0.074608,9.810043,-1.047780,0.149329,-0.130695,0.051438,-0.036054,0.051882,0.108149,0.303850,0.326805,-0.660485,-0.603848,94.938509,-0.383638,-126.996156
46567,NaN,0.204937,9.733792,-0.992593,0.041730,-0.198796,-0.028380,-0.039729,0.063304,0.111977,0.304449,0.326536,-0.660479,-0.603698,94.917441,-0.452989,-126.969363
46568,NaN,0.266965,9.631659,-0.852444,-0.090766,-0.163012,-0.141495,-0.036016,0.078907,0.110578,0.305092,0.326326,-0.660457,-0.603512,94.898369,-0.522431,-126.933329
46569,NaN,0.329810,9.593251,-0.748137,-0.199832,-0.146113,-0.187842,-0.035117,0.084798,0.101583,0.305724,0.326163,-0.660415,-0.603326,94.879755,-0.586879,-126.893709
46570,NaN,0.417247,9.614443,-0.753090,-0.241245,-0.211329,-0.165103,-0.025847,0.085455,0.088225,0.306303,0.326059,-0.660377,-0.603130,94.866302,-0.643989,-126.853100
46571,NaN,0.382956,9.648669,-0.774128,-0.198560,-0.189094,-0.129322,-0.032155,0.080448,0.071048,0.306823,0.325989,-0.660300,-0.602988,94.849318,-0.690772,-126.814446
46572,NaN,0.317062,9.718580,-0.766698,-0.163231,-0.123694,-0.060908,-0.019466,0.066868,0.048783,0.307212,0.325968,-0.660246,-0.602861,94.839627,-0.724431,-126.782516
46573,NaN,0.365702,9.769872,-0.720283,-0.228269,-0.129094,-0.012984,-0.018808,0.054216,0.031685,0.307504,0.325969,-0.660185,-0.602778,94.830413,-0.747459,-126.756919
46574,NaN,0.262709,9.848369,-0.716946,-0.170790,-0.038511,0.063686,-0.021380,0.042424,0.012710,0.307706,0.325991,-0.660104,-0.602752,94.819776,-0.759339,-126.737209
46575,NaN,0.159702,9.868415,-0.701358,-0.120576,0.054216,0.081025,-0.024388,0.025462,-0.003585,0.307807,0.326013,-0.660012,-0.602789,94.807548,-0.760839,-126.726326
46576,NaN,0.055268,9.910109,-0.630246,-0.116019,0.181625,0.115257,-0.018380,0.000389,-0.008415,0.307802,0.325983,-0.659970,-0.602854,94.798857,-0.758609,-126.729476
46577,NaN,0.068991,9.975375,-0.610896,-0.142711,0.184737,0.178887,-0.018295,-0.021810,-0.010442,0.307716,0.325895,-0.659958,-0.602958,94.790472,-0.753926,-126.745256
46578,NaN,0.093812,9.912844,-0.670296,-0.105808,0.124170,0.121897,-0.016744,-0.043612,-0.012274,0.307552,0.325748,-0.659982,-0.603095,94.783095,-0.747389,-126.773390
46579,NaN,0.162796,9.879935,-0.741277,-0.088249,0.023004,0.095935,-0.014303,-0.045981,-0.013824,0.307369,0.325603,-0.660015,-0.603231,94.777171,-0.739624,-126.802812
46580,NaN,0.314614,9.815160,-0.832101,-0.103203,-0.158375,0.040891,-0.009933,-0.029492,-0.023028,0.307207,0.325543,-0.660021,-0.603339,94.773618,-0.727688,-126.822592
46581,NaN,0.356202,9.866534,-0.787132,-0.168247,-0.163718,0.088819,-0.002687,-0.007759,-0.028226,0.307088,0.325580,-0.660006,-0.603396,94.774056,-0.713527,-126.829503
46582,NaN,0.319604,9.875100,-0.790062,-0.146110,-0.137985,0.097084,-0.006082,0.008223,-0.038334,0.306998,0.325691,-0.659941,-0.603453,94.772463,-0.694604,-126.826902
46583,NaN,0.297530,9.761443,-0.894860,-0.044269,-0.192756,-0.007793,-0.008988,0.027367,-0.046496,0.306950,0.325884,-0.659823,-0.603502,94.769037,-0.671685,-126.812885
46584,NaN,0.211362,9.734833,-0.862983,-0.018981,-0.109806,-0.038028,0.001902,0.037690,-0.055547,0.306893,0.326153,-0.659708,-0.603511,94.771785,-0.644319,-126.792549
46585,NaN,0.104063,9.840163,-0.829739,0.009027,-0.001262,0.062940,0.006540,0.032598,-0.055508,0.306810,0.326416,-0.659615,-0.603514,94.777230,-0.616505,-126.775115
46586,NaN,0.011433,9.866330,-0.787656,0.025391,0.096245,0.084539,0.009895,0.016190,-0.058257,0.306659,0.326641,-0.659553,-0.603535,94.784861,-0.586559,-126.767012
46587,NaN,-0.023016,10.008951,-0.683798,-0.049916,0.190512,0.217688,0.010809,0.002150,-0.059456,0.306457,0.326831,-0.659513,-0.603580,94.792942,-0.555039,-126.766767
46588,NaN,-0.134136,10.065256,-0.738864,0.053333,0.246378,0.277394,0.000600,-0.015939,-0.051054,0.306239,0.326923,-0.659483,-0.603673,94.795285,-0.527615,-126.777085
46589,NaN,-0.126607,9.937539,-0.816781,0.116843,0.183070,0.156799,-0.015724,-0.026899,-0.034664,0.306059,0.326903,-0.659447,-0.603815,94.788324,-0.508860,-126.794611
46590,NaN,-0.056964,9.868010,-0.819971,0.081432,0.118748,0.088448,-0.014204,-0.032717,-0.019019,0.305906,0.326815,-0.659451,-0.603936,94.782299,-0.498966,-126.816196
46591,NaN,-0.020363,9.822181,-0.949866,0.166753,0.007964,0.053924,-0.021001,-0.028683,0.003024,0.305842,0.326657,-0.659463,-0.604040,94.772334,-0.501648,-126.836545
46592,NaN,-0.042820,9.761550,-1.041945,0.259666,-0.032346,0.000919,-0.020647,-0.020825,0.023011,0.305866,0.326457,-0.659498,-0.604098,94.762581,-0.516298,-126.853273
46593,NaN,-0.004951,9.817557,-1.071918,0.260876,-0.075823,0.059479,-0.022853,-0.019869,0.040471,0.305947,0.326200,-0.659552,-0.604136,94.751535,-0.540788,-126.870366
46594,NaN,-0.007657,9.806815,-1.022292,0.228550,-0.041899,0.044531,-0.031110,-0.009590,0.059727,0.306136,0.325896,-0.659597,-0.604155,94.735646,-0.576967,-126.882403
46595,NaN,0.067251,9.753460,-0.944541,0.131264,-0.054831,-0.014401,-0.037165,-0.004472,0.072337,0.306388,0.325558,-0.659637,-0.604166,94.716344,-0.620389,-126.892196
46596,NaN,0.054334,9.784661,-0.835691,0.057694,0.027094,0.007539,-0.031365,-0.002641,0.087551,0.306684,0.325183,-0.659716,-0.604132,94.700369,-0.672777,-126.901575
46597,NaN,0.174857,9.754730,-0.949183,0.085269,-0.132686,-0.011596,-0.024824,0.009357,0.098988,0.307042,0.324818,-0.659815,-0.604039,94.688074,-0.732072,-126.904697
46598,NaN,0.221455,9.794862,-0.855282,-0.012088,-0.104488,0.021376,-0.024451,0.018987,0.099914,0.307435,0.324478,-0.659902,-0.603926,94.675994,-0.792521,-126.902287
46599,NaN,0.255085,9.833902,-0.814389,-0.059376,-0.097814,0.057512,-0.024813,0.022664,0.093799,0.307821,0.324170,-0.659971,-0.603820,94.663599,-0.849475,-126.897542
46600,NaN,0.339818,9.790818,-0.784556,-0.124318,-0.144088,0.013548,-0.023033,0.025624,0.084657,0.308187,0.323901,-0.660027,-0.603716,94.652102,-0.901615,-126.890772
46601,NaN,0.377171,9.776665,-0.755404,-0.162697,-0.151996,-0.002157,-0.022665,0.023741,0.071709,0.308507,0.323672,-0.660065,-0.603634,94.640903,-0.946002,-126.884362
46602,NaN,0.442518,9.748433,-0.699255,-0.239427,-0.168291,-0.033574,-0.025930,0.030847,0.054398,0.308802,0.323516,-0.660056,-0.603576,94.627945,-0.981008,-126.873122
46603,NaN,0.439641,9.737305,-0.649780,-0.271772,-0.134343,-0.048533,-0.023418,0.028247,0.038428,0.309037,0.323409,-0.660031,-0.603541,94.616235,-1.006593,-126.862582
46604,NaN,0.450283,9.727022,-0.750226,-0.193861,-0.201958,-0.050404,-0.021671,0.030794,0.016456,0.309212,0.323384,-0.659973,-0.603528,94.605599,-1.019936,-126.849578
46605,NaN,0.364814,9.710924,-0.816737,-0.086113,-0.174043,-0.062586,-0.021842,0.030203,0.005178,0.309350,0.323395,-0.659896,-0.603536,94.594739,-1.026618,-126.836383
46606,NaN,0.263702,9.795439,-0.836479,-0.012314,-0.100163,0.021420,-0.021513,0.032770,-0.004148,0.309469,0.323444,-0.659802,-0.603551,94.584087,-1.028306,-126.821311
46607,NaN,0.209290,9.813629,-0.787960,-0.018021,-0.027832,0.034692,-0.022553,0.028478,-0.012671,0.309549,0.323508,-0.659696,-0.603591,94.572822,-1.024709,-126.808282
46608,NaN,0.124724,9.845942,-0.766329,0.014629,0.052960,0.063667,-0.021853,0.016273,-0.016941,0.309576,0.323550,-0.659606,-0.603654,94.562185,-1.018284,-126.801935
46609,NaN,0.132449,9.964202,-0.734230,-0.020976,0.070860,0.179134,-0.028319,0.000268,-0.019176,0.309553,0.323541,-0.659516,-0.603769,94.547899,-1.009684,-126.804727
46610,NaN,0.080569,9.966632,-0.764180,0.035134,0.091727,0.183040,-0.033839,-0.007403,-0.022124,0.309505,0.323509,-0.659417,-0.603918,94.530557,-0.999276,-126.811791
46611,NaN,0.011783,10.005319,-0.711820,0.033891,0.177323,0.216303,-0.032226,-0.015502,-0.016305,0.309444,0.323437,-0.659345,-0.604067,94.514190,-0.991604,-126.823726
46612,NaN,0.042070,10.034344,-0.772621,0.064537,0.115875,0.250571,-0.035211,-0.029590,-0.011574,0.309358,0.323302,-0.659293,-0.604240,94.496347,-0.986169,-126.843822
46613,NaN,0.077588,10.031717,-0.788777,0.058453,0.074563,0.249844,-0.043147,-0.028237,-0.015546,0.309275,0.323172,-0.659209,-0.604444,94.473845,-0.978369,-126.863072
46614,NaN,0.066877,10.058257,-0.804500,0.079022,0.071675,0.277350,-0.055069,-0.027117,-0.011985,0.309227,0.323014,-0.659093,-0.604679,94.444556,-0.972876,-126.881882
46615,NaN,0.163435,9.947632,-0.809212,0.034610,-0.019216,0.169063,-0.067063,-0.030624,-0.010475,0.309191,0.322823,-0.658948,-0.604958,94.408375,-0.967887,-126.902727
46616,NaN,0.169740,9.815431,-0.858129,0.081872,-0.066056,0.041085,-0.082047,-0.030474,-0.005754,0.309193,0.322592,-0.658766,-0.605278,94.363683,-0.965867,-126.923878
46617,NaN,0.143522,9.670780,-0.965896,0.196938,-0.122659,-0.095501,-0.079737,-0.030614,0.002486,0.309216,0.322338,-0.658603,-0.605578,94.320249,-0.968313,-126.945288
46618,NaN,0.211896,9.616836,-0.884332,0.099621,-0.135475,-0.154416,-0.077498,-0.035382,0.008671,0.309239,0.322053,-0.658466,-0.605868,94.278332,-0.974267,-126.969668
46619,NaN,0.253381,9.641364,-0.864952,0.064035,-0.158690,-0.130799,-0.069364,-0.031927,0.013113,0.309273,0.321777,-0.658353,-0.606119,94.240866,-0.982760,-126.992277
46620,NaN,0.343349,9.722152,-0.824522,-0.020436,-0.204176,-0.051752,-0.067277,-0.028195,0.013703,0.309319,0.321512,-0.658243,-0.606356,94.204658,-0.991964,-127.012803
46621,NaN,0.364828,9.755559,-0.755801,-0.083854,-0.180669,-0.023122,-0.068352,-0.018964,0.014477,0.309398,0.321272,-0.658116,-0.606581,94.167650,-1.001808,-127.028050
46622,NaN,0.262245,9.796927,-0.679347,-0.078965,-0.053156,0.010804,-0.070525,-0.009559,0.010347,0.309499,0.321069,-0.657963,-0.606804,94.129521,-1.009930,-127.037995
46623,NaN,0.192901,9.808757,-0.655599,-0.050679,0.014334,0.019706,-0.068437,-0.005828,0.010942,0.309610,0.320880,-0.657809,-0.607013,94.092335,-1.018313,-127.045575
46624,NaN,0.144076,9.832462,-0.626052,-0.040163,0.069999,0.040408,-0.061418,-0.008870,0.013025,0.309709,0.320687,-0.657684,-0.607200,94.059303,-1.027903,-127.054769
46625,NaN,0.145385,9.853615,-0.564320,-0.085775,0.105388,0.057210,-0.054299,-0.018386,0.016079,0.309772,0.320465,-0.657601,-0.607375,94.030352,-1.038724,-127.069726
46626,NaN,0.148782,9.897654,-0.649744,-0.016832,0.052353,0.107234,-0.051939,-0.025367,0.012443,0.309797,0.320235,-0.657532,-0.607558,94.002977,-1.047427,-127.088710
46627,NaN,0.207439,9.886335,-0.714689,0.004853,-0.035665,0.101551,-0.052610,-0.024274,0.015674,0.309837,0.319999,-0.657462,-0.607738,93.975060,-1.057795,-127.107005
46628,NaN,0.225249,9.892759,-0.679591,-0.029057,-0.030205,0.105856,-0.058764,-0.017504,0.010851,0.309894,0.319786,-0.657357,-0.607934,93.943609,-1.065995,-127.121613
46629,NaN,0.267012,9.875527,-0.773529,0.026519,-0.123105,0.095885,-0.059410,-0.009748,0.011552,0.309980,0.319598,-0.657237,-0.608119,93.911643,-1.074598,-127.131432
46630,NaN,0.264319,9.849454,-0.800136,0.055955,-0.140684,0.071588,-0.064562,0.003311,0.010680,0.310115,0.319442,-0.657081,-0.608301,93.876705,-1.083443,-127.133882
46631,NaN,0.294816,9.835428,-0.767286,0.017567,-0.148542,0.055894,-0.062746,0.015369,0.007294,0.310276,0.319338,-0.656905,-0.608463,93.842555,-1.090592,-127.129165
46632,NaN,0.290021,9.868203,-0.804544,0.054220,-0.168158,0.090928,-0.066683,0.026064,0.001522,0.310462,0.319280,-0.656692,-0.608629,93.806178,-1.094966,-127.117883
46633,NaN,0.284261,9.798142,-0.740178,0.014715,-0.132160,0.016583,-0.067260,0.036067,-0.003939,0.310664,0.319269,-0.656452,-0.608790,93.769207,-1.096470,-127.100896
46634,NaN,0.256086,9.795417,-0.637226,-0.045341,-0.051412,0.006536,-0.059247,0.036931,-0.006153,0.310850,0.319281,-0.656233,-0.608926,93.736969,-1.096887,-127.083234
46635,NaN,0.192682,9.839492,-0.604997,-0.030336,0.017507,0.047207,-0.056889,0.029959,-0.009806,0.310997,0.319287,-0.656025,-0.609072,93.706002,-1.094790,-127.069521
46636,NaN,0.178943,9.880771,-0.540386,-0.071485,0.066257,0.083988,-0.049322,0.025625,-0.009394,0.311120,0.319290,-0.655848,-0.609197,93.679620,-1.092892,-127.058157
46637,NaN,0.144582,9.910105,-0.482494,-0.094823,0.126808,0.108947,-0.048430,0.018265,-0.013255,0.311205,0.319285,-0.655678,-0.609340,93.653626,-1.088382,-127.051007
46638,NaN,0.143343,9.910346,-0.477901,-0.094874,0.127396,0.108939,-0.043801,0.013154,-0.013256,0.311266,0.319273,-0.655532,-0.609472,93.630677,-1.083758,-127.046570
46639,NaN,0.151543,9.863710,-0.509941,-0.069893,0.096477,0.064640,-0.036182,0.006759,-0.008242,0.311309,0.319235,-0.655425,-0.609585,93.611830,-1.081691,-127.046186
46640,NaN,0.174919,9.881758,-0.523399,-0.071602,0.068521,0.083971,-0.035759,0.005287,-0.008348,0.311345,0.319191,-0.655324,-0.609697,93.593510,-1.079738,-127.046924
46641,NaN,0.202365,9.885466,-0.616784,-0.011633,-0.011144,0.094056,-0.029285,0.003504,-0.004590,0.311378,0.319142,-0.655250,-0.609787,93.578652,-1.079643,-127.048532
46642,NaN,0.211073,9.838870,-0.649688,0.013331,-0.042028,0.049770,-0.034416,0.005480,-0.006576,0.311418,0.319096,-0.655155,-0.609892,93.561027,-1.078721,-127.049201
46643,NaN,0.242138,9.869007,-0.710146,0.043838,-0.103510,0.084160,-0.030932,0.022744,-0.009193,0.311502,0.319118,-0.655038,-0.609964,93.545016,-1.076678,-127.039642
46644,NaN,0.226666,9.824866,-0.669819,0.024913,-0.070944,0.037306,-0.032278,0.024900,-0.002719,0.311616,0.319125,-0.654924,-0.610024,93.528431,-1.078497,-127.028800
46645,NaN,0.204817,9.851785,-0.740059,0.095465,-0.095515,0.068055,-0.027475,0.035681,-0.001049,0.311762,0.319165,-0.654810,-0.610051,93.514265,-1.081562,-127.012129
46646,NaN,0.176939,9.848322,-0.640458,0.035466,-0.014722,0.057949,-0.032557,0.035593,0.001558,0.311923,0.319189,-0.654687,-0.610088,93.497403,-1.086257,-126.995537
46647,NaN,0.173617,9.842473,-0.613940,0.019341,0.002546,0.050424,-0.030592,0.039119,0.003751,0.312100,0.319219,-0.654566,-0.610112,93.481415,-1.092177,-126.977066
46648,NaN,0.194502,9.874690,-0.548501,-0.044036,0.026255,0.079004,-0.023895,0.031053,0.006885,0.312250,0.319226,-0.654483,-0.610120,93.469546,-1.099721,-126.963131
46649,NaN,0.175029,9.862963,-0.552493,-0.026254,0.038601,0.067179,-0.024219,0.026048,0.007925,0.312386,0.319212,-0.654409,-0.610138,93.457352,-1.107567,-126.952278
46650,NaN,0.130112,9.892166,-0.550392,0.000439,0.077557,0.095329,-0.018424,0.025335,0.014929,0.312533,0.319184,-0.654365,-0.610124,93.448709,-1.119495,-126.941858
46651,NaN,0.168844,9.889659,-0.568911,-0.005744,0.036265,0.094693,-0.012845,0.010797,0.015658,0.312625,0.319116,-0.654361,-0.610116,93.443204,-1.131236,-126.939993
46652,NaN,0.153709,9.904121,-0.540940,-0.017426,0.066875,0.107146,-0.016108,0.005014,0.016276,0.312705,0.319025,-0.654359,-0.610125,93.436194,-1.143228,-126.941304
46653,NaN,0.185217,9.869283,-0.569299,-0.010280,0.024096,0.074702,-0.011432,-0.002171,0.020874,0.312768,0.318903,-0.654388,-0.610126,93.431650,-1.157507,-126.947034
46654,NaN,0.172343,9.824846,-0.531374,-0.029185,0.056664,0.027821,-0.006981,-0.003077,0.026101,0.312837,0.318769,-0.654442,-0.610102,93.429972,-1.174856,-126.953374
46655,NaN,0.208466,9.795991,-0.584164,-0.005949,-0.002863,0.002917,0.001411,0.000723,0.027473,0.312909,0.318654,-0.654516,-0.610046,93.432761,-1.193008,-126.957674
46656,NaN,0.277543,9.798700,-0.521992,-0.096060,-0.017457,0.003345,0.011273,0.004909,0.029056,0.312982,0.318559,-0.654620,-0.609947,93.441454,-1.212471,-126.960128
46657,NaN,0.279111,9.837245,-0.589917,-0.043333,-0.053846,0.045939,0.012225,0.013249,0.028436,0.313081,0.318497,-0.654709,-0.609833,93.450289,-1.231604,-126.957300
46658,NaN,0.348422,9.819710,-0.584497,-0.087940,-0.103440,0.029635,0.010989,0.024347,0.026246,0.313212,0.318475,-0.654775,-0.609707,93.458530,-1.249959,-126.947837
46659,NaN,0.295831,9.875298,-0.606057,-0.040653,-0.067966,0.085295,0.018201,0.034832,0.021770,0.313351,0.318509,-0.654838,-0.609550,93.470512,-1.266027,-126.932438
46660,NaN,0.294800,9.828726,-0.696478,0.034255,-0.120634,0.044295,0.007695,0.038405,0.020914,0.313517,0.318540,-0.654863,-0.609421,93.476593,-1.281889,-126.914910
46661,NaN,0.221292,9.872591,-0.724062,0.099354,-0.073382,0.088123,0.011693,0.038699,0.013401,0.313654,0.318603,-0.654886,-0.609292,93.484782,-1.293310,-126.897012
46662,NaN,0.219020,9.866443,-0.701602,0.083233,-0.056053,0.080586,0.007578,0.035868,0.014224,0.313790,0.318647,-0.654905,-0.609179,93.490857,-1.305335,-126.881025
46663,NaN,0.179729,9.862980,-0.659082,0.073321,0.003049,0.073650,0.010478,0.029964,0.017152,0.313912,0.318669,-0.654945,-0.609062,93.498460,-1.318601,-126.868257
46664,NaN,0.176201,9.915688,-0.647250,0.064407,0.018447,0.125440,0.009649,0.021824,0.016209,0.314006,0.318669,-0.654995,-0.608960,93.505988,-1.331151,-126.859990
46665,NaN,0.166111,9.897493,-0.577996,0.016133,0.069221,0.102805,0.005548,0.007904,0.015885,0.314060,0.318621,-0.655052,-0.608896,93.511054,-1.342923,-126.859801
46666,NaN,0.195991,9.921280,-0.618794,0.030442,0.024533,0.129726,0.006990,-0.009476,0.017457,0.314059,0.318518,-0.655144,-0.608851,93.517433,-1.355098,-126.869483
46667,NaN,0.333966,9.912486,-0.573267,-0.088171,-0.056959,0.121422,0.007260,-0.020168,0.013177,0.314010,0.318395,-0.655246,-0.608830,93.523859,-1.364333,-126.885259
46668,NaN,0.402939,9.815845,-0.613156,-0.094541,-0.139624,0.029096,0.008442,-0.009366,0.004824,0.313968,0.318335,-0.655324,-0.608800,93.531114,-1.369318,-126.894617
46669,NaN,0.433484,9.762392,-0.520571,-0.185668,-0.110468,-0.029205,0.009583,-0.005240,-0.001021,0.313921,0.318308,-0.655387,-0.608771,93.538657,-1.370957,-126.901355
46670,NaN,0.392429,9.718570,-0.590901,-0.104579,-0.121368,-0.069582,0.013744,0.013010,-0.011457,0.313894,0.318376,-0.655420,-0.608714,93.548544,-1.367490,-126.897511
46671,NaN,0.341203,9.741756,-0.569357,-0.093907,-0.065704,-0.049017,0.020545,0.024962,-0.015832,0.313883,0.318507,-0.655445,-0.608623,93.561943,-1.361730,-126.886447
46672,NaN,0.366316,9.682317,-0.454832,-0.201126,-0.019747,-0.114880,0.029897,0.037094,-0.015086,0.313899,0.318688,-0.655483,-0.608480,93.580824,-1.356960,-126.868403
46673,NaN,0.271414,9.657578,-0.301300,-0.269071,0.148190,-0.151481,0.036711,0.049330,-0.006622,0.313970,0.318888,-0.655534,-0.608283,93.603165,-1.357349,-126.843728
46674,NaN,0.223152,9.763761,-0.439145,-0.136909,0.113265,-0.038124,0.043845,0.037716,0.001026,0.314015,0.319039,-0.655639,-0.608068,93.630043,-1.361843,-126.825966
46675,NaN,0.148239,9.805342,-0.650089,0.071911,0.053443,0.014891,0.050133,0.029052,0.008881,0.314046,0.319148,-0.655787,-0.607835,93.660360,-1.370380,-126.813454
46676,NaN,0.101024,9.931503,-0.733333,0.158596,0.053559,0.144958,0.057945,0.016360,0.013303,0.314035,0.319214,-0.655988,-0.607589,93.695545,-1.381187,-126.808534
46677,NaN,0.222431,9.916695,-0.721948,0.073822,-0.032866,0.132412,0.049974,0.011093,0.011822,0.314015,0.319259,-0.656169,-0.607381,93.726018,-1.390754,-126.806412
46678,NaN,0.294400,9.884415,-0.799128,0.090714,-0.134236,0.107025,0.040868,0.010442,0.009079,0.314000,0.319294,-0.656320,-0.607206,93.751452,-1.398936,-126.804714
46679,NaN,0.319604,9.901819,-0.819855,0.088923,-0.162211,0.126433,0.037972,0.016343,0.006131,0.313999,0.319354,-0.656447,-0.607038,93.774970,-1.405449,-126.799384
46680,NaN,0.271514,9.866033,-0.789688,0.092382,-0.104617,0.087639,0.035498,0.020769,0.003082,0.314008,0.319433,-0.656556,-0.606874,93.797264,-1.410553,-126.791479
46681,NaN,0.221407,9.909568,-0.713997,0.057619,-0.013877,0.124859,0.034785,0.023913,0.001712,0.314024,0.319526,-0.656654,-0.606711,93.818844,-1.414832,-126.781657
46682,NaN,0.217004,9.923910,-0.637713,-0.003949,0.038542,0.133983,0.031613,0.020387,-0.003824,0.314017,0.319620,-0.656741,-0.606571,93.838855,-1.415997,-126.773728
46683,NaN,0.270641,9.909026,-0.507816,-0.142268,0.074317,0.111735,0.034899,0.015073,-0.005575,0.313982,0.319709,-0.656841,-0.606433,93.860618,-1.415778,-126.768684
46684,NaN,0.304996,9.823630,-0.373924,-0.269982,0.123773,0.018301,0.040293,0.002387,-0.007816,0.313888,0.319774,-0.656977,-0.606300,93.885882,-1.414001,-126.771046
46685,NaN,0.284951,9.773453,-0.317550,-0.304850,0.173022,-0.036208,0.045788,-0.007737,-0.003381,0.313768,0.319805,-0.657150,-0.606159,93.914209,-1.414151,-126.779129
46686,NaN,0.265359,9.720308,-0.441049,-0.196120,0.115165,-0.081418,0.050659,-0.021195,0.000648,0.313606,0.319786,-0.657367,-0.606017,93.945689,-1.416308,-126.795351
46687,NaN,0.235879,9.752193,-0.596266,-0.059629,0.051938,-0.039756,0.053508,-0.033757,0.006130,0.313416,0.319719,-0.657619,-0.605877,93.978817,-1.420855,-126.818689
46688,NaN,0.201474,9.836781,-0.739622,0.068015,0.003651,0.053682,0.059919,-0.042206,0.012440,0.313206,0.319612,-0.657916,-0.605719,94.015917,-1.428896,-126.847409
46689,NaN,0.229845,9.897924,-0.852687,0.134935,-0.078039,0.123333,0.051892,-0.043051,0.014610,0.313014,0.319486,-0.658191,-0.605587,94.048267,-1.437887,-126.876407
46690,NaN,0.270815,9.959172,-0.911840,0.151897,-0.137892,0.189703,0.042936,-0.034471,0.016009,0.312868,0.319365,-0.658430,-0.605466,94.075535,-1.448220,-126.900742
46691,NaN,0.310315,9.917836,-0.868651,0.092919,-0.142212,0.146502,0.037049,-0.024925,0.016263,0.312764,0.319265,-0.658634,-0.605351,94.099130,-1.458868,-126.919455
46692,NaN,0.371880,9.829645,-0.807252,0.008882,-0.156368,0.055815,0.029307,-0.016339,0.021008,0.312715,0.319163,-0.658811,-0.605238,94.118361,-1.472744,-126.933501
46693,NaN,0.280478,9.764635,-0.765632,0.032030,-0.058642,-0.014295,0.031523,-0.001330,0.021144,0.312712,0.319109,-0.658969,-0.605095,94.138455,-1.487141,-126.938935
46694,NaN,0.145917,9.793493,-0.759512,0.105284,0.058886,0.010555,0.040076,0.000615,0.025528,0.312716,0.319060,-0.659159,-0.604912,94.163628,-1.504281,-126.943439
46695,NaN,0.113440,9.898575,-0.845109,0.187465,0.045651,0.120673,0.036231,-0.001487,0.036075,0.312750,0.318964,-0.659356,-0.604731,94.186442,-1.527200,-126.949597
46696,NaN,0.161983,9.927613,-0.859341,0.167803,0.006014,0.151950,0.035841,-0.002054,0.040772,0.312797,0.318849,-0.659561,-0.604543,94.209242,-1.552962,-126.956403
46697,NaN,0.233070,9.892644,-0.732686,0.025011,0.028561,0.109717,0.035839,-0.002052,0.040768,0.312844,0.318736,-0.659765,-0.604356,94.231852,-1.578534,-126.963101
46698,NaN,0.394133,9.874686,-0.739190,-0.066169,-0.099541,0.096747,0.030432,0.001592,0.037291,0.312903,0.318635,-0.659941,-0.604186,94.251326,-1.602455,-126.967511
46699,NaN,0.400799,9.715131,-0.831447,0.010221,-0.165650,-0.055220,0.024136,0.001522,0.036551,0.312967,0.318528,-0.660097,-0.604039,94.267174,-1.625764,-126.972003
46700,NaN,0.477963,9.729541,-0.817762,-0.047834,-0.213551,-0.039599,0.027355,0.011373,0.026680,0.313029,0.318485,-0.660234,-0.603880,94.284768,-1.644114,-126.970743
46701,NaN,0.532198,9.629851,-0.709235,-0.163963,-0.194210,-0.145439,0.042281,0.028746,0.022097,0.313111,0.318536,-0.660379,-0.603652,94.310550,-1.660332,-126.959070
46702,NaN,0.476722,9.620771,-0.699583,-0.139842,-0.140128,-0.156771,0.042251,0.030786,0.017487,0.313187,0.318608,-0.660514,-0.603427,94.336320,-1.674204,-126.946022
46703,NaN,0.489777,9.658520,-0.717589,-0.137177,-0.154744,-0.117376,0.040095,0.031140,0.007668,0.313237,0.318710,-0.660625,-0.603225,94.360785,-1.682292,-126.932368
46704,NaN,0.395552,9.652666,-0.688170,-0.106744,-0.058838,-0.128208,0.045777,0.025472,-0.000219,0.313235,0.318827,-0.660753,-0.603025,94.388753,-1.685876,-126.921911
46705,NaN,0.382294,9.693996,-0.633515,-0.147683,-0.009803,-0.091621,0.042043,0.012116,-0.005139,0.313180,0.318918,-0.660879,-0.602867,94.414636,-1.685824,-126.918574
46706,NaN,0.330651,9.776178,-0.626537,-0.129653,0.044120,-0.011831,0.047065,-0.005585,-0.006253,0.313054,0.318962,-0.661050,-0.602722,94.443776,-1.684666,-126.925798
46707,NaN,0.237868,9.834782,-0.632371,-0.075943,0.121396,0.044234,0.042363,-0.016180,-0.009416,0.312893,0.318981,-0.661215,-0.602614,94.470313,-1.680915,-126.938440
46708,NaN,0.231513,9.887524,-0.625190,-0.084777,0.136940,0.095978,0.053179,-0.036960,-0.011745,0.312639,0.318962,-0.661442,-0.602507,94.503443,-1.675105,-126.962895
46709,NaN,0.194458,10.013404,-0.656607,-0.048017,0.158918,0.222733,0.044016,-0.055372,-0.012968,0.312334,0.318878,-0.661668,-0.602462,94.531572,-1.667543,-126.997768
46710,NaN,0.244341,10.091221,-0.786132,0.016984,0.048793,0.311925,0.041329,-0.066871,-0.017578,0.311983,0.318769,-0.661897,-0.602450,94.558398,-1.656995,-127.038958
46711,NaN,0.354368,10.022825,-0.838434,-0.009257,-0.074293,0.251108,0.034713,-0.063252,-0.024404,0.311632,0.318684,-0.662088,-0.602466,94.581298,-1.642510,-127.077804
46712,NaN,0.343813,9.947896,-0.962507,0.094851,-0.145772,0.186064,0.024029,-0.055802,-0.032929,0.311299,0.318633,-0.662223,-0.602517,94.597970,-1.623673,-127.111939
46713,NaN,0.200624,9.870613,-1.031974,0.235804,-0.080195,0.110628,0.018247,-0.055137,-0.039933,0.310955,0.318598,-0.662327,-0.602599,94.611260,-1.600669,-127.145424
46714,NaN,0.225376,9.877329,-0.951065,0.151985,-0.052682,0.111579,0.017358,-0.058839,-0.037193,0.310608,0.318540,-0.662440,-0.602684,94.624182,-1.579266,-127.181262
46715,NaN,0.298394,9.940182,-0.849465,0.019117,-0.046912,0.168058,0.033564,-0.050330,-0.045745,0.310238,0.318563,-0.662573,-0.602716,94.646138,-1.553147,-127.211719
46716,NaN,0.345824,10.044326,-0.742357,-0.104716,-0.014398,0.264415,0.018366,-0.032753,-0.039412,0.309970,0.318595,-0.662644,-0.602759,94.659253,-1.531597,-127.232300
46717,NaN,0.312176,10.016194,-0.882808,0.024424,-0.076046,0.246863,0.015973,-0.015044,-0.047607,0.309739,0.318703,-0.662667,-0.602796,94.670568,-1.506043,-127.242499
46718,NaN,0.311123,10.043064,-0.851816,-0.004961,-0.057009,0.271074,0.012816,0.001562,-0.046394,0.309570,0.318848,-0.662659,-0.602814,94.679968,-1.482249,-127.243778
46719,NaN,0.309713,9.904604,-0.885193,0.025969,-0.088161,0.135791,0.002482,0.014378,-0.043153,0.309471,0.319009,-0.662603,-0.602842,94.683118,-1.460612,-127.237371
46720,NaN,0.262117,9.672521,-0.871769,0.053390,-0.060626,-0.097760,0.000154,0.030453,-0.033898,0.309459,0.319182,-0.662530,-0.602837,94.684668,-1.445241,-127.222234
46721,NaN,0.220683,9.590089,-0.872975,0.081866,-0.034999,-0.180831,0.010417,0.038022,-0.016020,0.309508,0.319337,-0.662504,-0.602758,94.692060,-1.440206,-127.203589
46722,NaN,0.224255,9.574367,-0.953213,0.143241,-0.086479,-0.189829,0.010230,0.044703,-0.002611,0.309620,0.319466,-0.662489,-0.602648,94.699327,-1.443349,-127.181809
46723,NaN,0.162802,9.597152,-0.984597,0.203994,-0.052720,-0.166088,0.013823,0.040539,0.018203,0.309775,0.319520,-0.662524,-0.602502,94.708672,-1.457979,-127.163333
46724,NaN,0.168081,9.661167,-1.021366,0.227209,-0.070726,-0.099142,0.022121,0.033469,0.032879,0.309938,0.319515,-0.662619,-0.602316,94.722886,-1.480885,-127.149654
46725,NaN,0.286502,9.742363,-0.883179,0.042603,-0.071403,-0.026533,0.020459,0.039765,0.046078,0.310163,0.319485,-0.662720,-0.602105,94.736065,-1.511404,-127.132943
46726,NaN,0.282291,9.789527,-0.849640,0.017764,-0.039022,0.017601,0.016001,0.043045,0.049071,0.310416,0.319445,-0.662809,-0.601899,94.746682,-1.544049,-127.114766
46727,NaN,0.242665,9.781210,-0.784340,-0.007919,0.036873,0.002847,0.017502,0.041414,0.053883,0.310675,0.319389,-0.662910,-0.601683,94.758133,-1.579109,-127.097497
46728,NaN,0.259284,9.861576,-0.689084,-0.095967,0.092871,0.075432,0.026056,0.032286,0.057202,0.310900,0.319305,-0.663058,-0.601448,94.774650,-1.615909,-127.085918
46729,NaN,0.284017,9.931754,-0.696827,-0.106653,0.080006,0.146640,0.021491,0.021862,0.052498,0.311083,0.319200,-0.663200,-0.601252,94.788681,-1.649254,-127.079767
46730,NaN,0.292991,9.937020,-0.722348,-0.090653,0.063794,0.154244,0.021249,0.007971,0.046372,0.311203,0.319073,-0.663354,-0.601088,94.802835,-1.678667,-127.081414
46731,NaN,0.380527,9.904160,-0.743074,-0.124002,-0.015830,0.125809,0.011857,-0.002142,0.041149,0.311288,0.318919,-0.663485,-0.600980,94.811729,-1.704382,-127.088444
46732,NaN,0.400790,9.867499,-0.826434,-0.067193,-0.080670,0.096911,0.015172,-0.001229,0.024020,0.311319,0.318827,-0.663600,-0.600886,94.822553,-1.720630,-127.094479
46733,NaN,0.457879,9.790352,-0.862123,-0.069359,-0.150350,0.024817,0.013097,0.003717,0.016244,0.311347,0.318775,-0.663687,-0.600803,94.832025,-1.732407,-127.096970
46734,NaN,0.454830,9.784641,-0.840140,-0.085384,-0.132987,0.017213,0.016990,0.001312,0.002074,0.311318,0.318766,-0.663768,-0.600734,94.843777,-1.736260,-127.100507
46735,NaN,0.439297,9.719606,-0.859578,-0.058758,-0.135875,-0.046384,0.014414,0.003101,-0.007652,0.311270,0.318794,-0.663822,-0.600685,94.853980,-1.734364,-127.102197
46736,NaN,0.429237,9.745683,-0.881844,-0.038229,-0.138746,-0.018836,0.017210,0.003282,-0.018509,0.311186,0.318860,-0.663867,-0.600643,94.865736,-1.726565,-127.103554
46737,NaN,0.446098,9.816110,-0.888872,-0.048940,-0.151582,0.052390,0.013638,0.009857,-0.031106,0.311091,0.318985,-0.663870,-0.600623,94.875344,-1.711607,-127.100243
46738,NaN,0.415958,9.915986,-0.896622,-0.032688,-0.125995,0.151588,0.014839,0.020570,-0.039575,0.311003,0.319168,-0.663849,-0.600594,94.885539,-1.692638,-127.090882
46739,NaN,0.344598,9.976389,-0.793344,-0.078575,-0.004842,0.200817,0.012603,0.027351,-0.050405,0.310910,0.319408,-0.663791,-0.600579,94.894235,-1.667518,-127.076632
46740,NaN,0.265282,9.982874,-0.754841,-0.065774,0.079319,0.201668,0.014458,0.039387,-0.053884,0.310845,0.319698,-0.663715,-0.600542,94.903878,-1.641171,-127.055214
46741,NaN,0.207563,9.942567,-0.698327,-0.078046,0.153517,0.155047,0.013360,0.030875,-0.051602,0.310758,0.319954,-0.663652,-0.600521,94.912961,-1.615546,-127.038885
46742,NaN,0.224916,9.874418,-0.737433,-0.057793,0.108829,0.091016,0.015827,0.026480,-0.048528,0.310664,0.320189,-0.663608,-0.600493,94.923498,-1.591681,-127.025191
46743,NaN,0.206911,9.750794,-0.745246,-0.038354,0.107600,-0.031934,0.021810,0.019555,-0.042080,0.310555,0.320392,-0.663603,-0.600446,94.937628,-1.570940,-127.015786
46744,NaN,0.194431,9.776801,-0.768236,-0.017816,0.104718,-0.004398,0.023769,0.003335,-0.033749,0.310416,0.320520,-0.663642,-0.600406,94.953109,-1.554375,-127.016049
46745,NaN,0.189150,9.706708,-0.914710,0.102125,0.016045,-0.061689,0.027141,-0.008040,-0.021607,0.310269,0.320581,-0.663729,-0.600355,94.970751,-1.543957,-127.023405
46746,NaN,0.256826,9.731814,-1.001080,0.125784,-0.087235,-0.027347,0.022928,-0.013064,-0.014555,0.310134,0.320596,-0.663822,-0.600313,94.986019,-1.537516,-127.033897
46747,NaN,0.321380,9.735831,-0.940340,0.035578,-0.101370,-0.026861,0.023421,-0.009904,-0.012610,0.310013,0.320615,-0.663914,-0.600263,95.001568,-1.532138,-127.042760
46748,NaN,0.316087,9.745714,-1.042442,0.117397,-0.156389,-0.008234,0.018017,-0.005869,-0.003263,0.309943,0.320605,-0.664001,-0.600209,95.014000,-1.532544,-127.050003
46749,NaN,0.311924,9.740033,-1.020809,0.101365,-0.139075,-0.015853,0.019335,0.005445,-0.000475,0.309916,0.320623,-0.664076,-0.600129,95.026991,-1.534856,-127.050708
46750,NaN,0.345327,9.731234,-1.018648,0.078905,-0.163518,-0.023875,0.011096,0.010893,0.002274,0.309930,0.320635,-0.664124,-0.600063,95.035234,-1.539212,-127.048460
46751,NaN,0.342597,9.688608,-0.928316,0.010366,-0.109167,-0.074297,0.007318,0.013059,0.002037,0.309955,0.320650,-0.664156,-0.600006,95.041226,-1.543341,-127.044946
46752,NaN,0.313273,9.724197,-0.900342,0.003467,-0.065069,-0.042093,0.008654,0.013271,0.003810,0.309984,0.320659,-0.664196,-0.599942,95.047977,-1.548763,-127.041656
46753,NaN,0.295269,9.797776,-0.887161,-0.000805,-0.036049,0.029536,0.011357,0.011252,-0.000864,0.309989,0.320684,-0.664239,-0.599880,95.056306,-1.551147,-127.039028
46754,NaN,0.293260,9.877803,-0.844584,-0.038936,-0.001785,0.105417,0.014553,0.012394,-0.003591,0.309983,0.320724,-0.664286,-0.599808,95.066571,-1.552258,-127.035813
46755,NaN,0.377835,9.952487,-0.788771,-0.139832,-0.029133,0.177133,0.016995,0.010016,-0.005127,0.309961,0.320769,-0.664341,-0.599736,95.078144,-1.552147,-127.033675
46756,NaN,0.368656,9.941455,-0.743529,-0.171807,0.005043,0.161867,0.017460,0.014759,-0.020644,0.309909,0.320878,-0.664364,-0.599678,95.089872,-1.543625,-127.027985
46757,NaN,0.322842,9.868874,-0.845725,-0.061460,-0.025153,0.097395,0.015963,0.016381,-0.025471,0.309849,0.321008,-0.664373,-0.599630,95.100729,-1.532228,-127.021178
46758,NaN,0.259205,9.832932,-0.866322,-0.007794,0.010231,0.061729,0.022024,0.013671,-0.029820,0.309757,0.321149,-0.664399,-0.599573,95.115052,-1.518514,-127.016036
46759,NaN,0.242741,9.875008,-0.810019,-0.048561,0.059519,0.098162,0.020197,0.010297,-0.033540,0.309646,0.321294,-0.664416,-0.599534,95.128418,-1.502205,-127.012284
46760,NaN,0.285652,9.845768,-0.810900,-0.075569,0.021737,0.070233,0.020196,0.010298,-0.033542,0.309534,0.321434,-0.664436,-0.599494,95.141822,-1.486194,-127.008964
46761,NaN,0.325174,9.789473,-0.844029,-0.073300,-0.034676,0.018149,0.019772,0.011773,-0.033460,0.309429,0.321582,-0.664451,-0.599453,95.154924,-1.470008,-127.004366
46762,NaN,0.333359,9.827409,-0.860610,-0.070683,-0.049149,0.057588,0.020946,0.013820,-0.034742,0.309326,0.321742,-0.664464,-0.599406,95.168703,-1.453383,-126.998458
46763,NaN,0.257002,9.790292,-0.934101,0.032794,-0.035856,0.025303,0.011525,0.017216,-0.030725,0.309260,0.321884,-0.664449,-0.599380,95.177008,-1.439041,-126.990888
46764,NaN,0.217576,9.771693,-0.971261,0.084532,-0.028929,0.009160,0.013609,0.020952,-0.030149,0.309206,0.322038,-0.664437,-0.599339,95.186477,-1.425425,-126.981204
