// General information: 
//  MT Manager version: 2019.0.1 
//  XDA version: 2019.0.1 build 2740 rev 84096 built on 2019-01-30
// Device information: 
//  DeviceId: 00B4381A
//  ProductCode: MTW2-3A7G6
//  Firmware Version: 4.3.4
//  Hardware Version: 1.1.0
// Device settings: 
//  Filter Profile: human(46.1)
//  Option Flags: Orientation Smoother Disabled, AHS Disabled, ICC Disabled
// Coordinate system: ENU
PacketCounter,SampleTimeFine,Acc_X,Acc_Y,Acc_Z,FreeAcc_E,FreeAcc_N,FreeAcc_U,Gyr_X,Gyr_Y,Gyr_Z,Quat_q0,Quat_q1,Quat_q2,Quat_q3,Roll,Pitch,Yaw
31814,NaN,-5.952671,3.233815,4.565153,-1.338445,-0.020412,-1.754317,-0.950330,-1.607159,1.924225,-0.394352,0.342632,-0.341375,-0.781379,26.321992,53.580717,139.908151
31815,NaN,-6.115379,2.909173,4.545805,-0.826276,-0.065551,-1.698790,-0.919149,-1.546141,1.997272,-0.387639,0.334945,-0.338140,-0.789436,26.626245,52.277859,140.942436
31816,NaN,-6.383786,2.712459,4.556212,-0.370202,-0.169869,-1.524134,-0.823474,-1.485751,2.102821,-0.380490,0.327050,-0.335524,-0.797301,27.027890,50.972365,142.047989
31817,NaN,-6.438758,2.689609,4.566385,-0.149408,-0.260181,-1.479013,-0.723020,-1.432996,2.210026,-0.372927,0.318956,-0.333514,-0.804960,27.515184,49.662708,143.212111
31818,NaN,-6.563948,2.420076,4.582204,0.318701,-0.234375,-1.459316,-0.591933,-1.380399,2.342251,-0.364875,0.310528,-0.332286,-0.812419,28.118147,48.334871,144.451476
31819,NaN,-6.694404,2.222220,4.629870,0.735030,-0.200750,-1.410029,-0.418327,-1.342884,2.487678,-0.356376,0.301653,-0.331983,-0.819628,28.849685,46.979274,145.757810
31820,NaN,-6.867045,2.191906,4.670843,1.060887,-0.256826,-1.293191,-0.239937,-1.318845,2.599518,-0.347565,0.292289,-0.332561,-0.826540,29.686373,45.589980,147.096254
31821,NaN,-7.158338,1.875223,4.769071,1.681361,-0.143938,-1.172683,-0.060029,-1.334143,2.719343,-0.338479,0.282306,-0.333950,-0.833194,30.610739,44.147050,148.447189
31822,NaN,-7.266563,1.791810,4.732007,2.065396,-0.171623,-1.204292,0.139239,-1.364524,2.826704,-0.329190,0.271594,-0.336197,-0.839549,31.621375,42.639077,149.792386
31823,NaN,-6.972874,1.789590,4.590231,2.166080,-0.160480,-1.556146,0.310320,-1.383594,2.893443,-0.319809,0.260359,-0.339129,-0.845533,32.679318,41.086513,151.102678
31824,NaN,-6.421067,1.733108,4.250128,2.163985,-0.163539,-2.224365,0.473822,-1.369764,2.932779,-0.310361,0.248767,-0.342743,-0.851069,33.780210,39.507884,152.374883
31825,NaN,-5.455581,1.914238,3.739183,1.706949,-0.277243,-3.148243,0.575031,-1.271716,2.869180,-0.301067,0.237499,-0.346765,-0.855983,34.870366,37.980198,153.581212
31826,NaN,-4.805437,2.075742,3.226489,1.429990,-0.494604,-3.852913,0.629566,-1.067247,2.741665,-0.291950,0.227170,-0.351100,-0.860167,35.938423,36.570800,154.738414
31827,NaN,-4.671562,2.300214,2.868328,1.415049,-0.809731,-4.095908,0.660511,-0.760688,2.573426,-0.283000,0.218380,-0.355745,-0.863520,36.990622,35.345264,155.876157
31828,NaN,-4.838355,2.671510,2.703639,1.477606,-1.158896,-3.953681,0.677364,-0.422030,2.406421,-0.274130,0.211271,-0.360702,-0.866090,38.039893,34.313272,157.022600
31829,NaN,-5.552559,3.160813,2.695651,1.856957,-1.620991,-3.331164,0.670566,-0.094840,2.226501,-0.265409,0.205897,-0.365830,-0.867947,39.073349,33.477171,158.176670
31830,NaN,-6.753092,3.677845,2.999719,2.566173,-1.985091,-2.223189,0.717940,0.161937,2.108191,-0.256739,0.201750,-0.371341,-0.869188,40.133567,32.778503,159.352298
31831,NaN,-7.725218,4.295361,3.252843,3.076197,-2.334667,-1.222405,0.770086,0.295593,2.018534,-0.248239,0.198273,-0.377109,-0.869974,41.205165,32.154990,160.516076
31832,NaN,-7.986375,4.652763,3.292259,3.230082,-2.459864,-0.880649,0.806151,0.319704,1.966669,-0.239919,0.194920,-0.382975,-0.870503,42.268317,31.541926,161.643396
31833,NaN,-7.811758,4.694336,3.270277,3.226534,-2.321591,-0.983687,0.854517,0.281455,1.922490,-0.231891,0.191416,-0.388912,-0.870824,43.316629,30.913909,162.710185
31834,NaN,-7.197258,4.589246,3.173303,2.945784,-2.050202,-1.443245,0.931874,0.233958,1.854003,-0.224296,0.187719,-0.395030,-0.870864,44.361947,30.275780,163.702258
31835,NaN,-6.368015,4.597290,2.711817,2.457845,-2.093359,-2.156636,1.015375,0.234101,1.746142,-0.217231,0.184131,-0.401361,-0.870526,45.409507,29.666948,164.623375
31836,NaN,-5.503001,4.647503,2.081362,1.914476,-2.306373,-2.940426,1.094300,0.341068,1.620479,-0.210544,0.181150,-0.408004,-0.869706,46.483184,29.137000,165.519934
31837,NaN,-6.293120,5.978928,2.581043,1.939342,-2.716099,-1.394220,1.529852,0.762709,1.658348,-0.203206,0.179451,-0.416962,-0.867552,47.896605,28.739306,166.617835
31838,NaN,-5.975445,11.478754,10.890806,-2.152093,1.106722,6.926739,1.542011,1.629328,1.796032,-0.193435,0.181177,-0.426914,-0.864582,49.538823,28.583847,168.185644
31839,NaN,-4.784288,11.300872,17.048022,-4.121984,6.747061,9.647474,0.401312,3.573149,1.353991,-0.180342,0.193304,-0.433282,-0.861613,50.916174,29.300100,170.544771
31840,NaN,-9.691420,3.131523,10.872484,4.696261,5.983600,2.995341,0.367868,4.575909,0.729914,-0.167646,0.211037,-0.439617,-0.856794,52.465512,30.599217,173.212742
31841,NaN,-11.113882,6.528169,6.570437,4.889501,0.901130,3.772613,0.858432,4.003921,0.733509,-0.156634,0.225806,-0.447357,-0.851087,54.222497,31.634786,175.649480
31842,NaN,-9.661194,9.738278,2.997088,2.882895,-3.322839,3.521195,0.610987,2.920602,0.820762,-0.147337,0.235884,-0.453148,-0.846940,55.597062,32.214466,177.575500
31843,NaN,-9.234093,8.948007,1.057719,3.390307,-4.235420,1.892772,0.070789,1.888924,0.760800,-0.139973,0.242091,-0.455741,-0.845044,56.362392,32.461899,178.919897
31844,NaN,-9.495131,8.324200,1.512351,3.802900,-3.397790,1.837617,-0.438664,0.688672,0.610776,-0.135349,0.243909,-0.455135,-0.845601,56.446120,32.391620,179.533242
31845,NaN,-9.335117,8.346877,3.689095,3.095163,-1.624859,2.765150,-1.121092,-0.542213,0.423277,-0.133485,0.241404,-0.450562,-0.849058,55.729050,32.020238,179.382514
31846,NaN,-8.766477,8.023130,4.899959,2.504884,-0.630503,2.779060,-1.703903,-1.555155,0.048126,-0.134777,0.235814,-0.442353,-0.854723,54.314234,31.489957,178.537165
31847,NaN,-5.852432,6.728736,5.504405,0.522691,0.400739,0.646031,-1.811796,-2.055739,-0.243228,-0.138276,0.228762,-0.432924,-0.860886,52.655122,30.904054,177.327525
31848,NaN,-0.707126,5.489223,6.329260,-3.493071,1.795616,-2.378783,-1.588043,-1.775031,-0.384660,-0.142007,0.223034,-0.424425,-0.865998,51.193207,30.453368,176.233149
31849,NaN,1.307962,4.107396,7.570244,-4.914181,3.618263,-3.595918,-1.106280,-0.945971,-0.430416,-0.144701,0.220626,-0.418500,-0.869048,50.224403,30.303722,175.559745
31850,NaN,2.679074,3.251352,8.185956,-5.888389,4.662378,-4.488450,-0.517798,0.201363,-0.390357,-0.145463,0.222685,-0.415997,-0.869597,49.898630,30.551704,175.490082
31851,NaN,0.687915,2.686697,8.337539,-4.040458,4.980248,-3.806313,0.106090,1.486916,-0.221639,-0.143509,0.229522,-0.417310,-0.867512,50.303915,31.198265,176.150464
31852,NaN,-3.218182,3.062337,7.643038,-0.801405,4.047280,-1.994482,0.807722,2.296677,0.218868,-0.138741,0.238419,-0.422712,-0.863262,51.445171,31.933335,177.435358
31853,NaN,-5.716129,4.190762,6.331506,1.073875,2.411873,-0.683176,1.287046,2.626989,0.755413,-0.131509,0.247237,-0.430970,-0.857814,53.102334,32.514900,179.149485
31854,NaN,-8.094675,5.089846,5.480893,2.850167,1.452203,0.733791,1.490578,2.564670,1.217268,-0.122647,0.254592,-0.440526,-0.852102,54.983794,32.815457,-178.957337
31855,NaN,-10.209025,5.950723,4.464225,4.543764,0.513201,1.962011,1.555936,2.060975,1.532778,-0.113607,0.259011,-0.450347,-0.846873,56.824637,32.753352,-177.214606
31856,NaN,-10.733372,6.845114,3.592532,4.935294,-0.331768,2.454738,1.552928,1.261219,1.740543,-0.105459,0.259522,-0.459879,-0.842638,58.446298,32.300778,-175.863579
31857,NaN,-9.959003,7.304162,3.233714,4.324219,-0.628616,2.182633,1.551613,0.451116,1.812508,-0.098854,0.256418,-0.468998,-0.839356,59.808128,31.545525,-174.980087
31858,NaN,-8.460506,8.076280,3.081604,2.941138,-1.044866,1.872970,1.554277,-0.105245,1.760290,-0.093762,0.251063,-0.477719,-0.836637,60.970131,30.642553,-174.465058
31859,NaN,-6.336417,9.174790,2.820599,0.931727,-1.826286,1.504325,1.462450,-0.507671,1.549765,-0.090384,0.244537,-0.485542,-0.834435,61.909262,29.727263,-174.274955
31860,NaN,-4.796786,10.036790,2.630721,-0.529944,-2.412762,1.348041,1.202290,-0.793903,1.200955,-0.088830,0.237759,-0.491673,-0.832969,62.555100,28.910500,-174.374249
31861,NaN,-3.655419,10.666585,2.483773,-1.603380,-2.850164,1.260322,0.786958,-0.981410,0.828185,-0.088788,0.231281,-0.495513,-0.832522,62.855453,28.234729,-174.700735
31862,NaN,-2.861513,10.302596,2.860217,-2.185105,-2.357217,0.778858,0.379303,-1.033309,0.499804,-0.089767,0.225572,-0.497231,-0.832959,62.865748,27.713753,-175.154466
31863,NaN,-2.078118,9.431777,3.513982,-2.672311,-1.408543,0.010731,0.075370,-0.897489,0.253098,-0.091089,0.221171,-0.497450,-0.833864,62.708299,27.353407,-175.600605
31864,NaN,-2.005744,8.466242,4.310119,-2.554625,-0.257277,-0.448663,-0.079599,-0.625754,0.082644,-0.092272,0.218393,-0.496954,-0.834762,62.513620,27.150077,-175.939162
31865,NaN,-2.378444,7.281735,4.952761,-1.934521,0.893398,-0.943080,-0.036404,-0.307399,0.016627,-0.092987,0.217088,-0.496706,-0.835170,62.418302,27.063957,-176.114876
31866,NaN,-3.770991,6.051888,5.495773,-0.373420,2.056168,-1.055865,0.198357,-0.073824,0.114358,-0.092967,0.216403,-0.497655,-0.834785,62.531904,26.989717,-176.127999
31867,NaN,-4.672267,5.315525,5.586020,0.694575,2.581508,-1.202136,0.484152,0.099848,0.419268,-0.091553,0.215552,-0.500202,-0.833639,62.894220,26.806220,-175.952684
31868,NaN,-4.961903,5.448169,5.187974,1.042972,2.255667,-1.150040,0.731060,0.239162,0.796141,-0.088482,0.214220,-0.504239,-0.831880,63.481054,26.464420,-175.590756
31869,NaN,-4.811318,6.394910,4.615815,0.771400,1.392980,-0.712553,0.904947,0.335236,1.139605,-0.083924,0.212337,-0.509386,-0.829696,64.229495,25.966774,-175.082933
31870,NaN,-4.147995,7.400986,4.063845,0.042019,0.509837,-0.419523,1.026695,0.374755,1.340049,-0.078557,0.210042,-0.515235,-0.827191,65.072357,25.368562,-174.507966
31871,NaN,-3.607449,8.429944,3.327776,-0.514135,-0.520993,-0.085740,1.075723,0.390522,1.405693,-0.072924,0.207608,-0.521321,-0.824503,65.943470,24.732377,-173.919542
31872,NaN,-3.304879,8.825023,3.074928,-0.757328,-0.807062,0.037743,1.098136,0.437573,1.397707,-0.067218,0.205362,-0.527466,-0.821637,66.826142,24.102884,-173.319790
31873,NaN,-3.080115,8.833274,3.277871,-0.926987,-0.507347,0.043233,1.085244,0.516612,1.341566,-0.061516,0.203578,-0.533483,-0.818638,67.703178,23.512463,-172.701419
31874,NaN,-3.221784,8.892492,3.840603,-0.888337,0.133377,0.355768,1.035630,0.539808,1.192733,-0.056305,0.202284,-0.539113,-0.815640,68.533106,22.997458,-172.116459
31875,NaN,-3.540545,9.213314,3.201796,-0.460499,-0.398709,0.545855,0.964057,0.433835,0.940466,-0.052333,0.201247,-0.544133,-0.812822,69.268282,22.588461,-171.659052
31876,NaN,-4.276889,9.526074,2.666043,0.310965,-0.788380,0.930970,0.891218,0.233681,0.660854,-0.049966,0.200167,-0.548502,-0.810298,69.889149,22.284250,-171.384858
31877,NaN,-4.230341,9.257257,2.503578,0.427435,-0.732237,0.634362,0.866271,-0.026660,0.441725,-0.049176,0.198635,-0.552470,-0.808024,70.418572,22.045341,-171.312017
31878,NaN,-4.102029,8.650381,2.935596,0.402661,-0.036116,0.192784,0.856338,-0.232509,0.319896,-0.049433,0.196604,-0.556214,-0.805934,70.887083,21.832292,-171.386411
31879,NaN,-3.821720,8.272538,3.272135,0.196034,0.451930,-0.142935,0.862277,-0.315234,0.289069,-0.050052,0.194322,-0.559917,-0.803882,71.338400,21.621522,-171.516988
31880,NaN,-3.254651,8.164297,3.433669,-0.306338,0.638501,-0.403304,0.878345,-0.291946,0.325453,-0.050472,0.192021,-0.563714,-0.801753,71.806426,21.395858,-171.628472
31881,NaN,-2.851511,8.195340,3.262688,-0.614848,0.496618,-0.576102,0.930442,-0.190162,0.388783,-0.050401,0.189933,-0.567790,-0.799374,72.329938,21.154847,-171.670355
31882,NaN,-2.576422,8.281063,3.042891,-0.810725,0.317110,-0.663126,0.998824,-0.031422,0.477928,-0.049585,0.188201,-0.572249,-0.796651,72.931120,20.892284,-171.605380
31883,NaN,-2.779829,8.269461,2.988615,-0.574292,0.402642,-0.617570,1.089998,0.154963,0.623634,-0.047742,0.186769,-0.577233,-0.793499,73.630900,20.580168,-171.408666
31884,NaN,-2.908807,8.372635,2.946636,-0.435826,0.467453,-0.494165,1.166612,0.338320,0.807817,-0.044705,0.185502,-0.582711,-0.789961,74.420037,20.192731,-171.078048
31885,NaN,-3.238044,8.451563,2.895695,-0.091441,0.579752,-0.328364,1.239006,0.505526,1.014951,-0.040430,0.184267,-0.588667,-0.786055,75.290844,19.711731,-170.622951
31886,NaN,-2.864182,8.132518,2.242464,-0.132797,0.155180,-0.906171,1.366304,0.635034,1.172017,-0.035268,0.183035,-0.595247,-0.781624,76.260511,19.154492,-170.077916
31887,NaN,-3.194021,7.510310,3.710858,0.047165,1.930304,-1.057907,1.407867,0.639759,1.301085,-0.029625,0.181416,-0.602051,-0.777011,77.251539,18.517606,-169.524252
31888,NaN,-4.589295,8.171906,2.802153,1.472645,1.305294,-0.230547,1.496074,0.635384,1.502695,-0.023286,0.179137,-0.609311,-0.772080,78.289239,17.757711,-168.961721
31889,NaN,-4.375426,8.433865,2.312200,1.425036,0.926255,-0.183155,1.512157,0.505565,1.629113,-0.016868,0.175949,-0.616656,-0.767133,79.305464,16.903263,-168.477661
31890,NaN,-4.003840,8.463799,2.197341,1.208647,0.927127,-0.316871,1.525811,0.295222,1.677959,-0.010920,0.171779,-0.623996,-0.762235,80.283419,15.991778,-168.130058
31891,NaN,-3.447595,8.538543,2.230084,0.777068,1.009757,-0.424462,1.489797,0.065599,1.652160,-0.005755,0.166795,-0.631086,-0.757546,81.194380,15.068569,-167.936797
31892,NaN,-2.851454,8.762407,2.302001,0.267878,1.080097,-0.380408,1.442976,-0.112195,1.609280,-0.001274,0.161254,-0.637880,-0.753063,82.043969,14.151961,-167.867031
31893,NaN,-2.447556,9.090576,2.277973,-0.052360,1.075208,-0.186893,1.389571,-0.240983,1.601437,0.002810,0.155236,-0.644395,-0.748765,82.841061,13.229330,-167.886870
31894,NaN,-1.862625,9.399407,2.228297,-0.525616,1.011027,-0.041218,1.257509,-0.303337,1.628399,0.006896,0.148877,-0.650362,-0.744861,83.551914,12.287390,-167.953724
31895,NaN,-2.011815,9.671026,2.420757,-0.333885,1.333896,0.264107,1.133434,-0.295121,1.699764,0.011366,0.142298,-0.655853,-0.741268,84.192926,11.306199,-168.022293
31896,NaN,-2.925345,9.801561,2.981618,0.554028,2.188408,0.599709,1.096092,-0.425874,1.767866,0.015686,0.134991,-0.661187,-0.737810,84.797570,10.279677,-168.173739
31897,NaN,-4.007993,10.597368,2.911335,1.676259,2.381252,1.516847,1.117503,-0.735197,1.846761,0.019257,0.126270,-0.666600,-0.734390,85.386504,9.194648,-168.510590
31898,NaN,-5.000294,11.476010,2.868167,2.746915,2.582390,2.463566,1.181285,-0.979684,1.962762,0.022396,0.116251,-0.672244,-0.730802,85.995665,8.036409,-168.994236
31899,NaN,-5.800317,12.204151,2.824946,3.703164,2.770770,3.193675,1.264535,-1.192915,2.042601,0.025058,0.105176,-0.678156,-0.726921,86.646279,6.829940,-169.609101
31900,NaN,-4.310742,12.654255,2.447892,2.544163,2.258465,3.344907,1.291976,-1.161088,2.042084,0.027805,0.094205,-0.684034,-0.722807,87.324975,5.632308,-170.218332
31901,NaN,-2.765132,13.100046,2.289252,1.277861,1.989835,3.562555,1.201500,-0.838256,1.949492,0.031362,0.084687,-0.689392,-0.718738,87.980288,4.501964,-170.656772
31902,NaN,-2.431939,14.088088,2.293140,1.124704,2.068535,4.473525,0.975664,-0.488870,1.777748,0.035594,0.076973,-0.693713,-0.715241,88.526107,3.481366,-170.909004
31903,NaN,-3.081028,14.772995,2.142573,1.983494,2.152055,5.145690,0.721020,-0.270410,1.609786,0.040082,0.070568,-0.696964,-0.712499,88.937604,2.561239,-171.046178
31904,NaN,-3.527617,15.151840,2.460486,2.577075,2.644471,5.498649,0.473563,-0.221613,1.432395,0.044187,0.064904,-0.699204,-0.710598,89.208720,1.744853,-171.162542
31905,NaN,-4.288721,15.375399,2.852136,3.467119,3.222278,5.696111,0.264455,-0.408493,1.261455,0.047103,0.059120,-0.700660,-0.709480,89.360350,1.024663,-171.390062
31906,NaN,-4.713123,15.264244,2.972777,4.061373,3.440059,5.540366,0.117899,-0.742857,1.057329,0.048157,0.052834,-0.701572,-0.709003,89.426468,0.421005,-171.811829
31907,NaN,-4.003758,14.616715,3.332486,3.478064,3.701898,4.849541,0.016666,-0.917547,0.800838,0.047721,0.046796,-0.702084,-0.708950,89.439870,-0.037579,-172.335417
31908,NaN,-2.993440,13.953733,3.809349,2.540667,4.035108,4.167311,-0.015542,-0.729508,0.574330,0.047139,0.042220,-0.702350,-0.709013,89.435976,-0.363695,-172.752675
31909,NaN,-3.021262,13.276065,4.196274,2.605231,4.425161,3.477192,0.021792,-0.377415,0.438011,0.047311,0.039369,-0.702640,-0.708879,89.455906,-0.611292,-172.968923
31910,NaN,-3.097411,12.453613,4.061725,2.745240,4.317955,2.637322,0.114574,-0.032074,0.361152,0.048394,0.038045,-0.703141,-0.708381,89.524920,-0.811029,-172.987976
31911,NaN,-2.401658,11.535822,3.733288,2.108568,3.943895,1.710335,0.254368,0.394291,0.288337,0.050703,0.038511,-0.704033,-0.707308,89.672777,-0.969197,-172.763306
31912,NaN,-1.423076,10.703502,3.244487,1.181302,3.389182,0.875363,0.447121,0.936008,0.194786,0.054536,0.041281,-0.705420,-0.705482,89.922200,-1.071222,-172.229021
31913,NaN,-0.397615,10.184297,2.863500,0.173543,2.938432,0.356506,0.693850,1.553027,0.076041,0.060087,0.046701,-0.707468,-0.702637,90.308457,-1.111109,-171.341503
31914,NaN,0.564928,9.838501,2.499334,-0.792382,2.500352,0.009806,0.933887,2.191390,-0.087941,0.067242,0.055022,-0.710033,-0.698788,90.822256,-1.065193,-170.087688
31915,NaN,1.172500,9.685432,2.154754,-1.424142,2.118139,-0.153009,1.135830,2.759674,-0.311562,0.075579,0.066168,-0.712941,-0.693992,91.451374,-0.912563,-168.505327
31916,NaN,1.373838,9.417057,1.634463,-1.633671,1.615631,-0.434030,1.272780,3.211361,-0.579813,0.084516,0.079884,-0.715854,-0.688497,92.158205,-0.630384,-166.657975
31917,NaN,1.471248,9.146783,1.025328,-1.713596,1.036879,-0.709588,1.350949,3.435036,-0.850703,0.093276,0.095334,-0.718616,-0.682497,92.923102,-0.225084,-164.672274
31918,NaN,1.127855,9.053791,0.648356,-1.418908,0.798415,-0.812081,1.256087,3.386147,-1.173647,0.100754,0.111710,-0.720644,-0.676788,93.647297,0.343318,-162.699063
31919,NaN,0.304069,8.899436,0.112050,-0.621721,0.557826,-0.946737,1.016902,3.084917,-1.536636,0.106033,0.128205,-0.721586,-0.672038,94.258642,1.105482,-160.876921
31920,NaN,-0.814423,8.600452,0.086610,0.284205,0.908456,-1.226088,0.704661,2.621908,-1.879203,0.108643,0.144187,-0.721268,-0.668714,94.708679,2.069848,-159.296724
31921,NaN,-1.700432,8.222524,0.141790,0.926910,1.261856,-1.562426,0.434684,2.096218,-2.147634,0.108642,0.159186,-0.719980,-0.666698,95.023149,3.199737,-157.996189
31922,NaN,-2.195669,8.001661,0.355444,1.124785,1.622122,-1.745848,0.231323,1.592866,-2.344573,0.106295,0.173082,-0.717952,-0.665799,95.227019,4.464807,-156.967174
31923,NaN,-2.581231,7.883195,0.425242,1.259982,1.800870,-1.803072,0.130076,1.180467,-2.445301,0.102214,0.185868,-0.715602,-0.665522,95.379134,5.803040,-156.162878
31924,NaN,-2.854209,8.100480,0.337950,1.308225,1.796743,-1.509986,0.104605,0.862172,-2.459044,0.096937,0.197610,-0.713166,-0.665543,95.512448,7.167614,-155.535787
31925,NaN,-3.088541,8.297025,0.184358,1.347090,1.706481,-1.228796,0.030054,0.676577,-2.382347,0.091328,0.208381,-0.710554,-0.665845,95.606274,8.494306,-155.014718
31926,NaN,-2.990585,8.210459,0.039834,1.141019,1.466810,-1.274532,-0.142422,0.612372,-2.262587,0.086036,0.218415,-0.707395,-0.666697,95.603237,9.759352,-154.535377
31927,NaN,-2.716574,7.917990,-0.055731,0.823308,1.184111,-1.566789,-0.340687,0.615219,-2.133780,0.081409,0.227877,-0.703644,-0.668080,95.499006,10.947765,-154.060389
31928,NaN,-2.530337,7.528919,-0.102780,0.614545,0.976874,-1.953696,-0.515263,0.648907,-1.990513,0.077658,0.236994,-0.699283,-0.669931,95.299569,12.059661,-153.555508
31929,NaN,-2.318864,7.154912,-0.138722,0.406630,0.770516,-2.340846,-0.659836,0.682532,-1.860056,0.074533,0.245538,-0.694588,-0.672089,95.034982,13.091508,-153.060053
31930,NaN,-2.152149,6.870550,-0.111232,0.212298,0.639627,-2.643803,-0.786159,0.740801,-1.784169,0.072088,0.254067,-0.689379,-0.674544,94.706717,14.085342,-152.521031
31931,NaN,-2.060176,6.594636,-0.099256,0.104341,0.531553,-2.924386,-0.859514,0.808192,-1.712548,0.070127,0.262394,-0.683999,-0.677035,94.359369,15.032537,-151.965998
31932,NaN,-2.019939,6.380920,-0.218611,0.095503,0.332116,-3.125122,-0.884780,0.892996,-1.675889,0.068682,0.270973,-0.678387,-0.679446,94.012270,15.964280,-151.349050
31933,NaN,-1.986590,6.260076,-0.282589,0.051110,0.187948,-3.241841,-0.842544,0.988330,-1.628269,0.067580,0.279571,-0.672964,-0.681463,93.719486,16.862532,-150.696594
31934,NaN,-2.018009,6.196230,-0.371856,0.060850,0.054635,-3.286101,-0.774139,1.070614,-1.606407,0.066791,0.288479,-0.667621,-0.683082,93.483975,17.753888,-149.982709
31935,NaN,-2.188413,6.250756,-0.567161,0.202913,-0.107196,-3.169700,-0.684652,1.151608,-1.591344,0.066123,0.297501,-0.662587,-0.684178,93.330887,18.630444,-149.234523
31936,NaN,-2.358822,6.453122,-0.685095,0.258558,-0.210402,-2.916003,-0.578423,1.226572,-1.568489,0.065672,0.306808,-0.657773,-0.684755,93.259300,19.498512,-148.426866
31937,NaN,-2.685594,6.744018,-0.876617,0.441768,-0.304722,-2.520652,-0.509533,1.281757,-1.564992,0.065246,0.316180,-0.653192,-0.684919,93.256511,20.357611,-147.594964
31938,NaN,-3.146076,7.071282,-1.031675,0.688420,-0.301418,-2.040979,-0.470800,1.341705,-1.561201,0.065004,0.325811,-0.648581,-0.684810,93.297432,21.217896,-146.710606
31939,NaN,-3.506769,7.390099,-1.120046,0.810554,-0.285245,-1.601347,-0.422819,1.385277,-1.539328,0.064849,0.335410,-0.644158,-0.684364,93.394705,22.057652,-145.805029
31940,NaN,-3.791029,7.742467,-1.171484,0.829323,-0.280020,-1.156893,-0.368998,1.415624,-1.498030,0.064873,0.345044,-0.639834,-0.683629,93.539750,22.876613,-144.864910
31941,NaN,-4.131550,8.058728,-1.160217,0.856207,-0.183856,-0.724739,-0.323132,1.400134,-1.461777,0.064847,0.354402,-0.635738,-0.682665,93.726502,23.667259,-143.937842
31942,NaN,-4.417300,8.293738,-1.119486,0.842497,-0.078185,-0.387471,-0.274295,1.321448,-1.413267,0.064671,0.363392,-0.631788,-0.681622,93.931264,24.435881,-143.045041
31943,NaN,-4.606822,8.371474,-1.105068,0.825109,-0.015568,-0.229199,-0.218208,1.188819,-1.360982,0.064119,0.371676,-0.628178,-0.680543,94.150326,25.171366,-142.238207
31944,NaN,-4.727775,8.390996,-1.109816,0.790440,0.003745,-0.150061,-0.159082,1.004879,-1.310263,0.063074,0.379240,-0.624804,-0.679572,94.360784,25.888728,-141.533647
31945,NaN,-4.912576,8.436390,-1.111029,0.790260,0.054428,-0.019231,-0.091821,0.777833,-1.269410,0.061299,0.385828,-0.621838,-0.678746,94.559682,26.584829,-140.977416
31946,NaN,-4.915803,8.519457,-1.064650,0.621330,0.026194,0.061108,-0.028101,0.511272,-1.230106,0.058723,0.391456,-0.619149,-0.678209,94.721917,27.275005,-140.580547
31947,NaN,-4.873525,8.729851,-1.155560,0.456800,-0.173132,0.240027,0.026058,0.234834,-1.192420,0.055290,0.395963,-0.616839,-0.677987,94.841371,27.950267,-140.367125
31948,NaN,-4.874893,8.889315,-1.267219,0.359038,-0.363279,0.391641,0.062060,-0.039159,-1.154364,0.051085,0.399483,-0.614715,-0.678181,94.896232,28.622572,-140.323871
31949,NaN,-4.724340,8.976601,-1.310304,0.153175,-0.575810,0.398066,0.072768,-0.306198,-1.116387,0.046147,0.401905,-0.612814,-0.678823,94.875911,29.280486,-140.463554
31950,NaN,-4.660088,9.039984,-1.401895,0.051354,-0.782694,0.423847,0.065909,-0.540292,-1.081010,0.040637,0.403466,-0.610934,-0.679944,94.769208,29.934883,-140.754655
31951,NaN,-4.476112,9.092211,-1.466769,-0.135559,-1.037621,0.373532,0.052487,-0.741668,-1.040923,0.034661,0.404143,-0.609166,-0.681457,94.585103,30.569601,-141.190888
31952,NaN,-4.145971,9.102455,-1.475866,-0.429731,-1.320332,0.201943,0.022924,-0.884692,-1.011463,0.028418,0.404275,-0.607297,-0.683334,94.324101,31.197731,-141.724101
31953,NaN,-3.938616,9.194371,-1.491728,-0.669689,-1.563246,0.156315,-0.016633,-0.966323,-0.988040,0.022076,0.403977,-0.605380,-0.685442,94.005726,31.808186,-142.325854
31954,NaN,-3.849206,9.260355,-1.480730,-0.830453,-1.717085,0.143414,-0.058305,-1.011107,-0.941976,0.015841,0.403405,-0.603341,-0.687745,93.633587,32.395802,-142.964486
31955,NaN,-3.694677,9.364229,-1.487344,-1.037800,-1.926026,0.125318,-0.086926,-1.008613,-0.889441,0.009850,0.402619,-0.601329,-0.690076,93.237736,32.944739,-143.615910
31956,NaN,-3.505202,9.388536,-1.447699,-1.254106,-2.087957,0.015517,-0.112401,-0.966230,-0.834910,0.004226,0.401835,-0.599265,-0.692381,92.829378,33.461877,-144.245648
31957,NaN,-3.276526,9.333613,-1.364568,-1.478896,-2.201062,-0.185570,-0.135032,-0.874928,-0.780568,-0.000892,0.401150,-0.597252,-0.694527,92.435923,33.937241,-144.825428
31958,NaN,-3.169575,9.201550,-1.292371,-1.572726,-2.233473,-0.382819,-0.159562,-0.768564,-0.725133,-0.005452,0.400688,-0.595206,-0.696526,92.058335,34.379328,-145.337709
31959,NaN,-3.112314,8.979374,-1.211474,-1.587941,-2.198694,-0.624271,-0.163404,-0.658094,-0.664915,-0.009464,0.400388,-0.593295,-0.698284,91.717678,34.778059,-145.782848
31960,NaN,-2.977158,8.827206,-1.168792,-1.664295,-2.242841,-0.848955,-0.150596,-0.550701,-0.606098,-0.012977,0.400312,-0.591502,-0.699791,91.418815,35.143132,-146.156498
31961,NaN,-2.879851,8.706911,-1.134309,-1.722062,-2.274487,-1.023409,-0.129312,-0.433919,-0.538640,-0.015951,0.400405,-0.589954,-0.700982,91.177674,35.462826,-146.455256
31962,NaN,-2.822235,8.743440,-1.069832,-1.843374,-2.300285,-1.045261,-0.091676,-0.307023,-0.460148,-0.018354,0.400730,-0.588667,-0.701819,91.004295,35.738612,-146.666629
31963,NaN,-2.806755,8.953597,-1.031935,-2.004824,-2.371780,-0.898380,-0.058339,-0.182594,-0.369332,-0.020135,0.401194,-0.587719,-0.702300,90.901783,35.957443,-146.794163
31964,NaN,-2.753434,9.326140,-0.900222,-2.320075,-2.421779,-0.640945,-0.020949,-0.077550,-0.257668,-0.021296,0.401712,-0.587108,-0.702480,90.860792,36.114135,-146.848223
31965,NaN,-2.697115,9.795835,-0.881984,-2.620474,-2.587102,-0.302129,0.031882,0.012737,-0.142122,-0.021887,0.402183,-0.586950,-0.702324,90.889222,36.200949,-146.840492
31966,NaN,-2.745037,10.479499,-0.918623,-2.922974,-2.806405,0.275886,0.090499,0.070336,0.005987,-0.021910,0.402431,-0.587278,-0.701907,90.972365,36.204827,-146.792710
31967,NaN,-2.638899,11.202896,-1.101494,-3.261407,-3.213706,0.804149,0.124228,0.118950,0.168411,-0.021285,0.402353,-0.588080,-0.701299,91.096000,36.112632,-146.713296
31968,NaN,-2.589813,11.580564,-1.266299,-3.382645,-3.461361,1.095870,0.100659,0.176857,0.339153,-0.019843,0.401992,-0.589126,-0.700671,91.226458,35.923790,-146.594763
31969,NaN,-2.627946,11.737679,-1.284971,-3.393338,-3.470146,1.267626,0.028236,0.248045,0.516375,-0.017426,0.401348,-0.590299,-0.700116,91.344217,35.630337,-146.430597
31970,NaN,-2.638123,11.632246,-1.314866,-3.263313,-3.416094,1.218095,-0.059080,0.285101,0.704943,-0.014061,0.400292,-0.591524,-0.699763,91.421883,35.229540,-146.244068
31971,NaN,-2.889615,11.482369,-1.326265,-2.934207,-3.219473,1.276860,-0.163780,0.299587,0.896610,-0.009775,0.398709,-0.592775,-0.699681,91.443127,34.717216,-146.053068
31972,NaN,-3.098105,11.202558,-1.236149,-2.603658,-2.915708,1.202838,-0.262222,0.275647,1.077314,-0.004726,0.396509,-0.594009,-0.699937,91.393101,34.102659,-145.882008
31973,NaN,-3.168711,10.831102,-1.024326,-2.373053,-2.544530,0.971324,-0.336247,0.241374,1.254285,0.000982,0.393641,-0.595327,-0.700451,91.285682,33.386494,-145.738649
31974,NaN,-3.316201,10.405158,-0.722944,-2.102843,-2.046166,0.731331,-0.393871,0.197961,1.393218,0.007169,0.390197,-0.596675,-0.701195,91.125486,32.592021,-145.625174
31975,NaN,-3.529346,9.859622,-0.293556,-1.800343,-1.375575,0.415654,-0.418115,0.116254,1.498042,0.013518,0.386123,-0.598125,-0.702120,90.922323,31.738165,-145.567319
31976,NaN,-3.635477,9.223977,0.167560,-1.555575,-0.706345,-0.045104,-0.402169,0.010712,1.561350,0.019754,0.381474,-0.599711,-0.703160,90.690835,30.849292,-145.576244
31977,NaN,-3.818833,8.620775,0.653624,-1.295487,0.008815,-0.450629,-0.343437,-0.143386,1.586888,0.025493,0.376180,-0.601541,-0.704263,90.444812,29.946424,-145.684631
31978,NaN,-3.986584,7.990442,1.010305,-0.974193,0.613161,-0.900117,-0.239780,-0.331258,1.585083,0.030476,0.370226,-0.603705,-0.705369,90.200074,29.044846,-145.909926
31979,NaN,-3.974300,7.583109,1.240824,-0.815039,0.960961,-1.254132,-0.097733,-0.540036,1.541359,0.034398,0.363657,-0.606293,-0.706385,89.978884,28.167666,-146.266637
31980,NaN,-3.749958,7.436839,1.223874,-0.787375,0.927503,-1.482926,0.039560,-0.729656,1.470196,0.037253,0.356639,-0.609216,-0.707302,89.785390,27.329886,-146.738603
31981,NaN,-3.323944,7.454338,1.135558,-0.946465,0.693881,-1.656295,0.157242,-0.848610,1.370715,0.039170,0.349497,-0.612373,-0.708037,89.634794,26.547524,-147.282236
31982,NaN,-2.774419,7.582371,0.920135,-1.189171,0.269664,-1.778477,0.262051,-0.852130,1.264417,0.040527,0.342671,-0.615665,-0.708442,89.550198,25.824982,-147.822085
31983,NaN,-2.147379,7.861526,0.648618,-1.537938,-0.268320,-1.787886,0.330509,-0.738066,1.163461,0.041746,0.336551,-0.618982,-0.708415,89.544890,25.160496,-148.287416
31984,NaN,-1.604277,8.186163,0.285386,-1.809622,-0.847755,-1.708721,0.343102,-0.511143,1.067243,0.043311,0.331518,-0.622099,-0.707964,89.610877,24.551984,-148.607634
31985,NaN,-1.237177,8.566903,-0.035325,-1.999839,-1.317110,-1.494700,0.286941,-0.225177,0.988793,0.045571,0.327720,-0.624814,-0.707199,89.723108,23.990162,-148.748194
31986,NaN,-1.236661,8.942480,-0.233264,-1.967458,-1.508896,-1.129173,0.157982,0.074327,0.936323,0.048808,0.325111,-0.626890,-0.706349,89.836140,23.458830,-148.700793
31987,NaN,-1.370883,9.122635,-0.306745,-1.821196,-1.496301,-0.888583,-0.045148,0.351978,0.889547,0.053063,0.323569,-0.628104,-0.705672,89.901812,22.955083,-148.482709
31988,NaN,-1.642490,9.065525,-0.214814,-1.566146,-1.238782,-0.816039,-0.261670,0.618744,0.878543,0.058483,0.322939,-0.628437,-0.705236,89.903575,22.457035,-148.098714
31989,NaN,-1.907215,8.833891,0.059341,-1.352701,-0.801800,-0.912949,-0.416613,0.832646,0.900107,0.064882,0.322937,-0.628185,-0.704901,89.864636,21.947738,-147.584899
31990,NaN,-2.191555,8.623335,0.307315,-1.118915,-0.383856,-0.988892,-0.515074,1.013433,0.948130,0.072193,0.323374,-0.627564,-0.704543,89.804042,21.410701,-146.959616
31991,NaN,-2.463353,8.480818,0.581582,-0.935763,0.039312,-1.011958,-0.563140,1.157715,0.999393,0.080192,0.324122,-0.626779,-0.704033,89.743263,20.846169,-146.248649
31992,NaN,-2.743627,8.247650,0.740126,-0.662715,0.395931,-1.123471,-0.562432,1.270730,1.060736,0.088774,0.325054,-0.625993,-0.703272,89.698037,20.246435,-145.469000
31993,NaN,-2.922446,8.062131,0.927921,-0.508527,0.724155,-1.232704,-0.516714,1.366471,1.121208,0.097767,0.326126,-0.625387,-0.702122,89.691827,19.613653,-144.635136
31994,NaN,-3.094182,7.920383,0.988383,-0.307996,0.946452,-1.310212,-0.453863,1.437142,1.171843,0.107072,0.327296,-0.624979,-0.700581,89.723924,18.951023,-143.759522
31995,NaN,-3.204785,7.868654,0.953879,-0.128986,1.053094,-1.329179,-0.372688,1.498783,1.220307,0.116572,0.328538,-0.624859,-0.698588,89.805246,18.260817,-142.852945
31996,NaN,-2.774912,7.856037,0.828276,-0.317873,0.778658,-1.482294,-0.311224,1.673760,1.227944,0.126553,0.330372,-0.624786,-0.696046,89.940328,17.564005,-141.844386
31997,NaN,-2.966308,8.101395,0.828577,-0.182585,0.923561,-1.196943,-0.270746,1.992592,1.215063,0.137383,0.333339,-0.624568,-0.692767,90.143723,16.872433,-140.652180
31998,NaN,-3.272531,8.196767,0.807888,0.077772,1.166821,-1.027434,-0.278443,2.197507,1.265936,0.149041,0.336804,-0.624159,-0.689039,90.359291,16.146342,-139.343064
31999,NaN,-3.204665,8.175220,0.719894,0.127227,1.161698,-1.080241,-0.244355,2.310168,1.274569,0.160977,0.340596,-0.623709,-0.684885,90.596519,15.410506,-137.976422
32000,NaN,-3.537115,8.358108,0.530188,0.486092,1.314037,-0.830148,-0.202645,2.384215,1.259738,0.173018,0.344669,-0.623186,-0.680373,90.847845,14.676629,-136.571454
32001,NaN,-4.276266,8.710648,0.398530,1.050510,1.779519,-0.323287,-0.162358,2.332088,1.251991,0.184745,0.348555,-0.622739,-0.675703,91.097522,13.942185,-135.207620
32002,NaN,-4.881945,8.874348,0.363059,1.480587,2.285166,-0.050354,-0.135829,2.133343,1.282199,0.195903,0.351653,-0.622495,-0.671165,91.313544,13.187424,-133.965974
32003,NaN,-4.893800,9.137354,0.395921,1.440058,2.423905,0.169609,-0.096240,1.870567,1.304687,0.206198,0.353778,-0.622613,-0.666840,91.502817,12.419283,-132.888374
32004,NaN,-4.869803,9.520274,0.366045,1.412022,2.476910,0.500108,-0.064781,1.620026,1.308524,0.215663,0.355055,-0.623007,-0.662787,91.661925,11.649983,-131.961038
32005,NaN,-5.238368,9.783542,0.371241,1.646100,2.857473,0.790105,-0.067504,1.364744,1.318680,0.224332,0.355408,-0.623645,-0.659111,91.779552,10.876822,-131.189500
32006,NaN,-5.463413,9.931330,0.426573,1.775754,3.180809,0.929256,-0.076745,1.048348,1.314382,0.232013,0.354701,-0.624530,-0.655988,91.845266,10.111270,-130.603671
32007,NaN,-5.531059,9.987729,0.412576,1.881082,3.345039,0.947793,-0.071347,0.703776,1.304522,0.238548,0.352871,-0.625796,-0.653419,91.874587,9.356681,-130.221614
32008,NaN,-5.528265,10.092835,0.359133,1.979451,3.415232,1.002679,-0.085747,0.383678,1.295199,0.244072,0.349995,-0.627330,-0.651451,91.859351,8.614337,-130.024862
32009,NaN,-5.490832,10.047351,0.299046,2.091920,3.457340,0.904445,-0.103155,0.107002,1.244788,0.248576,0.346335,-0.629050,-0.650044,91.811108,7.905071,-129.988253
32010,NaN,-5.416206,10.094680,0.212904,2.196815,3.432386,0.895923,-0.107957,-0.089872,1.189401,0.252288,0.342201,-0.630858,-0.649052,91.742525,7.232568,-130.062286
32011,NaN,-5.155826,10.226868,0.169635,2.142731,3.279055,0.950921,-0.098129,-0.158547,1.115312,0.255510,0.338068,-0.632658,-0.648204,91.678303,6.602075,-130.175199
32012,NaN,-4.878970,10.435620,0.186696,2.020594,3.142235,1.086106,-0.090849,-0.129461,1.041183,0.258570,0.334279,-0.634277,-0.647374,91.619036,6.015448,-130.267577
32013,NaN,-4.874755,10.598108,0.156575,2.106794,3.183661,1.211483,-0.083355,-0.026470,0.956887,0.261659,0.331076,-0.635654,-0.646426,91.573593,5.473361,-130.300404
32014,NaN,-4.899284,10.627976,0.239170,2.126404,3.325626,1.206923,-0.063175,0.105948,0.871509,0.264859,0.328611,-0.636742,-0.645309,91.544556,4.980569,-130.253376
32015,NaN,-4.957615,10.610369,0.343055,2.140593,3.509206,1.159013,-0.018979,0.259081,0.781878,0.268175,0.326960,-0.637639,-0.643891,91.550441,4.534272,-130.118856
32016,NaN,-5.077121,10.541518,0.440514,2.183523,3.736388,1.066921,0.046211,0.417650,0.672472,0.271537,0.326273,-0.638314,-0.642159,91.597077,4.151100,-129.889468
32017,NaN,-5.137723,10.485162,0.469558,2.218262,3.874076,0.986650,0.123622,0.573238,0.553069,0.274879,0.326544,-0.638851,-0.640062,91.695624,3.830443,-129.571721
32018,NaN,-5.261571,10.400960,0.485638,2.282865,4.051799,0.886421,0.207016,0.688432,0.440954,0.278093,0.327682,-0.639269,-0.637671,91.841949,3.574945,-129.183621
32019,NaN,-5.397497,10.344395,0.382677,2.424958,4.161713,0.821463,0.282421,0.757726,0.306057,0.280965,0.329540,-0.639633,-0.635084,92.035280,3.390546,-128.757065
32020,NaN,-5.499512,10.236437,0.302318,2.514384,4.255936,0.708008,0.332697,0.777057,0.176546,0.283397,0.331965,-0.639871,-0.632495,92.254402,3.282479,-128.315254
32021,NaN,-5.392336,10.213346,0.207227,2.467993,4.169254,0.673422,0.383666,0.747437,0.048001,0.285241,0.334748,-0.640120,-0.629943,92.504033,3.242785,-127.889979
32022,NaN,-5.186466,10.718554,0.069829,2.347713,3.960720,1.168753,0.455006,0.674570,-0.069290,0.286354,0.337808,-0.640453,-0.627461,92.789506,3.275045,-127.500521
32023,NaN,-5.200812,11.772285,-0.057357,2.301563,3.920420,2.227697,0.512222,0.568149,-0.153284,0.286766,0.340843,-0.641003,-0.625065,93.107551,3.351594,-127.172459
32024,NaN,-5.603251,12.557788,-0.061175,2.400391,4.261957,3.039214,0.490772,0.430892,-0.201227,0.286615,0.343609,-0.641551,-0.623054,93.406449,3.463771,-126.917689
32025,NaN,-6.160078,12.487803,0.144983,2.497413,4.854980,2.997640,0.396015,0.251682,-0.225207,0.285979,0.345713,-0.642055,-0.621662,93.648185,3.589294,-126.767578
32026,NaN,-6.651545,11.836055,0.341857,2.631609,5.379379,2.377015,0.296520,-0.007246,-0.239227,0.284634,0.346960,-0.642547,-0.621076,93.820903,3.738142,-126.760927
32027,NaN,-6.633021,10.977889,0.214850,2.765315,5.288611,1.542519,0.255827,-0.325456,-0.249360,0.282309,0.347146,-0.643390,-0.621161,93.961179,3.898957,-126.939678
32028,NaN,-6.110724,10.363543,-0.106772,2.749073,4.658842,0.934081,0.238964,-0.645678,-0.288375,0.278854,0.346489,-0.644506,-0.621930,94.075339,4.102333,-127.295318
32029,NaN,-5.374156,10.109486,-0.450991,2.591802,3.825258,0.672366,0.201032,-0.882158,-0.402339,0.274348,0.345350,-0.645676,-0.623353,94.159844,4.374181,-127.786226
32030,NaN,-4.830764,10.116153,-0.725029,2.461786,3.162547,0.681875,0.119980,-1.057178,-0.573286,0.268870,0.344155,-0.646462,-0.625582,94.184248,4.759072,-128.365183
32031,NaN,-4.585572,10.238072,-0.899640,2.415887,2.768814,0.824562,0.000171,-1.178573,-0.777995,0.262560,0.343006,-0.646712,-0.628628,94.133580,5.258262,-129.010793
32032,NaN,-4.395397,10.403696,-0.949498,2.292562,2.465730,1.009544,-0.117477,-1.254734,-0.981675,0.255547,0.342171,-0.646243,-0.632443,94.001882,5.884063,-129.687054
32033,NaN,-4.111091,10.670924,-0.862627,1.982937,2.152541,1.275424,-0.209103,-1.280294,-1.147969,0.248068,0.341582,-0.645249,-0.636740,93.812332,6.595883,-130.380193
32034,NaN,-3.922981,10.994563,-0.736418,1.684450,1.917396,1.602047,-0.255400,-1.253845,-1.280026,0.240302,0.341479,-0.643740,-0.641285,93.585447,7.387922,-131.052114
32035,NaN,-3.852551,11.338770,-0.613834,1.450324,1.754756,1.960209,-0.287914,-1.213425,-1.372843,0.232415,0.341676,-0.641923,-0.645892,93.337192,8.220655,-131.706703
32036,NaN,-3.766642,11.560828,-0.493452,1.212669,1.574063,2.192826,-0.306102,-1.168141,-1.445944,0.224435,0.342262,-0.639753,-0.650540,93.068399,9.099162,-132.333644
32037,NaN,-3.728895,11.591253,-0.461024,1.092395,1.380218,2.244372,-0.324361,-1.131444,-1.473214,0.216508,0.342942,-0.637438,-0.655124,92.786233,9.980849,-132.948559
32038,NaN,-3.770389,11.354215,-0.501171,1.116014,1.217597,2.047073,-0.332511,-1.097226,-1.470345,0.208690,0.343759,-0.634939,-0.659645,92.488120,10.865637,-133.543683
32039,NaN,-3.702092,10.860776,-0.527496,1.099606,1.024530,1.574958,-0.322745,-1.059961,-1.457233,0.201003,0.344564,-0.632469,-0.663970,92.193948,11.730250,-134.129895
32040,NaN,-3.524056,10.182465,-0.584001,1.064034,0.771607,0.897705,-0.301242,-1.014806,-1.458286,0.193382,0.345570,-0.629912,-0.668129,91.903422,12.599962,-134.692972
32041,NaN,-3.329367,9.581107,-0.543132,0.938037,0.590192,0.284184,-0.254609,-0.959180,-1.475912,0.185801,0.346780,-0.627434,-0.671974,91.641520,13.467738,-135.232223
32042,NaN,-3.203739,9.014085,-0.565888,0.898285,0.425400,-0.281267,-0.196099,-0.908067,-1.514455,0.178116,0.348364,-0.624927,-0.675562,91.406638,14.362969,-135.743386
32043,NaN,-3.020923,8.610241,-0.608619,0.800337,0.200330,-0.704998,-0.139655,-0.842814,-1.583188,0.170309,0.350349,-0.622442,-0.678834,91.209324,15.286383,-136.223692
32044,NaN,-2.856119,8.301987,-0.701640,0.725205,-0.055583,-1.035349,-0.103862,-0.795753,-1.683518,0.162195,0.352845,-0.619761,-0.681974,91.027111,16.273237,-136.680066
32045,NaN,-2.710488,8.101116,-0.769445,0.617701,-0.293619,-1.263016,-0.092583,-0.749946,-1.817702,0.153766,0.355851,-0.616837,-0.685010,90.854416,17.327131,-137.113378
32046,NaN,-2.603747,8.049405,-0.840287,0.497750,-0.538755,-1.342859,-0.100838,-0.714169,-1.957046,0.144914,0.359383,-0.613509,-0.688078,90.670408,18.466814,-137.533494
32047,NaN,-2.613803,8.164251,-0.832657,0.358235,-0.690216,-1.235237,-0.139041,-0.670242,-2.087189,0.135855,0.363379,-0.609748,-0.691163,90.466892,19.671936,-137.929690
32048,NaN,-2.686077,8.123266,-0.741681,0.236788,-0.716210,-1.258133,-0.150963,-0.640968,-2.190602,0.126480,0.367755,-0.605624,-0.694247,90.248254,20.942280,-138.318710
32049,NaN,-2.724531,8.229309,-0.607891,0.018289,-0.768536,-1.157067,-0.139191,-0.624264,-2.264411,0.116913,0.372351,-0.601348,-0.697184,90.032844,22.246045,-138.702503
32050,NaN,-2.772513,8.375694,-0.558196,-0.158157,-0.893824,-1.019331,-0.120139,-0.611132,-2.301709,0.107137,0.377068,-0.596951,-0.699994,89.816258,23.576879,-139.092803
32051,NaN,-2.844349,8.492672,-0.502985,-0.319547,-0.995833,-0.903631,-0.107582,-0.609967,-2.310730,0.097360,0.381764,-0.592520,-0.702636,89.598719,24.904491,-139.486126
32052,NaN,-2.914054,8.624309,-0.377219,-0.537591,-1.052750,-0.778767,-0.091246,-0.621560,-2.278976,0.087556,0.386288,-0.588097,-0.705165,89.371062,26.219441,-139.901412
32053,NaN,-2.972640,8.847492,-0.420712,-0.685642,-1.271013,-0.582170,-0.068599,-0.648493,-2.211151,0.077915,0.390465,-0.583847,-0.707523,89.139665,27.486847,-140.339042
32054,NaN,-2.925507,8.984018,-0.509654,-0.849490,-1.558948,-0.518850,-0.070527,-0.667449,-2.132040,0.068412,0.394279,-0.579662,-0.709828,88.884716,28.713396,-140.807689
32055,NaN,-2.747958,9.033067,-0.570318,-1.084945,-1.864897,-0.603203,-0.090620,-0.676806,-2.044533,0.059304,0.397765,-0.575525,-0.712065,88.605045,29.881476,-141.284524
32056,NaN,-2.463486,9.031706,-0.682587,-1.335151,-2.243855,-0.796818,-0.109542,-0.654009,-1.956725,0.050520,0.401009,-0.571417,-0.714229,88.305222,31.003367,-141.766749
32057,NaN,-2.215349,8.972312,-0.778987,-1.539755,-2.559027,-1.032322,-0.135008,-0.608455,-1.878872,0.042274,0.404165,-0.567310,-0.716257,87.996726,32.073469,-142.219325
32058,NaN,-2.035187,9.031693,-0.838613,-1.761509,-2.843210,-1.139311,-0.182383,-0.543977,-1.812696,0.034456,0.407293,-0.563095,-0.718226,87.668696,33.110372,-142.648751
32059,NaN,-1.891272,9.025839,-0.877233,-1.937579,-3.063793,-1.288088,-0.252359,-0.470069,-1.764041,0.027244,0.410524,-0.558670,-0.720150,87.319730,34.113716,-143.028045
32060,NaN,-1.864265,9.043938,-0.900805,-2.048584,-3.221123,-1.356617,-0.327919,-0.370323,-1.724615,0.020519,0.413933,-0.553995,-0.722031,86.952245,35.100278,-143.359447
32061,NaN,-1.822966,9.230210,-0.827888,-2.293915,-3.374602,-1.294874,-0.396096,-0.263174,-1.680632,0.014476,0.417594,-0.549108,-0.723800,86.582422,36.058502,-143.614619
32062,NaN,-1.782818,9.656706,-0.745944,-2.647512,-3.619136,-1.044732,-0.432588,-0.160377,-1.634477,0.008877,0.421441,-0.544139,-0.725412,86.223638,36.997168,-143.815393
32063,NaN,-1.668386,10.255154,-0.726362,-3.087395,-4.023112,-0.715466,-0.449641,-0.050078,-1.576501,0.003903,0.425525,-0.539185,-0.726769,85.900059,37.901626,-143.933059
32064,NaN,-1.549502,10.778811,-0.737541,-3.478423,-4.428733,-0.463241,-0.481800,0.068029,-1.508911,-0.000512,0.429803,-0.534224,-0.727925,85.604527,38.775886,-143.978363
32065,NaN,-1.385984,11.247319,-0.836402,-3.812907,-4.903571,-0.297590,-0.507615,0.199709,-1.424008,-0.004137,0.434333,-0.529316,-0.728809,85.357582,39.603526,-143.917751
32066,NaN,-1.263597,11.627377,-1.005967,-4.028730,-5.377278,-0.186859,-0.540567,0.330995,-1.321228,-0.007035,0.439020,-0.524488,-0.729468,85.154267,40.382149,-143.765523
32067,NaN,-1.129167,11.860491,-1.239802,-4.127234,-5.838882,-0.202542,-0.596503,0.490503,-1.195144,-0.008866,0.443963,-0.519708,-0.729878,85.006227,41.093741,-143.477244
32068,NaN,-1.150083,11.797514,-1.321255,-4.068983,-5.972577,-0.324802,-0.661980,0.642037,-1.024788,-0.009597,0.448969,-0.515058,-0.730103,84.905212,41.718641,-143.070275
32069,NaN,-1.075223,11.452446,-1.382705,-3.923943,-5.989398,-0.704709,-0.701668,0.786401,-0.821468,-0.009063,0.453988,-0.510692,-0.730073,84.872230,42.232818,-142.526864
32070,NaN,-1.096959,11.171286,-1.393876,-3.764642,-5.937517,-0.951733,-0.731785,0.900521,-0.604449,-0.007431,0.458822,-0.506707,-0.729846,84.895461,42.630649,-141.884698
32071,NaN,-1.089902,10.786331,-1.194644,-3.694924,-5.673605,-1.261823,-0.727383,0.986084,-0.371573,-0.004688,0.463388,-0.503240,-0.729382,84.984786,42.897787,-141.147593
32072,NaN,-1.198950,10.510423,-0.962599,-3.624387,-5.366693,-1.392758,-0.667450,1.037027,-0.119857,-0.001084,0.467459,-0.500573,-0.728634,85.149400,43.023452,-140.358188
32073,NaN,-1.438110,10.553722,-0.708078,-3.641997,-5.119693,-1.182799,-0.545457,1.039776,0.153090,0.003283,0.470867,-0.498954,-0.727543,85.400374,42.990364,-139.540266
32074,NaN,-1.636337,10.582630,-0.443990,-3.679687,-4.853413,-0.993913,-0.434491,1.007125,0.438516,0.008306,0.473401,-0.498413,-0.726228,85.705560,42.790072,-138.739239
32075,NaN,-1.855701,10.397119,-0.437159,-3.422499,-4.628100,-0.946941,-0.326341,0.950603,0.711868,0.013964,0.475065,-0.498877,-0.724734,86.048309,42.427696,-137.965045
32076,NaN,-2.074015,10.156428,-0.561439,-3.041936,-4.439160,-0.935229,-0.212540,0.883934,1.006466,0.020217,0.475709,-0.500461,-0.723070,86.420403,41.890315,-137.242761
32077,NaN,-2.109683,9.558556,-0.656684,-2.614172,-4.118785,-1.301030,-0.144926,0.819433,1.266831,0.027123,0.475484,-0.502867,-0.721322,86.793946,41.198841,-136.562777
32078,NaN,-2.077612,8.571423,-0.614101,-2.150265,-3.533874,-1.999272,-0.107185,0.772005,1.481568,0.034557,0.474483,-0.505925,-0.719522,87.154887,40.378592,-135.931179
32079,NaN,-2.158284,7.747657,-0.423739,-1.809229,-2.866357,-2.507001,-0.056609,0.720461,1.657824,0.042409,0.472863,-0.509522,-0.717627,87.507835,39.454321,-135.339338
32080,NaN,-2.308146,7.079869,0.037480,-1.702387,-2.049495,-2.859024,0.021139,0.623845,1.791986,0.050274,0.470490,-0.513727,-0.715679,87.845227,38.446600,-134.837317
32081,NaN,-2.559379,6.728074,0.528929,-1.702077,-1.303969,-2.920790,0.146972,0.468803,1.878792,0.057786,0.467369,-0.518544,-0.713680,88.171283,37.385496,-134.452891
32082,NaN,-2.816686,6.781157,0.843904,-1.736195,-0.852727,-2.679193,0.308380,0.245804,1.938827,0.064512,0.463250,-0.524133,-0.711704,88.481035,36.282513,-134.248055
32083,NaN,-2.873597,7.303185,0.851315,-1.838938,-0.918621,-2.190936,0.496595,-0.001775,1.974430,0.070313,0.458219,-0.530461,-0.709720,88.788021,35.156957,-134.219201
32084,NaN,-2.834666,8.093226,0.791167,-2.041169,-1.176678,-1.529695,0.610578,-0.212953,1.989252,0.075307,0.452345,-0.537280,-0.707844,89.071687,34.018326,-134.352013
32085,NaN,-2.805129,8.845156,0.602622,-2.119115,-1.475495,-0.879729,0.663625,-0.362562,2.016959,0.079899,0.445882,-0.544310,-0.706068,89.329373,32.865344,-134.584557
32086,NaN,-2.753679,9.565308,0.412385,-2.182388,-1.751602,-0.251663,0.633900,-0.466201,2.067617,0.084409,0.438796,-0.551366,-0.704506,89.534903,31.680891,-134.898073
32087,NaN,-2.668910,10.181818,0.261224,-2.236995,-1.961302,0.287087,0.564939,-0.531597,2.138571,0.089165,0.431254,-0.558252,-0.703153,89.684255,30.458983,-135.246735
32088,NaN,-2.629175,10.697502,0.229846,-2.290202,-2.004910,0.776557,0.458390,-0.536577,2.225641,0.094398,0.423288,-0.564921,-0.701984,89.777919,29.184776,-135.605736
32089,NaN,-2.580266,11.013246,0.166230,-2.231584,-1.996332,1.096294,0.321616,-0.495631,2.317384,0.100378,0.415141,-0.571164,-0.700966,89.814720,27.861470,-135.926296
32090,NaN,-2.651046,10.995528,0.223783,-2.047232,-1.712677,1.180453,0.190142,-0.403583,2.401530,0.107145,0.406891,-0.577032,-0.699996,89.811233,26.486826,-136.192383
32091,NaN,-2.736753,10.767246,0.281087,-1.770530,-1.357833,1.073890,0.075566,-0.287451,2.480711,0.114770,0.398755,-0.582469,-0.698965,89.781865,25.070367,-136.372341
32092,NaN,-2.824818,10.315126,0.334819,-1.417526,-0.945338,0.750663,0.002910,-0.155306,2.527224,0.123040,0.390776,-0.587619,-0.697753,89.750137,23.623758,-136.475051
32093,NaN,-2.828028,9.988649,0.763158,-1.424562,-0.363086,0.491988,-0.051582,0.041779,2.530398,0.132017,0.383444,-0.592329,-0.696196,89.738015,22.179527,-136.444652
32094,NaN,-3.310697,9.493189,0.947934,-0.907791,0.385198,0.237295,-0.071678,0.198878,2.536459,0.141471,0.376502,-0.596819,-0.694290,89.748491,20.728393,-136.326164
32095,NaN,-3.447718,8.915135,1.018823,-0.545606,0.840602,-0.252592,-0.026734,0.345214,2.510772,0.151192,0.370181,-0.601180,-0.691874,89.811951,19.296054,-136.112355
32096,NaN,-2.984718,8.743603,1.098305,-0.724805,0.805020,-0.572122,0.054144,0.697583,2.423266,0.161468,0.365276,-0.605334,-0.688529,89.982614,17.909934,-135.699345
32097,NaN,-3.163153,8.387448,0.812402,-0.192762,0.963979,-0.865920,-0.013316,0.943095,2.425803,0.172621,0.361161,-0.608926,-0.684817,90.146820,16.524902,-135.137790
32098,NaN,-3.107801,8.024062,0.551903,0.142052,0.980114,-1.247370,0.092734,1.177594,2.262375,0.183676,0.358307,-0.612321,-0.680398,90.394437,15.227056,-134.454765
32099,NaN,-3.035707,8.137941,0.254900,0.378133,0.865802,-1.174922,0.085078,1.442843,2.138084,0.195137,0.356742,-0.615086,-0.675520,90.660785,13.999932,-133.614561
32100,NaN,-2.943007,8.136114,0.016217,0.572856,0.800786,-1.217010,0.071873,1.687870,2.025334,0.206933,0.356210,-0.617294,-0.670254,90.932928,12.827980,-132.648294
32101,NaN,-3.149020,8.326096,-0.153491,0.874877,0.968479,-1.006002,0.003867,1.929074,1.865927,0.219053,0.356913,-0.618600,-0.664803,91.176646,11.744195,-131.539795
32102,NaN,-3.566169,8.433862,-0.273523,1.279730,1.344505,-0.841937,-0.093278,2.156805,1.729163,0.231530,0.358559,-0.619004,-0.659290,91.368346,10.728356,-130.313298
32103,NaN,-3.992913,8.603915,-0.249712,1.554811,1.825442,-0.632232,-0.166132,2.352599,1.616500,0.244352,0.361110,-0.618588,-0.653636,91.517847,9.774000,-128.969927
32104,NaN,-4.502549,8.811994,-0.208743,1.841855,2.389248,-0.385913,-0.219833,2.510340,1.529970,0.257401,0.364240,-0.617546,-0.647851,91.627857,8.860692,-127.547696
32105,NaN,-4.852595,9.165132,-0.204909,2.022175,2.805530,-0.033823,-0.259291,2.606359,1.463855,0.270571,0.367816,-0.615969,-0.641938,91.701989,7.984417,-126.065616
32106,NaN,-5.222108,9.336261,-0.170795,2.193166,3.284585,0.130345,-0.279531,2.626987,1.391452,0.283524,0.371513,-0.614055,-0.636026,91.742399,7.145245,-124.582512
32107,NaN,-5.681764,9.478902,-0.062311,2.334602,3.888478,0.265123,-0.274673,2.557902,1.329697,0.296025,0.375166,-0.611980,-0.630158,91.760858,6.344440,-123.133112
32108,NaN,-5.921175,9.669840,-0.047114,2.410906,4.256451,0.416467,-0.242784,2.395580,1.264374,0.307677,0.378425,-0.610029,-0.624495,91.766620,5.581682,-121.786589
32109,NaN,-6.140094,9.961461,-0.047466,2.474108,4.591637,0.662359,-0.199267,2.170522,1.211481,0.318372,0.381202,-0.608332,-0.619077,91.769419,4.855028,-120.562127
32110,NaN,-6.349976,10.149743,-0.105264,2.590310,4.894279,0.802599,-0.170928,1.902331,1.168800,0.327994,0.383224,-0.607002,-0.614091,91.759457,4.156590,-119.499338
32111,NaN,-6.612520,10.162552,-0.041446,2.639821,5.306768,0.764264,-0.142565,1.603609,1.127675,0.336521,0.384505,-0.606084,-0.609567,91.743268,3.488226,-118.600937
32112,NaN,-6.852894,10.100104,-0.002789,2.708994,5.680066,0.645347,-0.109738,1.276945,1.103497,0.343861,0.384842,-0.605736,-0.605591,91.723529,2.839381,-117.897215
32113,NaN,-7.028499,9.963621,0.049445,2.745646,5.993691,0.444571,-0.070941,0.945291,1.079884,0.350061,0.384335,-0.605977,-0.602109,91.711442,2.210232,-117.376107
32114,NaN,-7.029184,9.897944,-0.003550,2.803548,6.088111,0.309184,-0.039307,0.627432,1.047366,0.355084,0.382963,-0.606797,-0.599209,91.704143,1.605692,-117.044869
32115,NaN,-6.956771,9.846799,-0.048969,2.832394,6.108570,0.188321,0.014922,0.321977,1.002026,0.358970,0.380942,-0.608199,-0.596756,91.722096,1.031852,-116.879813
32116,NaN,-6.840366,10.054530,-0.107337,2.856358,6.069977,0.330843,0.049044,0.045543,0.936072,0.361698,0.378305,-0.610075,-0.594869,91.754221,0.501791,-116.880906
32117,NaN,-6.877025,10.581305,-0.058966,2.854905,6.208350,0.797022,0.071377,-0.210486,0.833781,0.363338,0.375295,-0.612258,-0.593531,91.800078,0.033579,-117.018478
32118,NaN,-7.007098,11.197376,-0.107420,2.992914,6.376793,1.361855,0.067718,-0.434636,0.724251,0.363912,0.371896,-0.614637,-0.592860,91.843623,-0.365762,-117.292449
32119,NaN,-7.062130,11.730573,-0.084068,3.045078,6.498763,1.848359,0.054599,-0.623623,0.600134,0.363610,0.368334,-0.617063,-0.592749,91.883931,-0.692268,-117.662974
32120,NaN,-7.007974,12.112703,-0.073011,3.070662,6.498617,2.194521,0.031599,-0.777327,0.473035,0.362420,0.364600,-0.619478,-0.593267,91.912721,-0.940452,-118.131762
32121,NaN,-6.896752,12.266929,-0.125196,3.132969,6.395508,2.325676,-0.003547,-0.899692,0.340860,0.360588,0.360899,-0.621731,-0.594288,91.925682,-1.112833,-118.655783
32122,NaN,-6.569441,12.174135,-0.209986,3.123972,6.057653,2.227098,-0.027865,-0.969905,0.180573,0.358016,0.357377,-0.623759,-0.595845,91.925123,-1.188853,-119.230062
32123,NaN,-6.184204,11.911949,-0.279100,3.063523,5.653725,1.971482,-0.055062,-0.988215,0.019992,0.355028,0.354303,-0.625411,-0.597734,91.910911,-1.175805,-119.798656
32124,NaN,-5.668572,11.917875,-0.349046,2.916963,5.128024,1.997674,-0.047741,-0.950705,-0.169156,0.351476,0.351867,-0.626698,-0.599920,91.898372,-1.051660,-120.357498
32125,NaN,-5.208905,12.282674,-0.325362,2.682876,4.699008,2.386647,0.002393,-0.860231,-0.352002,0.347657,0.350425,-0.627610,-0.602032,91.913355,-0.828152,-120.845661
32126,NaN,-5.226232,12.589341,-0.032740,2.438709,4.803380,2.708726,0.037403,-0.746063,-0.516446,0.343520,0.349813,-0.628166,-0.604179,91.944153,-0.508623,-121.283293
32127,NaN,-5.431106,12.657260,0.235703,2.298348,5.040836,2.799430,0.083688,-0.648835,-0.672573,0.339241,0.350139,-0.628370,-0.606192,91.999639,-0.105154,-121.643769
32128,NaN,-5.699081,12.799600,0.524981,2.156853,5.333777,2.973347,0.150890,-0.611102,-0.800366,0.334435,0.350987,-0.628524,-0.608209,92.090078,0.375096,-122.001008
32129,NaN,-6.067076,12.686146,0.762532,2.108513,5.673326,2.903265,0.184369,-0.630128,-0.909484,0.329300,0.352265,-0.628553,-0.610239,92.197453,0.914888,-122.344499
32130,NaN,-6.366806,11.966756,0.888296,2.146484,5.880908,2.242791,0.175072,-0.712044,-1.019660,0.323423,0.353495,-0.628532,-0.612688,92.294529,1.524224,-122.756435
32131,NaN,-6.260029,11.160124,0.744177,2.203906,5.595526,1.506375,0.156999,-0.852427,-1.179785,0.316785,0.354868,-0.628309,-0.615584,92.374947,2.225091,-123.219303
32132,NaN,-5.713499,10.620396,0.322410,2.243685,4.775361,1.036287,0.128903,-1.016841,-1.376792,0.308869,0.356143,-0.627950,-0.619226,92.428804,3.047120,-123.801093
32133,NaN,-5.042174,10.743275,-0.113659,2.168292,3.813317,1.214926,0.092486,-1.156526,-1.604462,0.300030,0.357757,-0.627154,-0.623434,92.448914,3.999348,-124.427343
32134,NaN,-4.490207,11.387045,-0.470449,2.028606,2.941004,1.903909,0.023268,-1.268079,-1.843107,0.289968,0.359448,-0.625918,-0.628444,92.413958,5.094220,-125.149029
32135,NaN,-4.036428,12.138932,-0.700230,1.793963,2.171769,2.685130,-0.058373,-1.336016,-2.045466,0.279382,0.361571,-0.623968,-0.633937,92.314404,6.302343,-125.871228
32136,NaN,-3.738275,12.852976,-0.632753,1.381914,1.658527,3.412506,-0.157286,-1.372283,-2.181686,0.268141,0.363608,-0.621533,-0.639989,92.140823,7.590573,-126.656041
32137,NaN,-3.667522,13.282051,-0.529163,1.086294,1.337881,3.868127,-0.256356,-1.376839,-2.251331,0.257040,0.365852,-0.618430,-0.646240,91.891461,8.913013,-127.409014
32138,NaN,-3.719664,13.327559,-0.343026,0.838963,1.182335,3.951991,-0.308994,-1.392050,-2.283471,0.245579,0.367807,-0.615139,-0.652697,91.593026,10.253423,-128.221115
32139,NaN,-3.644236,13.104778,-0.232712,0.611293,0.916439,3.746352,-0.323503,-1.400517,-2.257219,0.234416,0.369776,-0.611616,-0.658969,91.264382,11.571865,-129.007510
32140,NaN,-3.564942,12.600258,-0.262188,0.536033,0.617191,3.258959,-0.317913,-1.408196,-2.212997,0.223063,0.371325,-0.608225,-0.665149,90.919122,12.863450,-129.851784
32141,NaN,-3.378627,11.883629,-0.393628,0.514326,0.236635,2.534922,-0.296070,-1.409810,-2.155299,0.212076,0.372855,-0.604779,-0.671003,90.564609,14.114221,-130.668314
32142,NaN,-2.990392,11.034218,-0.567527,0.427833,-0.260221,1.622436,-0.277476,-1.413363,-2.132361,0.200807,0.374049,-0.601484,-0.676742,90.201541,15.349422,-131.543118
32143,NaN,-2.467271,10.166728,-0.856555,0.350458,-0.885258,0.640642,-0.250373,-1.333695,-2.144682,0.189928,0.375729,-0.597936,-0.682076,89.844498,16.584030,-132.339884
32144,NaN,-2.616402,9.597720,-0.833818,0.421631,-0.853517,0.124422,-0.236504,-1.231266,-2.210470,0.178818,0.377722,-0.594242,-0.687187,89.494106,17.854985,-133.127664
32145,NaN,-2.622450,8.845077,-0.673685,0.347055,-0.764702,-0.600888,-0.206635,-1.167228,-2.242803,0.167957,0.380183,-0.590311,-0.691942,89.151698,19.137481,-133.851398
32146,NaN,-2.343413,8.561755,-0.587028,0.044230,-1.009750,-0.974455,-0.126120,-1.091504,-2.346630,0.156544,0.383059,-0.586406,-0.696339,88.850885,20.480017,-134.578256
32147,NaN,-2.076982,8.505008,-0.639561,-0.209030,-1.386671,-1.147391,-0.090481,-1.002740,-2.455851,0.145149,0.386685,-0.582140,-0.700372,88.568832,21.879252,-135.230899
32148,NaN,-1.990993,8.433508,-0.718243,-0.332581,-1.654951,-1.283322,-0.088142,-0.891694,-2.576856,0.133400,0.390839,-0.577558,-0.704184,88.293405,23.350400,-135.863101
32149,NaN,-1.819701,8.404287,-0.786366,-0.537328,-1.980404,-1.425415,-0.081533,-0.767822,-2.673030,0.121853,0.395782,-0.572522,-0.707621,88.032365,24.872442,-136.401417
32150,NaN,-1.610539,8.405667,-0.865098,-0.775562,-2.342571,-1.572331,-0.090937,-0.629762,-2.753649,0.110218,0.401246,-0.567171,-0.710754,87.782874,26.445709,-136.895515
32151,NaN,-1.499102,8.563651,-1.033984,-0.936081,-2.759083,-1.556864,-0.145467,-0.465799,-2.797194,0.099172,0.407419,-0.561259,-0.713556,87.532749,28.041508,-137.272040
32152,NaN,-1.423508,8.628640,-1.088270,-1.126860,-3.043114,-1.619487,-0.238959,-0.308518,-2.821385,0.088478,0.413998,-0.554835,-0.716195,87.260915,29.658202,-137.584652
32153,NaN,-1.540450,8.485019,-1.077758,-1.162034,-3.091706,-1.774275,-0.345264,-0.162326,-2.815562,0.078585,0.421048,-0.547804,-0.718647,86.964685,31.270009,-137.789768
32154,NaN,-1.676011,8.421900,-0.947236,-1.288351,-3.072776,-1.842243,-0.421096,-0.048702,-2.788449,0.069102,0.428249,-0.540441,-0.720938,86.651750,32.873840,-137.950249
32155,NaN,-1.703146,8.524623,-0.835773,-1.522640,-3.196160,-1.829601,-0.478744,0.036177,-2.756197,0.060216,0.435634,-0.532764,-0.723021,86.330634,34.456643,-138.044779
32156,NaN,-1.653086,8.594036,-0.719248,-1.792338,-3.345204,-1.894360,-0.509127,0.097237,-2.683259,0.051685,0.442896,-0.525047,-0.724912,86.006548,36.004398,-138.123019
32157,NaN,-1.562800,8.608373,-0.619914,-2.044615,-3.498675,-2.034180,-0.514296,0.143330,-2.588803,0.043745,0.450052,-0.517382,-0.726537,85.696431,37.495006,-138.158180
32158,NaN,-1.556574,8.454776,-0.549482,-2.151715,-3.541252,-2.260610,-0.498807,0.179288,-2.488471,0.036111,0.456962,-0.509925,-0.727914,85.404319,38.934401,-138.187133
32159,NaN,-1.482791,8.403272,-0.491866,-2.320488,-3.663993,-2.447734,-0.484399,0.191794,-2.386751,0.028949,0.463634,-0.502650,-0.729073,85.127257,40.311563,-138.195158
32160,NaN,-1.527791,8.205796,-0.443828,-2.344744,-3.649290,-2.667895,-0.450317,0.187544,-2.259582,0.022066,0.469877,-0.495733,-0.730053,84.863401,41.620426,-138.219367
32161,NaN,-1.378926,8.140678,-0.463556,-2.475753,-3.830171,-2.914510,-0.394634,0.165553,-2.097792,0.015677,0.475620,-0.489331,-0.730818,84.626091,42.831233,-138.244367
32162,NaN,-1.286109,8.375317,-0.485481,-2.698520,-4.127235,-2.904914,-0.342241,0.142248,-1.943696,0.009585,0.480823,-0.483442,-0.731437,84.404952,43.956904,-138.294896
32163,NaN,-1.134815,8.467429,-0.594259,-2.819114,-4.428592,-3.046852,-0.322308,0.122306,-1.768830,0.004117,0.485519,-0.477999,-0.731964,84.192642,44.977520,-138.342354
32164,NaN,-0.982558,8.657526,-0.710181,-2.970528,-4.777615,-3.121554,-0.298400,0.126402,-1.594929,-0.000835,0.489752,-0.473034,-0.732381,83.997895,45.902743,-138.388603
32165,NaN,-0.925751,8.831532,-0.798549,-3.074075,-5.045088,-3.135375,-0.297564,0.138579,-1.397662,-0.004965,0.493561,-0.468522,-0.732707,83.823642,46.712631,-138.401559
32166,NaN,-0.739718,9.244954,-0.927815,-3.317863,-5.525616,-3.079523,-0.281020,0.149769,-1.190256,-0.008413,0.496877,-0.464565,-0.732954,83.672763,47.408094,-138.399498
32167,NaN,-0.736434,9.560679,-0.950732,-3.488678,-5.786046,-2.942249,-0.259030,0.175537,-0.935498,-0.010859,0.499705,-0.461305,-0.733058,83.571066,47.957118,-138.343904
32168,NaN,-0.625911,9.955969,-1.076567,-3.667071,-6.200879,-2.828897,-0.242332,0.202853,-0.700057,-0.012474,0.502053,-0.458692,-0.733068,83.509217,48.376178,-138.251908
32169,NaN,-0.691430,10.104083,-1.162027,-3.655770,-6.355450,-2.730011,-0.228239,0.234860,-0.415307,-0.012954,0.503885,-0.456838,-0.732960,83.501392,48.632987,-138.095252
32170,NaN,-0.900153,10.290087,-1.300294,-3.540099,-6.490937,-2.483137,-0.228013,0.259808,-0.134787,-0.012397,0.505138,-0.455701,-0.732816,83.527917,48.733056,-137.897553
32171,NaN,-1.122513,10.176921,-1.298771,-3.360301,-6.335560,-2.390724,-0.235083,0.271806,0.163416,-0.010655,0.505781,-0.455280,-0.732662,83.583528,48.662661,-137.651699
32172,NaN,-1.287160,9.940023,-1.096208,-3.282887,-5.980423,-2.388439,-0.217622,0.264631,0.455845,-0.007938,0.505702,-0.455669,-0.732508,83.661459,48.425703,-137.392110
32173,NaN,-1.281431,9.911871,-0.859306,-3.401146,-5.783318,-2.355436,-0.160048,0.241890,0.747894,-0.004312,0.504892,-0.456992,-0.732273,83.778709,48.020095,-137.119441
32174,NaN,-1.178698,10.276209,-0.722390,-3.667015,-5.907481,-2.120785,-0.079725,0.216918,1.022948,0.000033,0.503324,-0.459304,-0.731918,83.937688,47.455683,-136.853198
32175,NaN,-1.181050,10.905730,-0.658230,-3.936325,-6.162557,-1.609662,-0.002011,0.209946,1.291145,0.005176,0.501124,-0.462548,-0.731367,84.150312,46.737575,-136.569020
32176,NaN,-1.255204,11.476290,-0.966013,-3.849004,-6.571154,-1.082493,0.032964,0.223743,1.560406,0.011224,0.498295,-0.466589,-0.730665,84.396526,45.864860,-136.265699
32177,NaN,-1.423683,11.766094,-1.385106,-3.480060,-6.822179,-0.662308,0.008382,0.267207,1.811606,0.018375,0.495032,-0.471111,-0.729836,84.658561,44.851428,-135.912068
32178,NaN,-1.783031,11.391186,-1.621059,-2.829604,-6.463368,-0.550968,-0.082911,0.350892,2.056550,0.026826,0.491410,-0.475875,-0.728931,84.911869,43.699477,-135.492284
32179,NaN,-2.117188,10.317303,-1.324013,-2.272427,-5.367688,-0.941316,-0.164379,0.450262,2.268051,0.036497,0.487609,-0.480769,-0.727851,85.165903,42.432389,-134.990572
32180,NaN,-2.442092,9.177651,-0.610745,-2.013857,-3.965691,-1.399651,-0.149249,0.522481,2.435891,0.046902,0.483566,-0.486068,-0.726430,85.450467,41.068398,-134.446113
32181,NaN,-2.914562,8.633460,0.273348,-2.067474,-2.681559,-1.348871,-0.012806,0.540959,2.597418,0.057609,0.479184,-0.492146,-0.724470,85.805206,39.613402,-133.895490
32182,NaN,-3.523029,8.516775,1.086940,-2.172424,-1.563275,-0.926738,0.207785,0.441525,2.744415,0.068055,0.474016,-0.499343,-0.722035,86.218069,38.064291,-133.439871
32183,NaN,-4.028826,8.885079,1.492081,-2.202741,-0.971780,-0.241932,0.451279,0.216741,2.840529,0.077706,0.467823,-0.507593,-0.719342,86.651460,36.452965,-133.160421
32184,NaN,-4.108781,9.635494,1.480894,-2.274267,-1.033993,0.466811,0.701261,-0.068082,2.913608,0.086288,0.460374,-0.516945,-0.716504,87.093402,34.785610,-133.104971
32185,NaN,-3.904002,10.530196,1.153767,-2.302944,-1.490824,1.138164,0.895176,-0.291063,2.963993,0.094016,0.452016,-0.527053,-0.713483,87.551455,33.086785,-133.213315
32186,NaN,-3.610293,11.399316,0.707749,-2.274775,-2.024903,1.771481,0.994187,-0.416088,2.989135,0.101252,0.443035,-0.537529,-0.710303,88.015710,31.367593,-133.424862
32187,NaN,-3.407529,12.086709,0.302981,-2.157660,-2.367551,2.333014,1.012401,-0.427546,2.976007,0.108350,0.433992,-0.547881,-0.706921,88.486274,29.661181,-133.651624
32188,NaN,-3.546692,12.424760,0.212192,-1.942853,-2.125685,2.784621,0.969916,-0.385643,2.971206,0.115607,0.424929,-0.557946,-0.703397,88.944949,27.955268,-133.868512
32189,NaN,-3.717940,12.257283,0.331905,-1.690005,-1.533205,2.795028,0.895158,-0.315314,2.960642,0.123158,0.416044,-0.567516,-0.699761,89.382416,26.261925,-134.046399
32190,NaN,-3.942532,11.864021,0.472575,-1.343031,-0.831468,2.597583,0.796456,-0.252515,2.939405,0.130989,0.407230,-0.576554,-0.696126,89.779568,24.577482,-134.200811
32191,NaN,-4.027530,11.207375,0.571270,-0.979784,-0.200171,2.067638,0.688756,-0.192799,2.892734,0.139019,0.398646,-0.584921,-0.692548,90.130739,22.925449,-134.322692
32192,NaN,-3.861808,10.492255,0.621338,-0.741655,0.206503,1.358064,0.615992,-0.118249,2.813681,0.147112,0.390365,-0.592728,-0.688946,90.456590,21.314394,-134.412036
32193,NaN,-3.625503,9.947406,0.584026,-0.558325,0.415355,0.767720,0.550718,-0.035962,2.675520,0.155069,0.382702,-0.599837,-0.685338,90.763042,19.787234,-134.453952
32194,NaN,-3.279464,9.447382,0.496403,-0.449747,0.462040,0.178974,0.468695,0.066042,2.469547,0.162762,0.375828,-0.606113,-0.681828,91.040801,18.372650,-134.444303
32195,NaN,-2.899394,8.981533,0.310052,-0.331819,0.364571,-0.382749,0.376104,0.188510,2.225627,0.170140,0.370031,-0.611404,-0.678465,91.287438,17.101042,-134.360521
32196,NaN,-2.450686,8.791045,0.105812,-0.337662,0.115318,-0.692952,0.299864,0.500560,1.908882,0.177525,0.366104,-0.615538,-0.674956,91.540330,16.001413,-134.096390
32197,NaN,-2.820949,8.635238,0.216054,-0.044061,0.615205,-0.746856,0.040230,0.737637,1.721941,0.185462,0.363337,-0.618164,-0.671910,91.677890,15.008862,-133.689041
32198,NaN,-2.813237,8.232415,0.191619,0.129218,0.776392,-1.146497,-0.052839,0.930713,1.454205,0.193260,0.361887,-0.619779,-0.669001,91.783469,14.160989,-133.170160
32199,NaN,-3.361906,8.076416,0.353856,0.467054,1.398786,-1.182484,-0.170527,1.111250,1.251767,0.201130,0.361572,-0.620398,-0.666272,91.841516,13.429532,-132.540520
32200,NaN,-3.606315,7.880783,0.389066,0.685638,1.717024,-1.336573,-0.194436,1.223356,1.156297,0.209070,0.361836,-0.620622,-0.663470,91.891504,12.745867,-131.848942
32201,NaN,-3.678350,7.770079,0.477880,0.720789,1.929862,-1.452772,-0.197296,1.340544,1.045013,0.216984,0.362847,-0.620454,-0.660528,91.948453,12.127255,-131.085656
32202,NaN,-3.762109,7.654779,0.534496,0.774942,2.127019,-1.571970,-0.199336,1.473901,0.993221,0.225140,0.364391,-0.620003,-0.657364,92.010213,11.531079,-130.248466
32203,NaN,-4.173623,7.803624,0.552094,1.010972,2.513106,-1.369823,-0.170552,1.619602,0.979196,0.233618,0.366497,-0.619396,-0.653798,92.097920,10.942677,-129.325715
32204,NaN,-4.590624,8.074699,0.482693,1.287212,2.848917,-1.052929,-0.154147,1.700487,1.008468,0.242402,0.368727,-0.618749,-0.649947,92.191480,10.331028,-128.361726
32205,NaN,-4.873751,8.256682,0.493337,1.424206,3.160007,-0.859786,-0.137404,1.730793,1.055462,0.251366,0.370929,-0.618138,-0.645858,92.288754,9.693532,-127.381703
32206,NaN,-5.104564,8.434498,0.547676,1.492402,3.470341,-0.689893,-0.111238,1.688114,1.122091,0.260346,0.372747,-0.617731,-0.641629,92.382883,9.014415,-126.433800
32207,NaN,-5.356455,8.692505,0.581362,1.577787,3.787548,-0.445044,-0.075905,1.572889,1.179671,0.269056,0.374062,-0.617628,-0.637356,92.477455,8.306458,-125.554203
32208,NaN,-5.553341,9.034725,0.605189,1.633286,4.057246,-0.132732,-0.037921,1.396943,1.222144,0.277270,0.374671,-0.617907,-0.633193,92.565762,7.575060,-124.782625
32209,NaN,-5.780644,9.304237,0.587075,1.755216,4.342590,0.106416,-0.001735,1.184583,1.263881,0.284862,0.374530,-0.618623,-0.629195,92.651607,6.826329,-124.134604
32210,NaN,-6.077225,9.516508,0.620297,1.887952,4.725197,0.286200,0.047672,0.953968,1.289847,0.291714,0.373600,-0.619827,-0.625412,92.739367,6.066470,-123.624864
32211,NaN,-6.270714,9.692018,0.677980,1.954232,5.042733,0.408198,0.083869,0.720520,1.314795,0.297833,0.371921,-0.621496,-0.621862,92.830213,5.299553,-123.249402
32212,NaN,-6.493438,9.712384,0.638367,2.141647,5.339149,0.375903,0.125179,0.491547,1.326618,0.303183,0.369508,-0.623620,-0.618580,92.925463,4.531028,-123.010374
32213,NaN,-6.465125,9.499599,0.558126,2.253274,5.408338,0.087937,0.163534,0.281307,1.322988,0.307782,0.366524,-0.626149,-0.615523,93.033442,3.771241,-122.890604
32214,NaN,-6.385935,9.400843,0.452924,2.354486,5.406330,-0.087084,0.193300,0.091223,1.271796,0.311553,0.363119,-0.628935,-0.612797,93.147529,3.046289,-122.883000
32215,NaN,-6.287459,9.472152,0.381867,2.406168,5.392277,-0.089940,0.208950,-0.070327,1.176109,0.314491,0.359557,-0.631828,-0.610416,93.269067,2.381331,-122.963113
32216,NaN,-6.203858,9.857453,0.310813,2.445287,5.379182,0.229102,0.236150,-0.196133,1.053694,0.316586,0.356005,-0.634753,-0.608376,93.401486,1.791451,-123.115869
32217,NaN,-6.310224,10.532160,0.288061,2.527462,5.550224,0.847243,0.262169,-0.286363,0.935749,0.317993,0.352608,-0.637681,-0.606556,93.552005,1.271843,-123.314279
32218,NaN,-6.463019,11.338561,0.311037,2.590360,5.785837,1.599739,0.248363,-0.345392,0.815997,0.318849,0.349362,-0.640425,-0.605093,93.692556,0.824784,-123.546942
32219,NaN,-6.610187,11.942315,0.349658,2.650149,6.017927,2.153776,0.219077,-0.383338,0.684005,0.319247,0.346392,-0.642908,-0.603956,93.820934,0.453721,-123.793826
32220,NaN,-6.825521,12.316947,0.352388,2.792810,6.271165,2.487362,0.181720,-0.407762,0.591272,0.319324,0.343565,-0.645133,-0.603157,93.925952,0.139423,-124.055236
32221,NaN,-6.881750,12.535103,0.310765,2.892088,6.353411,2.671438,0.160342,-0.445194,0.499224,0.319058,0.340900,-0.647201,-0.602595,94.023392,-0.122624,-124.331531
32222,NaN,-6.604008,12.558545,0.152155,2.909417,6.071942,2.678095,0.097001,-0.453905,0.390794,0.318514,0.338440,-0.648884,-0.602459,94.082108,-0.318838,-124.612544
32223,NaN,-6.141814,12.419757,-0.150909,2.940978,5.534252,2.545209,0.050934,-0.426607,0.240985,0.317709,0.336487,-0.650143,-0.602620,94.118580,-0.433459,-124.868217
32224,NaN,-5.542641,12.680283,-0.420607,2.828078,4.904606,2.821954,0.064234,-0.374468,0.064852,0.316488,0.335271,-0.651041,-0.602971,94.158984,-0.445479,-125.090896
32225,NaN,-5.274952,13.256819,-0.345276,2.583940,4.746680,3.396394,0.075639,-0.298750,-0.119534,0.314969,0.334913,-0.651561,-0.603405,94.209110,-0.359059,-125.258602
32226,NaN,-5.417314,13.594280,-0.143003,2.468642,4.965493,3.730639,0.048414,-0.264750,-0.314769,0.312979,0.335239,-0.651595,-0.604221,94.239308,-0.157787,-125.402799
32227,NaN,-5.822237,14.048016,0.063643,2.479956,5.384011,4.191276,0.042523,-0.288489,-0.508129,0.310372,0.336121,-0.651340,-0.605349,94.269291,0.150438,-125.548016
32228,NaN,-6.345014,14.011961,0.485947,2.405471,5.977090,4.162921,0.021575,-0.366872,-0.660888,0.307041,0.337225,-0.650854,-0.606955,94.282098,0.554812,-125.735085
32229,NaN,-6.776968,13.390233,0.868742,2.350430,6.434312,3.568426,-0.015304,-0.510637,-0.809238,0.302886,0.338315,-0.650240,-0.609091,94.275323,1.044638,-125.994250
32230,NaN,-6.784258,12.366629,0.886318,2.381271,6.304485,2.610136,-0.066790,-0.720819,-0.975612,0.297577,0.339219,-0.649455,-0.612035,94.229546,1.644685,-126.370294
32231,NaN,-6.209033,11.436526,0.527056,2.371778,5.473470,1.764769,-0.111672,-0.956479,-1.183711,0.290970,0.339992,-0.648530,-0.615752,94.153697,2.366774,-126.869565
32232,NaN,-5.385415,11.116208,0.052377,2.248433,4.364013,1.521876,-0.153920,-1.157693,-1.436243,0.282937,0.340883,-0.647256,-0.620327,94.036715,3.247685,-127.478761
32233,NaN,-4.609407,11.377470,-0.310468,1.987405,3.335164,1.836877,-0.215772,-1.301351,-1.708890,0.273717,0.342084,-0.645497,-0.625613,93.874058,4.281536,-128.158530
32234,NaN,-3.963712,12.014194,-0.500211,1.598239,2.468994,2.501762,-0.308756,-1.377202,-1.967164,0.263520,0.343719,-0.642982,-0.631655,93.636566,5.471240,-128.879743
32235,NaN,-3.581110,12.643831,-0.571284,1.245806,1.836912,3.151986,-0.420589,-1.402606,-2.192198,0.252727,0.345783,-0.639698,-0.638239,93.323056,6.779357,-129.611875
32236,NaN,-3.327451,13.091590,-0.480665,0.845684,1.370429,3.607060,-0.540648,-1.376906,-2.349757,0.241629,0.348233,-0.635563,-0.645298,92.919329,8.180234,-130.337200
32237,NaN,-3.221855,13.310470,-0.320428,0.503322,1.050399,3.835907,-0.644038,-1.326993,-2.436062,0.230588,0.350908,-0.630802,-0.652520,92.446894,9.615645,-131.041933
32238,NaN,-3.145509,13.071025,-0.134158,0.220437,0.804046,3.605896,-0.664346,-1.256450,-2.450876,0.219670,0.353787,-0.625685,-0.659620,91.944097,11.060275,-131.722375
32239,NaN,-3.048811,12.987320,-0.150922,0.052983,0.404119,3.521935,-0.678386,-1.185977,-2.442649,0.209020,0.356764,-0.620388,-0.666445,91.427549,12.484742,-132.376390
32240,NaN,-2.815955,12.423359,-0.276908,-0.044729,-0.088501,2.928074,-0.702586,-1.103185,-2.431613,0.198638,0.359923,-0.614757,-0.673107,90.881915,13.904546,-132.998620
32241,NaN,-2.820470,11.830788,-0.308085,-0.037720,-0.311881,2.349153,-0.763484,-1.057448,-2.404103,0.188590,0.362987,-0.608873,-0.679668,90.295325,15.293648,-133.612447
32242,NaN,-1.483339,10.736912,-0.750856,-0.523475,-1.623731,0.917090,-0.697588,-0.976974,-2.420536,0.178549,0.366403,-0.602926,-0.685820,89.733356,16.694604,-134.196522
32243,NaN,-1.616187,10.217214,-0.974815,-0.291845,-1.827081,0.411020,-0.716877,-0.702649,-2.450040,0.169264,0.370731,-0.596573,-0.691382,89.197189,18.100003,-134.634667
32244,NaN,-1.911272,9.558755,-0.966353,-0.081442,-1.706909,-0.167440,-0.728356,-0.529050,-2.500422,0.160288,0.375766,-0.589767,-0.696622,88.665347,19.540236,-134.985614
32245,NaN,-1.567908,8.500794,-0.896001,-0.240849,-1.831849,-1.321127,-0.650470,-0.379361,-2.525577,0.151517,0.381359,-0.583028,-0.701203,88.202487,20.986203,-135.262080
32246,NaN,-1.591926,8.249527,-0.725978,-0.401074,-1.818493,-1.588082,-0.529801,-0.219861,-2.553474,0.142830,0.387647,-0.576371,-0.705071,87.826361,22.457077,-135.455495
32247,NaN,-1.758996,8.005086,-0.542504,-0.481444,-1.686658,-1.788393,-0.423955,-0.103354,-2.594150,0.134132,0.394442,-0.569891,-0.708271,87.536795,23.945168,-135.588124
32248,NaN,-1.747663,7.782576,-0.427623,-0.638981,-1.710900,-2.036665,-0.288527,-0.032059,-2.616736,0.125235,0.401597,-0.563639,-0.710878,87.329914,25.454722,-135.686858
32249,NaN,-1.605637,7.785241,-0.422287,-0.867870,-1.953012,-2.144881,-0.152228,0.025100,-2.633367,0.116176,0.408995,-0.557763,-0.712830,87.218742,26.967854,-135.753769
32250,NaN,-1.558485,7.887764,-0.507924,-1.007471,-2.226902,-2.136371,-0.024292,0.067313,-2.648133,0.106866,0.416604,-0.552134,-0.714261,87.183768,28.497394,-135.799342
32251,NaN,-1.666194,8.092630,-0.609313,-1.079679,-2.449991,-1.972662,0.071350,0.083674,-2.644238,0.097430,0.424220,-0.546804,-0.715227,87.214122,30.018306,-135.832361
32252,NaN,-1.611103,8.315209,-0.818149,-1.193079,-2.857107,-1.886966,0.105520,0.082049,-2.643846,0.087870,0.431785,-0.541448,-0.716013,87.256533,31.545407,-135.868604
32253,NaN,-1.632855,8.409494,-0.964288,-1.263826,-3.125449,-1.878848,0.069568,0.063807,-2.614429,0.078458,0.439100,-0.535994,-0.716760,87.278271,33.048750,-135.913021
32254,NaN,-1.588477,8.325914,-1.088635,-1.321882,-3.346320,-2.061559,0.005141,0.043484,-2.591883,0.069171,0.446192,-0.530224,-0.717629,87.247787,34.544590,-135.974676
32255,NaN,-1.564661,8.154734,-1.173851,-1.350860,-3.484405,-2.305607,-0.047147,0.038649,-2.514718,0.060283,0.452959,-0.524405,-0.718466,87.190714,35.990139,-136.036447
32256,NaN,-1.452074,8.152726,-1.244929,-1.493560,-3.731294,-2.466354,-0.115601,0.043479,-2.452922,0.051746,0.459497,-0.518349,-0.719374,87.088056,37.405780,-136.099728
32257,NaN,-1.272464,8.202397,-1.312673,-1.684805,-4.031454,-2.634442,-0.210554,0.059036,-2.369368,0.043789,0.465775,-0.512110,-0.720333,86.941996,38.768582,-136.150021
32258,NaN,-1.170815,7.872184,-1.239872,-1.759839,-4.005696,-3.049992,-0.276932,0.091599,-2.263212,0.036417,0.471822,-0.505762,-0.721292,86.765211,40.076272,-136.181912
32259,NaN,-1.092670,7.875583,-1.193697,-1.926966,-4.133455,-3.191313,-0.310934,0.128753,-2.140211,0.029688,0.477625,-0.499552,-0.722109,86.592580,41.310055,-136.182038
32260,NaN,-0.950834,7.896589,-1.145257,-2.126924,-4.294167,-3.362413,-0.334300,0.178531,-2.005070,0.023594,0.483211,-0.493482,-0.722790,86.427227,42.472311,-136.147070
32261,NaN,-0.930753,7.861047,-1.067259,-2.247512,-4.333555,-3.490614,-0.343159,0.227714,-1.858353,0.018199,0.488566,-0.487716,-0.723260,86.292067,43.548507,-136.065197
32262,NaN,-0.968164,8.072357,-1.131956,-2.337501,-4.563864,-3.402749,-0.335505,0.271721,-1.685446,0.013495,0.493616,-0.482321,-0.723552,86.186036,44.531088,-135.945171
32263,NaN,-1.008102,8.381416,-1.105760,-2.531815,-4.777411,-3.236057,-0.315961,0.307759,-1.499705,0.009522,0.498318,-0.477454,-0.723620,86.126064,45.405537,-135.781809
32264,NaN,-0.986919,8.701972,-1.127111,-2.722484,-5.055654,-3.104775,-0.304015,0.339505,-1.308861,0.006263,0.502645,-0.473052,-0.723554,86.096571,46.174854,-135.585121
32265,NaN,-1.027322,8.997701,-1.147621,-2.864222,-5.283013,-2.941277,-0.293237,0.364304,-1.087496,0.003858,0.506525,-0.469250,-0.723341,86.106040,46.815986,-135.348163
32266,NaN,-1.010664,9.172156,-1.158588,-2.975496,-5.455491,-2.893457,-0.270198,0.388492,-0.866133,0.002237,0.509950,-0.466055,-0.723007,86.151554,47.333399,-135.079387
32267,NaN,-0.922099,9.360968,-1.217053,-3.083199,-5.691741,-2.880381,-0.261172,0.392717,-0.653132,0.001388,0.512892,-0.463448,-0.722603,86.222606,47.727047,-134.787803
32268,NaN,-0.943762,9.661623,-1.336472,-3.135392,-5.969042,-2.701884,-0.234518,0.407402,-0.414629,0.001355,0.515316,-0.461527,-0.722108,86.326538,47.985687,-134.471708
32269,NaN,-0.992117,9.800080,-1.351329,-3.165079,-6.058400,-2.592578,-0.230836,0.409387,-0.167876,0.002219,0.517186,-0.460268,-0.721573,86.450501,48.101762,-134.134707
32270,NaN,-1.005006,9.855307,-1.336397,-3.181568,-6.084407,-2.547660,-0.228353,0.394449,0.088281,0.003963,0.518397,-0.459665,-0.721081,86.572774,48.070627,-133.799784
32271,NaN,-1.108274,9.784584,-1.248393,-3.139906,-5.931968,-2.499860,-0.217748,0.364072,0.343879,0.006534,0.518920,-0.459773,-0.720617,86.694577,47.891504,-133.475452
32272,NaN,-1.336220,9.660935,-1.070916,-3.072869,-5.615153,-2.376747,-0.196760,0.309635,0.593558,0.009828,0.518655,-0.460593,-0.720246,86.796859,47.566795,-133.190233
32273,NaN,-1.527795,9.524186,-0.895223,-3.006443,-5.294355,-2.277686,-0.163509,0.224574,0.833038,0.013700,0.517540,-0.462160,-0.719981,86.873854,47.102656,-132.965750
32274,NaN,-1.632425,9.534137,-0.554679,-3.163890,-4.977874,-2.126210,-0.104000,0.124331,1.063076,0.018022,0.515508,-0.464529,-0.719819,86.924575,46.502262,-132.819972
32275,NaN,-1.739520,9.962474,-0.363262,-3.387396,-4.975626,-1.677822,-0.019894,0.034829,1.296899,0.022753,0.512617,-0.467798,-0.719633,86.977850,45.766638,-132.738050
32276,NaN,-1.925679,10.579360,-0.291952,-3.550413,-5.089983,-1.026293,0.050083,-0.043538,1.529798,0.027972,0.508864,-0.471901,-0.719434,87.027640,44.893230,-132.713937
32277,NaN,-2.076401,10.778724,-0.105178,-3.613706,-4.887952,-0.672152,0.063904,-0.089941,1.748211,0.033815,0.504414,-0.476585,-0.719229,87.067378,43.895590,-132.717492
32278,NaN,-2.062073,10.858138,-0.123558,-3.531045,-4.820798,-0.514605,0.062667,-0.109105,1.951753,0.040370,0.499350,-0.481739,-0.718991,87.098376,42.778103,-132.729545
32279,NaN,-1.978585,11.269994,-0.549501,-3.299262,-5.214250,-0.161218,0.086262,-0.118426,2.170409,0.047600,0.493694,-0.487475,-0.718587,87.146170,41.538052,-132.740333
32280,NaN,-1.838110,11.317577,-0.904554,-2.978291,-5.381109,-0.094063,0.036581,-0.058524,2.386499,0.055897,0.487631,-0.493494,-0.718022,87.197431,40.172371,-132.699677
32281,NaN,-1.945487,10.525781,-0.851138,-2.485887,-4.710649,-0.489318,-0.091938,0.065854,2.573160,0.065449,0.481464,-0.499391,-0.717299,87.238051,38.706972,-132.561653
32282,NaN,-2.244216,9.543856,-0.348289,-2.160252,-3.552471,-0.927288,-0.151834,0.179781,2.710301,0.075943,0.475237,-0.505285,-0.716288,87.290503,37.161761,-132.340687
32283,NaN,-2.661108,9.107327,0.115337,-1.957753,-2.616063,-0.904509,-0.102151,0.231614,2.825572,0.086815,0.468855,-0.511509,-0.714840,87.388553,35.556079,-132.086055
32284,NaN,-2.960080,9.223179,0.567935,-2.010377,-1.995649,-0.532563,0.042058,0.237727,2.939076,0.097789,0.462145,-0.518412,-0.712817,87.560257,33.880294,-131.833319
32285,NaN,-3.315937,9.840387,0.848007,-2.063208,-1.637062,0.267127,0.214096,0.253524,3.042374,0.108716,0.455229,-0.526036,-0.710094,87.826755,32.149763,-131.579687
32286,NaN,-3.611803,10.587611,0.877928,-1.982245,-1.473489,1.132742,0.413879,0.288472,3.147173,0.119667,0.448135,-0.534466,-0.706542,88.204163,30.353677,-131.315887
32287,NaN,-3.387928,11.223401,0.645488,-1.949613,-1.710614,1.638071,0.594893,0.365963,3.225467,0.130623,0.441120,-0.543519,-0.702095,88.695719,28.517367,-131.020740
32288,NaN,-2.880747,11.988174,0.266148,-2.002924,-2.233240,2.148611,0.737264,0.490596,3.243615,0.141671,0.434436,-0.552890,-0.696784,89.284640,26.664095,-130.669612
32289,NaN,-2.580260,12.773641,-0.080867,-1.964214,-2.565446,2.811701,0.771079,0.633228,3.170866,0.152707,0.428382,-0.561955,-0.690924,89.912144,24.855356,-130.255352
32290,NaN,-2.830543,13.185503,-0.170463,-1.689201,-2.203264,3.384881,0.690477,0.749801,3.022310,0.163739,0.422948,-0.570191,-0.684972,90.498779,23.121975,-129.793446
32291,NaN,-3.435596,13.087918,-0.228502,-1.096487,-1.415562,3.601103,0.569896,0.803369,2.840226,0.174467,0.418042,-0.577444,-0.679235,91.010050,21.494216,-129.321638
32292,NaN,-3.935656,12.790367,-0.241086,-0.554983,-0.638862,3.544471,0.394837,0.806232,2.654085,0.184952,0.413418,-0.583593,-0.674015,91.401690,19.963793,-128.863054
32293,NaN,-4.303623,12.205410,-0.260420,-0.029716,0.070885,3.131281,0.205920,0.825937,2.451125,0.195117,0.409228,-0.588559,-0.669373,91.676610,18.552719,-128.404303
32294,NaN,-4.541920,11.473256,-0.275688,0.433085,0.671975,2.503759,0.001178,0.855386,2.253761,0.205150,0.405432,-0.592314,-0.665358,91.825513,17.246804,-127.931258
32295,NaN,-4.596565,10.683269,-0.344923,0.820273,1.061445,1.744784,-0.175592,0.891494,2.060232,0.214924,0.402116,-0.594973,-0.661905,91.871161,16.056050,-127.440448
32296,NaN,-4.533152,9.914485,-0.439226,1.131305,1.293342,0.961507,-0.321768,0.910966,1.852403,0.224386,0.399254,-0.596639,-0.658991,91.824963,14.978348,-126.935158
32297,NaN,-4.275143,9.304386,-0.472613,1.228083,1.338974,0.275337,-0.430890,0.933783,1.653796,0.233407,0.396921,-0.597463,-0.656516,91.713839,14.020256,-126.415323
32298,NaN,-3.948721,8.796698,-0.477870,1.227631,1.295606,-0.325057,-0.520319,0.991441,1.486518,0.242260,0.395118,-0.597537,-0.654325,91.549853,13.153055,-125.856054
32299,NaN,-3.786932,8.297226,-0.401380,1.235216,1.402003,-0.876625,-0.550852,1.068613,1.338049,0.250845,0.393960,-0.597078,-0.652204,91.373566,12.376559,-125.250837
32300,NaN,-3.732936,7.991243,-0.241362,1.187537,1.594103,-1.216141,-0.526800,1.157424,1.218003,0.259293,0.393438,-0.596293,-0.649929,91.212206,11.664734,-124.588013
32301,NaN,-3.729197,7.820467,-0.137230,1.175742,1.764631,-1.411004,-0.447366,1.248817,1.154285,0.267574,0.393487,-0.595487,-0.647277,91.101690,10.994570,-123.874370
32302,NaN,-3.699549,7.758411,-0.177897,1.241012,1.818218,-1.502192,-0.350468,1.392807,1.149581,0.276107,0.394100,-0.594736,-0.644002,91.051404,10.322096,-123.074732
32303,NaN,-3.588248,7.759642,-0.152673,1.186735,1.839594,-1.547252,-0.223029,1.590673,1.171648,0.284973,0.395439,-0.594120,-0.639874,91.086980,9.639397,-122.164547
32304,NaN,-3.637103,7.881337,-0.111480,1.177426,1.998218,-1.447523,-0.091449,1.813375,1.216044,0.294396,0.397488,-0.593623,-0.634780,91.204742,8.923402,-121.126206
32305,NaN,-3.914754,7.935791,-0.031304,1.239993,2.394283,-1.384683,0.034862,2.015740,1.275551,0.304275,0.400152,-0.593278,-0.628741,91.401042,8.171987,-119.977705
32306,NaN,-4.238602,7.999578,0.009167,1.335563,2.826699,-1.316628,0.142862,2.153142,1.335230,0.314530,0.403162,-0.593083,-0.621920,91.651065,7.376262,-118.753562
32307,NaN,-4.655022,8.110047,0.094202,1.406850,3.373007,-1.205019,0.244106,2.235368,1.369232,0.324835,0.406433,-0.593053,-0.614477,91.949700,6.557403,-117.490976
32308,NaN,-5.098061,8.323148,0.055031,1.566996,3.892132,-1.000154,0.296644,2.244674,1.390193,0.335106,0.409671,-0.593098,-0.606720,92.257243,5.716650,-116.228094
32309,NaN,-5.443488,8.416610,-0.067723,1.749267,4.312125,-0.934759,0.346250,2.180411,1.401229,0.345024,0.412707,-0.593332,-0.598823,92.573537,4.867398,-115.010736
32310,NaN,-5.566832,8.675546,-0.236789,1.858756,4.513045,-0.730577,0.364179,2.031618,1.378994,0.354372,0.415316,-0.593721,-0.591125,92.872165,4.026059,-113.882722
32311,NaN,-5.669541,8.919500,-0.525842,2.075106,4.651678,-0.537435,0.317284,1.818507,1.309635,0.362899,0.417372,-0.594135,-0.584045,93.122909,3.227797,-112.881563
32312,NaN,-6.120335,9.335712,-0.664569,2.287945,5.163427,-0.160886,0.208888,1.539979,1.198779,0.370488,0.418692,-0.594424,-0.578010,93.287166,2.496718,-112.038413
32313,NaN,-6.520572,9.509571,-0.755945,2.466825,5.643577,-0.035981,0.063999,1.206030,1.094834,0.377030,0.419062,-0.594664,-0.573245,93.354089,1.836041,-111.386511
32314,NaN,-6.939770,9.474236,-0.764111,2.609004,6.156466,-0.127909,-0.056644,0.840838,1.010801,0.382498,0.418378,-0.595021,-0.569741,93.336134,1.234623,-110.940158
32315,NaN,-7.133743,9.732943,-0.756535,2.661024,6.442908,0.066564,-0.177853,0.469411,0.909333,0.386792,0.416700,-0.595527,-0.567540,93.243844,0.704630,-110.703589
32316,NaN,-7.126718,9.740779,-0.697405,2.637458,6.537751,0.008716,-0.267314,0.125660,0.845436,0.390070,0.414045,-0.596281,-0.566446,93.093661,0.222673,-110.660283
32317,NaN,-7.056643,9.984354,-0.597920,2.565600,6.574053,0.189295,-0.302164,-0.178376,0.786744,0.392329,0.410637,-0.597412,-0.566175,92.926136,-0.216526,-110.788114
32318,NaN,-7.003391,10.410057,-0.592595,2.599831,6.584998,0.562553,-0.308098,-0.431850,0.728901,0.393675,0.406658,-0.598877,-0.566564,92.754223,-0.614840,-111.058363
32319,NaN,-6.807647,10.802526,-0.406588,2.430334,6.520077,0.901087,-0.290291,-0.628133,0.671885,0.394224,0.402327,-0.600667,-0.567380,92.598781,-0.977006,-111.438009
32320,NaN,-6.762798,10.995833,-0.362830,2.463884,6.531606,1.052017,-0.260367,-0.777796,0.601654,0.394051,0.397825,-0.602664,-0.568556,92.461427,-1.294356,-111.901613
32321,NaN,-6.667264,11.146176,-0.339443,2.500532,6.479507,1.167625,-0.207955,-0.908415,0.524272,0.393153,0.393283,-0.604914,-0.569946,92.361244,-1.567018,-112.436598
32322,NaN,-6.390053,11.295554,-0.408919,2.549898,6.214711,1.298755,-0.156813,-0.988923,0.420664,0.391595,0.388913,-0.607226,-0.571556,92.290843,-1.776586,-113.015960
32323,NaN,-5.985070,11.300832,-0.572704,2.625671,5.780034,1.302815,-0.101220,-1.006034,0.297462,0.389523,0.384967,-0.609494,-0.573227,92.257325,-1.918458,-113.601160
32324,NaN,-5.497663,11.556934,-0.713651,2.619578,5.279697,1.569695,-0.024253,-0.959794,0.157063,0.387016,0.381720,-0.611586,-0.574866,92.264854,-1.977705,-114.158387
32325,NaN,-4.942377,12.194616,-0.814713,2.511756,4.746147,2.227436,0.067083,-0.862246,0.014946,0.384232,0.379359,-0.613488,-0.576269,92.325959,-1.960918,-114.654828
32326,NaN,-4.604746,13.322577,-0.828509,2.372975,4.463601,3.371636,0.156571,-0.748877,-0.122700,0.381201,0.377912,-0.615136,-0.577474,92.432461,-1.863189,-115.084860
32327,NaN,-5.172936,14.422365,-0.675638,2.442081,5.061815,4.457367,0.199586,-0.679071,-0.247239,0.377960,0.377125,-0.616553,-0.578606,92.564388,-1.699141,-115.469730
32328,NaN,-6.238479,15.042629,-0.161693,2.409017,6.224209,5.042649,0.165470,-0.695587,-0.329760,0.374463,0.376478,-0.617714,-0.580062,92.672539,-1.481866,-115.863613
32329,NaN,-7.392983,14.685825,0.319263,2.495172,7.393826,4.662688,0.087952,-0.832244,-0.401226,0.370500,0.375500,-0.618783,-0.582097,92.739585,-1.224150,-116.331329
32330,NaN,-7.711900,13.767794,0.545448,2.495037,7.659617,3.767707,0.014198,-1.099782,-0.490818,0.365543,0.373876,-0.619922,-0.585057,92.761477,-0.901854,-116.952155
32331,NaN,-7.044682,12.890591,0.281510,2.507051,6.809572,2.962951,-0.040034,-1.400612,-0.652787,0.359297,0.371753,-0.621144,-0.588970,92.753652,-0.484079,-117.737904
32332,NaN,-5.973024,12.401901,-0.296440,2.584084,5.439482,2.568917,-0.105879,-1.648126,-0.910841,0.351581,0.369565,-0.622059,-0.594015,92.698048,0.094276,-118.660939
32333,NaN,-5.007977,12.244617,-0.726864,2.532284,4.204580,2.493576,-0.207951,-1.795135,-1.254182,0.342577,0.367780,-0.622261,-0.600142,92.576163,0.865021,-119.657489
32334,NaN,-4.219155,12.296277,-0.901573,2.293924,3.206719,2.607536,-0.338611,-1.852279,-1.624750,0.332440,0.366721,-0.621361,-0.607380,92.359446,1.853741,-120.681581
32335,NaN,-3.723187,12.602352,-0.945038,2.039745,2.485681,2.963375,-0.454883,-1.824311,-1.964854,0.321548,0.366528,-0.619370,-0.615341,92.061674,3.024582,-121.685703
32336,NaN,-3.323416,12.752255,-0.805146,1.656115,1.906131,3.146024,-0.539776,-1.733062,-2.225846,0.310188,0.367231,-0.616332,-0.623746,91.692414,4.344893,-122.642754
32337,NaN,-3.034580,12.798511,-0.674140,1.320099,1.402191,3.215976,-0.572842,-1.617492,-2.408785,0.298649,0.368713,-0.612584,-0.632140,91.290896,5.754235,-123.538971
32338,NaN,-2.722610,12.863060,-0.529148,0.933165,0.876270,3.283172,-0.536175,-1.500410,-2.544269,0.286865,0.370970,-0.608345,-0.640317,90.889800,7.241412,-124.380296
32339,NaN,-2.526763,12.780580,-0.351974,0.573435,0.483945,3.198001,-0.470700,-1.398475,-2.603457,0.275056,0.373724,-0.603966,-0.647996,90.515405,8.748313,-125.173219
32340,NaN,-2.505649,12.454714,-0.264708,0.396173,0.224798,2.885768,-0.401546,-1.328835,-2.621463,0.263159,0.376779,-0.599509,-0.655266,90.159982,10.267745,-125.942206
32341,NaN,-2.622397,11.861155,-0.162859,0.312499,0.152847,2.330652,-0.290584,-1.299966,-2.598804,0.251206,0.379915,-0.595327,-0.661926,89.853665,11.762327,-126.703245
32342,NaN,-2.676420,11.537496,-0.151447,0.234934,-0.032103,2.029433,-0.156369,-1.284926,-2.552216,0.239094,0.383060,-0.591493,-0.668008,89.599666,13.233984,-127.470598
32343,NaN,-2.700306,11.013817,-0.263610,0.263261,-0.245898,1.524360,-0.025055,-1.255362,-2.487959,0.227034,0.386183,-0.588107,-0.673386,89.408627,14.658668,-128.226891
32344,NaN,-2.635003,10.448709,-0.482331,0.331371,-0.553476,0.954352,0.079091,-1.228181,-2.449548,0.214877,0.389324,-0.584971,-0.678280,89.256399,16.066191,-128.982181
32345,NaN,-2.327571,9.799985,-0.791115,0.341406,-1.047717,0.230393,0.148220,-1.173207,-2.439174,0.202802,0.392627,-0.581951,-0.682677,89.137829,17.459629,-129.707154
32346,NaN,-1.842068,9.239934,-0.987957,0.146561,-1.592829,-0.475548,0.152023,-1.084380,-2.456488,0.190818,0.396206,-0.578686,-0.686828,89.013760,18.868893,-130.394294
32347,NaN,-1.642530,8.718511,-1.164419,0.111553,-1.900472,-1.069844,0.136178,-1.000422,-2.529605,0.178884,0.400205,-0.575061,-0.690754,88.883062,20.312923,-131.033474
32348,NaN,-1.457641,8.416665,-1.241730,-0.029536,-2.178411,-1.460689,0.113702,-0.918300,-2.626741,0.166788,0.404648,-0.570966,-0.694579,88.733766,21.817996,-131.642531
32349,NaN,-1.341774,8.211737,-1.307525,-0.155102,-2.418994,-1.746568,0.069979,-0.836518,-2.732733,0.154686,0.409582,-0.566337,-0.698267,88.563611,23.377420,-132.204241
32350,NaN,-1.219675,8.080367,-1.282401,-0.369791,-2.622081,-1.976392,0.046464,-0.738312,-2.854871,0.142375,0.415074,-0.561169,-0.701807,88.380781,25.012162,-132.728044
32351,NaN,-1.230332,7.971591,-1.216004,-0.538610,-2.710165,-2.138146,0.039605,-0.621539,-2.930927,0.130183,0.421117,-0.555622,-0.704981,88.211189,26.685529,-133.181885
32352,NaN,-1.268049,7.880676,-1.179337,-0.673216,-2.800999,-2.276097,0.068076,-0.515606,-2.938938,0.118094,0.427454,-0.549954,-0.707734,88.067769,28.369429,-133.588846
32353,NaN,-1.294671,7.911149,-1.058162,-0.912000,-2.878539,-2.312046,0.088193,-0.443552,-2.932829,0.106229,0.433971,-0.544215,-0.710081,87.947811,30.045351,-133.949693
32354,NaN,-1.369476,7.816456,-0.954465,-1.068590,-2.885018,-2.436124,0.104667,-0.397097,-2.896347,0.094483,0.440436,-0.538469,-0.712138,87.835314,31.705222,-134.299306
32355,NaN,-1.442954,7.908204,-0.892373,-1.254236,-2.988484,-2.402588,0.109794,-0.391254,-2.821238,0.083067,0.446660,-0.532793,-0.713951,87.719442,33.317137,-134.642352
32356,NaN,-1.429695,8.054795,-0.761814,-1.560122,-3.116016,-2.372503,0.141109,-0.406879,-2.714259,0.071830,0.452438,-0.527368,-0.715558,87.599400,34.870913,-135.013826
32357,NaN,-1.374361,8.325344,-0.841032,-1.784747,-3.459173,-2.279277,0.182034,-0.419607,-2.578940,0.061012,0.457777,-0.522306,-0.716878,87.490088,36.342245,-135.390332
32358,NaN,-1.362768,8.384978,-0.905120,-1.913237,-3.667228,-2.337964,0.184847,-0.439152,-2.431883,0.050582,0.462555,-0.517513,-0.718098,87.358707,37.731755,-135.797508
32359,NaN,-1.396257,8.438602,-1.066762,-1.935784,-3.907258,-2.377616,0.162547,-0.456688,-2.268067,0.040810,0.466805,-0.512946,-0.719245,87.199502,39.022728,-136.212971
32360,NaN,-1.346061,8.425051,-1.268063,-1.939511,-4.181766,-2.522307,0.114919,-0.466516,-2.089025,0.031694,0.470458,-0.508571,-0.720431,86.993756,40.212774,-136.652336
32361,NaN,-1.153633,8.361099,-1.459542,-1.992324,-4.490001,-2.795758,0.037042,-0.458359,-1.911140,0.023487,0.473660,-0.504270,-0.721669,86.740704,41.297121,-137.081047
32362,NaN,-0.938258,8.259420,-1.618239,-2.047828,-4.756435,-3.112102,-0.036328,-0.417598,-1.748354,0.016084,0.476517,-0.500047,-0.722929,86.452613,42.290527,-137.494422
32363,NaN,-0.705493,8.301567,-1.687180,-2.223846,-5.027978,-3.329428,-0.123279,-0.349109,-1.585864,0.009704,0.479203,-0.495847,-0.724159,86.146408,43.189659,-137.849780
32364,NaN,-0.504576,8.418582,-1.708586,-2.436359,-5.279260,-3.469295,-0.192624,-0.269813,-1.430315,0.004196,0.481728,-0.491744,-0.725334,85.834110,44.003289,-138.154732
32365,NaN,-0.383147,8.664504,-1.687392,-2.683904,-5.522066,-3.458945,-0.242453,-0.185063,-1.283481,-0.000398,0.484205,-0.487779,-0.726373,85.540543,44.733885,-138.383908
32366,NaN,-0.413159,9.199802,-1.612807,-3.017486,-5.804006,-3.133202,-0.262844,-0.102796,-1.122979,-0.004204,0.486541,-0.484120,-0.727247,85.279109,45.376733,-138.552092
32367,NaN,-0.493022,9.876180,-1.594286,-3.346315,-6.177806,-2.674070,-0.280151,-0.034995,-0.937978,-0.007086,0.488692,-0.480825,-0.727968,85.054544,45.915799,-138.649510
32368,NaN,-0.543680,10.407140,-1.632532,-3.572900,-6.526109,-2.335185,-0.296909,0.020118,-0.729758,-0.009072,0.490504,-0.477982,-0.728599,84.857919,46.338708,-138.697308
32369,NaN,-0.577980,10.745974,-1.699998,-3.681963,-6.793247,-2.131892,-0.320323,0.077053,-0.508399,-0.010023,0.492019,-0.475582,-0.729135,84.695340,46.638033,-138.676151
32370,NaN,-0.810137,10.709811,-1.710791,-3.532614,-6.715648,-2.021427,-0.342060,0.134235,-0.242460,-0.009841,0.493078,-0.473772,-0.729601,84.567085,46.787980,-138.594103
32371,NaN,-1.130184,10.515478,-1.660102,-3.288732,-6.454844,-1.930579,-0.367961,0.164422,0.020528,-0.008539,0.493653,-0.472500,-0.730053,84.459798,46.790491,-138.459740
32372,NaN,-1.382839,10.173632,-1.478066,-3.087308,-6.035714,-1.961689,-0.373160,0.168032,0.303915,-0.006197,0.493540,-0.471924,-0.730525,84.366409,46.630134,-138.304928
32373,NaN,-1.478584,9.762691,-1.173626,-3.009634,-5.548259,-2.129439,-0.333522,0.126942,0.581635,-0.003019,0.492646,-0.472155,-0.731000,84.288714,46.310906,-138.156256
32374,NaN,-1.487070,9.695789,-0.873525,-3.128833,-5.277139,-2.109160,-0.239502,0.071665,0.846023,0.000753,0.490885,-0.473396,-0.731388,84.245488,45.835437,-138.036697
32375,NaN,-1.506839,10.281909,-0.817662,-3.362097,-5.509308,-1.627364,-0.096536,0.003168,1.098527,0.004945,0.488296,-0.475744,-0.731581,84.258846,45.214572,-137.948325
32376,NaN,-1.554078,10.746825,-0.961740,-3.368991,-5.772332,-1.200912,0.021502,-0.048093,1.340032,0.009599,0.484891,-0.479131,-0.731589,84.321986,44.449661,-137.888818
32377,NaN,-1.356493,10.949253,-1.050497,-3.413593,-5.947950,-1.106565,0.085999,-0.069759,1.564217,0.014877,0.480886,-0.483240,-0.731442,84.420538,43.559036,-137.825963
32378,NaN,-1.114790,11.240565,-1.347402,-3.362033,-6.317464,-0.970083,0.143421,-0.051170,1.764412,0.020786,0.476395,-0.488042,-0.731048,84.568844,42.550922,-137.742002
32379,NaN,-1.199264,11.473405,-1.791822,-2.988523,-6.579736,-0.644294,0.150373,-0.004729,1.951242,0.027480,0.471618,-0.493230,-0.730442,84.749275,41.442763,-137.609499
32380,NaN,-1.480536,10.900402,-1.865446,-2.411291,-6.056864,-0.758066,0.084193,0.090960,2.109056,0.035131,0.466694,-0.498534,-0.729676,84.940079,40.243853,-137.406731
32381,NaN,-1.793233,9.749522,-1.407012,-1.952716,-4.860448,-1.279972,0.027743,0.178076,2.256604,0.043673,0.461704,-0.503852,-0.728735,85.135879,38.969820,-137.133353
32382,NaN,-2.164242,8.856886,-0.671915,-1.775827,-3.573023,-1.587374,0.097966,0.240661,2.383973,0.052664,0.456520,-0.509692,-0.727344,85.394077,37.619137,-136.823899
32383,NaN,-2.767486,8.686975,0.324809,-1.946289,-2.313469,-1.205516,0.294128,0.201379,2.508656,0.061557,0.450912,-0.516409,-0.725404,85.736002,36.200270,-136.544541
32384,NaN,-3.231937,9.095290,0.996370,-2.177306,-1.584168,-0.490316,0.557420,0.069300,2.616368,0.069896,0.444496,-0.524331,-0.722921,86.163815,34.706564,-136.374743
32385,NaN,-3.399388,9.802063,1.353480,-2.454642,-1.321474,0.271428,0.828900,-0.090825,2.690589,0.077466,0.437373,-0.533303,-0.719925,86.672406,33.170040,-136.324548
32386,NaN,-3.207709,10.618336,1.155441,-2.580515,-1.642676,0.911447,1.068798,-0.198476,2.747628,0.084409,0.429647,-0.543253,-0.716348,87.270769,31.590333,-136.370446
32387,NaN,-2.869796,11.491279,0.792044,-2.698462,-2.139262,1.547052,1.226382,-0.194755,2.774696,0.091108,0.421896,-0.553642,-0.712169,87.950580,30.002650,-136.426125
32388,NaN,-2.694766,12.475767,0.433050,-2.753411,-2.526442,2.398664,1.280122,-0.076732,2.795046,0.098061,0.414359,-0.564147,-0.707410,88.691424,28.398482,-136.433574
32389,NaN,-3.003386,13.099867,0.171783,-2.438026,-2.378362,3.188906,1.253970,0.091513,2.822283,0.105626,0.407304,-0.574334,-0.702201,89.455327,26.787928,-136.347714
32390,NaN,-3.510772,13.168467,0.324705,-2.081879,-1.597246,3.564129,1.159926,0.252223,2.859618,0.113949,0.400484,-0.584107,-0.696741,90.198498,25.147538,-136.191481
32391,NaN,-3.903953,12.857084,0.516627,-1.693246,-0.744646,3.505593,1.032099,0.381221,2.871066,0.122919,0.393987,-0.593182,-0.691231,90.886149,23.506038,-135.971449
32392,NaN,-4.249693,12.299555,0.568902,-1.159295,0.024080,3.160561,0.876822,0.496617,2.859815,0.132463,0.387649,-0.601556,-0.685793,91.499278,21.859137,-135.711316
32393,NaN,-4.367980,11.453973,0.441344,-0.577332,0.542047,2.427815,0.687673,0.568772,2.778824,0.142291,0.381677,-0.608877,-0.680694,92.004763,20.263304,-135.416825
32394,NaN,-4.149031,10.604515,0.311153,-0.238460,0.775275,1.549592,0.482741,0.658710,2.589985,0.152115,0.376284,-0.615013,-0.676041,92.400588,18.763382,-135.086949
32395,NaN,-4.143378,10.016041,0.365606,0.020998,1.164128,0.969753,0.238938,0.710051,2.375813,0.161804,0.371554,-0.619721,-0.672096,92.655477,17.391082,-134.724841
32396,NaN,-4.478429,9.151614,0.169659,0.729635,1.603559,0.223712,0.088059,0.657214,2.146952,0.170828,0.367108,-0.623500,-0.668803,92.807009,16.142240,-134.401762
32397,NaN,-3.530314,8.621429,0.207504,0.302110,1.224431,-0.580020,0.000981,0.727242,1.877400,0.179300,0.363693,-0.626316,-0.665813,92.913784,15.052690,-134.027626
32398,NaN,-3.636813,8.040820,0.148902,0.638809,1.473207,-1.133801,-0.170116,0.851465,1.705335,0.187897,0.360978,-0.628117,-0.663219,92.934952,14.050236,-133.583024
32399,NaN,-3.726116,7.445053,0.263565,0.815272,1.806630,-1.722421,-0.123873,0.878441,1.452471,0.195626,0.359225,-0.629499,-0.660620,92.980500,13.198746,-133.112189
32400,NaN,-3.837808,7.424566,0.398055,0.854201,2.076724,-1.752416,-0.107394,0.911260,1.291754,0.202902,0.358017,-0.630607,-0.658020,93.033629,12.430866,-132.624042
32401,NaN,-4.026569,7.284263,0.446386,1.013689,2.350847,-1.880591,-0.069183,0.917680,1.172043,0.209708,0.357287,-0.631548,-0.655374,93.103865,11.737730,-132.126018
32402,NaN,-4.007982,7.155022,0.440504,1.062559,2.432537,-2.040601,-0.031263,0.936952,1.080722,0.216211,0.356869,-0.632428,-0.652634,93.191995,11.088971,-131.620606
32403,NaN,-3.906293,7.122679,0.390241,1.063224,2.410248,-2.118304,0.024413,1.023657,1.036056,0.222718,0.356977,-0.633253,-0.649580,93.316264,10.468605,-131.060943
32404,NaN,-4.159278,7.187947,0.452966,1.186143,2.719437,-2.042982,0.068182,1.103103,1.024416,0.229365,0.357354,-0.634102,-0.646223,93.466503,9.844812,-130.461373
32405,NaN,-4.617658,7.341935,0.602956,1.349314,3.239890,-1.858325,0.146342,1.130763,1.020558,0.235918,0.357958,-0.635102,-0.642537,93.658141,9.226546,-129.844607
32406,NaN,-4.770248,7.763141,0.735459,1.282182,3.505387,-1.468240,0.196953,1.109520,0.994698,0.242233,0.358565,-0.636228,-0.638724,93.868771,8.616281,-129.245809
32407,NaN,-4.915239,8.107660,0.824364,1.250233,3.749979,-1.155505,0.241136,1.081352,0.981868,0.248309,0.359206,-0.637451,-0.634799,94.096895,8.017649,-128.662688
32408,NaN,-5.251339,8.447071,0.869228,1.368486,4.121411,-0.822403,0.271395,1.012131,0.940126,0.253980,0.359733,-0.638763,-0.630926,94.329299,7.438621,-128.124169
32409,NaN,-5.418009,8.965471,0.916692,1.353021,4.356055,-0.338096,0.257769,0.900079,0.873488,0.259080,0.360133,-0.640011,-0.627350,94.542185,6.905393,-127.646944
32410,NaN,-5.543312,9.185311,0.826021,1.466266,4.487185,-0.143413,0.214599,0.777049,0.828752,0.263729,0.360177,-0.641190,-0.624176,94.715925,6.397634,-127.243795
32411,NaN,-5.846138,9.447581,0.816806,1.621255,4.803641,0.106839,0.180855,0.658546,0.789234,0.267913,0.359967,-0.642317,-0.621350,94.861455,5.921159,-126.905519
32412,NaN,-6.080904,9.343424,0.840458,1.763815,5.093840,-0.018590,0.120430,0.535787,0.772306,0.271761,0.359295,-0.643386,-0.618957,94.960466,5.456063,-126.641766
32413,NaN,-6.286901,9.204739,0.808741,1.943244,5.321378,-0.178766,0.102020,0.397108,0.776530,0.275195,0.358192,-0.644570,-0.616843,95.041545,4.998655,-126.455022
32414,NaN,-6.284252,9.317107,0.712286,2.028476,5.330266,-0.102866,0.042414,0.258435,0.728348,0.278142,0.356692,-0.645668,-0.615241,95.078104,4.572893,-126.349055
32415,NaN,-6.296259,9.269261,0.706200,2.076626,5.399302,-0.190036,0.021623,0.151213,0.718364,0.280739,0.354897,-0.646820,-0.613887,95.099761,4.160893,-126.301026
32416,NaN,-6.261168,9.678517,0.647792,2.091339,5.391232,0.180109,0.018642,0.081576,0.661909,0.282938,0.353021,-0.647959,-0.612758,95.114297,3.782516,-126.294385
32417,NaN,-6.160367,10.269473,0.537152,2.090232,5.299664,0.734575,0.032321,0.064459,0.630627,0.284960,0.351252,-0.649095,-0.611633,95.138591,3.424995,-126.291776
32418,NaN,-6.000239,11.002295,0.426990,2.039010,5.164554,1.430314,0.041924,0.097223,0.569327,0.286876,0.349754,-0.650103,-0.610525,95.166735,3.099454,-126.271687
32419,NaN,-5.944031,11.587894,0.303937,2.070433,5.108574,1.990640,0.049905,0.180757,0.521130,0.288906,0.348714,-0.650924,-0.609286,95.204766,2.798387,-126.197324
32420,NaN,-5.883304,12.102493,0.090226,2.174909,4.995208,2.492153,0.026166,0.265115,0.438880,0.290989,0.348128,-0.651401,-0.608119,95.228188,2.539325,-126.074919
32421,NaN,-5.881650,12.302057,-0.069648,2.294863,4.951688,2.683451,-0.005884,0.359427,0.327363,0.293105,0.348178,-0.651448,-0.607024,95.238356,2.339417,-125.888665
32422,NaN,-5.893856,12.355956,-0.302034,2.488008,4.862527,2.743744,-0.063944,0.444041,0.184575,0.295145,0.348827,-0.650940,-0.606207,95.213877,2.216723,-125.651635
32423,NaN,-5.897664,12.101238,-0.519792,2.683635,4.753569,2.503735,-0.120696,0.519223,0.002281,0.296991,0.350247,-0.649829,-0.605678,95.161667,2.194180,-125.357150
32424,NaN,-5.750712,11.819082,-0.735900,2.783228,4.502898,2.240546,-0.183394,0.590556,-0.205969,0.298522,0.352428,-0.648049,-0.605567,95.072562,2.288018,-125.016762
32425,NaN,-5.433383,11.651013,-0.849273,2.678175,4.155509,2.084704,-0.204411,0.660535,-0.429898,0.299659,0.355545,-0.645701,-0.605692,94.977658,2.505888,-124.619741
32426,NaN,-5.172782,11.996964,-0.843714,2.443729,3.909287,2.440549,-0.160023,0.734173,-0.645407,0.300266,0.359610,-0.642976,-0.605890,94.909369,2.845313,-124.175849
32427,NaN,-5.417473,12.442781,-0.604802,2.269533,4.191392,2.908084,-0.131990,0.778038,-0.829987,0.300426,0.364463,-0.639924,-0.606142,94.865215,3.286803,-123.692400
32428,NaN,-5.704764,12.469483,-0.421846,2.186790,4.454992,2.977145,-0.118574,0.739927,-0.975493,0.299951,0.369644,-0.636679,-0.606657,94.828840,3.815801,-123.229916
32429,NaN,-5.942909,12.665235,-0.314498,2.106269,4.619707,3.227452,-0.055213,0.605519,-1.081905,0.298633,0.374867,-0.633609,-0.607315,94.831290,4.409921,-122.832921
32430,NaN,-6.346443,12.732998,-0.083790,2.018757,4.977260,3.361641,-0.014117,0.405256,-1.129226,0.296405,0.379645,-0.630850,-0.608310,94.849119,5.043379,-122.555094
32431,NaN,-6.743585,12.371621,0.032341,2.075493,5.269889,3.088954,0.001407,0.149738,-1.164706,0.293266,0.383802,-0.628428,-0.609728,94.868719,5.706689,-122.414388
32432,NaN,-6.715752,11.711447,0.015605,2.069122,5.137792,2.499060,0.018299,-0.160737,-1.218860,0.288893,0.387159,-0.626385,-0.611793,94.877951,6.419431,-122.456744
32433,NaN,-6.021427,11.267804,-0.356862,1.991600,4.239920,2.078593,0.048951,-0.462091,-1.306080,0.283287,0.389928,-0.624676,-0.614397,94.887497,7.193227,-122.660198
32434,NaN,-5.006299,11.192785,-0.802197,1.754274,3.000917,1.972862,0.062814,-0.696003,-1.447884,0.276411,0.392380,-0.623031,-0.617630,94.881835,8.063245,-123.001013
32435,NaN,-4.196822,11.553092,-1.151587,1.469528,1.936059,2.291107,0.018584,-0.858077,-1.623506,0.268615,0.394827,-0.621080,-0.621464,94.835998,9.037396,-123.418656
32436,NaN,-3.593979,11.971327,-1.411136,1.193286,1.053823,2.664543,-0.062563,-0.952116,-1.811646,0.260009,0.397378,-0.618576,-0.625979,94.725026,10.126974,-123.894177
32437,NaN,-3.108260,12.297842,-1.438042,0.787404,0.378609,2.922969,-0.159431,-0.987500,-1.950589,0.251088,0.400118,-0.615465,-0.630923,94.549347,11.292310,-124.378132
32438,NaN,-2.891314,12.559035,-1.287452,0.385494,0.008169,3.133019,-0.227966,-0.961510,-2.052084,0.241962,0.403072,-0.611830,-0.636122,94.324059,12.516885,-124.858975
32439,NaN,-2.883383,12.656811,-1.038020,0.043375,-0.125730,3.208898,-0.251937,-0.924251,-2.096598,0.232895,0.406242,-0.607897,-0.641239,94.082126,13.759360,-125.312924
32440,NaN,-2.937847,12.755288,-0.922717,-0.159293,-0.292594,3.304546,-0.241935,-0.897771,-2.101013,0.223771,0.409425,-0.603882,-0.646239,93.835050,15.005403,-125.769595
32441,NaN,-2.925413,12.731183,-1.031511,-0.197868,-0.622513,3.274392,-0.238287,-0.874686,-2.071000,0.214848,0.412585,-0.599829,-0.651014,93.585229,16.227554,-126.211250
32442,NaN,-2.950848,12.276422,-1.186255,-0.080753,-0.861530,2.839211,-0.273002,-0.836159,-1.993514,0.206261,0.415501,-0.595718,-0.655695,93.306817,17.405780,-126.652812
32443,NaN,-2.899576,11.524103,-1.271661,0.019592,-1.031160,2.093654,-0.287024,-0.809677,-1.922690,0.198067,0.418279,-0.591601,-0.660167,93.016749,18.536903,-127.078087
32444,NaN,-2.603166,10.657094,-1.472932,0.113331,-1.399543,1.166566,-0.280219,-0.791385,-1.870908,0.189985,0.420877,-0.587544,-0.664500,92.719766,19.639259,-127.514454
32445,NaN,-2.338758,10.019933,-1.521438,0.062480,-1.668935,0.453315,-0.280247,-0.746298,-1.866053,0.182108,0.423615,-0.583381,-0.668621,92.424605,20.732111,-127.920732
32446,NaN,-2.142427,9.249454,-1.571713,0.094360,-1.830182,-0.365410,-0.287609,-0.707333,-1.895222,0.174175,0.426477,-0.579041,-0.672676,92.120280,21.842245,-128.321698
32447,NaN,-2.051974,8.470864,-1.519312,0.118923,-1.820426,-1.155694,-0.257499,-0.699370,-1.956680,0.166043,0.429563,-0.574596,-0.676568,91.828204,22.982026,-128.715490
32448,NaN,-1.897299,8.072782,-1.439462,-0.010906,-1.925202,-1.619251,-0.204733,-0.707612,-2.020263,0.157475,0.432763,-0.570140,-0.680337,91.550367,24.159821,-129.132614
32449,NaN,-1.784696,7.595657,-1.315641,-0.126672,-1.931399,-2.140583,-0.136132,-0.731297,-2.094591,0.148485,0.436132,-0.565701,-0.683903,91.297430,25.375503,-129.563555
32450,NaN,-1.671268,7.385243,-1.154995,-0.347090,-1.982691,-2.422496,-0.050482,-0.759616,-2.163545,0.138915,0.439578,-0.561352,-0.687283,91.069847,26.632593,-130.030178
32451,NaN,-1.780341,7.381529,-1.042013,-0.469589,-1.971043,-2.421188,0.058224,-0.777363,-2.218014,0.128908,0.443161,-0.557194,-0.690309,90.889224,27.916361,-130.509349
32452,NaN,-1.815979,7.789282,-1.021312,-0.706351,-2.212456,-2.091490,0.179739,-0.793501,-2.263012,0.118361,0.446802,-0.553284,-0.692991,90.755665,29.227907,-131.016139
32453,NaN,-1.675469,8.110264,-1.086986,-0.969235,-2.600810,-1.934982,0.254395,-0.768183,-2.274223,0.107712,0.450567,-0.549514,-0.695286,90.662042,30.541788,-131.507817
32454,NaN,-1.697083,8.166459,-1.119180,-1.084551,-2.763685,-1.938283,0.273967,-0.722853,-2.263023,0.097122,0.454380,-0.545728,-0.697343,90.577380,31.851071,-131.985316
32455,NaN,-1.711769,8.036173,-1.184227,-1.113352,-2.877235,-2.106100,0.284393,-0.677789,-2.240562,0.086740,0.458252,-0.541935,-0.699134,90.504797,33.143921,-132.434132
32456,NaN,-1.598542,7.997149,-1.253481,-1.241347,-3.101676,-2.268371,0.277931,-0.621043,-2.183921,0.076677,0.462086,-0.538141,-0.700715,90.433260,34.406093,-132.858566
32457,NaN,-1.379216,7.880998,-1.335100,-1.383555,-3.357256,-2.559632,0.242488,-0.545023,-2.131467,0.067111,0.465991,-0.534256,-0.702082,90.363284,35.634960,-133.232374
32458,NaN,-1.127405,7.635666,-1.328190,-1.546046,-3.504635,-2.981623,0.214660,-0.465097,-2.092930,0.057919,0.469990,-0.530262,-0.703261,90.296221,36.843220,-133.562483
32459,NaN,-0.959795,7.575761,-1.320165,-1.727467,-3.667539,-3.208213,0.183263,-0.380602,-2.020051,0.049306,0.474049,-0.526254,-0.704204,90.242308,38.007113,-133.833203
32460,NaN,-0.915366,7.510307,-1.266726,-1.862667,-3.717522,-3.366310,0.145026,-0.302578,-1.946575,0.041220,0.478117,-0.522201,-0.704990,90.190510,39.130268,-134.056926
32461,NaN,-0.955953,7.509216,-1.197731,-1.983375,-3.731538,-3.419186,0.117799,-0.255337,-1.853161,0.033670,0.482071,-0.518228,-0.705630,90.142901,40.197944,-134.246045
32462,NaN,-0.990841,7.693708,-1.073923,-2.224900,-3.792026,-3.332179,0.101076,-0.216665,-1.749523,0.026607,0.485836,-0.514385,-0.706161,90.095725,41.207295,-134.414053
32463,NaN,-1.081522,7.919055,-1.030528,-2.396451,-3.895485,-3.177639,0.097633,-0.194766,-1.630320,0.020043,0.489349,-0.510789,-0.706562,90.056914,42.147014,-134.564988
32464,NaN,-1.153975,8.252128,-0.948148,-2.653874,-4.031871,-2.954999,0.067595,-0.189175,-1.493959,0.014040,0.492488,-0.507377,-0.706985,89.996178,43.009233,-134.718021
32465,NaN,-1.192652,8.539955,-0.931223,-2.857216,-4.208797,-2.788328,0.041952,-0.192572,-1.341718,0.008636,0.495213,-0.504234,-0.707416,89.918694,43.783362,-134.873954
32466,NaN,-1.266794,8.880665,-0.993124,-3.006919,-4.446960,-2.557393,0.012667,-0.190556,-1.180637,0.003879,0.497506,-0.501354,-0.707896,89.818246,44.465154,-135.034130
32467,NaN,-1.279789,9.115310,-1.013502,-3.157600,-4.630655,-2.441134,-0.027668,-0.191098,-0.988930,-0.000100,0.499311,-0.498805,-0.708437,89.694679,45.036753,-135.195098
32468,NaN,-1.159623,9.475237,-1.063271,-3.405762,-4.958922,-2.325047,-0.067266,-0.180594,-0.796673,-0.003266,0.500653,-0.496572,-0.709050,89.548311,45.497468,-135.351571
32469,NaN,-1.023883,9.835556,-1.157544,-3.618378,-5.319539,-2.214270,-0.119831,-0.140194,-0.578648,-0.005434,0.501601,-0.494705,-0.709672,89.397431,45.833697,-135.474368
32470,NaN,-1.056054,10.080319,-1.263917,-3.664055,-5.541354,-2.054240,-0.205897,-0.084268,-0.354044,-0.006429,0.502186,-0.493077,-0.710383,89.226602,46.040326,-135.550868
32471,NaN,-1.053941,9.964995,-1.323305,-3.559725,-5.554921,-2.155393,-0.300129,-0.017514,-0.122269,-0.006222,0.502443,-0.491713,-0.711148,89.046168,46.115649,-135.570423
32472,NaN,-1.126010,9.745532,-1.344276,-3.373405,-5.442104,-2.259285,-0.375045,0.068789,0.132343,-0.004678,0.502376,-0.490709,-0.711900,88.873413,46.044101,-135.514472
32473,NaN,-1.162544,9.524962,-1.214790,-3.295420,-5.227172,-2.371669,-0.403659,0.159527,0.395274,-0.001935,0.501990,-0.490277,-0.712482,88.744432,45.824988,-135.379912
32474,NaN,-1.177946,9.428569,-1.098604,-3.266772,-5.081819,-2.396809,-0.390131,0.235737,0.665132,0.001967,0.501207,-0.490546,-0.712848,88.667679,45.450017,-135.175519
32475,NaN,-1.208336,9.626770,-0.891826,-3.429687,-5.001392,-2.186898,-0.339716,0.317673,0.930646,0.006846,0.500056,-0.491669,-0.712853,88.671737,44.926571,-134.903346
32476,NaN,-1.269270,10.101524,-0.863624,-3.568712,-5.151756,-1.742988,-0.274657,0.388799,1.189566,0.012689,0.498487,-0.493658,-0.712497,88.750036,44.251791,-134.573085
32477,NaN,-1.404947,10.528171,-0.842287,-3.626005,-5.217815,-1.259904,-0.207508,0.475244,1.447124,0.019466,0.496590,-0.496492,-0.711699,88.912056,43.433788,-134.175652
32478,NaN,-1.460378,10.864330,-0.891501,-3.610856,-5.299319,-0.877531,-0.165003,0.580638,1.697888,0.027362,0.494426,-0.500025,-0.710471,89.142780,42.468722,-133.695848
32479,NaN,-1.582838,11.191106,-1.221599,-3.333911,-5.501300,-0.439591,-0.124694,0.677821,1.944248,0.036202,0.491941,-0.504281,-0.708791,89.435792,41.365076,-133.158722
32480,NaN,-1.618983,11.290339,-1.583881,-2.951699,-5.628991,-0.210717,-0.136350,0.786868,2.168987,0.046223,0.489230,-0.508934,-0.706756,89.754187,40.126972,-132.547357
32481,NaN,-1.918528,10.673623,-1.635654,-2.335643,-5.035605,-0.354164,-0.227346,0.904142,2.359549,0.057346,0.486341,-0.513665,-0.704508,90.055763,38.781353,-131.876666
32482,NaN,-2.307998,9.677788,-1.346792,-1.767117,-3.978802,-0.766093,-0.274619,0.977113,2.523417,0.069441,0.483217,-0.518476,-0.702042,90.333727,37.334682,-131.164650
32483,NaN,-2.689359,8.908482,-0.839425,-1.479941,-2.885204,-1.050372,-0.233550,0.947895,2.683804,0.081808,0.479470,-0.523771,-0.699342,90.597369,35.798077,-130.506970
32484,NaN,-3.022814,8.835343,-0.249493,-1.567637,-2.066271,-0.838833,-0.091994,0.816279,2.825967,0.094086,0.474884,-0.529796,-0.696383,90.858563,34.174106,-129.951789
32485,NaN,-3.337914,9.297069,0.357473,-1.879215,-1.448351,-0.217438,0.096980,0.586649,2.935441,0.105552,0.469159,-0.536782,-0.693263,91.120186,32.492167,-129.587063
32486,NaN,-3.643344,9.915192,0.740398,-2.063736,-1.002329,0.524673,0.282764,0.272889,3.014189,0.116048,0.462105,-0.544649,-0.690181,91.358152,30.761117,-129.447973
32487,NaN,-3.873607,10.733860,0.679996,-1.994884,-0.919881,1.405455,0.460616,-0.068693,3.071612,0.125316,0.453732,-0.553324,-0.687208,91.577879,29.008323,-129.547949
32488,NaN,-3.725019,11.707071,0.476907,-2.048737,-1.186451,2.251353,0.592296,-0.374360,3.121330,0.133639,0.444119,-0.562627,-0.684361,91.777551,27.225712,-129.850761
32489,NaN,-3.609069,12.586401,0.190651,-1.967029,-1.406143,3.056588,0.663952,-0.625231,3.143326,0.141077,0.433541,-0.572237,-0.681678,91.956236,25.442875,-130.318180
32490,NaN,-3.753510,13.455096,0.123183,-1.865690,-1.258648,3.973615,0.670130,-0.804491,3.147259,0.148107,0.422289,-0.581781,-0.679166,92.101905,23.658077,-130.879972
32491,NaN,-4.192401,13.843381,0.082551,-1.431149,-0.725949,4.561942,0.568991,-0.924273,3.111822,0.154699,0.410484,-0.590905,-0.677054,92.182390,21.901707,-131.528571
32492,NaN,-4.555736,13.620120,0.039894,-0.834031,-0.097514,4.524064,0.403295,-0.981587,3.085892,0.161396,0.398299,-0.599309,-0.675379,92.174993,20.154539,-132.202410
32493,NaN,-4.555971,12.785485,0.062813,-0.343751,0.421448,3.749006,0.235531,-0.963182,3.026806,0.168177,0.386139,-0.606851,-0.674051,92.098997,18.447621,-132.857544
32494,NaN,-4.269124,11.799629,0.118306,-0.046966,0.731479,2.714168,0.046846,-0.849883,2.913433,0.175308,0.374429,-0.613305,-0.672999,91.956194,16.794867,-133.429743
32495,NaN,-3.900836,10.571723,0.318154,0.096514,1.061859,1.409357,-0.078922,-0.647971,2.705073,0.182491,0.363872,-0.618631,-0.672004,91.794763,15.263486,-133.870880
32496,NaN,-3.535049,9.784721,0.525452,0.084035,1.262320,0.526914,-0.208339,-0.313117,2.454205,0.190220,0.355111,-0.622590,-0.670891,91.619836,13.864242,-134.082490
32497,NaN,-3.514284,9.022364,0.551649,0.377814,1.526864,-0.242960,-0.314618,-0.022614,2.196559,0.198003,0.347901,-0.625438,-0.669766,91.433712,12.612024,-134.132552
32498,NaN,-3.199387,8.596790,0.321072,0.549164,1.321552,-0.746622,-0.314906,0.268387,1.827445,0.205499,0.342759,-0.627296,-0.668421,91.284778,11.560165,-134.000521
32499,NaN,-2.936065,8.254076,0.091264,0.700899,1.115626,-1.151210,-0.340438,0.606173,1.533568,0.213040,0.339639,-0.628162,-0.666837,91.159449,10.679798,-133.668068
32500,NaN,-2.691357,8.139744,-0.006855,0.709197,0.970361,-1.324264,-0.338018,0.982305,1.271877,0.220929,0.338549,-0.628153,-0.664830,91.069403,9.939011,-133.110442
32501,NaN,-2.815159,8.165174,0.012764,0.838847,1.145880,-1.293420,-0.334478,1.370053,1.079826,0.229318,0.339356,-0.627352,-0.662329,91.014180,9.311642,-132.328123
32502,NaN,-3.343651,8.080940,0.218617,1.090883,1.756016,-1.312383,-0.331768,1.671490,0.960370,0.238288,0.341484,-0.625961,-0.659379,90.978414,8.743808,-131.368285
32503,NaN,-3.889002,7.866875,0.485978,1.289638,2.438767,-1.467816,-0.321731,1.873212,0.907309,0.247617,0.344445,-0.624204,-0.656058,90.957984,8.211385,-130.294524
32504,NaN,-4.323491,7.602818,0.636759,1.478873,2.976367,-1.697621,-0.256496,1.993190,0.917868,0.257266,0.347783,-0.622460,-0.652230,90.972483,7.665704,-129.150818
32505,NaN,-4.650140,7.426549,0.806952,1.548318,3.445363,-1.865372,-0.154373,2.047563,0.952362,0.266936,0.351305,-0.620960,-0.647872,91.040148,7.105006,-127.980003
32506,NaN,-4.849310,7.461875,0.820031,1.623609,3.708275,-1.845302,-0.059131,2.041454,0.970971,0.276493,0.354806,-0.619730,-0.643117,91.147960,6.526390,-126.813463
32507,NaN,-4.993323,7.545116,0.769939,1.700775,3.894536,-1.788135,0.042760,1.994100,0.983387,0.285680,0.358238,-0.618837,-0.638038,91.301316,5.944154,-125.678800
32508,NaN,-5.117497,7.992349,0.645052,1.792987,4.004135,-1.372714,0.113107,1.900562,0.941120,0.294327,0.361536,-0.618151,-0.632892,91.475679,5.379299,-124.598817
32509,NaN,-5.010513,8.223073,0.452055,1.827575,3.904774,-1.190627,0.115346,1.790712,0.861681,0.302305,0.364722,-0.617428,-0.627990,91.637901,4.863413,-123.584806
32510,NaN,-5.035334,8.548225,0.207583,1.978878,3.879408,-0.896248,0.096874,1.675785,0.770281,0.309685,0.367745,-0.616593,-0.623436,91.772782,4.394974,-122.636261
32511,NaN,-5.265943,8.805657,0.136967,2.102353,4.124308,-0.655306,0.087803,1.561157,0.693504,0.316427,0.370627,-0.615721,-0.619191,91.893027,3.974748,-121.754820
32512,NaN,-5.357924,9.269610,0.043573,2.159591,4.228205,-0.216204,0.021538,1.455363,0.597658,0.322680,0.373325,-0.614586,-0.615459,91.962422,3.606427,-120.932602
32513,NaN,-5.612536,9.292668,0.107811,2.197009,4.561142,-0.208816,-0.073308,1.349798,0.521810,0.328502,0.375780,-0.613160,-0.612300,91.971831,3.286619,-120.170771
32514,NaN,-5.909718,9.004758,0.236285,2.220320,4.963238,-0.512032,-0.133155,1.209987,0.499602,0.333951,0.377737,-0.611701,-0.609600,91.935439,2.979591,-119.488455
32515,NaN,-6.123770,8.738505,0.413524,2.158800,5.306655,-0.800938,-0.139790,1.018233,0.482110,0.338733,0.379159,-0.610495,-0.607284,91.889261,2.689585,-118.916104
32516,NaN,-6.173364,8.782290,0.421821,2.154092,5.408339,-0.783490,-0.106173,0.777375,0.478270,0.342717,0.379889,-0.609765,-0.605322,91.850253,2.404640,-118.481698
32517,NaN,-6.290178,9.127009,0.410753,2.193882,5.548409,-0.461798,-0.072559,0.511233,0.462987,0.345753,0.379932,-0.609564,-0.603770,91.825472,2.135646,-118.199437
32518,NaN,-6.404481,9.667597,0.386578,2.248679,5.673621,0.055568,-0.031007,0.232275,0.457398,0.347854,0.379198,-0.609944,-0.602640,91.814420,1.873735,-118.077375
32519,NaN,-6.580497,10.435212,0.329303,2.366517,5.833118,0.802354,-0.014271,-0.027186,0.453879,0.349105,0.377740,-0.610826,-0.601939,91.811062,1.619841,-118.103401
32520,NaN,-6.632595,11.089777,0.281378,2.439223,5.887414,1.431951,-0.013212,-0.242806,0.444107,0.349673,0.375645,-0.612053,-0.601674,91.801944,1.374936,-118.253701
32521,NaN,-6.611138,11.582741,0.210327,2.517014,5.864188,1.899992,-0.029343,-0.406534,0.426737,0.349706,0.373097,-0.613493,-0.601773,91.785409,1.143379,-118.496447
32522,NaN,-6.390758,11.855268,-0.024725,2.661244,5.581761,2.151893,-0.036348,-0.531997,0.373313,0.349205,0.370303,-0.615013,-0.602238,91.761161,0.944836,-118.811443
32523,NaN,-6.182125,11.977944,-0.207974,2.771807,5.322759,2.258688,-0.084268,-0.595628,0.274801,0.348296,0.367549,-0.616323,-0.603112,91.713179,0.803337,-119.159596
32524,NaN,-5.915023,12.030080,-0.408920,2.869880,4.985527,2.302823,-0.154896,-0.594578,0.129445,0.347072,0.365104,-0.617131,-0.604474,91.622030,0.745653,-119.506421
32525,NaN,-5.495908,12.246151,-0.616623,2.883793,4.493970,2.517810,-0.190983,-0.545743,-0.044567,0.345541,0.363293,-0.617436,-0.606128,91.514019,0.785261,-119.820563
32526,NaN,-5.213323,12.994867,-0.523058,2.671321,4.252406,3.267822,-0.166598,-0.453214,-0.233543,0.343666,0.362372,-0.617292,-0.607891,91.416972,0.932855,-120.081282
32527,NaN,-5.303999,14.159883,-0.366537,2.558034,4.346509,4.446798,-0.136769,-0.348681,-0.403671,0.341549,0.362355,-0.616761,-0.609630,91.340608,1.174401,-120.277733
32528,NaN,-5.821350,14.814837,-0.035573,2.506391,4.875897,5.130929,-0.105903,-0.295900,-0.554343,0.339062,0.363001,-0.615940,-0.611462,91.278378,1.503585,-120.444926
32529,NaN,-6.437459,15.048229,0.330152,2.475451,5.493124,5.408867,-0.085779,-0.328869,-0.671734,0.336089,0.363949,-0.615031,-0.613451,91.229431,1.898006,-120.627241
32530,NaN,-6.961086,14.433874,0.649827,2.464831,6.005320,4.852750,-0.061309,-0.459281,-0.780021,0.332310,0.364854,-0.614191,-0.615809,91.187018,2.358834,-120.886474
32531,NaN,-6.750699,13.437418,0.548857,2.459267,5.673780,3.905763,-0.052026,-0.661245,-0.912986,0.327497,0.365562,-0.613474,-0.618676,91.145825,2.895053,-121.257283
32532,NaN,-5.885597,12.418720,0.159857,2.362021,4.626833,2.911368,-0.023043,-0.844851,-1.101984,0.321442,0.366304,-0.612757,-0.622113,91.108044,3.545027,-121.735527
32533,NaN,-4.939379,11.733432,-0.357809,2.298871,3.423516,2.236831,-0.020181,-0.941767,-1.354124,0.314310,0.367510,-0.611727,-0.626048,91.065783,4.336492,-122.263839
