// General information: 
//  MT Manager version: 2019.0.1 
//  XDA version: 2019.0.1 build 2740 rev 84096 built on 2019-01-30
// Device information: 
//  DeviceId: 00B43876
//  ProductCode: MTW2-3A7G6
//  Firmware Version: 4.3.4
//  Hardware Version: 1.1.0
// Device settings: 
//  Filter Profile: human(46.1)
//  Option Flags: Orientation Smoother Disabled, AHS Disabled, ICC Disabled
// Coordinate system: ENU
PacketCounter,SampleTimeFine,Acc_X,Acc_Y,Acc_Z,FreeAcc_E,FreeAcc_N,FreeAcc_U,Gyr_X,Gyr_Y,Gyr_Z,Quat_q0,Quat_q1,Quat_q2,Quat_q3,Roll,Pitch,Yaw
31814,NaN,2.108861,9.154614,-2.013818,-0.385285,-0.178992,-0.214290,-0.018970,-0.072468,-0.031413,-0.158400,-0.336675,-0.686848,-0.624338,100.010837,-11.701072,137.600782
31815,NaN,2.011698,9.211232,-2.025498,-0.309725,-0.249171,-0.177422,0.002129,-0.053467,-0.028058,-0.158669,-0.336788,-0.686854,-0.624203,100.020074,-11.682154,137.568536
31816,NaN,1.920048,9.385621,-1.917188,-0.129442,-0.225884,-0.046199,0.011227,-0.038880,-0.030536,-0.158881,-0.336853,-0.686904,-0.624059,100.032757,-11.663299,137.544951
31817,NaN,1.947072,9.545817,-1.800565,-0.032926,-0.117732,0.093916,0.015435,-0.026438,-0.028723,-0.159038,-0.336889,-0.686974,-0.623923,100.046436,-11.646692,137.528356
31818,NaN,1.885533,9.763445,-1.618109,0.184953,-0.018988,0.260237,0.016132,-0.025404,-0.032248,-0.159201,-0.336911,-0.687052,-0.623783,100.060319,-11.628205,137.512718
31819,NaN,1.927169,9.909938,-1.586762,0.212527,0.034641,0.404567,-0.000375,-0.042553,-0.026129,-0.159431,-0.336994,-0.687055,-0.623676,100.066850,-11.611442,137.486584
31820,NaN,1.938834,9.874009,-1.571266,0.202655,0.056105,0.369640,-0.020799,-0.052886,-0.020220,-0.159713,-0.337113,-0.686977,-0.623626,100.062989,-11.596979,137.453900
31821,NaN,1.942510,9.725136,-1.621536,0.126438,0.022569,0.235422,-0.022572,-0.059413,-0.013203,-0.159998,-0.337275,-0.686875,-0.623577,100.059005,-11.585821,137.416738
31822,NaN,1.909651,9.630045,-1.623963,0.121784,-0.000332,0.137537,-0.029163,-0.062380,-0.002888,-0.160273,-0.337476,-0.686733,-0.623554,100.051786,-11.580190,137.376819
31823,NaN,1.893945,9.463758,-1.694919,0.042020,-0.063581,-0.013877,-0.037309,-0.062399,-0.001321,-0.160556,-0.337676,-0.686563,-0.623560,100.039939,-11.575447,137.336724
31824,NaN,1.929953,9.410456,-1.741030,-0.029026,-0.074172,-0.050195,-0.022045,-0.067879,-0.000965,-0.160832,-0.337907,-0.686436,-0.623505,100.037466,-11.570358,137.293443
31825,NaN,2.042883,9.372435,-1.708445,-0.099977,0.025869,-0.069791,-0.015585,-0.068690,0.003483,-0.161085,-0.338160,-0.686320,-0.623429,100.038885,-11.567702,137.249236
31826,NaN,2.013900,9.335957,-1.651541,-0.052255,0.049686,-0.120511,-0.018639,-0.073637,0.007372,-0.161349,-0.338440,-0.686184,-0.623359,100.039195,-11.566744,137.201790
31827,NaN,2.086307,9.263062,-1.662072,-0.130234,0.090288,-0.174516,-0.024315,-0.073353,0.014189,-0.161599,-0.338738,-0.686020,-0.623313,100.036369,-11.569663,137.153807
31828,NaN,2.106767,9.163931,-1.684290,-0.184690,0.087475,-0.262234,-0.016124,-0.071316,0.021795,-0.161805,-0.339062,-0.685869,-0.623250,100.038155,-11.577077,137.106224
31829,NaN,1.988294,9.264587,-1.678769,-0.068126,0.011781,-0.189830,-0.005373,-0.070923,0.020869,-0.161995,-0.339390,-0.685753,-0.623149,100.046047,-11.584004,137.058956
31830,NaN,2.017835,9.417338,-1.692698,-0.056218,0.020606,-0.034162,0.001697,-0.067105,0.016179,-0.162173,-0.339696,-0.685671,-0.623026,100.057454,-11.588667,137.014365
31831,NaN,2.047101,9.570092,-1.706958,-0.044292,0.029432,0.121504,0.002792,-0.061622,0.012690,-0.162343,-0.339974,-0.685602,-0.622907,100.068790,-11.591895,136.973285
31832,NaN,2.080200,9.694784,-1.674992,-0.012219,0.075725,0.242947,0.013268,-0.057820,0.015318,-0.162473,-0.340257,-0.685564,-0.622759,100.085743,-11.596985,136.934121
31833,NaN,2.157396,9.796591,-1.583901,0.020848,0.195590,0.341012,0.006943,-0.054890,0.015493,-0.162603,-0.340527,-0.685509,-0.622639,100.098743,-11.602449,136.896628
31834,NaN,2.228253,9.641380,-1.555480,-0.050964,0.265418,0.200694,-0.018200,-0.057999,0.014625,-0.162789,-0.340783,-0.685374,-0.622599,100.097674,-11.607119,136.857436
31835,NaN,2.203952,9.512792,-1.565780,-0.074040,0.241584,0.073588,-0.026225,-0.052193,0.010643,-0.162981,-0.341001,-0.685226,-0.622592,100.091264,-11.610117,136.821991
31836,NaN,2.191287,9.492182,-1.563026,-0.069126,0.234282,0.050712,-0.026273,-0.042877,0.004047,-0.163162,-0.341167,-0.685096,-0.622597,100.083594,-11.610355,136.792600
31837,NaN,2.206630,9.508472,-1.615806,-0.111379,0.203238,0.078591,-0.047690,-0.020866,0.006544,-0.163297,-0.341255,-0.684913,-0.622714,100.061171,-11.614193,136.775617
31838,NaN,2.125588,9.382702,-1.680049,-0.131143,0.098504,-0.048013,-0.061613,0.003796,0.000796,-0.163388,-0.341236,-0.684717,-0.622917,100.027774,-11.617289,136.773437
31839,NaN,1.984339,9.351202,-1.733310,-0.076747,-0.039527,-0.097777,-0.055877,0.014957,-0.008026,-0.163460,-0.341156,-0.684563,-0.623111,99.996207,-11.616492,136.778575
31840,NaN,1.888203,9.326191,-1.697578,0.004880,-0.080669,-0.147369,-0.050875,0.007884,-0.010336,-0.163553,-0.341095,-0.684422,-0.623274,99.968265,-11.613720,136.779875
31841,NaN,1.904770,9.285785,-1.731694,-0.043529,-0.097579,-0.177269,-0.059165,-0.005724,-0.011353,-0.163711,-0.341066,-0.684246,-0.623442,99.937145,-11.608993,136.773434
31842,NaN,1.898221,9.146200,-1.747162,-0.089397,-0.115016,-0.310710,-0.054249,-0.012895,-0.009085,-0.163878,-0.341071,-0.684076,-0.623582,99.909707,-11.604869,136.762635
31843,NaN,1.847120,9.116362,-1.808897,-0.103911,-0.196823,-0.339437,-0.037225,-0.021152,-0.009236,-0.164045,-0.341114,-0.683952,-0.623650,99.892988,-11.599822,136.747087
31844,NaN,1.860009,9.254115,-1.763041,-0.049067,-0.156954,-0.211669,-0.026118,-0.019995,0.000028,-0.164159,-0.341196,-0.683848,-0.623690,99.882681,-11.600150,136.731274
31845,NaN,1.838717,9.324064,-1.768595,-0.019718,-0.177460,-0.147539,-0.018806,-0.021237,0.011114,-0.164231,-0.341325,-0.683747,-0.623711,99.876937,-11.606587,136.713633
31846,NaN,1.804606,9.406979,-1.689102,0.078733,-0.143607,-0.087766,-0.007062,-0.024760,0.017835,-0.164274,-0.341497,-0.683668,-0.623692,99.878469,-11.616500,136.693284
31847,NaN,1.793137,9.472690,-1.673476,0.116000,-0.141735,-0.029326,-0.007244,-0.030703,0.027986,-0.164306,-0.341723,-0.683566,-0.623671,99.880796,-11.631530,136.668493
31848,NaN,1.767872,9.435304,-1.616573,0.163692,-0.118013,-0.080118,-0.006826,-0.029967,0.038207,-0.164303,-0.341981,-0.683449,-0.623659,99.883495,-11.652421,136.643095
31849,NaN,1.758332,9.500617,-1.601289,0.200968,-0.116152,-0.021686,-0.000250,-0.028664,0.047226,-0.164256,-0.342272,-0.683338,-0.623634,99.890002,-11.678508,136.617540
31850,NaN,1.738903,9.574201,-1.554665,0.268852,-0.098317,0.037396,0.000182,-0.027934,0.057447,-0.164174,-0.342596,-0.683211,-0.623617,99.896894,-11.710444,136.591371
31851,NaN,1.757822,9.559933,-1.640485,0.200288,-0.152656,0.041755,-0.013781,-0.029909,0.065879,-0.164096,-0.342943,-0.683025,-0.623651,99.896204,-11.746933,136.563213
31852,NaN,1.777007,9.492811,-1.655639,0.164083,-0.154491,-0.016690,-0.005215,-0.034913,0.075474,-0.163991,-0.343345,-0.682844,-0.623655,99.901226,-11.788343,136.531202
31853,NaN,1.783780,9.491555,-1.655558,0.164624,-0.154480,-0.016699,-0.009997,-0.037104,0.079801,-0.163888,-0.343765,-0.682639,-0.623675,99.903883,-11.831978,136.497481
31854,NaN,1.723777,9.327619,-1.709425,0.134142,-0.237745,-0.178192,-0.020162,-0.042420,0.087400,-0.163797,-0.344219,-0.682385,-0.623726,99.901526,-11.879370,136.459928
31855,NaN,1.735842,9.003628,-1.788864,-0.007349,-0.289464,-0.474880,-0.031205,-0.047294,0.088332,-0.163738,-0.344682,-0.682091,-0.623808,99.893476,-11.926820,136.419464
31856,NaN,1.791777,8.708889,-1.880574,-0.180189,-0.320078,-0.732112,-0.009422,-0.053560,0.088400,-0.163663,-0.345183,-0.681859,-0.623804,99.898695,-11.973673,136.375369
31857,NaN,1.878723,8.543206,-1.885032,-0.282773,-0.266103,-0.872971,-0.000926,-0.054985,0.092396,-0.163566,-0.345709,-0.681646,-0.623772,99.909071,-12.022654,136.330037
31858,NaN,1.554469,8.375837,-2.292070,-0.358386,-0.785787,-1.033240,-0.001687,-0.081037,0.090679,-0.163564,-0.346309,-0.681411,-0.623695,99.922171,-12.068067,136.269819
31859,NaN,0.856010,8.748488,-2.765423,-0.069370,-1.612270,-0.740084,0.066663,-0.132580,0.042357,-0.163770,-0.346961,-0.681431,-0.623257,99.979650,-12.081090,136.184719
31860,NaN,0.970023,8.935235,-3.182244,-0.366927,-1.836080,-0.463880,0.129620,-0.137973,-0.007023,-0.164039,-0.347513,-0.681728,-0.622553,100.072863,-12.065558,136.101495
31861,NaN,2.169013,9.834420,-2.630138,-0.595468,-0.615954,0.560548,0.240140,-0.062353,-0.008856,-0.163864,-0.347914,-0.682433,-0.621603,100.220159,-12.056501,136.062142
31862,NaN,2.551700,11.007844,-1.290077,0.352269,0.628616,1.537590,0.254706,0.050020,0.038141,-0.163134,-0.348137,-0.683193,-0.620834,100.363396,-12.085277,136.082620
31863,NaN,2.544097,11.514136,-0.325376,1.147846,1.332507,1.851809,0.090348,0.047638,0.114652,-0.162460,-0.348494,-0.683306,-0.620686,100.414329,-12.157026,136.093647
31864,NaN,2.505560,10.801245,-0.260720,1.035529,1.353150,1.146753,-0.060966,0.015626,0.177442,-0.161964,-0.349042,-0.682814,-0.621049,100.383923,-12.260787,136.079535
31865,NaN,2.143542,10.171246,-0.659587,0.867147,0.804886,0.535464,-0.075654,-0.016513,0.212845,-0.161493,-0.349799,-0.682188,-0.621434,100.349806,-12.381260,136.043227
31866,NaN,1.798726,10.015999,-1.147337,0.759616,0.195656,0.397929,-0.071909,-0.066064,0.224647,-0.161149,-0.350752,-0.681512,-0.621728,100.324337,-12.503245,135.977118
31867,NaN,1.839314,9.787960,-1.712729,0.309718,-0.205902,0.285942,-0.068053,-0.109691,0.226262,-0.160940,-0.351848,-0.680808,-0.621934,100.306719,-12.621753,135.885665
31868,NaN,2.126415,9.512031,-1.959351,-0.116992,-0.201588,0.126381,-0.039827,-0.115756,0.225082,-0.160706,-0.352982,-0.680188,-0.622030,100.306187,-12.738917,135.790826
31869,NaN,2.363207,9.486977,-1.938250,-0.260680,-0.037633,0.150991,-0.011629,-0.089573,0.217865,-0.160356,-0.354031,-0.679689,-0.622070,100.318509,-12.854760,135.711808
31870,NaN,2.303580,9.577056,-1.710140,-0.027375,0.074897,0.184546,0.005167,-0.075999,0.208013,-0.159960,-0.355018,-0.679269,-0.622068,100.338640,-12.966345,135.641597
31871,NaN,2.381807,9.690150,-1.556373,0.067455,0.226565,0.283767,-0.003963,-0.083418,0.199415,-0.159632,-0.355991,-0.678830,-0.622076,100.354444,-13.072376,135.567946
31872,NaN,2.440430,9.632159,-1.529065,0.042809,0.276892,0.236874,-0.018880,-0.092477,0.188505,-0.159395,-0.356943,-0.678355,-0.622109,100.362769,-13.171242,135.490137
31873,NaN,2.526556,9.552715,-1.542516,-0.035140,0.317722,0.183062,-0.009732,-0.083365,0.173162,-0.159158,-0.357822,-0.677943,-0.622114,100.374895,-13.262455,135.419197
31874,NaN,2.479059,9.677644,-1.524890,0.058116,0.285184,0.288950,-0.005013,-0.077531,0.158619,-0.158938,-0.358636,-0.677575,-0.622102,100.388688,-13.346001,135.353144
31875,NaN,2.478050,9.619132,-1.608898,-0.001930,0.216295,0.247640,-0.013538,-0.066647,0.148073,-0.158729,-0.359374,-0.677208,-0.622130,100.395998,-13.424774,135.294466
31876,NaN,2.534334,9.441811,-1.603184,-0.077546,0.256606,0.090291,-0.002512,-0.058211,0.136875,-0.158507,-0.360056,-0.676901,-0.622125,100.408280,-13.498036,135.241825
31877,NaN,2.530511,9.423117,-1.549523,-0.034122,0.287597,0.062319,0.019505,-0.050562,0.116476,-0.158282,-0.360662,-0.676706,-0.622044,100.431715,-13.560642,135.195763
31878,NaN,2.510185,9.389268,-1.441976,0.052135,0.349538,0.006364,0.041031,-0.053278,0.101627,-0.158074,-0.361244,-0.676601,-0.621873,100.467504,-13.614535,135.149679
31879,NaN,2.435399,9.441594,-1.433765,0.135529,0.301386,0.037254,0.059466,-0.066577,0.087119,-0.157923,-0.361832,-0.676570,-0.621604,100.515388,-13.658876,135.097383
31880,NaN,2.393089,9.438960,-1.476000,0.147170,0.242871,0.032045,0.071189,-0.081423,0.077410,-0.157831,-0.362443,-0.676580,-0.621260,100.571798,-13.696093,135.037468
31881,NaN,2.539856,9.428613,-1.514243,0.029463,0.319561,0.063524,0.090246,-0.093828,0.063949,-0.157788,-0.363061,-0.676664,-0.620818,100.640556,-13.724410,134.971782
31882,NaN,2.589932,9.408247,-1.731263,-0.143287,0.202611,0.094811,0.101177,-0.091182,0.053723,-0.157747,-0.363645,-0.676802,-0.620337,100.714921,-13.747140,134.908752
31883,NaN,2.457669,9.529379,-1.671077,0.034535,0.158338,0.168065,0.111386,-0.083311,0.027657,-0.157742,-0.364124,-0.677025,-0.619813,100.793460,-13.755988,134.853069
31884,NaN,2.609794,9.452764,-1.727131,-0.120015,0.233286,0.141203,0.101095,-0.072913,0.013970,-0.157764,-0.364517,-0.677248,-0.619333,100.864273,-13.758169,134.804891
31885,NaN,2.605848,9.421175,-1.769042,-0.145811,0.210072,0.117724,0.112265,-0.062277,0.002713,-0.157763,-0.364847,-0.677535,-0.618824,100.939767,-13.755123,134.764151
31886,NaN,2.563926,9.358381,-1.775941,-0.132473,0.188074,0.049059,0.114800,-0.049938,-0.017073,-0.157777,-0.365074,-0.677875,-0.618314,101.014422,-13.742225,134.732804
31887,NaN,2.791884,9.306375,-1.964337,-0.422330,0.221481,0.088546,0.114185,-0.044899,-0.028319,-0.157810,-0.365246,-0.678238,-0.617806,101.087776,-13.723534,134.705643
31888,NaN,2.258544,9.424851,-1.912667,0.018285,-0.100723,0.065401,0.136046,-0.016453,-0.057551,-0.157797,-0.365249,-0.678743,-0.617253,101.168880,-13.691533,134.698333
31889,NaN,2.594504,9.611954,-1.893528,-0.137013,0.152776,0.319659,0.122701,-0.001945,-0.060178,-0.157767,-0.365187,-0.679223,-0.616769,101.240335,-13.659647,134.699727
31890,NaN,2.282817,9.402474,-1.900608,0.012611,-0.049470,0.047712,0.121444,0.011195,-0.065367,-0.157710,-0.365065,-0.679719,-0.616309,101.309061,-13.626330,134.709399
31891,NaN,2.399694,9.505815,-1.810764,0.027471,0.106470,0.156556,0.132209,0.023171,-0.082297,-0.157645,-0.364858,-0.680288,-0.615820,101.381928,-13.584854,134.727955
31892,NaN,2.603428,9.422042,-1.862868,-0.168724,0.224148,0.134386,0.107894,0.023522,-0.072599,-0.157594,-0.364663,-0.680764,-0.615423,101.441003,-13.548893,134.745701
31893,NaN,1.976484,9.328823,-1.886855,0.218032,-0.212009,-0.096662,0.106439,0.037055,-0.096176,-0.157571,-0.364345,-0.681290,-0.615035,101.496855,-13.501244,134.773988
31894,NaN,2.328900,9.547013,-1.737475,0.143797,0.147744,0.164563,0.132316,0.026647,-0.087886,-0.157511,-0.364107,-0.681871,-0.614547,101.569101,-13.457122,134.795365
31895,NaN,2.330755,9.395899,-2.039235,-0.099780,-0.053460,0.079784,0.111409,0.018818,-0.065262,-0.157447,-0.363954,-0.682340,-0.614134,101.631115,-13.424785,134.809568
31896,NaN,1.748908,9.334102,-2.023594,0.294270,-0.430293,-0.116951,0.127192,0.023424,-0.079914,-0.157382,-0.363749,-0.682887,-0.613663,101.701051,-13.384818,134.828294
31897,NaN,2.206785,9.571413,-1.887373,0.147332,-0.006673,0.188426,0.150128,0.034526,-0.063722,-0.157189,-0.363583,-0.683484,-0.613146,101.783196,-13.355211,134.851448
31898,NaN,2.226061,9.523825,-1.914991,0.106747,-0.001047,0.152973,0.108768,0.039986,-0.048192,-0.157004,-0.363421,-0.683930,-0.612793,101.841279,-13.335003,134.875935
31899,NaN,2.046186,9.241621,-2.083578,0.038505,-0.233643,-0.123536,0.124062,0.052331,-0.033874,-0.156705,-0.363281,-0.684406,-0.612421,101.906959,-13.324282,134.905799
31900,NaN,1.988554,9.586081,-1.917544,0.300822,-0.148469,0.157855,0.153060,0.073165,-0.021083,-0.156243,-0.363144,-0.684963,-0.611997,101.986744,-13.323258,134.946216
31901,NaN,2.060994,9.595456,-1.927641,0.255507,-0.098421,0.185377,0.099557,0.076617,-0.006620,-0.155822,-0.363004,-0.685333,-0.611773,102.035925,-13.330777,134.986753
31902,NaN,2.169214,9.297856,-2.149582,-0.049134,-0.177351,-0.027880,0.088339,0.080939,0.010689,-0.155354,-0.362901,-0.685640,-0.611609,102.078494,-13.348528,135.027732
31903,NaN,2.211733,9.306003,-2.091284,-0.028914,-0.102878,-0.022105,0.113290,0.091487,0.026472,-0.154756,-0.362839,-0.686003,-0.611391,102.134486,-13.376438,135.072737
31904,NaN,2.307563,9.244857,-2.088497,-0.103186,-0.032171,-0.058593,0.084133,0.103903,0.019927,-0.154188,-0.362694,-0.686297,-0.611290,102.171839,-13.402201,135.125729
31905,NaN,2.201136,9.314229,-2.095340,-0.005160,-0.109285,-0.015834,0.091216,0.101766,0.016200,-0.153626,-0.362549,-0.686619,-0.611157,102.213483,-13.425667,135.177897
31906,NaN,2.185768,9.325139,-2.092626,0.018056,-0.115738,-0.009568,0.083051,0.081304,0.013021,-0.153158,-0.362448,-0.686904,-0.611012,102.253006,-13.444900,135.218708
31907,NaN,2.296494,9.258451,-2.042835,-0.040249,-0.000295,-0.057466,0.071093,0.049433,0.004714,-0.152847,-0.362407,-0.687145,-0.610845,102.289767,-13.455633,135.242162
31908,NaN,2.434762,9.276318,-2.123925,-0.177988,0.039273,0.008513,0.075389,0.020740,-0.012556,-0.152680,-0.362397,-0.687407,-0.610597,102.332262,-13.453176,135.251313
31909,NaN,2.492351,9.430509,-2.235450,-0.238853,0.001378,0.191637,0.052184,-0.004227,-0.021975,-0.152669,-0.362414,-0.687596,-0.610376,102.364593,-13.442427,135.247235
31910,NaN,2.413808,9.193577,-2.453420,-0.400330,-0.204602,-0.006288,0.014367,-0.014231,-0.045535,-0.152834,-0.362351,-0.687705,-0.610250,102.375851,-13.417238,135.240396
31911,NaN,2.449954,9.191802,-2.498414,-0.457361,-0.206532,0.009824,0.033119,-0.021946,-0.074636,-0.153079,-0.362226,-0.687918,-0.610022,102.398073,-13.374838,135.232786
31912,NaN,2.681296,9.282710,-2.395092,-0.525387,0.034856,0.128000,0.026182,-0.002271,-0.106334,-0.153366,-0.361927,-0.688182,-0.609830,102.412739,-13.317098,135.240541
31913,NaN,3.264731,9.121987,-2.244867,-0.888262,0.551755,0.077464,-0.032065,0.009824,-0.116356,-0.153747,-0.361512,-0.688296,-0.609852,102.392185,-13.255259,135.256489
31914,NaN,2.426332,9.297108,-2.359620,-0.337735,-0.098485,0.075049,0.057410,0.047349,-0.159087,-0.153968,-0.360903,-0.688789,-0.609601,102.416732,-13.174139,135.299414
31915,NaN,1.814823,9.739394,-2.107081,0.376543,-0.321553,0.303831,0.015640,0.047920,-0.216112,-0.154435,-0.360064,-0.689256,-0.609450,102.415724,-13.061178,135.349872
31916,NaN,2.384641,9.703473,-1.939158,0.064992,0.205259,0.363650,0.007637,0.048110,-0.228206,-0.154953,-0.359177,-0.689721,-0.609317,102.409854,-12.941476,135.401951
31917,NaN,2.690990,9.675163,-1.933882,-0.169238,0.432776,0.403678,-0.001643,0.034772,-0.226408,-0.155528,-0.358328,-0.690142,-0.609193,102.400555,-12.821126,135.446091
31918,NaN,1.886039,9.321223,-1.792898,0.356384,-0.000932,-0.141608,-0.008729,0.032560,-0.259328,-0.156224,-0.357366,-0.690599,-0.609062,102.386646,-12.682092,135.493073
31919,NaN,2.114163,9.169582,-2.040485,-0.027500,-0.007652,-0.183896,0.035648,-0.028580,-0.291515,-0.157149,-0.356514,-0.691199,-0.608643,102.405074,-12.517509,135.509023
31920,NaN,2.606896,9.402849,-2.003168,-0.292296,0.382600,0.136697,0.102437,-0.039179,-0.307019,-0.158038,-0.355692,-0.692019,-0.607961,102.462650,-12.342970,135.520979
31921,NaN,2.446664,9.615582,-1.913332,-0.073663,0.369308,0.285061,0.117051,-0.017090,-0.329044,-0.158891,-0.354737,-0.692939,-0.607248,102.525351,-12.158845,135.548533
31922,NaN,2.636998,9.740902,-1.679399,-0.033394,0.702911,0.393389,0.126122,-0.005990,-0.351178,-0.159757,-0.353678,-0.693933,-0.606504,102.591350,-11.963783,135.585465
31923,NaN,2.226533,9.966623,-1.525039,0.402402,0.571786,0.489145,0.130639,-0.008398,-0.385042,-0.160725,-0.352511,-0.694995,-0.605711,102.659449,-11.749500,135.625542
31924,NaN,2.132743,9.671716,-1.970050,0.067428,0.212338,0.282955,0.035605,-0.070039,-0.425744,-0.162197,-0.351311,-0.695789,-0.605104,102.679204,-11.504790,135.635827
31925,NaN,2.596958,9.184249,-2.410436,-0.715634,0.234292,0.002485,0.062818,-0.098467,-0.465239,-0.163839,-0.350080,-0.696708,-0.604317,102.716830,-11.234388,135.635062
31926,NaN,2.513588,9.341972,-2.573394,-0.746633,0.101694,0.169541,0.104121,-0.065803,-0.506088,-0.165417,-0.348640,-0.697845,-0.603407,102.773427,-10.945347,135.658412
31927,NaN,2.061406,9.323935,-2.406742,-0.356002,-0.047307,0.028470,0.086510,-0.008557,-0.527185,-0.166889,-0.346936,-0.699009,-0.602636,102.813452,-10.651740,135.717249
31928,NaN,1.746653,9.274548,-2.030772,0.065048,0.047484,-0.159430,0.087339,0.042259,-0.537143,-0.168210,-0.345043,-0.700230,-0.601938,102.848684,-10.359150,135.806403
31929,NaN,2.268354,9.181562,-1.793723,-0.205296,0.612175,-0.208164,0.107899,0.077302,-0.522555,-0.169328,-0.343110,-0.701512,-0.601236,102.892959,-10.079165,135.913663
31930,NaN,1.417928,9.645823,-1.555394,0.652083,0.260906,0.035063,0.138665,0.136925,-0.500927,-0.170118,-0.341098,-0.702894,-0.600543,102.949929,-9.819079,136.052092
31931,NaN,1.236617,9.495832,-1.868610,0.509748,-0.061517,-0.069589,0.082302,0.125835,-0.472432,-0.170957,-0.339168,-0.704046,-0.600049,102.976924,-9.573490,136.180595
31932,NaN,1.174383,9.318352,-2.095623,0.335157,-0.245270,-0.198641,0.123648,0.112330,-0.425588,-0.171631,-0.337478,-0.705226,-0.599423,103.030306,-9.352472,136.295444
31933,NaN,0.998542,9.534085,-2.375266,0.319930,-0.524206,0.044315,0.152022,0.087632,-0.393264,-0.172247,-0.335998,-0.706412,-0.598680,103.103333,-9.146349,136.392235
31934,NaN,0.684621,9.602233,-2.641578,0.375414,-0.897458,0.122254,0.109650,0.055816,-0.330223,-0.172857,-0.334799,-0.707335,-0.598086,103.156445,-8.971415,136.462945
31935,NaN,0.752625,9.398960,-2.991704,0.032244,-1.094239,0.018829,0.064584,0.024681,-0.282646,-0.173510,-0.333821,-0.708015,-0.597639,103.187678,-8.818961,136.509859
31936,NaN,1.190016,9.231519,-3.028343,-0.362750,-0.813890,-0.065180,0.060004,0.049792,-0.253439,-0.173994,-0.332866,-0.708654,-0.597274,103.214783,-8.686120,136.567156
31937,NaN,1.370573,9.252357,-2.661613,-0.261295,-0.405427,-0.100011,0.066185,0.129993,-0.216464,-0.174073,-0.331809,-0.709318,-0.597051,103.239523,-8.584430,136.664821
31938,NaN,1.161444,9.403236,-2.265684,0.175561,-0.235405,-0.075292,0.052946,0.202759,-0.176895,-0.173798,-0.330662,-0.709938,-0.597030,103.251490,-8.514396,136.798287
31939,NaN,0.718514,9.670052,-1.953168,0.760485,-0.280688,0.045502,0.029511,0.237540,-0.105717,-0.173225,-0.329643,-0.710401,-0.597210,103.248650,-8.488632,136.941900
31940,NaN,0.259497,9.644401,-1.865663,1.141441,-0.526057,-0.066771,0.019341,0.217997,-0.022036,-0.172488,-0.328970,-0.710677,-0.597466,103.243245,-8.506944,137.063390
31941,NaN,0.037452,9.575740,-1.816073,1.321771,-0.645810,-0.177847,0.035139,0.160050,0.059218,-0.171689,-0.328772,-0.710816,-0.597639,103.253282,-8.562986,137.141414
31942,NaN,0.143130,9.604721,-1.852370,1.241681,-0.604135,-0.127871,0.058630,0.088788,0.139108,-0.170865,-0.329091,-0.710832,-0.597681,103.284250,-8.654160,137.168636
31943,NaN,0.422392,9.600913,-1.876157,1.041270,-0.441424,-0.086601,0.079883,-0.002309,0.219580,-0.170089,-0.329986,-0.710701,-0.597564,103.336804,-8.778282,137.133652
31944,NaN,0.817400,9.709926,-2.088523,0.672932,-0.334935,0.124498,0.084171,-0.056272,0.290597,-0.169286,-0.331297,-0.710418,-0.597403,103.398020,-8.934679,137.058599
31945,NaN,1.197514,9.755794,-2.195261,0.371881,-0.167707,0.250225,0.095176,-0.050931,0.348721,-0.168271,-0.332808,-0.710074,-0.597259,103.466609,-9.124224,136.978478
31946,NaN,1.358883,9.818860,-2.218194,0.291577,-0.088860,0.340338,0.077384,-0.010916,0.393916,-0.167009,-0.334343,-0.709632,-0.597281,103.522623,-9.344059,136.914606
31947,NaN,1.496798,9.769558,-2.367233,0.119754,-0.131487,0.348841,0.049211,0.036423,0.438797,-0.165491,-0.335871,-0.709068,-0.597516,103.559459,-9.595347,136.871100
31948,NaN,1.509152,9.738250,-2.489880,0.061574,-0.243922,0.348369,0.022987,0.082094,0.475458,-0.163745,-0.337368,-0.708398,-0.597949,103.577913,-9.873011,136.848287
31949,NaN,1.330895,9.646257,-2.622348,0.117610,-0.500349,0.258750,-0.006717,0.094638,0.506244,-0.161910,-0.338912,-0.707593,-0.598528,103.579033,-10.169665,136.828254
31950,NaN,1.298703,9.539857,-2.676897,0.114704,-0.604135,0.161424,-0.001811,0.094345,0.536400,-0.159978,-0.340563,-0.706746,-0.599111,103.583789,-10.482899,136.803935
31951,NaN,1.391511,9.759166,-2.488974,0.274325,-0.428184,0.341806,0.049732,0.083398,0.569386,-0.157896,-0.342403,-0.705983,-0.599514,103.620275,-10.813194,136.768711
31952,NaN,1.542281,10.154075,-2.228512,0.497106,-0.153341,0.683939,0.057579,0.083349,0.611676,-0.155673,-0.344395,-0.705165,-0.599917,103.662585,-11.166808,136.727403
31953,NaN,1.805765,10.586866,-2.078945,0.588618,0.110197,1.110016,0.052568,0.123344,0.669977,-0.153140,-0.346466,-0.704255,-0.600445,103.699506,-11.558468,136.700408
31954,NaN,1.653772,10.803957,-2.029251,0.855523,0.002346,1.270895,0.024703,0.189205,0.731469,-0.150239,-0.348528,-0.703196,-0.601225,103.714734,-11.993070,136.702157
31955,NaN,1.460399,10.719614,-2.143000,0.961004,-0.274640,1.170739,-0.001983,0.245662,0.818153,-0.146921,-0.350701,-0.701936,-0.602253,103.710465,-12.483807,136.723930
31956,NaN,1.217720,10.451668,-1.939918,1.245397,-0.363140,0.808036,-0.053179,0.287565,0.908582,-0.143272,-0.353019,-0.700381,-0.603587,103.674032,-13.030309,136.757328
31957,NaN,0.781173,10.160774,-2.318264,1.295902,-1.018884,0.507556,-0.070322,0.289532,0.997786,-0.139372,-0.355624,-0.698599,-0.605034,103.630027,-13.626970,136.779866
31958,NaN,0.756910,10.130637,-2.525589,1.251031,-1.270831,0.502353,-0.042261,0.262632,1.089470,-0.135236,-0.358637,-0.696701,-0.606382,103.608457,-14.270731,136.774707
31959,NaN,0.990206,10.426852,-2.552020,1.257826,-1.217039,0.824411,0.029099,0.249349,1.169261,-0.130770,-0.362007,-0.694843,-0.607490,103.632676,-14.957443,136.750675
31960,NaN,1.347241,11.283001,-2.708381,1.306981,-1.187548,1.734443,0.053386,0.272222,1.224811,-0.126010,-0.365500,-0.692947,-0.608568,103.669697,-15.677780,136.731666
31961,NaN,1.766108,11.707279,-2.952545,1.129758,-1.197354,2.278002,0.088586,0.391256,1.285226,-0.120581,-0.368850,-0.691093,-0.609755,103.710654,-16.448261,136.772441
31962,NaN,0.945467,13.219438,-2.973690,2.377562,-1.885291,3.426647,0.163591,0.489854,1.353164,-0.114464,-0.372157,-0.689369,-0.610874,103.780332,-17.269537,136.860329
31963,NaN,0.848691,13.901953,-2.258665,3.287292,-1.550844,3.820767,-0.014897,0.507367,1.421369,-0.108400,-0.375527,-0.686944,-0.612647,103.746388,-18.131660,136.948773
31964,NaN,0.980855,13.708806,-2.512091,3.122858,-1.792780,3.686703,0.076403,0.588298,1.521908,-0.101576,-0.379017,-0.684613,-0.614275,103.752592,-19.060110,137.071046
31965,NaN,-0.098186,15.418396,-2.673156,4.628507,-2.833291,4.864694,0.112619,0.643300,1.651466,-0.094087,-0.382775,-0.682124,-0.615904,103.772917,-20.068812,137.207472
31966,NaN,-1.285391,16.341964,-3.468491,5.554752,-4.427442,5.362167,0.017773,0.651336,1.838532,-0.086172,-0.387064,-0.678931,-0.617907,103.743937,-21.181887,137.322583
31967,NaN,-1.348259,15.918382,-3.301754,5.743885,-4.513543,4.772924,-0.010155,0.694995,2.017058,-0.077597,-0.391776,-0.675252,-0.620101,103.696264,-22.401010,137.439316
31968,NaN,-1.658108,15.571895,-2.810877,6.332735,-4.506140,4.069467,0.077560,0.773971,2.202545,-0.068006,-0.396848,-0.671431,-0.622147,103.687561,-23.732912,137.578436
31969,NaN,-2.859292,16.214500,-2.606421,7.815293,-5.350193,3.904490,0.183518,0.801204,2.406258,-0.057463,-0.402503,-0.667441,-0.623869,103.741999,-25.183089,137.704500
31970,NaN,-3.835735,16.201592,-2.157197,9.005309,-5.795259,3.116347,0.216472,0.782711,2.623776,-0.046235,-0.408871,-0.662998,-0.625396,103.831736,-26.750402,137.785921
31971,NaN,-4.859245,16.146676,-1.886263,10.099683,-6.391745,2.229190,0.283126,0.724510,2.839202,-0.034373,-0.416077,-0.658171,-0.626506,103.991541,-28.431182,137.794360
31972,NaN,-5.995722,16.249545,-1.820473,11.220045,-7.230081,1.373065,0.312300,0.595656,3.137892,-0.021942,-0.424563,-0.652642,-0.627155,104.234441,-30.257924,137.666582
31973,NaN,-5.887357,16.317264,-2.144228,11.302834,-7.649324,1.105918,0.343912,0.684641,3.327166,-0.008542,-0.433287,-0.646634,-0.627737,104.491965,-32.203888,137.552853
31974,NaN,-4.086994,16.611753,-1.828696,10.832799,-6.636285,1.788125,0.278218,1.092332,3.321394,0.006002,-0.440565,-0.640265,-0.629227,104.571223,-34.202343,137.701600
31975,NaN,-2.181144,16.230770,-2.382957,9.462160,-6.206340,2.261957,-0.092822,1.514081,3.162923,0.020595,-0.445899,-0.632859,-0.632645,104.248105,-36.175360,138.172508
31976,NaN,0.947876,15.832462,-2.010099,7.824633,-4.439474,3.402890,-0.438968,1.656344,2.875216,0.033931,-0.449760,-0.624811,-0.637319,103.604097,-38.001520,138.825456
31977,NaN,3.418635,16.024467,-2.795851,6.333269,-4.219336,4.963932,-0.613269,1.270518,3.092701,0.046372,-0.455448,-0.615594,-0.641452,103.014776,-39.895496,139.206227
31978,NaN,4.858908,16.668044,-2.714338,6.267196,-4.006842,6.106956,-0.595566,0.686733,3.450841,0.058170,-0.463950,-0.605581,-0.643924,102.727326,-41.909138,139.126162
31979,NaN,6.342937,14.987303,-3.088003,4.526862,-3.586560,5.711606,-0.839333,-0.031685,3.561502,0.067587,-0.475038,-0.594524,-0.645223,102.685501,-43.897822,138.483391
31980,NaN,5.000989,11.227169,-3.066304,3.109473,-3.480065,1.963113,-0.718740,-0.258750,3.203982,0.075417,-0.485591,-0.584616,-0.645552,102.824229,-45.653783,137.703758
31981,NaN,0.756267,8.429899,-2.349921,3.992680,-4.231038,-3.231634,-0.562262,-0.064761,2.498321,0.081924,-0.493310,-0.576710,-0.646018,102.879751,-47.043141,137.183850
31982,NaN,-5.609516,6.194982,-2.442727,5.635394,-6.629860,-9.501807,-0.626725,-0.064348,1.680132,0.085596,-0.498614,-0.570561,-0.646929,102.798635,-47.971517,136.808751
31983,NaN,-6.776664,4.181151,-0.186960,6.025729,-4.669272,-12.120955,-0.520762,-0.193095,0.912509,0.086702,-0.502092,-0.566674,-0.647508,102.756702,-48.458966,136.466824
31984,NaN,-6.792952,3.207885,0.740349,5.845565,-3.613138,-12.936345,-0.670448,-0.346794,0.298328,0.084979,-0.504360,-0.563918,-0.648380,102.639605,-48.579681,136.112226
31985,NaN,-5.139656,1.440032,-2.479831,2.033067,-4.894998,-12.370982,-0.676667,-0.360285,-0.329679,0.081192,-0.504916,-0.562702,-0.649487,102.439430,-48.352529,135.863692
31986,NaN,-3.749810,1.234663,-3.657062,0.557546,-5.148172,-11.277263,-0.216737,-0.121635,-0.764826,0.077795,-0.503256,-0.563992,-0.650073,102.291703,-47.906973,135.897154
31987,NaN,-4.826592,2.315656,-2.778169,2.315805,-5.321666,-11.453734,0.095702,0.180331,-1.193497,0.074669,-0.499292,-0.567224,-0.650683,102.084150,-47.262451,136.254562
31988,NaN,-4.981719,4.274003,-0.957933,4.754602,-4.581294,-10.450533,0.282027,0.232915,-1.543672,0.070984,-0.494048,-0.571910,-0.650997,101.915679,-46.422290,136.709016
31989,NaN,-2.923001,6.328169,-0.213484,5.501997,-3.652934,-7.572617,0.261655,0.173805,-1.848193,0.066113,-0.488118,-0.577238,-0.651280,101.746692,-45.408366,137.155030
31990,NaN,-1.941544,7.032345,0.412970,5.772080,-2.847271,-6.353180,-0.063573,-0.044446,-2.105964,0.058941,-0.482190,-0.582174,-0.651991,101.498561,-44.218299,137.457495
31991,NaN,-1.341753,5.842762,-0.222026,4.279683,-2.653277,-6.552298,-0.319181,-0.347753,-2.377276,0.049409,-0.476498,-0.586923,-0.652710,101.251555,-42.845816,137.552737
31992,NaN,-0.515715,4.593037,-0.957147,2.569075,-2.413799,-6.674206,-0.205557,-0.478434,-2.735741,0.038553,-0.470045,-0.592851,-0.652762,101.106832,-41.251683,137.595111
31993,NaN,-0.328761,4.550206,-0.720311,2.499624,-2.053962,-6.516835,-0.040256,-0.455688,-3.131269,0.026887,-0.462236,-0.600090,-0.652309,101.014141,-39.442995,137.704929
31994,NaN,-0.325066,5.456875,-0.361761,3.144871,-1.931865,-5.764401,-0.016392,-0.397971,-3.491210,0.014234,-0.452999,-0.608086,-0.651783,100.885063,-37.432382,137.899702
31995,NaN,-0.186989,6.405060,-0.127739,3.612173,-1.806964,-4.836920,-0.104255,-0.346537,-3.776390,0.000638,-0.442610,-0.616212,-0.651444,100.675598,-35.271896,138.154751
31996,NaN,-0.109355,6.851854,-0.167267,3.626126,-1.772451,-4.272724,-0.185232,-0.343992,-3.990189,-0.013861,-0.431356,-0.624334,-0.651112,100.420846,-32.984694,138.422035
31997,NaN,0.047748,7.002631,-0.402103,3.284391,-1.758119,-3.870020,-0.184247,-0.423741,-4.202113,-0.029255,-0.419548,-0.632625,-0.650315,100.200354,-30.574698,138.642992
31998,NaN,0.349595,7.420239,-0.929150,2.773770,-1.915419,-3.128865,-0.106235,-0.550517,-4.442663,-0.045691,-0.407172,-0.641376,-0.648660,100.065695,-28.009765,138.796467
31999,NaN,0.824747,8.124988,-1.669057,2.096733,-2.134479,-2.033463,-0.016195,-0.665139,-4.657903,-0.062949,-0.394315,-0.650473,-0.646094,100.014801,-25.317650,138.892476
32000,NaN,1.227108,8.970100,-2.310894,1.507157,-2.261219,-0.873618,0.082660,-0.724855,-4.823074,-0.080740,-0.380886,-0.659842,-0.642663,100.033043,-22.520307,138.967454
32001,NaN,1.500988,10.150484,-2.556086,1.293553,-2.102667,0.468420,0.242446,-0.763838,-4.949712,-0.098676,-0.367029,-0.669527,-0.638190,100.149620,-19.653754,139.033712
32002,NaN,1.610478,11.511992,-2.050661,1.618476,-1.366765,1.797944,0.325435,-0.911227,-5.037958,-0.117210,-0.353118,-0.679153,-0.632709,100.338670,-16.716435,139.029551
32003,NaN,1.758485,12.452391,-1.974345,1.424244,-0.819785,2.809319,0.319196,-1.164607,-5.087029,-0.136653,-0.339635,-0.688224,-0.626355,100.558967,-13.731307,138.892935
32004,NaN,2.543000,13.298480,-2.068168,0.558829,0.090554,3.870503,0.382804,-1.413913,-5.098367,-0.156825,-0.326667,-0.696882,-0.618910,100.835244,-10.706486,138.629614
32005,NaN,3.935439,14.667031,-2.011530,-0.592945,1.628368,5.405648,0.467951,-1.659366,-5.071175,-0.177480,-0.314424,-0.705056,-0.610356,101.166900,-7.675038,138.241619
32006,NaN,6.649154,16.138702,-2.873517,-3.373215,3.501774,7.193560,0.384639,-1.812584,-4.989488,-0.198468,-0.302601,-0.712222,-0.601484,101.438222,-4.664092,137.777265
32007,NaN,10.872465,16.556275,-3.527114,-7.423566,6.569281,7.691788,0.112984,-1.727222,-4.888553,-0.219085,-0.290440,-0.717997,-0.593402,101.527702,-1.724325,137.360183
32008,NaN,14.523070,15.743527,-4.913657,-11.741935,8.564445,6.667601,-0.134142,-1.334280,-4.790453,-0.238253,-0.276971,-0.722875,-0.586494,101.452736,1.121402,137.154083
32009,NaN,15.572363,15.100336,-6.402155,-14.158761,8.621454,5.569589,-0.128523,-0.676026,-4.655901,-0.254466,-0.261938,-0.727933,-0.580302,101.386781,3.810784,137.298456
32010,NaN,15.958474,15.156075,-7.715270,-15.879668,8.323135,5.100004,-0.122999,0.018960,-4.369827,-0.267211,-0.245771,-0.733148,-0.575055,101.361364,6.266190,137.800945
32011,NaN,17.264436,14.888452,-8.170083,-17.684960,9.003975,4.064833,-0.143867,0.635237,-3.845246,-0.276071,-0.229652,-0.738162,-0.571106,101.381360,8.352240,138.594300
32012,NaN,18.472418,14.227699,-7.155046,-18.382603,10.377285,2.401998,-0.125455,1.093158,-3.191843,-0.281286,-0.214561,-0.742871,-0.568318,101.468001,10.022886,139.579127
32013,NaN,19.159506,13.432944,-5.441832,-18.162607,11.740672,0.646222,-0.040388,1.317551,-2.551419,-0.283664,-0.201303,-0.747262,-0.566225,101.639924,11.301833,140.625303
32014,NaN,20.468861,13.540923,-5.348750,-19.413799,12.502059,0.072951,0.422381,1.361272,-1.838536,-0.283365,-0.191188,-0.752187,-0.563353,102.086261,12.173552,141.621951
32015,NaN,21.292197,12.781733,-2.509158,-18.455457,14.698268,-1.665811,0.249393,1.433785,-1.120033,-0.280885,-0.183324,-0.755953,-0.562167,102.436144,12.624126,142.579023
32016,NaN,21.161941,11.012181,-1.507238,-17.867015,14.620541,-3.618324,0.151908,1.439902,-0.215013,-0.275920,-0.178702,-0.758576,-0.562580,102.709872,12.564827,143.427342
32017,NaN,19.688243,10.467018,0.435692,-15.633778,14.854684,-4.130142,0.145603,1.400396,0.628275,-0.268711,-0.177383,-0.760328,-0.564120,102.946985,12.033652,144.141840
32018,NaN,17.894309,9.944325,2.853383,-12.799057,15.350594,-4.542752,-0.008082,1.056559,1.359487,-0.260871,-0.179589,-0.760487,-0.566881,103.028208,11.137597,144.560964
32019,NaN,12.729758,9.951184,0.691440,-9.923065,10.650963,-2.767692,-0.030743,0.323013,1.989364,-0.254026,-0.186230,-0.758990,-0.569845,102.997041,9.983361,144.478928
32020,NaN,-11.059389,11.412350,-10.710291,2.429272,-11.490748,5.330456,0.069544,-0.861433,2.374401,-0.250454,-0.197809,-0.755817,-0.571739,102.907915,8.766335,143.678008
32021,NaN,-37.450579,11.404168,-19.420715,18.074494,-33.961309,10.915570,0.488180,-1.271881,1.901728,-0.249332,-0.209270,-0.753681,-0.570968,103.048908,7.866185,142.708681
32022,NaN,-5.054709,14.770275,1.907401,5.711134,2.329293,4.654535,2.045618,-0.837399,0.272487,-0.249568,-0.215260,-0.758143,-0.562670,104.153115,7.826570,142.196546
32023,NaN,31.201407,30.850697,5.846972,-18.634226,32.111781,14.288014,2.860882,-1.631090,2.230973,-0.246353,-0.231873,-0.761598,-0.552732,105.634901,6.829594,140.950342
32024,NaN,15.092989,31.214545,5.902146,-4.950835,22.092885,17.098025,-1.273841,-0.634305,4.057631,-0.238986,-0.247492,-0.752411,-0.561704,104.809200,4.680360,139.980052
32025,NaN,-4.020328,5.202237,-2.455780,1.992975,-3.258396,-3.925882,-5.276072,-0.331642,2.881764,-0.238568,-0.252888,-0.733285,-0.584316,101.748770,3.115198,139.410300
32026,NaN,-4.954239,-14.336554,-8.773136,-3.241234,-12.199374,-21.965646,-2.642738,-0.857924,1.518871,-0.240594,-0.257818,-0.722522,-0.594648,100.204659,2.352474,138.757125
32027,NaN,-0.575373,-5.237430,-5.926271,-3.970064,-5.584803,-13.803514,2.662230,-0.721068,0.833678,-0.237269,-0.266191,-0.728413,-0.585031,101.712653,1.959903,138.256131
32028,NaN,0.837274,14.675084,-0.288433,1.038654,3.034374,4.534113,3.532959,-0.944588,1.143772,-0.232625,-0.277301,-0.735964,-0.572142,103.718565,1.438066,137.579352
32029,NaN,4.053341,21.105673,0.760264,0.704281,7.255309,10.418653,0.588100,-1.011409,1.742183,-0.230540,-0.287314,-0.734007,-0.570558,104.042629,0.606079,136.772844
32030,NaN,7.487850,14.582896,-3.032354,-5.112917,5.568092,5.045745,-0.915357,-0.364885,1.533630,-0.228817,-0.292956,-0.728734,-0.575123,103.518160,-0.199315,136.356156
32031,NaN,7.101551,9.510268,-1.855157,-4.803109,5.116131,-0.062206,-0.589999,0.387047,1.201300,-0.224816,-0.295578,-0.725695,-0.579187,103.181080,-0.922201,136.408675
32032,NaN,4.817231,7.294086,-1.827238,-3.469711,3.112708,-2.195628,-0.199469,0.807944,0.779954,-0.219921,-0.295881,-0.724853,-0.581960,103.061063,-1.464696,136.753807
32033,NaN,1.373638,7.552835,-2.500476,-1.325100,0.254365,-1.852559,0.307509,1.001286,0.490656,-0.214411,-0.295119,-0.726104,-0.582843,103.224458,-1.870908,137.244436
32034,NaN,-1.085907,10.013997,-1.858278,1.410210,-0.606094,0.314300,0.516530,0.879517,0.428811,-0.209206,-0.294705,-0.727900,-0.582703,103.506526,-2.228754,137.673844
32035,NaN,-1.223620,10.554140,-1.076298,2.193522,-0.058073,0.638639,0.285677,0.229501,0.536023,-0.206392,-0.296325,-0.728172,-0.582546,103.669544,-2.560139,137.725209
32036,NaN,1.206478,9.936421,-1.872852,-0.179197,0.887027,0.330116,0.110177,-0.189927,0.535107,-0.205364,-0.298980,-0.727494,-0.582400,103.742706,-2.834433,137.542298
32037,NaN,1.673507,9.716277,-2.448302,-0.893901,0.733480,0.280064,0.105399,-0.183562,0.482420,-0.204474,-0.301417,-0.726881,-0.582222,103.813480,-3.079793,137.369747
32038,NaN,2.385871,9.680551,-3.453665,-2.038623,0.466971,0.529415,0.076346,-0.035644,0.356245,-0.203454,-0.302935,-0.726521,-0.582241,103.862692,-3.275350,137.296640
32039,NaN,2.738546,9.688017,-3.973414,-2.600244,0.312385,0.689042,0.110152,0.306478,0.272388,-0.201385,-0.303183,-0.726732,-0.582566,103.919704,-3.470957,137.425508
32040,NaN,1.706524,9.709788,-3.246866,-1.337647,0.118573,0.479584,0.053883,0.622882,0.204027,-0.198447,-0.302206,-0.727196,-0.583504,103.932463,-3.672658,137.740007
32041,NaN,0.844523,9.304253,-2.866933,-0.516124,-0.267323,-0.057499,0.006179,0.757044,0.150242,-0.195251,-0.300587,-0.727726,-0.584756,103.911412,-3.862518,138.136815
32042,NaN,0.034113,9.416328,-2.683026,0.254598,-0.679871,-0.048473,0.083681,0.756064,0.170444,-0.191876,-0.299119,-0.728440,-0.585736,103.933665,-4.063917,138.530340
32043,NaN,-0.450821,9.892734,-2.331259,0.974250,-0.693591,0.290472,0.090508,0.666844,0.237531,-0.188620,-0.298157,-0.728978,-0.586614,103.962638,-4.290039,138.864880
32044,NaN,-0.198407,9.933120,-2.357908,0.812223,-0.565245,0.350314,-0.008254,0.554660,0.313194,-0.185694,-0.297704,-0.729000,-0.587750,103.939275,-4.543142,139.126432
32045,NaN,0.085366,9.590548,-2.347254,0.564044,-0.449646,0.034901,-0.059481,0.473638,0.380852,-0.182941,-0.297685,-0.728688,-0.589008,103.889756,-4.822155,139.333710
32046,NaN,0.111638,9.468312,-2.081288,0.715309,-0.284927,-0.148315,-0.048040,0.422360,0.431621,-0.180204,-0.298010,-0.728280,-0.590190,103.848829,-5.122547,139.505639
32047,NaN,0.265077,9.642876,-2.025701,0.708027,-0.158643,0.017474,-0.038852,0.341144,0.473087,-0.177628,-0.298730,-0.727759,-0.591249,103.816906,-5.434429,139.626790
32048,NaN,0.919396,9.797348,-2.311628,0.109099,0.025606,0.294939,-0.080282,0.316907,0.503065,-0.175110,-0.299593,-0.727042,-0.592444,103.762271,-5.759900,139.730555
32049,NaN,0.936108,9.608480,-2.733098,-0.163375,-0.350853,0.213223,-0.070594,0.349786,0.556408,-0.172300,-0.300557,-0.726296,-0.593694,103.711380,-6.119129,139.845807
32050,NaN,0.875317,9.449454,-2.692385,-0.085465,-0.423704,0.042268,-0.043871,0.368029,0.561332,-0.169365,-0.301505,-0.725629,-0.594872,103.674000,-6.483790,139.970937
32051,NaN,1.102504,9.653941,-2.524237,-0.059972,-0.171109,0.224873,0.045565,0.395306,0.575239,-0.166154,-0.302493,-0.725222,-0.595771,103.685473,-6.859556,140.109657
32052,NaN,1.179863,10.030913,-2.147899,0.251770,0.163837,0.508850,0.044177,0.397734,0.602944,-0.162851,-0.303571,-0.724761,-0.596695,103.695544,-7.251398,140.245966
32053,NaN,1.037962,10.289213,-2.168102,0.467639,0.039150,0.743128,0.015843,0.424519,0.636985,-0.159391,-0.304664,-0.724177,-0.597781,103.687044,-7.665526,140.392802
32054,NaN,0.723708,10.398144,-2.140879,0.810249,-0.179305,0.795767,-0.018822,0.435043,0.690167,-0.155783,-0.305887,-0.723404,-0.599042,103.657742,-8.110926,140.538547
32055,NaN,0.246895,10.221997,-2.336112,1.078019,-0.703787,0.596419,-0.029343,0.433178,0.782518,-0.151921,-0.307434,-0.722444,-0.600399,103.623147,-8.607127,140.671072
32056,NaN,-0.148658,10.366875,-2.310462,1.507046,-0.978802,0.656427,0.028119,0.447942,0.873746,-0.147637,-0.309305,-0.721511,-0.601628,103.620855,-9.156312,140.799792
32057,NaN,-0.623778,10.729941,-2.044428,2.207856,-1.105451,0.845764,-0.031821,0.428070,1.020196,-0.143075,-0.311709,-0.720138,-0.603132,103.587999,-9.784101,140.897679
32058,NaN,-0.875768,10.224662,-2.300153,2.202288,-1.581029,0.348527,-0.091985,0.398005,1.168219,-0.138263,-0.314684,-0.718305,-0.604893,103.525940,-10.490343,140.959088
32059,NaN,-0.887222,10.009433,-1.966094,2.439127,-1.429980,0.028330,-0.078001,0.352657,1.319507,-0.133129,-0.318335,-0.716215,-0.606610,103.479730,-11.274622,140.974984
32060,NaN,-0.927898,10.045669,-1.939269,2.601998,-1.521553,0.008202,0.014561,0.292172,1.417210,-0.127762,-0.322565,-0.714174,-0.607934,103.495911,-12.105228,140.943409
32061,NaN,-0.198731,10.858087,-1.526152,2.655153,-0.799496,0.797462,0.043272,0.194125,1.533633,-0.122337,-0.327509,-0.711930,-0.609037,103.544804,-12.987562,140.839296
32062,NaN,0.744956,11.150179,-1.989656,1.910275,-0.675213,1.355668,0.087349,0.172454,1.651118,-0.116553,-0.332942,-0.709569,-0.609981,103.627487,-13.932125,140.705140
32063,NaN,0.637854,12.477371,-2.925378,2.064246,-1.543377,2.757205,0.244862,0.250658,1.713052,-0.110030,-0.338425,-0.707579,-0.610487,103.794342,-14.921663,140.604509
32064,NaN,0.567315,13.936250,-2.487448,3.066695,-1.329955,3.955007,0.155317,0.267512,1.786260,-0.103369,-0.344037,-0.705144,-0.611331,103.912483,-15.953706,140.500229
32065,NaN,1.461573,13.350017,-2.254361,2.531639,-0.758536,3.545862,0.037287,0.348374,1.917050,-0.096215,-0.349773,-0.702103,-0.612743,103.957604,-17.069781,140.421861
32066,NaN,1.120049,13.451928,-2.016377,3.167088,-0.941292,3.429352,0.064271,0.458598,2.011139,-0.088332,-0.355477,-0.698962,-0.614236,104.004588,-18.252926,140.392825
32067,NaN,-0.020119,13.711740,-2.078587,4.288309,-1.855534,3.244591,0.042039,0.506746,2.128965,-0.079945,-0.361397,-0.695485,-0.615875,104.036376,-19.508672,140.373611
32068,NaN,-0.958203,13.828396,-2.540842,4.989854,-2.972730,3.026853,0.059595,0.511679,2.278456,-0.071043,-0.367778,-0.691706,-0.617443,104.085406,-20.847538,140.334224
32069,NaN,-1.781320,14.442975,-2.938609,5.870682,-3.993520,3.225081,0.132687,0.476731,2.457122,-0.061561,-0.374861,-0.687708,-0.618665,104.195888,-22.281365,140.244524
32070,NaN,-2.329314,15.200970,-3.064753,6.802892,-4.658606,3.524883,0.194789,0.458467,2.676536,-0.051343,-0.382704,-0.683370,-0.619602,104.363191,-23.833252,140.105598
32071,NaN,-2.839786,15.988119,-3.829379,7.417808,-5.846785,3.939399,0.237704,0.452873,2.890869,-0.040381,-0.391237,-0.678614,-0.620312,104.577588,-25.503795,139.921822
32072,NaN,-4.198580,17.346040,-4.871572,8.796512,-7.823838,4.457093,0.365674,0.475742,3.091458,-0.028470,-0.400306,-0.673713,-0.620529,104.883122,-27.286589,139.708755
32073,NaN,-6.123677,18.798258,-5.501265,10.890170,-9.830219,4.535424,0.448879,0.532080,3.372439,-0.015313,-0.410057,-0.668328,-0.620448,105.255997,-29.233525,139.467641
32074,NaN,-8.580890,20.498103,-5.226998,13.993379,-11.453253,4.118312,0.521879,0.614749,3.693049,-0.000745,-0.420483,-0.662307,-0.620115,105.690262,-31.366420,139.202275
32075,NaN,-11.084889,22.221719,-4.309396,17.494469,-12.591656,3.247103,0.501410,0.769751,3.932285,0.015050,-0.431071,-0.655460,-0.619938,106.104896,-33.655884,138.968212
32076,NaN,-12.392068,22.021946,-3.818771,18.874206,-13.109063,1.365206,0.490842,1.199251,3.716760,0.031534,-0.439435,-0.648763,-0.620492,106.345284,-35.891126,139.042166
32077,NaN,-8.194240,20.073685,-1.344567,16.749105,-8.654328,0.977626,0.485095,1.831246,3.116282,0.048202,-0.443749,-0.643022,-0.622323,106.248127,-37.901094,139.669364
32078,NaN,-0.602517,16.541701,-0.341929,10.770914,-3.526525,2.255255,-0.286571,2.373532,3.159361,0.064990,-0.446518,-0.634438,-0.627604,105.429909,-40.011208,140.711480
32079,NaN,5.390960,12.261746,-1.723271,4.056023,-1.375337,2.994153,-0.918025,2.528761,3.338480,0.081424,-0.449404,-0.623136,-0.634907,104.111683,-42.232171,141.917995
32080,NaN,9.835316,12.681086,-2.722191,1.608648,-0.797702,6.364165,-0.455567,2.151139,3.672699,0.098713,-0.454114,-0.612438,-0.639497,103.192572,-44.565156,142.877623
32081,NaN,15.286679,17.199012,-5.542219,0.876412,-2.541942,13.701044,-0.142067,1.126529,3.976556,0.114535,-0.462696,-0.602268,-0.640365,103.001718,-46.932557,143.032454
32082,NaN,11.747603,17.183286,-6.709903,2.937133,-5.550382,11.135127,-0.446344,0.069594,3.754247,0.125684,-0.473963,-0.592028,-0.639582,103.250777,-49.033559,142.355118
32083,NaN,2.489805,13.277241,-2.979662,7.046586,-5.313038,0.839105,-0.823768,-0.058746,3.506700,0.134754,-0.485006,-0.581025,-0.639547,103.376050,-50.983025,141.577538
32084,NaN,-7.377591,8.920727,-4.095474,8.249727,-9.093009,-9.638498,-0.712524,-0.500658,2.821673,0.140551,-0.495242,-0.572202,-0.638409,103.809174,-52.483750,140.507904
32085,NaN,-13.696173,4.278914,-2.453576,8.394780,-8.779685,-17.834907,-1.400946,-0.428325,0.842833,0.138546,-0.500021,-0.565924,-0.640714,103.476082,-52.897115,139.919362
32086,NaN,-7.786073,0.054428,-4.188700,1.584328,-6.659145,-15.408810,-1.551432,-0.238274,-0.266673,0.133102,-0.501096,-0.561795,-0.644650,102.723060,-52.713404,139.750679
32087,NaN,-3.117161,-0.638751,-4.986133,-1.497985,-5.279600,-12.019042,-0.624446,0.405861,-0.636329,0.130630,-0.498444,-0.561099,-0.647809,101.973834,-52.409039,140.245544
32088,NaN,-5.815425,-0.524461,-2.723490,1.026644,-4.419009,-14.387556,-0.024537,0.928965,-0.955609,0.130043,-0.492768,-0.562811,-0.650778,101.152932,-51.975247,141.268893
32089,NaN,-8.244157,0.771191,-0.803038,4.185273,-4.107009,-15.713530,0.470975,0.994983,-1.378171,0.129519,-0.485361,-0.567070,-0.652749,100.534394,-51.309108,142.403687
32090,NaN,-5.899903,3.607877,-1.160284,4.996511,-4.398584,-12.016681,0.617685,0.805719,-1.726971,0.127624,-0.477418,-0.572758,-0.654013,100.119149,-50.414151,143.397749
32091,NaN,-2.832384,5.557617,-0.455490,5.200274,-3.174233,-8.399554,0.405548,0.591456,-2.022446,0.123669,-0.469441,-0.578502,-0.655490,99.725028,-49.333318,144.218988
32092,NaN,-2.366643,4.910383,0.286513,4.837936,-2.108554,-8.419218,0.022911,0.062862,-2.511908,0.115625,-0.461925,-0.584420,-0.657046,99.432679,-47.915624,144.628728
32093,NaN,-3.388881,4.022136,0.374201,4.810867,-2.150293,-9.633805,0.279350,-0.627647,-2.927255,0.104810,-0.455255,-0.592396,-0.656373,99.680596,-46.204270,144.510765
32094,NaN,-3.196504,5.302447,0.920582,5.812091,-1.928923,-8.517701,0.490694,-1.131496,-3.199536,0.092077,-0.449119,-0.601865,-0.653890,100.291209,-44.281560,144.059679
32095,NaN,-1.926930,5.823523,1.087389,5.447813,-1.343148,-7.106604,0.226381,-1.334976,-3.470378,0.077209,-0.442894,-0.610908,-0.651671,100.791438,-42.188983,143.521045
32096,NaN,-1.202161,5.155015,0.431056,4.185297,-1.372250,-6.845845,-0.050549,-1.308781,-3.815725,0.060665,-0.435382,-0.619642,-0.650236,101.048162,-39.895013,143.098792
32097,NaN,-0.471663,4.821767,-0.289424,3.070420,-1.506996,-6.369772,-0.024940,-1.246233,-4.145731,0.043260,-0.426532,-0.628817,-0.648682,101.232119,-37.428626,142.783901
32098,NaN,-0.436839,5.638118,-0.581313,3.251560,-1.802305,-5.512602,0.109318,-1.139693,-4.403142,0.025629,-0.416196,-0.638709,-0.646664,101.405166,-34.821228,142.609531
32099,NaN,-1.127975,6.768076,-0.337626,4.299121,-2.011538,-4.847196,0.182499,-1.141094,-4.556765,0.007627,-0.405233,-0.648749,-0.644090,101.593552,-32.134585,142.460339
32100,NaN,-1.046945,7.695155,-0.222714,4.598320,-1.852536,-3.831611,0.135898,-1.291189,-4.726998,-0.011502,-0.393874,-0.658678,-0.640995,101.779767,-29.326747,142.261455
32101,NaN,-0.471599,8.130074,-0.528796,4.011017,-1.659798,-2.903060,0.023055,-1.418719,-4.939903,-0.031956,-0.382063,-0.668178,-0.637609,101.910172,-26.391900,142.013925
32102,NaN,0.215471,8.292799,-1.085835,3.008656,-1.522604,-2.157030,0.035903,-1.447811,-5.183919,-0.053233,-0.369166,-0.677776,-0.633642,102.024450,-23.308239,141.804346
32103,NaN,0.452273,9.272955,-1.120556,2.897935,-1.204536,-1.004919,0.184048,-1.433465,-5.378790,-0.074770,-0.355426,-0.687639,-0.628677,102.195471,-20.124773,141.631289
32104,NaN,0.731067,10.955249,-0.733598,3.158066,-0.442916,0.717682,0.267513,-1.485341,-5.523843,-0.096786,-0.341054,-0.697477,-0.622768,102.403831,-16.844948,141.461638
32105,NaN,0.972341,12.748902,-0.783655,3.091937,0.082926,2.616404,0.248789,-1.654720,-5.622081,-0.119597,-0.326616,-0.706733,-0.616074,102.610903,-13.496900,141.221001
32106,NaN,1.629196,14.539642,-1.360726,2.236073,0.598781,4.695488,0.210449,-1.880405,-5.677847,-0.143387,-0.312319,-0.715226,-0.608562,102.803283,-10.079983,140.874719
32107,NaN,2.772660,16.587031,-2.036011,0.834697,1.544016,7.033554,0.277568,-2.048279,-5.771782,-0.167774,-0.298006,-0.723274,-0.599933,103.023838,-6.596365,140.461247
32108,NaN,5.099617,18.756486,-2.129405,-1.307944,3.921822,9.295795,0.184285,-2.218886,-5.916135,-0.193240,-0.283267,-0.730427,-0.590673,103.169930,-3.000255,139.985840
32109,NaN,8.863598,19.415577,-3.103300,-5.558722,6.522066,9.975398,-0.228188,-2.315205,-5.992107,-0.219617,-0.267897,-0.735619,-0.582120,103.051279,0.642396,139.468320
32110,NaN,13.153758,18.796717,-5.089921,-11.085273,8.529959,9.066452,-0.499747,-2.000993,-5.931703,-0.244856,-0.251219,-0.739552,-0.574454,102.749830,4.217311,139.105508
32111,NaN,15.676834,19.697553,-7.335652,-15.262391,9.456923,9.292284,-0.370434,-1.316545,-5.678766,-0.266399,-0.233485,-0.743687,-0.566962,102.536103,7.555176,139.077173
32112,NaN,17.097871,21.627013,-9.352859,-18.483784,10.006314,10.325997,-0.493542,-0.548937,-5.336529,-0.284097,-0.214456,-0.747515,-0.560820,102.309122,10.614009,139.428194
32113,NaN,18.917237,19.974948,-11.406837,-22.097002,9.549031,7.718734,-1.046269,0.227176,-4.774437,-0.297679,-0.194467,-0.749792,-0.558016,101.858114,13.259645,140.139152
32114,NaN,21.295591,16.200212,-11.349351,-24.387474,9.879838,2.527903,-0.856407,0.995426,-3.946423,-0.305770,-0.175585,-0.752556,-0.556178,101.627104,15.361255,141.186140
32115,NaN,21.663693,14.284918,-7.904052,-22.753085,11.757199,-0.876728,-0.335242,1.329319,-3.189675,-0.309894,-0.159390,-0.756336,-0.553639,101.759107,16.994465,142.343902
32116,NaN,22.447933,12.498938,-5.331466,-21.868855,13.236899,-3.891678,-0.024595,1.370820,-2.414173,-0.311417,-0.146428,-0.760240,-0.551011,102.079455,18.188001,143.445541
32117,NaN,23.197658,11.016767,-3.870473,-21.608460,13.949385,-6.214122,0.256745,1.401819,-1.662561,-0.310471,-0.136679,-0.764295,-0.548433,102.558450,18.945244,144.483169
32118,NaN,23.648287,11.192979,-2.429295,-21.298005,15.072884,-6.711292,0.505109,1.527240,-0.754554,-0.306372,-0.130412,-0.768534,-0.546338,103.176167,19.172682,145.483244
32119,NaN,22.264170,12.508174,-1.259432,-19.857380,15.457019,-5.286000,0.394869,1.579109,0.208322,-0.299477,-0.127541,-0.771863,-0.546145,103.696011,18.844375,146.380077
32120,NaN,19.739999,14.911064,-0.278129,-17.673266,15.567451,-2.237644,0.426802,1.508373,1.317373,-0.289787,-0.129173,-0.774403,-0.547391,104.159193,17.903086,147.068072
32121,NaN,17.795011,11.109383,3.118715,-13.692203,15.618138,-5.525016,-0.455652,1.139387,2.050529,-0.280047,-0.133366,-0.773422,-0.552817,104.006115,16.602754,147.427196
32122,NaN,6.469991,10.178003,-0.847945,-6.680378,6.221631,-1.886303,-0.049850,0.354805,2.511980,-0.271752,-0.142060,-0.772038,-0.556711,103.935110,15.155037,147.266523
32123,NaN,-30.884909,14.080312,-10.784521,17.816348,-20.019201,13.643396,0.413180,-0.421656,2.668589,-0.265642,-0.154125,-0.770642,-0.558383,104.016739,13.727709,146.638634
32124,NaN,-43.129753,11.566080,-11.689597,27.403702,-28.581546,13.908530,-0.106421,-0.958189,1.035168,-0.266530,-0.160682,-0.768251,-0.559404,103.794175,13.282459,145.939551
32125,NaN,11.117374,10.995712,-9.558326,-15.172604,2.295740,0.206391,-0.068232,-1.299566,-0.068028,-0.271771,-0.164003,-0.766361,-0.558511,103.585527,13.494596,145.200914
32126,NaN,26.102346,18.407560,-5.066180,-24.530899,16.671121,3.073265,2.047937,-0.031165,2.903203,-0.262076,-0.178006,-0.769534,-0.554480,104.664803,11.885155,144.762729
32127,NaN,16.798520,34.860139,7.275214,-8.834917,26.286313,18.135341,3.369814,1.424447,4.034434,-0.242325,-0.193969,-0.776859,-0.547854,106.627105,9.437444,144.923574
32128,NaN,-0.040789,31.469492,8.759658,6.420246,16.292747,17.760203,-2.692900,0.449917,2.828964,-0.235400,-0.200468,-0.767129,-0.562061,105.055540,7.805684,144.722415
32129,NaN,-7.147585,-6.859677,-4.856639,2.632953,-9.689593,-14.383075,-4.740010,-0.840302,2.132590,-0.237307,-0.205401,-0.750412,-0.581702,102.244087,6.730053,143.955787
32130,NaN,-1.769551,-15.192330,-7.175075,-3.546108,-10.265524,-22.752806,2.198159,-0.578045,1.501123,-0.232836,-0.215345,-0.754501,-0.574580,103.447208,5.962903,143.434161
32131,NaN,5.065509,16.113812,4.081922,-0.396147,10.218691,4.236015,3.111453,-0.659299,1.734883,-0.226959,-0.227412,-0.760674,-0.564047,105.171859,5.091209,142.815238
32132,NaN,5.461049,18.198570,0.139388,-2.454148,8.042960,7.225685,-0.142859,-0.996974,2.005600,-0.225248,-0.237717,-0.756804,-0.565686,105.022431,4.128350,141.957267
32133,NaN,3.246602,10.666105,-5.263948,-4.579627,0.614041,1.618064,-0.685956,-0.778874,2.160188,-0.222892,-0.247345,-0.751359,-0.569736,104.583738,3.043866,141.203744
32134,NaN,3.726850,8.904784,-4.456666,-4.535092,1.015483,-0.249941,0.213438,-0.161698,1.639836,-0.218559,-0.254239,-0.749724,-0.570533,104.692310,2.155711,140.871942
32135,NaN,4.704477,10.574541,-3.458641,-4.334001,2.677185,1.140051,0.167623,0.475192,1.138793,-0.213319,-0.257371,-0.749253,-0.571729,104.792761,1.453549,140.964869
32136,NaN,3.426677,8.200728,-4.717097,-4.364407,0.337344,-0.752775,-0.194024,0.882153,0.830721,-0.207886,-0.257795,-0.748548,-0.574456,104.690342,0.861885,141.328216
32137,NaN,2.716250,7.341932,-4.847550,-3.954028,-0.470564,-1.510634,0.025023,1.077662,0.605718,-0.202084,-0.257029,-0.748940,-0.576358,104.711578,0.367619,141.833034
32138,NaN,1.152940,8.905956,-4.089837,-1.963289,-0.608270,-0.161426,0.176755,1.225006,0.493550,-0.195842,-0.255566,-0.750028,-0.577745,104.815868,-0.087604,142.435236
32139,NaN,0.171545,10.104679,-2.907788,-0.230074,-0.109320,0.700342,0.019526,1.170805,0.449782,-0.190130,-0.253925,-0.750636,-0.579584,104.825522,-0.510204,143.013445
32140,NaN,-0.151543,9.042102,-2.143157,0.357407,0.046187,-0.525836,0.201385,0.944305,0.291794,-0.185482,-0.252519,-0.751731,-0.580285,104.936989,-0.813647,143.488988
32141,NaN,-0.204562,11.038145,-0.934309,1.471440,1.348073,1.085603,0.292333,0.677926,0.327884,-0.181619,-0.252094,-0.752783,-0.580329,105.100594,-1.097605,143.811117
32142,NaN,-0.128371,11.288910,-1.184445,1.355085,1.230518,1.390359,-0.077040,0.338591,0.387113,-0.179318,-0.252544,-0.752370,-0.581383,105.055262,-1.365086,143.936322
32143,NaN,0.178434,9.630613,-2.571073,0.069999,-0.041856,0.156470,-0.227526,0.141710,0.421926,-0.177851,-0.253555,-0.751295,-0.582781,104.926081,-1.621465,143.947839
32144,NaN,0.461252,8.916457,-3.151120,-0.582562,-0.504345,-0.375970,-0.050393,0.134607,0.400335,-0.176243,-0.254667,-0.750752,-0.583485,104.898318,-1.865786,143.958915
32145,NaN,0.973315,9.499071,-3.146772,-0.858178,-0.114316,0.203908,0.039867,0.228897,0.363397,-0.174279,-0.255438,-0.750601,-0.583932,104.920260,-2.102595,144.027734
32146,NaN,1.097293,10.100157,-3.341746,-0.922271,-0.109156,0.841973,-0.000587,0.382030,0.356452,-0.171805,-0.255705,-0.750468,-0.584719,104.915388,-2.359113,144.182349
32147,NaN,0.543284,10.119209,-3.300714,-0.410825,-0.436229,0.828220,-0.154923,0.502794,0.379159,-0.169013,-0.255564,-0.749954,-0.586252,104.818566,-2.644864,144.400871
32148,NaN,-0.267803,9.763592,-3.369126,0.181239,-1.074571,0.461678,-0.172580,0.533425,0.429819,-0.165973,-0.255510,-0.749339,-0.587928,104.710007,-2.963714,144.629489
32149,NaN,-0.194898,9.274670,-3.262273,0.130109,-1.080914,-0.039546,-0.128035,0.546408,0.467774,-0.162719,-0.255589,-0.748809,-0.589476,104.625504,-3.304151,144.860458
32150,NaN,0.318798,9.423469,-2.533817,0.182293,-0.218405,-0.053466,-0.016056,0.558283,0.496767,-0.159185,-0.255834,-0.748570,-0.590637,104.603645,-3.663046,145.094164
32151,NaN,0.349348,9.959033,-2.239915,0.471107,0.087289,0.389846,-0.032212,0.534280,0.547193,-0.155615,-0.256318,-0.748190,-0.591858,104.572327,-4.045448,145.307558
32152,NaN,-0.072701,10.062727,-2.443171,0.783918,-0.346325,0.507093,-0.114986,0.479986,0.652189,-0.152036,-0.257290,-0.747376,-0.593393,104.495449,-4.478915,145.476034
32153,NaN,-0.328700,9.667409,-2.909571,0.722276,-0.991365,0.213645,-0.211474,0.428167,0.734203,-0.148535,-0.258641,-0.746119,-0.595273,104.365179,-4.949347,145.604851
32154,NaN,-0.841715,9.625394,-3.040857,1.127853,-1.454305,0.148025,-0.118626,0.386344,0.801750,-0.144860,-0.260436,-0.745003,-0.596791,104.289965,-5.451877,145.701629
32155,NaN,-1.141744,9.426317,-3.150707,1.343171,-1.805179,-0.064746,-0.171181,0.343943,0.931898,-0.141025,-0.262794,-0.743515,-0.598529,104.187811,-6.019798,145.757225
32156,NaN,-1.306128,9.424673,-3.207547,1.525621,-2.015059,-0.095193,-0.162396,0.342870,1.083076,-0.136722,-0.265720,-0.741830,-0.600323,104.092486,-6.672104,145.791925
32157,NaN,-1.365534,9.580661,-3.183153,1.713739,-2.083452,0.011117,-0.103803,0.343687,1.225069,-0.131910,-0.269196,-0.740107,-0.601975,104.032504,-7.402757,145.808157
32158,NaN,-0.726714,9.857735,-2.596349,1.667012,-1.294843,0.186647,-0.109045,0.336135,1.410085,-0.126568,-0.273367,-0.738079,-0.603730,103.973409,-8.235690,145.794999
32159,NaN,-0.208285,10.167394,-1.854784,1.824010,-0.450270,0.352334,-0.043006,0.346727,1.492685,-0.120843,-0.277834,-0.736104,-0.605274,103.952987,-9.115536,145.776858
32160,NaN,0.362442,10.692402,-0.594656,2.281995,0.873168,0.619951,0.080099,0.347477,1.621556,-0.114543,-0.282831,-0.734274,-0.606405,104.006484,-10.067504,145.740697
32161,NaN,0.375947,11.091262,-1.337894,2.149217,0.205764,1.154672,-0.115928,0.378159,1.643388,-0.108337,-0.287682,-0.731786,-0.608269,103.945549,-11.035486,145.718820
32162,NaN,0.357120,11.161778,-1.059800,2.480986,0.315685,1.122467,-0.057503,0.415370,1.778177,-0.101490,-0.292923,-0.729244,-0.609999,103.917913,-12.083856,145.699755
32163,NaN,0.518327,11.494312,-1.006539,2.651008,0.359312,1.422972,0.053933,0.500456,1.864248,-0.093901,-0.298248,-0.726895,-0.611436,103.946537,-13.191546,145.716945
32164,NaN,-0.726917,13.433365,-1.549591,4.200070,-0.753696,3.039177,0.139201,0.477167,1.915436,-0.086102,-0.303842,-0.724649,-0.612495,104.028762,-14.324660,145.712500
32165,NaN,-0.804733,13.858268,-2.445559,4.187341,-1.661797,3.543099,-0.003714,0.391689,2.096580,-0.078267,-0.310259,-0.721577,-0.613954,104.048934,-15.546403,145.631736
32166,NaN,-0.710095,14.465063,-2.261905,4.669369,-1.587904,3.990380,0.121187,0.377406,2.254229,-0.069797,-0.317299,-0.718550,-0.614928,104.151458,-16.853631,145.517993
32167,NaN,-0.604472,15.262252,-1.889722,5.348495,-1.368678,4.553274,0.021971,0.373861,2.463468,-0.060843,-0.325023,-0.714781,-0.616236,104.210632,-18.276481,145.368558
32168,NaN,-0.948616,14.723468,-1.985214,5.656943,-1.863127,3.830481,-0.090309,0.390120,2.641177,-0.051458,-0.333240,-0.710263,-0.617924,104.215084,-19.799952,145.200234
32169,NaN,-1.539857,14.269622,-2.412958,6.015396,-2.768479,3.146945,-0.039567,0.407030,2.798468,-0.041430,-0.341916,-0.705509,-0.619381,104.258814,-21.413382,145.015796
32170,NaN,-2.128188,14.750981,-2.890459,6.753150,-3.708810,3.267736,0.069644,0.427806,2.998968,-0.030517,-0.351180,-0.700604,-0.620399,104.378478,-23.140234,144.808690
32171,NaN,-3.205621,15.572351,-3.493055,7.991514,-5.035659,3.443633,0.160906,0.466402,3.228746,-0.018584,-0.361059,-0.695410,-0.621044,104.565049,-25.000154,144.580974
32172,NaN,-4.386772,16.632552,-4.135992,9.443321,-6.482663,3.669135,0.220531,0.509844,3.437412,-0.005746,-0.371426,-0.689831,-0.621404,104.800293,-26.980268,144.335363
32173,NaN,-6.411618,18.358513,-4.758785,11.904873,-8.409147,3.909693,0.362422,0.544055,3.703171,0.008308,-0.382490,-0.683972,-0.621140,105.143397,-29.112396,144.050537
32174,NaN,-9.830557,20.667274,-5.482630,15.671472,-11.211432,3.695366,0.442847,0.498375,4.077762,0.023508,-0.394816,-0.677385,-0.620256,105.601703,-31.441128,143.647404
32175,NaN,-12.573992,23.233433,-4.723972,19.823790,-12.461913,3.295222,0.494149,0.525799,4.339677,0.039715,-0.407766,-0.670124,-0.618937,106.139522,-33.916988,143.178635
32176,NaN,-13.355522,24.319289,-3.415667,22.038627,-12.138767,2.364769,0.290005,0.881197,4.254575,0.056397,-0.419163,-0.662021,-0.618749,106.450245,-36.397593,142.929828
32177,NaN,-10.553372,20.958285,-1.951371,19.186044,-9.366387,0.113042,0.111976,1.484508,3.933944,0.073702,-0.427504,-0.653557,-0.620219,106.381522,-38.801821,143.150012
32178,NaN,-2.430387,16.530120,1.590659,13.106398,-2.067166,0.463768,0.080842,1.960141,3.471904,0.091007,-0.432674,-0.645547,-0.622720,105.993941,-41.023466,143.828002
32179,NaN,7.003047,14.571225,-0.608110,5.455835,0.169431,5.415848,-0.568390,1.972738,3.387340,0.106673,-0.437675,-0.635425,-0.627134,105.160572,-43.198357,144.587136
32180,NaN,12.369460,14.999814,-3.417798,1.864198,-0.672932,9.826386,-0.630649,1.761954,3.801177,0.122761,-0.444480,-0.624063,-0.630804,104.392308,-45.559669,145.170428
32181,NaN,17.145576,18.048324,-6.354700,0.773499,-2.639737,15.730029,-0.577201,1.055171,4.102616,0.137682,-0.454240,-0.612336,-0.632261,104.058745,-47.988694,145.176307
32182,NaN,11.331203,17.828449,-6.961334,4.302215,-5.973252,11.174338,-0.635387,0.364218,4.149137,0.150417,-0.466144,-0.600534,-0.632016,104.136093,-50.343210,144.594619
32183,NaN,0.148931,14.555736,-2.629148,9.874573,-5.869939,-0.495366,-0.931358,0.231297,3.841263,0.161051,-0.477589,-0.588348,-0.632311,104.121928,-52.511808,143.932124
32184,NaN,-13.342250,10.260068,-3.317077,12.899023,-10.480470,-14.059770,-1.321194,-0.733526,2.801502,0.164552,-0.489167,-0.578016,-0.632089,104.446388,-53.961351,142.583821
32185,NaN,-14.650503,4.189363,-2.461596,8.932951,-8.666413,-18.941642,-2.060561,-0.804339,0.660850,0.159268,-0.495314,-0.570512,-0.635463,104.018674,-54.216983,141.656062
32186,NaN,-6.691533,1.195170,-4.808357,1.780853,-7.041404,-13.883507,-1.842007,-0.698371,-0.203345,0.152035,-0.498407,-0.565712,-0.639097,103.468332,-54.005870,141.034167
32187,NaN,-4.051664,1.087230,-5.123322,0.275641,-6.319501,-11.770825,-1.028916,-0.109209,-0.568004,0.147348,-0.497957,-0.563914,-0.642129,102.868128,-53.676728,141.049227
32188,NaN,-7.662738,0.244565,-3.241231,2.207088,-5.754793,-15.406771,-0.647349,0.328892,-0.963057,0.143542,-0.494666,-0.564002,-0.645448,102.094853,-53.175798,141.551900
32189,NaN,-8.507191,1.537536,-1.805049,4.322347,-5.240989,-15.455614,-0.109513,0.346490,-1.407006,0.139709,-0.489679,-0.566866,-0.647580,101.565444,-52.429554,142.139595
32190,NaN,-4.595965,4.282719,-2.940345,3.980393,-5.640100,-10.487249,-0.088708,0.269443,-1.767540,0.134499,-0.483851,-0.570718,-0.649676,101.073655,-51.463826,142.701396
32191,NaN,-1.374068,5.392826,-2.641637,3.322561,-4.496544,-7.226266,-0.405415,0.321615,-2.121286,0.127541,-0.477032,-0.574283,-0.652973,100.347559,-50.306004,143.339712
32192,NaN,-1.208117,4.173814,-2.200921,2.522813,-3.658191,-7.818622,-0.721221,0.105203,-2.663819,0.117385,-0.469466,-0.578183,-0.656907,99.561282,-48.810071,143.831837
32193,NaN,-2.175607,2.940250,-2.178581,2.148372,-3.631048,-9.244027,-0.368459,-0.292440,-3.172681,0.105243,-0.461445,-0.584518,-0.659038,99.211103,-46.991546,144.021212
32194,NaN,-2.591099,4.118139,-1.531681,3.464236,-3.568096,-8.679553,0.070598,-0.649377,-3.484682,0.091980,-0.453303,-0.593063,-0.659039,99.304929,-44.958028,143.949228
32195,NaN,-2.122041,5.572622,-1.209060,4.253586,-3.460628,-7.177247,-0.019101,-0.809390,-3.737967,0.077206,-0.444848,-0.601735,-0.658835,99.404698,-42.771710,143.791625
32196,NaN,-1.938207,5.792965,-1.410493,4.085729,-3.553394,-6.653679,-0.238591,-0.833137,-3.992055,0.060971,-0.435593,-0.610046,-0.659079,99.360244,-40.433978,143.655089
32197,NaN,-1.650523,5.538315,-1.892446,3.388790,-3.704229,-6.382301,-0.267560,-0.838540,-4.275341,0.043731,-0.425331,-0.618585,-0.659192,99.275003,-37.941201,143.549708
32198,NaN,-1.469041,5.783827,-1.955664,3.240284,-3.641778,-5.854596,-0.165448,-0.933378,-4.516039,0.025564,-0.414374,-0.627703,-0.658506,99.267223,-35.297988,143.406499
32199,NaN,-1.382760,6.235985,-2.035949,3.222573,-3.649019,-5.204474,-0.045489,-1.092167,-4.708600,0.006535,-0.403116,-0.637263,-0.656773,99.367003,-32.536717,143.183685
32200,NaN,-0.864523,6.899098,-2.417976,2.810386,-3.680305,-4.091052,0.066742,-1.287310,-4.904705,-0.013574,-0.391595,-0.647223,-0.653890,99.569214,-29.639990,142.869286
32201,NaN,-0.348290,7.699115,-2.870918,2.340339,-3.711508,-2.857734,0.132045,-1.448321,-5.143136,-0.034810,-0.379595,-0.657392,-0.650024,99.820580,-26.597773,142.499785
32202,NaN,0.049934,8.456189,-3.247305,1.877387,-3.640238,-1.734485,0.261085,-1.575879,-5.371922,-0.056975,-0.366967,-0.667919,-0.644960,100.139614,-23.406357,142.102765
32203,NaN,0.511488,9.588844,-3.212593,1.657061,-3.126564,-0.327021,0.452759,-1.668698,-5.585463,-0.079702,-0.353708,-0.678862,-0.638502,100.548282,-20.088655,141.704302
32204,NaN,0.883247,11.052588,-3.049960,1.583384,-2.444372,1.310229,0.599345,-1.764892,-5.790860,-0.103118,-0.339774,-0.690011,-0.630718,101.018351,-16.636394,141.307510
32205,NaN,1.314999,12.858002,-3.193934,1.265552,-1.814631,3.313871,0.713537,-1.835104,-5.933706,-0.126898,-0.325333,-0.701053,-0.621755,101.527267,-13.098816,140.923905
32206,NaN,1.930581,14.974543,-2.979763,0.938119,-0.584914,5.534683,0.754990,-1.869449,-6.027942,-0.150935,-0.310342,-0.711674,-0.611904,102.030894,-9.495314,140.569487
32207,NaN,2.990292,17.097756,-2.585517,0.187274,1.267960,7.686216,0.623065,-1.899112,-6.152390,-0.175470,-0.294611,-0.721315,-0.601764,102.432651,-5.821804,140.245796
32208,NaN,5.662069,17.984352,-2.080544,-2.188148,4.266654,8.536804,0.254955,-2.004500,-6.327762,-0.201303,-0.277894,-0.729251,-0.591984,102.603413,-2.029723,139.905568
32209,NaN,9.513403,17.871002,-3.295286,-6.793009,6.640907,8.362402,-0.050908,-1.973467,-6.410649,-0.227431,-0.260197,-0.735604,-0.582631,102.576335,1.799424,139.598406
32210,NaN,13.611236,19.092194,-4.615050,-11.514521,9.362391,8.912612,0.090096,-1.487342,-6.325291,-0.251127,-0.241245,-0.742016,-0.572842,102.626281,5.525544,139.553159
32211,NaN,16.592972,22.162989,-6.149691,-15.504041,11.651635,10.874578,0.129667,-0.759368,-6.044370,-0.270987,-0.221090,-0.748373,-0.563580,102.744363,8.997702,139.887513
32212,NaN,18.319216,23.207527,-7.835538,-18.925912,12.417707,10.752765,-0.482668,-0.038180,-5.774197,-0.287854,-0.198864,-0.753028,-0.557263,102.600288,12.232827,140.599828
32213,NaN,19.547995,19.480191,-9.589471,-21.905389,11.035484,6.053613,-0.965243,0.546034,-5.285981,-0.301388,-0.176022,-0.756098,-0.553622,102.280721,15.120975,141.581206
32214,NaN,21.592986,17.167318,-9.686649,-24.090572,11.388646,2.213393,-0.358371,0.930782,-4.364641,-0.310218,-0.156386,-0.760157,-0.549062,102.384020,17.451519,142.675994
32215,NaN,23.247512,16.645568,-5.938819,-23.401919,14.763808,-0.480411,-0.065991,1.105309,-3.415888,-0.315405,-0.140283,-0.764232,-0.544784,102.692008,19.222540,143.770282
32216,NaN,25.392591,13.570317,-3.168714,-23.276483,16.643299,-5.325510,-0.027463,1.206776,-2.496256,-0.317603,-0.127431,-0.767735,-0.541731,103.034798,20.463040,144.820989
32217,NaN,26.906019,11.912782,0.045193,-22.478727,18.946100,-8.557402,0.348888,1.266116,-1.630066,-0.316928,-0.118333,-0.771680,-0.538575,103.584997,21.202940,145.801732
32218,NaN,26.635320,11.894048,1.165892,-21.808563,19.389589,-8.982152,0.442469,1.189367,-0.588415,-0.313667,-0.113596,-0.775082,-0.536616,104.127897,21.365779,146.593910
32219,NaN,23.680476,15.575744,0.310026,-20.725687,18.542532,-4.328137,0.607189,0.892277,0.767304,-0.307809,-0.115167,-0.777651,-0.535956,104.624478,20.811074,147.003012
32220,NaN,22.088680,15.024743,3.832889,-17.246637,20.121245,-4.712795,-0.354828,0.448129,1.910486,-0.301142,-0.120888,-0.776246,-0.540502,104.411676,19.684466,146.970830
32221,NaN,17.297594,10.316712,0.023854,-14.993047,12.888824,-5.978016,-0.501735,-0.137540,2.656178,-0.294783,-0.130844,-0.773000,-0.546309,103.969781,18.226424,146.490970
32222,NaN,-14.295901,13.761197,-12.371194,2.435722,-12.083340,10.057543,0.573895,-0.545691,3.189609,-0.287764,-0.145540,-0.771565,-0.548359,104.065236,16.525402,145.704696
32223,NaN,-49.025460,14.243312,-15.165072,28.660387,-33.129874,20.473315,0.301435,0.530081,2.083581,-0.279780,-0.152592,-0.771586,-0.550540,104.238937,15.291654,145.702882
32224,NaN,1.325508,11.560414,-5.755904,-5.392056,0.326658,1.991921,-0.461908,0.269173,-0.761046,-0.281143,-0.148244,-0.771272,-0.551472,104.045929,15.674401,145.974168
32225,NaN,26.666695,17.457362,-7.105246,-26.752323,15.024534,1.361558,1.765477,0.827408,2.420514,-0.269945,-0.157802,-0.775410,-0.548605,105.087210,14.211027,146.083519
32226,NaN,17.086176,33.705114,5.810607,-11.326039,25.430657,16.389119,3.033438,2.029360,4.204258,-0.248049,-0.172615,-0.782847,-0.543900,106.930329,11.571941,146.544018
32227,NaN,1.740178,34.952740,7.870110,3.357193,18.692503,20.615381,-1.660889,1.205655,3.076745,-0.236364,-0.179331,-0.777030,-0.555154,106.009797,9.683859,146.704989
32228,NaN,-4.384119,6.032790,1.045588,4.280076,0.192615,-3.620630,-4.895326,-0.372174,2.604306,-0.234826,-0.184612,-0.760377,-0.576717,103.113407,8.289522,146.121778
32229,NaN,-6.566321,-16.664272,-6.397577,1.447628,-12.992814,-23.626335,-1.059081,-1.034183,2.017984,-0.233906,-0.194049,-0.754181,-0.582103,102.393478,7.290596,145.276512
32230,NaN,3.016748,2.670722,-0.870921,-2.859691,1.722049,-7.394626,3.030532,-1.101779,1.756843,-0.229915,-0.207376,-0.759891,-0.571576,104.029081,6.451301,144.431423
32231,NaN,6.350303,16.047189,0.413854,-3.833175,8.232150,4.868297,1.628558,-1.176916,1.745891,-0.227696,-0.219267,-0.761309,-0.566114,104.867563,5.648959,143.519407
32232,NaN,3.073237,13.811896,-3.060402,-3.110402,3.072508,3.987987,0.176016,-1.085079,2.040550,-0.225788,-0.230276,-0.758295,-0.566552,104.888050,4.674903,142.620249
32233,NaN,4.088783,11.074146,-3.547545,-4.254644,2.556693,1.469943,0.200402,-0.549424,1.827485,-0.222461,-0.239017,-0.756097,-0.567185,104.961806,3.742363,142.040453
32234,NaN,5.352594,11.602273,-3.045381,-4.722384,3.774227,1.848740,0.185092,0.069717,1.380604,-0.218000,-0.244224,-0.755043,-0.568102,105.059327,2.964126,141.879436
32235,NaN,4.660789,8.922555,-4.934092,-5.548446,1.209291,-0.146709,-0.386219,0.615101,0.910793,-0.213566,-0.245531,-0.753486,-0.571282,104.848899,2.367153,142.081097
32236,NaN,2.553615,5.725382,-5.991172,-4.871841,-1.705692,-2.844903,-0.112248,1.068180,0.545693,-0.208060,-0.244398,-0.753634,-0.573600,104.805012,1.904225,142.598651
32237,NaN,0.430044,7.664283,-4.726109,-2.107118,-1.656267,-1.205816,0.405071,1.318452,0.454230,-0.201295,-0.242784,-0.755587,-0.574129,105.057903,1.456250,143.257398
32238,NaN,-0.459749,10.313823,-2.559283,0.320784,0.047751,0.818888,0.366349,1.214760,0.446441,-0.194918,-0.241333,-0.757315,-0.574665,105.282418,1.023187,143.867904
32239,NaN,-0.263866,10.924423,-1.696801,0.817070,0.952164,1.174452,0.128714,0.925023,0.420440,-0.190056,-0.240430,-0.758064,-0.575683,105.364115,0.648964,144.311050
32240,NaN,-0.711497,10.663718,-1.266751,1.438486,0.944398,0.811079,0.010603,0.584041,0.419551,-0.186564,-0.240334,-0.758153,-0.576747,105.373900,0.324530,144.575561
32241,NaN,-0.846996,10.152099,-1.614866,1.317615,0.451176,0.407413,-0.072084,0.269663,0.411474,-0.184448,-0.241088,-0.757695,-0.577714,105.334353,0.054449,144.657728
32242,NaN,-0.255190,9.386862,-2.694033,0.146160,-0.253633,-0.047940,-0.134665,0.063461,0.400779,-0.183155,-0.242284,-0.756893,-0.578676,105.258707,-0.180501,144.637777
32243,NaN,0.517634,8.820012,-3.722267,-1.120827,-0.766398,-0.322055,-0.084931,0.033620,0.376756,-0.182047,-0.243575,-0.756215,-0.579369,105.211741,-0.395678,144.595241
32244,NaN,0.743441,8.984810,-4.043886,-1.430441,-0.879886,-0.075540,-0.017497,0.165159,0.358533,-0.180348,-0.244421,-0.755890,-0.579968,105.202933,-0.622542,144.638233
32245,NaN,0.611412,9.467814,-3.622672,-0.977269,-0.550398,0.280821,-0.015089,0.314923,0.372317,-0.178103,-0.244941,-0.755669,-0.580731,105.194281,-0.877547,144.752049
32246,NaN,0.136858,9.485390,-3.385547,-0.418642,-0.666044,0.228936,-0.083926,0.447660,0.368946,-0.175386,-0.244944,-0.755382,-0.581928,105.144424,-1.152464,144.949877
32247,NaN,-0.655364,9.607279,-2.974054,0.516254,-0.803345,0.220367,-0.029937,0.468885,0.409688,-0.172465,-0.245140,-0.755196,-0.582958,105.124353,-1.451043,145.143582
32248,NaN,-0.815602,9.717044,-2.922597,0.739707,-0.864525,0.303284,-0.038789,0.409689,0.465335,-0.169552,-0.245653,-0.754877,-0.584010,105.099398,-1.773336,145.306315
32249,NaN,-0.611664,9.339978,-2.830395,0.604243,-0.783420,-0.084311,-0.024567,0.357501,0.524723,-0.166707,-0.246608,-0.754456,-0.584970,105.082893,-2.118790,145.421484
32250,NaN,-0.165167,9.309478,-2.495340,0.463056,-0.301438,-0.189030,0.025740,0.331565,0.570635,-0.163698,-0.247795,-0.754114,-0.585757,105.095434,-2.487521,145.525436
32251,NaN,-0.704773,9.582583,-3.165197,0.658177,-1.124840,0.219367,0.103093,0.320689,0.687305,-0.160354,-0.249571,-0.753818,-0.586311,105.152669,-2.917463,145.595754
32252,NaN,-0.826559,9.676546,-2.679477,1.106587,-0.822602,0.167120,0.061953,0.243820,0.784567,-0.157000,-0.251844,-0.753225,-0.587008,105.189036,-3.391382,145.618528
32253,NaN,-0.924789,9.627128,-2.922380,1.121299,-1.124257,0.165051,0.075621,0.119447,0.846978,-0.153974,-0.254781,-0.752463,-0.587519,105.238022,-3.879455,145.552694
32254,NaN,-0.418388,9.426837,-3.095330,0.647991,-1.060987,0.039981,0.012544,0.083719,0.960445,-0.150765,-0.258138,-0.751348,-0.588312,105.254258,-4.426377,145.459557
32255,NaN,-0.317459,9.691041,-2.499093,1.021266,-0.530085,0.134050,0.079739,0.123837,1.067349,-0.147061,-0.261880,-0.750283,-0.588954,105.309468,-5.036835,145.362089
32256,NaN,0.290549,9.845497,-2.287808,0.763796,-0.047264,0.270246,0.040629,0.184468,1.132658,-0.142923,-0.265594,-0.749060,-0.589866,105.341289,-5.693937,145.297736
32257,NaN,0.905774,10.418202,-1.745710,0.783991,0.768681,0.732449,0.103703,0.325812,1.201278,-0.138025,-0.269242,-0.747985,-0.590742,105.402917,-6.408907,145.290841
32258,NaN,1.151320,11.184000,-1.168999,1.191635,1.424307,1.337355,0.112814,0.435399,1.282351,-0.132399,-0.272806,-0.746893,-0.591776,105.464283,-7.186743,145.341630
32259,NaN,1.286054,11.522633,-0.913852,1.433912,1.675112,1.606408,0.043824,0.515025,1.391605,-0.126301,-0.276540,-0.745441,-0.593205,105.481885,-8.035719,145.409500
32260,NaN,0.996069,11.285415,-0.992954,1.708443,1.316534,1.353515,-0.019217,0.608057,1.501726,-0.119548,-0.280295,-0.743685,-0.595043,105.457121,-8.961055,145.522477
32261,NaN,0.220671,11.019628,-0.903775,2.456963,0.817485,0.938595,-0.017101,0.650686,1.572180,-0.112476,-0.284224,-0.741789,-0.596921,105.429658,-9.930421,145.639142
32262,NaN,-0.273938,10.713958,-1.222011,2.757198,0.134692,0.614870,-0.108787,0.624427,1.701307,-0.105177,-0.288579,-0.739386,-0.599140,105.353613,-10.968271,145.732337
32263,NaN,-0.809831,10.315439,-2.329967,2.667149,-1.239454,0.377481,-0.135267,0.533653,1.826669,-0.097928,-0.293689,-0.736589,-0.601327,105.274722,-12.060298,145.746712
32264,NaN,-1.050706,10.874928,-3.471148,2.634748,-2.379753,1.087204,-0.015978,0.488461,1.889464,-0.090412,-0.299138,-0.733990,-0.602993,105.271285,-13.181310,145.736658
32265,NaN,-0.999202,12.030966,-3.835729,2.989332,-2.668711,2.203619,0.146132,0.477517,1.994058,-0.082429,-0.305106,-0.731622,-0.604023,105.366881,-14.357341,145.693038
32266,NaN,-1.482611,14.545769,-3.753425,4.529110,-2.782754,4.315323,0.256693,0.380208,2.071275,-0.074332,-0.311603,-0.729375,-0.604475,105.544899,-15.561971,145.588474
32267,NaN,-0.443736,14.796994,-3.008119,4.420171,-1.744095,4.526318,-0.100407,0.349006,2.252593,-0.066408,-0.318745,-0.725642,-0.606165,105.534651,-16.860820,145.424433
32268,NaN,0.064599,13.882189,-2.713595,4.076086,-1.473543,3.651610,-0.060401,0.441367,2.384384,-0.057618,-0.325994,-0.721775,-0.607823,105.541467,-18.247287,145.301558
32269,NaN,-0.627045,14.325869,-2.503768,5.168365,-1.850271,3.668607,-0.065131,0.545283,2.524358,-0.048084,-0.333440,-0.717557,-0.609605,105.536899,-19.726282,145.205457
32270,NaN,-1.396788,14.169762,-2.787130,5.850052,-2.718707,3.182441,-0.064668,0.615358,2.698570,-0.037702,-0.341176,-0.712965,-0.611439,105.530615,-21.312682,145.131408
32271,NaN,-1.805648,14.232564,-2.507527,6.621738,-2.914678,2.826759,0.011765,0.650158,2.898829,-0.026501,-0.349526,-0.708098,-0.612966,105.575861,-23.014466,145.033282
32272,NaN,-2.389146,14.486987,-2.682370,7.417708,-3.585663,2.632315,0.108207,0.640243,3.086443,-0.014531,-0.358439,-0.703060,-0.614017,105.695761,-24.818286,144.903618
32273,NaN,-2.844050,15.313268,-2.886460,8.409190,-4.225955,2.927802,0.221128,0.660199,3.257661,-0.001814,-0.367867,-0.697850,-0.614554,105.895651,-26.719068,144.738718
32274,NaN,-4.125933,16.462410,-3.348271,10.100585,-5.537710,3.091810,0.285284,0.743131,3.438781,0.011919,-0.377503,-0.692330,-0.614840,106.133201,-28.731944,144.592171
32275,NaN,-6.696121,18.282337,-4.282642,12.913220,-7.950432,3.126192,0.457062,0.852816,3.672334,0.027019,-0.387536,-0.686627,-0.614516,106.468810,-30.890357,144.446931
32276,NaN,-9.107973,20.981155,-2.823553,17.228226,-8.256510,3.074522,0.584393,1.070479,3.929295,0.043939,-0.397548,-0.680554,-0.613899,106.843700,-33.224016,144.383850
32277,NaN,-9.636006,21.808041,-0.643168,19.477553,-6.885933,2.103109,0.264871,1.492691,3.977437,0.061741,-0.406389,-0.672978,-0.614928,106.892210,-35.654750,144.569041
32278,NaN,-10.733209,21.065245,-0.955470,20.022918,-7.788474,0.097087,0.103411,1.959864,3.904658,0.080577,-0.413342,-0.664636,-0.617182,106.632919,-38.120978,145.111449
32279,NaN,-9.253601,19.376498,-0.291174,18.583873,-6.478437,-1.223299,0.068631,2.005695,3.626560,0.098556,-0.419124,-0.656403,-0.619481,106.256929,-40.440943,145.769636
32280,NaN,-2.185479,18.133401,-1.309789,13.217790,-4.387890,2.075035,-0.209624,1.368017,3.218803,0.112599,-0.425457,-0.648278,-0.621324,105.927764,-42.429645,146.097012
32281,NaN,7.168226,17.728170,-1.704121,7.451042,-1.216276,7.837638,-0.979854,0.823311,3.570408,0.124254,-0.434982,-0.637060,-0.624104,105.466154,-44.528465,145.954053
32282,NaN,12.841174,18.315395,-4.207880,4.128581,-1.889948,12.488891,-1.358805,0.415801,4.190099,0.135705,-0.447735,-0.623341,-0.626549,105.105748,-46.906256,145.381297
32283,NaN,12.698123,16.313558,-7.925144,1.941197,-5.522218,11.538244,-1.395588,-0.237608,4.267872,0.145177,-0.462648,-0.609420,-0.627286,105.169769,-49.233092,144.222519
32284,NaN,7.458004,12.886467,-7.356542,2.886359,-6.696245,5.107306,-1.009231,-0.467826,4.027255,0.154054,-0.476985,-0.597198,-0.626184,105.647151,-51.385550,142.862136
32285,NaN,-2.902029,12.640961,-2.159905,10.242368,-6.157641,-4.331942,-0.435744,-0.766144,3.802911,0.162606,-0.491017,-0.587242,-0.622582,106.739967,-53.357539,141.169188
32286,NaN,-14.720878,7.121436,-5.553587,9.885628,-12.374658,-16.696564,-1.973548,-0.877933,1.549050,0.160029,-0.499827,-0.578013,-0.624872,106.618278,-54.062062,139.928498
32287,NaN,-11.833380,1.140063,-3.609379,4.539233,-8.007633,-18.156976,-1.872341,-0.836157,0.358824,0.154049,-0.504981,-0.571905,-0.627844,106.268091,-54.125378,139.038220
32288,NaN,-5.938411,0.708396,-4.736094,0.976565,-6.639915,-13.439619,-1.318831,-0.634080,-0.529029,0.147277,-0.506427,-0.569629,-0.630368,105.882532,-53.731822,138.591608
32289,NaN,-6.363330,2.248780,-4.578834,2.389396,-7.157417,-12.907325,-0.437954,0.051722,-0.778868,0.143863,-0.504397,-0.570177,-0.632286,105.437534,-53.311932,138.834802
32290,NaN,-7.135756,2.979709,-2.324270,4.400081,-5.732220,-13.415475,-0.149163,0.508826,-1.274114,0.140941,-0.499219,-0.572598,-0.634861,104.732669,-52.681132,139.621795
32291,NaN,-4.514719,5.186669,-3.441133,4.371052,-6.325988,-9.788099,-0.103784,0.701752,-1.654780,0.137437,-0.492340,-0.575881,-0.638023,103.873939,-51.863619,140.634172
32292,NaN,-1.756755,6.348429,-4.133184,3.588663,-6.175592,-6.737811,-0.614975,1.042968,-2.030122,0.132475,-0.483523,-0.578218,-0.643676,102.468164,-50.865234,141.994248
32293,NaN,-1.228356,4.589500,-3.170914,2.441339,-4.603106,-7.472244,-1.076921,1.036305,-2.496469,0.124823,-0.473668,-0.580041,-0.650854,100.812303,-49.586119,143.347659
32294,NaN,-1.976567,2.679786,-2.045872,1.967284,-3.340846,-9.321123,-0.730106,0.609092,-3.033574,0.115007,-0.463250,-0.584454,-0.656191,99.655920,-47.935741,144.340892
32295,NaN,-2.556940,3.369336,-1.026233,3.234768,-2.865868,-9.298059,-0.272295,0.096514,-3.494048,0.103181,-0.452844,-0.591508,-0.659093,99.098182,-45.971817,144.892519
32296,NaN,-2.117959,4.686962,-1.105147,3.797380,-3.100319,-7.904971,-0.262874,-0.289791,-3.793159,0.089245,-0.442600,-0.599328,-0.661020,98.780142,-43.797211,145.141820
32297,NaN,-1.525438,5.488496,-1.781901,3.552080,-3.611337,-6.656439,-0.387468,-0.469490,-4.069947,0.073514,-0.432071,-0.607137,-0.662793,98.486017,-41.453676,145.250440
32298,NaN,-1.070574,5.990697,-2.597881,3.047873,-4.182160,-5.689917,-0.472076,-0.549101,-4.296483,0.056606,-0.420883,-0.614965,-0.664433,98.182019,-38.970391,145.314640
32299,NaN,-1.086491,6.112189,-2.439072,3.032510,-3.994668,-5.416363,-0.451545,-0.688725,-4.471179,0.038673,-0.409480,-0.622909,-0.665443,97.952034,-36.380940,145.269997
32300,NaN,-1.656655,6.192780,-2.512541,3.232713,-4.240761,-5.457814,-0.311161,-0.990057,-4.599557,0.019671,-0.398358,-0.631359,-0.665064,97.917071,-33.690419,145.033096
32301,NaN,-1.530587,6.570867,-3.066075,2.860817,-4.614519,-4.769779,-0.164780,-1.300261,-4.758642,-0.000589,-0.387593,-0.640223,-0.663239,98.053642,-30.889222,144.603575
32302,NaN,-0.549301,6.990594,-3.723412,1.795470,-4.597498,-3.594980,0.009744,-1.436083,-4.947037,-0.021541,-0.376352,-0.649672,-0.660168,98.295290,-27.964305,144.136484
32303,NaN,0.123056,7.921069,-3.412859,1.609046,-3.905928,-2.293174,0.256396,-1.425338,-5.198827,-0.042838,-0.364100,-0.659909,-0.655833,98.629462,-24.900175,143.719353
32304,NaN,0.618826,9.297415,-2.866452,1.768941,-3.055531,-0.726933,0.405744,-1.455212,-5.423909,-0.064641,-0.350877,-0.670582,-0.650405,99.015019,-21.698978,143.346724
32305,NaN,0.865431,10.376629,-2.764310,1.642644,-2.562178,0.520237,0.478819,-1.589958,-5.550039,-0.087151,-0.337488,-0.681077,-0.643926,99.434670,-18.416403,142.927764
32306,NaN,1.230455,11.232666,-3.426708,0.825678,-2.503089,1.695599,0.579782,-1.764596,-5.665380,-0.110413,-0.323997,-0.691441,-0.636195,99.905558,-15.044109,142.452076
32307,NaN,1.765694,12.419734,-3.868979,0.003507,-2.043015,3.152980,0.747192,-1.917977,-5.777276,-0.134157,-0.310427,-0.701788,-0.627001,100.453883,-11.594062,141.937495
32308,NaN,2.609163,14.356051,-4.002708,-0.802121,-0.954054,5.263653,0.979076,-2.017967,-5.901250,-0.158182,-0.296566,-0.712319,-0.616140,101.104548,-8.053658,141.422358
32309,NaN,4.220019,16.909946,-3.268084,-1.722640,1.573238,7.762350,0.990460,-2.127551,-6.098808,-0.182994,-0.282067,-0.722345,-0.604292,101.729059,-4.389263,140.911990
32310,NaN,7.222651,18.194580,-3.664338,-4.847839,4.187098,9.040937,0.539417,-2.177298,-6.249503,-0.208909,-0.266432,-0.730401,-0.593200,102.061078,-0.625675,140.424705
32311,NaN,11.830230,17.647464,-5.712662,-10.621324,6.344009,8.374981,-0.031880,-1.761886,-6.283502,-0.233913,-0.248579,-0.736441,-0.584079,102.039098,3.103853,140.184759
32312,NaN,15.777871,17.672038,-7.134574,-15.425311,8.527166,7.545353,-0.003889,-0.865771,-6.149926,-0.254982,-0.228360,-0.742705,-0.575522,102.059412,6.655601,140.431810
32313,NaN,18.638799,19.889613,-8.262815,-19.126832,10.557943,8.456385,0.155500,0.200672,-5.911718,-0.270964,-0.205972,-0.749826,-0.567376,102.269917,9.940471,141.262246
32314,NaN,20.328710,20.944749,-8.341306,-21.419820,12.112286,7.957756,-0.144118,1.165003,-5.585420,-0.282505,-0.181474,-0.756441,-0.561298,102.458747,12.924956,142.622130
32315,NaN,19.652178,18.581655,-8.071285,-21.515666,11.166643,4.639322,-0.412379,1.721622,-5.015118,-0.290350,-0.157072,-0.761992,-0.557130,102.625009,15.513773,144.254563
32316,NaN,19.005564,19.482279,-7.993369,-21.732496,11.025240,4.703660,0.402946,1.743214,-3.985808,-0.294447,-0.137609,-0.768592,-0.551028,103.297263,17.515588,145.799647
32317,NaN,19.704278,16.423230,-2.913168,-19.405390,14.044652,-0.190560,-0.319942,1.403959,-3.145090,-0.297902,-0.121206,-0.771821,-0.548504,103.510909,19.080117,147.059195
32318,NaN,25.000882,11.597408,-2.604715,-23.126747,14.951949,-7.004446,-0.059461,1.133017,-2.145144,-0.299441,-0.109759,-0.774587,-0.546171,103.805505,20.120280,148.032515
32319,NaN,28.486175,12.225429,0.559630,-24.395627,19.101771,-8.718805,0.790421,1.315528,-1.046839,-0.296768,-0.103332,-0.779251,-0.542235,104.583287,20.515028,148.963906
32320,NaN,25.750754,15.260696,4.298277,-20.731380,21.680268,-5.986948,0.661430,1.327156,0.176874,-0.290775,-0.101445,-0.782898,-0.540582,105.225894,20.219353,149.715474
32321,NaN,21.724185,14.626928,5.248838,-16.935016,20.132070,-5.194151,-0.059614,0.899999,1.278959,-0.283827,-0.103971,-0.783368,-0.543109,105.301269,19.374824,150.034486
32322,NaN,18.419868,14.511365,2.579502,-15.628894,16.344331,-3.097090,-0.037996,0.223992,2.401286,-0.276428,-0.112756,-0.782273,-0.546739,105.199158,18.010333,149.778581
32323,NaN,-0.233971,17.569068,-8.169279,-6.303979,-0.085746,8.509099,0.345461,-0.397542,3.503842,-0.268177,-0.128048,-0.780564,-0.549913,105.168256,16.130649,148.994025
32324,NaN,-41.673417,18.544990,-18.045204,22.763985,-28.509851,22.975196,-0.024968,0.089228,3.048800,-0.259379,-0.139637,-0.778579,-0.554111,105.043531,14.426905,148.578780
32325,NaN,-16.029727,16.331760,3.138338,13.881252,0.002543,8.649094,0.209791,-0.491723,0.405953,-0.260030,-0.142893,-0.778230,-0.553466,105.079029,14.273661,148.231041
32326,NaN,37.273451,23.570694,2.492244,-30.375288,29.479947,2.805313,1.041748,-1.666179,2.445781,-0.258971,-0.158403,-0.777099,-0.551326,105.361910,13.169238,146.899685
32327,NaN,24.486267,32.663472,-1.830325,-21.395762,22.827034,16.465131,2.105267,-0.350010,5.349760,-0.243820,-0.182853,-0.777883,-0.549558,106.355137,10.273696,145.842849
32328,NaN,-1.961773,20.732159,8.501531,7.015302,11.846381,7.972665,-2.854178,0.955069,4.031255,-0.231505,-0.192357,-0.767283,-0.566288,104.705788,7.897430,145.756028
32329,NaN,-7.246881,-5.202630,-3.136696,3.952090,-7.887058,-13.216048,-4.688007,-0.518011,2.800244,-0.229993,-0.199108,-0.750424,-0.586790,101.937911,6.402708,145.088077
32330,NaN,1.069215,-13.457078,-8.291817,-6.154574,-8.959213,-21.338205,-0.362660,-0.730968,1.592430,-0.228357,-0.206791,-0.746913,-0.589246,101.668316,5.590777,144.493881
32331,NaN,3.568311,3.660949,-6.340292,-6.396505,-2.031973,-5.199374,3.499733,-0.479040,1.334752,-0.222561,-0.217187,-0.755158,-0.577090,103.634664,4.902702,144.052446
32332,NaN,2.780215,17.767578,-1.265577,-1.448926,5.018911,7.441301,2.738393,-0.632076,1.723072,-0.216963,-0.228588,-0.760374,-0.567896,105.158512,4.032195,143.450040
32333,NaN,4.233164,18.142503,1.070254,-0.762148,7.796147,7.123753,0.151935,-0.413786,1.979108,-0.212739,-0.237481,-0.758050,-0.568951,105.214477,2.998107,142.918801
32334,NaN,5.813913,13.052846,-2.250794,-4.375818,4.800389,3.111956,-1.057647,0.185854,1.691379,-0.208458,-0.242280,-0.753183,-0.574944,104.603425,2.029811,142.767836
32335,NaN,5.981750,6.400712,-5.555606,-7.241463,0.709104,-2.418664,-1.105591,0.703828,1.038065,-0.204163,-0.243046,-0.749449,-0.581010,103.978515,1.351999,143.007541
32336,NaN,3.244889,3.581299,-5.494404,-5.346138,-1.581428,-5.073410,0.074050,1.091565,0.494733,-0.198530,-0.241856,-0.750154,-0.582546,104.033142,0.920869,143.541505
32337,NaN,0.008269,8.145882,-3.552805,-0.938001,-1.082400,-1.041980,0.991526,1.324255,0.359910,-0.191315,-0.240365,-0.753890,-0.580753,104.611352,0.531462,144.221338
32338,NaN,-0.967830,12.322576,-1.460192,1.737527,0.893162,2.479462,0.658654,1.030227,0.415663,-0.185417,-0.239621,-0.756264,-0.579885,104.993405,0.145721,144.726797
32339,NaN,0.315749,12.706731,-0.591441,1.319163,2.403905,2.612734,0.142669,0.527704,0.544289,-0.181678,-0.240320,-0.756505,-0.580466,105.076469,-0.235743,144.933511
32340,NaN,0.070954,11.446553,-0.852820,1.237062,1.745658,1.464627,-0.254785,0.158668,0.575302,-0.179702,-0.241857,-0.755205,-0.582132,104.932053,-0.582239,144.931587
32341,NaN,0.210559,9.339125,-2.328617,0.008293,0.168849,-0.186824,-0.284382,-0.066300,0.499017,-0.178850,-0.243719,-0.753707,-0.583558,104.772027,-0.850732,144.817190
32342,NaN,1.001781,8.724492,-3.962885,-1.617252,-0.827964,-0.350993,-0.045267,-0.093784,0.414125,-0.178039,-0.245566,-0.752976,-0.583975,104.749556,-1.071008,144.700369
32343,NaN,1.802753,9.256935,-4.655050,-2.538661,-0.827537,0.359850,0.057357,0.134457,0.346643,-0.176456,-0.246570,-0.752831,-0.584219,104.783501,-1.284568,144.719864
32344,NaN,2.198858,9.652378,-4.256947,-2.540836,-0.234519,0.656978,-0.022982,0.526504,0.294371,-0.173631,-0.246173,-0.752854,-0.585203,104.765921,-1.529089,144.964225
32345,NaN,1.145189,9.511229,-3.643401,-1.331815,-0.422905,0.340954,-0.157090,0.793584,0.259943,-0.170082,-0.244732,-0.752752,-0.586978,104.665877,-1.790520,145.361954
32346,NaN,0.089976,9.185306,-3.517720,-0.416685,-1.030213,-0.039403,-0.135678,0.900386,0.237692,-0.166148,-0.242920,-0.752812,-0.588777,104.574285,-2.057021,145.822632
32347,NaN,-0.726193,9.589570,-3.311204,0.479355,-1.282332,0.265847,-0.054484,0.839184,0.299648,-0.162179,-0.241570,-0.752974,-0.590231,104.528486,-2.345894,146.240824
32348,NaN,-1.156065,9.725654,-3.200601,0.963422,-1.442185,0.344099,-0.164628,0.663111,0.373998,-0.158765,-0.240940,-0.752561,-0.591941,104.422249,-2.652766,146.551049
32349,NaN,-0.905284,9.079393,-2.988194,0.790960,-1.292496,-0.331771,-0.245084,0.528920,0.416449,-0.155843,-0.240786,-0.751745,-0.593813,104.272027,-2.960931,146.781429
32350,NaN,-0.426593,8.924195,-2.169717,0.825733,-0.427661,-0.665776,-0.079083,0.457020,0.435826,-0.152864,-0.240992,-0.751352,-0.595001,104.218101,-3.271698,146.979689
32351,NaN,0.084728,10.015492,-1.070049,1.206294,0.915500,0.145662,0.048271,0.435320,0.515125,-0.149644,-0.241708,-0.751200,-0.595720,104.237313,-3.621005,147.144854
32352,NaN,-0.226081,10.856062,-0.710758,1.860680,1.157295,0.846043,0.005024,0.438215,0.591467,-0.146220,-0.242679,-0.750816,-0.596659,104.231372,-4.015428,147.300871
32353,NaN,-0.715837,10.961082,-0.917342,2.244019,0.694285,0.956762,-0.178709,0.388391,0.690547,-0.142924,-0.244021,-0.749719,-0.598288,104.121982,-4.455451,147.415677
32354,NaN,-1.233274,10.042726,-1.648929,2.187923,-0.406713,0.194464,-0.327689,0.319388,0.852515,-0.139514,-0.246010,-0.747932,-0.600510,103.931180,-4.977798,147.480655
32355,NaN,-1.916107,9.524898,-2.415731,2.334669,-1.565597,-0.203931,-0.274097,0.234919,0.986856,-0.136013,-0.248841,-0.746046,-0.602490,103.776451,-5.560948,147.471560
32356,NaN,-1.928387,9.525104,-2.945548,2.152101,-2.090226,-0.111099,-0.227892,0.099325,1.138766,-0.132433,-0.252617,-0.744013,-0.604228,103.658036,-6.212253,147.377231
32357,NaN,-0.968199,9.558472,-2.929223,1.448304,-1.637521,-0.009535,-0.149995,-0.000488,1.282500,-0.128753,-0.257325,-0.741921,-0.605607,103.594047,-6.928284,147.198332
32358,NaN,0.259576,10.185736,-2.641283,0.814034,-0.734073,0.655828,-0.063524,0.008872,1.380574,-0.124559,-0.262358,-0.739956,-0.606728,103.582928,-7.702148,147.021562
32359,NaN,1.336594,10.300864,-2.243821,0.266532,0.105092,0.810160,-0.123315,0.099626,1.487360,-0.119842,-0.267514,-0.737669,-0.608209,103.534974,-8.545939,146.871414
32360,NaN,1.280273,10.447456,-2.061909,0.573532,0.148529,0.896494,-0.063562,0.258031,1.542927,-0.114219,-0.272359,-0.735562,-0.609691,103.510714,-9.443761,146.813260
32361,NaN,0.588380,10.936944,-1.533449,1.680412,0.171313,1.117023,-0.017371,0.390412,1.586962,-0.107971,-0.277027,-0.733543,-0.611157,103.502104,-10.382089,146.814075
32362,NaN,0.313093,11.098103,-1.192403,2.273830,0.218889,1.117379,-0.076154,0.456290,1.703234,-0.101134,-0.281812,-0.731187,-0.612960,103.455623,-11.395666,146.846922
32363,NaN,-0.493436,10.936234,-1.698669,2.799128,-0.769008,0.878434,-0.106742,0.476142,1.823147,-0.093956,-0.286992,-0.728496,-0.614899,103.392031,-12.477022,146.865848
32364,NaN,-1.560033,11.626824,-2.669045,3.576550,-2.219488,1.457554,-0.007280,0.396489,1.863396,-0.086730,-0.292527,-0.725973,-0.616336,103.396367,-13.571753,146.844395
32365,NaN,-1.180582,12.325571,-3.147610,3.448947,-2.498425,2.232147,0.034863,0.269443,2.009612,-0.079508,-0.299031,-0.723218,-0.617426,103.448447,-14.729536,146.719145
32366,NaN,-0.664850,13.640072,-2.788524,3.874645,-1.980736,3.428365,0.152970,0.181055,2.195386,-0.071784,-0.306437,-0.720456,-0.617970,103.591754,-15.980082,146.524301
32367,NaN,-0.065307,14.858719,-1.969809,4.490941,-1.072245,4.446941,0.079495,0.169996,2.384001,-0.063682,-0.314545,-0.717056,-0.618738,103.708212,-17.332379,146.282104
32368,NaN,0.215874,14.756063,-1.271091,4.859204,-0.531315,4.169352,-0.101677,0.221087,2.560556,-0.055065,-0.322965,-0.712748,-0.620203,103.726038,-18.790683,146.051107
32369,NaN,-0.381940,14.234397,-1.210090,5.445938,-1.025205,3.359494,-0.144987,0.291488,2.701541,-0.045882,-0.331658,-0.707948,-0.621858,103.718821,-20.335942,145.829006
32370,NaN,-1.301292,14.240383,-1.843135,6.155292,-2.267945,3.026060,-0.060283,0.321961,2.862966,-0.035878,-0.340724,-0.703038,-0.623183,103.768741,-21.976139,145.608612
32371,NaN,-2.131250,14.931386,-2.376351,7.152826,-3.388340,3.243866,0.042065,0.327930,3.048825,-0.025153,-0.350426,-0.697949,-0.624048,103.895262,-23.719197,145.348691
32372,NaN,-2.704609,15.428315,-3.019240,7.850631,-4.485407,3.328455,0.062257,0.334895,3.269339,-0.013615,-0.360729,-0.692388,-0.624730,104.055976,-25.585875,145.061300
32373,NaN,-3.477524,15.828874,-3.785397,8.617889,-5.806324,3.186036,0.150586,0.366127,3.457782,-0.001275,-0.371549,-0.686540,-0.624989,104.286813,-27.560028,144.741530
32374,NaN,-5.553305,17.340459,-4.737895,10.832201,-8.023668,3.310738,0.303955,0.356306,3.632917,0.011920,-0.382823,-0.680655,-0.624511,104.639336,-29.628921,144.380212
32375,NaN,-8.646228,19.672018,-5.098369,14.515303,-10.336434,3.231123,0.429659,0.312369,3.953921,0.026147,-0.395239,-0.674273,-0.623265,105.132986,-31.866175,143.899220
32376,NaN,-10.628183,21.739266,-3.450028,18.235570,-10.384119,2.717259,0.415236,0.413449,4.259179,0.041680,-0.408136,-0.666969,-0.621965,105.646657,-34.283639,143.404713
32377,NaN,-11.292497,22.425701,-2.101740,20.127997,-9.900924,1.658491,0.362197,0.923258,4.184857,0.058500,-0.419087,-0.659208,-0.621602,105.961638,-36.736611,143.222360
32378,NaN,-10.921747,22.103732,-1.071321,20.562654,-8.956604,0.477255,0.479932,1.704089,3.758309,0.076835,-0.425915,-0.652220,-0.622336,105.969905,-39.075999,143.667064
32379,NaN,-6.523318,19.929750,0.666517,17.508156,-5.228158,0.496568,0.065972,1.936472,3.416837,0.093907,-0.430960,-0.644279,-0.624788,105.560490,-41.263340,144.362537
32380,NaN,2.940960,15.893977,1.360349,9.614770,-0.126776,3.249956,-0.860594,1.814797,3.369281,0.108444,-0.436432,-0.633399,-0.629740,104.614603,-43.397391,145.045865
32381,NaN,9.905742,14.523951,-1.832391,3.597073,-0.325381,7.488607,-1.198233,1.217502,3.888493,0.121905,-0.445499,-0.620339,-0.633916,103.806382,-45.730308,145.221219
32382,NaN,16.175841,16.611298,-7.760311,-0.342048,-4.152598,14.278166,-0.882400,0.466535,4.336977,0.135140,-0.457867,-0.607494,-0.634859,103.659565,-48.206899,144.741733
32383,NaN,13.194866,16.096868,-8.690185,1.249396,-6.543621,11.734874,-0.694101,-0.299506,4.186334,0.145901,-0.471933,-0.595773,-0.633283,104.133484,-50.496106,143.595066
32384,NaN,4.996890,14.306863,-5.458268,6.004927,-6.679449,3.556886,-0.558286,-0.234496,3.959474,0.156432,-0.484752,-0.584768,-0.631341,104.695673,-52.659030,142.480740
32385,NaN,-9.293596,12.162736,-3.333061,12.256117,-9.755788,-9.781976,-0.901773,-0.866967,3.267840,0.162006,-0.497707,-0.574590,-0.629196,105.493542,-54.339399,140.847422
32386,NaN,-15.932634,4.800744,-7.233074,7.593598,-13.683623,-18.994154,-1.878454,-0.671383,0.896969,0.158252,-0.503857,-0.567015,-0.632122,105.135038,-54.732006,139.977449
32387,NaN,-10.284364,0.304491,-4.856206,2.513755,-8.181404,-17.308584,-1.826628,-0.594356,-0.237064,0.151212,-0.506518,-0.562284,-0.635933,104.510813,-54.515447,139.461271
32388,NaN,-5.837331,0.209778,-6.210385,-0.220369,-7.663819,-13.541573,-1.039367,-0.205154,-0.858844,0.145304,-0.505499,-0.561356,-0.638934,103.912397,-54.007736,139.476283
32389,NaN,-8.127625,0.819727,-4.391356,2.163236,-7.172700,-15.279538,-0.181569,0.248829,-1.093161,0.142054,-0.501793,-0.563349,-0.640829,103.425381,-53.434783,139.953194
32390,NaN,-8.664304,1.937644,-2.425149,4.285990,-6.049841,-15.265565,0.250863,0.362865,-1.563613,0.138725,-0.496001,-0.567860,-0.642085,103.034862,-52.608284,140.633628
32391,NaN,-4.758067,4.935278,-3.815034,4.095802,-6.685603,-10.088494,0.423095,0.440775,-1.984146,0.134653,-0.488666,-0.573803,-0.643292,102.643864,-51.557994,141.438383
32392,NaN,-1.206275,7.330294,-3.289819,4.385128,-5.534530,-5.794132,0.090792,0.633431,-2.370452,0.129090,-0.479698,-0.579478,-0.646089,101.909977,-50.305841,142.462475
32393,NaN,-1.097993,6.505250,-1.909068,4.314207,-3.996465,-6.265627,-0.592281,0.401390,-2.796949,0.119788,-0.470664,-0.583954,-0.650480,100.940432,-48.782712,143.292527
32394,NaN,-2.331199,4.051215,-1.077611,3.565433,-3.022794,-8.737234,-0.459959,-0.102917,-3.207188,0.107990,-0.461815,-0.590050,-0.653380,100.371640,-46.963618,143.716184
32395,NaN,-2.686954,3.903802,-0.151449,4.073888,-2.303489,-9.052907,-0.061288,-0.547182,-3.576863,0.094535,-0.453043,-0.598308,-0.654096,100.281481,-44.893429,143.794841
32396,NaN,-2.417125,4.982371,0.040246,4.688261,-2.281946,-7.947980,-0.018886,-0.828181,-3.910316,0.079238,-0.443937,-0.607433,-0.653962,100.339476,-42.601812,143.707676
32397,NaN,-1.972939,5.848467,-0.340562,4.709933,-2.580507,-6.752509,-0.177360,-0.937024,-4.225145,0.062168,-0.434171,-0.616460,-0.653917,100.325789,-40.126151,143.576864
32398,NaN,-1.385711,6.291384,-0.598490,4.359510,-2.557121,-5.774321,-0.238866,-1.038724,-4.482039,0.043806,-0.423674,-0.625622,-0.653588,100.295212,-37.490471,143.419795
32399,NaN,-1.219278,6.781241,-0.891075,4.217389,-2.725267,-5.012368,-0.244941,-1.207900,-4.696063,0.024153,-0.412898,-0.634849,-0.652609,100.305178,-34.721643,143.167270
32400,NaN,-1.314355,7.184259,-1.714809,3.870452,-3.413606,-4.368731,-0.216270,-1.378017,-4.845014,0.003543,-0.401871,-0.644161,-0.650803,100.368502,-31.846241,142.838924
32401,NaN,-1.005707,7.548112,-2.159015,3.371522,-3.521944,-3.578803,-0.064551,-1.476943,-5.007027,-0.017635,-0.390454,-0.653815,-0.647889,100.518379,-28.873745,142.472258
32402,NaN,-0.198279,8.342803,-2.363639,2.794175,-3.151187,-2.231636,0.076171,-1.463231,-5.265785,-0.039296,-0.377798,-0.664016,-0.644056,100.704386,-25.750889,142.175391
32403,NaN,0.740377,9.305251,-2.337418,2.215145,-2.426110,-0.769376,0.188670,-1.357224,-5.527419,-0.061227,-0.363742,-0.674525,-0.639499,100.892280,-22.496466,141.983933
32404,NaN,1.204831,10.105168,-2.308885,1.799938,-1.842741,0.298199,0.249683,-1.279841,-5.745035,-0.083410,-0.348333,-0.685129,-0.634276,101.073749,-19.122254,141.890183
32405,NaN,1.290214,11.117493,-2.186202,1.703891,-1.319948,1.383633,0.392006,-1.289118,-5.899887,-0.105815,-0.332257,-0.695791,-0.627920,101.322566,-15.664928,141.814405
32406,NaN,1.047630,13.102682,-1.837046,2.197282,-0.691435,3.255994,0.637818,-1.403607,-6.001122,-0.128408,-0.315918,-0.706722,-0.619879,101.715761,-12.131971,141.715589
32407,NaN,1.293923,15.954146,-1.461348,2.405155,0.489752,6.069244,0.792158,-1.633970,-6.068662,-0.151675,-0.299931,-0.717354,-0.610278,102.207661,-8.538440,141.512835
32408,NaN,3.419104,18.571230,-0.739439,1.047925,3.347785,8.753421,0.643686,-1.887996,-6.250187,-0.176454,-0.283553,-0.726903,-0.600061,102.612051,-4.805212,141.229732
32409,NaN,7.646454,18.920969,-1.170276,-3.322536,6.538716,9.263392,0.015934,-2.112154,-6.413156,-0.203249,-0.266478,-0.733759,-0.590996,102.641898,-0.957088,140.847356
32410,NaN,11.907086,17.976681,-3.499766,-9.139331,8.109931,8.290186,-0.304216,-1.914469,-6.399196,-0.229457,-0.248153,-0.739053,-0.582727,102.464066,2.863234,140.579241
32411,NaN,14.342920,19.358695,-5.375866,-12.988932,9.282618,9.010054,-0.052448,-1.353308,-6.187891,-0.252440,-0.229089,-0.744648,-0.573840,102.435724,6.490379,140.582132
32412,NaN,15.782898,22.226820,-6.936039,-15.915374,10.431336,10.897189,-0.103379,-0.733464,-5.906564,-0.272107,-0.208926,-0.749876,-0.565680,102.422814,9.888045,140.908970
32413,NaN,17.764969,22.151041,-9.014218,-19.783206,10.639931,9.750375,-0.746691,-0.187121,-5.533886,-0.289140,-0.187653,-0.752991,-0.560525,102.110724,13.007075,141.484953
32414,NaN,20.261253,18.856586,-10.419832,-23.339728,10.312121,5.134471,-0.886043,0.359090,-4.796735,-0.301955,-0.167210,-0.755313,-0.557105,101.800177,15.654383,142.285786
32415,NaN,22.104915,17.260419,-8.885997,-24.257980,11.958933,1.760692,-0.382223,0.791468,-3.889904,-0.310069,-0.149747,-0.758539,-0.553220,101.851539,17.740847,143.221521
32416,NaN,23.591226,15.023305,-6.273617,-23.929992,13.794932,-2.158217,-0.259139,1.052444,-3.139692,-0.314884,-0.134471,-0.761708,-0.550061,102.026443,19.375950,144.241950
32417,NaN,25.829640,12.152150,-3.989335,-24.139095,15.431097,-6.665686,0.148592,1.271065,-2.311561,-0.316283,-0.122436,-0.765599,-0.546656,102.471754,20.513686,145.293385
32418,NaN,26.278064,11.535961,-1.061004,-22.848657,17.341754,-8.427144,0.440915,1.449842,-1.485654,-0.314469,-0.113449,-0.769969,-0.543494,103.104723,21.158301,146.367315
32419,NaN,25.248248,11.944225,-0.892219,-22.247903,16.803658,-7.917317,0.533540,1.527262,-0.500851,-0.309647,-0.108247,-0.774071,-0.541494,103.766131,21.232123,147.347038
32420,NaN,22.709838,13.335637,0.153253,-20.033901,16.641070,-5.899964,0.249502,1.330004,0.532959,-0.302868,-0.107072,-0.776502,-0.542081,104.164696,20.748834,148.065643
32421,NaN,20.487167,13.625358,-1.819775,-19.518093,13.963502,-4.091256,0.284670,1.035185,1.567802,-0.294444,-0.110821,-0.777961,-0.543874,104.457712,19.729903,148.436859
32422,NaN,17.659433,13.672960,2.844507,-14.478888,16.122274,-3.705017,-0.191985,0.575678,2.511496,-0.285404,-0.118719,-0.776834,-0.548615,104.334673,18.249805,148.401815
32423,NaN,5.523603,10.395320,-1.171944,-6.364327,5.625363,-1.579411,-0.145845,-0.228867,2.985369,-0.278168,-0.130762,-0.774243,-0.553237,104.079433,16.621884,147.824002
32424,NaN,-35.895918,14.824765,-12.370638,20.565235,-23.115400,16.719839,0.534238,-0.808845,2.985000,-0.272600,-0.145272,-0.772554,-0.554748,104.139866,15.071110,146.928903
32425,NaN,-46.729931,11.941974,-11.688337,29.945883,-29.883584,16.131398,-0.248433,-0.962507,0.852396,-0.274138,-0.150934,-0.769912,-0.556151,103.824059,14.728502,146.248534
32426,NaN,17.733595,10.509935,-8.418565,-19.988087,6.617992,-2.567918,-0.579324,-1.180178,-0.105348,-0.279357,-0.152994,-0.766755,-0.557350,103.322619,14.942754,145.588870
32427,NaN,26.985242,16.440741,-7.274938,-26.852353,14.730101,0.830518,1.894889,0.044128,3.348207,-0.268365,-0.168366,-0.769388,-0.554685,104.300678,13.071879,145.137707
32428,NaN,16.365675,33.521636,5.180860,-10.410820,24.161869,17.130294,3.919881,1.561324,4.331964,-0.246868,-0.185868,-0.778366,-0.546494,106.590207,10.437123,145.348915
32429,NaN,-0.241475,35.374189,8.413808,6.051448,17.545878,21.453655,-1.820537,0.299566,2.933483,-0.239351,-0.194231,-0.770912,-0.557386,105.497079,8.772633,145.040629
32430,NaN,-7.298726,0.220895,0.099470,5.951531,-4.052250,-8.594067,-4.914996,-1.079681,2.637932,-0.240776,-0.201439,-0.753060,-0.578231,102.543848,7.451145,144.070223
32431,NaN,-3.710901,-17.365401,-6.716401,-1.681931,-11.628336,-24.724812,0.558182,-1.373250,2.104675,-0.239286,-0.214030,-0.750832,-0.577221,102.738913,6.444619,143.026618
32432,NaN,6.867974,11.820215,2.691171,-3.061767,9.103914,0.279588,2.791106,-1.051236,1.939663,-0.234550,-0.227640,-0.755446,-0.567862,104.251084,5.499844,142.182695
32433,NaN,6.958323,17.173500,-0.577517,-4.312816,8.080254,6.304893,0.212904,-1.058649,2.125931,-0.232260,-0.238950,-0.752330,-0.568294,104.296729,4.467001,141.286796
32434,NaN,3.602402,10.359766,-4.714310,-4.663602,1.160794,1.115552,-0.390059,-0.690783,2.258547,-0.228828,-0.248930,-0.747678,-0.571533,104.026976,3.304103,140.590472
32435,NaN,3.478197,8.266257,-3.548371,-3.914512,1.400275,-1.110214,0.597061,-0.100645,1.799186,-0.223316,-0.256656,-0.746989,-0.571196,104.355193,2.316923,140.277111
32436,NaN,5.738001,11.696048,-2.669920,-4.499489,4.188117,1.979761,0.629484,0.486144,1.286128,-0.216948,-0.260759,-0.747670,-0.570901,104.720295,1.528599,140.367446
32437,NaN,6.502303,9.379889,-4.474200,-6.426996,2.761745,0.254353,-0.061999,1.031976,0.822843,-0.210824,-0.260857,-0.747517,-0.573346,104.695827,0.920591,140.815371
32438,NaN,2.979917,6.419331,-5.412151,-4.643003,-0.878590,-2.259642,0.297201,1.458677,0.537890,-0.203369,-0.258984,-0.749193,-0.574699,104.876214,0.403961,141.550480
32439,NaN,-0.165020,8.980605,-3.795389,-0.718939,-1.136368,-0.154824,0.501321,1.540489,0.390292,-0.195827,-0.256561,-0.751663,-0.575179,105.167430,-0.042645,142.340605
32440,NaN,-0.672577,11.031241,-2.403991,0.920843,0.017473,1.459893,0.113976,1.253616,0.394216,-0.189765,-0.254536,-0.752708,-0.576742,105.231760,-0.454242,142.980150
32441,NaN,0.476550,10.234222,-2.134818,0.084920,0.717209,0.627712,-0.064770,0.924487,0.388546,-0.185252,-0.253308,-0.752889,-0.578511,105.191186,-0.809884,143.428504
32442,NaN,-0.215794,10.609142,-1.364850,1.190512,0.940203,0.777953,0.015905,0.668246,0.480111,-0.181259,-0.253187,-0.752952,-0.579745,105.196870,-1.180910,143.731558
32443,NaN,-0.260771,10.372479,-1.814562,0.976205,0.477607,0.664316,-0.105769,0.290228,0.483867,-0.178904,-0.254111,-0.752288,-0.580934,105.135801,-1.493836,143.815152
32444,NaN,0.489037,8.889984,-2.932899,-0.486745,-0.283022,-0.455566,-0.127222,0.073345,0.398571,-0.177565,-0.255274,-0.751488,-0.581869,105.065144,-1.730364,143.801841
32445,NaN,0.995419,8.835570,-3.411477,-1.145202,-0.390587,-0.366409,0.133355,0.112415,0.341664,-0.175985,-0.256389,-0.751534,-0.581800,105.142817,-1.937990,143.808627
32446,NaN,1.299331,9.792911,-3.183524,-1.052414,0.139376,0.511898,0.140516,0.273505,0.286832,-0.173876,-0.256786,-0.751826,-0.581881,105.221245,-2.142670,143.922503
32447,NaN,1.281633,10.251634,-3.470376,-1.078619,-0.030031,1.032478,0.000355,0.465364,0.284697,-0.171304,-0.256542,-0.751859,-0.582709,105.214651,-2.371897,144.132737
32448,NaN,0.839425,9.960440,-3.457921,-0.736490,-0.374055,0.731962,-0.182248,0.648288,0.275919,-0.168230,-0.255524,-0.751537,-0.584464,105.098198,-2.626599,144.455837
32449,NaN,0.192636,9.804911,-3.093298,-0.004668,-0.532658,0.456581,-0.058070,0.734550,0.330265,-0.164584,-0.254608,-0.751553,-0.585880,105.049317,-2.920618,144.809033
32450,NaN,0.042053,9.815108,-2.960646,0.236052,-0.550652,0.421780,-0.066620,0.727763,0.382842,-0.160745,-0.253848,-0.751476,-0.587372,104.994362,-3.245477,145.161017
32451,NaN,-0.013065,9.574306,-2.579345,0.485120,-0.359137,0.084581,-0.066628,0.702473,0.415901,-0.156974,-0.253332,-0.751306,-0.588830,104.938409,-3.581489,145.484497
32452,NaN,0.340250,9.560818,-3.041799,-0.003904,-0.573554,0.209696,0.008324,0.715672,0.498490,-0.152741,-0.253092,-0.751267,-0.590095,104.923764,-3.967932,145.813424
32453,NaN,-0.151195,9.773753,-2.345396,0.873933,-0.283495,0.197578,0.105258,0.707687,0.571592,-0.148268,-0.253269,-0.751383,-0.591011,104.963420,-4.390773,146.117155
32454,NaN,-0.290035,10.041613,-2.354699,1.106037,-0.356323,0.439725,0.038102,0.631276,0.612525,-0.143972,-0.253720,-0.751195,-0.592119,104.966295,-4.827933,146.382402
32455,NaN,-0.898774,10.370027,-2.438089,1.706849,-0.745105,0.714440,0.004809,0.535651,0.696350,-0.139897,-0.254791,-0.750700,-0.593262,104.953783,-5.294474,146.572263
32456,NaN,-0.785489,9.672934,-2.575431,1.464026,-0.965689,0.073605,-0.167651,0.449034,0.875854,-0.135761,-0.256615,-0.749406,-0.595070,104.848005,-5.850147,146.698014
32457,NaN,-1.341781,9.408859,-2.944704,1.757494,-1.677526,-0.164140,-0.061063,0.439795,0.973885,-0.131298,-0.258951,-0.748259,-0.596501,104.804105,-6.455912,146.795001
32458,NaN,-1.564990,9.759251,-2.923869,2.126037,-1.791084,0.112629,-0.041616,0.361164,1.137908,-0.126541,-0.262087,-0.746901,-0.597861,104.778299,-7.143497,146.834459
32459,NaN,-1.278777,9.693469,-3.179067,1.848036,-1.929273,0.115361,-0.045558,0.290541,1.325680,-0.121556,-0.266174,-0.745191,-0.599222,104.758575,-7.922271,146.797103
32460,NaN,-0.723514,9.882581,-2.903892,1.690566,-1.451504,0.269709,0.035301,0.258965,1.435962,-0.116176,-0.270750,-0.743539,-0.600289,104.790722,-8.759854,146.735621
32461,NaN,0.270190,9.932040,-2.114104,1.404365,-0.331116,0.242356,0.035824,0.280522,1.529575,-0.110496,-0.275647,-0.741713,-0.601391,104.824557,-9.650078,146.661695
32462,NaN,0.621575,10.649775,-1.634588,1.693495,0.265425,0.842596,0.138349,0.362007,1.562947,-0.104198,-0.280408,-0.740168,-0.602217,104.911377,-10.572838,146.637475
32463,NaN,0.870304,11.044263,-1.094263,2.025790,0.806241,1.103985,0.054804,0.474343,1.665991,-0.097350,-0.285204,-0.738214,-0.603508,104.941845,-11.567037,146.650058
32464,NaN,0.655586,11.198881,-1.072384,2.426189,0.624173,1.174363,0.069338,0.584616,1.761279,-0.089714,-0.289947,-0.736182,-0.604911,104.970419,-12.632316,146.720201
32465,NaN,-1.041782,12.124311,-2.004450,3.839991,-1.082050,1.856973,0.110279,0.541081,1.858986,-0.081940,-0.295229,-0.734026,-0.606079,105.030547,-13.743236,146.740108
32466,NaN,-1.362194,12.640967,-2.847345,4.072475,-2.040953,2.393889,-0.018982,0.401114,2.010929,-0.074337,-0.301355,-0.731145,-0.607525,105.041838,-14.919284,146.666184
32467,NaN,-1.159892,13.079431,-3.619449,3.919856,-2.691233,2.950616,0.120710,0.314323,2.172735,-0.066407,-0.308409,-0.728308,-0.608310,105.155542,-16.169954,146.505525
32468,NaN,-0.778108,14.658047,-3.113422,4.703484,-2.102772,4.279935,0.209742,0.287762,2.379072,-0.057735,-0.316228,-0.725341,-0.608726,105.338820,-17.531864,146.302611
32469,NaN,0.044907,15.225347,-1.763440,5.212286,-0.674072,4.584790,0.056397,0.331454,2.583057,-0.048582,-0.324615,-0.721461,-0.609721,105.443309,-19.010999,146.077151
32470,NaN,0.033538,14.568718,-1.565921,5.361355,-0.755566,3.802451,-0.077362,0.406902,2.747286,-0.038802,-0.333216,-0.716818,-0.611256,105.471993,-20.593329,145.875491
32471,NaN,-1.247364,14.471062,-2.237471,6.316768,-2.223976,3.268242,0.011165,0.470186,2.895453,-0.028249,-0.342161,-0.712040,-0.612476,105.553873,-22.265735,145.672973
32472,NaN,-2.437943,15.252652,-3.293702,7.432310,-3.955814,3.548725,0.136687,0.502363,3.094814,-0.016690,-0.351598,-0.707172,-0.613195,105.721166,-24.053607,145.459917
32473,NaN,-3.243188,16.533143,-3.875450,8.762197,-5.104562,4.188079,0.233984,0.577210,3.308163,-0.004096,-0.361533,-0.702020,-0.613551,105.951676,-25.969146,145.235369
32474,NaN,-4.636071,17.703877,-4.060795,10.717069,-6.240182,4.243539,0.327396,0.655478,3.509944,0.009617,-0.371768,-0.696609,-0.613541,106.242825,-28.007584,145.019818
32475,NaN,-6.773185,19.275142,-4.019823,13.564546,-7.591096,4.039774,0.380212,0.728405,3.773426,0.024432,-0.382626,-0.690595,-0.613253,106.581865,-30.201171,144.773801
32476,NaN,-9.811088,21.225339,-3.941516,17.307662,-9.391370,3.396143,0.462834,0.783342,4.082592,0.040583,-0.394155,-0.683990,-0.612497,107.000996,-32.571614,144.490581
32477,NaN,-11.329184,22.571382,-2.800974,20.105520,-9.494880,2.482627,0.394277,1.018250,4.260939,0.057878,-0.405469,-0.676428,-0.612119,107.340865,-35.078064,144.288627
32478,NaN,-11.792773,22.738052,-2.688363,21.027872,-9.858394,1.316007,0.338218,1.599797,4.200666,0.076857,-0.414548,-0.668351,-0.612821,107.424017,-37.648962,144.486909
32479,NaN,-9.769302,20.327159,-0.037032,19.644341,-6.503638,-0.848208,0.196150,2.247218,4.033830,0.097110,-0.420992,-0.659550,-0.615085,107.102034,-40.239874,145.180164
32480,NaN,-4.020288,16.959449,1.007160,14.498996,-2.810772,-0.504071,-0.062889,2.262128,3.440762,0.115033,-0.425289,-0.650920,-0.618223,106.478955,-42.500802,146.079494
32481,NaN,3.187007,15.647806,-1.692029,8.469045,-2.373545,3.621927,-0.646739,1.617227,3.244711,0.128930,-0.431185,-0.640983,-0.621770,105.758769,-44.545835,146.589212
32482,NaN,9.016557,16.447370,-2.132857,5.839096,-1.047854,8.107133,-1.017385,0.869370,3.899211,0.141650,-0.441506,-0.628766,-0.624228,105.301561,-46.830324,146.424579
32483,NaN,16.238307,17.896132,-8.116264,1.201930,-4.540731,15.241050,-1.089006,-0.091862,4.121933,0.151791,-0.455456,-0.616192,-0.624361,105.434501,-49.095514,145.407571
32484,NaN,14.960338,16.190265,-10.555100,0.409385,-7.366069,13.486789,-0.925844,-0.542605,4.139264,0.160931,-0.470465,-0.604200,-0.622660,106.040310,-51.292514,143.939719
32485,NaN,6.565374,15.231712,-2.405844,7.732597,-3.222067,4.702089,-0.062896,-0.536275,4.440837,0.172949,-0.485516,-0.593840,-0.617832,107.346297,-53.643382,142.249672
32486,NaN,-10.456917,11.697375,-5.078558,11.992712,-11.264479,-10.919665,-2.030992,-0.698835,2.815945,0.174648,-0.497681,-0.581299,-0.619599,107.392927,-55.061851,140.771345
32487,NaN,-14.754815,-0.281440,-5.772022,3.816350,-10.425269,-21.119496,-2.570531,-0.547397,0.617345,0.168561,-0.503403,-0.572226,-0.625084,106.507716,-55.310461,140.057449
32488,NaN,-7.935865,-4.066200,-5.979787,-2.373541,-7.005242,-17.594866,-1.743828,-0.848238,-0.558223,0.160022,-0.505866,-0.568928,-0.628342,106.054608,-54.864727,139.402657
32489,NaN,-6.224887,-0.655190,-6.269476,-0.607872,-7.644637,-14.248274,-0.022972,-0.117985,-1.122277,0.156104,-0.503088,-0.571780,-0.628969,105.891896,-54.229713,139.588063
32490,NaN,-10.282577,2.611370,-2.602616,5.479423,-6.941457,-16.224710,0.674591,0.490656,-1.293300,0.155161,-0.497272,-0.576817,-0.629228,105.637595,-53.590380,140.392426
32491,NaN,-8.412817,4.682721,-0.447027,7.303525,-4.890593,-13.767560,0.480579,0.639970,-1.726223,0.152767,-0.489918,-0.582099,-0.630717,105.098390,-52.735665,141.412007
32492,NaN,-3.242488,6.520924,-2.135569,5.576153,-4.883173,-8.182808,0.100527,0.739115,-1.946666,0.149044,-0.481782,-0.586651,-0.633650,104.268289,-51.761112,142.546215
32493,NaN,-0.425782,5.972791,-2.195008,3.719010,-3.698785,-6.184964,-0.703646,0.949968,-2.214690,0.143111,-0.472797,-0.589003,-0.639576,102.843569,-50.657021,143.858648
32494,NaN,0.143775,2.080920,-2.365365,0.410069,-2.599654,-8.075082,-1.028279,0.879224,-2.751690,0.134479,-0.462525,-0.591584,-0.646541,101.283062,-49.217423,145.139441
32495,NaN,-1.554415,0.269982,-0.895490,0.653592,-1.450391,-10.684441,-0.021265,0.503629,-3.318857,0.125176,-0.451064,-0.598769,-0.649883,100.554470,-47.407048,146.100624
32496,NaN,-3.425865,3.461626,1.571409,5.052463,-0.742564,-10.140288,0.644705,0.058159,-3.740340,0.114597,-0.439208,-0.609177,-0.650283,100.485349,-45.303147,146.708697
32497,NaN,-3.687660,6.326327,2.052229,7.357261,-1.022198,-8.184233,0.311534,-0.442560,-4.066615,0.100690,-0.428026,-0.619246,-0.650530,100.499653,-42.968123,146.946597
32498,NaN,-3.173199,7.148215,0.796631,6.959310,-2.046566,-6.784303,-0.163073,-0.788142,-4.302692,0.083849,-0.417260,-0.628193,-0.651335,100.408577,-40.458667,146.945239
32499,NaN,-1.865813,6.815633,-0.259649,5.309445,-2.308614,-5.754006,-0.385626,-1.044542,-4.500943,0.065087,-0.406612,-0.636596,-0.652055,100.294535,-37.816455,146.778198
32500,NaN,-1.412302,6.060222,-1.007844,4.044467,-2.555903,-5.709211,-0.357370,-1.257326,-4.677351,0.045055,-0.395831,-0.645181,-0.651943,100.264441,-35.047521,146.486416
32501,NaN,-1.873493,6.174218,-1.279655,4.115636,-2.928188,-5.600026,-0.155373,-1.464978,-4.847932,0.024207,-0.384914,-0.654391,-0.650405,100.397474,-32.166556,146.087999
32502,NaN,-1.286984,6.965802,-1.685410,3.718895,-2.989048,-4.313376,-0.022157,-1.686859,-5.023884,0.002262,-0.373841,-0.663979,-0.647588,100.640424,-29.156291,145.589421
32503,NaN,0.036054,7.785348,-2.259033,2.611602,-2.734943,-2.643389,0.037535,-1.721811,-5.294062,-0.020524,-0.361735,-0.673756,-0.644034,100.876137,-25.994336,145.130077
32504,NaN,1.001920,8.874971,-2.597314,1.865334,-2.355252,-1.011333,0.156734,-1.590566,-5.603657,-0.043674,-0.347853,-0.683960,-0.639757,101.096975,-22.664921,144.815236
32505,NaN,1.447425,10.323145,-2.152277,1.914335,-1.481437,0.550778,0.281161,-1.465359,-5.808057,-0.066753,-0.332625,-0.694331,-0.634673,101.328818,-19.239548,144.621753
32506,NaN,1.604499,11.933497,-1.713717,2.098930,-0.647613,2.147616,0.354519,-1.421212,-5.941962,-0.089962,-0.316480,-0.704549,-0.628775,101.573075,-15.737124,144.489231
32507,NaN,1.884526,13.581408,-1.416605,1.974480,0.268741,3.824836,0.382164,-1.505031,-6.012798,-0.113519,-0.300092,-0.714244,-0.622024,101.830887,-12.190855,144.334753
32508,NaN,2.240233,15.272857,-1.021462,1.695692,1.455074,5.492609,0.458437,-1.659741,-6.104002,-0.137726,-0.283576,-0.723535,-0.614096,102.132962,-8.568176,144.122878
32509,NaN,3.100732,17.152144,-0.230978,1.107461,3.423366,7.240660,0.393789,-1.978639,-6.260029,-0.163473,-0.267166,-0.731861,-0.605210,102.401260,-4.824517,143.770520
32510,NaN,5.979546,18.445518,-1.494727,-2.559231,5.023136,8.796697,0.113681,-2.290440,-6.361895,-0.190901,-0.250768,-0.738415,-0.596167,102.492665,-0.978150,143.269829
32511,NaN,10.771805,19.484340,-3.641737,-8.461761,7.192679,9.819232,-0.033168,-2.271676,-6.281197,-0.217947,-0.234222,-0.743606,-0.587102,102.467161,2.814922,142.772437
32512,NaN,15.826309,21.413427,-5.694317,-14.530382,9.893085,10.976348,-0.107277,-1.781795,-6.016166,-0.242291,-0.216865,-0.748027,-0.578551,102.385450,6.404371,142.511997
32513,NaN,18.325083,22.885010,-7.569563,-18.627296,11.052353,11.340014,-0.495861,-1.013946,-5.772553,-0.263219,-0.197558,-0.751294,-0.572053,102.121199,9.757687,142.643223
32514,NaN,17.540132,20.802863,-9.095534,-19.982223,9.322335,8.537756,-1.102041,-0.384648,-5.467009,-0.281320,-0.176614,-0.752737,-0.568378,101.575132,12.870782,143.074555
32515,NaN,17.842825,17.261715,-12.002992,-22.661954,6.424709,4.520306,-0.898862,0.144492,-4.688442,-0.294821,-0.157287,-0.754305,-0.565124,101.215046,15.485645,143.701220
32516,NaN,21.368999,17.530031,-9.401034,-24.362784,10.494063,2.375961,-0.149049,0.595680,-3.625107,-0.302911,-0.141712,-0.757481,-0.560701,101.348815,17.456587,144.469435
32517,NaN,24.599050,15.966354,-5.449721,-24.649366,14.656858,-1.611489,-0.322701,0.819492,-2.857798,-0.308023,-0.128128,-0.759752,-0.558106,101.421796,18.966974,145.289769
32518,NaN,26.949576,12.115808,-3.841764,-25.242631,15.559204,-6.895208,-0.185446,1.122623,-2.126588,-0.309805,-0.116658,-0.762266,-0.556204,101.625030,20.031453,146.212086
32519,NaN,26.875639,11.258429,-3.485325,-25.074834,15.153345,-8.136958,0.384395,1.459611,-1.309358,-0.307653,-0.108240,-0.766316,-0.553529,102.205389,20.590759,147.245206
32520,NaN,25.865477,12.871213,-2.211042,-24.016852,15.900860,-6.662789,0.493465,1.668495,-0.117194,-0.301310,-0.103973,-0.770277,-0.552335,102.842935,20.446262,148.252685
32521,NaN,23.137565,13.176098,-0.224148,-20.904580,15.953044,-5.630840,0.054312,1.560319,1.110646,-0.292202,-0.104061,-0.772160,-0.554580,103.139463,19.623205,149.023038
32522,NaN,21.476802,11.278562,-0.735514,-19.624976,13.826828,-6.255679,-0.259617,1.223492,1.993081,-0.282061,-0.108031,-0.772131,-0.559092,103.136311,18.347381,149.465924
