// General information: 
//  MT Manager version: 2019.0.1 
//  XDA version: 2019.0.1 build 2740 rev 84096 built on 2019-01-30
// Device information: 
//  DeviceId: 00B43876
//  ProductCode: MTW2-3A7G6
//  Firmware Version: 4.3.4
//  Hardware Version: 1.1.0
// Device settings: 
//  Filter Profile: human(46.1)
//  Option Flags: Orientation Smoother Disabled, AHS Disabled, ICC Disabled
// Coordinate system: ENU
PacketCounter,SampleTimeFine,Acc_X,Acc_Y,Acc_Z,FreeAcc_E,FreeAcc_N,FreeAcc_U,Gyr_X,Gyr_Y,Gyr_Z,Quat_q0,Quat_q1,Quat_q2,Quat_q3,Roll,Pitch,Yaw
00038,NaN,0.822362,-9.584239,-0.664078,-0.245745,-0.240206,-0.176463,0.171605,0.002042,0.034672,-0.010080,0.053626,-0.736473,0.674263,-95.203082,-3.294565,-174.679088
00039,NaN,0.607809,-9.495653,-0.559074,-0.033691,-0.300316,-0.285984,0.176262,0.025490,0.021578,-0.010140,0.053455,-0.735874,0.674929,-95.099342,-3.280964,-174.691900
00040,NaN,0.344345,-9.591592,-0.602483,0.227159,-0.224958,-0.201341,0.153874,0.016352,0.015593,-0.010206,0.053337,-0.735349,0.675510,-95.008716,-3.270451,-174.699343
00041,NaN,0.322535,-9.737050,-0.768350,0.241085,-0.056075,-0.043181,0.135259,-0.002283,0.005973,-0.010306,0.053320,-0.734882,0.676017,-94.929460,-3.264392,-174.695323
00042,NaN,0.395777,-9.857329,-0.747385,0.176090,-0.079993,0.078963,0.130813,0.008767,-0.002945,-0.010331,0.053297,-0.734428,0.676511,-94.852348,-3.264070,-174.697492
00043,NaN,0.423837,-9.919008,-0.694886,0.156231,-0.126005,0.137636,0.135060,0.012743,-0.019262,-0.010290,0.053321,-0.733956,0.677023,-94.772751,-3.273083,-174.700931
00044,NaN,0.234596,-9.923739,-0.692981,0.345798,-0.097196,0.131497,0.128788,-0.003113,-0.033062,-0.010256,0.053449,-0.733499,0.677508,-94.697269,-3.289390,-174.694877
00045,NaN,0.018136,-10.065776,-0.686634,0.572959,-0.081048,0.259888,0.124720,-0.054240,-0.049181,-0.010355,0.053809,-0.733049,0.677965,-94.625812,-3.312393,-174.658827
00046,NaN,-0.112026,-10.090835,-0.677927,0.708759,-0.065352,0.276438,0.137986,-0.110158,-0.075899,-0.010571,0.054457,-0.732544,0.678456,-94.548734,-3.348275,-174.589610
00047,NaN,0.004009,-9.910345,-0.671132,0.588175,-0.054588,0.102777,0.143721,-0.153320,-0.098148,-0.010873,0.055331,-0.732010,0.678957,-94.469922,-3.394820,-174.494626
00048,NaN,0.127610,-9.882080,-0.540963,0.483088,-0.178751,0.071597,0.135415,-0.189185,-0.115645,-0.011243,0.056392,-0.731496,0.679417,-94.397228,-3.450092,-174.378512
00049,NaN,0.199849,-9.926234,-0.545875,0.423215,-0.169392,0.120097,0.140388,-0.225473,-0.133153,-0.011689,0.057640,-0.730956,0.679885,-94.323091,-3.513756,-174.240835
00050,NaN,0.178564,-9.821794,-0.664908,0.435897,-0.026621,0.023515,0.149736,-0.266471,-0.139050,-0.012266,0.059048,-0.730379,0.680374,-94.245234,-3.579395,-174.079603
00051,NaN,-0.056171,-9.655228,-1.276036,0.605048,0.631320,-0.112678,0.156801,-0.364171,-0.129573,-0.013235,0.060752,-0.729772,0.680857,-94.166929,-3.635480,-173.862922
00052,NaN,0.011009,-9.382584,-1.515284,0.500066,0.897404,-0.364214,0.196776,-0.711026,-0.197193,-0.015251,0.063881,-0.728979,0.681379,-94.078949,-3.716486,-173.444877
00053,NaN,1.386628,-8.862467,0.296467,-0.686602,-1.010881,-0.921085,0.140565,-0.848297,-0.298600,-0.017406,0.067850,-0.728321,0.681646,-94.029431,-3.850057,-172.943966
00054,NaN,1.207704,-9.233059,0.385573,-0.440896,-1.090595,-0.567543,0.215220,-0.754641,-0.330408,-0.019133,0.071609,-0.727392,0.682208,-93.934790,-4.006495,-172.495699
00055,NaN,0.642897,-9.013076,1.246833,0.241781,-1.839070,-0.881692,0.226140,-0.811324,-0.298512,-0.021181,0.075439,-0.726417,0.682773,-93.837048,-4.142838,-172.016613
00056,NaN,0.018379,-9.212424,1.444882,0.935054,-1.935418,-0.738744,0.255748,-0.931804,-0.252363,-0.023832,0.079511,-0.725329,0.683379,-93.728462,-4.249516,-171.470145
00057,NaN,0.321717,-8.698651,0.765519,0.526523,-1.256441,-1.181345,0.249393,-1.200459,-0.254804,-0.027449,0.084504,-0.724206,0.683836,-93.635747,-4.348108,-170.769913
00058,NaN,-0.549897,-9.260116,0.999080,1.493698,-1.351006,-0.702591,0.168633,-1.223822,-0.159417,-0.031439,0.089244,-0.723369,0.683948,-93.591222,-4.392702,-170.059537
00059,NaN,-0.251407,-9.514874,0.637204,1.175150,-1.029737,-0.402021,0.280236,-1.176293,-0.023100,-0.035774,0.093301,-0.722189,0.684440,-93.480012,-4.361385,-169.381641
00060,NaN,-0.115573,-8.966465,-0.977553,0.694051,0.589015,-0.838410,0.422453,-0.972870,0.107290,-0.039884,0.096169,-0.720598,0.685492,-93.277826,-4.264806,-168.824483
00061,NaN,-1.184607,-8.272850,-1.232517,1.601758,1.107169,-1.592541,0.339649,-0.711199,0.251924,-0.043506,0.097631,-0.719395,0.686328,-93.110359,-4.095374,-168.422022
00062,NaN,-0.357673,-8.815611,-1.099563,0.827615,0.808357,-0.997163,0.120812,-0.501987,0.316505,-0.046490,0.098191,-0.719011,0.686455,-93.058675,-3.896470,-168.141125
00063,NaN,0.789479,-9.704441,-0.674417,-0.173173,0.129456,-0.055258,0.159904,-0.306492,0.310207,-0.048767,0.098089,-0.718529,0.686816,-92.976113,-3.707219,-167.972373
00064,NaN,0.762478,-9.757326,-0.703651,-0.184997,0.174110,-0.003649,0.273139,-0.177925,0.317205,-0.050662,0.097496,-0.717690,0.687640,-92.823600,-3.518212,-167.876786
00065,NaN,0.602204,-9.567090,-1.113251,-0.162968,0.631352,-0.184297,0.229636,-0.069862,0.312023,-0.052130,0.096558,-0.717021,0.688360,-92.691928,-3.335217,-167.842859
00066,NaN,0.796394,-9.633127,-1.280129,-0.416389,0.765523,-0.101323,0.198349,0.024127,0.294159,-0.053184,0.095372,-0.716474,0.689014,-92.575178,-3.165166,-167.861653
00067,NaN,1.184302,-9.394170,-1.446494,-0.875207,0.868583,-0.314012,0.200395,0.114678,0.275767,-0.053850,0.093934,-0.715933,0.689722,-92.454464,-3.007715,-167.931976
00068,NaN,1.444154,-9.163929,-1.346775,-1.148350,0.737456,-0.538294,0.149918,0.162329,0.240773,-0.054203,0.092475,-0.715560,0.690279,-92.361603,-2.871479,-168.028026
00069,NaN,4.597930,-9.816959,0.172409,-3.899133,-1.418798,0.203655,-0.168636,0.249294,0.144076,-0.053761,0.091143,-0.716263,0.689761,-92.449022,-2.792539,-168.172043
00070,NaN,4.075266,-10.321955,-2.380066,-3.882557,1.180850,0.786677,0.268618,0.042255,-0.087412,-0.053464,0.091241,-0.715296,0.690774,-92.292127,-2.841270,-168.191384
00071,NaN,3.171944,-9.540833,-0.549886,-2.666293,-0.389119,-0.110598,-0.068118,0.010907,-0.100756,-0.053076,0.091581,-0.715476,0.690572,-92.329003,-2.896844,-168.193044
00072,NaN,1.600421,-10.543804,-0.951066,-1.145705,0.305443,0.828350,0.169861,0.331381,-0.065310,-0.051775,0.090628,-0.714934,0.691357,-92.220189,-2.939464,-168.378714
00073,NaN,0.079981,-8.410606,-0.754540,0.258020,0.502055,-1.386814,0.272799,0.337475,-0.000152,-0.050722,0.089391,-0.714065,0.692494,-92.052018,-2.944452,-168.569820
00074,NaN,-0.133367,-8.846212,-1.541818,0.337150,1.312285,-0.934924,-0.097793,0.417551,0.064805,-0.049445,0.087742,-0.714525,0.692323,-92.093853,-2.913703,-168.807744
00075,NaN,-1.238649,-9.793214,-0.515428,1.675368,0.479161,-0.082813,-0.249331,0.030726,-0.019485,-0.049189,0.087767,-0.715375,0.691459,-92.233919,-2.923203,-168.822502
00076,NaN,2.023375,-10.373106,-0.852156,-1.547514,0.139077,0.675752,-0.211914,0.026060,0.016914,-0.049094,0.087671,-0.716109,0.690718,-92.352661,-2.911810,-168.835022
00077,NaN,1.081959,-10.275313,-1.464376,-0.746701,0.913481,0.555778,-0.039315,0.269754,0.032970,-0.048255,0.086631,-0.716313,0.690696,-92.365403,-2.896964,-168.988008
00078,NaN,-0.660090,-10.835872,0.079050,1.284570,-0.297571,0.963183,-0.185941,0.362000,0.037050,-0.047039,0.085296,-0.717046,0.690187,-92.459538,-2.882172,-169.193592
00079,NaN,-0.579989,-10.938644,0.252146,1.243008,-0.502747,1.061873,-0.085939,0.294389,0.020473,-0.046048,0.084227,-0.717408,0.690008,-92.498376,-2.875401,-169.360392
00080,NaN,0.048325,-10.196243,-0.224405,0.497387,-0.135907,0.373097,-0.101489,0.184060,-0.006273,-0.045357,0.083641,-0.717785,0.689733,-92.549337,-2.881317,-169.462926
00081,NaN,0.256143,-10.396784,-0.033045,0.342903,-0.382307,0.574614,-0.180710,0.196587,-0.016460,-0.044550,0.083064,-0.718434,0.689179,-92.645313,-2.893470,-169.572668
00082,NaN,0.101543,-10.141686,-0.177174,0.459847,-0.215249,0.318340,-0.077415,0.178866,-0.054238,-0.043721,0.082662,-0.718706,0.688997,-92.682641,-2.926951,-169.670934
00083,NaN,-0.364208,-9.695668,-0.303579,0.876678,0.001292,-0.145102,-0.106208,0.122804,-0.073086,-0.043015,0.082525,-0.719057,0.688692,-92.738056,-2.969720,-169.736882
00084,NaN,0.023184,-9.767522,-0.370261,0.499169,-0.017123,-0.050894,-0.184882,0.046385,-0.098994,-0.042464,0.082764,-0.719650,0.688077,-92.840847,-3.025334,-169.757913
00085,NaN,0.642056,-9.967970,-0.206175,-0.055116,-0.312149,0.173035,-0.186436,0.011402,-0.109348,-0.042001,0.083158,-0.720237,0.687444,-92.945573,-3.085825,-169.758794
00086,NaN,0.784109,-9.843546,-0.305944,-0.206704,-0.248248,0.061493,-0.147359,0.007105,-0.109007,-0.041573,0.083560,-0.720688,0.686949,-93.028072,-3.146068,-169.756827
00087,NaN,0.856057,-9.656555,-0.499510,-0.310897,-0.074997,-0.110673,-0.150230,0.014073,-0.098868,-0.041151,0.083900,-0.721153,0.686444,-93.111951,-3.200651,-169.759432
00088,NaN,0.951567,-9.561735,-0.547679,-0.408224,-0.053324,-0.196935,-0.163908,0.037612,-0.084292,-0.040690,0.084111,-0.721676,0.685896,-93.202918,-3.247711,-169.775547
00089,NaN,0.922104,-9.452194,-0.552527,-0.377790,-0.051286,-0.307207,-0.153733,0.071694,-0.066052,-0.040172,0.084135,-0.722178,0.685395,-93.286873,-3.285405,-169.811972
00090,NaN,0.680176,-9.429377,-0.522682,-0.128589,-0.049600,-0.345377,-0.158878,0.074287,-0.048833,-0.039702,0.084092,-0.722705,0.684872,-93.373668,-3.313452,-169.850140
00091,NaN,0.739647,-9.462530,-0.618533,-0.194618,0.018798,-0.303171,-0.169824,0.064553,-0.039683,-0.039292,0.084047,-0.723271,0.684303,-93.466985,-3.335939,-169.883474
00092,NaN,0.733518,-9.478615,-0.544764,-0.168940,-0.067777,-0.291879,-0.164493,0.055595,-0.030237,-0.038951,0.084001,-0.723821,0.683747,-93.557559,-3.352816,-169.911501
00093,NaN,0.667672,-9.587362,-0.583468,-0.098322,-0.039099,-0.184993,-0.185085,0.053626,-0.020514,-0.038640,0.083928,-0.724443,0.683114,-93.659932,-3.364061,-169.939174
00094,NaN,0.668834,-9.683379,-0.626843,-0.095796,-0.018270,-0.086508,-0.182130,0.045985,-0.012602,-0.038386,0.083854,-0.725057,0.682486,-93.760888,-3.370596,-169.962293
00095,NaN,0.590809,-9.636926,-0.650461,-0.022740,0.004545,-0.135811,-0.177526,0.020761,-0.005083,-0.038251,0.083837,-0.725653,0.681862,-93.860013,-3.371863,-169.971441
00096,NaN,0.569381,-9.692933,-0.614848,0.011335,-0.046699,-0.083718,-0.182338,-0.013524,-0.004653,-0.038241,0.083938,-0.726259,0.681205,-93.963074,-3.371609,-169.960774
00097,NaN,0.447824,-9.715922,-0.698310,0.121069,0.037604,-0.062240,-0.187790,-0.032796,-0.001175,-0.038308,0.084089,-0.726880,0.680520,-94.069863,-3.368527,-169.939587
00098,NaN,0.466400,-9.723314,-0.730608,0.100711,0.047002,-0.051449,-0.202819,-0.042957,-0.003947,-0.038398,0.084291,-0.727548,0.679775,-94.185646,-3.366615,-169.912100
00099,NaN,0.612363,-9.800245,-0.583131,-0.008977,-0.147638,0.022856,-0.201484,-0.056093,-0.006238,-0.038527,0.084543,-0.728208,0.679030,-94.301073,-3.365352,-169.877410
00100,NaN,0.620605,-9.743035,-0.583519,-0.017971,-0.164241,-0.033882,-0.195572,-0.050004,-0.004713,-0.038643,0.084770,-0.728848,0.678307,-94.412940,-3.363461,-169.845865
00101,NaN,0.575633,-9.690136,-0.610947,0.021050,-0.145347,-0.087373,-0.209120,-0.059573,-0.007101,-0.038779,0.085038,-0.729531,0.677531,-94.532858,-3.362396,-169.809118
00102,NaN,0.620427,-9.656744,-0.680619,-0.033670,-0.102961,-0.112734,-0.216826,-0.062420,-0.009444,-0.038915,0.085328,-0.730238,0.676725,-94.657330,-3.362506,-169.770260
00103,NaN,0.572731,-9.579810,-0.684288,0.011121,-0.106302,-0.192003,-0.221269,-0.052786,-0.014928,-0.038993,0.085604,-0.730958,0.675908,-94.783993,-3.366069,-169.737142
00104,NaN,0.445014,-9.650827,-0.750274,0.135288,-0.045816,-0.123571,-0.245080,-0.048818,-0.021592,-0.039027,0.085898,-0.731756,0.675005,-94.924236,-3.373599,-169.705473
00105,NaN,0.552899,-9.737248,-0.749202,0.041706,-0.095953,-0.031583,-0.254088,-0.023405,-0.025818,-0.038947,0.086119,-0.732586,0.674081,-95.068753,-3.384683,-169.688587
00106,NaN,0.492093,-9.765330,-0.753471,0.109485,-0.106282,-0.007168,-0.242711,-0.007229,-0.035715,-0.038781,0.086324,-0.733375,0.673205,-95.206290,-3.402250,-169.679929
00107,NaN,0.455912,-9.674055,-0.888971,0.122171,0.017869,-0.087968,-0.241902,-0.007724,-0.041622,-0.038595,0.086548,-0.734158,0.672333,-95.343349,-3.423091,-169.671153
00108,NaN,0.408326,-9.760088,-0.884561,0.184486,-0.007150,-0.005834,-0.243362,0.001404,-0.054472,-0.038334,0.086793,-0.734941,0.671460,-95.481036,-3.451781,-169.666328
00109,NaN,0.500204,-9.662656,-0.937512,0.087187,0.014411,-0.092183,-0.241491,-0.007111,-0.065960,-0.038064,0.087103,-0.735710,0.670593,-95.617933,-3.486488,-169.656496
00110,NaN,0.643235,-9.718744,-0.913306,-0.034659,-0.061935,-0.030214,-0.249114,-0.010598,-0.066831,-0.037804,0.087434,-0.736503,0.669694,-95.759392,-3.521519,-169.643974
00111,NaN,0.722578,-9.714821,-0.882136,-0.097104,-0.128771,-0.032505,-0.246005,0.001950,-0.069993,-0.037485,0.087731,-0.737284,0.668812,-95.898602,-3.559000,-169.638756
00112,NaN,0.718630,-9.648374,-0.871642,-0.086154,-0.154546,-0.100017,-0.248431,0.013285,-0.068758,-0.037131,0.087989,-0.738076,0.667925,-96.038853,-3.596491,-169.639583
00113,NaN,0.572474,-9.607095,-0.997041,0.042918,-0.023906,-0.137171,-0.250929,0.028378,-0.067587,-0.036720,0.088189,-0.738878,0.667034,-96.179937,-3.634193,-169.649475
00114,NaN,0.558952,-9.606710,-1.090978,0.050453,0.048597,-0.128340,-0.243479,0.024425,-0.066884,-0.036333,0.088401,-0.739653,0.666167,-96.316948,-3.671315,-169.656592
00115,NaN,0.541986,-9.583079,-1.159097,0.063766,0.098870,-0.145280,-0.244862,-0.001750,-0.068649,-0.036033,0.088704,-0.740426,0.665283,-96.455669,-3.707740,-169.648987
00116,NaN,0.593754,-9.631456,-1.176916,0.023779,0.080453,-0.091806,-0.238887,-0.022109,-0.062934,-0.035833,0.089056,-0.741177,0.664410,-96.591759,-3.739618,-169.629639
00117,NaN,0.833520,-9.649304,-1.174511,-0.200353,0.010647,-0.058560,-0.254818,-0.029354,-0.057310,-0.035668,0.089410,-0.741982,0.663473,-96.737186,-3.767713,-169.606897
00118,NaN,0.782972,-9.712713,-1.146857,-0.132275,-0.036582,-0.002170,-0.234040,-0.036637,-0.043377,-0.035589,0.089736,-0.742721,0.662606,-96.870985,-3.787383,-169.580439
00119,NaN,0.840012,-9.647697,-1.263218,-0.207288,0.051811,-0.048790,-0.233172,-0.039155,-0.025780,-0.035574,0.090000,-0.743463,0.661738,-97.004247,-3.796759,-169.554339
00120,NaN,0.853485,-9.607314,-1.247857,-0.216078,0.016690,-0.089568,-0.233397,-0.023202,-0.016180,-0.035535,0.090181,-0.744213,0.660872,-97.137060,-3.801790,-169.537367
00121,NaN,0.834301,-9.660026,-1.178681,-0.176077,-0.075194,-0.047200,-0.232412,-0.005312,-0.009219,-0.035449,0.090272,-0.744964,0.660017,-97.268545,-3.804066,-169.531619
00122,NaN,0.725184,-9.641645,-1.228382,-0.074781,-0.026125,-0.066415,-0.222239,0.014420,-0.007714,-0.035303,0.090294,-0.745685,0.659207,-97.393505,-3.806959,-169.536671
00123,NaN,0.484167,-9.672602,-1.297723,0.156822,0.061102,-0.042868,-0.218568,0.014331,-0.007419,-0.035157,0.090311,-0.746394,0.658410,-97.516311,-3.809652,-169.542183
00124,NaN,0.408308,-9.651604,-1.389842,0.218097,0.146920,-0.056528,-0.214517,-0.016675,-0.016849,-0.035100,0.090468,-0.747078,0.657615,-97.638069,-3.815406,-169.528831
00125,NaN,0.406737,-9.721464,-1.416707,0.226209,0.145600,0.016197,-0.200980,-0.036618,-0.027125,-0.035086,0.090723,-0.747709,0.656863,-97.752823,-3.825392,-169.503937
00126,NaN,0.387242,-9.688583,-1.395882,0.251459,0.114472,-0.020307,-0.188922,-0.067698,-0.039418,-0.035157,0.091127,-0.748289,0.656143,-97.861981,-3.839932,-169.459773
00127,NaN,0.510426,-9.673042,-1.432615,0.128935,0.111909,-0.022310,-0.190135,-0.102877,-0.049845,-0.035322,0.091682,-0.748861,0.655404,-97.973191,-3.857484,-169.395361
00128,NaN,0.639070,-9.732060,-1.292519,0.039130,-0.073502,0.025252,-0.187988,-0.091386,-0.055270,-0.035430,0.092223,-0.749424,0.654678,-98.082840,-3.878952,-169.336398
00129,NaN,0.682561,-9.641712,-1.221201,0.007978,-0.157088,-0.071278,-0.184223,-0.083090,-0.060191,-0.035489,0.092750,-0.749974,0.653971,-98.190010,-3.903725,-169.282324
00130,NaN,0.674488,-9.679334,-1.320819,0.009775,-0.080798,-0.020734,-0.192028,-0.079059,-0.061163,-0.035530,0.093274,-0.750548,0.653235,-98.301583,-3.929324,-169.229798
00131,NaN,0.656485,-9.589332,-1.459669,0.002472,0.052432,-0.090850,-0.177476,-0.049436,-0.059496,-0.035468,0.093687,-0.751080,0.652567,-98.403624,-3.956295,-169.194758
00132,NaN,0.626905,-9.596937,-1.517708,0.030013,0.097351,-0.076814,-0.178981,-0.045331,-0.065298,-0.035375,0.094114,-0.751614,0.651895,-98.506476,-3.986888,-169.160947
00133,NaN,0.684745,-9.594422,-1.550092,-0.024456,0.102724,-0.070336,-0.167558,-0.049427,-0.064119,-0.035303,0.094543,-0.752111,0.651264,-98.602902,-4.016349,-169.125463
00134,NaN,0.689090,-9.595005,-1.608261,-0.030954,0.143651,-0.060567,-0.160260,-0.045173,-0.064887,-0.035219,0.094963,-0.752583,0.650661,-98.695061,-4.046608,-169.091670
00135,NaN,0.717348,-9.617729,-1.622065,-0.051236,0.134553,-0.033850,-0.152205,-0.054335,-0.061030,-0.035182,0.095394,-0.753029,0.650084,-98.782921,-4.073790,-169.053543
00136,NaN,0.741697,-9.524306,-1.573890,-0.068400,0.082501,-0.131358,-0.142589,-0.068127,-0.065087,-0.035193,0.095887,-0.753439,0.649536,-98.865926,-4.102041,-169.006609
00137,NaN,0.719534,-9.477624,-1.604562,-0.049294,0.110516,-0.174065,-0.135723,-0.065484,-0.070536,-0.035175,0.096386,-0.753823,0.649017,-98.944895,-4.133487,-168.961309
00138,NaN,0.438506,-9.489009,-1.396564,0.272247,-0.051459,-0.215439,-0.139285,-0.052972,-0.079841,-0.035082,0.096884,-0.754217,0.648490,-99.025538,-4.171313,-168.921567
00139,NaN,0.485449,-9.620384,-1.542835,0.222724,0.050681,-0.059966,-0.152920,-0.051013,-0.086389,-0.034950,0.097399,-0.754651,0.647915,-99.113936,-4.212908,-168.882926
00140,NaN,0.595256,-9.756815,-1.521353,0.143434,-0.023320,0.078882,-0.143115,-0.038073,-0.097567,-0.034741,0.097917,-0.755050,0.647383,-99.196337,-4.262001,-168.849898
00141,NaN,0.656836,-9.820439,-1.475390,0.109537,-0.100901,0.138545,-0.140529,-0.030091,-0.106527,-0.034470,0.098437,-0.755437,0.646867,-99.276962,-4.316801,-168.821168
00142,NaN,0.686601,-9.755318,-1.536473,0.074523,-0.049313,0.086322,-0.129765,-0.032930,-0.104794,-0.034225,0.098963,-0.755789,0.646389,-99.351616,-4.370365,-168.790243
00143,NaN,0.765102,-9.668519,-1.585616,-0.008614,-0.014857,0.014799,-0.126289,-0.035337,-0.107600,-0.033979,0.099503,-0.756127,0.645923,-99.424386,-4.425182,-168.758195
00144,NaN,0.848747,-9.530331,-1.652183,-0.106137,0.043360,-0.103716,-0.120446,-0.052275,-0.098596,-0.033831,0.100066,-0.756447,0.645469,-99.494573,-4.473344,-168.716749
00145,NaN,0.957663,-9.438848,-1.744204,-0.229309,0.114490,-0.169788,-0.122421,-0.054693,-0.088699,-0.033720,0.100594,-0.756779,0.645004,-99.565898,-4.515576,-168.675573
00146,NaN,0.977117,-9.494216,-1.752743,-0.235355,0.100041,-0.112090,-0.124454,-0.048237,-0.070277,-0.033647,0.101038,-0.757126,0.644531,-99.638056,-4.548023,-168.639005
00147,NaN,0.938351,-9.531627,-1.760617,-0.187606,0.098945,-0.076816,-0.118094,-0.048363,-0.059993,-0.033607,0.101438,-0.757458,0.644080,-99.706471,-4.574552,-168.603938
00148,NaN,0.879878,-9.562391,-1.753473,-0.119906,0.088727,-0.052262,-0.108228,-0.042036,-0.043902,-0.033603,0.101759,-0.757766,0.643666,-99.768886,-4.592619,-168.573368
00149,NaN,0.971706,-9.546764,-1.697292,-0.196353,0.008633,-0.069635,-0.109158,-0.034956,-0.036462,-0.033593,0.102024,-0.758083,0.643252,-99.831413,-4.607088,-168.548181
00150,NaN,0.825756,-9.585940,-1.671565,-0.040659,-0.002666,-0.047208,-0.094814,-0.031334,-0.028883,-0.033603,0.102251,-0.758358,0.642891,-99.885555,-4.617662,-168.525111
00151,NaN,0.831201,-9.508822,-1.629564,-0.043653,-0.041630,-0.129691,-0.100037,-0.040981,-0.023200,-0.033663,0.102484,-0.758650,0.642505,-99.943039,-4.624014,-168.497806
00152,NaN,0.801294,-9.605542,-1.632532,-0.001458,-0.057363,-0.036677,-0.105894,-0.046372,-0.015336,-0.033768,0.102710,-0.758965,0.642093,-100.004113,-4.625405,-168.467549
00153,NaN,0.747317,-9.469172,-1.778508,0.010818,0.103595,-0.149566,-0.142029,-0.086642,-0.001201,-0.034049,0.103012,-0.759395,0.641520,-100.087550,-4.614717,-168.416751
00154,NaN,0.777470,-9.546496,-1.509490,0.041326,-0.191947,-0.118358,-0.207404,-0.097037,-0.003757,-0.034332,0.103374,-0.760031,0.640693,-100.208986,-4.604370,-168.358995
00155,NaN,0.848140,-9.687529,-1.451768,0.002033,-0.302639,0.015006,-0.169484,-0.071175,-0.017797,-0.034488,0.103695,-0.760542,0.640026,-100.307585,-4.604431,-168.315113
00156,NaN,0.777804,-9.473190,-1.617616,0.019730,-0.108602,-0.171588,-0.137737,-0.040780,-0.032053,-0.034502,0.103972,-0.760949,0.639497,-100.386781,-4.615623,-168.286284
00157,NaN,0.604732,-9.493771,-1.722812,0.177063,0.011597,-0.146563,-0.154459,-0.016901,-0.046425,-0.034368,0.104225,-0.761406,0.638919,-100.474542,-4.637307,-168.270152
00158,NaN,0.518303,-9.550674,-1.702402,0.278934,-0.012998,-0.101653,-0.145379,-0.033423,-0.063883,-0.034248,0.104601,-0.761821,0.638369,-100.558074,-4.667115,-168.242108
00159,NaN,0.416900,-9.579188,-1.879768,0.356260,0.162123,-0.049749,-0.132413,-0.058531,-0.075877,-0.034189,0.105095,-0.762184,0.637858,-100.635391,-4.700946,-168.199386
00160,NaN,0.683976,-9.571973,-1.973138,0.085858,0.187762,-0.017734,-0.126095,-0.062052,-0.080899,-0.034134,0.105624,-0.762522,0.637368,-100.709393,-4.737220,-168.153271
00161,NaN,0.858058,-9.646952,-1.818452,-0.037678,-0.020223,0.041493,-0.119373,-0.060280,-0.081062,-0.034072,0.106140,-0.762840,0.636906,-100.779429,-4.773664,-168.108973
00162,NaN,0.918293,-9.641192,-1.803783,-0.086113,-0.055635,0.038148,-0.105157,-0.055958,-0.074999,-0.034024,0.106623,-0.763115,0.636498,-100.841159,-4.807162,-168.066843
00163,NaN,0.984846,-9.606634,-1.874671,-0.160896,-0.004338,0.023257,-0.103951,-0.035344,-0.065567,-0.033924,0.106998,-0.763395,0.636104,-100.901100,-4.837487,-168.038140
00164,NaN,0.961525,-9.605817,-1.757075,-0.109205,-0.122203,-0.001638,-0.113932,-0.015913,-0.054338,-0.033784,0.107277,-0.763715,0.635680,-100.965806,-4.863623,-168.020797
00165,NaN,1.040274,-9.580412,-1.602601,-0.153499,-0.292870,-0.049212,-0.114583,0.008624,-0.046821,-0.033571,0.107443,-0.764046,0.635266,-101.029598,-4.888144,-168.018751
00166,NaN,0.972244,-9.599007,-1.736883,-0.104173,-0.162487,-0.011376,-0.118411,0.027272,-0.035193,-0.033325,0.107512,-0.764397,0.634844,-101.094628,-4.908224,-168.027833
00167,NaN,0.967498,-9.510847,-1.878175,-0.131519,-0.020237,-0.070917,-0.114719,0.032931,-0.027776,-0.033078,0.107528,-0.764742,0.634439,-101.157126,-4.924730,-168.041740
00168,NaN,0.821108,-9.577537,-2.006826,0.000021,0.112939,0.006581,-0.107458,0.029460,-0.024907,-0.032862,0.107548,-0.765064,0.634058,-101.215675,-4.939291,-168.053160
00169,NaN,0.825748,-9.502871,-2.005395,-0.008960,0.114638,-0.066160,-0.099854,0.026257,-0.025710,-0.032656,0.107575,-0.765362,0.633705,-101.269966,-4.953918,-168.063443
00170,NaN,0.751627,-9.549188,-2.009206,0.072755,0.117641,-0.026488,-0.086567,0.014021,-0.032681,-0.032485,0.107670,-0.765611,0.633397,-101.317370,-4.971136,-168.065254
00171,NaN,0.684626,-9.471528,-2.017156,0.131653,0.145872,-0.106563,-0.077244,0.012401,-0.038185,-0.032304,0.107785,-0.765827,0.633125,-101.359497,-4.991218,-168.066377
00172,NaN,0.668667,-9.535712,-2.020916,0.159538,0.135504,-0.044515,-0.072519,0.005350,-0.045357,-0.032135,0.107954,-0.766023,0.632868,-101.399404,-5.014578,-168.061835
00173,NaN,0.695072,-9.466500,-1.988072,0.136686,0.105602,-0.116279,-0.056369,-0.008008,-0.054517,-0.031992,0.108192,-0.766161,0.632667,-101.430755,-5.041525,-168.049524
00174,NaN,0.757170,-9.505981,-2.107129,0.064243,0.196088,-0.048754,-0.055460,-0.035028,-0.053861,-0.031959,0.108519,-0.766292,0.632455,-101.462986,-5.065064,-168.021219
00175,NaN,0.727331,-9.488615,-1.999691,0.115825,0.096694,-0.089580,-0.067979,-0.059586,-0.049745,-0.032022,0.108904,-0.766461,0.632181,-101.503529,-5.083428,-167.980340
00176,NaN,0.907772,-9.534494,-1.884561,-0.027914,-0.065369,-0.051686,-0.062631,-0.064088,-0.057393,-0.032086,0.109337,-0.766607,0.631925,-101.541382,-5.105587,-167.935217
00177,NaN,0.976181,-9.567463,-1.836376,-0.076024,-0.137687,-0.023059,-0.072305,-0.046434,-0.056644,-0.032073,0.109706,-0.766788,0.631643,-101.583831,-5.129273,-167.901104
00178,NaN,0.966003,-9.579744,-1.856339,-0.062501,-0.124327,-0.008032,-0.064877,-0.030574,-0.060466,-0.031997,0.110046,-0.766944,0.631397,-101.621351,-5.156956,-167.874477
00179,NaN,0.940884,-9.535269,-1.919585,-0.049461,-0.055636,-0.041000,-0.069424,-0.001205,-0.058322,-0.031809,0.110279,-0.767122,0.631150,-101.659922,-5.186762,-167.865418
00180,NaN,0.842545,-9.559969,-2.005376,0.039860,0.038141,-0.008537,-0.060949,0.008935,-0.061295,-0.031581,0.110496,-0.767272,0.630941,-101.693212,-5.219457,-167.860917
00181,NaN,0.754860,-9.528617,-1.980108,0.133111,0.033552,-0.052240,-0.063269,0.025938,-0.069626,-0.031256,0.110686,-0.767428,0.630735,-101.726983,-5.258756,-167.865929
00182,NaN,0.824194,-9.492048,-2.003193,0.064413,0.044081,-0.076930,-0.053941,0.024365,-0.075140,-0.030929,0.110907,-0.767550,0.630563,-101.755617,-5.301011,-167.868461
00183,NaN,0.942872,-9.504278,-1.983818,-0.037837,-0.004771,-0.057977,-0.053228,0.023154,-0.075749,-0.030601,0.111128,-0.767670,0.630394,-101.783862,-5.343417,-167.870965
00184,NaN,1.002458,-9.500729,-2.004396,-0.092346,0.000467,-0.051650,-0.043732,0.029535,-0.070954,-0.030274,0.111314,-0.767763,0.630264,-101.806328,-5.383932,-167.876863
00185,NaN,1.067921,-9.443928,-1.997988,-0.155099,-0.011276,-0.102075,-0.042645,0.040311,-0.064799,-0.029920,0.111437,-0.767858,0.630143,-101.827463,-5.422214,-167.890434
00186,NaN,1.001320,-9.511838,-2.024879,-0.079371,0.014040,-0.036628,-0.042808,0.046014,-0.057751,-0.029571,0.111521,-0.767958,0.630024,-101.848367,-5.457267,-167.907144
00187,NaN,0.972546,-9.519787,-2.068919,-0.052005,0.059017,-0.022569,-0.037404,0.053244,-0.054954,-0.029201,0.111564,-0.768043,0.629929,-101.865686,-5.491564,-167.929096
00188,NaN,0.850342,-9.569837,-2.051240,0.083656,0.057054,0.010865,-0.031409,0.051323,-0.063053,-0.028822,0.111650,-0.768105,0.629856,-101.879814,-5.530226,-167.948149
00189,NaN,0.814560,-9.609943,-2.050569,0.131306,0.056069,0.046266,-0.022395,0.054288,-0.069963,-0.028409,0.111745,-0.768135,0.629821,-101.888617,-5.573073,-167.968960
00190,NaN,0.852610,-9.580612,-2.025705,0.102733,0.029944,0.016203,-0.016360,0.045627,-0.079896,-0.028007,0.111912,-0.768138,0.629806,-101.894602,-5.620511,-167.982796
00191,NaN,0.932916,-9.559645,-1.902765,0.052541,-0.100089,-0.021627,-0.009694,0.034698,-0.085171,-0.027629,0.112125,-0.768117,0.629811,-101.897363,-5.669571,-167.990747
00192,NaN,1.009337,-9.469980,-1.894393,-0.024349,-0.106594,-0.103103,-0.012602,0.026065,-0.086526,-0.027282,0.112378,-0.768102,0.629799,-101.902344,-5.718417,-167.992770
00193,NaN,1.034796,-9.476003,-1.952529,-0.050983,-0.056593,-0.082733,-0.020086,0.023659,-0.079134,-0.026961,0.112606,-0.768114,0.629757,-101.911617,-5.762793,-167.995023
00194,NaN,1.065397,-9.500917,-1.996301,-0.077460,-0.025035,-0.046364,-0.016214,0.038140,-0.080264,-0.026586,0.112797,-0.768116,0.629737,-101.917904,-5.809558,-168.004582
00195,NaN,0.860823,-9.512752,-2.060156,0.119608,0.077209,-0.042455,-0.014801,0.042466,-0.079619,-0.026193,0.112966,-0.768114,0.629725,-101.923068,-5.856431,-168.017400
00196,NaN,0.833356,-9.594549,-2.156687,0.149174,0.161466,0.054066,-0.022324,0.052552,-0.094502,-0.025715,0.113167,-0.768128,0.629692,-101.932182,-5.912886,-168.033377
00197,NaN,0.658773,-9.605563,-1.981580,0.363019,0.028623,0.010493,-0.003241,0.057645,-0.112586,-0.025167,0.113414,-0.768072,0.629737,-101.930216,-5.980032,-168.050859
00198,NaN,0.695435,-9.508827,-2.111462,0.301598,0.166721,-0.053542,0.008650,0.043072,-0.127071,-0.024640,0.113766,-0.767969,0.629821,-101.922512,-6.053623,-168.057619
00199,NaN,0.843286,-9.352160,-2.205056,0.130126,0.257120,-0.171461,-0.017921,0.036483,-0.120666,-0.024139,0.114112,-0.767952,0.629799,-101.930287,-6.122786,-168.062191
00200,NaN,1.089074,-9.340007,-2.073589,-0.075693,0.082935,-0.184137,-0.028421,0.048638,-0.107434,-0.023631,0.114375,-0.767976,0.629740,-101.943221,-6.186030,-168.074419
00201,NaN,1.130650,-9.525439,-2.042321,-0.073121,0.011817,-0.005652,-0.007418,0.044075,-0.099430,-0.023174,0.114614,-0.767938,0.629760,-101.944230,-6.244179,-168.085829
00202,NaN,1.196577,-9.469449,-2.073441,-0.141954,0.040702,-0.046439,0.004601,0.044304,-0.087950,-0.022763,0.114812,-0.767869,0.629823,-101.938233,-6.295988,-168.097935
00203,NaN,1.283887,-9.633449,-2.071220,-0.193552,-0.006975,0.122308,-0.017141,0.057994,-0.085105,-0.022292,0.114954,-0.767872,0.629811,-101.943741,-6.347759,-168.118908
00204,NaN,1.295321,-9.557772,-1.973993,-0.190102,-0.086768,0.030169,0.011163,0.082148,-0.075594,-0.021779,0.114985,-0.767793,0.629920,-101.931430,-6.397126,-168.153838
00205,NaN,1.131638,-9.411796,-1.759969,-0.006810,-0.229926,-0.173855,-0.005094,0.099335,-0.070065,-0.021205,0.114938,-0.767770,0.629975,-101.927227,-6.445358,-168.199706
00206,NaN,1.136495,-9.389516,-1.690404,0.004837,-0.292700,-0.209230,-0.028446,0.096800,-0.060932,-0.020658,0.114871,-0.767825,0.629938,-101.936423,-6.488238,-168.244662
00207,NaN,1.153960,-9.353877,-1.651270,-0.003675,-0.327947,-0.249959,-0.034255,0.075428,-0.060072,-0.020189,0.114862,-0.767897,0.629867,-101.950195,-6.528055,-168.278533
00208,NaN,1.191301,-9.346229,-1.739689,-0.050478,-0.250449,-0.234982,-0.038194,0.028492,-0.053761,-0.019922,0.114983,-0.767980,0.629753,-101.969212,-6.558827,-168.285793
00209,NaN,1.235095,-9.306332,-1.872559,-0.117609,-0.127001,-0.241387,-0.045344,-0.020672,-0.043252,-0.019869,0.115215,-0.768087,0.629582,-101.995305,-6.577795,-168.267222
00210,NaN,1.324869,-9.243190,-1.994554,-0.232731,-0.020850,-0.267245,-0.056769,-0.052538,-0.029448,-0.019979,0.115500,-0.768234,0.629347,-102.029869,-6.585285,-168.231661
00211,NaN,1.409295,-9.353200,-1.972384,-0.292499,-0.085553,-0.155261,-0.071522,-0.048523,-0.009557,-0.020124,0.115693,-0.768439,0.629056,-102.072320,-6.582073,-168.201374
00212,NaN,1.320805,-9.414696,-1.905050,-0.184548,-0.150624,-0.119727,-0.069545,-0.036733,-0.000677,-0.020257,0.115819,-0.768644,0.628778,-102.112783,-6.575292,-168.178193
00213,NaN,1.217122,-9.441579,-1.993272,-0.095406,-0.056719,-0.087174,-0.074042,-0.021585,0.013171,-0.020368,0.115840,-0.768873,0.628490,-102.154601,-6.562509,-168.165866
00214,NaN,0.959695,-9.570865,-2.116722,0.151843,0.083826,0.034795,-0.064599,-0.015133,0.018080,-0.020480,0.115825,-0.769076,0.628241,-102.190569,-6.547800,-168.157154
00215,NaN,1.113841,-9.415274,-2.102293,-0.021088,0.061061,-0.101689,-0.051242,-0.037111,0.025062,-0.020701,0.115846,-0.769238,0.628031,-102.220122,-6.526454,-168.137652
00216,NaN,1.197068,-9.305844,-1.873424,-0.080999,-0.162256,-0.246679,-0.066430,-0.044320,0.036581,-0.020982,0.115852,-0.769454,0.627757,-102.258740,-6.497830,-168.114770
00217,NaN,1.381424,-9.264472,-1.774647,-0.252984,-0.295625,-0.287104,-0.087349,-0.036653,0.057731,-0.021284,0.115751,-0.769749,0.627404,-102.308509,-6.458245,-168.099413
00218,NaN,1.508936,-9.228315,-1.746289,-0.383288,-0.352587,-0.314426,-0.100814,-0.037249,0.086952,-0.021675,0.115545,-0.770102,0.626995,-102.365649,-6.402255,-168.086773
00219,NaN,1.390426,-9.308737,-1.864382,-0.286052,-0.241614,-0.225114,-0.106006,-0.031620,0.130623,-0.022173,0.115147,-0.770497,0.626566,-102.424677,-6.322510,-168.083704
00220,NaN,1.480192,-9.203080,-2.189762,-0.460215,0.060018,-0.248835,-0.095488,-0.052449,0.167208,-0.022878,0.114678,-0.770876,0.626159,-102.478562,-6.219714,-168.072600
00221,NaN,1.335462,-9.133139,-2.225310,-0.353318,0.123987,-0.325357,-0.102197,-0.076534,0.213275,-0.023811,0.114102,-0.771300,0.625708,-102.536999,-6.088128,-168.054623
00222,NaN,1.460896,-9.258263,-1.958439,-0.429884,-0.198390,-0.249168,-0.146767,-0.086966,0.250086,-0.024879,0.113428,-0.771881,0.625072,-102.621133,-5.934656,-168.034744
00223,NaN,1.456878,-9.644271,-2.039712,-0.409060,-0.214452,0.141280,-0.164219,-0.068752,0.287235,-0.025978,0.112550,-0.772538,0.624374,-102.713604,-5.762663,-168.030723
00224,NaN,1.348417,-9.623333,-2.082988,-0.341897,-0.169178,0.118072,-0.182316,-0.023907,0.335509,-0.027049,0.111353,-0.773282,0.623622,-102.813368,-5.569376,-168.057629
00225,NaN,1.360578,-9.725730,-2.001813,-0.355505,-0.292717,0.199109,-0.174413,0.034644,0.367723,-0.027994,0.109842,-0.774024,0.622927,-102.905075,-5.365651,-168.122580
00226,NaN,1.004211,-9.578888,-2.077604,-0.073342,-0.138280,0.038981,-0.140397,0.085515,0.369838,-0.028771,0.108164,-0.774665,0.622388,-102.974917,-5.167316,-168.215849
00227,NaN,0.618555,-9.529303,-2.191474,0.245000,0.041214,-0.018252,-0.126213,0.082332,0.361774,-0.029538,0.106520,-0.775255,0.621901,-103.037088,-4.973214,-168.307304
00228,NaN,0.385344,-9.503662,-2.224615,0.434003,0.108251,-0.054776,-0.114555,0.036083,0.330746,-0.030399,0.105142,-0.775781,0.621437,-103.095504,-4.790500,-168.368185
00229,NaN,0.119194,-9.341478,-2.396796,0.615780,0.344977,-0.193758,-0.087405,-0.028222,0.287843,-0.031385,0.104121,-0.776189,0.621050,-103.141847,-4.623484,-168.388499
00230,NaN,-0.021261,-9.252453,-2.584794,0.683906,0.558605,-0.246618,-0.081691,-0.113004,0.239950,-0.032560,0.103554,-0.776540,0.620647,-103.189322,-4.472075,-168.354344
00231,NaN,0.112481,-9.337557,-2.680923,0.523483,0.594601,-0.129592,-0.059614,-0.189824,0.197061,-0.033906,0.103382,-0.776785,0.620296,-103.227677,-4.334512,-168.272617
00232,NaN,0.386622,-9.373813,-2.540894,0.264152,0.388287,-0.104268,-0.034737,-0.234124,0.161450,-0.035331,0.103487,-0.776926,0.620023,-103.253886,-4.210945,-168.160603
00233,NaN,0.553779,-9.557750,-2.396648,0.129273,0.169357,0.054214,-0.034835,-0.254996,0.143392,-0.036777,0.103720,-0.777053,0.619741,-103.280852,-4.094672,-168.035502
00234,NaN,0.831912,-9.850482,-2.314482,-0.111360,-0.037210,0.339509,-0.042688,-0.238196,0.134113,-0.038129,0.103945,-0.777200,0.619436,-103.311567,-3.985702,-167.917754
00235,NaN,0.883250,-9.927733,-2.321540,-0.171549,-0.065020,0.419413,-0.005532,-0.204941,0.131084,-0.039356,0.104065,-0.777236,0.619294,-103.319431,-3.882809,-167.819225
00236,NaN,0.726394,-9.683861,-2.275204,-0.054947,-0.029635,0.161151,0.002417,-0.182054,0.139374,-0.040530,0.104087,-0.777255,0.619192,-103.321726,-3.778268,-167.733621
00237,NaN,0.593115,-9.648106,-2.313360,0.046035,0.038265,0.126415,0.000015,-0.174608,0.141223,-0.041674,0.104072,-0.777283,0.619083,-103.324861,-3.673693,-167.653414
00238,NaN,0.693878,-9.562100,-2.404120,-0.097119,0.117894,0.070210,0.015467,-0.160969,0.145289,-0.042790,0.104002,-0.777266,0.619039,-103.318572,-3.568636,-167.580394
00239,NaN,0.698207,-9.550090,-2.262997,-0.092978,-0.017186,0.026210,0.028814,-0.135076,0.146371,-0.043811,0.103838,-0.777214,0.619061,-103.303510,-3.466379,-167.522971
00240,NaN,0.620030,-9.513698,-2.271652,-0.039789,0.014932,-0.012000,0.039465,-0.117427,0.142352,-0.044762,0.103640,-0.777130,0.619132,-103.281787,-3.368733,-167.473848
00241,NaN,0.397433,-9.557786,-2.342099,0.151155,0.121395,0.033990,0.045035,-0.103579,0.133503,-0.045630,0.103426,-0.777026,0.619234,-103.256372,-3.277886,-167.432103
00242,NaN,0.161668,-9.523510,-2.381772,0.353950,0.220144,-0.003382,0.069965,-0.107743,0.109291,-0.046456,0.103319,-0.776831,0.619436,-103.216966,-3.199997,-167.383960
00243,NaN,0.157603,-9.421368,-2.488096,0.312463,0.349026,-0.078307,0.088932,-0.121213,0.078916,-0.047246,0.103360,-0.776558,0.619711,-103.167201,-3.137304,-167.325196
00244,NaN,0.310843,-9.421611,-2.403763,0.168535,0.241924,-0.088773,0.099942,-0.139215,0.052600,-0.048034,0.103564,-0.776232,0.620025,-103.111876,-3.087029,-167.251946
00245,NaN,0.432906,-9.429012,-2.316589,0.058594,0.138963,-0.094791,0.116676,-0.127338,0.026720,-0.048700,0.103820,-0.775844,0.620416,-103.046672,-3.052768,-167.182854
00246,NaN,0.525727,-9.483074,-2.325367,-0.035751,0.125398,-0.035397,0.120442,-0.105790,0.016215,-0.049257,0.104056,-0.775442,0.620834,-102.978773,-3.027279,-167.123483
00247,NaN,0.488556,-9.513100,-2.382009,-0.014636,0.192743,0.004356,0.137297,-0.079706,0.006218,-0.049686,0.104240,-0.774990,0.621334,-102.900475,-3.010756,-167.078145
00248,NaN,0.471229,-9.509657,-2.311368,0.011091,0.143189,-0.015881,0.149038,-0.055533,-0.001710,-0.050007,0.104382,-0.774501,0.621893,-102.814807,-3.001848,-167.044530
00249,NaN,0.468807,-9.472976,-2.198639,0.028966,0.058145,-0.076834,0.154299,-0.043955,-0.013834,-0.050243,0.104527,-0.773993,0.622482,-102.725796,-3.001196,-167.016830
00250,NaN,0.285585,-9.503734,-2.115837,0.224628,0.029353,-0.074723,0.161722,-0.039808,-0.027964,-0.050428,0.104718,-0.773455,0.623104,-102.632573,-3.009046,-166.988683
00251,NaN,0.094445,-9.495737,-2.060576,0.419995,0.037410,-0.104645,0.162961,-0.044212,-0.049719,-0.050558,0.105001,-0.772900,0.623734,-102.538862,-3.028500,-166.956291
00252,NaN,0.282237,-9.542999,-2.084116,0.237633,0.024602,-0.043607,0.160376,-0.059711,-0.072467,-0.050680,0.105426,-0.772336,0.624351,-102.447313,-3.058869,-166.911496
00253,NaN,0.381555,-9.557409,-2.031782,0.155463,-0.033535,-0.035547,0.169421,-0.066291,-0.086692,-0.050783,0.105918,-0.771734,0.625003,-102.350831,-3.096383,-166.862273
00254,NaN,0.497352,-9.578867,-2.036667,0.047022,-0.041919,-0.007277,0.165050,-0.074000,-0.097526,-0.050885,0.106484,-0.771137,0.625635,-102.257259,-3.139183,-166.806500
00255,NaN,0.595487,-9.614519,-2.096803,-0.053743,0.003619,0.045672,0.165977,-0.053178,-0.099287,-0.050896,0.106984,-0.770541,0.626283,-102.162497,-3.185533,-166.763265
00256,NaN,0.609377,-9.636671,-2.066373,-0.054138,-0.014586,0.061699,0.175059,-0.018138,-0.101653,-0.050774,0.107388,-0.769924,0.626983,-102.061545,-3.237546,-166.738478
00257,NaN,0.522939,-9.651462,-2.197847,0.008310,0.147684,0.098559,0.188196,0.015999,-0.102117,-0.050523,0.107677,-0.769273,0.627752,-101.951961,-3.293861,-166.733711
00258,NaN,0.336229,-9.688534,-2.320694,0.172696,0.322445,0.148864,0.205544,0.024815,-0.108600,-0.050231,0.107965,-0.768564,0.628593,-101.832229,-3.354936,-166.732422
00259,NaN,0.188370,-9.654063,-2.191743,0.346449,0.263400,0.079264,0.226717,0.022101,-0.128831,-0.049892,0.108327,-0.767777,0.629519,-101.700530,-3.426973,-166.728350
00260,NaN,0.252711,-9.729061,-2.156997,0.306227,0.226511,0.148537,0.221340,0.007784,-0.135760,-0.049588,0.108769,-0.766998,0.630416,-101.572502,-3.501326,-166.714614
00261,NaN,0.252528,-9.838731,-2.144357,0.327830,0.220242,0.252432,0.239048,-0.024597,-0.144090,-0.049386,0.109333,-0.766150,0.631365,-101.435464,-3.576616,-166.682887
00262,NaN,0.411618,-9.737735,-1.992171,0.202062,0.083006,0.132858,0.249942,-0.056701,-0.145404,-0.049314,0.110007,-0.765256,0.632337,-101.293419,-3.649170,-166.632117
00263,NaN,0.709212,-9.696178,-1.804790,-0.045125,-0.131335,0.074515,0.244465,-0.092839,-0.137460,-0.049398,0.110760,-0.764374,0.633265,-101.155760,-3.713260,-166.563028
00264,NaN,0.724884,-9.648004,-1.797960,-0.059856,-0.107538,0.027379,0.254856,-0.121475,-0.117630,-0.049664,0.111531,-0.763461,0.634210,-101.013167,-3.763310,-166.479174
00265,NaN,1.038295,-9.420088,-1.748910,-0.376221,-0.164562,-0.184284,0.241064,-0.128393,-0.086732,-0.050043,0.112204,-0.762605,0.635090,-100.878528,-3.795321,-166.395751
00266,NaN,1.249258,-9.379499,-1.462023,-0.522777,-0.461082,-0.263486,0.209706,-0.104645,-0.058236,-0.050408,0.112706,-0.761870,0.635854,-100.760831,-3.814141,-166.328019
00267,NaN,1.191840,-9.436288,-1.451682,-0.461327,-0.448669,-0.212831,0.191559,-0.061676,-0.013699,-0.050737,0.112900,-0.761227,0.636563,-100.651571,-3.812524,-166.290176
00268,NaN,1.023260,-9.331742,-1.682269,-0.365906,-0.153357,-0.283728,0.198538,-0.028077,0.022793,-0.051062,0.112853,-0.760590,0.637306,-100.536832,-3.794042,-166.274291
00269,NaN,1.076010,-9.283073,-1.700272,-0.434647,-0.124705,-0.324817,0.170099,-0.024434,0.052188,-0.051446,0.112684,-0.760061,0.637936,-100.438018,-3.759367,-166.264276
00270,NaN,1.020481,-9.355166,-1.592942,-0.360500,-0.212097,-0.277332,0.168637,-0.040554,0.087282,-0.052007,0.112439,-0.759551,0.638541,-100.340419,-3.703308,-166.247956
00271,NaN,1.037903,-9.426261,-1.633514,-0.393219,-0.176670,-0.199459,0.145454,-0.044142,0.120978,-0.052671,0.112076,-0.759133,0.639047,-100.255916,-3.627850,-166.233993
00272,NaN,1.021477,-9.502465,-1.630548,-0.385674,-0.177778,-0.126689,0.134620,-0.030296,0.152133,-0.053381,0.111561,-0.758769,0.639511,-100.177000,-3.536315,-166.229906
00273,NaN,0.905824,-9.572484,-1.705970,-0.302848,-0.079750,-0.052299,0.137173,0.005768,0.183430,-0.054051,0.110804,-0.758424,0.639995,-100.095127,-3.430718,-166.250147
00274,NaN,0.794499,-9.497539,-1.761387,-0.236105,0.020846,-0.123480,0.140414,0.021528,0.199870,-0.054720,0.109940,-0.758080,0.640495,-100.010887,-3.317447,-166.279870
00275,NaN,0.715595,-9.531763,-1.685526,-0.162255,-0.029687,-0.108033,0.134599,0.020321,0.221352,-0.055455,0.108994,-0.757765,0.640966,-99.929915,-3.191845,-166.311720
00276,NaN,0.679421,-9.525833,-1.615882,-0.136413,-0.079241,-0.128203,0.125813,0.019947,0.231443,-0.056223,0.108019,-0.757482,0.641398,-99.854067,-3.060514,-166.343335
00277,NaN,0.660766,-9.687784,-1.524089,-0.108148,-0.181396,0.014213,0.109643,0.029649,0.244196,-0.056981,0.106963,-0.757260,0.641770,-99.787165,-2.922878,-166.382372
00278,NaN,0.607590,-9.786352,-1.462573,-0.060229,-0.237383,0.097960,0.110470,0.051568,0.253977,-0.057693,0.105805,-0.757045,0.642153,-99.719276,-2.781816,-166.433729
00279,NaN,0.494951,-9.798274,-1.472850,0.020964,-0.197132,0.106036,0.113213,0.066763,0.260328,-0.058364,0.104567,-0.756827,0.642552,-99.649449,-2.638564,-166.495038
00280,NaN,0.343078,-9.706555,-1.501290,0.127841,-0.114605,0.013769,0.110981,0.082715,0.256963,-0.058968,0.103297,-0.756617,0.642949,-99.580735,-2.498673,-166.563940
00281,NaN,0.189103,-9.662479,-1.470554,0.255192,-0.096331,-0.040925,0.102816,0.092952,0.247946,-0.059495,0.102024,-0.756431,0.643323,-99.516596,-2.364747,-166.638482
00282,NaN,0.096872,-9.680138,-1.496704,0.316321,-0.047015,-0.022270,0.111038,0.084438,0.228974,-0.060002,0.100854,-0.756204,0.643727,-99.448249,-2.240677,-166.705377
00283,NaN,0.112244,-9.697096,-1.515564,0.275664,-0.028678,-0.001146,0.111480,0.067788,0.214315,-0.060520,0.099787,-0.755962,0.644128,-99.380139,-2.123244,-166.762225
00284,NaN,0.142169,-9.794315,-1.558235,0.222940,-0.002565,0.103318,0.106696,0.074172,0.194206,-0.060952,0.098782,-0.755726,0.644519,-99.314888,-2.017718,-166.819772
00285,NaN,0.168593,-9.827187,-1.519909,0.188723,-0.043333,0.130885,0.109276,0.092905,0.172036,-0.061238,0.097795,-0.755476,0.644936,-99.247929,-1.926411,-166.886532
00286,NaN,0.170981,-9.724208,-1.502857,0.166175,-0.036681,0.026980,0.119392,0.119504,0.149232,-0.061359,0.096810,-0.755189,0.645409,-99.174886,-1.850341,-166.965347
00287,NaN,0.018548,-9.619312,-1.475978,0.299447,-0.003866,-0.085390,0.110212,0.147664,0.123036,-0.061280,0.095830,-0.754927,0.645869,-99.106710,-1.791541,-167.058448
00288,NaN,-0.010960,-9.707250,-1.486642,0.320820,0.008363,0.002501,0.097912,0.163486,0.095654,-0.061052,0.094912,-0.754695,0.646297,-99.045522,-1.749575,-167.157129
00289,NaN,-0.017298,-9.799825,-1.470099,0.328419,-0.011054,0.091356,0.103717,0.166099,0.067334,-0.060722,0.094085,-0.754431,0.646757,-98.981072,-1.723728,-167.255361
00290,NaN,-0.020121,-9.801417,-1.459416,0.327902,-0.010809,0.091373,0.114937,0.165301,0.039803,-0.060314,0.093367,-0.754117,0.647265,-98.910341,-1.713311,-167.349993
00291,NaN,-0.192814,-9.861165,-1.547299,0.478386,0.114172,0.158871,0.111042,0.156968,0.012185,-0.059842,0.092775,-0.753799,0.647764,-98.842004,-1.717631,-167.438230
00292,NaN,-0.203616,-9.862723,-1.961943,0.400602,0.526563,0.223559,0.086595,0.141782,0.010644,-0.059416,0.092250,-0.753555,0.648163,-98.787988,-1.721441,-167.516955
00293,NaN,-0.497324,-9.791885,-2.478769,0.573496,1.110479,0.222778,0.126685,-0.085139,-0.038009,-0.059701,0.092628,-0.753090,0.648622,-98.714970,-1.732936,-167.463594
00294,NaN,-0.150091,-9.417934,-1.141619,0.493540,-0.189919,-0.339376,0.123597,-0.220943,-0.107071,-0.060276,0.093711,-0.752562,0.649027,-98.646305,-1.771869,-167.326603
00295,NaN,0.061405,-9.590724,-1.196678,0.292916,-0.191246,-0.153734,0.163826,-0.080937,-0.145022,-0.060216,0.094466,-0.751927,0.649659,-98.552291,-1.844433,-167.266499
00296,NaN,-0.090028,-9.626438,-1.367155,0.416708,0.020302,-0.098192,0.154479,-0.095621,-0.180356,-0.060095,0.095409,-0.751299,0.650258,-98.464118,-1.935928,-167.194452
00297,NaN,0.107034,-9.714770,-1.044379,0.312943,-0.328602,-0.051899,0.147011,-0.086540,-0.205057,-0.059853,0.096412,-0.750686,0.650841,-98.380192,-2.042235,-167.126406
00298,NaN,0.333945,-9.351063,-0.888025,0.115824,-0.461454,-0.425671,0.189476,-0.127599,-0.215856,-0.059754,0.097581,-0.749915,0.651564,-98.272989,-2.151430,-167.033553
00299,NaN,0.373790,-9.148170,-0.794037,0.097978,-0.516614,-0.637575,0.119765,-0.174732,-0.210720,-0.059809,0.098900,-0.749358,0.652000,-98.206833,-2.253930,-166.915394
00300,NaN,0.782007,-9.133680,-0.925362,-0.314911,-0.468483,-0.616315,0.079762,-0.171839,-0.189418,-0.059908,0.100147,-0.748941,0.652280,-98.163730,-2.344752,-166.799846
00301,NaN,1.052532,-9.117778,-0.981408,-0.579421,-0.466487,-0.612062,0.049601,-0.144005,-0.148323,-0.060018,0.101153,-0.748650,0.652448,-98.137212,-2.414530,-166.704236
00302,NaN,1.185942,-9.265949,-1.116358,-0.718756,-0.381961,-0.439961,0.014820,-0.102853,-0.108303,-0.060090,0.101890,-0.748505,0.652494,-98.129650,-2.465040,-166.634504
00303,NaN,1.263616,-9.322007,-1.243071,-0.812156,-0.282616,-0.362699,0.017220,-0.050822,-0.060341,-0.060123,0.102273,-0.748392,0.652560,-98.119257,-2.492455,-166.598832
00304,NaN,1.018062,-9.291565,-1.398028,-0.608350,-0.070444,-0.381406,0.018351,-0.022558,-0.011553,-0.060212,0.102386,-0.748308,0.652631,-98.107413,-2.494604,-166.582534
00305,NaN,0.928969,-9.123672,-1.633602,-0.588927,0.199339,-0.518255,0.000301,-0.015387,0.033668,-0.060409,0.102305,-0.748309,0.652624,-98.105490,-2.471597,-166.574693
00306,NaN,1.171148,-9.162893,-1.719018,-0.845669,0.218428,-0.457350,-0.025088,-0.000260,0.074627,-0.060674,0.102036,-0.748418,0.652517,-98.117683,-2.426665,-166.578029
00307,NaN,1.207348,-9.258762,-1.616364,-0.859243,0.094987,-0.376180,-0.028890,0.049563,0.120768,-0.060897,0.101426,-0.748577,0.652408,-98.130619,-2.359535,-166.614243
00308,NaN,1.021196,-9.200153,-1.456142,-0.658679,-0.013596,-0.465391,-0.035667,0.093836,0.167434,-0.061107,0.100505,-0.748796,0.652281,-98.146418,-2.269598,-166.678548
00309,NaN,1.010218,-9.237148,-1.271742,-0.619607,-0.199713,-0.456462,-0.050866,0.129997,0.206992,-0.061299,0.099317,-0.749094,0.652102,-98.170047,-2.160116,-166.767352
00310,NaN,1.200715,-9.241456,-1.302500,-0.829935,-0.221028,-0.442252,-0.049508,0.159326,0.246674,-0.061515,0.097890,-0.749414,0.651929,-98.192426,-2.030628,-166.875346
00311,NaN,0.962309,-9.291397,-1.258836,-0.606426,-0.222849,-0.409320,-0.052270,0.194867,0.277671,-0.061694,0.096227,-0.749769,0.651753,-98.215831,-1.886520,-167.006730
00312,NaN,0.687258,-9.281116,-1.289844,-0.369588,-0.137817,-0.425489,-0.049950,0.199328,0.300690,-0.061936,0.094467,-0.750125,0.651577,-98.238146,-1.729767,-167.141934
00313,NaN,0.432555,-9.321209,-1.390202,-0.165322,0.000891,-0.379909,-0.065921,0.190830,0.309185,-0.062225,0.092702,-0.750532,0.651334,-98.270054,-1.567572,-167.273759
00314,NaN,0.064924,-9.496863,-1.432056,0.169189,0.086916,-0.210127,-0.077280,0.163038,0.312048,-0.062627,0.091025,-0.750967,0.651031,-98.309295,-1.401529,-167.389469
00315,NaN,-0.533326,-9.707137,-1.574417,0.708420,0.311495,0.005295,-0.107452,0.123486,0.315999,-0.063172,0.089467,-0.751487,0.650594,-98.366656,-1.230146,-167.483846
00316,NaN,-0.342482,-10.249776,-1.257611,0.590883,-0.130625,0.501889,-0.156302,0.144267,0.320316,-0.063634,0.087844,-0.752171,0.649979,-98.452053,-1.058086,-167.589938
00317,NaN,0.126804,-10.283399,-1.252500,0.109394,-0.259424,0.543654,-0.085505,0.148221,0.278162,-0.063972,0.086341,-0.752606,0.649643,-98.497178,-0.910487,-167.695590
00318,NaN,0.000094,-10.135678,-1.097669,0.234226,-0.375157,0.372654,-0.086956,0.171166,0.272552,-0.064208,0.084788,-0.753049,0.649312,-98.543238,-0.767981,-167.813194
00319,NaN,-0.147930,-9.948766,-1.199756,0.326804,-0.232220,0.201226,-0.086056,0.194983,0.260152,-0.064311,0.083200,-0.753489,0.648997,-98.588893,-0.634749,-167.943989
00320,NaN,-0.388288,-9.679210,-1.219541,0.526003,-0.138350,-0.064390,-0.104598,0.174800,0.245238,-0.064437,0.081743,-0.753974,0.648606,-98.645612,-0.508227,-168.061541
00321,NaN,-0.246112,-9.575915,-1.459236,0.315831,0.063734,-0.128461,-0.122386,0.157134,0.229831,-0.064569,0.080404,-0.754503,0.648144,-98.712860,-0.389159,-168.168471
00322,NaN,-0.081577,-9.600311,-1.393544,0.152335,-0.053135,-0.112764,-0.131017,0.147793,0.214267,-0.064686,0.079160,-0.755049,0.647650,-98.785307,-0.278093,-168.268317
00323,NaN,-0.137039,-9.694463,-1.396921,0.193799,-0.068193,-0.019295,-0.121362,0.139314,0.199747,-0.064786,0.077990,-0.755554,0.647193,-98.852375,-0.174769,-168.362970
00324,NaN,-0.182569,-9.702756,-1.646202,0.175059,0.167226,0.027442,-0.097699,0.154251,0.178509,-0.064776,0.076849,-0.755977,0.646836,-98.906085,-0.084744,-168.463560
00325,NaN,-0.263108,-9.707649,-1.610590,0.248877,0.135305,0.027100,-0.106692,0.152997,0.165186,-0.064719,0.075762,-0.756424,0.646448,-98.965100,-0.002448,-168.562978
00326,NaN,-0.123111,-9.672678,-1.615170,0.098702,0.105254,-0.006374,-0.090069,0.161744,0.149288,-0.064588,0.074704,-0.756811,0.646130,-99.014727,0.070175,-168.665366
00327,NaN,-0.070973,-9.571775,-1.477926,0.061759,-0.032926,-0.127478,-0.088041,0.166424,0.131159,-0.064376,0.073694,-0.757186,0.645828,-99.063202,0.131893,-168.769738
00328,NaN,-0.148919,-9.555454,-1.414458,0.141829,-0.087160,-0.153400,-0.094577,0.163724,0.119317,-0.064139,0.072745,-0.757576,0.645502,-99.115632,0.187203,-168.870659
00329,NaN,-0.123514,-9.549152,-1.425284,0.107410,-0.091151,-0.157992,-0.093525,0.144783,0.109643,-0.063938,0.071889,-0.757952,0.645176,-99.167465,0.238475,-168.960792
00330,NaN,-0.099002,-9.545665,-1.478628,0.066559,-0.054458,-0.153058,-0.104523,0.123369,0.100730,-0.063791,0.071143,-0.758353,0.644802,-99.225664,0.286777,-169.037291
00331,NaN,-0.092191,-9.533700,-1.517847,0.045860,-0.026780,-0.158623,-0.097408,0.101063,0.099647,-0.063721,0.070468,-0.758723,0.644448,-99.279768,0.336183,-169.101828
00332,NaN,-0.125610,-9.488839,-1.585739,0.058806,0.041922,-0.191711,-0.098853,0.080562,0.086964,-0.063693,0.069910,-0.759086,0.644084,-99.334687,0.380522,-169.152940
00333,NaN,-0.267582,-9.503136,-1.547270,0.200556,0.018553,-0.182804,-0.099340,0.057348,0.076797,-0.063716,0.069464,-0.759439,0.643713,-99.389849,0.420991,-169.190615
00334,NaN,-0.307323,-9.530216,-1.624307,0.221315,0.086100,-0.143073,-0.094214,0.027773,0.062318,-0.063811,0.069168,-0.759761,0.643356,-99.441937,0.456250,-169.209662
00335,NaN,-0.253039,-9.618125,-1.756856,0.141652,0.180375,-0.034840,-0.092378,0.015801,0.050759,-0.063911,0.068952,-0.760070,0.643005,-99.492959,0.485884,-169.221418
00336,NaN,-0.268935,-9.621739,-1.651839,0.174212,0.071841,-0.048301,-0.088531,0.012766,0.034694,-0.063976,0.068808,-0.760358,0.642672,-99.541714,0.506921,-169.229430
00337,NaN,-0.359232,-9.623628,-1.685034,0.255332,0.112341,-0.040032,-0.077654,0.005990,0.021525,-0.064023,0.068729,-0.760606,0.642383,-99.584160,0.520971,-169.233101
00338,NaN,-0.321524,-9.526580,-1.699667,0.212937,0.127875,-0.133520,-0.082066,-0.007978,0.007992,-0.064084,0.068751,-0.760858,0.642076,-99.629084,0.528894,-169.226874
00339,NaN,-0.252222,-9.644737,-1.674992,0.152739,0.063301,-0.021731,-0.092209,-0.014853,-0.002753,-0.064128,0.068835,-0.761136,0.641733,-99.679741,0.531298,-169.216438
00340,NaN,-0.312606,-9.687869,-1.608334,0.226804,-0.005337,0.010133,-0.086351,-0.032286,-0.010902,-0.064219,0.069008,-0.761388,0.641407,-99.726976,0.530908,-169.194670
00341,NaN,-0.441016,-9.740275,-1.539497,0.368803,-0.065416,0.051247,-0.106289,-0.063326,-0.016822,-0.064397,0.069308,-0.761691,0.640996,-99.785518,0.529996,-169.155341
00342,NaN,-0.299805,-9.762826,-1.609461,0.219908,-0.037622,0.083940,-0.104859,-0.071700,-0.024755,-0.064587,0.069666,-0.761983,0.640591,-99.843141,0.525678,-169.109967
00343,NaN,-0.111156,-9.701526,-1.544810,0.048591,-0.135072,0.010642,-0.110500,-0.050206,-0.031445,-0.064668,0.069979,-0.762299,0.640173,-99.904123,0.515347,-169.076662
00344,NaN,-0.115008,-9.685472,-1.654312,0.035092,-0.035032,0.013597,-0.098356,-0.044003,-0.032077,-0.064731,0.070275,-0.762576,0.639804,-99.958167,0.504252,-169.046189
00345,NaN,-0.014709,-9.545338,-1.787169,-0.088279,0.090055,-0.102293,-0.090545,-0.033248,-0.030982,-0.064756,0.070525,-0.762833,0.639468,-100.007770,0.492671,-169.022512
00346,NaN,0.005303,-9.528575,-1.741008,-0.096177,0.036307,-0.126909,-0.096361,-0.029923,-0.028264,-0.064778,0.070760,-0.763109,0.639109,-100.060754,0.482376,-169.000343
00347,NaN,0.166222,-9.533378,-1.712892,-0.245985,-0.030646,-0.128398,-0.088108,-0.024519,-0.012899,-0.064827,0.070914,-0.763367,0.638779,-100.109091,0.479971,-168.983326
00348,NaN,0.207434,-9.565234,-1.692838,-0.280180,-0.071446,-0.100899,-0.086968,-0.002621,-0.003181,-0.064829,0.070963,-0.763631,0.638458,-100.156846,0.481109,-168.979067
00349,NaN,0.104869,-9.577806,-1.696705,-0.178824,-0.058314,-0.087011,-0.086521,0.020534,0.007103,-0.064770,0.070895,-0.763905,0.638144,-100.204411,0.485509,-168.989677
00350,NaN,-0.100482,-9.604378,-1.696414,0.024331,-0.032318,-0.059208,-0.090419,0.046897,0.010864,-0.064626,0.070733,-0.764201,0.637822,-100.254392,0.489535,-169.014771
00351,NaN,-0.359010,-9.629384,-1.722875,0.275136,0.029682,-0.027718,-0.088749,0.053585,0.003268,-0.064428,0.070575,-0.764491,0.637512,-100.303402,0.488405,-169.043575
00352,NaN,-0.411539,-9.626296,-1.758120,0.322247,0.065931,-0.024034,-0.090758,0.041969,-0.008829,-0.064240,0.070505,-0.764779,0.637194,-100.353535,0.481794,-169.063876
00353,NaN,-0.445182,-9.608520,-1.737883,0.362012,0.048170,-0.044950,-0.083957,0.007188,-0.029866,-0.064117,0.070621,-0.765027,0.636895,-100.399628,0.466783,-169.062887
00354,NaN,-0.244912,-9.542697,-1.826148,0.151135,0.100112,-0.095435,-0.082146,-0.024952,-0.038955,-0.064092,0.070876,-0.765255,0.636595,-100.444491,0.450099,-169.042342
00355,NaN,-0.107632,-9.611683,-1.793428,0.029205,0.023014,-0.034598,-0.087535,-0.044322,-0.053791,-0.064086,0.071246,-0.765489,0.636274,-100.492265,0.426866,-169.010205
00356,NaN,-0.087538,-9.574656,-1.718833,0.027661,-0.053061,-0.084764,-0.080324,-0.045065,-0.049324,-0.064106,0.071604,-0.765700,0.635976,-100.536009,0.406476,-168.977218
00357,NaN,0.051890,-9.555952,-1.775073,-0.115040,-0.029302,-0.093855,-0.093843,-0.042535,-0.055762,-0.064086,0.071980,-0.765954,0.635631,-100.587520,0.382028,-168.945593
00358,NaN,-0.005399,-9.602177,-1.751187,-0.047417,-0.057195,-0.052412,-0.084835,-0.027753,-0.050380,-0.064034,0.072289,-0.766185,0.635323,-100.633937,0.359273,-168.922210
00359,NaN,-0.095341,-9.565748,-1.813112,0.033390,0.020113,-0.076236,-0.071435,-0.027070,-0.053673,-0.063969,0.072599,-0.766372,0.635068,-100.672628,0.334491,-168.899592
00360,NaN,-0.118563,-9.498932,-1.850017,0.052630,0.066476,-0.134923,-0.077760,-0.029053,-0.055714,-0.063908,0.072930,-0.766578,0.634787,-100.715003,0.308905,-168.874878
00361,NaN,-0.007952,-9.479760,-1.777377,-0.036755,-0.027577,-0.167852,-0.079751,-0.027311,-0.060802,-0.063819,0.073272,-0.766789,0.634502,-100.758508,0.280152,-168.851253
00362,NaN,0.068989,-9.487785,-1.773306,-0.105017,-0.054314,-0.161084,-0.083397,-0.020272,-0.059538,-0.063710,0.073591,-0.767014,0.634205,-100.804158,0.251510,-168.831032
00363,NaN,0.136311,-9.546888,-1.753254,-0.159217,-0.104471,-0.107056,-0.087249,-0.006700,-0.052927,-0.063565,0.073839,-0.767257,0.633896,-100.852021,0.225073,-168.819812
00364,NaN,0.107048,-9.550171,-1.760168,-0.125790,-0.099915,-0.102404,-0.088163,0.013111,-0.048221,-0.063362,0.074011,-0.767511,0.633588,-100.900495,0.199223,-168.819551
00365,NaN,-0.073020,-9.606659,-1.801961,0.050844,-0.042441,-0.038441,-0.087901,0.035659,-0.047557,-0.063069,0.074103,-0.767772,0.633291,-100.948740,0.171235,-168.832905
00366,NaN,-0.433771,-9.608014,-1.811296,0.409594,0.028675,-0.034432,-0.094777,0.024648,-0.054523,-0.062800,0.074264,-0.768048,0.632964,-101.001019,0.140582,-168.838401
00367,NaN,-0.323170,-9.656403,-1.992521,0.275270,0.164402,0.047225,-0.106532,-0.011141,-0.062218,-0.062634,0.074566,-0.768347,0.632582,-101.059890,0.109439,-168.823728
00368,NaN,-0.132966,-9.684705,-1.881142,0.118385,0.006586,0.053205,-0.098124,-0.010412,-0.070069,-0.062448,0.074899,-0.768616,0.632233,-101.114046,0.073898,-168.807739
00369,NaN,-0.040537,-9.658949,-1.837349,0.042681,-0.055793,0.019293,-0.082342,-0.026963,-0.070854,-0.062325,0.075277,-0.768830,0.631941,-101.159064,0.039705,-168.783158
00370,NaN,0.003642,-9.561210,-1.849705,0.000414,-0.040406,-0.074284,-0.082851,-0.030956,-0.067406,-0.062233,0.075660,-0.769046,0.631642,-101.204484,0.007970,-168.755859
00371,NaN,0.137469,-9.502163,-1.934723,-0.142583,0.020022,-0.115656,-0.082927,-0.034703,-0.067562,-0.062150,0.076050,-0.769260,0.631343,-101.249849,-0.023412,-168.727265
00372,NaN,0.241253,-9.444177,-1.891612,-0.232186,-0.037360,-0.180784,-0.083815,-0.021924,-0.053233,-0.062067,0.076350,-0.769486,0.631039,-101.295845,-0.048152,-168.706577
00373,NaN,0.192365,-9.440972,-1.926134,-0.185118,-0.001091,-0.177094,-0.091324,0.001128,-0.053393,-0.061888,0.076575,-0.769742,0.630716,-101.346043,-0.075492,-168.699560
00374,NaN,0.071436,-9.517479,-1.885642,-0.049523,-0.038659,-0.110151,-0.094572,0.021667,-0.048537,-0.061649,0.076722,-0.770017,0.630386,-101.398183,-0.102483,-168.703846
00375,NaN,-0.030926,-9.623398,-1.930094,0.053059,-0.004155,0.002259,-0.095292,0.038706,-0.048986,-0.061336,0.076812,-0.770299,0.630061,-101.450583,-0.131693,-168.718550
00376,NaN,-0.299781,-9.642387,-1.900068,0.330372,0.008370,0.014140,-0.089225,0.048498,-0.058021,-0.060965,0.076910,-0.770562,0.629764,-101.499619,-0.167076,-168.736772
00377,NaN,-0.187082,-9.644749,-1.898284,0.228179,-0.022700,0.016203,-0.085449,0.043270,-0.066023,-0.060586,0.077050,-0.770807,0.629483,-101.546416,-0.206447,-168.751923
00378,NaN,-0.177712,-9.642287,-1.864129,0.234150,-0.063140,0.006754,-0.081082,0.024302,-0.083301,-0.060231,0.077319,-0.771026,0.629216,-101.590826,-0.253269,-168.753601
00379,NaN,-0.123755,-9.515405,-2.002621,0.158516,0.079355,-0.089658,-0.062524,0.003549,-0.087913,-0.059946,0.077660,-0.771179,0.629014,-101.624593,-0.300250,-168.743763
00380,NaN,0.036703,-9.458993,-1.931295,0.021365,-0.014083,-0.158511,-0.076373,-0.020214,-0.095388,-0.059728,0.078115,-0.771364,0.628751,-101.666453,-0.348709,-168.718999
00381,NaN,0.079596,-9.452280,-1.939395,-0.013084,-0.018148,-0.163196,-0.066129,-0.024177,-0.099814,-0.059509,0.078589,-0.771515,0.628528,-101.702351,-0.399201,-168.692390
00382,NaN,0.121004,-9.446452,-1.989440,-0.054037,0.018461,-0.158430,-0.069731,-0.021680,-0.097137,-0.059293,0.079053,-0.771678,0.628290,-101.740457,-0.448437,-168.666535
00383,NaN,0.077288,-9.575562,-2.075965,-0.011995,0.080008,-0.014706,-0.067573,-0.014145,-0.098457,-0.059040,0.079492,-0.771836,0.628064,-101.777220,-0.499253,-168.645509
00384,NaN,0.064667,-9.547293,-2.081979,0.007511,0.089616,-0.041222,-0.063334,0.002881,-0.094261,-0.058741,0.079865,-0.771987,0.627859,-101.811577,-0.549720,-168.633704
00385,NaN,-0.007085,-9.567979,-2.013952,0.101628,0.030490,-0.035622,-0.060425,0.016683,-0.095851,-0.058380,0.080195,-0.772132,0.627672,-101.844108,-0.602673,-168.630235
00386,NaN,-0.132231,-9.587814,-1.972129,0.243331,0.007395,-0.026285,-0.060810,0.006948,-0.099365,-0.058050,0.080575,-0.772274,0.627480,-101.877022,-0.656467,-168.620052
00387,NaN,-0.093499,-9.562704,-2.035405,0.202235,0.062376,-0.037611,-0.050892,-0.006724,-0.107278,-0.057748,0.081020,-0.772377,0.627323,-101.904314,-0.713060,-168.601934
00388,NaN,0.073773,-9.545345,-1.976125,0.058862,-0.027138,-0.064872,-0.058475,-0.026539,-0.105963,-0.057527,0.081529,-0.772499,0.627128,-101.936163,-0.766580,-168.572139
00389,NaN,0.257202,-9.535810,-1.973464,-0.111197,-0.066955,-0.072280,-0.043734,-0.029980,-0.103701,-0.057329,0.082031,-0.772574,0.626988,-101.959536,-0.818346,-168.541404
00390,NaN,0.327341,-9.462936,-1.897092,-0.160376,-0.142425,-0.158297,-0.054772,-0.031131,-0.090737,-0.057176,0.082495,-0.772689,0.626800,-101.989328,-0.862757,-168.510794
00391,NaN,0.445757,-9.525107,-2.018837,-0.288308,-0.065856,-0.070275,-0.065766,-0.021027,-0.077306,-0.057017,0.082872,-0.772846,0.626571,-102.025235,-0.900692,-168.488139
00392,NaN,0.436064,-9.536434,-2.038099,-0.275070,-0.052284,-0.055169,-0.057911,-0.007855,-0.059267,-0.056871,0.083143,-0.772989,0.626371,-102.056598,-0.930215,-168.474282
00393,NaN,0.378850,-9.474470,-2.028360,-0.215329,-0.042307,-0.118607,-0.063111,0.008487,-0.041469,-0.056710,0.083289,-0.773161,0.626154,-102.090673,-0.951769,-168.472538
00394,NaN,0.318733,-9.524555,-2.087714,-0.160815,0.011304,-0.058134,-0.066008,0.027840,-0.023560,-0.056534,0.083311,-0.773355,0.625928,-102.126279,-0.965562,-168.482939
00395,NaN,0.286977,-9.528867,-2.092342,-0.127433,0.015902,-0.053433,-0.061082,0.026016,-0.012307,-0.056399,0.083289,-0.773537,0.625717,-102.158967,-0.972759,-168.494404
00396,NaN,0.276021,-9.448563,-2.070453,-0.115373,0.008168,-0.136690,-0.060201,0.017672,-0.003361,-0.056328,0.083264,-0.773718,0.625503,-102.191299,-0.974023,-168.501534
00397,NaN,0.206337,-9.459343,-2.115369,-0.054585,0.057828,-0.117833,-0.052310,-0.012423,0.006147,-0.056402,0.083287,-0.773870,0.625306,-102.219252,-0.966313,-168.493867
00398,NaN,0.110417,-9.304417,-2.514239,-0.047714,0.485174,-0.186261,-0.061909,-0.091971,0.016252,-0.056816,0.083530,-0.774033,0.625034,-102.253549,-0.943288,-168.441975
00399,NaN,0.132658,-9.285792,-2.214478,-0.016261,0.187178,-0.267420,-0.136275,-0.160617,0.024224,-0.057486,0.083970,-0.774412,0.624444,-102.330922,-0.907271,-168.353456
00400,NaN,0.300304,-9.596964,-1.861187,-0.096932,-0.259807,-0.036235,-0.070615,-0.127778,0.014102,-0.058028,0.084335,-0.774591,0.624123,-102.370468,-0.880957,-168.281305
00401,NaN,0.138753,-9.410641,-1.989019,0.023307,-0.071920,-0.193441,-0.039166,-0.097859,-0.000950,-0.058416,0.084649,-0.774673,0.623942,-102.391651,-0.866696,-168.224883
00402,NaN,0.115245,-9.494163,-2.020678,0.044094,-0.059345,-0.105470,-0.067381,-0.082183,-0.006179,-0.058719,0.084949,-0.774846,0.623658,-102.428957,-0.857270,-168.175779
00403,NaN,0.136582,-9.610551,-1.983985,0.037711,-0.128519,0.000548,-0.051506,-0.041911,-0.015893,-0.058839,0.085150,-0.774976,0.623457,-102.456732,-0.858155,-168.148856
00404,NaN,-0.031471,-9.547145,-2.023928,0.192579,-0.046404,-0.055331,-0.039148,-0.012368,-0.030190,-0.058809,0.085317,-0.775071,0.623320,-102.477318,-0.870749,-168.135853
00405,NaN,-0.209522,-9.536385,-2.133253,0.348324,0.093768,-0.045027,-0.048472,-0.004206,-0.046285,-0.058691,0.085519,-0.775190,0.623155,-102.503179,-0.893338,-168.126048
00406,NaN,-0.122830,-9.602545,-2.126672,0.273861,0.052575,0.019348,-0.046080,-0.023774,-0.060713,-0.058607,0.085842,-0.775290,0.622994,-102.527908,-0.921577,-168.102863
00407,NaN,0.114402,-9.592927,-2.013826,0.069389,-0.104815,-0.010799,-0.038574,-0.032107,-0.070012,-0.058525,0.086218,-0.775360,0.622863,-102.548320,-0.953976,-168.074782
00408,NaN,0.202434,-9.568006,-2.049372,-0.019278,-0.085968,-0.025968,-0.035271,-0.035615,-0.067644,-0.058470,0.086602,-0.775419,0.622741,-102.567008,-0.984599,-168.044089
00409,NaN,0.200023,-9.528002,-2.081013,-0.020070,-0.049011,-0.058168,-0.037112,-0.033436,-0.062873,-0.058417,0.086954,-0.775487,0.622613,-102.586599,-1.012668,-168.016040
00410,NaN,0.293442,-9.451201,-2.173501,-0.129265,0.033868,-0.111268,-0.034649,-0.027432,-0.061071,-0.058351,0.087286,-0.775549,0.622495,-102.604866,-1.040618,-167.990725
00411,NaN,0.268160,-9.475733,-2.161101,-0.095775,0.020146,-0.090435,-0.031229,-0.022303,-0.049987,-0.058296,0.087550,-0.775607,0.622391,-102.620925,-1.062955,-167.970707
00412,NaN,0.323885,-9.456006,-2.110197,-0.137399,-0.038057,-0.119724,-0.033445,-0.016686,-0.041403,-0.058251,0.087773,-0.775677,0.622276,-102.638364,-1.081240,-167.953848
00413,NaN,0.369067,-9.468426,-2.016623,-0.158618,-0.141938,-0.127195,-0.037391,-0.003301,-0.034489,-0.058169,0.087921,-0.775766,0.622152,-102.657809,-1.097264,-167.946137
00414,NaN,0.401444,-9.442137,-2.035626,-0.193173,-0.127738,-0.148048,-0.035444,0.009946,-0.015197,-0.058101,0.087960,-0.775862,0.622033,-102.676052,-1.104235,-167.947450
00415,NaN,0.390702,-9.473700,-2.038642,-0.179877,-0.132473,-0.116822,-0.044068,0.026688,-0.001319,-0.058002,0.087887,-0.775995,0.621887,-102.698849,-1.105442,-167.960841
00416,NaN,0.245196,-9.477388,-2.176645,-0.064556,0.025710,-0.085716,-0.029311,0.010163,0.007035,-0.058005,0.087836,-0.776082,0.621786,-102.713522,-1.100015,-167.965072
00417,NaN,0.079881,-9.363000,-2.271892,0.069767,0.171926,-0.179453,-0.042075,-0.052784,0.008187,-0.058245,0.087973,-0.776190,0.621609,-102.735986,-1.085927,-167.935311
00418,NaN,0.101444,-9.428115,-2.375722,0.029664,0.248199,-0.092543,-0.045135,-0.102211,0.014543,-0.058700,0.088247,-0.776296,0.621395,-102.760887,-1.062099,-167.877687
00419,NaN,0.179508,-9.363006,-2.271033,-0.032956,0.140917,-0.177608,-0.042143,-0.124817,0.006071,-0.059214,0.088617,-0.776382,0.621186,-102.784176,-1.040006,-167.807212
00420,NaN,0.116962,-9.373712,-2.101815,0.060652,-0.012889,-0.205713,-0.017549,-0.119621,-0.008508,-0.059677,0.089027,-0.776386,0.621078,-102.793458,-1.026809,-167.736952
00421,NaN,0.139627,-9.419369,-2.133721,0.033562,0.000344,-0.153721,-0.034898,-0.107183,-0.011843,-0.060070,0.089410,-0.776446,0.620910,-102.812455,-1.016948,-167.673993
00422,NaN,0.171518,-9.575413,-2.026340,0.033930,-0.146200,-0.024864,-0.049749,-0.088753,-0.013325,-0.060384,0.089752,-0.776557,0.620691,-102.839869,-1.010323,-167.620376
00423,NaN,0.137399,-9.580417,-2.028819,0.067299,-0.141567,-0.020098,-0.035450,-0.062821,-0.015803,-0.060592,0.090013,-0.776630,0.620542,-102.858737,-1.008312,-167.581741
00424,NaN,-0.010346,-9.544280,-2.067519,0.202088,-0.068744,-0.049365,-0.045156,-0.053820,-0.019883,-0.060752,0.090270,-0.776734,0.620358,-102.883185,-1.009767,-167.546808
00425,NaN,0.136630,-9.598247,-2.150147,0.046566,-0.037332,0.024211,-0.049531,-0.043766,-0.024492,-0.060854,0.090510,-0.776853,0.620165,-102.909952,-1.014979,-167.517671
00426,NaN,0.114217,-9.551167,-2.124767,0.072589,-0.050090,-0.027765,-0.035094,-0.029858,-0.026027,-0.060906,0.090714,-0.776930,0.620033,-102.928418,-1.022905,-167.495333
00427,NaN,0.067460,-9.477583,-2.140481,0.112082,-0.012775,-0.096821,-0.051665,-0.036309,-0.022529,-0.060984,0.090924,-0.777058,0.619834,-102.956333,-1.027879,-167.470559
00428,NaN,0.302676,-9.526193,-2.200226,-0.124867,-0.021896,-0.031845,-0.053417,-0.019158,-0.016921,-0.061015,0.091065,-0.777199,0.619634,-102.985172,-1.032076,-167.455360
00429,NaN,0.352681,-9.558539,-2.052838,-0.139326,-0.184830,-0.032574,-0.056212,0.010151,-0.006480,-0.060958,0.091069,-0.777363,0.619434,-103.015155,-1.034170,-167.458801
00430,NaN,0.326865,-9.511266,-2.070601,-0.119877,-0.156899,-0.075161,-0.052664,0.030229,0.005455,-0.060867,0.090970,-0.777527,0.619251,-103.043015,-1.032241,-167.474061
00431,NaN,0.372028,-9.491133,-2.149124,-0.181235,-0.093041,-0.076300,-0.068165,0.045354,0.019441,-0.060750,0.090769,-0.777750,0.619012,-103.079525,-1.024440,-167.500227
00432,NaN,0.480699,-9.511466,-2.132457,-0.283281,-0.142699,-0.058415,-0.058452,0.070092,0.038816,-0.060604,0.090419,-0.777959,0.618815,-103.110234,-1.009085,-167.542070
00433,NaN,0.359594,-9.429945,-2.117640,-0.169446,-0.118959,-0.143421,-0.068147,0.087689,0.056989,-0.060438,0.089941,-0.778211,0.618584,-103.146218,-0.985794,-167.596765
00434,NaN,0.381627,-9.494230,-2.181908,-0.203059,-0.083386,-0.065966,-0.070560,0.103419,0.071324,-0.060258,0.089365,-0.778481,0.618344,-103.183510,-0.956704,-167.661465
00435,NaN,0.182377,-9.495635,-2.220735,-0.020583,-0.011066,-0.059152,-0.063440,0.114660,0.088406,-0.060086,0.088678,-0.778740,0.618134,-103.216449,-0.919482,-167.735607
00436,NaN,0.174374,-9.494156,-2.268652,-0.027728,0.029865,-0.049772,-0.060683,0.122856,0.093430,-0.059902,0.087952,-0.778995,0.617934,-103.247946,-0.880687,-167.814082
00437,NaN,0.133633,-9.498847,-2.272269,0.005640,0.034510,-0.044989,-0.052048,0.102723,0.102540,-0.059825,0.087246,-0.779221,0.617757,-103.274645,-0.834208,-167.883241
00438,NaN,0.199678,-9.414771,-2.265433,-0.070129,0.026872,-0.127424,-0.045697,0.090816,0.112134,-0.059831,0.086542,-0.779427,0.617595,-103.297899,-0.780839,-167.946345
00439,NaN,0.162848,-9.367236,-2.324428,-0.057289,0.095537,-0.160632,-0.045959,0.062690,0.117262,-0.059956,0.085897,-0.779627,0.617420,-103.321379,-0.720941,-167.995519
00440,NaN,0.188671,-9.360923,-2.288264,-0.085116,0.050660,-0.174804,-0.054568,0.043001,0.123955,-0.060181,0.085297,-0.779851,0.617199,-103.350147,-0.654716,-168.033571
00441,NaN,0.133319,-9.417272,-2.320164,-0.044464,0.072727,-0.113272,-0.055570,0.016107,0.129668,-0.060523,0.084752,-0.780071,0.616962,-103.379548,-0.581695,-168.058304
00442,NaN,0.100379,-9.481431,-2.241057,-0.004156,-0.018345,-0.069506,-0.068274,-0.002542,0.134354,-0.060952,0.084256,-0.780327,0.616665,-103.416493,-0.503670,-168.072422
00443,NaN,0.073543,-9.492996,-2.218560,0.015633,-0.045406,-0.063735,-0.062619,-0.008672,0.129778,-0.061387,0.083789,-0.780561,0.616389,-103.450171,-0.427455,-168.083387
00444,NaN,0.061037,-9.491676,-2.224577,0.015096,-0.045168,-0.063733,-0.064075,-0.002430,0.131120,-0.061807,0.083304,-0.780802,0.616108,-103.484750,-0.351264,-168.097230
00445,NaN,0.061206,-9.458114,-2.230596,0.000744,-0.039955,-0.094991,-0.059371,0.001739,0.124553,-0.062188,0.082824,-0.781026,0.615850,-103.516484,-0.279235,-168.113488
00446,NaN,0.031479,-9.449882,-2.221326,0.020422,-0.048691,-0.105332,-0.061526,0.009220,0.126493,-0.062549,0.082320,-0.781259,0.615585,-103.549612,-0.207199,-168.133288
00447,NaN,0.016253,-9.428704,-2.240695,0.019789,-0.030089,-0.121448,-0.058791,0.016317,0.123216,-0.062867,0.081800,-0.781485,0.615335,-103.581046,-0.138027,-168.157611
00448,NaN,-0.008990,-9.459035,-2.288359,0.026418,0.005905,-0.080819,-0.058322,0.027914,0.120215,-0.063137,0.081262,-0.781711,0.615092,-103.612369,-0.072027,-168.187056
00449,NaN,-0.121527,-9.492487,-2.359752,0.114439,0.082501,-0.031553,-0.042146,0.032841,0.112109,-0.063363,0.080728,-0.781885,0.614917,-103.634263,-0.011304,-168.219296
00450,NaN,-0.222740,-9.474452,-2.401616,0.195179,0.141652,-0.039027,-0.034982,0.031705,0.106808,-0.063586,0.080224,-0.782035,0.614770,-103.652276,0.046694,-168.249093
00451,NaN,-0.191886,-9.488716,-2.350397,0.167475,0.078476,-0.037070,-0.033546,0.026324,0.090457,-0.063775,0.079792,-0.782171,0.614633,-103.669301,0.096250,-168.274800
00452,NaN,-0.226286,-9.532891,-2.324656,0.201040,0.046479,-0.000009,-0.027011,0.020820,0.078733,-0.063957,0.079428,-0.782281,0.614522,-103.682778,0.140077,-168.294768
00453,NaN,-0.064437,-9.486907,-2.305382,0.037532,0.002268,-0.049546,-0.025982,0.012415,0.074096,-0.064153,0.079102,-0.782383,0.614413,-103.695551,0.182369,-168.310388
00454,NaN,-0.056671,-9.473423,-2.336268,0.016669,0.029818,-0.055335,-0.021706,0.008723,0.070754,-0.064361,0.078804,-0.782470,0.614320,-103.705991,0.223387,-168.322558
00455,NaN,-0.043473,-9.387934,-2.394408,-0.018196,0.098994,-0.124641,-0.025762,-0.014284,0.070448,-0.064651,0.078573,-0.782561,0.614203,-103.718560,0.267401,-168.322824
00456,NaN,-0.066482,-9.380850,-2.339871,0.008130,0.049566,-0.144325,-0.031709,-0.024158,0.065754,-0.064968,0.078400,-0.782665,0.614059,-103.734653,0.310101,-168.316031
00457,NaN,-0.144717,-9.370417,-2.353266,0.075285,0.077012,-0.150807,-0.021962,-0.040751,0.055965,-0.065320,0.078307,-0.782730,0.613950,-103.745003,0.349635,-168.299498
00458,NaN,-0.165060,-9.382728,-2.326531,0.095072,0.049957,-0.145007,-0.019615,-0.047104,0.048866,-0.065679,0.078266,-0.782783,0.613850,-103.754062,0.386064,-168.277652
00459,NaN,-0.195992,-9.464992,-2.398807,0.108908,0.103425,-0.047637,-0.012138,-0.059188,0.039346,-0.066054,0.078291,-0.782805,0.613778,-103.758687,0.418715,-168.248681
00460,NaN,-0.116471,-9.442548,-2.388428,0.026890,0.081410,-0.072435,0.000984,-0.071865,0.032338,-0.066468,0.078384,-0.782780,0.613754,-103.755797,0.449321,-168.210807
00461,NaN,-0.128327,-9.495304,-2.332491,0.046877,0.017700,-0.034382,-0.001107,-0.073727,0.027067,-0.066868,0.078500,-0.782759,0.613723,-103.754040,0.477229,-168.171886
00462,NaN,-0.076432,-9.406251,-2.346863,-0.015209,0.041699,-0.117885,0.014751,-0.077495,0.023653,-0.067283,0.078639,-0.782685,0.613753,-103.743188,0.503763,-168.129690
00463,NaN,-0.106033,-9.470574,-2.346076,0.011802,0.032107,-0.055335,-0.000944,-0.088379,0.022556,-0.067725,0.078816,-0.782656,0.613719,-103.741156,0.531085,-168.082191
00464,NaN,-0.065075,-9.506968,-2.235632,-0.009120,-0.090146,-0.046598,0.005250,-0.089423,0.022951,-0.068180,0.078998,-0.782608,0.613707,-103.735643,0.558844,-168.033257
00465,NaN,-0.050896,-9.495559,-2.179809,-0.016668,-0.144000,-0.071087,-0.005345,-0.080126,0.024589,-0.068596,0.079144,-0.782596,0.613657,-103.736191,0.586243,-167.990443
00466,NaN,0.090438,-9.516079,-2.117268,-0.145928,-0.238873,-0.067514,-0.007367,-0.063304,0.033846,-0.068978,0.079207,-0.782599,0.613602,-103.738027,0.616511,-167.957528
00467,NaN,0.055214,-9.448200,-2.185873,-0.133185,-0.151893,-0.116876,-0.006712,-0.050667,0.039231,-0.069321,0.079205,-0.782606,0.613554,-103.739451,0.647976,-167.933288
00468,NaN,-0.093681,-9.427960,-2.207496,0.001668,-0.097233,-0.129776,-0.011836,-0.047619,0.049746,-0.069688,0.079160,-0.782635,0.613482,-103.743936,0.684961,-167.911269
00469,NaN,-0.140112,-9.430346,-2.333670,0.015015,0.029564,-0.096929,-0.012971,-0.046703,0.053919,-0.070061,0.079091,-0.782668,0.613406,-103.749003,0.724178,-167.891049
00470,NaN,-0.135615,-9.397221,-2.376871,-0.005957,0.075426,-0.118878,-0.007402,-0.042766,0.055134,-0.070427,0.079008,-0.782687,0.613351,-103.750963,0.763504,-167.872470
00471,NaN,-0.138985,-9.435441,-2.434701,-0.019645,0.120439,-0.067958,-0.005250,-0.042743,0.053561,-0.070784,0.078924,-0.782698,0.613307,-103.751546,0.801914,-167.854636
00472,NaN,-0.295789,-9.467796,-2.399130,0.135718,0.111179,-0.042749,0.007099,-0.040327,0.053084,-0.071140,0.078837,-0.782671,0.613310,-103.745188,0.839766,-167.837134
00473,NaN,-0.260498,-9.502819,-2.373180,0.101483,0.070366,-0.015332,0.000380,-0.048930,0.048996,-0.071508,0.078786,-0.782660,0.613288,-103.742376,0.876401,-167.815491
00474,NaN,-0.187127,-9.460380,-2.418002,0.012716,0.107331,-0.046989,0.016153,-0.048203,0.044262,-0.071872,0.078754,-0.782600,0.613327,-103.730721,0.910411,-167.792396
00475,NaN,-0.271223,-9.372727,-2.354164,0.099508,0.086029,-0.145922,0.016219,-0.041765,0.036411,-0.072180,0.078726,-0.782538,0.613373,-103.718866,0.939149,-167.772891
00476,NaN,-0.459970,-9.409825,-2.315799,0.288765,0.081244,-0.115815,0.001634,-0.028680,0.028075,-0.072412,0.078703,-0.782522,0.613369,-103.715651,0.961489,-167.758453
00477,NaN,-0.352183,-9.547084,-2.239574,0.200861,-0.046689,-0.002284,-0.007173,-0.030862,0.017723,-0.072612,0.078723,-0.782529,0.613335,-103.717262,0.978363,-167.742424
00478,NaN,-0.133979,-9.617041,-2.225250,-0.009243,-0.124074,0.058568,-0.011856,-0.030380,0.009558,-0.072788,0.078782,-0.782546,0.613283,-103.721708,0.990628,-167.724524
00479,NaN,0.033354,-9.498041,-2.007336,-0.132922,-0.339360,-0.111633,-0.008661,-0.037712,0.011645,-0.072995,0.078847,-0.782552,0.613243,-103.724068,1.005013,-167.703933
00480,NaN,-0.024330,-9.382807,-2.087556,-0.100127,-0.224730,-0.203576,-0.003679,-0.058169,0.018045,-0.073309,0.078955,-0.782538,0.613210,-103.723565,1.025780,-167.671718
00481,NaN,-0.069087,-9.385020,-2.213700,-0.086841,-0.097916,-0.170763,-0.024262,-0.049110,0.035267,-0.073628,0.078970,-0.782597,0.613094,-103.734874,1.054925,-167.647710
00482,NaN,-0.148132,-9.503678,-2.284713,-0.025553,-0.044849,-0.037255,-0.026740,-0.058515,0.042926,-0.074011,0.078990,-0.782663,0.612961,-103.747612,1.089597,-167.618695
00483,NaN,-0.136199,-9.417520,-2.385002,-0.067059,0.064931,-0.097351,-0.018216,-0.054763,0.050263,-0.074402,0.078962,-0.782708,0.612861,-103.755454,1.127859,-167.593490
00484,NaN,-0.099575,-9.490617,-2.418959,-0.114510,0.068828,-0.019055,-0.022759,-0.054845,0.066751,-0.074845,0.078877,-0.782772,0.612736,-103.765978,1.175300,-167.569777
00485,NaN,-0.103794,-9.510107,-2.407133,-0.114966,0.050787,-0.002927,-0.014342,-0.042035,0.071566,-0.075249,0.078722,-0.782817,0.612649,-103.771609,1.223634,-167.554992
00486,NaN,-0.147417,-9.495334,-2.377320,-0.075022,0.033109,-0.023509,-0.002182,-0.039711,0.084420,-0.075696,0.078513,-0.782830,0.612603,-103.770538,1.278848,-167.542121
00487,NaN,-0.174336,-9.487869,-2.362256,-0.055316,0.024404,-0.033800,-0.003734,-0.039117,0.092165,-0.076158,0.078268,-0.782852,0.612550,-103.770323,1.338244,-167.531413
00488,NaN,-0.196376,-9.446142,-2.473169,-0.069453,0.142688,-0.047467,0.013946,-0.046759,0.100196,-0.076686,0.078013,-0.782819,0.612558,-103.759942,1.403197,-167.516763
00489,NaN,-0.307762,-9.349113,-2.477315,0.024276,0.193817,-0.138001,0.029368,-0.065594,0.095710,-0.077275,0.077821,-0.782730,0.612623,-103.740333,1.468145,-167.491890
00490,NaN,-0.511925,-9.306678,-2.405464,0.226550,0.180995,-0.190916,0.028897,-0.086151,0.087693,-0.077925,0.077730,-0.782631,0.612679,-103.720732,1.531487,-167.453566
00491,NaN,-0.613951,-9.380527,-2.356269,0.327905,0.139723,-0.127845,0.015974,-0.114647,0.073154,-0.078633,0.077780,-0.782553,0.612681,-103.707788,1.590760,-167.398379
00492,NaN,-0.310032,-9.526499,-2.123252,0.077213,-0.182745,-0.049536,-0.012280,-0.100517,0.051776,-0.079213,0.077889,-0.782560,0.612583,-103.711342,1.636046,-167.347152
00493,NaN,-0.156257,-9.536630,-2.090045,-0.072329,-0.250436,-0.051946,0.028857,-0.087376,0.042802,-0.079726,0.077971,-0.782442,0.612657,-103.691409,1.674563,-167.302779
00494,NaN,-0.191596,-9.338461,-2.138369,-0.060340,-0.148430,-0.231951,0.023472,-0.092832,0.044554,-0.080267,0.078071,-0.782339,0.612705,-103.674503,1.714763,-167.254829
00495,NaN,-0.236745,-9.453427,-2.165372,-0.026337,-0.140432,-0.112598,-0.009038,-0.093118,0.044969,-0.080792,0.078176,-0.782335,0.612628,-103.675991,1.755161,-167.207891
00496,NaN,-0.276385,-9.476930,-2.192103,0.000382,-0.113330,-0.082268,-0.000129,-0.080018,0.046173,-0.081280,0.078239,-0.782310,0.612587,-103.672767,1.794519,-167.167290
00497,NaN,-0.387444,-9.489256,-2.228120,0.094771,-0.058941,-0.058296,-0.012066,-0.069220,0.040872,-0.081699,0.078289,-0.782323,0.612508,-103.676428,1.829459,-167.132833
00498,NaN,-0.446190,-9.504343,-2.282178,0.135016,-0.000083,-0.028939,-0.010565,-0.050641,0.036395,-0.082037,0.078305,-0.782338,0.612443,-103.679619,1.859397,-167.107270
00499,NaN,-0.452862,-9.503159,-2.325219,0.127734,0.040909,-0.019641,-0.011573,-0.036090,0.023492,-0.082273,0.078319,-0.782355,0.612386,-103.683323,1.880189,-167.089249
00500,NaN,-0.420788,-9.517514,-2.357414,0.086664,0.059067,0.000902,-0.018531,-0.020157,0.020017,-0.082438,0.078309,-0.782400,0.612308,-103.691545,1.896880,-167.078448
00501,NaN,-0.355616,-9.469713,-2.306241,0.031619,0.005604,-0.059758,-0.018620,-0.002047,0.015041,-0.082513,0.078257,-0.782451,0.612241,-103.699965,1.908330,-167.078061
00502,NaN,-0.308270,-9.471444,-2.367671,-0.029799,0.051023,-0.045105,-0.014252,0.012601,0.016443,-0.082541,0.078159,-0.782494,0.612193,-103.706324,1.918588,-167.085025
00503,NaN,-0.416701,-9.425760,-2.318769,0.084487,0.038272,-0.097407,-0.017885,0.035052,0.021045,-0.082489,0.077969,-0.782560,0.612140,-103.715067,1.928364,-167.106058
00504,NaN,-0.397504,-9.433419,-2.294203,0.070408,0.006769,-0.096424,-0.025165,0.035235,0.018085,-0.082430,0.077800,-0.782647,0.612059,-103.728113,1.936458,-167.125853
00505,NaN,-0.301521,-9.417884,-2.387637,-0.045274,0.074988,-0.092575,-0.024444,0.048634,0.022024,-0.082326,0.077566,-0.782739,0.611985,-103.740838,1.945056,-167.154574
00506,NaN,-0.348030,-9.435159,-2.316671,0.015142,0.011750,-0.091065,-0.021275,0.055936,0.028603,-0.082220,0.077291,-0.782827,0.611922,-103.752102,1.956177,-167.187334
00507,NaN,-0.343919,-9.436182,-2.235008,0.028062,-0.069378,-0.109622,-0.031841,0.061575,0.030139,-0.082086,0.076989,-0.782949,0.611821,-103.769352,1.967360,-167.224522
00508,NaN,-0.290537,-9.458468,-2.242245,-0.026541,-0.082980,-0.088126,-0.030754,0.077148,0.037283,-0.081919,0.076619,-0.783078,0.611726,-103.786509,1.980398,-167.270284
00509,NaN,-0.275687,-9.445958,-2.231838,-0.040708,-0.096163,-0.103294,-0.025690,0.081495,0.040556,-0.081742,0.076214,-0.783194,0.611651,-103.800781,1.994695,-167.319753
00510,NaN,-0.351971,-9.432861,-2.286518,0.019683,-0.027925,-0.100338,-0.035139,0.100870,0.042432,-0.081497,0.075753,-0.783347,0.611545,-103.820958,2.007328,-167.379435
00511,NaN,-0.567429,-9.528855,-2.293654,0.229508,-0.001493,0.002058,-0.043688,0.133710,0.034897,-0.081092,0.075218,-0.783537,0.611422,-103.846514,2.011328,-167.457242
00512,NaN,-0.725734,-9.479082,-2.231993,0.397977,-0.018690,-0.055498,-0.056719,0.136214,0.013107,-0.080610,0.074772,-0.783758,0.611256,-103.879610,2.002741,-167.532580
00513,NaN,-0.383352,-9.489984,-2.428209,0.025154,0.085234,-0.009879,-0.056070,0.168615,-0.002804,-0.079948,0.074282,-0.783985,0.611112,-103.912715,1.980889,-167.624674
00514,NaN,-0.321120,-9.456581,-2.266898,0.004028,-0.076957,-0.083200,-0.048123,0.201887,-0.007477,-0.079149,0.073713,-0.784198,0.611012,-103.941989,1.951714,-167.733704
00515,NaN,-0.310313,-9.364480,-2.269747,-0.003703,-0.057606,-0.172242,-0.037829,0.204480,0.003265,-0.078371,0.073083,-0.784384,0.610949,-103.965297,1.928099,-167.846553
00516,NaN,-0.096932,-9.376663,-2.300230,-0.214085,-0.080258,-0.160227,-0.054327,0.199845,0.011193,-0.077634,0.072449,-0.784620,0.610815,-103.998082,1.909484,-167.957003
00517,NaN,-0.063550,-9.463337,-2.266604,-0.234571,-0.144285,-0.085383,-0.047844,0.201973,0.022977,-0.076923,0.071754,-0.784841,0.610703,-104.027163,1.897056,-168.071058
00518,NaN,-0.153694,-9.442325,-2.308376,-0.153921,-0.084981,-0.092666,-0.042556,0.197772,0.048216,-0.076312,0.070976,-0.785053,0.610599,-104.053296,1.899195,-168.185483
00519,NaN,-0.379458,-9.458469,-2.331002,0.062325,-0.025956,-0.064065,-0.047384,0.179320,0.059781,-0.075801,0.070206,-0.785275,0.610465,-104.081861,1.910146,-168.292130
00520,NaN,-0.536874,-9.484697,-2.386400,0.204119,0.046464,-0.019894,-0.051087,0.141537,0.062442,-0.075450,0.069547,-0.785495,0.610301,-104.111943,1.927925,-168.377277
00521,NaN,-0.424094,-9.456685,-2.466119,0.074844,0.101208,-0.031346,-0.034089,0.133181,0.064375,-0.075137,0.068892,-0.785660,0.610202,-104.131957,1.947790,-168.459253
00522,NaN,-0.466881,-9.419638,-2.494869,0.108008,0.142581,-0.058717,-0.023434,0.107290,0.051398,-0.074897,0.068370,-0.785778,0.610139,-104.145547,1.964164,-168.523830
00523,NaN,-0.431982,-9.434906,-2.484894,0.073698,0.120036,-0.047498,-0.012330,0.088338,0.050160,-0.074726,0.067903,-0.785854,0.610113,-104.152434,1.982306,-168.578510
00524,NaN,-0.346117,-9.434652,-2.461534,-0.008112,0.079525,-0.056397,-0.006550,0.080264,0.038866,-0.074560,0.067507,-0.785906,0.610111,-104.155806,1.995486,-168.626312
00525,NaN,-0.368696,-9.424851,-2.531020,-0.001884,0.152249,-0.048127,0.011404,0.077083,0.032498,-0.074387,0.067134,-0.785900,0.610181,-104.148809,2.005410,-168.672246
00526,NaN,-0.512795,-9.364594,-2.452246,0.153047,0.121649,-0.120739,0.014536,0.095131,0.020285,-0.074113,0.066758,-0.785886,0.610273,-104.140311,2.006194,-168.725708
00527,NaN,-0.523625,-9.397737,-2.409693,0.172971,0.076369,-0.098651,0.010675,0.107276,0.009229,-0.073750,0.066384,-0.785885,0.610359,-104.134181,1.998964,-168.785247
00528,NaN,-0.512616,-9.440594,-2.297844,0.186129,-0.041376,-0.084824,0.010188,0.092038,-0.001474,-0.073420,0.066104,-0.785876,0.610441,-104.127998,1.988103,-168.833943
00529,NaN,-0.492476,-9.448319,-2.312086,0.165325,-0.032165,-0.074585,0.013675,0.067369,-0.009152,-0.073159,0.065924,-0.785845,0.610532,-104.119302,1.976307,-168.868633
00530,NaN,-0.354893,-9.412964,-2.286729,0.036002,-0.072357,-0.119781,0.013975,0.033738,-0.007125,-0.073042,0.065843,-0.785801,0.610612,-104.109789,1.970466,-168.884127
00531,NaN,-0.228904,-9.447315,-2.319400,-0.093033,-0.072588,-0.082844,0.007436,0.010784,-0.005984,-0.073011,0.065825,-0.785769,0.610658,-104.103554,1.968324,-168.887896
00532,NaN,-0.196889,-9.441165,-2.403917,-0.141000,0.004559,-0.069316,0.015958,0.008854,-0.005572,-0.072997,0.065813,-0.785710,0.610737,-104.092434,1.966823,-168.889773
00533,NaN,-0.254755,-9.398082,-2.412936,-0.087515,0.037007,-0.106912,0.023898,-0.000661,0.007695,-0.073058,0.065769,-0.785628,0.610840,-104.076578,1.973869,-168.889163
00534,NaN,-0.270781,-9.429208,-2.453560,-0.081182,0.073129,-0.066339,0.017930,-0.005652,0.011476,-0.073154,0.065734,-0.785564,0.610915,-104.064133,1.983864,-168.885350
00535,NaN,-0.289836,-9.422218,-2.436761,-0.061424,0.064458,-0.076566,0.021526,0.005721,0.014736,-0.073211,0.065644,-0.785493,0.611008,-104.049804,1.993997,-168.889195
00536,NaN,-0.375818,-9.442703,-2.446113,0.019347,0.087221,-0.051470,0.027085,0.018675,0.013482,-0.073220,0.065523,-0.785410,0.611127,-104.032594,2.001723,-168.899187
00537,NaN,-0.466650,-9.386991,-2.340342,0.126968,0.020393,-0.127956,0.025093,0.029680,0.005945,-0.073157,0.065392,-0.785335,0.611245,-104.016564,2.003707,-168.915272
00538,NaN,-0.393603,-9.418282,-2.356231,0.052054,0.015719,-0.096319,0.011146,0.035247,0.004711,-0.073069,0.065261,-0.785304,0.611310,-104.008766,2.004264,-168.933260
00539,NaN,-0.403690,-9.452474,-2.270953,0.078771,-0.070236,-0.083436,0.015233,0.028527,-0.000297,-0.072987,0.065162,-0.785256,0.611392,-103.998367,2.002803,-168.947864
00540,NaN,-0.457984,-9.429356,-2.267256,0.132318,-0.056090,-0.104840,0.012542,0.018860,-0.002423,-0.072942,0.065108,-0.785212,0.611459,-103.989416,2.001670,-168.955747
00541,NaN,-0.299652,-9.440492,-2.272338,-0.023905,-0.083276,-0.098332,0.001739,0.017045,-0.001535,-0.072899,0.065055,-0.785201,0.611484,-103.986547,2.001275,-168.963614
00542,NaN,-0.333072,-9.426657,-2.200305,0.022946,-0.141600,-0.127980,-0.001107,0.017253,-0.007678,-0.072840,0.065032,-0.785197,0.611499,-103.985359,1.997444,-168.969875
00543,NaN,-0.333493,-9.443602,-2.313737,0.002086,-0.037513,-0.084131,-0.001696,0.017715,-0.005603,-0.072782,0.064993,-0.785196,0.611512,-103.984468,1.994710,-168.977501
00544,NaN,-0.357398,-9.394813,-2.368260,0.014897,0.031102,-0.117445,-0.000609,0.013041,-0.009979,-0.072732,0.064992,-0.785187,0.611528,-103.982901,1.990183,-168.981100
00545,NaN,-0.323408,-9.389661,-2.411434,-0.026297,0.067534,-0.113199,0.004113,0.010659,-0.008572,-0.072694,0.064986,-0.785165,0.611562,-103.978611,1.986704,-168.984282
00546,NaN,-0.320925,-9.390882,-2.368688,-0.020033,0.027090,-0.122423,0.007119,0.008612,-0.009199,-0.072667,0.064992,-0.785132,0.611607,-103.972535,1.983225,-168.985526
00547,NaN,-0.235391,-9.371014,-2.356610,-0.101855,0.004812,-0.147569,-0.000112,0.000791,-0.001490,-0.072688,0.064990,-0.785121,0.611619,-103.970483,1.985059,-168.984247
00548,NaN,-0.241628,-9.444080,-2.287766,-0.081805,-0.077043,-0.093106,-0.001427,0.007047,-0.000096,-0.072692,0.064968,-0.785116,0.611627,-103.969317,1.986857,-168.985880
00549,NaN,-0.208729,-9.438802,-2.331262,-0.123003,-0.040620,-0.088874,-0.002429,0.015473,0.004503,-0.072673,0.064899,-0.785120,0.611632,-103.968944,1.989986,-168.993501
00550,NaN,-0.265616,-9.396124,-2.300808,-0.062708,-0.048882,-0.135648,-0.011503,0.022664,0.014637,-0.072657,0.064776,-0.785157,0.611600,-103.973924,1.997815,-169.005862
00551,NaN,-0.314385,-9.431720,-2.301346,-0.015725,-0.048877,-0.099309,-0.012797,0.024378,0.017295,-0.072636,0.064631,-0.785199,0.611564,-103.979584,2.006703,-169.020609
00552,NaN,-0.401903,-9.432175,-2.285939,0.071764,-0.048472,-0.099528,-0.017299,0.025179,0.018862,-0.072622,0.064485,-0.785255,0.611508,-103.987960,2.016530,-169.034956
00553,NaN,-0.403072,-9.431695,-2.287711,0.071228,-0.048214,-0.099523,-0.018205,0.023472,0.017729,-0.072608,0.064345,-0.785314,0.611449,-103.996849,2.025959,-169.048812
00554,NaN,-0.386121,-9.438677,-2.304378,0.050386,-0.039014,-0.089323,-0.017928,0.020843,0.012448,-0.072591,0.064238,-0.785369,0.611391,-104.005471,2.032817,-169.059861
00555,NaN,-0.359675,-9.392771,-2.376005,0.009019,0.034003,-0.117448,-0.010287,0.012658,0.013010,-0.072606,0.064145,-0.785398,0.611362,-104.009470,2.041167,-169.067270
00556,NaN,-0.324740,-9.407348,-2.406951,-0.032133,0.052134,-0.097065,-0.014597,0.007079,0.009074,-0.072634,0.064092,-0.785436,0.611315,-104.015898,2.048057,-169.070196
00557,NaN,-0.325688,-9.407020,-2.408106,-0.032647,0.052414,-0.097068,-0.009366,0.009822,0.015404,-0.072666,0.063998,-0.785462,0.611288,-104.019338,2.057912,-169.076504
00558,NaN,-0.328097,-9.387740,-2.380134,-0.026431,0.030259,-0.122448,-0.006602,0.013901,0.010537,-0.072674,0.063916,-0.785479,0.611274,-104.021330,2.064667,-169.083429
00559,NaN,-0.394340,-9.433915,-2.436269,0.027226,0.084470,-0.061698,-0.004297,0.013104,0.010498,-0.072681,0.063829,-0.785489,0.611270,-104.021859,2.071513,-169.090876
00560,NaN,-0.310065,-9.396032,-2.353691,-0.040993,-0.000969,-0.121468,-0.002826,0.018896,0.008289,-0.072664,0.063738,-0.785496,0.611273,-104.021778,2.076326,-169.100267
00561,NaN,-0.426630,-9.440041,-2.351561,0.073648,0.008144,-0.075094,-0.003048,0.020481,0.005309,-0.072627,0.063650,-0.785503,0.611277,-104.021806,2.079309,-169.110864
00562,NaN,-0.555829,-9.366468,-2.303601,0.208388,0.004873,-0.153350,-0.001842,0.015015,0.002426,-0.072608,0.063594,-0.785503,0.611285,-104.021054,2.081401,-169.117281
00563,NaN,-0.479772,-9.435332,-2.379065,0.119900,0.045005,-0.071064,-0.013729,-0.005348,-0.005502,-0.072636,0.063631,-0.785530,0.611243,-104.026631,2.081921,-169.112031
00564,NaN,-0.402228,-9.487288,-2.341733,0.051844,-0.018694,-0.032550,-0.012456,-0.002516,-0.009425,-0.072646,0.063679,-0.785553,0.611207,-104.031546,2.079860,-169.107050
00565,NaN,-0.422605,-9.441571,-2.270217,0.085147,-0.072190,-0.093465,-0.006789,-0.012285,-0.004352,-0.072708,0.063730,-0.785556,0.611190,-104.032984,2.082041,-169.098112
00566,NaN,-0.382561,-9.495358,-2.316512,0.037273,-0.049927,-0.031557,-0.021773,-0.025010,-0.004671,-0.072817,0.063831,-0.785601,0.611109,-104.042806,2.085749,-169.081281
00567,NaN,-0.263762,-9.470971,-2.307204,-0.078377,-0.076826,-0.061789,-0.015842,-0.023521,0.001076,-0.072937,0.063899,-0.785630,0.611051,-104.049292,2.092470,-169.066738
00568,NaN,-0.238789,-9.405940,-2.350156,-0.112966,-0.026272,-0.115342,-0.018433,-0.020097,0.006391,-0.073063,0.063941,-0.785669,0.610980,-104.057353,2.101648,-169.054181
00569,NaN,-0.289573,-9.422220,-2.322951,-0.059265,-0.048659,-0.104325,-0.027522,-0.012906,0.016515,-0.073183,0.063920,-0.785743,0.610874,-104.070776,2.115430,-169.047826
00570,NaN,-0.297358,-9.381163,-2.352471,-0.059931,-0.011833,-0.136684,-0.028399,-0.009820,0.023865,-0.073318,0.063865,-0.785822,0.610761,-104.084844,2.132892,-169.043424
00571,NaN,-0.230014,-9.409047,-2.456773,-0.148566,0.064872,-0.086819,-0.025185,0.000426,0.032180,-0.073433,0.063740,-0.785898,0.610663,-104.097234,2.153375,-169.046881
00572,NaN,-0.312794,-9.450589,-2.373375,-0.054105,-0.011942,-0.063774,-0.030065,0.000104,0.038791,-0.073574,0.063597,-0.785990,0.610542,-104.112541,2.177747,-169.050091
00573,NaN,-0.285245,-9.425685,-2.389809,-0.088541,0.002051,-0.084983,-0.012217,0.008053,0.046517,-0.073707,0.063388,-0.786034,0.610491,-104.117774,2.205162,-169.059706
00574,NaN,-0.396504,-9.398133,-2.373271,0.019202,0.011868,-0.111449,-0.024644,0.005802,0.046830,-0.073852,0.063194,-0.786115,0.610390,-104.130144,2.233203,-169.067218
00575,NaN,-0.430962,-9.440687,-2.389565,0.045802,0.020848,-0.064878,-0.015316,0.001810,0.048158,-0.074015,0.062999,-0.786166,0.610324,-104.137075,2.262432,-169.073525
00576,NaN,-0.456041,-9.412473,-2.389453,0.065520,0.030467,-0.091222,-0.012923,0.004763,0.048344,-0.074172,0.062798,-0.786211,0.610268,-104.142723,2.291457,-169.080680
00577,NaN,-0.424754,-9.409173,-2.349385,0.037993,-0.014534,-0.105427,-0.012634,-0.002404,0.044318,-0.074341,0.062630,-0.786251,0.610213,-104.147982,2.319201,-169.084100
00578,NaN,-0.407052,-9.437577,-2.309930,0.024052,-0.064327,-0.088254,-0.015946,-0.007056,0.042988,-0.074528,0.062487,-0.786299,0.610143,-104.155072,2.346905,-169.083937
00579,NaN,-0.351208,-9.368512,-2.353277,-0.044354,-0.018377,-0.146873,-0.008508,-0.008885,0.049046,-0.074738,0.062320,-0.786326,0.610100,-104.157960,2.378138,-169.084208
00580,NaN,-0.332572,-9.415866,-2.342873,-0.065094,-0.045748,-0.104348,-0.024668,0.001283,0.048052,-0.074905,0.062135,-0.786405,0.609996,-104.170270,2.407487,-169.089400
00581,NaN,-0.300535,-9.431475,-2.332351,-0.099404,-0.068335,-0.093204,-0.016017,0.003318,0.058443,-0.075093,0.061896,-0.786462,0.609924,-104.177740,2.442216,-169.097934
00582,NaN,-0.413728,-9.402255,-2.357975,0.001483,-0.017791,-0.110456,-0.019571,0.013896,0.050374,-0.075218,0.061662,-0.786531,0.609843,-104.187451,2.471082,-169.110474
00583,NaN,-0.451048,-9.424470,-2.387637,0.027994,0.009496,-0.080061,-0.017174,0.016845,0.050561,-0.075328,0.061411,-0.786594,0.609774,-104.195775,2.499554,-169.125606
00584,NaN,-0.579678,-9.406499,-2.427291,0.142394,0.073555,-0.082101,-0.018614,0.019117,0.041993,-0.075408,0.061193,-0.786659,0.609702,-104.205025,2.523027,-169.139880
00585,NaN,-0.819879,-9.435642,-2.338074,0.392538,0.024482,-0.065100,-0.021286,0.003646,0.023121,-0.075485,0.061093,-0.786721,0.609623,-104.215239,2.538136,-169.143772
00586,NaN,-0.856889,-9.455170,-2.452660,0.405276,0.133184,-0.016359,-0.026363,-0.014769,0.004055,-0.075580,0.061131,-0.786785,0.609524,-104.227864,2.545303,-169.133871
00587,NaN,-0.666314,-9.443946,-2.432518,0.222034,0.078768,-0.040598,-0.028027,-0.024782,-0.013452,-0.075657,0.061264,-0.786846,0.609422,-104.241110,2.544187,-169.116554
00588,NaN,-0.455573,-9.441705,-2.384716,0.025347,-0.007436,-0.063867,-0.018526,-0.026080,-0.020133,-0.075726,0.061429,-0.786875,0.609360,-104.248815,2.539520,-169.096955
00589,NaN,-0.372151,-9.401980,-2.387427,-0.056466,-0.011585,-0.105359,-0.011893,-0.025877,-0.014975,-0.075809,0.061566,-0.786886,0.609322,-104.252832,2.537757,-169.078667
00590,NaN,-0.327427,-9.344638,-2.444419,-0.111361,0.047838,-0.148839,-0.010183,-0.026224,-0.012944,-0.075902,0.061700,-0.786891,0.609290,-104.255800,2.537105,-169.060001
00591,NaN,-0.272417,-9.350528,-2.377372,-0.152290,-0.028971,-0.162068,-0.023988,-0.021155,-0.002982,-0.075996,0.061780,-0.786944,0.609202,-104.266860,2.541130,-169.046347
00592,NaN,-0.319828,-9.404520,-2.407517,-0.112245,-0.006457,-0.100284,-0.013512,-0.011191,0.008434,-0.076094,0.061785,-0.786972,0.609153,-104.272237,2.550231,-169.039059
00593,NaN,-0.413108,-9.381455,-2.489823,-0.038593,0.093755,-0.098199,-0.016898,-0.014811,0.015348,-0.076222,0.061769,-0.787011,0.609088,-104.279446,2.563678,-169.031548
00594,NaN,-0.408505,-9.422816,-2.422417,-0.032135,0.016767,-0.074971,-0.018291,-0.025942,0.020263,-0.076413,0.061774,-0.787052,0.609011,-104.287266,2.581434,-169.017737
00595,NaN,-0.461657,-9.420006,-2.366056,0.028379,-0.028004,-0.089196,-0.023118,-0.027283,0.018617,-0.076600,0.061787,-0.787106,0.608916,-104.297787,2.598566,-169.003608
00596,NaN,-0.423016,-9.457421,-2.300066,0.001000,-0.109581,-0.071022,-0.020606,-0.025133,0.020295,-0.076786,0.061790,-0.787154,0.608830,-104.306945,2.616230,-168.990257
00597,NaN,-0.480160,-9.433018,-2.299133,0.054582,-0.095349,-0.092280,-0.017605,-0.022646,0.018419,-0.076954,0.061786,-0.787193,0.608760,-104.314297,2.632505,-168.978978
00598,NaN,-0.470069,-9.399417,-2.342632,0.033591,-0.049620,-0.114526,-0.023724,-0.022274,0.019433,-0.077126,0.061785,-0.787251,0.608663,-104.325303,2.649290,-168.967099
00599,NaN,-0.453511,-9.425162,-2.388432,0.005888,-0.017986,-0.079054,-0.019708,-0.023430,0.021420,-0.077304,0.061773,-0.787297,0.608582,-104.333929,2.667196,-168.955762
00600,NaN,-0.394151,-9.357524,-2.389910,-0.055601,-0.012812,-0.146922,-0.016494,-0.022536,0.022511,-0.077489,0.061758,-0.787334,0.608512,-104.340799,2.685730,-168.944180
00601,NaN,-0.372727,-9.423827,-2.408960,-0.083221,-0.017720,-0.079071,-0.024284,-0.017040,0.029982,-0.077667,0.061695,-0.787399,0.608412,-104.352244,2.707608,-168.937587
00602,NaN,-0.382768,-9.363878,-2.408329,-0.077023,-0.003357,-0.136799,-0.011634,-0.020973,0.033871,-0.077882,0.061628,-0.787425,0.608357,-104.356438,2.732229,-168.928494
00603,NaN,-0.315426,-9.375872,-2.399003,-0.145193,-0.030548,-0.130763,-0.029672,-0.017689,0.040132,-0.078093,0.061529,-0.787509,0.608232,-104.370989,2.759862,-168.922985
00604,NaN,-0.368050,-9.410706,-2.400213,-0.098347,-0.030436,-0.094289,-0.007037,-0.007709,0.048025,-0.078299,0.061365,-0.787530,0.608194,-104.372996,2.790455,-168.923285
00605,NaN,-0.422923,-9.407976,-2.343085,-0.037785,-0.075189,-0.108470,-0.017860,0.008728,0.043923,-0.078421,0.061166,-0.787590,0.608121,-104.381602,2.816375,-168.932878
00606,NaN,-0.547875,-9.428579,-2.397572,0.069771,-0.006885,-0.068884,-0.013735,0.011316,0.046148,-0.078546,0.060954,-0.787639,0.608063,-104.387955,2.843218,-168.943489
00607,NaN,-0.606368,-9.403891,-2.396423,0.123354,0.007355,-0.090114,-0.018994,0.008629,0.039813,-0.078655,0.060771,-0.787700,0.607987,-104.397099,2.866953,-168.952575
00608,NaN,-0.642799,-9.425762,-2.426176,0.149786,0.034671,-0.059694,-0.020665,-0.001128,0.032016,-0.078783,0.060656,-0.787761,0.607904,-104.406983,2.887724,-168.954264
00609,NaN,-0.752193,-9.397201,-2.409278,0.257576,0.044603,-0.085947,-0.021047,-0.012596,0.021560,-0.078919,0.060610,-0.787815,0.607821,-104.416625,2.904251,-168.948953
00610,NaN,-0.688423,-9.368752,-2.426637,0.189305,0.053926,-0.112313,-0.024205,-0.042796,0.011405,-0.079148,0.060704,-0.787863,0.607719,-104.427214,2.919530,-168.924552
00611,NaN,-0.444295,-9.418712,-2.509493,-0.068631,0.070978,-0.055775,-0.018673,-0.038174,0.011215,-0.079355,0.060778,-0.787897,0.607640,-104.434818,2.933958,-168.903301
00612,NaN,-0.427806,-9.391226,-2.383603,-0.061950,-0.046140,-0.114557,-0.015341,-0.033539,0.012551,-0.079553,0.060836,-0.787923,0.607576,-104.440588,2.948557,-168.884210
00613,NaN,-0.590766,-9.392159,-2.534033,0.065542,0.126493,-0.067807,-0.009204,-0.048577,0.006989,-0.079790,0.060953,-0.787922,0.607534,-104.442345,2.962061,-168.856807
00614,NaN,-0.580131,-9.341407,-2.505412,0.058336,0.109054,-0.124538,-0.019730,-0.086560,0.004437,-0.080171,0.061205,-0.787937,0.607439,-104.449033,2.979739,-168.807099
00615,NaN,-0.555957,-9.392115,-2.411013,0.051367,0.000305,-0.100260,-0.023019,-0.068454,-0.003079,-0.080454,0.061428,-0.787967,0.607340,-104.457978,2.990763,-168.767146
00616,NaN,-0.573670,-9.402994,-2.426093,0.064301,0.014101,-0.085047,-0.009847,-0.058432,-0.006466,-0.080694,0.061633,-0.787959,0.607297,-104.459717,2.998379,-168.731506
00617,NaN,-0.608727,-9.406429,-2.425855,0.097589,0.019001,-0.079942,-0.017693,-0.057687,-0.007472,-0.080921,0.061838,-0.787976,0.607225,-104.465866,3.005317,-168.697034
00618,NaN,-0.500039,-9.454253,-2.433320,-0.011244,-0.008665,-0.037525,-0.018381,-0.051884,-0.008117,-0.081127,0.062033,-0.787996,0.607151,-104.472666,3.011087,-168.664795
00619,NaN,-0.502434,-9.416520,-2.376138,0.001980,-0.053283,-0.088157,-0.002337,-0.037575,-0.006610,-0.081283,0.062168,-0.787975,0.607144,-104.470653,3.015623,-168.641528
00620,NaN,-0.468581,-9.412719,-2.377547,-0.032397,-0.057640,-0.093263,-0.004781,-0.030408,-0.001030,-0.081431,0.062265,-0.787965,0.607127,-104.470336,3.022251,-168.622237
00621,NaN,-0.497756,-9.456991,-2.350204,0.000992,-0.089282,-0.055745,-0.006350,-0.017212,-0.005258,-0.081510,0.062335,-0.787964,0.607110,-104.471312,3.024622,-168.610268
00622,NaN,-0.467876,-9.431227,-2.407441,-0.040370,-0.034674,-0.067951,-0.005896,-0.011313,-0.001796,-0.081580,0.062378,-0.787965,0.607095,-104.472186,3.028091,-168.601475
00623,NaN,-0.524404,-9.405486,-2.446778,0.006284,0.020272,-0.080039,-0.000015,-0.004546,0.001227,-0.081630,0.062380,-0.787953,0.607105,-104.469879,3.032305,-168.597576
00624,NaN,-0.594195,-9.394154,-2.415450,0.080295,0.007339,-0.095121,-0.003585,0.002521,0.002716,-0.081660,0.062362,-0.787954,0.607101,-104.469869,3.036296,-168.597115
00625,NaN,-0.635801,-9.355588,-2.483141,0.106551,0.089482,-0.113311,-0.001978,-0.011684,-0.001302,-0.081728,0.062396,-0.787943,0.607103,-104.468333,3.040021,-168.589212
00626,NaN,-0.604215,-9.367520,-2.597511,0.051383,0.188984,-0.074914,0.005381,-0.037513,-0.007114,-0.081889,0.062534,-0.787897,0.607126,-104.461929,3.044288,-168.565101
00627,NaN,-0.582949,-9.361212,-2.456045,0.058217,0.053594,-0.117430,0.008545,-0.064909,-0.006917,-0.082155,0.062749,-0.787831,0.607154,-104.452882,3.052527,-168.526543
00628,NaN,-0.601209,-9.354151,-2.439050,0.078037,0.044948,-0.127521,0.021923,-0.081227,-0.017717,-0.082460,0.063055,-0.787714,0.607233,-104.435620,3.057149,-168.476623
00629,NaN,-0.580533,-9.365338,-2.367456,0.071041,-0.027279,-0.135621,0.016443,-0.091179,-0.014839,-0.082806,0.063376,-0.787610,0.607287,-104.421153,3.064670,-168.422498
00630,NaN,-0.540424,-9.421397,-2.369532,0.029850,-0.045710,-0.083017,0.009495,-0.098837,-0.020495,-0.083169,0.063752,-0.787522,0.607312,-104.410456,3.070238,-168.362392
00631,NaN,-0.469634,-9.434464,-2.357882,-0.038316,-0.072954,-0.077058,0.005434,-0.092107,-0.015463,-0.083515,0.064083,-0.787450,0.607323,-104.402214,3.077655,-168.307618
00632,NaN,-0.433247,-9.451205,-2.345165,-0.072644,-0.095584,-0.065977,0.005697,-0.069968,-0.010395,-0.083793,0.064333,-0.787389,0.607338,-104.394619,3.084697,-168.264995
00633,NaN,-0.501393,-9.477696,-2.370429,-0.012460,-0.063594,-0.030415,0.005645,-0.045441,-0.009751,-0.083973,0.064500,-0.787338,0.607361,-104.387736,3.088650,-168.236807
00634,NaN,-0.544169,-9.420672,-2.408096,0.020690,-0.003931,-0.073916,0.003391,-0.025446,-0.006342,-0.084088,0.064600,-0.787303,0.607380,-104.382820,3.091594,-168.219505
00635,NaN,-0.578975,-9.405752,-2.377416,0.060873,-0.021468,-0.094081,-0.000242,-0.008502,-0.008757,-0.084123,0.064653,-0.787285,0.607392,-104.380357,3.090851,-168.212127
00636,NaN,-0.580126,-9.404284,-2.419549,0.053364,0.019502,-0.084991,0.001042,-0.005667,-0.012653,-0.084140,0.064718,-0.787264,0.607410,-104.377331,3.087476,-168.204920
00637,NaN,-0.648126,-9.393094,-2.387905,0.127361,0.006617,-0.100010,-0.006512,0.011644,-0.015549,-0.084074,0.064738,-0.787272,0.607408,-104.378935,3.080169,-168.207862
00638,NaN,-0.623844,-9.422405,-2.348329,0.113447,-0.043173,-0.082794,-0.006408,0.005293,-0.021095,-0.084019,0.064806,-0.787275,0.607404,-104.380442,3.070549,-168.205543
00639,NaN,-0.555946,-9.394468,-2.365193,0.045210,-0.033935,-0.109283,-0.007336,0.003599,-0.022234,-0.083964,0.064879,-0.787280,0.607397,-104.382378,3.060530,-168.202873
00640,NaN,-0.516715,-9.410871,-2.354343,0.010882,-0.056570,-0.098208,-0.012197,-0.002273,-0.022632,-0.083933,0.064979,-0.787297,0.607369,-104.386967,3.051134,-168.196129
00641,NaN,-0.511885,-9.430996,-2.342307,0.010361,-0.074551,-0.081991,-0.013343,0.003180,-0.019703,-0.083885,0.065046,-0.787321,0.607337,-104.392315,3.042667,-168.193596
00642,NaN,-0.534577,-9.399852,-2.426069,0.016209,0.016471,-0.090123,-0.014390,0.003291,-0.014073,-0.083857,0.065096,-0.787349,0.607298,-104.398391,3.037230,-168.191164
00643,NaN,-0.529350,-9.438599,-2.443414,0.008771,0.020945,-0.048615,-0.019349,0.002759,-0.017173,-0.083816,0.065157,-0.787392,0.607242,-104.407230,3.030106,-168.188771
00644,NaN,-0.553898,-9.406000,-2.568875,0.007632,0.152675,-0.047679,0.001506,-0.010866,-0.023242,-0.083822,0.065280,-0.787364,0.607265,-104.403714,3.021599,-168.177161
00645,NaN,-0.569472,-9.362716,-2.453472,0.048322,0.058405,-0.117404,-0.003851,-0.031720,-0.024674,-0.083899,0.065469,-0.787343,0.607261,-104.402671,3.015245,-168.154395
00646,NaN,-0.548274,-9.371891,-2.426279,0.034373,0.026861,-0.116406,0.003968,-0.042540,-0.029523,-0.084011,0.065712,-0.787292,0.607286,-104.396775,3.007765,-168.124288
00647,NaN,-0.512286,-9.368194,-2.427540,-0.000007,0.022469,-0.121561,-0.003769,-0.042609,-0.029013,-0.084119,0.065951,-0.787264,0.607280,-104.395297,3.000641,-168.094867
00648,NaN,-0.467888,-9.425440,-2.389055,-0.034261,-0.036672,-0.078063,0.006031,-0.040740,-0.024303,-0.084240,0.066166,-0.787209,0.607311,-104.388318,2.995797,-168.066507
00649,NaN,-0.484937,-9.399473,-2.344210,-0.007489,-0.067751,-0.113413,0.003516,-0.028243,-0.021393,-0.084316,0.066326,-0.787168,0.607337,-104.383000,2.990833,-168.046481
00650,NaN,-0.465995,-9.407039,-2.359225,-0.028418,-0.058592,-0.103350,-0.000975,-0.022884,-0.021016,-0.084374,0.066478,-0.787142,0.607346,-104.380581,2.985267,-168.028514
00651,NaN,-0.481649,-9.418378,-2.373078,-0.015543,-0.044749,-0.088127,-0.003483,-0.009384,-0.009849,-0.084408,0.066538,-0.787134,0.607346,-104.379905,2.984021,-168.020635
00652,NaN,-0.481268,-9.418370,-2.373185,-0.016089,-0.044492,-0.088126,0.000328,-0.007942,-0.002597,-0.084464,0.066571,-0.787117,0.607356,-104.377309,2.986551,-168.013596
00653,NaN,-0.480963,-9.418287,-2.373579,-0.016658,-0.044230,-0.088126,-0.008875,0.004368,-0.004793,-0.084459,0.066574,-0.787132,0.607336,-104.380268,2.986234,-168.013777
00654,NaN,-0.515622,-9.403216,-2.344007,0.023573,-0.061775,-0.108238,-0.010829,0.007323,-0.001515,-0.084455,0.066561,-0.787156,0.607307,-104.384516,2.987192,-168.015377
00655,NaN,-0.534895,-9.393944,-2.372121,0.036426,-0.029720,-0.109233,-0.013012,0.011874,-0.001195,-0.084430,0.066530,-0.787189,0.607271,-104.390218,2.987669,-168.020075
00656,NaN,-0.584624,-9.427564,-2.414700,0.076161,0.011227,-0.063554,-0.015196,0.016425,-0.000876,-0.084390,0.066489,-0.787231,0.607228,-104.397237,2.987685,-168.026824
00657,NaN,-0.653247,-9.416235,-2.384353,0.150207,-0.001616,-0.078481,-0.018772,0.017932,-0.006392,-0.084321,0.066459,-0.787281,0.607176,-104.406108,2.984405,-168.034679
00658,NaN,-0.582399,-9.426699,-2.418611,0.075059,0.011782,-0.063546,-0.025574,0.023094,-0.014208,-0.084211,0.066454,-0.787352,0.607099,-104.419164,2.976070,-168.043230
00659,NaN,-0.477779,-9.414510,-2.425428,-0.026963,-0.001949,-0.079074,-0.019802,0.026124,-0.011451,-0.084097,0.066421,-0.787408,0.607046,-104.428949,2.968964,-168.054562
00660,NaN,-0.499098,-9.420664,-2.567325,-0.035105,0.133999,-0.036698,-0.010472,0.017558,-0.008993,-0.084029,0.066407,-0.787432,0.607026,-104.433230,2.964310,-168.060780
00661,NaN,-0.578894,-9.328414,-2.588536,0.038817,0.194112,-0.116515,0.001700,-0.021531,-0.017871,-0.084089,0.066535,-0.787400,0.607044,-104.429282,2.960286,-168.044828
00662,NaN,-0.548308,-9.381391,-2.450728,0.038958,0.044659,-0.101164,-0.004563,-0.039539,-0.021680,-0.084210,0.066741,-0.787379,0.607033,-104.428446,2.956744,-168.017508
00663,NaN,-0.516589,-9.338651,-2.435845,0.011525,0.036044,-0.147845,0.013208,-0.035642,-0.023997,-0.084310,0.066930,-0.787304,0.607096,-104.417372,2.951424,-167.992958
00664,NaN,-0.523028,-9.411328,-2.408847,0.024491,-0.004854,-0.083938,0.006858,-0.033676,-0.025900,-0.084399,0.067130,-0.787248,0.607133,-104.410134,2.944697,-167.968294
00665,NaN,-0.570239,-9.428594,-2.377672,0.078158,-0.027048,-0.072562,0.014015,-0.028600,-0.025563,-0.084468,0.067304,-0.787173,0.607201,-104.398835,2.937567,-167.947286
00666,NaN,-0.462797,-9.437449,-2.367992,-0.023797,-0.059052,-0.071899,0.007328,-0.023240,-0.023643,-0.084523,0.067463,-0.787122,0.607243,-104.391647,2.930599,-167.928746
00667,NaN,-0.527493,-9.447240,-2.321898,0.050286,-0.090129,-0.070555,0.007235,-0.007810,-0.020518,-0.084521,0.067556,-0.787078,0.607290,-104.384819,2.923193,-167.920218
00668,NaN,-0.514117,-9.414267,-2.362838,0.029280,-0.044495,-0.092970,0.008638,0.004321,-0.017116,-0.084488,0.067605,-0.787036,0.607343,-104.377713,2.915920,-167.917926
00669,NaN,-0.491849,-9.442218,-2.364265,0.008360,-0.053579,-0.066703,0.005404,0.003429,-0.018195,-0.084450,0.067658,-0.787003,0.607385,-104.372412,2.908187,-167.915699
00670,NaN,-0.495964,-9.401833,-2.390089,0.007753,-0.016844,-0.099160,0.008185,0.013061,-0.015995,-0.084385,0.067676,-0.786967,0.607439,-104.365820,2.900294,-167.918426
00671,NaN,-0.528481,-9.405996,-2.388185,0.040980,-0.011865,-0.093960,0.000690,0.015922,-0.013732,-0.084309,0.067672,-0.786954,0.607466,-104.363321,2.893408,-167.924210
00672,NaN,-0.492496,-9.402144,-2.389579,0.006623,-0.016289,-0.099158,0.004495,0.016365,-0.014734,-0.084234,0.067677,-0.786931,0.607506,-104.358944,2.885745,-167.928954
00673,NaN,-0.545465,-9.378572,-2.385897,0.060236,-0.001985,-0.120215,-0.001046,0.016275,-0.015753,-0.084150,0.067681,-0.786924,0.607527,-104.357569,2.877651,-167.934411
00674,NaN,-0.520026,-9.426663,-2.374780,0.039341,-0.029307,-0.077721,0.002186,0.021712,-0.015895,-0.084050,0.067676,-0.786909,0.607560,-104.354654,2.868585,-167.941962
00675,NaN,-0.522634,-9.404845,-2.430445,0.031710,0.029921,-0.084922,-0.004279,0.033556,-0.021714,-0.083879,0.067653,-0.786917,0.607576,-104.355553,2.854720,-167.956205
00676,NaN,-0.479571,-9.405531,-2.306084,0.018450,-0.096634,-0.117207,-0.007507,0.038208,-0.015759,-0.083711,0.067601,-0.786939,0.607577,-104.358645,2.843386,-167.972942
00677,NaN,-0.441701,-9.420115,-2.337646,-0.022921,-0.078590,-0.097156,-0.010516,0.053893,-0.018765,-0.083468,0.067509,-0.786976,0.607573,-104.363844,2.828216,-167.998651
00678,NaN,-0.441904,-9.399586,-2.352248,-0.023491,-0.060099,-0.113388,-0.013523,0.061492,-0.011076,-0.083221,0.067370,-0.787027,0.607556,-104.371046,2.816167,-168.028992
00679,NaN,-0.451387,-9.432504,-2.312476,-0.003579,-0.105184,-0.090941,-0.020916,0.059008,-0.006132,-0.082990,0.067216,-0.787101,0.607508,-104.382315,2.807205,-168.059604
00680,NaN,-0.450551,-9.449153,-2.385913,-0.018175,-0.041744,-0.056664,-0.020583,0.061159,-0.002921,-0.082766,0.067049,-0.787177,0.607460,-104.393599,2.799719,-168.090917
00681,NaN,-0.435372,-9.416979,-2.387528,-0.032148,-0.036805,-0.088134,-0.019908,0.065456,0.003509,-0.082540,0.066836,-0.787253,0.607415,-104.404473,2.795172,-168.126580
00682,NaN,-0.486062,-9.413132,-2.373276,0.021524,-0.040748,-0.092933,-0.023620,0.068762,0.004749,-0.082308,0.066617,-0.787343,0.607353,-104.417750,2.790845,-168.163209
00683,NaN,-0.486866,-9.410921,-2.418000,0.013923,0.000211,-0.083916,-0.022600,0.069663,0.007358,-0.082079,0.066380,-0.787432,0.607295,-104.430516,2.787898,-168.201287
00684,NaN,-0.490806,-9.388456,-2.475501,0.006306,0.059412,-0.091137,-0.014428,0.071103,0.011548,-0.081862,0.066123,-0.787497,0.607268,-104.438634,2.786994,-168.240187
00685,NaN,-0.507347,-9.416506,-2.562035,0.005051,0.136454,-0.041640,-0.009465,0.066107,0.007614,-0.081651,0.065889,-0.787544,0.607261,-104.443655,2.784745,-168.276503
00686,NaN,-0.476406,-9.373342,-2.548129,-0.022304,0.127770,-0.088355,0.002564,0.044258,0.008681,-0.081537,0.065719,-0.787545,0.607293,-104.441291,2.786081,-168.300080
00687,NaN,-0.486226,-9.408314,-2.464435,0.004660,0.041992,-0.074903,-0.000082,0.038369,0.006731,-0.081433,0.065567,-0.787552,0.607315,-104.440129,2.787142,-168.321123
00688,NaN,-0.488134,-9.370974,-2.406349,0.018173,-0.002706,-0.125397,0.005230,0.035514,0.006030,-0.081346,0.065432,-0.787541,0.607356,-104.435983,2.788258,-168.339463
00689,NaN,-0.461718,-9.439355,-2.381713,-0.002736,-0.048228,-0.066672,0.001421,0.030523,0.008237,-0.081280,0.065299,-0.787540,0.607381,-104.433767,2.791365,-168.356254
00690,NaN,-0.449918,-9.406098,-2.422965,-0.023744,-0.002619,-0.089144,0.008092,0.035258,0.012157,-0.081213,0.065139,-0.787522,0.607430,-104.428019,2.795919,-168.375328
00691,NaN,-0.539131,-9.386516,-2.418207,0.063708,0.016415,-0.104920,0.003243,0.038467,0.009289,-0.081118,0.064976,-0.787518,0.607464,-104.424944,2.798412,-168.396810
00692,NaN,-0.645830,-9.359449,-2.398926,0.171585,0.026537,-0.130690,-0.003321,0.032934,0.006843,-0.081041,0.064850,-0.787532,0.607470,-104.425638,2.800352,-168.413834
00693,NaN,-0.571074,-9.391929,-2.375807,0.103454,-0.019054,-0.108675,-0.011680,0.018463,-0.004918,-0.080979,0.064810,-0.787562,0.607444,-104.430547,2.797961,-168.421920
00694,NaN,-0.583783,-9.423315,-2.377893,0.116309,-0.023425,-0.077187,-0.015717,0.019622,-0.006900,-0.080908,0.064783,-0.787604,0.607402,-104.437885,2.794174,-168.429583
00695,NaN,-0.452880,-9.364684,-2.452759,-0.026551,0.035175,-0.121635,-0.011907,0.020066,-0.007883,-0.080830,0.064752,-0.787634,0.607376,-104.443026,2.789827,-168.438025
00696,NaN,-0.423976,-9.451400,-2.458715,-0.054509,0.012122,-0.037675,-0.016115,0.041214,-0.007993,-0.080671,0.064663,-0.787686,0.607340,-104.451166,2.782345,-168.457525
00697,NaN,-0.470774,-9.451240,-2.358974,0.013293,-0.073207,-0.060416,-0.000333,0.052634,-0.008188,-0.080468,0.064529,-0.787694,0.607371,-104.450514,2.773169,-168.484085
00698,NaN,-0.477019,-9.390149,-2.399332,0.012692,-0.018266,-0.109144,-0.009706,0.061201,-0.010720,-0.080224,0.064388,-0.787733,0.607367,-104.455494,2.761314,-168.514296
00699,NaN,-0.488504,-9.421670,-2.401141,0.025529,-0.022602,-0.077657,-0.006755,0.064693,-0.004338,-0.079981,0.064203,-0.787766,0.607376,-104.458720,2.752514,-168.548410
00700,NaN,-0.456291,-9.395525,-2.458597,-0.015906,0.031882,-0.090161,-0.005081,0.082543,-0.007228,-0.079665,0.063982,-0.787800,0.607396,-104.461630,2.739539,-168.590974
00701,NaN,-0.485965,-9.401148,-2.416142,0.024433,-0.003846,-0.093898,-0.004743,0.088253,-0.013512,-0.079302,0.063762,-0.787834,0.607423,-104.464417,2.722180,-168.636617
00702,NaN,-0.497926,-9.431189,-2.459671,0.030196,0.032503,-0.053421,0.002392,0.084247,-0.010692,-0.078972,0.063546,-0.787845,0.607474,-104.463042,2.707036,-168.679629
00703,NaN,-0.582556,-9.413413,-2.413634,0.124745,0.010836,-0.078127,0.005288,0.078450,-0.011593,-0.078657,0.063345,-0.787845,0.607536,-104.459815,2.692153,-168.720085
00704,NaN,-0.580897,-9.394928,-2.384632,0.131263,-0.011384,-0.103350,0.002649,0.054164,-0.018370,-0.078421,0.063251,-0.787841,0.607582,-104.457437,2.677057,-168.745289
00705,NaN,-0.475118,-9.399926,-2.459058,0.015199,0.037917,-0.084910,-0.001779,0.040325,-0.021379,-0.078225,0.063208,-0.787844,0.607607,-104.457253,2.662189,-168.763067
00706,NaN,-0.414831,-9.444045,-2.448396,-0.039543,0.005898,-0.047694,0.009517,0.034356,-0.015051,-0.078080,0.063158,-0.787813,0.607673,-104.450440,2.651769,-168.777745
00707,NaN,-0.490406,-9.372886,-2.456013,0.034502,0.047792,-0.111141,0.017405,0.037207,-0.023518,-0.077897,0.063124,-0.787755,0.607774,-104.439040,2.636364,-168.793540
00708,NaN,-0.471104,-9.378975,-2.512109,0.006436,0.097648,-0.092182,0.009896,0.030961,-0.018868,-0.077753,0.063099,-0.787720,0.607841,-104.431891,2.624316,-168.805790
00709,NaN,-0.446798,-9.391692,-2.399112,0.006724,-0.015330,-0.109133,0.020161,0.028651,-0.016393,-0.077625,0.063062,-0.787653,0.607948,-104.418780,2.613965,-168.817896
00710,NaN,-0.391287,-9.397092,-2.371101,-0.040956,-0.051621,-0.113397,0.017970,0.024101,-0.013641,-0.077527,0.063034,-0.787592,0.608042,-104.406861,2.605801,-168.827085
00711,NaN,-0.418305,-9.459291,-2.413532,-0.021843,-0.019852,-0.041432,0.013576,0.019551,-0.009366,-0.077453,0.062999,-0.787544,0.608118,-104.397247,2.600609,-168.835376
00712,NaN,-0.432731,-9.373676,-2.591168,-0.043728,0.175422,-0.079521,0.029669,-0.016320,-0.003938,-0.077547,0.063051,-0.787434,0.608242,-104.377668,2.603588,-168.823495
00713,NaN,-0.399181,-9.335773,-2.448362,-0.049709,0.044551,-0.153183,-0.004333,-0.032055,0.001953,-0.077707,0.063137,-0.787424,0.608225,-104.377225,2.612069,-168.804383
00714,NaN,-0.400120,-9.452213,-2.310643,-0.022635,-0.114095,-0.074619,0.024212,-0.025322,0.007200,-0.077869,0.063175,-0.787332,0.608321,-104.360613,2.622507,-168.789085
00715,NaN,-0.399975,-9.338014,-2.403363,-0.043712,0.004375,-0.162158,0.010614,-0.023111,0.002132,-0.077998,0.063225,-0.787279,0.608367,-104.351705,2.629920,-168.775129
00716,NaN,-0.402216,-9.469940,-2.378950,-0.037929,-0.050353,-0.040432,0.012160,-0.021664,0.010941,-0.078153,0.063242,-0.787226,0.608414,-104.342111,2.641909,-168.762392
00717,NaN,-0.401920,-9.471785,-2.335557,-0.031351,-0.090799,-0.049397,0.011486,0.001541,0.006832,-0.078200,0.063201,-0.787182,0.608469,-104.333488,2.648205,-168.762709
00718,NaN,-0.458895,-9.446976,-2.373549,0.015222,-0.035754,-0.061371,0.022236,0.013435,0.011780,-0.078222,0.063103,-0.787112,0.608567,-104.319025,2.655679,-168.769592
00719,NaN,-0.408916,-9.431931,-2.358724,-0.032478,-0.053807,-0.081903,0.017094,0.023791,0.012937,-0.078201,0.062965,-0.787061,0.608650,-104.307575,2.662399,-168.783458
00720,NaN,-0.515170,-9.424144,-2.367628,0.068338,-0.021118,-0.082300,0.017091,0.023792,0.012935,-0.078184,0.062833,-0.787011,0.608730,-104.296337,2.669051,-168.796257
00721,NaN,-0.488332,-9.361162,-2.364375,0.041101,-0.011663,-0.145306,0.022900,0.021287,0.008710,-0.078163,0.062721,-0.786942,0.608835,-104.281754,2.673634,-168.807679
00722,NaN,-0.463867,-9.428180,-2.380386,0.013034,-0.016458,-0.077620,0.007840,0.013148,0.007054,-0.078168,0.062649,-0.786913,0.608878,-104.275504,2.678530,-168.813728
00723,NaN,-0.413609,-9.412998,-2.366181,-0.034627,-0.034556,-0.098161,0.017584,0.019593,0.010610,-0.078157,0.062535,-0.786860,0.608960,-104.263897,2.684426,-168.824530
00724,NaN,-0.463360,-9.430301,-2.335731,0.019076,-0.056644,-0.086571,0.012038,0.024049,0.008300,-0.078124,0.062423,-0.786824,0.609023,-104.255535,2.688478,-168.836813
00725,NaN,-0.499114,-9.433123,-2.375703,0.045219,-0.010933,-0.072322,0.018862,0.022442,0.006705,-0.078091,0.062316,-0.786766,0.609112,-104.243264,2.691794,-168.848630
00726,NaN,-0.467209,-9.409187,-2.388388,0.010880,0.002803,-0.093873,0.016193,0.034745,-0.000199,-0.077991,0.062204,-0.786718,0.609198,-104.232745,2.689622,-168.865659
00727,NaN,-0.599294,-9.464846,-2.398870,0.138370,0.026356,-0.031215,0.020812,0.033141,-0.000274,-0.077894,0.062087,-0.786656,0.609303,-104.219383,2.687663,-168.882777
00728,NaN,-0.578878,-9.341148,-2.435388,0.111111,0.090447,-0.143006,0.023787,0.030881,-0.010641,-0.077780,0.062025,-0.786581,0.609421,-104.204342,2.680243,-168.896188
00729,NaN,-0.534459,-9.415798,-2.465768,0.062574,0.094558,-0.065377,0.017078,0.017830,-0.013579,-0.077701,0.062010,-0.786520,0.609512,-104.192670,2.672965,-168.902904
00730,NaN,-0.482093,-9.400894,-2.450835,0.014909,0.076453,-0.085933,0.022020,0.004519,-0.016446,-0.077672,0.062051,-0.786438,0.609617,-104.177917,2.666028,-168.900843
00731,NaN,-0.429967,-9.386134,-2.435218,-0.032779,0.058359,-0.106494,0.030775,0.000967,-0.013028,-0.077668,0.062080,-0.786328,0.609755,-104.157957,2.661636,-168.898119
00732,NaN,-0.442466,-9.401228,-2.362284,-0.005733,-0.009174,-0.109125,0.021833,-0.002984,-0.016931,-0.077667,0.062146,-0.786244,0.609858,-104.143115,2.655480,-168.891822
00733,NaN,-0.406876,-9.380457,-2.289794,-0.025824,-0.076899,-0.148574,0.025226,0.005421,-0.015349,-0.077639,0.062176,-0.786153,0.609975,-104.126675,2.649197,-168.890723
00734,NaN,-0.450434,-9.437093,-2.274160,0.020764,-0.094677,-0.095484,0.020692,0.010776,-0.015043,-0.077590,0.062193,-0.786078,0.610076,-104.112854,2.642163,-168.892347
00735,NaN,-0.503259,-9.431457,-2.340920,0.060167,-0.017102,-0.082238,0.022169,0.016575,-0.017226,-0.077509,0.062195,-0.786000,0.610187,-104.098250,2.633248,-168.897609
00736,NaN,-0.539551,-9.414496,-2.393393,0.086266,0.046841,-0.084248,0.026412,0.004517,-0.019499,-0.077472,0.062246,-0.785903,0.610311,-104.080963,2.624612,-168.895132
00737,NaN,-0.521286,-9.403721,-2.377112,0.072401,0.033480,-0.099500,0.020947,-0.018549,-0.024070,-0.077507,0.062383,-0.785814,0.610408,-104.066179,2.616632,-168.879938
00738,NaN,-0.484041,-9.401693,-2.333558,0.045219,-0.011722,-0.113747,0.022987,-0.030604,-0.024821,-0.077591,0.062564,-0.785712,0.610510,-104.049931,2.609924,-168.857184
00739,NaN,-0.359479,-9.400155,-2.264570,-0.062817,-0.098281,-0.137626,0.017805,-0.037647,-0.020184,-0.077710,0.062745,-0.785626,0.610587,-104.036496,2.606638,-168.831993
00740,NaN,-0.299438,-9.463148,-2.281066,-0.124724,-0.107822,-0.075289,0.011860,-0.020475,-0.011459,-0.077792,0.062847,-0.785566,0.610643,-104.026966,2.605940,-168.816737
00741,NaN,-0.391118,-9.423945,-2.289286,-0.037265,-0.070471,-0.107112,0.024313,-0.013450,-0.003257,-0.077870,0.062884,-0.785474,0.610748,-104.010378,2.608884,-168.807503
00742,NaN,-0.411817,-9.414143,-2.357388,-0.031636,0.002342,-0.099194,0.006357,-0.006492,0.003216,-0.077940,0.062887,-0.785441,0.610780,-104.004447,2.614398,-168.802066
00743,NaN,-0.513415,-9.445538,-2.382654,0.062018,0.039417,-0.058026,0.011839,0.002710,0.001780,-0.077966,0.062860,-0.785395,0.610839,-103.995515,2.617799,-168.802469
00744,NaN,-0.574044,-9.381933,-2.405369,0.115708,0.090196,-0.111426,0.020791,-0.007193,-0.000326,-0.078032,0.062874,-0.785317,0.610930,-103.981273,2.621440,-168.796149
00745,NaN,-0.514831,-9.427382,-2.350978,0.068045,0.017424,-0.083210,0.004418,-0.013873,-0.009040,-0.078093,0.062946,-0.785284,0.610957,-103.976263,2.621384,-168.785240
00746,NaN,-0.549592,-9.430516,-2.390920,0.094126,0.063169,-0.068955,0.023538,-0.007871,-0.013672,-0.078122,0.063013,-0.785193,0.611063,-103.960346,2.617696,-168.776693
