// General information: 
//  MT Manager version: 2019.0.1 
//  XDA version: 2019.0.1 build 2740 rev 84096 built on 2019-01-30
// Device information: 
//  DeviceId: 00B43876
//  ProductCode: MTW2-3A7G6
//  Firmware Version: 4.3.4
//  Hardware Version: 1.1.0
// Device settings: 
//  Filter Profile: human(46.1)
//  Option Flags: Orientation Smoother Disabled, AHS Disabled, ICC Disabled
// Coordinate system: ENU
PacketCounter,SampleTimeFine,Acc_X,Acc_Y,Acc_Z,FreeAcc_E,FreeAcc_N,FreeAcc_U,Gyr_X,Gyr_Y,Gyr_Z,Quat_q0,Quat_q1,Quat_q2,Quat_q3,Roll,Pitch,Yaw
07013,NaN,-0.894343,9.857744,0.158739,-0.010116,0.010875,0.086805,-0.000161,0.007043,-0.002795,0.487597,0.524055,-0.466756,-0.519379,89.136475,5.116970,-88.574990
07014,NaN,-0.875234,9.845886,0.109188,0.039384,-0.005875,0.072546,-0.000642,0.003540,-0.008116,0.487576,0.524065,-0.466759,-0.519386,89.137975,5.118870,-88.576171
07015,NaN,-0.873290,9.822434,0.116024,0.032226,-0.005803,0.049119,-0.006726,0.004716,0.000061,0.487594,0.524041,-0.466768,-0.519385,89.136064,5.115936,-88.577043
07016,NaN,-0.842454,9.814079,0.166650,-0.017839,-0.036856,0.038808,0.001063,0.010008,-0.004722,0.487593,0.524063,-0.466769,-0.519363,89.138874,5.115948,-88.574474
07017,NaN,-0.871654,9.859240,0.156394,-0.007862,-0.011328,0.086234,-0.001402,0.006960,-0.001398,0.487598,0.524060,-0.466783,-0.519348,89.139988,5.113810,-88.574257
07018,NaN,-0.898271,9.820719,0.119210,0.027898,0.019806,0.049688,-0.004262,0.007765,-0.003262,0.487610,0.524060,-0.466779,-0.519341,89.139634,5.112966,-88.572966
07019,NaN,-0.867490,9.782213,0.153283,-0.005834,-0.008174,0.009106,-0.007090,0.002809,-0.004063,0.487613,0.524039,-0.466782,-0.519357,89.137353,5.112348,-88.575118
07020,NaN,-0.846057,9.807231,0.144040,0.004155,-0.031439,0.031973,0.005077,0.001933,-0.004385,0.487583,0.524050,-0.466813,-0.519345,89.142050,5.112097,-88.577191
07021,NaN,-0.822294,9.808840,0.141023,0.007279,-0.055103,0.031413,-0.001650,0.006649,-0.004324,0.487580,0.524053,-0.466821,-0.519339,89.143190,5.111675,-88.577201
07022,NaN,-0.820707,9.785362,0.147615,0.000126,-0.055064,0.007986,-0.000889,0.003231,-0.011041,0.487552,0.524068,-0.466816,-0.519354,89.144529,5.115249,-88.578585
07023,NaN,-0.799883,9.810334,0.138521,0.010122,-0.078297,0.030860,-0.004774,0.010024,-0.009646,0.487552,0.524085,-0.466791,-0.519359,89.143890,5.117906,-88.576406
07024,NaN,-0.851311,9.770110,0.103885,0.042464,-0.023026,-0.005127,0.003524,0.013062,-0.008041,0.487543,0.524129,-0.466782,-0.519331,89.148265,5.119844,-88.572110
07025,NaN,-0.780055,9.805100,0.111913,0.036140,-0.098045,0.023474,0.002782,0.012129,-0.016819,0.487511,0.524187,-0.466753,-0.519329,89.152066,5.126642,-88.568703
07026,NaN,-0.711107,9.773099,0.062748,0.085645,-0.163610,-0.015291,0.005836,0.020282,-0.013619,0.487498,0.524269,-0.466718,-0.519291,89.158133,5.131837,-88.560300
07027,NaN,-0.686218,9.841664,0.116119,0.032919,-0.196749,0.051538,0.008739,0.032603,-0.012677,0.487507,0.524384,-0.466666,-0.519212,89.166426,5.136389,-88.545405
07028,NaN,-0.588700,9.854945,0.127609,0.023135,-0.296389,0.056174,0.000426,0.051339,-0.016797,0.487573,0.524540,-0.466533,-0.519113,89.170993,5.143661,-88.519163
07029,NaN,-0.577731,9.853003,0.024477,0.125822,-0.305846,0.051727,-0.001090,0.091632,-0.022805,0.487720,0.524809,-0.466284,-0.518926,89.176741,5.154529,-88.470206
07030,NaN,-0.618230,9.901229,-0.062012,0.212158,-0.269582,0.102084,-0.020495,0.128683,-0.031142,0.487983,0.525148,-0.465870,-0.518707,89.173325,5.170654,-88.399591
07031,NaN,-0.630094,9.934432,-0.121203,0.271901,-0.261338,0.135298,-0.010520,0.177728,-0.028760,0.488340,0.525631,-0.465371,-0.518331,89.178123,5.185643,-88.301049
07032,NaN,-0.780436,9.929390,0.097333,0.048464,-0.120093,0.146959,-0.012608,0.217792,-0.022689,0.488811,0.526200,-0.464781,-0.517838,89.183906,5.197648,-88.179099
07033,NaN,-0.967826,9.882239,0.178563,-0.039277,0.065987,0.118139,-0.034399,0.220221,-0.021811,0.489347,0.526718,-0.464133,-0.517386,89.177394,5.209033,-88.055911
07034,NaN,-1.020234,9.811601,0.128314,0.009456,0.124220,0.051862,-0.043018,0.198095,-0.024309,0.489847,0.527164,-0.463508,-0.517019,89.164772,5.221824,-87.945302
07035,NaN,-0.967091,9.744508,0.144671,-0.004523,0.075056,-0.019528,-0.034504,0.187147,-0.016993,0.490318,0.527585,-0.462952,-0.516642,89.156463,5.230207,-87.841091
07036,NaN,-1.005045,9.720821,0.257300,-0.118079,0.109249,-0.037985,-0.023539,0.171839,-0.013161,0.490734,0.527984,-0.462470,-0.516270,89.153668,5.236420,-87.745493
07037,NaN,-1.031247,9.749046,0.276857,-0.138126,0.130932,-0.007189,-0.015270,0.156008,-0.009511,0.491100,0.528352,-0.462059,-0.515913,89.154700,5.240221,-87.659346
07038,NaN,-1.057969,9.807369,0.312981,-0.174537,0.149601,0.053867,-0.013052,0.125028,-0.014157,0.491377,0.528658,-0.461716,-0.515642,89.155468,5.246609,-87.590685
07039,NaN,-1.009347,9.817311,0.331737,-0.191186,0.098346,0.059608,-0.012990,0.106058,-0.012257,0.491615,0.528908,-0.461427,-0.515418,89.155201,5.251574,-87.533237
07040,NaN,-1.026026,9.823933,0.178529,-0.038689,0.120257,0.065486,-0.012905,0.087061,-0.010381,0.491814,0.529108,-0.461187,-0.515238,89.154068,5.255478,-87.486386
07041,NaN,-1.008792,9.835594,0.123740,0.017644,0.103869,0.074718,-0.021141,0.070794,-0.011241,0.491995,0.529247,-0.460964,-0.515122,89.147271,5.259617,-87.448891
07042,NaN,-0.984585,9.777011,0.088966,0.053456,0.086116,0.013655,-0.019721,0.056365,-0.010073,0.492142,0.529350,-0.460783,-0.515038,89.140621,5.263090,-87.419698
07043,NaN,-1.005190,9.728333,0.104940,0.036101,0.109884,-0.032682,-0.004668,0.044354,-0.008084,0.492226,0.529452,-0.460677,-0.514947,89.141817,5.265152,-87.397728
07044,NaN,-1.035681,9.833567,0.127652,0.013350,0.129465,0.075236,0.005248,0.033278,-0.002293,0.492273,0.529539,-0.460638,-0.514848,89.148262,5.263970,-87.381751
07045,NaN,-1.059956,9.831829,0.130008,0.009675,0.154135,0.075761,-0.012038,0.014428,0.002327,0.492334,0.529521,-0.460615,-0.514829,89.143621,5.259784,-87.377099
07046,NaN,-1.053858,9.724838,0.110263,0.028425,0.159635,-0.031636,-0.011772,-0.005937,0.005860,0.492357,0.529446,-0.460650,-0.514852,89.138251,5.253596,-87.383613
07047,NaN,-1.042997,9.698102,0.193562,-0.055070,0.149001,-0.058035,0.013494,-0.016802,0.017464,0.492317,0.529374,-0.460811,-0.514821,89.146572,5.240435,-87.396967
07048,NaN,-1.044445,9.781937,0.219565,-0.081258,0.143993,0.025911,0.019216,-0.028763,0.021540,0.492246,0.529281,-0.461023,-0.514794,89.157774,5.225072,-87.416479
07049,NaN,-1.038680,9.795563,0.264610,-0.127925,0.137668,0.039551,0.024805,-0.039418,0.023903,0.492141,0.529167,-0.461284,-0.514778,89.171526,5.208134,-87.442303
07050,NaN,-1.018097,9.837777,0.223764,-0.087980,0.118278,0.079062,0.027752,-0.048942,0.027318,0.492016,0.529029,-0.461583,-0.514772,89.186583,5.189304,-87.473382
07051,NaN,-1.062943,9.804643,0.209079,-0.078699,0.170068,0.049841,0.032289,-0.059361,0.034007,0.491871,0.528859,-0.461938,-0.514766,89.203645,5.166443,-87.510607
07052,NaN,-1.087500,9.820133,0.178961,-0.052372,0.198565,0.066965,0.033975,-0.079277,0.039139,0.491689,0.528631,-0.462359,-0.514796,89.220731,5.140619,-87.559051
07053,NaN,-1.108818,9.782157,0.138298,-0.016496,0.229584,0.030393,0.041087,-0.098199,0.044622,0.491457,0.528356,-0.462863,-0.514847,89.240908,5.111360,-87.618893
07054,NaN,-1.051218,9.769404,0.160406,-0.040031,0.177851,0.012729,0.045856,-0.114049,0.055315,0.491205,0.528031,-0.463442,-0.514901,89.263086,5.076042,-87.687229
07055,NaN,-1.003720,9.843632,0.132495,-0.013068,0.131358,0.081991,0.051412,-0.130405,0.058792,0.490908,0.527666,-0.464086,-0.514978,89.287632,5.038525,-87.765167
07056,NaN,-1.019110,9.789124,0.121138,-0.007214,0.158483,0.028808,0.048943,-0.155269,0.064574,0.490575,0.527220,-0.464798,-0.515110,89.309599,4.997669,-87.857166
07057,NaN,-1.016120,9.776396,0.071729,0.038881,0.165762,0.015159,0.038484,-0.168024,0.071989,0.490257,0.526695,-0.465537,-0.515283,89.324988,4.952371,-87.956842
07058,NaN,-1.026648,9.705303,0.092062,0.014726,0.189025,-0.054643,0.037899,-0.197758,0.068541,0.489864,0.526101,-0.466334,-0.515542,89.338668,4.909011,-88.073258
07059,NaN,-1.030832,9.624342,0.166142,-0.062643,0.205065,-0.134248,0.037804,-0.225180,0.072226,0.489414,0.525426,-0.467210,-0.515864,89.351095,4.863267,-88.205786
07060,NaN,-1.117893,9.686073,0.231020,-0.132405,0.292968,-0.064883,0.069312,-0.268322,0.084610,0.488813,0.524688,-0.468302,-0.516195,89.379551,4.810321,-88.362682
07061,NaN,-1.043421,10.003512,0.332429,-0.233090,0.198882,0.245921,0.097005,-0.313047,0.085247,0.488035,0.523899,-0.469577,-0.516575,89.421920,4.756749,-88.545527
07062,NaN,-0.823672,10.148829,0.317005,-0.215267,-0.022664,0.372144,0.050005,-0.329924,0.064118,0.487284,0.523000,-0.470714,-0.517159,89.436652,4.715366,-88.737990
07063,NaN,-0.584410,9.986282,0.111465,-0.007154,-0.235742,0.188520,-0.000852,-0.310979,0.056830,0.486690,0.522042,-0.471653,-0.517829,89.423402,4.678224,-88.919645
07064,NaN,-0.511829,9.802444,0.157751,-0.055280,-0.287304,0.000016,0.046001,-0.259702,0.061801,0.486108,0.521319,-0.472600,-0.518243,89.439378,4.638575,-89.071736
07065,NaN,-0.665832,9.964104,0.326061,-0.230738,-0.142341,0.175281,0.103762,-0.219735,0.068104,0.485484,0.520823,-0.473616,-0.518399,89.490547,4.595561,-89.200940
07066,NaN,-0.717102,10.199812,0.357600,-0.269230,-0.102854,0.414493,0.087223,-0.196547,0.062600,0.484943,0.520359,-0.474517,-0.518546,89.533253,4.555976,-89.316765
07067,NaN,-0.849118,10.175513,0.221479,-0.140429,0.039268,0.399553,0.042819,-0.197625,0.052062,0.484486,0.519809,-0.475279,-0.518827,89.550716,4.522409,-89.433478
07068,NaN,-0.804185,9.983474,0.246467,-0.168702,0.015252,0.204723,0.024282,-0.209934,0.045767,0.484033,0.519197,-0.476004,-0.519198,89.556885,4.492493,-89.557091
07069,NaN,-0.773833,9.901422,0.215094,-0.139699,-0.003059,0.120274,0.042079,-0.230587,0.039520,0.483466,0.518586,-0.476811,-0.519596,89.572468,4.465967,-89.692993
07070,NaN,-0.762761,9.976109,0.112981,-0.039770,-0.014770,0.193087,0.045113,-0.246324,0.034199,0.482840,0.517956,-0.477647,-0.520039,89.589059,4.442584,-89.837572
07071,NaN,-0.736361,9.887020,0.238819,-0.166968,-0.030078,0.103141,0.001652,-0.257413,0.037879,0.482308,0.517180,-0.478408,-0.520605,89.580424,4.416917,-89.989015
07072,NaN,-0.716235,9.723620,0.108653,-0.035565,-0.032520,-0.062238,-0.019687,-0.255810,0.043729,0.481850,0.516344,-0.479121,-0.521203,89.559603,4.388005,-90.138990
07073,NaN,-0.872975,9.735016,-0.154159,0.229769,0.127766,-0.040929,0.013540,-0.265944,0.057441,0.481315,0.515525,-0.479983,-0.521714,89.557622,4.351024,-90.295266
07074,NaN,-1.086286,9.746743,-0.127800,0.206040,0.346281,-0.013046,0.008685,-0.299327,0.076132,0.480763,0.514565,-0.480957,-0.522275,89.551380,4.303314,-90.470078
07075,NaN,-1.050417,9.725572,0.057896,0.022887,0.321798,-0.035705,-0.005308,-0.334972,0.085875,0.480183,0.513452,-0.482004,-0.522936,89.535918,4.249771,-90.665421
07076,NaN,-0.820911,9.677853,0.354305,-0.273172,0.109866,-0.098082,-0.000905,-0.348352,0.098435,0.479593,0.512283,-0.483125,-0.523590,89.522448,4.188974,-90.868245
07077,NaN,-0.813699,9.809500,0.369668,-0.285831,0.106005,0.032723,0.019729,-0.363257,0.125883,0.478982,0.511056,-0.484406,-0.524165,89.520573,4.112261,-91.079770
07078,NaN,-0.948291,9.896715,0.548068,-0.458415,0.253176,0.130669,-0.008939,-0.355977,0.154509,0.478537,0.509708,-0.485663,-0.524719,89.502756,4.019238,-91.286642
07079,NaN,-1.101720,9.798875,0.531683,-0.432996,0.431591,0.043307,-0.040252,-0.376660,0.180028,0.478187,0.508167,-0.486951,-0.525339,89.466581,3.911348,-91.505176
07080,NaN,-1.206868,9.848692,0.391331,-0.280214,0.550833,0.098136,-0.048443,-0.438727,0.210079,0.477782,0.506368,-0.488440,-0.526062,89.423754,3.785789,-91.759093
07081,NaN,-1.141319,9.850978,-0.067265,0.188010,0.493186,0.090356,-0.073410,-0.496033,0.210199,0.477298,0.504355,-0.489997,-0.526987,89.365072,3.659559,-92.045752
07082,NaN,-0.797256,9.694319,-0.370815,0.489245,0.169315,-0.092354,-0.047940,-0.586796,0.217887,0.476544,0.502140,-0.491852,-0.528056,89.318354,3.528095,-92.384316
07083,NaN,-0.220368,9.577192,-0.062712,0.163012,-0.365456,-0.241119,-0.015822,-0.598426,0.232948,0.475715,0.499929,-0.493853,-0.529033,89.290479,3.387678,-92.729300
07084,NaN,0.090372,9.628904,0.025688,0.060307,-0.651046,-0.205551,0.043316,-0.548102,0.242912,0.474884,0.497961,-0.495910,-0.529710,89.298999,3.241873,-93.045275
07085,NaN,0.293944,9.869914,0.096254,-0.024588,-0.839428,0.026295,0.076357,-0.486449,0.241083,0.474114,0.496236,-0.497900,-0.530151,89.329236,3.097611,-93.325873
07086,NaN,0.201086,9.939281,0.013051,0.058540,-0.730270,0.101603,0.042536,-0.402564,0.245737,0.473647,0.494638,-0.499610,-0.530454,89.343313,2.951382,-93.558348
07087,NaN,0.019585,9.936859,-0.391574,0.470032,-0.549635,0.105569,0.043707,-0.346508,0.245842,0.473315,0.493189,-0.501187,-0.530612,89.360300,2.805466,-93.758657
07088,NaN,-0.491950,10.048791,-0.556582,0.666160,-0.031660,0.241425,0.054416,-0.321488,0.260838,0.473056,0.491792,-0.502769,-0.530643,89.384601,2.651241,-93.944566
07089,NaN,-0.836563,10.050008,-0.535229,0.668965,0.338676,0.258395,0.011573,-0.365385,0.273440,0.472824,0.490142,-0.504369,-0.530858,89.383789,2.489506,-94.155556
07090,NaN,-0.695970,10.024921,-0.573617,0.701804,0.221104,0.225788,-0.020100,-0.437817,0.248339,0.472417,0.488286,-0.505992,-0.531386,89.363595,2.341716,-94.408207
07091,NaN,-0.497355,9.982539,-0.229417,0.349146,0.075251,0.178482,-0.018110,-0.460054,0.264049,0.471987,0.486333,-0.507707,-0.531923,89.344781,2.184648,-94.673399
07092,NaN,-0.523928,9.955744,-0.127094,0.255627,0.137308,0.153417,-0.030424,-0.431416,0.277698,0.471693,0.484388,-0.509352,-0.532385,89.320200,2.019900,-94.922024
07093,NaN,-0.361726,9.979344,-0.080307,0.202393,0.006906,0.171476,-0.032243,-0.411015,0.292067,0.471491,0.482454,-0.510975,-0.532765,89.295783,1.846910,-95.158725
07094,NaN,-0.325597,9.945922,0.166969,-0.040643,0.023839,0.139848,-0.028709,-0.400327,0.299826,0.471325,0.480534,-0.512598,-0.533089,89.274235,1.669500,-95.389185
07095,NaN,-0.083169,9.895529,0.110625,-0.001322,-0.190909,0.081964,-0.034873,-0.379507,0.298715,0.471221,0.478654,-0.514150,-0.533377,89.250273,1.492746,-95.607596
07096,NaN,-0.035927,9.987030,-0.020697,0.131886,-0.223018,0.171064,-0.031938,-0.342909,0.304362,0.471216,0.476862,-0.515633,-0.533554,89.229114,1.312992,-95.804936
07097,NaN,-0.239213,9.936076,-0.049063,0.187653,0.007953,0.124610,-0.055407,-0.330821,0.311026,0.471314,0.475027,-0.517039,-0.533744,89.195361,1.129374,-95.995163
07098,NaN,0.042696,9.802825,-0.040662,0.156675,-0.239613,-0.013870,-0.052569,-0.317115,0.285694,0.471371,0.473298,-0.518357,-0.533952,89.163885,0.960320,-96.177662
07099,NaN,0.316147,9.791013,0.139015,-0.046297,-0.463940,-0.026689,-0.008109,-0.238876,0.282366,0.471514,0.471890,-0.519599,-0.533864,89.159187,0.793723,-96.315263
07100,NaN,0.372455,9.949586,0.347471,-0.254864,-0.470513,0.135544,-0.002184,-0.137499,0.289065,0.471923,0.470747,-0.520633,-0.533505,89.158924,0.624183,-96.394747
07101,NaN,0.344504,9.963070,0.228630,-0.128856,-0.428204,0.148924,-0.042357,-0.064045,0.262466,0.472546,0.469773,-0.521322,-0.533138,89.136346,0.470431,-96.432305
07102,NaN,0.591035,9.867430,0.020187,0.056305,-0.671435,0.049455,-0.052842,0.002490,0.225584,0.473268,0.469048,-0.521738,-0.532729,89.108044,0.338437,-96.432033
07103,NaN,0.515192,9.761342,-0.154531,0.244664,-0.593672,-0.057650,-0.060552,0.083997,0.209326,0.474177,0.468563,-0.521903,-0.532187,89.075628,0.216423,-96.385110
07104,NaN,0.239653,9.727453,-0.114657,0.244132,-0.296845,-0.089201,-0.080490,0.120449,0.173913,0.475132,0.468219,-0.521844,-0.531694,89.031678,0.115147,-96.317593
07105,NaN,0.039491,9.751185,-0.162358,0.323704,-0.088628,-0.065848,-0.089353,0.137033,0.132947,0.476043,0.468005,-0.521626,-0.531282,88.982641,0.037475,-96.240863
07106,NaN,0.010864,9.833101,-0.218547,0.393694,-0.055350,0.014809,-0.086895,0.147632,0.099736,0.476886,0.467912,-0.521310,-0.530919,88.934838,-0.020914,-96.158379
07107,NaN,0.001918,9.839996,-0.180636,0.366860,-0.033971,0.022068,-0.099204,0.149150,0.076362,0.477700,0.467853,-0.520904,-0.530638,88.880000,-0.065905,-96.075187
07108,NaN,0.119198,9.881276,-0.131694,0.316982,-0.139644,0.064112,-0.102713,0.161008,0.048908,0.478479,0.467888,-0.520394,-0.530404,88.822996,-0.094869,-95.985515
07109,NaN,0.250340,9.964862,-0.020090,0.204215,-0.254716,0.149991,-0.093849,0.184306,0.035633,0.479263,0.468041,-0.519822,-0.530123,88.771108,-0.115948,-95.882585
07110,NaN,0.296057,10.062210,0.161766,0.031759,-0.279660,0.251241,-0.116716,0.210161,0.018382,0.480121,0.468251,-0.519085,-0.529883,88.705958,-0.126629,-95.765085
07111,NaN,0.172836,10.059258,0.285239,-0.064879,-0.144426,0.250851,-0.154269,0.239868,0.013969,0.481131,0.468461,-0.518167,-0.529679,88.619338,-0.134321,-95.630569
07112,NaN,0.134192,9.993288,0.251137,-0.012419,-0.110804,0.184033,-0.172502,0.250726,-0.008487,0.482152,0.468713,-0.517120,-0.529551,88.522151,-0.128688,-95.490187
07113,NaN,0.127442,9.963081,0.251534,0.003693,-0.107463,0.153802,-0.166867,0.247148,-0.025538,0.483105,0.469012,-0.516056,-0.529456,88.428326,-0.113204,-95.352080
07114,NaN,-0.055840,9.977532,0.359409,-0.069511,0.079936,0.170908,-0.180693,0.252540,-0.040389,0.484063,0.469329,-0.514906,-0.529420,88.326520,-0.088797,-95.211196
07115,NaN,-0.063914,9.899784,0.373376,-0.066959,0.082270,0.093772,-0.202743,0.235565,-0.060669,0.484974,0.469599,-0.513691,-0.529527,88.212268,-0.052899,-95.080388
07116,NaN,-0.170790,9.870373,0.397693,-0.064040,0.182325,0.065278,-0.198913,0.219945,-0.071766,0.485806,0.469864,-0.512496,-0.529687,88.100204,-0.010581,-94.958844
07117,NaN,-0.268105,9.875826,0.357172,0.002184,0.265807,0.069655,-0.183118,0.196301,-0.093154,0.486483,0.470159,-0.511349,-0.529913,87.997387,0.043660,-94.851293
07118,NaN,-0.102931,9.908996,0.378088,-0.014631,0.090944,0.103623,-0.189689,0.182507,-0.114141,0.487083,0.470454,-0.510167,-0.530238,87.890807,0.109921,-94.752215
07119,NaN,0.092201,9.924291,0.321507,0.044781,-0.122395,0.116380,-0.216403,0.160605,-0.136566,0.487629,0.470683,-0.508915,-0.530736,87.769111,0.188657,-94.666252
07120,NaN,0.178940,9.905397,0.350866,0.027677,-0.222418,0.098000,-0.212970,0.161113,-0.153018,0.488124,0.470961,-0.507630,-0.531264,87.649408,0.277091,-94.580583
07121,NaN,0.135865,9.851665,0.367340,0.033710,-0.195423,0.044761,-0.245280,0.161690,-0.168364,0.488655,0.471201,-0.506222,-0.531908,87.511428,0.374425,-94.495110
07122,NaN,0.036017,9.786681,0.246893,0.182570,-0.124035,-0.025319,-0.274194,0.159628,-0.187526,0.489196,0.471411,-0.504694,-0.532676,87.356923,0.482983,-94.411601
07123,NaN,0.126639,9.650401,0.205183,0.234503,-0.237138,-0.165042,-0.246857,0.162382,-0.213072,0.489610,0.471758,-0.503171,-0.533428,87.218356,0.606354,-94.327439
07124,NaN,0.153518,9.678762,0.338509,0.121390,-0.277247,-0.131524,-0.211227,0.183999,-0.227428,0.489955,0.472285,-0.501654,-0.534074,87.100429,0.738838,-94.231634
07125,NaN,0.166143,9.743014,0.412804,0.068255,-0.309735,-0.064680,-0.209280,0.194960,-0.238281,0.490292,0.472872,-0.500088,-0.534713,86.984028,0.877950,-94.130097
07126,NaN,-0.027465,9.687639,0.456825,0.054563,-0.137657,-0.115380,-0.223446,0.187725,-0.243811,0.490628,0.473416,-0.498488,-0.535417,86.859579,1.020317,-94.033207
07127,NaN,-0.000849,9.588197,0.364022,0.159906,-0.194836,-0.220899,-0.238235,0.180251,-0.267462,0.490915,0.473962,-0.496808,-0.536231,86.726912,1.176087,-93.941619
07128,NaN,-0.082303,9.478368,0.473526,0.069412,-0.130899,-0.323303,-0.208483,0.185509,-0.271978,0.491131,0.474604,-0.495183,-0.536969,86.611493,1.334918,-93.847553
07129,NaN,-0.137125,9.551428,0.606143,-0.040038,-0.097353,-0.241646,-0.151476,0.189525,-0.280442,0.491197,0.475416,-0.493679,-0.537574,86.529153,1.498779,-93.751698
07130,NaN,-0.336934,9.774601,0.778344,-0.174997,0.077870,-0.003232,-0.116264,0.176559,-0.275136,0.491160,0.476266,-0.492313,-0.538109,86.466945,1.659383,-93.663326
07131,NaN,-0.464706,9.894545,0.806953,-0.177800,0.174485,0.122453,-0.149807,0.161562,-0.276471,0.491161,0.476994,-0.490889,-0.538763,86.385604,1.820215,-93.583725
07132,NaN,-0.445558,9.893190,0.813671,-0.171513,0.126644,0.121609,-0.192325,0.139681,-0.279548,0.491199,0.477565,-0.489394,-0.539581,86.279593,1.982244,-93.517062
07133,NaN,-0.594977,9.780567,0.829445,-0.168878,0.252607,0.016303,-0.190388,0.127670,-0.262948,0.491248,0.478067,-0.487974,-0.540379,86.174740,2.134346,-93.456886
07134,NaN,-0.718365,9.795641,0.733756,-0.049332,0.343082,0.030524,-0.183456,0.107630,-0.247780,0.491270,0.478493,-0.486655,-0.541170,86.073484,2.277215,-93.407905
07135,NaN,-0.641368,9.777582,0.761140,-0.066487,0.243084,0.012189,-0.188132,0.084852,-0.248827,0.491244,0.478847,-0.485377,-0.542028,85.969221,2.419765,-93.372200
07136,NaN,-0.615753,9.752710,0.774320,-0.066971,0.194711,-0.012095,-0.177460,0.057969,-0.235433,0.491162,0.479121,-0.484224,-0.542891,85.870408,2.553727,-93.351623
07137,NaN,-0.640400,9.720908,0.771647,-0.050804,0.197994,-0.042336,-0.151770,0.034788,-0.215203,0.491017,0.479345,-0.483245,-0.543695,85.785878,2.675101,-93.343629
07138,NaN,-0.618950,9.897781,0.788675,-0.043587,0.147280,0.134550,-0.143585,0.021116,-0.207635,0.490839,0.479534,-0.482339,-0.544494,85.705595,2.791675,-93.343353
07139,NaN,-0.604671,9.883070,0.851030,-0.093828,0.116597,0.124239,-0.164041,0.016513,-0.199251,0.490720,0.479638,-0.481409,-0.545331,85.613562,2.903171,-93.345477
07140,NaN,-0.582553,9.795718,0.802749,-0.038179,0.076953,0.032739,-0.173987,0.001895,-0.191786,0.490610,0.479659,-0.480504,-0.546209,85.515311,3.009839,-93.355862
07141,NaN,-0.611669,9.754762,0.879970,-0.101735,0.094124,-0.000215,-0.151608,-0.001007,-0.175782,0.490483,0.479689,-0.479706,-0.546999,85.429895,3.107133,-93.367308
07142,NaN,-0.628718,9.752345,0.894624,-0.102010,0.094656,-0.000223,-0.148080,-0.011571,-0.174973,0.490323,0.479695,-0.478944,-0.547804,85.346052,3.203548,-93.384951
07143,NaN,-0.571508,9.730105,0.899984,-0.099249,0.022105,-0.024881,-0.145312,-0.012293,-0.173078,0.490159,0.479701,-0.478196,-0.548598,85.263826,3.298736,-93.403015
07144,NaN,-0.531388,9.740868,0.951057,-0.139442,-0.032247,-0.012132,-0.126828,-0.001946,-0.161251,0.490008,0.479752,-0.477500,-0.549294,85.192446,3.387724,-93.414770
07145,NaN,-0.668700,9.808204,0.868188,-0.032834,0.080187,0.056164,-0.112274,-0.002348,-0.154912,0.489838,0.479823,-0.476861,-0.549939,85.129469,3.472977,-93.426512
07146,NaN,-0.757681,9.825606,0.888483,-0.036146,0.153826,0.080797,-0.114912,-0.012056,-0.148510,0.489668,0.479844,-0.476252,-0.550599,85.064552,3.554170,-93.443630
07147,NaN,-0.765253,9.804634,0.928300,-0.066422,0.150599,0.064107,-0.119929,-0.012224,-0.142438,0.489526,0.479837,-0.475645,-0.551255,84.996825,3.631788,-93.460595
07148,NaN,-0.730937,9.858711,0.817020,0.056316,0.093141,0.106188,-0.092750,-0.022138,-0.132819,0.489321,0.479847,-0.475159,-0.551847,84.944230,3.703481,-93.482873
07149,NaN,-0.772725,9.902276,1.075091,-0.186068,0.133828,0.175077,-0.086453,-0.021670,-0.114994,0.489152,0.479831,-0.474733,-0.552378,84.895372,3.764927,-93.503999
07150,NaN,-0.849917,9.847930,1.107223,-0.209649,0.205886,0.129327,-0.094223,-0.016152,-0.099720,0.489056,0.479774,-0.474307,-0.552878,84.842215,3.817999,-93.521283
07151,NaN,-0.752451,9.839404,1.022596,-0.123925,0.095212,0.107057,-0.086854,-0.013563,-0.097104,0.488955,0.479736,-0.473902,-0.553347,84.793446,3.869622,-93.536962
07152,NaN,-0.615298,9.958205,1.054661,-0.147287,-0.056969,0.218853,-0.062210,-0.002478,-0.082656,0.488862,0.479755,-0.473573,-0.553695,84.759187,3.913643,-93.545622
07153,NaN,-0.613897,9.914241,1.093965,-0.184330,-0.060714,0.178715,-0.072160,0.007900,-0.075720,0.488836,0.479761,-0.473207,-0.554025,84.719723,3.954172,-93.547972
07154,NaN,-0.685434,9.889824,1.016969,-0.098194,0.001168,0.152403,-0.089878,0.014757,-0.062283,0.488906,0.479712,-0.472807,-0.554348,84.670353,3.987471,-93.545758
07155,NaN,-0.731117,9.814583,0.921270,0.000912,0.041015,0.072029,-0.083217,0.023029,-0.056321,0.488996,0.479687,-0.472420,-0.554620,84.625219,4.017738,-93.538485
07156,NaN,-0.758934,9.760247,0.792552,0.133284,0.060408,0.007961,-0.086226,0.030104,-0.048729,0.489130,0.479656,-0.472025,-0.554864,84.578608,4.044136,-93.526816
07157,NaN,-0.847587,9.739460,0.742510,0.192945,0.143222,-0.011205,-0.059469,0.031388,-0.036972,0.489236,0.479667,-0.471729,-0.555012,84.547498,4.063833,-93.513754
07158,NaN,-0.842175,9.829777,0.828654,0.120018,0.132455,0.086226,-0.052311,0.010147,-0.028655,0.489298,0.479617,-0.471525,-0.555175,84.519593,4.077707,-93.512430
07159,NaN,-0.782800,9.875890,0.914922,0.040063,0.072246,0.135992,-0.062798,0.002140,-0.019888,0.489391,0.479498,-0.471333,-0.555359,84.485460,4.086072,-93.515171
07160,NaN,-0.629404,9.819046,0.930968,0.015793,-0.077233,0.070141,-0.071908,-0.003429,-0.023333,0.489482,0.479349,-0.471120,-0.555587,84.445792,4.096162,-93.521330
07161,NaN,-0.622994,9.827920,0.984784,-0.030964,-0.083131,0.083679,-0.064537,0.012095,-0.014273,0.489618,0.479240,-0.470912,-0.555738,84.411091,4.101876,-93.518075
07162,NaN,-0.635962,9.839773,1.066577,-0.104193,-0.068063,0.104352,-0.069666,0.019990,-0.012743,0.489788,0.479137,-0.470674,-0.555879,84.373707,4.107231,-93.510264
07163,NaN,-0.707275,9.863930,0.979393,-0.004523,-0.005135,0.124943,-0.071128,0.028165,-0.015656,0.489974,0.479060,-0.470405,-0.556010,84.335881,4.114641,-93.497911
07164,NaN,-0.827855,9.855916,0.882245,0.105158,0.108834,0.116052,-0.073387,0.029499,-0.011458,0.490179,0.478971,-0.470135,-0.556133,84.296761,4.119813,-93.484599
07165,NaN,-0.900580,9.849750,0.902928,0.095148,0.181969,0.117153,-0.073128,0.014336,-0.004322,0.490368,0.478824,-0.469922,-0.556274,84.257270,4.119990,-93.479509
07166,NaN,-0.922092,9.823396,0.918653,0.084891,0.206153,0.094057,-0.067382,0.001210,0.000992,0.490527,0.478641,-0.469768,-0.556421,84.220481,4.116456,-93.481654
07167,NaN,-0.821614,9.861284,1.076589,-0.068319,0.111614,0.140297,-0.061733,-0.013851,-0.005138,0.490620,0.478445,-0.469653,-0.556604,84.186361,4.115478,-93.492722
07168,NaN,-0.715320,9.853306,1.117064,-0.108852,0.008403,0.128904,-0.081306,-0.014872,-0.003529,0.490762,0.478194,-0.469490,-0.556833,84.140916,4.113581,-93.504316
07169,NaN,-0.787542,9.820667,0.992527,0.023814,0.076628,0.089050,-0.077590,-0.025205,0.007162,0.490900,0.477899,-0.469388,-0.557050,84.097296,4.104912,-93.521146
07170,NaN,-0.852568,9.847683,1.056974,-0.025893,0.143891,0.127109,-0.077504,-0.029307,0.009387,0.491035,0.477587,-0.469301,-0.557273,84.053498,4.094782,-93.540219
07171,NaN,-0.849847,9.794576,1.049300,-0.016428,0.146550,0.073426,-0.068404,-0.033481,0.016054,0.491156,0.477270,-0.469266,-0.557466,84.014849,4.080531,-93.561235
07172,NaN,-0.826463,9.819793,1.047004,-0.006708,0.123454,0.096516,-0.058234,-0.036250,0.019523,0.491257,0.476962,-0.469273,-0.557635,83.981864,4.064184,-93.583651
07173,NaN,-0.742792,9.859950,1.232748,-0.186432,0.049974,0.149881,-0.057983,-0.041678,0.023442,0.491355,0.476630,-0.469305,-0.557806,83.948899,4.045208,-93.608884
07174,NaN,-0.676322,9.855699,1.177822,-0.130526,-0.015649,0.135287,-0.058641,-0.040092,0.029078,0.491473,0.476288,-0.469344,-0.557961,83.915583,4.023159,-93.632895
07175,NaN,-0.636439,9.873599,1.122985,-0.071122,-0.056514,0.144514,-0.053215,-0.031104,0.024584,0.491588,0.475995,-0.469365,-0.558092,83.885793,4.004148,-93.651999
07176,NaN,-0.524103,9.844590,1.039013,0.007728,-0.167903,0.099019,-0.058566,-0.024690,0.024957,0.491731,0.475705,-0.469357,-0.558220,83.853134,3.985362,-93.667442
07177,NaN,-0.527097,9.811112,1.001544,0.047174,-0.161507,0.062054,-0.054127,0.001453,0.029237,0.491937,0.475489,-0.469306,-0.558264,83.824144,3.965679,-93.667647
07178,NaN,-0.535351,9.825608,0.954834,0.100121,-0.154008,0.072005,-0.042107,0.019891,0.028968,0.492157,0.475355,-0.469243,-0.558238,83.802699,3.947347,-93.657367
07179,NaN,-0.550872,9.856560,1.006394,0.056865,-0.135088,0.109338,-0.039750,0.039989,0.029898,0.492421,0.475281,-0.469140,-0.558155,83.783463,3.929671,-93.635513
07180,NaN,-0.497082,9.783550,0.990369,0.066049,-0.181431,0.031523,-0.054764,0.057828,0.028312,0.492758,0.475222,-0.468947,-0.558070,83.756241,3.914079,-93.603602
07181,NaN,-0.519128,9.700591,0.964841,0.088792,-0.151986,-0.052007,-0.050616,0.069941,0.035080,0.493132,0.475193,-0.468752,-0.557929,83.731955,3.895337,-93.564310
07182,NaN,-0.523678,9.719790,0.940587,0.118500,-0.147695,-0.035294,-0.029783,0.090532,0.025652,0.493479,0.475293,-0.468541,-0.557713,83.720283,3.883332,-93.513886
07183,NaN,-0.536666,9.730127,0.867947,0.194680,-0.137014,-0.032092,-0.029664,0.105034,0.033517,0.493881,0.475416,-0.468314,-0.557443,83.709332,3.867698,-93.454651
07184,NaN,-0.506507,9.736286,0.889531,0.174379,-0.163870,-0.025665,-0.032482,0.117317,0.030003,0.494309,0.475575,-0.468039,-0.557160,83.697137,3.854918,-93.388661
07185,NaN,-0.476835,9.742400,0.911099,0.154062,-0.190710,-0.019235,-0.029380,0.134617,0.027127,0.494761,0.475796,-0.467724,-0.556834,83.687434,3.844806,-93.312938
07186,NaN,-0.547488,9.736963,0.926427,0.144127,-0.117581,-0.018206,-0.026559,0.147634,0.023538,0.495227,0.476068,-0.467376,-0.556479,83.679742,3.837641,-93.230050
07187,NaN,-0.555134,9.727863,0.881265,0.190324,-0.110668,-0.031703,-0.034886,0.151923,0.012596,0.495693,0.476357,-0.466968,-0.556161,83.667470,3.836918,-93.145365
07188,NaN,-0.537081,9.721503,0.982217,0.090328,-0.123435,-0.028137,-0.027862,0.164083,0.009205,0.496160,0.476704,-0.466540,-0.555805,83.659595,3.838984,-93.053995
07189,NaN,-0.543579,9.713406,1.086576,-0.012897,-0.111978,-0.024241,-0.016321,0.172711,0.009392,0.496620,0.477104,-0.466124,-0.555401,83.658749,3.841419,-92.957646
07190,NaN,-0.539918,9.746063,1.130527,-0.052933,-0.117223,0.012729,-0.016555,0.175093,-0.004129,0.497048,0.477540,-0.465667,-0.555025,83.657730,3.851783,-92.860838
07191,NaN,-0.532085,9.730831,1.182282,-0.106457,-0.123592,0.002779,-0.009111,0.183308,-0.002366,0.497482,0.478014,-0.465216,-0.554607,83.661398,3.861581,-92.759184
07192,NaN,-0.607055,9.725352,1.194960,-0.116371,-0.050447,0.003770,-0.013658,0.180948,-0.015109,0.497885,0.478499,-0.464727,-0.554237,83.662257,3.878563,-92.659727
07193,NaN,-0.558001,9.761421,1.230274,-0.150007,-0.104059,0.040076,-0.014381,0.186416,-0.021747,0.498285,0.479012,-0.464206,-0.553871,83.662997,3.899587,-92.557524
07194,NaN,-0.561573,9.708831,1.214710,-0.140513,-0.101491,-0.013593,-0.006846,0.188607,-0.029257,0.498650,0.479567,-0.463681,-0.553501,83.668071,3.925103,-92.454585
07195,NaN,-0.565970,9.737013,1.233278,-0.157325,-0.103524,0.016618,0.006438,0.197172,-0.037736,0.498979,0.480199,-0.463152,-0.553099,83.681180,3.955886,-92.347247
07196,NaN,-0.621759,9.785634,1.254676,-0.173804,-0.056589,0.070937,0.014152,0.200892,-0.043972,0.499281,0.480873,-0.462619,-0.552687,83.698816,3.990512,-92.238206
07197,NaN,-0.569003,9.750045,1.300362,-0.227654,-0.111919,0.036868,0.002979,0.204954,-0.054840,0.499588,0.481556,-0.462019,-0.552317,83.710307,4.031467,-92.127479
07198,NaN,-0.568438,9.705420,1.180391,-0.115231,-0.120320,-0.020657,0.002215,0.210497,-0.061408,0.499891,0.482267,-0.461386,-0.551951,83.721570,4.076576,-92.014023
07199,NaN,-0.686810,9.680057,1.098695,-0.035341,-0.010302,-0.046369,0.015160,0.216700,-0.059068,0.500184,0.483021,-0.460779,-0.551534,83.740667,4.120620,-91.896825
07200,NaN,-0.730909,9.716974,1.043245,0.021134,0.021922,-0.012625,0.025766,0.213803,-0.062657,0.500433,0.483801,-0.460199,-0.551108,83.765734,4.166573,-91.781518
07201,NaN,-0.698382,9.711530,0.984279,0.073736,-0.019611,-0.026752,0.023854,0.201804,-0.075295,0.500624,0.484572,-0.459613,-0.550746,83.789312,4.218840,-91.673788
07202,NaN,-0.686822,9.708617,0.953454,0.099898,-0.040125,-0.033810,0.016552,0.193972,-0.073981,0.500818,0.485300,-0.459028,-0.550416,83.808416,4.269924,-91.570459
07203,NaN,-0.647743,9.712113,0.942636,0.105993,-0.087987,-0.034431,0.028736,0.185605,-0.075231,0.500959,0.486038,-0.458495,-0.550081,83.834296,4.321073,-91.471923
07204,NaN,-0.647894,9.696946,0.990293,0.052476,-0.094361,-0.044394,0.030026,0.190235,-0.075731,0.501106,0.486792,-0.457952,-0.549733,83.861138,4.372837,-91.370779
07205,NaN,-0.661051,9.663825,0.942793,0.091949,-0.088096,-0.081339,0.029372,0.185880,-0.079291,0.501234,0.487540,-0.457409,-0.549405,83.887561,4.426222,-91.272274
07206,NaN,-0.713331,9.611939,0.953301,0.071824,-0.040345,-0.127637,0.046659,0.189895,-0.074958,0.501341,0.488333,-0.456914,-0.549016,83.924111,4.477422,-91.171210
07207,NaN,-0.752299,9.629360,0.921772,0.098312,-0.011868,-0.110607,0.070059,0.195800,-0.079553,0.501391,0.489210,-0.456456,-0.548570,83.974476,4.531426,-91.066963
07208,NaN,-0.832124,9.708970,0.981249,0.038875,0.053577,-0.019068,0.096370,0.192702,-0.067986,0.501400,0.490117,-0.456106,-0.548043,84.039859,4.578643,-90.963771
07209,NaN,-0.833891,9.775429,1.056871,-0.040983,0.042704,0.054827,0.098686,0.181646,-0.068974,0.501375,0.491002,-0.455787,-0.547538,84.106218,4.625557,-90.866860
07210,NaN,-0.868533,9.826329,1.063936,-0.054265,0.065475,0.108794,0.106022,0.171533,-0.062653,0.501326,0.491862,-0.455528,-0.547026,84.176351,4.668255,-90.775336
07211,NaN,-0.945221,9.882460,1.125099,-0.120439,0.130384,0.176846,0.097700,0.170752,-0.059627,0.501304,0.492693,-0.455256,-0.546526,84.241832,4.708981,-90.683997
07212,NaN,-0.952832,9.854411,1.095174,-0.104195,0.133475,0.146631,0.082658,0.159121,-0.052263,0.501311,0.493436,-0.454990,-0.546070,84.298179,4.744841,-90.598870
07213,NaN,-0.983885,9.824234,1.069403,-0.091144,0.160779,0.116716,0.082414,0.143368,-0.051233,0.501286,0.494133,-0.454764,-0.545650,84.353761,4.779050,-90.522620
07214,NaN,-1.011666,9.770137,1.048400,-0.084799,0.187467,0.063336,0.077298,0.131554,-0.043633,0.501267,0.494767,-0.454573,-0.545253,84.405864,4.808279,-90.452704
07215,NaN,-1.067647,9.761780,1.021781,-0.068200,0.239559,0.057176,0.083906,0.122932,-0.031766,0.501244,0.495368,-0.454450,-0.544830,84.461490,4.830113,-90.386993
07216,NaN,-1.052875,9.812112,1.000163,-0.051862,0.217075,0.103794,0.086833,0.110538,-0.028260,0.501195,0.495933,-0.454375,-0.544424,84.518175,4.849285,-90.328197
07217,NaN,-1.058640,9.808038,0.966429,-0.028899,0.220753,0.097042,0.093629,0.094789,-0.013872,0.501133,0.496440,-0.454393,-0.544004,84.578132,4.859254,-90.277573
07218,NaN,-1.033633,9.787010,0.958084,-0.032723,0.196476,0.073273,0.084752,0.091223,-0.003307,0.501112,0.496891,-0.454422,-0.543587,84.632827,4.863034,-90.228444
07219,NaN,-0.943341,9.757813,0.869671,0.042738,0.108992,0.028421,0.085027,0.082814,0.000955,0.501084,0.497309,-0.454483,-0.543179,84.687352,4.863813,-90.183868
07220,NaN,-0.943481,9.758671,0.859841,0.042451,0.109509,0.028417,0.100026,0.086866,0.011227,0.501055,0.497753,-0.454600,-0.542702,84.750652,4.858974,-90.136457
07221,NaN,-0.839068,9.782302,0.908548,-0.014924,0.003829,0.047469,0.097991,0.084952,0.005650,0.501011,0.498199,-0.454703,-0.542247,84.812727,4.857095,-90.090406
07222,NaN,-0.764287,9.794250,0.912716,-0.028959,-0.071395,0.053344,0.102250,0.091465,0.006386,0.500973,0.498671,-0.454802,-0.541764,84.877499,4.855151,-90.040623
07223,NaN,-0.784468,9.802910,0.952294,-0.078954,-0.052909,0.067103,0.107453,0.098667,-0.012000,0.500889,0.499217,-0.454851,-0.541297,84.945583,4.863933,-89.987634
07224,NaN,-0.756822,9.729446,0.928820,-0.072966,-0.075280,-0.010310,0.094062,0.095789,-0.004676,0.500851,0.499705,-0.454889,-0.540850,85.005835,4.868407,-89.935935
07225,NaN,-0.811231,9.658804,0.839392,-0.000004,-0.015056,-0.083611,0.088425,0.089298,-0.003858,0.500814,0.500160,-0.454931,-0.540429,85.062606,4.871967,-89.887874
07226,NaN,-0.909002,9.709015,0.879026,-0.046058,0.077246,-0.022087,0.110868,0.080991,-0.001607,0.500709,0.500643,-0.455059,-0.539972,85.131786,4.873855,-89.844492
07227,NaN,-0.941832,9.779387,0.856077,-0.029389,0.103798,0.048584,0.117268,0.058499,-0.005223,0.500526,0.501089,-0.455251,-0.539565,85.203582,4.876593,-89.814153
07228,NaN,-0.817280,9.771646,0.858330,-0.043828,-0.020444,0.030452,0.110983,0.047194,-0.011062,0.500317,0.501502,-0.455440,-0.539216,85.271148,4.882166,-89.790586
07229,NaN,-0.770879,9.776545,0.841138,-0.037808,-0.068330,0.029898,0.114203,0.041422,-0.020257,0.500062,0.501928,-0.455629,-0.538896,85.340297,4.892619,-89.770727
07230,NaN,-0.802382,9.822912,0.822930,-0.027851,-0.042392,0.077108,0.114423,0.041674,-0.017282,0.499815,0.502348,-0.455825,-0.538568,85.409547,4.901432,-89.750598
07231,NaN,-0.737366,9.819550,0.755629,0.027842,-0.108259,0.062825,0.104877,0.039756,-0.029101,0.499555,0.502767,-0.455970,-0.538295,85.473243,4.916811,-89.732072
07232,NaN,-0.713710,9.769469,0.728115,0.040543,-0.130066,0.008895,0.104655,0.044050,-0.031167,0.499300,0.503200,-0.456098,-0.538018,85.536971,4.933617,-89.711186
07233,NaN,-0.722385,9.817583,0.707349,0.053646,-0.128323,0.055836,0.112891,0.056893,-0.032661,0.499050,0.503692,-0.456213,-0.537692,85.606106,4.951746,-89.682940
07234,NaN,-0.745561,9.826417,0.746212,0.003662,-0.109825,0.069573,0.112529,0.059659,-0.035955,0.498797,0.504198,-0.456311,-0.537369,85.675119,4.971918,-89.653271
07235,NaN,-0.776397,9.848651,0.733052,0.006900,-0.084480,0.093315,0.102700,0.072841,-0.036894,0.498597,0.504717,-0.456348,-0.537037,85.739218,4.993077,-89.616037
07236,NaN,-0.807271,9.870834,0.719950,0.010149,-0.059147,0.117054,0.108340,0.075286,-0.035440,0.498391,0.505253,-0.456397,-0.536682,85.806640,5.013546,-89.577334
07237,NaN,-0.813929,9.895076,0.703617,0.016542,-0.058008,0.140525,0.108335,0.082695,-0.035018,0.498204,0.505807,-0.456429,-0.536307,85.874497,5.033955,-89.534311
07238,NaN,-0.815596,9.900801,0.716335,-0.007024,-0.060599,0.147255,0.100110,0.087511,-0.033153,0.498053,0.506350,-0.456430,-0.535933,85.937860,5.053527,-89.488451
07239,NaN,-0.842839,9.841055,0.671704,0.022633,-0.030898,0.087133,0.087899,0.099129,-0.029614,0.497969,0.506884,-0.456380,-0.535549,85.994899,5.071413,-89.435749
07240,NaN,-0.913377,9.758606,0.662005,0.016041,0.043480,0.010792,0.087681,0.100552,-0.031226,0.497884,0.507426,-0.456320,-0.535166,86.051844,5.090308,-89.382286
07241,NaN,-0.940671,9.756915,0.654524,0.012590,0.068204,0.011051,0.102598,0.103564,-0.019057,0.497800,0.507985,-0.456324,-0.534710,86.117599,5.102226,-89.326571
07242,NaN,-0.986914,9.764018,0.695936,-0.040524,0.110932,0.025017,0.112610,0.098103,-0.014639,0.497690,0.508543,-0.456379,-0.534235,86.188787,5.111425,-89.273828
07243,NaN,-1.017706,9.780895,0.658089,-0.014004,0.139373,0.042011,0.107450,0.090409,-0.009253,0.497590,0.509056,-0.456453,-0.533777,86.256701,5.117109,-89.225266
07244,NaN,-0.996900,9.778180,0.620529,0.012114,0.118758,0.035023,0.103636,0.077012,-0.004401,0.497481,0.509512,-0.456561,-0.533349,86.321714,5.119547,-89.184227
07245,NaN,-0.966461,9.768108,0.658994,-0.038276,0.088258,0.024740,0.116471,0.069078,0.000570,0.497335,0.509967,-0.456737,-0.532900,86.393743,5.118725,-89.147546
07246,NaN,-1.018614,9.846812,0.683539,-0.071288,0.132869,0.109094,0.124999,0.060405,0.003955,0.497156,0.510413,-0.456965,-0.532445,86.470171,5.115691,-89.115736
07247,NaN,-1.002924,9.856963,0.592275,0.008046,0.119064,0.112135,0.113235,0.047473,0.012663,0.497001,0.510775,-0.457216,-0.532027,86.539273,5.107113,-89.091022
07248,NaN,-0.998997,9.804803,0.568020,0.017623,0.121401,0.058469,0.104565,0.038657,0.009162,0.496838,0.511099,-0.457457,-0.531661,86.602891,5.100278,-89.071529
07249,NaN,-1.002696,9.823680,0.527734,0.047284,0.125620,0.075212,0.118836,0.026601,0.014896,0.496626,0.511414,-0.457780,-0.531278,86.674137,5.089666,-89.058753
07250,NaN,-0.924145,9.812510,0.537201,0.026433,0.049775,0.057712,0.114571,0.020097,0.014240,0.496408,0.511702,-0.458106,-0.530923,86.742550,5.079270,-89.049767
07251,NaN,-0.864853,9.781245,0.578710,-0.027532,-0.005555,0.023716,0.113594,0.014470,0.019523,0.496193,0.511961,-0.458457,-0.530571,86.810183,5.065594,-89.043823
07252,NaN,-0.964867,9.821260,0.566740,-0.026975,0.093040,0.071639,0.121931,0.010043,0.020804,0.495950,0.512225,-0.458844,-0.530209,86.882316,5.051104,-89.040430
07253,NaN,-0.923751,9.862211,0.491202,0.038908,0.052539,0.104647,0.123354,0.003077,0.022058,0.495691,0.512471,-0.459255,-0.529857,86.954963,5.035612,-89.040989
07254,NaN,-0.888520,9.858473,0.552751,-0.034761,0.018965,0.101087,0.124736,-0.000985,0.022859,0.495421,0.512708,-0.459682,-0.529511,87.028149,5.019606,-89.043905
07255,NaN,-0.886284,9.859354,0.540488,-0.035072,0.019475,0.101085,0.124606,-0.005383,0.022150,0.495139,0.512934,-0.460117,-0.529177,87.101087,5.003816,-89.049364
07256,NaN,-0.859996,9.862196,0.525958,-0.032245,-0.004239,0.100842,0.118764,-0.016699,0.019229,0.494838,0.513123,-0.460557,-0.528893,87.170053,4.989445,-89.061452
07257,NaN,-0.826732,9.823470,0.546586,-0.066083,-0.032279,0.060377,0.115803,-0.005489,0.017311,0.494565,0.513338,-0.460957,-0.528592,87.237932,4.976436,-89.067140
07258,NaN,-0.853455,9.810648,0.490277,-0.022970,-0.001432,0.047182,0.123861,-0.010127,0.015712,0.494256,0.513564,-0.461384,-0.528288,87.310140,4.964286,-89.075582
07259,NaN,-0.807782,9.803684,0.425490,0.029510,-0.043217,0.033277,0.127785,-0.006612,0.014010,0.493941,0.513812,-0.461810,-0.527969,87.384817,4.953150,-89.082038
07260,NaN,-0.852487,9.806250,0.442020,-0.000309,0.002630,0.040466,0.125292,-0.002283,0.017629,0.493651,0.514058,-0.462226,-0.527637,87.458238,4.940127,-89.085955
07261,NaN,-0.879248,9.793172,0.385309,0.042805,0.033471,0.027272,0.123654,-0.007030,0.015419,0.493348,0.514292,-0.462645,-0.527325,87.530531,4.928191,-89.092640
07262,NaN,-0.930677,9.807536,0.349170,0.066227,0.086082,0.044495,0.126424,-0.012305,0.016540,0.493029,0.514516,-0.463086,-0.527017,87.604104,4.915557,-89.102376
07263,NaN,-0.880986,9.811994,0.331948,0.072159,0.038151,0.044030,0.120153,-0.029937,0.008769,0.492665,0.514695,-0.463534,-0.526788,87.673253,4.906905,-89.122417
07264,NaN,-0.855557,9.814435,0.317895,0.074977,0.014422,0.043800,0.117804,-0.037187,0.014285,0.492304,0.514837,-0.464008,-0.526570,87.740661,4.895015,-89.146532
07265,NaN,-0.845005,9.809378,0.383031,-0.001837,0.005103,0.040465,0.120601,-0.045349,0.015902,0.491921,0.514961,-0.464513,-0.526362,87.809334,4.881987,-89.175282
07266,NaN,-0.792956,9.819858,0.389907,-0.019182,-0.045894,0.046721,0.117422,-0.047562,0.011707,0.491530,0.515080,-0.465004,-0.526177,87.876021,4.871406,-89.205442
07267,NaN,-0.747626,9.812121,0.326692,0.033279,-0.087714,0.032849,0.107682,-0.044757,0.010625,0.491167,0.515185,-0.465460,-0.526010,87.937318,4.861476,-89.233995
07268,NaN,-0.742321,9.824715,0.363261,-0.013574,-0.093336,0.046274,0.112791,-0.035367,0.006527,0.490802,0.515336,-0.465895,-0.525817,88.001944,4.854176,-89.257275
07269,NaN,-0.676417,9.871911,0.309438,0.032082,-0.161147,0.085844,0.101584,-0.022693,0.003657,0.490488,0.515500,-0.466263,-0.525624,88.060814,4.848731,-89.273306
07270,NaN,-0.714506,9.803888,0.346339,-0.017766,-0.117210,0.022587,0.099062,0.000537,0.005488,0.490239,0.515714,-0.466571,-0.525372,88.119318,4.842760,-89.275987
07271,NaN,-0.693029,9.859422,0.345209,-0.024886,-0.142690,0.076027,0.105314,0.008433,-0.001249,0.489975,0.515980,-0.466859,-0.525102,88.181829,4.840730,-89.274232
07272,NaN,-0.727191,9.922281,0.296358,0.015017,-0.113010,0.139965,0.099798,0.017801,-0.001718,0.489745,0.516258,-0.467108,-0.524822,88.241581,4.839200,-89.267133
07273,NaN,-0.856955,9.888154,0.206753,0.092281,0.020742,0.114233,0.083472,0.021105,-0.000478,0.489568,0.516502,-0.467309,-0.524567,88.292193,4.836942,-89.258085
07274,NaN,-0.877892,9.803364,0.172612,0.115393,0.049588,0.030617,0.072553,0.010604,0.000548,0.489398,0.516689,-0.467510,-0.524364,88.335987,4.833980,-89.255087
07275,NaN,-0.901884,9.801606,0.167650,0.111985,0.074290,0.030834,0.083672,-0.001959,0.003544,0.489177,0.516863,-0.467778,-0.524158,88.385603,4.829027,-89.259231
07276,NaN,-0.904292,9.855087,0.171129,0.101769,0.073020,0.084488,0.079749,-0.011164,0.006339,0.488952,0.516996,-0.468066,-0.523980,88.432475,4.822397,-89.268657
07277,NaN,-0.835780,9.878208,0.126133,0.140715,0.004548,0.100617,0.070116,-0.024466,0.006469,0.488721,0.517071,-0.468362,-0.523857,88.473243,4.815428,-89.285701
07278,NaN,-0.784731,9.888421,0.137616,0.123331,-0.046444,0.106902,0.065711,-0.023974,0.003133,0.488494,0.517144,-0.468635,-0.523752,88.511452,4.810456,-89.302548
07279,NaN,-0.765453,9.849601,0.266824,-0.013403,-0.063079,0.070004,0.067866,-0.014097,0.011924,0.488308,0.517228,-0.468913,-0.523594,88.551444,4.800538,-89.313557
07280,NaN,-0.783438,9.830816,0.292936,-0.046756,-0.042063,0.053445,0.060183,-0.007579,0.017611,0.488171,0.517296,-0.469170,-0.523424,88.587295,4.787530,-89.320778
07281,NaN,-0.830737,9.857175,0.309974,-0.069861,0.004484,0.084039,0.059601,-0.002339,0.010776,0.488030,0.517393,-0.469395,-0.523258,88.623117,4.778447,-89.325058
07282,NaN,-0.855285,9.789516,0.248853,-0.016762,0.036973,0.017187,0.056989,-0.004100,0.012377,0.487896,0.517475,-0.469621,-0.523099,88.657299,4.768493,-89.330367
07283,NaN,-0.904749,9.839435,0.259442,-0.033184,0.084173,0.071248,0.068844,-0.002670,0.023364,0.487764,0.517564,-0.469903,-0.522882,88.698413,4.752202,-89.334682
07284,NaN,-1.021153,9.866783,0.307517,-0.088816,0.200341,0.109142,0.066537,-0.023048,0.029728,0.487605,0.517579,-0.470245,-0.522707,88.737187,4.732073,-89.350672
07285,NaN,-1.009941,9.884120,0.169764,0.043720,0.193055,0.122374,0.048746,-0.043550,0.030524,0.487447,0.517495,-0.470593,-0.522625,88.764859,4.711179,-89.378415
07286,NaN,-0.858716,9.812309,0.120737,0.088500,0.052313,0.037329,0.040361,-0.056767,0.029287,0.487276,0.517359,-0.470947,-0.522600,88.787056,4.690906,-89.413811
07287,NaN,-0.806365,9.786456,0.093858,0.110976,0.006728,0.006752,0.051241,-0.058003,0.045116,0.487116,0.517209,-0.471374,-0.522513,88.815516,4.661507,-89.449703
07288,NaN,-0.742127,9.822675,0.200023,0.000437,-0.056337,0.039852,0.067944,-0.044618,0.048478,0.486952,0.517126,-0.471821,-0.522345,88.854133,4.630419,-89.477910
07289,NaN,-0.795497,9.883521,0.157836,0.037248,-0.002423,0.103981,0.056726,-0.049638,0.045606,0.486798,0.517009,-0.472243,-0.522222,88.886161,4.600876,-89.509021
07290,NaN,-0.716239,9.895800,0.167991,0.022908,-0.077614,0.110090,0.046943,-0.045639,0.042707,0.486671,0.516886,-0.472622,-0.522120,88.912719,4.573115,-89.537911
07291,NaN,-0.735999,9.864455,0.149208,0.036128,-0.050549,0.080116,0.048312,-0.030828,0.041668,0.486572,0.516808,-0.472966,-0.521978,88.940810,4.546060,-89.558283
07292,NaN,-0.688325,9.915336,0.126320,0.055316,-0.097189,0.126686,0.049945,-0.015733,0.043543,0.486510,0.516768,-0.473281,-0.521789,88.970473,4.518160,-89.570004
07293,NaN,-0.701089,9.873466,0.160336,0.015304,-0.076813,0.086627,0.048392,-0.010334,0.040998,0.486458,0.516744,-0.473574,-0.521595,88.999553,4.491716,-89.578626
07294,NaN,-0.718695,9.818634,0.147896,0.021876,-0.050427,0.033172,0.042785,-0.012847,0.039564,0.486411,0.516704,-0.473854,-0.521426,89.025248,4.466136,-89.588755
07295,NaN,-0.712988,9.795464,0.150235,0.014899,-0.050602,0.009698,0.038978,-0.008716,0.026717,0.486350,0.516695,-0.474081,-0.521285,89.049001,4.447896,-89.596609
07296,NaN,-0.695896,9.831342,0.084084,0.077568,-0.067008,0.043079,0.041315,-0.007234,0.022202,0.486274,0.516707,-0.474298,-0.521146,89.074096,4.432323,-89.603698
07297,NaN,-0.633929,9.837587,0.174424,-0.016407,-0.127647,0.046006,0.038060,-0.008286,0.016238,0.486189,0.516722,-0.474495,-0.521032,89.097339,4.420096,-89.611419
07298,NaN,-0.681024,9.834281,0.176503,-0.022856,-0.078730,0.046385,0.037509,-0.003111,0.009352,0.486099,0.516765,-0.474659,-0.520922,89.120430,4.411927,-89.616266
07299,NaN,-0.687421,9.844774,0.119925,0.030064,-0.071571,0.056481,0.033000,-0.001378,0.004261,0.486012,0.516814,-0.474794,-0.520831,89.141071,4.406625,-89.620131
07300,NaN,-0.757544,9.846195,0.148891,-0.002731,-0.001437,0.063728,0.029733,0.000440,-0.002231,0.485921,0.516876,-0.474900,-0.520759,89.159856,4.405126,-89.623042
07301,NaN,-0.728944,9.831028,0.173040,-0.029923,-0.028833,0.046759,0.025398,-0.004881,-0.004554,0.485823,0.516918,-0.475001,-0.520717,89.175983,4.404847,-89.628994
07302,NaN,-0.731896,9.854486,0.164250,-0.023565,-0.027687,0.070238,0.025259,-0.003587,-0.006275,0.485723,0.516968,-0.475094,-0.520676,89.192024,4.405634,-89.634253
07303,NaN,-0.711078,9.879631,0.152750,-0.014155,-0.050749,0.093538,0.021909,-0.009119,-0.012921,0.485601,0.517011,-0.475175,-0.520673,89.205957,4.410117,-89.642709
07304,NaN,-0.714462,9.812964,0.093378,0.042088,-0.042627,0.026512,0.016522,-0.002721,-0.013019,0.485509,0.517057,-0.475226,-0.520666,89.217025,4.414777,-89.647524
07305,NaN,-0.718344,9.836323,0.085436,0.048434,-0.041473,0.049995,0.016247,-0.000138,-0.016466,0.485414,0.517118,-0.475261,-0.520662,89.228109,4.421363,-89.650847
07306,NaN,-0.744063,9.834492,0.086517,0.045072,-0.016778,0.050174,0.020474,0.000726,-0.014814,0.485315,0.517187,-0.475309,-0.520642,89.241593,4.427079,-89.653693
07307,NaN,-0.772245,9.886135,0.098328,0.031727,0.006282,0.103998,0.015105,0.004244,-0.014390,0.485239,0.517252,-0.475336,-0.520624,89.252218,4.432510,-89.654477
07308,NaN,-0.775932,9.909495,0.090832,0.038081,0.007430,0.127479,0.007278,0.004703,-0.010643,0.485194,0.517290,-0.475351,-0.520615,89.258320,4.435868,-89.655004
07309,NaN,-0.743318,9.877436,0.146954,-0.019065,-0.023617,0.093721,0.001791,0.006630,-0.011419,0.485166,0.517321,-0.475345,-0.520615,89.261424,4.439614,-89.654396
07310,NaN,-0.746841,9.870763,0.123272,0.003923,-0.020155,0.087036,0.003029,0.006721,-0.012817,0.485131,0.517359,-0.475338,-0.520616,89.265179,4.444232,-89.653779
07311,NaN,-0.740849,9.830370,0.159294,-0.032988,-0.023996,0.046762,-0.002321,0.007356,-0.011869,0.485114,0.517384,-0.475319,-0.520625,89.265962,4.448243,-89.652754
07312,NaN,-0.751590,9.863991,0.099985,0.026599,-0.016208,0.080353,-0.002421,0.002890,-0.012542,0.485085,0.517398,-0.475308,-0.520649,89.266425,4.452674,-89.654337
07313,NaN,-0.752667,9.833864,0.083445,0.042926,-0.013417,0.050189,-0.007869,-0.000942,-0.012267,0.485061,0.517388,-0.475293,-0.520693,89.263656,4.456852,-89.658079
07314,NaN,-0.755954,9.797158,0.044266,0.082558,-0.007666,0.013342,-0.017290,-0.005340,-0.010720,0.485056,0.517340,-0.475268,-0.520769,89.255232,4.460179,-89.664378
07315,NaN,-0.764165,9.837387,0.009831,0.118843,-0.002855,0.053624,-0.015797,-0.004951,-0.009194,0.485052,0.517293,-0.475250,-0.520835,89.247743,4.462563,-89.670410
07316,NaN,-0.762756,9.843888,0.035377,0.095251,-0.005359,0.060310,-0.026715,-0.009735,-0.009168,0.485064,0.517208,-0.475215,-0.520941,89.233723,4.464966,-89.679224
07317,NaN,-0.789829,9.805473,0.000637,0.131832,0.024612,0.023630,-0.029176,-0.012790,-0.005843,0.485084,0.517100,-0.475191,-0.521051,89.218226,4.465370,-89.689730
07318,NaN,-0.759092,9.826889,0.070984,0.064698,-0.008055,0.043517,-0.030260,-0.017047,-0.002193,0.485107,0.516970,-0.475182,-0.521167,89.201852,4.463714,-89.702692
07319,NaN,-0.790563,9.835427,0.024312,0.114581,0.023271,0.053798,-0.039728,-0.015680,-0.001685,0.485158,0.516820,-0.475147,-0.521300,89.180183,4.461706,-89.714821
07320,NaN,-0.812306,9.840197,0.054925,0.087949,0.044998,0.060639,-0.044770,-0.023377,0.003767,0.485219,0.516624,-0.475132,-0.521452,89.155218,4.456573,-89.731369
07321,NaN,-0.804835,9.829807,0.112409,0.034405,0.038869,0.050518,-0.039507,-0.031346,0.002670,0.485244,0.516423,-0.475147,-0.521614,89.132982,4.451926,-89.752463
07322,NaN,-0.780122,9.831569,0.114040,0.037145,0.015121,0.050361,-0.047309,-0.036633,0.007482,0.485289,0.516177,-0.475167,-0.521798,89.105977,4.444535,-89.776591
07323,NaN,-0.803479,9.829804,0.121980,0.033800,0.039832,0.050516,-0.048663,-0.041171,0.008219,0.485328,0.515915,-0.475196,-0.521994,89.078069,4.436602,-89.803275
07324,NaN,-0.780629,9.855066,0.118084,0.043183,0.016768,0.073844,-0.052255,-0.042717,0.014160,0.485389,0.515625,-0.475234,-0.522188,89.047973,4.425304,-89.830828
07325,NaN,-0.749980,9.809944,0.133266,0.032617,-0.008338,0.026728,-0.054871,-0.044461,0.015780,0.485457,0.515321,-0.475275,-0.522388,89.016381,4.412981,-89.859320
07326,NaN,-0.726460,9.775332,0.095650,0.075300,-0.026857,-0.010258,-0.058973,-0.049458,0.016406,0.485524,0.514992,-0.475318,-0.522611,88.982152,4.400298,-89.890710
07327,NaN,-0.698122,9.783628,0.121766,0.054723,-0.053554,-0.003727,-0.049258,-0.050522,0.018819,0.485571,0.514679,-0.475396,-0.522806,88.953527,4.386140,-89.922641
07328,NaN,-0.778420,9.842427,0.094091,0.088560,0.024610,0.060494,-0.054587,-0.058479,0.021373,0.485618,0.514325,-0.475484,-0.523029,88.921437,4.370482,-89.959146
07329,NaN,-0.805241,9.827920,0.056484,0.131817,0.055227,0.047292,-0.062806,-0.065600,0.022100,0.485672,0.513931,-0.475572,-0.523287,88.884412,4.354241,-89.999691
07330,NaN,-0.750011,9.844386,0.103617,0.090980,0.001349,0.060352,-0.053732,-0.071691,0.017983,0.485677,0.513553,-0.475686,-0.523549,88.852255,4.340331,-90.043804
07331,NaN,-0.745545,9.910672,0.167859,0.034054,-0.005631,0.127345,-0.062977,-0.069980,0.021487,0.485719,0.513148,-0.475781,-0.523820,88.814966,4.324345,-90.086831
07332,NaN,-0.757634,9.904632,0.254417,-0.045804,0.009546,0.124026,-0.069898,-0.063920,0.019944,0.485789,0.512746,-0.475839,-0.524097,88.773909,4.309350,-90.126437
07333,NaN,-0.699830,9.867455,0.291077,-0.076649,-0.042734,0.083446,-0.063214,-0.059996,0.018264,0.485847,0.512374,-0.475901,-0.524350,88.736938,4.295278,-90.163739
07334,NaN,-0.735980,9.859520,0.379557,-0.159527,-0.003317,0.080260,-0.049131,-0.052924,0.022428,0.485896,0.512045,-0.475993,-0.524542,88.708277,4.278950,-90.196976
07335,NaN,-0.712514,9.884691,0.375795,-0.150182,-0.026346,0.103600,-0.052990,-0.048752,0.009610,0.485932,0.511749,-0.476032,-0.524763,88.677660,4.269945,-90.227914
07336,NaN,-0.737888,9.816824,0.326121,-0.096874,0.005811,0.036752,-0.049603,-0.043260,0.016260,0.485989,0.511458,-0.476083,-0.524947,88.649149,4.257246,-90.255664
07337,NaN,-0.746100,9.851191,0.271819,-0.037307,0.013578,0.070376,-0.041136,-0.032973,0.017949,0.486054,0.511212,-0.476137,-0.525079,88.625997,4.243641,-90.277426
07338,NaN,-0.727750,9.893666,0.237061,0.001983,-0.005833,0.110538,-0.033306,-0.033443,0.014143,0.486087,0.510992,-0.476201,-0.525204,88.607252,4.232267,-90.299556
07339,NaN,-0.747756,9.868451,0.249912,-0.007976,0.018196,0.087188,-0.036915,-0.026384,0.018547,0.486158,0.510771,-0.476251,-0.525308,88.586813,4.218403,-90.317490
07340,NaN,-0.673763,9.843824,0.227349,0.017434,-0.051760,0.056635,-0.044091,-0.017754,0.013561,0.486254,0.510568,-0.476247,-0.525420,88.562560,4.207570,-90.330609
07341,NaN,-0.624288,9.817456,0.207485,0.039812,-0.097484,0.026222,-0.030503,-0.011301,0.011833,0.486327,0.510419,-0.476260,-0.525486,88.546445,4.197759,-90.339985
07342,NaN,-0.647152,9.845552,0.231090,0.019830,-0.075006,0.056511,-0.031650,0.004536,0.011859,0.486440,0.510308,-0.476231,-0.525515,88.530259,4.188218,-90.340320
07343,NaN,-0.622547,9.817436,0.213592,0.039196,-0.096507,0.026234,-0.031250,0.012400,0.000127,0.486541,0.510247,-0.476154,-0.525551,88.514692,4.185448,-90.336274
07344,NaN,-0.591232,9.778261,0.249239,0.005337,-0.124579,-0.014192,-0.037178,0.018252,-0.005747,0.486654,0.510200,-0.476032,-0.525601,88.495895,4.186196,-90.328991
07345,NaN,-0.589918,9.784363,0.275715,-0.018282,-0.127011,-0.007519,-0.027291,0.027577,-0.018585,0.486731,0.510233,-0.475881,-0.525635,88.483220,4.194377,-90.316498
07346,NaN,-0.592000,9.813946,0.295711,-0.035258,-0.128749,0.022638,-0.027839,0.027031,-0.024425,0.486793,0.510277,-0.475714,-0.525686,88.470124,4.205960,-90.304459
07347,NaN,-0.597519,9.777669,0.257328,0.004405,-0.123109,-0.014173,-0.027279,0.025003,-0.032880,0.486827,0.510338,-0.475533,-0.525760,88.457333,4.222299,-90.293612
07348,NaN,-0.649551,9.744102,0.248554,0.014775,-0.071950,-0.044074,-0.027968,0.025760,-0.040435,0.486844,0.510416,-0.475328,-0.525854,88.444098,4.243038,-90.282555
07349,NaN,-0.790846,9.751917,0.339652,-0.073454,0.065155,-0.023354,-0.021197,0.015285,-0.039580,0.486821,0.510481,-0.475169,-0.525955,88.434371,4.263065,-90.277386
07350,NaN,-0.785913,9.805207,0.250274,0.019052,0.052281,0.026992,-0.021962,0.000113,-0.045773,0.486748,0.510519,-0.475029,-0.526112,88.423480,4.286463,-90.281151
07351,NaN,-0.722805,9.827471,0.213517,0.057670,-0.016291,0.043460,-0.016305,-0.006009,-0.042820,0.486653,0.510549,-0.474926,-0.526264,88.415654,4.308021,-90.288249
07352,NaN,-0.770424,9.865729,0.285926,-0.011912,0.024613,0.087170,-0.019452,-0.011172,-0.046526,0.486545,0.510565,-0.474818,-0.526446,88.405708,4.331669,-90.298515
07353,NaN,-0.804091,9.910591,0.279175,-0.001963,0.050759,0.134258,-0.021966,-0.005602,-0.044720,0.486461,0.510586,-0.474695,-0.526615,88.394619,4.354299,-90.305494
07354,NaN,-0.781710,9.858693,0.267020,0.010794,0.028517,0.080505,-0.027217,-0.003362,-0.042502,0.486401,0.510594,-0.474557,-0.526786,88.380561,4.375764,-90.311219
07355,NaN,-0.802242,9.904869,0.360440,-0.079110,0.042314,0.130747,-0.021192,0.000974,-0.036966,0.486351,0.510616,-0.474439,-0.526917,88.370219,4.394073,-90.314224
07356,NaN,-0.832485,9.896460,0.342125,-0.059089,0.069948,0.124194,-0.021054,-0.000321,-0.035244,0.486302,0.510630,-0.474329,-0.527048,88.359831,4.411429,-90.318092
07357,NaN,-0.889047,9.909757,0.321256,-0.035440,0.122532,0.141238,-0.027383,-0.002357,-0.029393,0.486280,0.510609,-0.474223,-0.527184,88.345780,4.425328,-90.322973
07358,NaN,-0.850937,9.864811,0.229729,0.056858,0.085474,0.090889,-0.024331,-0.007371,-0.025349,0.486248,0.510573,-0.474147,-0.527316,88.333213,4.436898,-90.330734
07359,NaN,-0.797098,9.857145,0.278408,0.009293,0.030991,0.080499,-0.013890,-0.003528,-0.016498,0.486223,0.510553,-0.474111,-0.527391,88.326869,4.443414,-90.335963
07360,NaN,-0.776836,9.912131,0.288670,0.001917,0.005773,0.134027,-0.021261,0.008963,-0.008870,0.486266,0.510528,-0.474045,-0.527435,88.316807,4.445818,-90.334068
07361,NaN,-0.823326,9.825262,0.268075,0.022398,0.058396,0.050456,-0.029502,0.004721,-0.008654,0.486321,0.510472,-0.473969,-0.527507,88.301907,4.447969,-90.334535
07362,NaN,-0.778158,9.792979,0.223082,0.068073,0.015504,0.013444,-0.016743,0.012927,-0.004848,0.486372,0.510459,-0.473916,-0.527520,88.294615,4.448138,-90.330296
07363,NaN,-0.746885,9.843029,0.309460,-0.015871,-0.019106,0.063456,-0.014880,0.023745,-0.000739,0.486455,0.510470,-0.473852,-0.527490,88.288952,4.446079,-90.319722
07364,NaN,-0.806647,9.808795,0.402357,-0.108275,0.043961,0.036748,-0.017327,0.017809,0.003099,0.486540,0.510450,-0.473806,-0.527473,88.281554,4.441782,-90.312541
07365,NaN,-0.791896,9.726542,0.271871,0.021034,0.036162,-0.050265,-0.019773,0.011872,0.006936,0.486628,0.510400,-0.473777,-0.527466,88.272544,4.435120,-90.308639
07366,NaN,-0.795963,9.743981,0.243545,0.050672,0.040253,-0.033431,-0.004063,0.010604,0.014081,0.486691,0.510367,-0.473811,-0.527409,88.272439,4.424411,-90.305406
07367,NaN,-0.786961,9.792302,0.331739,-0.036260,0.029901,0.016673,0.000398,0.001495,0.018924,0.486735,0.510310,-0.473892,-0.527351,88.274561,4.410725,-90.307162
07368,NaN,-0.739502,9.789990,0.302123,-0.007290,-0.015186,0.009825,-0.000004,-0.000339,0.014800,0.486764,0.510256,-0.473965,-0.527310,88.276298,4.399414,-90.310202
07369,NaN,-0.737872,9.790121,0.301848,-0.007598,-0.014692,0.009826,0.005790,-0.002035,0.018426,0.486784,0.510205,-0.474067,-0.527250,88.281364,4.385960,-90.313980
07370,NaN,-0.741112,9.807661,0.272003,0.022033,-0.010599,0.026664,0.003131,0.004829,0.018520,0.486827,0.510164,-0.474145,-0.527180,88.285130,4.372608,-90.313990
07371,NaN,-0.734415,9.820139,0.318120,-0.024903,-0.015873,0.039969,0.013884,0.003513,0.016506,0.486835,0.510151,-0.474250,-0.527091,88.295087,4.360344,-90.314685
07372,NaN,-0.759527,9.812291,0.296366,-0.004856,0.011731,0.033408,0.012370,0.003154,0.014998,0.486841,0.510136,-0.474348,-0.527011,88.304069,4.348981,-90.315720
07373,NaN,-0.760380,9.836015,0.288986,0.001450,0.012951,0.056898,0.016905,0.004239,0.019529,0.486850,0.510125,-0.474467,-0.526906,88.315766,4.334991,-90.315931
07374,NaN,-0.775108,9.852912,0.360500,-0.071754,0.029036,0.076935,0.023692,-0.003375,0.019845,0.486825,0.510109,-0.474623,-0.526805,88.330958,4.320742,-90.320639
07375,NaN,-0.759118,9.859976,0.278959,0.007460,0.014664,0.080388,0.019411,-0.001314,0.017730,0.486810,0.510093,-0.474758,-0.526713,88.343842,4.307673,-90.324204
07376,NaN,-0.701530,9.882352,0.341391,-0.056851,-0.041940,0.100162,0.019522,0.003133,0.018430,0.486806,0.510088,-0.474883,-0.526608,88.356926,4.294345,-90.325204
07377,NaN,-0.771866,9.877129,0.348570,-0.066051,0.031267,0.100415,0.020075,0.000801,0.024784,0.486813,0.510062,-0.475033,-0.526492,88.370301,4.277264,-90.327527
07378,NaN,-0.750615,9.866791,0.296572,-0.016755,0.013272,0.087034,0.019503,0.006013,0.017926,0.486815,0.510065,-0.475150,-0.526381,88.383496,4.264272,-90.326888
07379,NaN,-0.741251,9.826090,0.330012,-0.053596,0.009443,0.046696,0.018374,0.010369,0.020036,0.486836,0.510073,-0.475259,-0.526255,88.396317,4.250100,-90.323603
07380,NaN,-0.773284,9.829470,0.254715,0.019704,0.043503,0.050327,0.020037,0.006560,0.023776,0.486854,0.510065,-0.475391,-0.526128,88.409848,4.233766,-90.322562
07381,NaN,-0.778563,9.870580,0.217545,0.055926,0.048326,0.090664,0.015657,0.001300,0.021470,0.486864,0.510038,-0.475519,-0.526029,88.420718,4.218608,-90.324590
07382,NaN,-0.752202,9.842823,0.195492,0.075298,0.026713,0.060448,0.014427,-0.001663,0.023393,0.486875,0.509995,-0.475656,-0.525936,88.430686,4.202363,-90.328284
07383,NaN,-0.747248,9.819489,0.200314,0.068385,0.026476,0.036957,0.009204,-0.005171,0.026625,0.486900,0.509923,-0.475796,-0.525856,88.437593,4.184152,-90.333956
07384,NaN,-0.696276,9.853006,0.210763,0.057284,-0.023641,0.066944,0.011847,-0.012032,0.026546,0.486902,0.509840,-0.475959,-0.525788,88.445655,4.165941,-90.343560
07385,NaN,-0.710489,9.810549,0.248560,0.017490,-0.003239,0.026679,0.003322,-0.013664,0.023322,0.486912,0.509739,-0.476096,-0.525752,88.448868,4.149505,-90.354144
07386,NaN,-0.667213,9.855137,0.206540,0.059619,-0.046898,0.066877,0.008961,-0.014052,0.025244,0.486913,0.509646,-0.476252,-0.525700,88.455196,4.132010,-90.364931
07387,NaN,-0.643108,9.850858,0.179409,0.085571,-0.067783,0.060168,0.004816,-0.010421,0.024328,0.486931,0.509556,-0.476387,-0.525649,88.459390,4.115049,-90.373588
07388,NaN,-0.635917,9.863427,0.226024,0.038632,-0.073012,0.073457,0.003015,-0.005311,0.018871,0.486950,0.509486,-0.476491,-0.525604,88.462670,4.101340,-90.379457
07389,NaN,-0.636606,9.857335,0.202522,0.061632,-0.069661,0.066821,-0.002387,0.003974,0.018340,0.487004,0.509430,-0.476558,-0.525548,88.463336,4.088019,-90.380052
07390,NaN,-0.656473,9.832162,0.211810,0.051785,-0.045678,0.043400,-0.003639,0.006758,0.019241,0.487071,0.509375,-0.476615,-0.525487,88.463300,4.074283,-90.378985
07391,NaN,-0.652196,9.838483,0.235520,0.028150,-0.048034,0.050044,-0.002418,0.012594,0.016808,0.487142,0.509345,-0.476656,-0.525414,88.464285,4.061973,-90.374595
07392,NaN,-0.720803,9.809837,0.250555,0.012424,0.024421,0.026747,0.002685,0.011653,0.012881,0.487187,0.509334,-0.476703,-0.525340,88.468064,4.051956,-90.370816
07393,NaN,-0.716675,9.816172,0.273686,-0.011210,0.022069,0.033385,0.003246,0.003586,0.020266,0.487231,0.509285,-0.476790,-0.525268,88.471943,4.037523,-90.371604
07394,NaN,-0.736358,9.850561,0.317403,-0.054491,0.041841,0.070217,0.002986,0.000440,0.017855,0.487261,0.509234,-0.476876,-0.525211,88.475445,4.024485,-90.374188
07395,NaN,-0.720468,9.857337,0.237712,0.024689,0.027376,0.073734,0.002750,-0.011324,0.016978,0.487262,0.509153,-0.476990,-0.525185,88.478476,4.011730,-90.383546
07396,NaN,-0.711288,9.846332,0.290578,-0.028848,0.021436,0.063513,-0.000003,-0.011774,0.016878,0.487269,0.509064,-0.477096,-0.525168,88.479776,3.999066,-90.393159
07397,NaN,-0.610917,9.829726,0.284171,-0.024011,-0.075751,0.039783,0.004703,-0.014568,0.008819,0.487235,0.508998,-0.477203,-0.525167,88.483729,3.990900,-90.404608
07398,NaN,-0.617103,9.900452,0.265859,-0.004530,-0.073033,0.110271,0.005093,-0.009845,0.012439,0.487222,0.508938,-0.477306,-0.525144,88.488024,3.980809,-90.413183
07399,NaN,-0.664752,9.867335,0.254211,0.006011,-0.021966,0.080255,0.001530,-0.008252,0.003051,0.487197,0.508895,-0.477374,-0.525147,88.490440,3.976069,-90.420981
07400,NaN,-0.623488,9.881893,0.195709,0.064814,-0.063536,0.090373,-0.011841,-0.002915,0.005653,0.487225,0.508828,-0.477399,-0.525163,88.485303,3.969970,-90.425679
07401,NaN,-0.594251,9.836501,0.205226,0.054243,-0.088766,0.043335,-0.001386,0.004082,-0.000819,0.487227,0.508819,-0.477419,-0.525152,88.486501,3.967605,-90.426565
07402,NaN,-0.642730,9.862825,0.229045,0.031350,-0.041893,0.073573,-0.003040,0.007888,-0.004563,0.487232,0.508826,-0.477415,-0.525145,88.486826,3.967520,-90.425216
07403,NaN,-0.640890,9.839224,0.235600,0.024441,-0.042141,0.050081,-0.010059,0.009495,-0.006790,0.487252,0.508824,-0.477384,-0.525155,88.483292,3.968667,-90.423067
07404,NaN,-0.636957,9.792047,0.248197,0.010959,-0.043152,0.003092,-0.004963,0.011421,-0.011231,0.487253,0.508852,-0.477349,-0.525159,88.482649,3.972455,-90.419791
07405,NaN,-0.614019,9.823418,0.263066,-0.003168,-0.068971,0.033174,-0.005247,0.016892,-0.015178,0.487257,0.508901,-0.477291,-0.525160,88.482154,3.978512,-90.413563
07406,NaN,-0.620531,9.840649,0.234377,0.026445,-0.064909,0.050043,-0.012131,0.017202,-0.015685,0.487278,0.508937,-0.477213,-0.525178,88.477630,3.984940,-90.407035
07407,NaN,-0.673266,9.830853,0.218338,0.043612,-0.013109,0.043506,-0.016913,0.010096,-0.022124,0.487277,0.508957,-0.477123,-0.525240,88.470158,3.994870,-90.404776
07408,NaN,-0.694913,9.781833,0.234512,0.027217,0.010112,-0.003441,-0.009050,0.006734,-0.025438,0.487240,0.508996,-0.477053,-0.525301,88.466971,4.006724,-90.404410
07409,NaN,-0.648994,9.814853,0.246799,0.016008,-0.039941,0.026601,-0.009043,0.003864,-0.024924,0.487197,0.509026,-0.476991,-0.525367,88.463744,4.018178,-90.405641
07410,NaN,-0.683056,9.883580,0.232572,0.032549,-0.012958,0.097135,-0.003691,0.008944,-0.026946,0.487148,0.509087,-0.476926,-0.525413,88.463716,4.030930,-90.404030
07411,NaN,-0.635098,9.893054,0.250695,0.014742,-0.063752,0.103685,-0.012227,0.010192,-0.030682,0.487113,0.509139,-0.476827,-0.525485,88.458911,4.045756,-90.401873
07412,NaN,-0.657454,9.873699,0.284555,-0.018388,-0.042593,0.086858,-0.017767,0.017913,-0.032409,0.487106,0.509203,-0.476689,-0.525555,88.451176,4.061775,-90.395199
07413,NaN,-0.663232,9.867255,0.262350,0.004626,-0.039275,0.080232,-0.010911,0.023363,-0.032912,0.487093,0.509298,-0.476555,-0.525596,88.447669,4.078088,-90.385485
07414,NaN,-0.661809,9.849632,0.292550,-0.025587,-0.042355,0.063363,-0.008470,0.032177,-0.037252,0.487084,0.509433,-0.476394,-0.525619,88.445843,4.097105,-90.370698
07415,NaN,-0.689864,9.847565,0.296274,-0.028812,-0.017613,0.063400,-0.010116,0.030252,-0.039963,0.487067,0.509566,-0.476228,-0.525657,88.443079,4.117573,-90.357085
07416,NaN,-0.640449,9.803757,0.302879,-0.036456,-0.067119,0.016337,-0.009758,0.037857,-0.036839,0.487076,0.509712,-0.476051,-0.525668,88.440761,4.136442,-90.339031
07417,NaN,-0.695145,9.793698,0.285823,-0.019257,-0.015333,0.009779,-0.004563,0.044262,-0.040557,0.487077,0.509896,-0.475863,-0.525658,88.441771,4.157480,-90.317309
07418,NaN,-0.754839,9.771228,0.221618,0.044623,0.042052,-0.010033,-0.007295,0.038068,-0.039635,0.487073,0.510055,-0.475685,-0.525669,88.440882,4.177954,-90.299176
07419,NaN,-0.732025,9.749195,0.224968,0.040634,0.017548,-0.033561,-0.005872,0.028238,-0.037803,0.487045,0.510186,-0.475541,-0.525698,88.440526,4.197137,-90.286929
07420,NaN,-0.757261,9.723542,0.234062,0.030857,0.041509,-0.057031,-0.001566,0.020432,-0.034661,0.486997,0.510301,-0.475433,-0.525728,88.442195,4.214487,-90.278846
07421,NaN,-0.741584,9.772209,0.219102,0.046619,0.019285,-0.010062,0.001073,0.016445,-0.035253,0.486931,0.510413,-0.475341,-0.525763,88.445246,4.232030,-90.273085
07422,NaN,-0.699367,9.799184,0.206966,0.058705,-0.027953,0.013386,0.002204,0.012095,-0.037357,0.486847,0.510521,-0.475257,-0.525813,88.448723,4.250794,-90.269830
07423,NaN,-0.686307,9.841687,0.168528,0.097778,-0.047376,0.053742,-0.001794,0.011548,-0.036050,0.486774,0.510615,-0.475168,-0.525869,88.449984,4.268722,-90.267005
07424,NaN,-0.687884,9.877344,0.209126,0.057390,-0.051722,0.090488,0.008752,0.020184,-0.041262,0.486682,0.510770,-0.475072,-0.525892,88.457557,4.289848,-90.259162
07425,NaN,-0.660394,9.867792,0.258352,0.006733,-0.081818,0.080212,0.003490,0.022421,-0.039052,0.486614,0.510912,-0.474962,-0.525915,88.462288,4.309668,-90.250014
07426,NaN,-0.587299,9.855827,0.278304,-0.014791,-0.157614,0.063275,0.005588,0.036755,-0.047295,0.486553,0.511117,-0.474801,-0.525917,88.468764,4.334501,-90.232742
07427,NaN,-0.531932,9.860597,0.371167,-0.109236,-0.217530,0.066221,0.013465,0.049407,-0.051892,0.486490,0.511386,-0.474619,-0.525879,88.480422,4.362102,-90.208235
07428,NaN,-0.542450,9.907451,0.357339,-0.096397,-0.215502,0.113228,0.019040,0.070785,-0.052258,0.486462,0.511725,-0.474398,-0.525774,88.496109,4.390285,-90.171479
07429,NaN,-0.646617,9.863604,0.325577,-0.068180,-0.113212,0.076566,0.019215,0.092832,-0.051618,0.486488,0.512120,-0.474126,-0.525611,88.512896,4.418311,-90.122129
07430,NaN,-0.731196,9.809143,0.243924,0.009612,-0.029620,0.026645,0.013683,0.105062,-0.052595,0.486554,0.512536,-0.473807,-0.525432,88.527073,4.447175,-90.065667
07431,NaN,-0.949568,9.678626,0.220144,0.027023,0.194339,-0.087079,0.029136,0.104838,-0.032272,0.486633,0.512941,-0.473582,-0.525167,88.550207,4.464271,-90.009223
07432,NaN,-0.931668,9.674049,0.189785,0.052963,0.173356,-0.093717,0.035887,0.080036,-0.046595,0.486599,0.513331,-0.473397,-0.524984,88.576036,4.489296,-89.967028
07433,NaN,-0.835145,9.723802,0.238420,0.000782,0.069306,-0.050422,0.044745,0.070462,-0.038381,0.486540,0.513697,-0.473281,-0.524786,88.606570,4.509348,-89.930409
07434,NaN,-0.826724,9.753852,0.148281,0.086524,0.055423,-0.023279,0.043310,0.061468,-0.038370,0.486464,0.514037,-0.473181,-0.524613,88.635853,4.529363,-89.898741
07435,NaN,-0.837979,9.794364,0.108574,0.122712,0.060245,0.017108,0.033636,0.040816,-0.038430,0.486363,0.514297,-0.473108,-0.524517,88.658635,4.548974,-89.879227
07436,NaN,-0.769384,9.800023,0.096860,0.131064,-0.012011,0.017087,0.029252,0.028176,-0.040969,0.486238,0.514522,-0.473045,-0.524470,88.678364,4.570009,-89.866706
07437,NaN,-0.766843,9.818557,0.164203,0.060749,-0.019837,0.036932,0.030666,0.024093,-0.040148,0.486100,0.514735,-0.473001,-0.524428,88.698760,4.590384,-89.856868
07438,NaN,-0.798066,9.869586,0.175589,0.047370,0.003663,0.090555,0.022534,0.024267,-0.039291,0.485987,0.514929,-0.472935,-0.524403,88.714472,4.610399,-89.846557
07439,NaN,-0.848384,9.871546,0.202527,0.017978,0.049879,0.097175,0.016628,0.014133,-0.043853,0.485853,0.515092,-0.472867,-0.524428,88.726342,4.632791,-89.842207
07440,NaN,-0.851018,9.907282,0.242248,-0.022427,0.045602,0.133899,0.005793,0.010936,-0.042623,0.485743,0.515218,-0.472780,-0.524484,88.731846,4.654541,-89.839591
07441,NaN,-0.857464,9.900630,0.218421,0.000615,0.048876,0.127284,0.000192,-0.001827,-0.043773,0.485613,0.515298,-0.472709,-0.524589,88.733546,4.676670,-89.844505
07442,NaN,-0.863852,9.893967,0.195104,0.023658,0.052128,0.120671,-0.003728,0.002068,-0.041785,0.485509,0.515376,-0.472621,-0.524689,88.733181,4.697827,-89.846974
07443,NaN,-0.913970,9.895798,0.224553,-0.005719,0.098360,0.127276,-0.004745,-0.005122,-0.037677,0.485400,0.515421,-0.472561,-0.524800,88.731899,4.716409,-89.853828
07444,NaN,-0.872524,9.952855,0.231356,-0.010484,0.049154,0.180891,-0.012831,-0.007855,-0.036329,0.485309,0.515437,-0.472487,-0.524933,88.725853,4.734315,-89.861932
07445,NaN,-0.878914,9.975983,0.227367,-0.004218,0.050441,0.204391,-0.026667,-0.011804,-0.038134,0.485241,0.515413,-0.472383,-0.525114,88.711686,4.753101,-89.872425
07446,NaN,-0.834985,9.913930,0.166892,0.058116,0.009154,0.137569,-0.041002,-0.012179,-0.030302,0.485229,0.515336,-0.472262,-0.525310,88.689294,4.767494,-89.882946
07447,NaN,-0.885315,9.849868,0.141623,0.085644,0.062105,0.077335,-0.039950,-0.018101,-0.033602,0.485189,0.515250,-0.472153,-0.525529,88.667225,4.783533,-89.897509
07448,NaN,-0.866069,9.845391,0.119960,0.111557,0.041093,0.070736,-0.049955,-0.023412,-0.023132,0.485192,0.515105,-0.472053,-0.525758,88.639166,4.793659,-89.914401
07449,NaN,-0.881937,9.778767,0.169356,0.065386,0.060729,0.006825,-0.049661,-0.026027,-0.019711,0.485198,0.514944,-0.471970,-0.525984,88.611121,4.801682,-89.932783
07450,NaN,-0.873812,9.802684,0.066048,0.174443,0.049537,0.027416,-0.056545,-0.035994,-0.019954,0.485197,0.514742,-0.471892,-0.526253,88.578678,4.809794,-89.956874
07451,NaN,-0.893237,9.819040,0.145071,0.101274,0.066029,0.047224,-0.053550,-0.035242,-0.016910,0.485197,0.514539,-0.471830,-0.526507,88.547945,4.816016,-89.980830
07452,NaN,-0.883076,9.820164,0.250823,0.001056,0.054728,0.050140,-0.057132,-0.036866,-0.011000,0.485218,0.514312,-0.471776,-0.526758,88.515129,4.818960,-90.005300
07453,NaN,-0.935298,9.868954,0.273573,-0.015176,0.102552,0.103720,-0.048174,-0.039121,-0.002621,0.485233,0.514080,-0.471773,-0.526973,88.487347,4.816946,-90.031150
07454,NaN,-0.923061,9.840325,0.361621,-0.098608,0.093231,0.076518,-0.058647,-0.040485,0.002758,0.485286,0.513807,-0.471759,-0.527204,88.453507,4.811928,-90.057492
07455,NaN,-0.872676,9.755307,0.309057,-0.042832,0.051102,-0.013777,-0.053238,-0.043978,0.002290,0.485317,0.513539,-0.471765,-0.527430,88.422633,4.807062,-90.085664
07456,NaN,-0.931450,9.845049,0.296271,-0.022605,0.103238,0.080199,-0.044581,-0.043610,0.007253,0.485338,0.513281,-0.471807,-0.527624,88.396714,4.799392,-90.113724
07457,NaN,-0.880547,9.885077,0.336547,-0.057322,0.050560,0.116941,-0.044514,-0.049366,0.008257,0.485348,0.513005,-0.471866,-0.527831,88.370556,4.790943,-90.145229
07458,NaN,-0.754116,9.878207,0.356761,-0.073262,-0.073711,0.100140,-0.050578,-0.040563,0.001958,0.485378,0.512753,-0.471871,-0.528044,88.341348,4.786330,-90.171618
07459,NaN,-0.591645,9.874565,0.270837,0.016410,-0.234725,0.080495,-0.039867,-0.018471,-0.001054,0.485425,0.512592,-0.471844,-0.528182,88.319363,4.783721,-90.185428
07460,NaN,-0.638546,9.905965,0.321327,-0.029729,-0.190419,0.117166,-0.032021,0.011801,-0.005661,0.485510,0.512541,-0.471751,-0.528235,88.303288,4.784335,-90.181847
07461,NaN,-0.690915,9.925034,0.324776,-0.029168,-0.140620,0.140630,-0.042850,0.026613,-0.019174,0.485623,0.512534,-0.471559,-0.528310,88.281668,4.792835,-90.170098
07462,NaN,-0.715668,9.833666,0.278747,0.018067,-0.110066,0.050296,-0.046008,0.034570,-0.023656,0.485751,0.512552,-0.471328,-0.528381,88.258648,4.804151,-90.153745
07463,NaN,-0.801342,9.891455,0.250042,0.052237,-0.031703,0.114136,-0.036836,0.038739,-0.028118,0.485853,0.512613,-0.471100,-0.528432,88.241086,4.818000,-90.135192
07464,NaN,-0.891977,9.906849,0.358884,-0.052813,0.054865,0.140416,-0.036878,0.031411,-0.028335,0.485937,0.512655,-0.470889,-0.528501,88.223145,4.831951,-90.120744
07465,NaN,-0.943481,9.807182,0.291875,0.014937,0.112380,0.043443,-0.050297,0.023553,-0.024981,0.486046,0.512637,-0.470669,-0.528614,88.197237,4.843807,-90.110627
07466,NaN,-0.888762,9.710898,0.289952,0.017481,0.063906,-0.057119,-0.035352,0.011328,-0.026293,0.486085,0.512626,-0.470516,-0.528726,88.179203,4.856235,-90.107694
07467,NaN,-0.888279,9.687038,0.299014,0.010642,0.063603,-0.080628,-0.033488,0.006157,-0.020894,0.486121,0.512592,-0.470394,-0.528834,88.162022,4.865401,-90.107660
07468,NaN,-0.860763,9.671486,0.328306,-0.016702,0.036316,-0.097506,-0.024488,0.003841,-0.012563,0.486150,0.512555,-0.470323,-0.528907,88.149869,4.869830,-90.108783
07469,NaN,-0.895217,9.674556,0.256859,0.056763,0.070016,-0.093824,-0.021151,0.001908,-0.006149,0.486184,0.512506,-0.470281,-0.528960,88.139580,4.870496,-90.110787
07470,NaN,-0.849759,9.702435,0.247119,0.068692,0.022797,-0.070246,-0.013230,-0.001852,0.005274,0.486218,0.512439,-0.470299,-0.528978,88.133627,4.864605,-90.114851
07471,NaN,-0.830763,9.751740,0.233853,0.084319,0.000641,-0.023194,-0.009235,-0.001272,0.003983,0.486240,0.512386,-0.470323,-0.528987,88.130047,4.859395,-90.118618
07472,NaN,-0.780403,9.791751,0.270743,0.049536,-0.052005,0.013581,-0.014586,-0.003529,0.005464,0.486274,0.512311,-0.470342,-0.529012,88.123237,4.853362,-90.123640
07473,NaN,-0.762079,9.775847,0.199086,0.122111,-0.067632,-0.006153,-0.022400,0.001336,0.009986,0.486355,0.512221,-0.470338,-0.529028,88.112257,4.844848,-90.125184
07474,NaN,-0.862091,9.879499,0.259469,0.066627,0.024926,0.107492,-0.009599,0.003800,0.014836,0.486418,0.512156,-0.470376,-0.529000,88.108677,4.833586,-90.125815
07475,NaN,-0.886702,9.966150,0.317050,0.013075,0.043958,0.197747,-0.019422,0.004938,0.012521,0.486504,0.512075,-0.470380,-0.528996,88.099576,4.823607,-90.125793
07476,NaN,-0.899982,9.958534,0.398498,-0.066640,0.059772,0.193968,-0.025795,0.005706,0.017828,0.486621,0.511968,-0.470378,-0.528993,88.086814,4.810667,-90.125268
07477,NaN,-0.922416,9.956410,0.403984,-0.069769,0.084530,0.193917,-0.028623,0.000789,0.016997,0.486732,0.511843,-0.470378,-0.529011,88.072253,4.798063,-90.127439
07478,NaN,-0.859816,9.902092,0.465594,-0.130741,0.028698,0.136663,-0.028897,0.000553,0.014092,0.486836,0.511724,-0.470372,-0.529037,88.057460,4.787164,-90.129941
07479,NaN,-0.801751,9.835724,0.479859,-0.145025,-0.021713,0.066231,-0.024744,-0.000192,0.014498,0.486927,0.511611,-0.470379,-0.529055,88.045085,4.775951,-90.132924
07480,NaN,-0.779436,9.766775,0.396721,-0.062170,-0.036274,-0.007096,-0.024817,-0.004644,0.013771,0.487007,0.511488,-0.470395,-0.529086,88.032382,4.765132,-90.138413
07481,NaN,-0.879800,9.775727,0.380711,-0.043864,0.064733,0.009620,-0.016819,-0.003493,0.011185,0.487063,0.511396,-0.470422,-0.529100,88.024409,4.755798,-90.143048
07482,NaN,-0.866252,9.777543,0.279742,0.058615,0.052578,0.006823,-0.018504,-0.020096,0.007971,0.487075,0.511261,-0.470477,-0.529170,88.014581,4.747992,-90.157528
07483,NaN,-0.824668,9.823063,0.240889,0.100382,0.008891,0.047359,-0.014038,-0.023494,0.011767,0.487078,0.511120,-0.470562,-0.529229,88.007186,4.737882,-90.173829
07484,NaN,-0.747777,9.900620,0.317190,0.028193,-0.072536,0.120892,-0.021112,-0.021875,0.009568,0.487096,0.510970,-0.470619,-0.529305,87.995787,4.729122,-90.189296
07485,NaN,-0.770580,9.868897,0.304817,0.041897,-0.045892,0.090745,-0.029742,-0.017717,0.005380,0.487135,0.510820,-0.470634,-0.529402,87.979643,4.722730,-90.202681
07486,NaN,-0.745481,9.841437,0.287612,0.061231,-0.067775,0.060711,-0.038332,-0.016445,0.001679,0.487190,0.510661,-0.470611,-0.529525,87.958625,4.718589,-90.215184
07487,NaN,-0.739591,9.764623,0.284850,0.064672,-0.067031,-0.016396,-0.034992,-0.017908,-0.006647,0.487210,0.510527,-0.470580,-0.529663,87.939503,4.719130,-90.228617
07488,NaN,-0.687969,9.810222,0.347193,0.006465,-0.122302,0.026993,-0.023971,-0.005832,-0.006460,0.487231,0.510451,-0.470549,-0.529744,87.927201,4.719860,-90.235188
07489,NaN,-0.737168,9.805755,0.355139,0.000535,-0.073298,0.026876,-0.021757,-0.005844,-0.012173,0.487232,0.510394,-0.470510,-0.529834,87.916242,4.723802,-90.241896
07490,NaN,-0.762831,9.803384,0.360506,-0.002567,-0.048555,0.026817,-0.029263,-0.003132,-0.018969,0.487239,0.510341,-0.470427,-0.529951,87.901013,4.731748,-90.247179
07491,NaN,-0.742885,9.799386,0.336455,0.023292,-0.069626,0.020300,-0.018501,-0.001524,-0.021462,0.487218,0.510326,-0.470361,-0.530044,87.892067,4.741116,-90.251329
07492,NaN,-0.759761,9.791182,0.417201,-0.056409,-0.053751,0.016476,-0.013154,0.010955,-0.023176,0.487207,0.510360,-0.470275,-0.530098,87.886728,4.751767,-90.248611
07493,NaN,-0.723867,9.830640,0.354116,0.008664,-0.094746,0.050467,-0.010483,0.017197,-0.024030,0.487200,0.510418,-0.470180,-0.530132,87.883290,4.762949,-90.242548
07494,NaN,-0.767253,9.814328,0.413225,-0.050480,-0.051928,0.039989,-0.006112,0.029803,-0.021428,0.487220,0.510515,-0.470072,-0.530117,87.882890,4.772998,-90.228964
07495,NaN,-0.870701,9.793507,0.377544,-0.015266,0.050936,0.026551,-0.003718,0.035815,-0.025186,0.487240,0.510644,-0.469944,-0.530088,87.884186,4.785307,-90.211586
07496,NaN,-0.874627,9.757887,0.335674,0.024631,0.055958,-0.010123,0.005028,0.033222,-0.019787,0.487243,0.510774,-0.469860,-0.530034,87.890341,4.794488,-90.196001
07497,NaN,-0.881192,9.869874,0.382139,-0.019615,0.051727,0.103656,0.021803,0.039123,-0.016724,0.487227,0.510952,-0.469815,-0.529917,87.906388,4.801951,-90.176918
07498,NaN,-0.806262,9.888281,0.418585,-0.058236,-0.025883,0.117031,0.018877,0.039999,-0.018514,0.487214,0.511130,-0.469755,-0.529810,87.920811,4.810537,-90.157408
07499,NaN,-0.788358,9.878560,0.366391,-0.009035,-0.044293,0.103948,0.019064,0.053376,-0.016295,0.487239,0.511340,-0.469668,-0.529662,87.936081,4.818105,-90.129889
07500,NaN,-0.739809,9.888870,0.381970,-0.027105,-0.094976,0.110680,0.021620,0.065425,-0.018085,0.487281,0.511591,-0.469554,-0.529482,87.953311,4.826957,-90.095755
07501,NaN,-0.710020,9.849843,0.411191,-0.061043,-0.123055,0.070315,0.028326,0.076735,-0.019465,0.487329,0.511893,-0.469426,-0.529259,87.975049,4.836821,-90.054753
07502,NaN,-0.784958,9.843134,0.416028,-0.069716,-0.049798,0.070084,0.027884,0.085214,-0.023777,0.487385,0.512225,-0.469266,-0.529028,87.996832,4.849307,-90.009354
07503,NaN,-0.808437,9.787717,0.403203,-0.062501,-0.024032,0.016406,0.026190,0.093588,-0.026683,0.487459,0.512582,-0.469074,-0.528785,88.018120,4.863562,-89.959021
07504,NaN,-0.912814,9.796281,0.381339,-0.044062,0.076967,0.033017,0.026415,0.086505,-0.024005,0.487521,0.512914,-0.468906,-0.528554,88.039146,4.876170,-89.912874
07505,NaN,-0.880651,9.794289,0.249235,0.084554,0.043102,0.023814,0.022835,0.070640,-0.033343,0.487532,0.513217,-0.468744,-0.528395,88.057313,4.893709,-89.875976
07506,NaN,-0.879917,9.740979,0.234926,0.094580,0.044585,-0.029785,0.010146,0.059008,-0.022062,0.487576,0.513432,-0.468605,-0.528268,88.067695,4.904644,-89.845585
07507,NaN,-0.928880,9.677220,0.203049,0.122386,0.097232,-0.090126,0.010245,0.045860,-0.021367,0.487593,0.513612,-0.468499,-0.528171,88.077587,4.914901,-89.822488
07508,NaN,-0.962482,9.715965,0.169007,0.155723,0.126281,-0.049762,0.015085,0.036898,-0.013709,0.487595,0.513760,-0.468449,-0.528069,88.089733,4.920618,-89.804639
07509,NaN,-0.989231,9.772734,0.205990,0.118973,0.147387,0.010319,0.006369,0.021353,-0.004478,0.487606,0.513823,-0.468440,-0.528006,88.096145,4.920616,-89.795941
07510,NaN,-0.965862,9.804556,0.220583,0.104625,0.121791,0.040489,0.003214,0.011210,0.005727,0.487630,0.513830,-0.468470,-0.527950,88.100256,4.914711,-89.792484
07511,NaN,-0.961887,9.846182,0.284858,0.040765,0.115165,0.083714,0.010609,-0.000429,0.011064,0.487622,0.513811,-0.468563,-0.527894,88.108049,4.905453,-89.795603
07512,NaN,-0.872055,9.926034,0.256839,0.071139,0.021134,0.154614,-0.004937,0.007972,0.021777,0.487702,0.513752,-0.468621,-0.527826,88.107355,4.890294,-89.793703
07513,NaN,-0.857441,9.867504,0.321821,0.004565,0.013838,0.097216,-0.007583,0.001706,0.022609,0.487775,0.513666,-0.468691,-0.527779,88.104821,4.874433,-89.795568
07514,NaN,-0.759464,9.906183,0.329694,-0.001482,-0.084505,0.127675,-0.003699,0.015461,0.020656,0.487866,0.513632,-0.468732,-0.527692,88.105199,4.860059,-89.789385
07515,NaN,-0.790519,9.909665,0.257040,0.072052,-0.050963,0.131389,-0.024505,0.026573,0.018853,0.488031,0.513578,-0.468688,-0.527631,88.094194,4.846793,-89.777275
07516,NaN,-0.810383,9.818896,0.208409,0.119528,-0.020804,0.041050,-0.027115,0.032152,0.020702,0.488221,0.513531,-0.468626,-0.527556,88.081962,4.832713,-89.761495
07517,NaN,-0.898980,9.828031,0.291606,0.038057,0.068789,0.060368,-0.019895,0.029214,0.024625,0.488397,0.513485,-0.468600,-0.527462,88.073727,4.816264,-89.747226
07518,NaN,-0.895529,9.863680,0.335045,-0.002452,0.064835,0.097015,-0.024097,0.010757,0.022921,0.488535,0.513383,-0.468604,-0.527429,88.062190,4.800506,-89.743693
07519,NaN,-0.840226,9.850602,0.362055,-0.027105,0.013348,0.080265,-0.035119,0.001526,0.022172,0.488677,0.513231,-0.468601,-0.527448,88.043970,4.784915,-89.745679
07520,NaN,-0.801069,9.764506,0.409289,-0.074054,-0.016420,-0.007125,-0.032825,-0.008749,0.016672,0.488776,0.513071,-0.468614,-0.527501,88.026487,4.772354,-89.753469
07521,NaN,-0.768381,9.819991,0.521925,-0.181922,-0.052507,0.049320,-0.025122,-0.019663,0.010189,0.488811,0.512916,-0.468658,-0.527580,88.012982,4.763217,-89.767811
07522,NaN,-0.827539,9.844821,0.447818,-0.104623,0.006091,0.076442,-0.030006,-0.029883,0.001244,0.488812,0.512744,-0.468690,-0.527718,87.996083,4.759064,-89.788047
07523,NaN,-0.781216,9.843159,0.422416,-0.076040,-0.039282,0.070085,-0.033286,-0.038179,-0.004964,0.488785,0.512555,-0.468719,-0.527901,87.976957,4.758209,-89.813362
07524,NaN,-0.760793,9.803840,0.358193,-0.009986,-0.056000,0.026985,-0.032253,-0.033821,-0.008511,0.488756,0.512389,-0.468730,-0.528078,87.958567,4.759549,-89.836057
07525,NaN,-0.798159,9.860368,0.299611,0.053208,-0.023460,0.084297,-0.024247,-0.032657,-0.011065,0.488705,0.512254,-0.468751,-0.528239,87.944899,4.762356,-89.857821
07526,NaN,-0.801256,9.854288,0.278772,0.076278,-0.020345,0.077737,-0.027167,-0.024413,-0.012585,0.488675,0.512135,-0.468741,-0.528390,87.929863,4.766210,-89.875196
07527,NaN,-0.826419,9.851906,0.284099,0.073209,0.004408,0.077629,-0.024100,-0.019246,-0.008807,0.488658,0.512029,-0.468738,-0.528511,87.916926,4.767950,-89.889552
07528,NaN,-0.798361,9.836293,0.313253,0.045791,-0.022833,0.060790,-0.024312,-0.015009,-0.010963,0.488647,0.511938,-0.468717,-0.528628,87.903977,4.771064,-89.901491
07529,NaN,-0.797336,9.842022,0.339379,0.022120,-0.024959,0.067353,-0.024264,-0.017904,-0.010490,0.488632,0.511839,-0.468704,-0.528750,87.890942,4.773797,-89.914883
07530,NaN,-0.821739,9.810146,0.326571,0.035934,0.001560,0.037164,-0.024319,-0.015001,-0.010956,0.488621,0.511748,-0.468683,-0.528866,87.877987,4.776902,-89.926818
07531,NaN,-0.772312,9.820349,0.347058,0.017767,-0.049070,0.043957,-0.017293,-0.013727,-0.009216,0.488598,0.511673,-0.468684,-0.528959,87.869142,4.778928,-89.938242
07532,NaN,-0.821503,9.815739,0.354148,0.011972,-0.000063,0.043725,-0.017295,-0.013725,-0.009213,0.488577,0.511598,-0.468683,-0.529052,87.860275,4.781058,-89.949408
07533,NaN,-0.771322,9.796485,0.356360,0.010629,-0.048941,0.020447,-0.018860,-0.011169,-0.011191,0.488559,0.511532,-0.468668,-0.529146,87.850859,4.784363,-89.959177
07534,NaN,-0.803396,9.805952,0.307805,0.060832,-0.018114,0.030730,-0.013289,-0.005780,-0.010214,0.488543,0.511491,-0.468656,-0.529211,87.844665,4.787233,-89.965801
07535,NaN,-0.776045,9.819818,0.353697,0.016529,-0.047103,0.043969,-0.013132,0.000248,-0.008242,0.488547,0.511462,-0.468634,-0.529255,87.838911,4.789065,-89.968744
07536,NaN,-0.846455,9.789371,0.368540,0.001499,0.025310,0.020087,-0.012974,-0.001086,-0.006553,0.488551,0.511425,-0.468620,-0.529298,87.833129,4.789940,-89.972592
07537,NaN,-0.848882,9.783426,0.346307,0.024564,0.028415,0.013529,-0.015261,0.001811,-0.001317,0.488582,0.511379,-0.468607,-0.529326,87.826268,4.787834,-89.974572
07538,NaN,-0.878807,9.828313,0.338758,0.034534,0.054874,0.060438,-0.005626,-0.002487,-0.001443,0.488578,0.511345,-0.468630,-0.529344,87.824638,4.785753,-89.979114
07539,NaN,-0.845598,9.824527,0.413192,-0.039657,0.022442,0.056711,-0.006559,-0.005273,0.003331,0.488581,0.511289,-0.468670,-0.529359,87.822464,4.780818,-89.985269
07540,NaN,-0.853430,9.801100,0.319701,0.053542,0.033350,0.030490,-0.012080,-0.006195,0.003108,0.488596,0.511219,-0.468696,-0.529390,87.816968,4.776049,-89.991841
07541,NaN,-0.799763,9.787873,0.344430,0.028823,-0.018134,0.013785,-0.003535,-0.004583,0.006350,0.488601,0.511165,-0.468751,-0.529388,87.816619,4.769408,-89.997627
07542,NaN,-0.821997,9.820959,0.389162,-0.014457,0.002273,0.050281,-0.004889,-0.006263,0.006529,0.488607,0.511104,-0.468805,-0.529394,87.815248,4.762678,-90.004163
07543,NaN,-0.776946,9.813795,0.337328,0.037435,-0.040563,0.037438,-0.008740,-0.000813,0.009789,0.488645,0.511042,-0.468842,-0.529385,87.812116,4.754230,-90.007109
07544,NaN,-0.845807,9.783506,0.351518,0.022443,0.031846,0.013524,-0.003484,-0.007481,0.006819,0.488645,0.510981,-0.468904,-0.529390,87.811494,4.747307,-90.014338
07545,NaN,-0.823667,9.809401,0.343636,0.031377,0.008948,0.037176,-0.003324,-0.001455,0.008792,0.488665,0.510931,-0.468956,-0.529374,87.811269,4.739316,-90.018014
07546,NaN,-0.796579,9.817554,0.364827,0.010438,-0.017417,0.043863,-0.000566,-0.008355,0.008618,0.488660,0.510869,-0.469032,-0.529370,87.812282,4.731344,-90.025705
07547,NaN,-0.798526,9.841209,0.359554,0.016625,-0.016055,0.067383,-0.004734,-0.007595,0.008219,0.488668,0.510801,-0.469094,-0.529374,87.811016,4.723571,-90.032879
07548,NaN,-0.799007,9.805967,0.318584,0.056587,-0.011247,0.030765,-0.007496,-0.008054,0.008109,0.488680,0.510725,-0.469149,-0.529387,87.808075,4.715897,-90.040408
07549,NaN,-0.818155,9.815469,0.369061,0.006786,0.008320,0.043727,-0.003223,-0.007250,0.009729,0.488689,0.510660,-0.469217,-0.529381,87.807784,4.707336,-90.047021
07550,NaN,-0.815287,9.821357,0.393194,-0.016885,0.006224,0.050275,-0.006299,-0.005039,0.006243,0.488701,0.510600,-0.469263,-0.529388,87.805669,4.700796,-90.052859
07551,NaN,-0.792924,9.847268,0.385009,-0.007974,-0.016684,0.073936,0.005380,-0.001181,0.013722,0.488714,0.510563,-0.469347,-0.529336,87.810503,4.690092,-90.055606
07552,NaN,-0.765805,9.855417,0.405778,-0.028925,-0.043037,0.080627,-0.000991,-0.007246,0.004023,0.488701,0.510515,-0.469407,-0.529342,87.811324,4.684775,-90.062761
07553,NaN,-0.769324,9.843765,0.359061,0.017492,-0.037381,0.067534,-0.008899,0.000529,0.008107,0.488737,0.510460,-0.469438,-0.529334,87.808217,4.677315,-90.065137
07554,NaN,-0.799764,9.853490,0.309578,0.067721,-0.006596,0.077818,-0.005046,0.002438,0.005130,0.488760,0.510425,-0.469467,-0.529321,87.807171,4.671577,-90.066704
07555,NaN,-0.814346,9.845208,0.389089,-0.011948,0.009545,0.073790,-0.003483,-0.000116,0.007107,0.488779,0.510383,-0.469510,-0.529305,87.807084,4.664659,-90.069457
07556,NaN,-0.811585,9.851082,0.413187,-0.035622,0.007461,0.080335,-0.006245,-0.000575,0.006997,0.488803,0.510333,-0.469548,-0.529299,87.805215,4.657785,-90.072713
07557,NaN,-0.812927,9.845288,0.390032,-0.012552,0.010539,0.073789,-0.003427,0.004346,0.007861,0.488834,0.510301,-0.469583,-0.529270,87.805269,4.650488,-90.072990
07558,NaN,-0.836491,9.843107,0.392967,-0.015561,0.035295,0.073637,-0.002342,-0.001564,0.004487,0.488839,0.510263,-0.469627,-0.529263,87.805586,4.645029,-90.076870
07559,NaN,-0.791606,9.835922,0.340816,0.036319,-0.007578,0.060852,-0.006033,0.002553,0.009440,0.488876,0.510215,-0.469665,-0.529241,87.804056,4.636759,-90.078356
07560,NaN,-0.765880,9.808762,0.320423,0.055628,-0.029653,0.030944,-0.000666,0.004805,0.007972,0.488900,0.510190,-0.469706,-0.529206,87.805637,4.629445,-90.078501
07561,NaN,-0.763814,9.844088,0.361947,0.015020,-0.033445,0.067553,0.001996,0.011060,0.007147,0.488933,0.510194,-0.469735,-0.529146,87.809243,4.622828,-90.074313
07562,NaN,-0.761269,9.849956,0.385564,-0.008658,-0.035521,0.074096,-0.003841,0.012814,0.003551,0.488973,0.510193,-0.469737,-0.529108,87.809367,4.618221,-90.069954
07563,NaN,-0.789151,9.836108,0.341165,0.035079,-0.005626,0.060858,-0.002272,0.017621,0.005816,0.489027,0.510203,-0.469738,-0.529048,87.810726,4.612391,-90.062682
07564,NaN,-0.786528,9.841980,0.364857,0.011402,-0.007701,0.067400,-0.002167,0.019187,0.007038,0.489087,0.510215,-0.469738,-0.528981,87.812108,4.605927,-90.054586
07565,NaN,-0.783340,9.818400,0.370667,0.004609,-0.008081,0.043879,-0.005299,0.016938,0.002798,0.489139,0.510224,-0.469725,-0.528936,87.811666,4.601809,-90.047701
07566,NaN,-0.738757,9.811187,0.318240,0.056484,-0.050993,0.031125,0.000435,0.020983,0.005464,0.489192,0.510250,-0.469723,-0.528863,87.814618,4.596285,-90.038609
07567,NaN,-0.835630,9.831828,0.346813,0.028457,0.044871,0.060538,-0.003578,0.020413,0.006754,0.489259,0.510263,-0.469716,-0.528796,87.815352,4.589990,-90.029604
07568,NaN,-0.815865,9.851841,0.315185,0.060727,0.024538,0.077684,-0.003947,0.018621,0.002624,0.489310,0.510279,-0.469701,-0.528745,87.815678,4.586041,-90.021931
07569,NaN,-0.740098,9.834889,0.312967,0.062023,-0.048656,0.054659,-0.000665,0.019538,0.008557,0.489374,0.510295,-0.469706,-0.528667,87.818101,4.578778,-90.012893
07570,NaN,-0.807765,9.839990,0.368035,0.006861,0.019512,0.067237,-0.002018,0.025227,0.009027,0.489453,0.510318,-0.469696,-0.528580,87.819845,4.571306,-90.001285
07571,NaN,-0.831857,9.867289,0.388617,-0.013049,0.042606,0.097127,-0.000614,0.024008,0.009318,0.489526,0.510341,-0.469695,-0.528491,87.822407,4.563589,-89.990320
07572,NaN,-0.831007,9.867361,0.388595,-0.013345,0.043100,0.097124,-0.003325,0.028020,0.009966,0.489618,0.510366,-0.469678,-0.528397,87.823527,4.555639,-89.977088
07573,NaN,-0.851105,9.841668,0.396844,-0.022837,0.066981,0.073428,-0.002501,0.025812,0.019166,0.489725,0.510366,-0.469693,-0.528284,87.825177,4.542332,-89.965006
07574,NaN,-0.851226,9.836010,0.373180,0.000254,0.070024,0.066890,-0.000945,0.023258,0.021146,0.489829,0.510358,-0.469722,-0.528169,87.827459,4.527876,-89.954267
07575,NaN,-0.823997,9.808973,0.352366,0.019538,0.047906,0.037003,0.001023,0.019598,0.027726,0.489938,0.510333,-0.469781,-0.528041,87.830843,4.509611,-89.944927
07576,NaN,-0.841415,9.818706,0.401250,-0.030218,0.067568,0.049893,0.014981,0.020548,0.029991,0.490018,0.510336,-0.469881,-0.527874,87.842135,4.490031,-89.935556
07577,NaN,-0.795470,9.870568,0.383811,-0.012210,0.021300,0.097287,0.004235,0.016059,0.032913,0.490124,0.510297,-0.469970,-0.527734,87.847216,4.468716,-89.928210
07578,NaN,-0.764806,9.819959,0.368061,0.000619,-0.001706,0.043884,0.008141,0.015066,0.030410,0.490210,0.510268,-0.470067,-0.527596,87.854339,4.448776,-89.921983
07579,NaN,-0.713443,9.824545,0.361716,0.005678,-0.049751,0.044240,0.013763,0.017549,0.031870,0.490293,0.510258,-0.470174,-0.527433,87.864889,4.428083,-89.913722
07580,NaN,-0.692898,9.838912,0.304952,0.061309,-0.067556,0.054885,0.010947,0.020003,0.031296,0.490385,0.510247,-0.470269,-0.527274,87.873834,4.407739,-89.904648
07581,NaN,-0.715990,9.831188,0.282987,0.081680,-0.040270,0.048179,0.004172,0.026362,0.032763,0.490515,0.510235,-0.470332,-0.527108,87.879345,4.386723,-89.891476
07582,NaN,-0.730039,9.787901,0.319331,0.042366,-0.019840,0.007483,0.013197,0.027377,0.025894,0.490604,0.510261,-0.470401,-0.526938,87.889887,4.369625,-89.878288
07583,NaN,-0.655527,9.823966,0.328109,0.033170,-0.093796,0.038089,0.014903,0.030865,0.029866,0.490709,0.510293,-0.470475,-0.526743,87.901710,4.350339,-89.862694
07584,NaN,-0.694960,9.808001,0.384576,-0.025742,-0.050739,0.027257,0.011277,0.028146,0.019786,0.490789,0.510331,-0.470521,-0.526591,87.911167,4.336750,-89.849199
07585,NaN,-0.740691,9.774506,0.370601,-0.014513,-0.000079,-0.003165,0.006002,0.027478,0.022468,0.490888,0.510349,-0.470562,-0.526445,87.917751,4.321607,-89.835912
07586,NaN,-0.742609,9.763018,0.322248,0.031966,0.005470,-0.016220,0.012719,0.024027,0.020551,0.490957,0.510378,-0.470623,-0.526297,87.927851,4.307490,-89.824771
07587,NaN,-0.669678,9.828423,0.348886,0.005829,-0.070114,0.044449,0.020590,0.019114,0.016010,0.490984,0.510426,-0.470705,-0.526153,87.942390,4.295893,-89.816156
07588,NaN,-0.717388,9.853844,0.370060,-0.016749,-0.022723,0.074124,0.014816,0.017974,0.012858,0.491013,0.510462,-0.470768,-0.526035,87.953414,4.286052,-89.808656
07589,NaN,-0.741760,9.816557,0.329927,0.020544,0.006178,0.037358,0.003625,0.017494,0.010689,0.491064,0.510478,-0.470796,-0.525947,87.958257,4.277503,-89.801074
07590,NaN,-0.716205,9.789270,0.308500,0.039841,-0.015975,0.007500,0.012708,0.015588,0.004288,0.491070,0.510522,-0.470836,-0.525861,87.967956,4.272519,-89.795121
07591,NaN,-0.742837,9.840370,0.321679,0.026372,0.008062,0.060884,0.019073,0.018781,0.014505,0.491092,0.510566,-0.470915,-0.525728,87.981662,4.261690,-89.787533
07592,NaN,-0.742548,9.869953,0.338360,0.009144,0.006929,0.090933,0.004628,0.017372,0.006379,0.491129,0.510591,-0.470936,-0.525651,87.986809,4.255542,-89.780516
07593,NaN,-0.734851,9.828663,0.372442,-0.027493,0.003116,0.050404,0.010038,0.009328,0.005099,0.491127,0.510608,-0.470991,-0.525587,87.994810,4.249858,-89.778642
07594,NaN,-0.738775,9.846487,0.342365,0.002060,0.007026,0.067407,0.004820,0.013135,0.008534,0.491158,0.510617,-0.471028,-0.525515,87.999889,4.242390,-89.774016
07595,NaN,-0.693494,9.838994,0.289851,0.053859,-0.035992,0.054762,-0.000754,0.007750,0.007528,0.491191,0.510604,-0.471058,-0.525470,88.001625,4.235416,-89.771885
07596,NaN,-0.738585,9.811273,0.300499,0.041766,0.012125,0.030838,-0.000801,0.010656,0.007065,0.491228,0.510596,-0.471083,-0.525422,88.003374,4.228740,-89.768713
07597,NaN,-0.711238,9.789790,0.303463,0.037635,-0.012558,0.007514,0.003114,0.009647,0.004564,0.491244,0.510601,-0.471115,-0.525373,88.007513,4.223447,-89.766287
07598,NaN,-0.689817,9.845000,0.312761,0.029521,-0.037042,0.061291,0.006026,0.016152,0.006677,0.491275,0.510625,-0.471143,-0.525295,88.013405,4.217101,-89.759968
07599,NaN,-0.709102,9.825222,0.344038,-0.003316,-0.015696,0.044082,0.001516,0.015114,0.002119,0.491303,0.510647,-0.471151,-0.525241,88.016777,4.213308,-89.754302
07600,NaN,-0.755849,9.856447,0.390334,-0.049265,0.029219,0.080236,0.001955,0.011114,0.007190,0.491333,0.510646,-0.471182,-0.525185,88.020124,4.206568,-89.750866
07601,NaN,-0.785877,9.866315,0.339548,0.000980,0.059897,0.090518,0.004608,0.002612,0.005787,0.491333,0.510635,-0.471238,-0.525146,88.024874,4.200477,-89.752268
07602,NaN,-0.754422,9.856571,0.389965,-0.049910,0.030201,0.080230,-0.004588,-0.004431,0.010658,0.491353,0.510570,-0.471299,-0.525136,88.023823,4.191444,-89.757690
07603,NaN,-0.713439,9.866789,0.308756,0.031698,-0.009424,0.084623,-0.000665,0.001943,0.008458,0.491370,0.510536,-0.471351,-0.525106,88.025522,4.183786,-89.759619
07604,NaN,-0.687752,9.839439,0.288419,0.050987,-0.031613,0.054792,-0.002068,0.003169,0.008165,0.491395,0.510503,-0.471393,-0.525077,88.026231,4.176331,-89.760726
07605,NaN,-0.706676,9.819670,0.320480,0.018126,-0.010278,0.037571,-0.004874,0.005622,0.007578,0.491431,0.510473,-0.471421,-0.525048,88.025752,4.169311,-89.760287
07606,NaN,-0.630665,9.802300,0.318967,0.019321,-0.083510,0.014683,-0.001962,0.012128,0.009693,0.491480,0.510460,-0.471446,-0.524992,88.026898,4.161157,-89.756220
07607,NaN,-0.684354,9.874906,0.330539,0.009661,-0.034249,0.091357,0.001563,0.012211,0.002586,0.491504,0.510475,-0.471460,-0.524943,88.030170,4.157093,-89.751771
07608,NaN,-0.707541,9.843389,0.315309,0.023651,-0.007909,0.061102,-0.009223,0.018024,0.005310,0.491575,0.510469,-0.471440,-0.524900,88.027394,4.151565,-89.744406
07609,NaN,-0.730805,9.811852,0.300629,0.037609,0.018433,0.030845,-0.009575,0.008827,0.000864,0.491611,0.510449,-0.471432,-0.524892,88.024239,4.148365,-89.742657
07610,NaN,-0.706561,9.813897,0.298756,0.039953,-0.005352,0.031064,-0.004103,0.012640,0.000651,0.491644,0.510454,-0.471427,-0.524862,88.024165,4.145400,-89.738475
07611,NaN,-0.700667,9.831463,0.370004,-0.030562,-0.012330,0.050599,-0.005216,0.011200,0.003738,0.491683,0.510444,-0.471431,-0.524831,88.023515,4.140598,-89.735057
07612,NaN,-0.702403,9.825602,0.346891,-0.007468,-0.009352,0.044088,-0.006864,0.012189,0.000527,0.491722,0.510441,-0.471419,-0.524809,88.021840,4.137694,-89.731137
07613,NaN,-0.729109,9.847138,0.344357,-0.004000,0.016324,0.067395,-0.008122,0.012083,0.001925,0.491766,0.510432,-0.471409,-0.524785,88.019654,4.133984,-89.727236
07614,NaN,-0.750532,9.821464,0.352940,-0.013391,0.040165,0.043642,-0.003908,0.015790,0.003110,0.491812,0.510439,-0.471402,-0.524741,88.019824,4.129673,-89.721197
07615,NaN,-0.776890,9.843046,0.349902,-0.009932,0.065836,0.066944,-0.000864,0.006186,0.006309,0.491835,0.510423,-0.471437,-0.524705,88.021637,4.123374,-89.720512
07616,NaN,-0.753222,9.809834,0.306148,0.032757,0.046099,0.030620,-0.006239,0.003946,0.007749,0.491871,0.510382,-0.471465,-0.524684,88.019989,4.116172,-89.721180
07617,NaN,-0.731628,9.800267,0.256988,0.081862,0.027276,0.017832,-0.005510,0.004664,0.016504,0.491930,0.510325,-0.471517,-0.524638,88.018972,4.103959,-89.721216
07618,NaN,-0.724451,9.817909,0.328153,0.011361,0.020322,0.037353,-0.000194,-0.004966,0.013992,0.491946,0.510262,-0.471599,-0.524611,88.020432,4.093006,-89.726877
07619,NaN,-0.699464,9.849527,0.343603,-0.003290,-0.005023,0.067619,0.002663,-0.002940,0.015346,0.491964,0.510210,-0.471686,-0.524567,88.023765,4.081350,-89.730896
07620,NaN,-0.694113,9.861331,0.390809,-0.050396,-0.009485,0.080630,-0.001402,-0.000589,0.016158,0.491999,0.510149,-0.471760,-0.524526,88.024717,4.069243,-89.734002
07621,NaN,-0.700803,9.867511,0.314561,0.025911,-0.000655,0.084644,-0.004208,0.001868,0.015572,0.492047,0.510092,-0.471818,-0.524485,88.024362,4.057565,-89.735307
07622,NaN,-0.720048,9.812513,0.304966,0.033493,0.024728,0.030846,-0.002466,0.002454,0.020014,0.492102,0.510028,-0.471891,-0.524429,88.024834,4.043310,-89.736590
07623,NaN,-0.687694,9.802750,0.355255,-0.017451,-0.004937,0.020558,0.005517,-0.000912,0.016704,0.492123,0.509987,-0.471982,-0.524368,88.029884,4.030951,-89.739132
07624,NaN,-0.714517,9.818637,0.328155,0.009462,0.023217,0.037349,0.000337,0.000001,0.020603,0.492166,0.509921,-0.472070,-0.524311,88.031864,4.016311,-89.741812
07625,NaN,-0.714182,9.812969,0.304087,0.032529,0.026170,0.030846,0.008946,-0.004220,0.024822,0.492189,0.509858,-0.472202,-0.524232,88.038803,3.999185,-89.746666
07626,NaN,-0.690227,9.838787,0.295364,0.041291,0.003311,0.054615,0.004539,-0.003679,0.021487,0.492216,0.509792,-0.472313,-0.524172,88.043047,3.983968,-89.751444
07627,NaN,-0.705993,9.825013,0.350279,-0.014899,0.022217,0.043847,0.004494,-0.000770,0.021027,0.492248,0.509734,-0.472416,-0.524105,88.047480,3.969035,-89.754530
07628,NaN,-0.679603,9.827188,0.347398,-0.012580,-0.001567,0.044087,0.004678,-0.005008,0.023181,0.492276,0.509660,-0.472534,-0.524044,88.051754,3.952822,-89.760040
07629,NaN,-0.700884,9.795905,0.331240,0.001419,0.024707,0.013813,0.008837,-0.005785,0.023602,0.492294,0.509598,-0.472664,-0.523971,88.058627,3.936454,-89.765275
07630,NaN,-0.750164,9.845195,0.347763,-0.014651,0.073139,0.066887,0.007319,-0.013516,0.021777,0.492291,0.509512,-0.472807,-0.523928,88.064082,3.920881,-89.775698
07631,NaN,-0.722935,9.817914,0.326792,0.004585,0.050870,0.037097,0.006322,-0.023668,0.026258,0.492278,0.509389,-0.472983,-0.523901,88.068861,3.902620,-89.791518
07632,NaN,-0.715920,9.800361,0.355341,-0.025557,0.047968,0.020061,0.011697,-0.021433,0.024820,0.492253,0.509286,-0.473164,-0.523861,88.076526,3.885154,-89.806430
07633,NaN,-0.693683,9.820327,0.322231,0.006559,0.027568,0.037340,0.019852,-0.029042,0.023667,0.492186,0.509187,-0.473383,-0.523823,88.088784,3.868230,-89.825595
07634,NaN,-0.670010,9.875601,0.331057,-0.001668,0.003197,0.091150,0.004887,-0.029805,0.025680,0.492161,0.509043,-0.473569,-0.523818,88.092234,3.850116,-89.845300
07635,NaN,-0.664535,9.822681,0.318345,0.008530,0.004254,0.037588,0.007299,-0.031169,0.021659,0.492118,0.508914,-0.473753,-0.523818,88.097221,3.834367,-89.865205
07636,NaN,-0.659763,9.799243,0.323159,0.001793,0.003805,0.014055,0.014251,-0.034399,0.022671,0.492050,0.508788,-0.473967,-0.523810,88.105867,3.817894,-89.887606
07637,NaN,-0.636671,9.883994,0.349325,-0.023457,-0.022068,0.097896,0.022626,-0.031473,0.024275,0.491970,0.508687,-0.474202,-0.523770,88.119658,3.800547,-89.908509
07638,NaN,-0.588011,9.882203,0.319349,0.004859,-0.067675,0.091911,0.008400,-0.029716,0.018586,0.491917,0.508568,-0.474379,-0.523775,88.125137,3.786509,-89.928305
07639,NaN,-0.581052,9.835111,0.329849,-0.008361,-0.069075,0.044848,0.011289,-0.020308,0.020234,0.491884,0.508480,-0.474545,-0.523741,88.132921,3.771785,-89.942312
07640,NaN,-0.583317,9.823503,0.281528,0.038146,-0.063699,0.031865,0.013456,-0.021924,0.013287,0.491823,0.508407,-0.474702,-0.523727,88.141593,3.760932,-89.957738
07641,NaN,-0.560284,9.849175,0.271708,0.046829,-0.086555,0.055661,0.021625,-0.011870,0.012252,0.491763,0.508385,-0.474854,-0.523668,88.155569,3.750902,-89.967209
07642,NaN,-0.583818,9.876860,0.290366,0.026936,-0.063296,0.085433,0.015997,-0.004055,0.010607,0.491731,0.508371,-0.474968,-0.523608,88.166369,3.741918,-89.972433
07643,NaN,-0.562829,9.867111,0.238926,0.076002,-0.082213,0.072716,0.018302,0.003279,0.005176,0.491696,0.508398,-0.475055,-0.523536,88.179012,3.736241,-89.973215
07644,NaN,-0.633225,9.867279,0.268508,0.044482,-0.011345,0.078427,0.013726,0.008043,-0.000327,0.491670,0.508436,-0.475105,-0.523478,88.188951,3.733741,-89.971699
07645,NaN,-0.628707,9.849590,0.296650,0.014316,-0.014235,0.061384,0.008414,0.010299,0.001884,0.491668,0.508463,-0.475142,-0.523420,88.196073,3.730002,-89.968774
07646,NaN,-0.670616,9.833968,0.353107,-0.044431,0.028987,0.050300,0.020604,0.010616,-0.000253,0.491631,0.508524,-0.475204,-0.523339,88.210049,3.727506,-89.965781
07647,NaN,-0.646626,9.835940,0.348800,-0.042174,0.005211,0.050563,0.014810,0.002093,-0.003709,0.491577,0.508557,-0.475265,-0.523302,88.220595,3.726788,-89.968142
07648,NaN,-0.646472,9.806448,0.329683,-0.025493,0.007186,0.020539,0.009395,0.002772,-0.002727,0.491543,0.508576,-0.475311,-0.523274,88.227854,3.725568,-89.969696
07649,NaN,-0.669008,9.810452,0.354497,-0.051817,0.029533,0.026756,0.017535,-0.004838,-0.003873,0.491465,0.508597,-0.475396,-0.523249,88.239585,3.724786,-89.975986
07650,NaN,-0.658923,9.895050,0.279924,0.022985,0.014391,0.108191,0.024586,-0.006492,-0.001633,0.491374,0.508627,-0.475507,-0.523205,88.255204,3.722777,-89.982838
07651,NaN,-0.680838,9.869565,0.286037,0.013634,0.038215,0.084384,0.019032,-0.004485,-0.002347,0.491297,0.508649,-0.475599,-0.523172,88.267900,3.721164,-89.988908
07652,NaN,-0.635010,9.897062,0.273563,0.024930,-0.008898,0.108463,0.016448,-0.009162,-0.000302,0.491223,0.508649,-0.475699,-0.523151,88.278757,3.718351,-89.997270
07653,NaN,-0.610225,9.869517,0.251139,0.044190,-0.031201,0.078717,0.024891,-0.001757,0.002051,0.491151,0.508683,-0.475809,-0.523085,88.294802,3.714255,-90.001459
07654,NaN,-0.616335,9.881339,0.196083,0.097127,-0.024923,0.089288,0.018289,0.003299,0.005186,0.491116,0.508707,-0.475897,-0.523015,88.307185,3.708513,-90.002577
07655,NaN,-0.582283,9.818435,0.232899,0.056691,-0.054003,0.025444,0.009944,0.007755,0.003874,0.491111,0.508729,-0.475947,-0.522953,88.315206,3.703695,-90.000540
07656,NaN,-0.555360,9.796803,0.234523,0.052549,-0.078748,0.002190,0.020762,0.016687,0.001731,0.491093,0.508802,-0.475999,-0.522851,88.329498,3.700157,-89.994035
07657,NaN,-0.582427,9.848093,0.246759,0.039021,-0.054519,0.055471,0.026202,0.023396,0.001041,0.491075,0.508911,-0.476047,-0.522718,88.347502,3.697220,-89.983343
07658,NaN,-0.609191,9.869825,0.241364,0.042548,-0.028805,0.078732,0.014996,0.025826,-0.001623,0.491085,0.509002,-0.476054,-0.522615,88.358825,3.695750,-89.971650
07659,NaN,-0.604583,9.822643,0.251284,0.029348,-0.030242,0.031661,0.013457,0.028382,-0.003615,0.491098,0.509103,-0.476045,-0.522511,88.369706,3.695536,-89.958326
07660,NaN,-0.655653,9.842440,0.248761,0.030300,0.019749,0.054636,0.019346,0.028215,0.001260,0.491110,0.509204,-0.476064,-0.522385,88.383612,3.692450,-89.945216
07661,NaN,-0.631765,9.844388,0.244227,0.032519,-0.004043,0.054920,0.018693,0.021656,-0.006562,0.491084,0.509304,-0.476081,-0.522295,88.397202,3.693731,-89.936321
07662,NaN,-0.608581,9.875868,0.258118,0.017787,-0.029287,0.085221,0.008009,0.021682,-0.002918,0.491098,0.509370,-0.476076,-0.522222,88.404367,3.692928,-89.927028
07663,NaN,-0.603798,9.799110,0.250444,0.021618,-0.029252,0.008134,0.017089,0.019731,-0.009306,0.491064,0.509466,-0.476088,-0.522150,88.416872,3.695666,-89.919651
07664,NaN,-0.631356,9.820771,0.245502,0.025151,-0.003536,0.031386,0.014470,0.017956,-0.007735,0.491040,0.509550,-0.476096,-0.522083,88.427596,3.697559,-89.912574
07665,NaN,-0.636599,9.838374,0.214735,0.054653,0.000317,0.048448,0.011675,0.020411,-0.008332,0.491027,0.509634,-0.476091,-0.522018,88.436931,3.699783,-89.904206
07666,NaN,-0.657409,9.818791,0.245407,0.021949,0.021714,0.031098,0.010050,0.011093,-0.011364,0.490989,0.509697,-0.476096,-0.521988,88.444865,3.703646,-89.901124
07667,NaN,-0.634340,9.820669,0.241873,0.024190,-0.002081,0.031389,0.010048,0.011095,-0.011363,0.490951,0.509762,-0.476100,-0.521956,88.452937,3.707514,-89.897750
07668,NaN,-0.637901,9.844215,0.235053,0.030294,-0.000637,0.054928,0.010124,0.005286,-0.010420,0.490901,0.509808,-0.476122,-0.521938,88.460699,3.710745,-89.897985
07669,NaN,-0.665603,9.865828,0.230859,0.033781,0.025089,0.078173,0.007407,0.001928,-0.010077,0.490848,0.509838,-0.476149,-0.521935,88.467071,3.713705,-89.900559
07670,NaN,-0.638665,9.879671,0.274910,-0.010796,-0.003494,0.091415,0.005809,-0.000003,-0.012827,0.490790,0.509865,-0.476166,-0.521947,88.472162,3.718234,-89.903866
07671,NaN,-0.620267,9.899141,0.242367,0.021241,-0.023923,0.108777,0.008324,0.000199,-0.015619,0.490716,0.509905,-0.476185,-0.521959,88.478951,3.724338,-89.907433
07672,NaN,-0.571649,9.908917,0.260586,0.002636,-0.074383,0.115846,-0.000198,0.008877,-0.019117,0.490679,0.509956,-0.476149,-0.521978,88.480925,3.732605,-89.905738
07673,NaN,-0.592260,9.830109,0.256642,0.003942,-0.050117,0.038463,0.002515,0.012239,-0.019457,0.490640,0.510024,-0.476112,-0.521983,88.484716,3.741080,-89.902188
07674,NaN,-0.596871,9.853574,0.250680,0.010039,-0.048668,0.062004,-0.000522,0.014439,-0.022978,0.490606,0.510097,-0.476051,-0.521998,88.486710,3.751642,-89.897358
07675,NaN,-0.598700,9.823852,0.232836,0.026728,-0.046744,0.031998,-0.000705,0.018675,-0.025142,0.490575,0.510184,-0.475978,-0.522009,88.488858,3.763392,-89.890714
07676,NaN,-0.599403,9.829676,0.256661,0.003000,-0.048647,0.038470,-0.006358,0.019095,-0.027094,0.490556,0.510266,-0.475880,-0.522036,88.487682,3.776382,-89.883274
07677,NaN,-0.602326,9.829494,0.256777,0.002662,-0.048144,0.038473,0.001520,0.021544,-0.031315,0.490509,0.510380,-0.475791,-0.522051,88.491282,3.791715,-89.875245
07678,NaN,-0.632072,9.850919,0.253275,0.006204,-0.022413,0.061710,-0.001042,0.024251,-0.028990,0.490484,0.510492,-0.475689,-0.522057,88.493350,3.805868,-89.864873
07679,NaN,-0.629628,9.773955,0.247559,0.010098,-0.022453,-0.015376,-0.012543,0.021928,-0.035349,0.490466,0.510586,-0.475547,-0.522110,88.488828,3.823593,-89.855817
07680,NaN,-0.587245,9.801294,0.237330,0.021294,-0.069559,0.008781,0.001167,0.019736,-0.035443,0.490408,0.510707,-0.475446,-0.522138,88.491988,3.841374,-89.848134
07681,NaN,-0.664200,9.824636,0.262211,-0.003704,0.002366,0.037864,0.000921,0.019494,-0.038356,0.490341,0.510833,-0.475340,-0.522175,88.495134,3.860745,-89.840970
07682,NaN,-0.645783,9.820387,0.236521,0.021960,-0.019055,0.031709,-0.010243,0.018997,-0.040570,0.490297,0.510937,-0.475198,-0.522245,88.491727,3.881451,-89.833787
07683,NaN,-0.678335,9.835676,0.210517,0.048902,0.009058,0.048474,-0.011462,0.015993,-0.038701,0.490252,0.511025,-0.475066,-0.522320,88.487679,3.901005,-89.828429
07684,NaN,-0.682211,9.835390,0.211344,0.048598,0.009540,0.048475,-0.007411,0.013657,-0.039487,0.490191,0.511119,-0.474947,-0.522394,88.485693,3.921011,-89.824298
07685,NaN,-0.657438,9.819550,0.239141,0.020995,-0.017586,0.031714,-0.011428,0.013099,-0.038220,0.490140,0.511197,-0.474826,-0.522477,88.481502,3.940183,-89.820947
07686,NaN,-0.689904,9.834821,0.212877,0.047970,0.010519,0.048477,-0.004670,0.014133,-0.039342,0.490073,0.511298,-0.474713,-0.522542,88.481107,3.960113,-89.816542
07687,NaN,-0.688333,9.852473,0.284301,-0.022610,0.003920,0.067866,-0.010233,0.016129,-0.040067,0.490022,0.511392,-0.474581,-0.522618,88.477626,3.980392,-89.811193
07688,NaN,-0.716188,9.850120,0.287565,-0.025452,0.028685,0.067546,-0.009664,0.018207,-0.033002,0.489995,0.511477,-0.474461,-0.522670,88.474542,3.996753,-89.804354
07689,NaN,-0.745611,9.841790,0.267212,-0.004875,0.055839,0.060763,-0.009808,0.012148,-0.034980,0.489945,0.511547,-0.474355,-0.522744,88.471178,4.014011,-89.801669
07690,NaN,-0.703386,9.869250,0.257621,0.006289,0.008743,0.084944,-0.011354,0.007313,-0.037258,0.489885,0.511609,-0.474247,-0.522838,88.466686,4.032644,-89.801152
07691,NaN,-0.727698,9.813744,0.248873,0.014081,0.033924,0.031078,-0.008313,0.005116,-0.033738,0.489819,0.511664,-0.474163,-0.522922,88.463897,4.049136,-89.802079
07692,NaN,-0.732824,9.807504,0.226122,0.037206,0.036763,0.024617,-0.009668,0.003435,-0.033568,0.489755,0.511711,-0.474078,-0.523012,88.460218,4.065596,-89.803734
07693,NaN,-0.709980,9.815341,0.247852,0.016023,0.010645,0.031400,-0.001210,0.000584,-0.031009,0.489666,0.511761,-0.474033,-0.523087,88.461199,4.080333,-89.807852
07694,NaN,-0.687640,9.852776,0.286995,-0.022212,-0.016878,0.068185,-0.000878,0.002408,-0.026866,0.489594,0.511812,-0.473991,-0.523143,88.462521,4.092939,-89.809994
07695,NaN,-0.742710,9.836356,0.244660,0.019278,0.036912,0.054614,-0.001567,0.006170,-0.034848,0.489507,0.511883,-0.473924,-0.523215,88.463622,4.109947,-89.811380
07696,NaN,-0.695723,9.846354,0.263716,0.000601,-0.013516,0.061728,-0.003934,0.004620,-0.030372,0.489439,0.511940,-0.473860,-0.523281,88.463279,4.124595,-89.812306
07697,NaN,-0.699494,9.875686,0.281885,-0.016778,-0.014391,0.091727,-0.003806,0.010688,-0.028385,0.489389,0.512009,-0.473788,-0.523326,88.463478,4.138171,-89.809934
07698,NaN,-0.677437,9.848071,0.261893,0.002479,-0.036823,0.062060,-0.002759,0.015049,-0.031925,0.489339,0.512099,-0.473697,-0.523367,88.464239,4.153869,-89.804895
07699,NaN,-0.726359,9.819949,0.272721,-0.009274,0.011234,0.037854,-0.005517,0.014589,-0.032054,0.489296,0.512185,-0.473598,-0.523413,88.463503,4.169655,-89.799627
07700,NaN,-0.707123,9.815902,0.247038,0.016373,-0.010220,0.031733,-0.002769,0.015060,-0.031916,0.489245,0.512276,-0.473507,-0.523453,88.464262,4.185348,-89.794581
07701,NaN,-0.737255,9.837066,0.243570,0.019917,0.015536,0.054942,0.002606,0.009933,-0.033629,0.489165,0.512371,-0.473439,-0.523498,88.468010,4.201916,-89.792460
07702,NaN,-0.740662,9.836817,0.243316,0.019615,0.016019,0.054942,0.001104,0.009585,-0.035148,0.489083,0.512465,-0.473363,-0.523551,88.470756,4.219375,-89.790606
07703,NaN,-0.765459,9.810803,0.251544,0.010401,0.039816,0.031060,-0.004046,0.003072,-0.031572,0.489006,0.512518,-0.473302,-0.523626,88.470351,4.234562,-89.793019
07704,NaN,-0.721980,9.808980,0.223311,0.038561,-0.005929,0.025285,0.001365,0.002436,-0.032524,0.488914,0.512587,-0.473251,-0.523690,88.472947,4.250410,-89.795230
07705,NaN,-0.744732,9.788955,0.255027,0.005930,0.015538,0.007853,-0.001088,-0.000701,-0.029280,0.488825,0.512630,-0.473214,-0.523763,88.474021,4.264177,-89.800031
07706,NaN,-0.748762,9.818270,0.272589,-0.011417,0.014678,0.037847,0.006771,0.001805,-0.033473,0.488715,0.512713,-0.473177,-0.523819,88.479686,4.280559,-89.802617
07707,NaN,-0.756485,9.835632,0.242531,0.018113,0.018510,0.054940,0.006858,0.003386,-0.032245,0.488611,0.512796,-0.473140,-0.523868,88.485376,4.296118,-89.804575
07708,NaN,-0.706709,9.822281,0.266528,-0.006983,-0.032894,0.038534,0.005600,0.003275,-0.030853,0.488515,0.512874,-0.473103,-0.523916,88.490435,4.311021,-89.806275
07709,NaN,-0.714335,9.839660,0.236377,0.022536,-0.029061,0.055630,0.009541,0.006777,-0.032567,0.488410,0.512971,-0.473065,-0.523952,88.497847,4.326800,-89.806570
07710,NaN,-0.717546,9.839445,0.235575,0.022233,-0.028578,0.055633,0.005405,0.012021,-0.032236,0.488330,0.513075,-0.473002,-0.523982,88.503171,4.342626,-89.803263
07711,NaN,-0.770749,9.828747,0.215990,0.040344,0.022812,0.048491,0.006989,0.013956,-0.029486,0.488257,0.513179,-0.472948,-0.523997,88.509553,4.356802,-89.799233
07712,NaN,-0.747805,9.836774,0.236589,0.019115,-0.003311,0.055287,0.004143,0.011914,-0.030840,0.488184,0.513275,-0.472886,-0.524026,88.514153,4.371827,-89.795964
07713,NaN,-0.724944,9.844819,0.256922,-0.002118,-0.029410,0.062085,0.012330,0.016247,-0.030894,0.488099,0.513401,-0.472837,-0.524026,88.523636,4.386819,-89.790619
07714,NaN,-0.729839,9.838619,0.232311,0.021013,-0.026607,0.055641,0.005282,0.022356,-0.032385,0.488044,0.513532,-0.472748,-0.524030,88.529349,4.402882,-89.781370
07715,NaN,-0.802723,9.808003,0.244503,0.006842,0.045734,0.031038,0.004179,0.020906,-0.029308,0.487998,0.513650,-0.472666,-0.524031,88.534346,4.417117,-89.772581
07716,NaN,-0.760095,9.835913,0.233200,0.017916,-0.001351,0.055290,0.009587,0.020283,-0.030253,0.487933,0.513781,-0.472598,-0.524024,88.542441,4.431927,-89.764488
07717,NaN,-0.782797,9.815853,0.263899,-0.014689,0.020140,0.037833,0.008240,0.018595,-0.030086,0.487863,0.513897,-0.472539,-0.524029,88.549690,4.446388,-89.758577
07718,NaN,-0.790254,9.833198,0.233361,0.014822,0.023937,0.054934,0.012464,0.014940,-0.029182,0.487780,0.514018,-0.472495,-0.524027,88.559200,4.460505,-89.753534
07719,NaN,-0.791492,9.838996,0.255749,-0.008902,0.022143,0.061376,0.009640,0.017385,-0.029777,0.487706,0.514136,-0.472440,-0.524030,88.567147,4.474802,-89.747942
07720,NaN,-0.771771,9.835105,0.228849,0.016725,0.000651,0.055292,0.007218,0.018726,-0.025781,0.487655,0.514246,-0.472382,-0.524022,88.573829,4.487023,-89.740671
07721,NaN,-0.746783,9.849264,0.272880,-0.027950,-0.027756,0.068538,0.007214,0.018730,-0.025777,0.487605,0.514357,-0.472323,-0.524013,88.580472,4.499196,-89.733103
07722,NaN,-0.775286,9.840758,0.250342,-0.007304,-0.000682,0.061734,0.015373,0.018589,-0.026581,0.487531,0.514488,-0.472284,-0.523988,88.591822,4.511871,-89.725918
07723,NaN,-0.803785,9.832234,0.227723,0.013373,0.026430,0.054930,0.008545,0.020435,-0.025932,0.487477,0.514601,-0.472229,-0.523976,88.599188,4.523966,-89.718544
07724,NaN,-0.809124,9.855591,0.221122,0.019447,0.027918,0.078475,0.004611,0.016925,-0.024221,0.487432,0.514697,-0.472172,-0.523975,88.604302,4.535265,-89.712279
07725,NaN,-0.789088,9.851727,0.194564,0.045091,0.006452,0.072401,0.005860,0.017050,-0.025601,0.487379,0.514794,-0.472119,-0.523978,88.610006,4.547139,-89.706816
07726,NaN,-0.741391,9.862277,0.212905,0.026317,-0.043934,0.079576,0.004848,0.017167,-0.021309,0.487341,0.514883,-0.472070,-0.523969,88.615273,4.556772,-89.700368
07727,NaN,-0.745487,9.856075,0.189135,0.049473,-0.041125,0.073141,-0.003892,0.015265,-0.027536,0.487304,0.514958,-0.471990,-0.524002,88.615318,4.569764,-89.695711
07728,NaN,-0.771041,9.823949,0.173870,0.063761,-0.015074,0.042789,-0.003639,0.019996,-0.023867,0.487289,0.515040,-0.471905,-0.524012,88.615852,4.580901,-89.687673
07729,NaN,-0.747639,9.832146,0.195376,0.042526,-0.041131,0.049601,-0.003792,0.025835,-0.024785,0.487282,0.515134,-0.471808,-0.524014,88.616407,4.592393,-89.677327
07730,NaN,-0.748510,9.837970,0.219224,0.018786,-0.042941,0.056041,-0.005209,0.027060,-0.025081,0.487284,0.515234,-0.471699,-0.524012,88.616368,4.604322,-89.665246
07731,NaN,-0.771206,9.782278,0.210024,0.026710,-0.017904,0.002138,-0.009460,0.026229,-0.026740,0.487292,0.515326,-0.471575,-0.524025,88.613884,4.617163,-89.653422
07732,NaN,-0.829286,9.818365,0.179983,0.057638,0.035457,0.042049,-0.007488,0.022563,-0.020166,0.487302,0.515397,-0.471484,-0.524028,88.612341,4.626215,-89.643857
07733,NaN,-0.831247,9.818188,0.180620,0.057367,0.035979,0.042048,-0.008674,0.015030,-0.019084,0.487297,0.515436,-0.471416,-0.524055,88.609624,4.634284,-89.639820
07734,NaN,-0.814832,9.831937,0.126333,0.112786,0.017752,0.053105,-0.013770,0.012961,-0.014779,0.487315,0.515454,-0.471345,-0.524085,88.604044,4.640118,-89.635699
07735,NaN,-0.855440,9.791964,0.190767,0.047944,0.060214,0.018121,-0.010464,0.006494,-0.009133,0.487325,0.515451,-0.471312,-0.524109,88.600048,4.642592,-89.634989
07736,NaN,-0.836652,9.811797,0.160243,0.079921,0.039702,0.035615,-0.013142,-0.001400,-0.009579,0.487321,0.515420,-0.471291,-0.524161,88.594167,4.645247,-89.639049
07737,NaN,-0.889713,9.860015,0.177754,0.063991,0.088549,0.088381,-0.006990,0.003177,-0.001042,0.487329,0.515389,-0.471305,-0.524172,88.591978,4.642810,-89.641811
07738,NaN,-0.935091,9.831656,0.189119,0.052406,0.136586,0.064064,-0.014757,-0.002296,0.003577,0.487362,0.515321,-0.471316,-0.524198,88.585145,4.637915,-89.646200
07739,NaN,-0.760756,9.866488,0.245195,-0.000956,-0.039726,0.086044,-0.005422,-0.003880,0.000175,0.487355,0.515275,-0.471351,-0.524219,88.583465,4.634729,-89.652502
07740,NaN,-0.757602,9.842952,0.251554,-0.007620,-0.040260,0.062497,-0.006498,0.008135,0.005532,0.487396,0.515250,-0.471364,-0.524194,88.581851,4.628863,-89.650868
07741,NaN,-0.731646,9.851346,0.273707,-0.028867,-0.066282,0.069317,-0.011305,0.014252,-0.001632,0.487441,0.515238,-0.471336,-0.524188,88.577527,4.626885,-89.647208
07742,NaN,-0.753133,9.825363,0.282519,-0.037988,-0.042530,0.045382,-0.007215,0.020929,-0.000881,0.487497,0.515260,-0.471299,-0.524148,88.576087,4.624874,-89.638313
07743,NaN,-0.747888,9.778222,0.294527,-0.050952,-0.044041,-0.001715,-0.005114,0.022293,-0.008227,0.487531,0.515302,-0.471248,-0.524121,88.575568,4.626827,-89.629501
07744,NaN,-0.750504,9.772147,0.271004,-0.027808,-0.041293,-0.008143,0.000137,0.018530,-0.011611,0.487534,0.515361,-0.471208,-0.524096,88.578217,4.630928,-89.622139
07745,NaN,-0.755848,9.825155,0.282489,-0.038823,-0.040973,0.045385,0.008384,0.019973,-0.011182,0.487514,0.515433,-0.471197,-0.524053,88.585582,4.634475,-89.615892
07746,NaN,-0.736222,9.815483,0.232552,0.010214,-0.060254,0.032924,-0.001685,0.020868,-0.016492,0.487515,0.515505,-0.471135,-0.524038,88.587291,4.641402,-89.607254
