// General information: 
//  MT Manager version: 2019.0.1 
//  XDA version: 2019.0.1 build 2740 rev 84096 built on 2019-01-30
// Device information: 
//  DeviceId: 00B43876
//  ProductCode: MTW2-3A7G6
//  Firmware Version: 4.3.4
//  Hardware Version: 1.1.0
// Device settings: 
//  Filter Profile: human(46.1)
//  Option Flags: Orientation Smoother Disabled, AHS Disabled, ICC Disabled
// Coordinate system: ENU
PacketCounter,SampleTimeFine,Acc_X,Acc_Y,Acc_Z,FreeAcc_E,FreeAcc_N,FreeAcc_U,Gyr_X,Gyr_Y,Gyr_Z,Quat_q0,Quat_q1,Quat_q2,Quat_q3,Roll,Pitch,Yaw
37077,NaN,2.499534,9.129866,-3.112538,0.004187,0.037810,0.151677,0.006458,0.005907,-0.006072,-0.450803,-0.461195,0.665937,0.374972,108.843479,-14.746447,-100.013430
37078,NaN,2.477314,9.150595,-3.128753,0.017216,0.064160,0.170055,-0.002680,0.009422,0.002978,-0.450830,-0.461174,0.665947,0.374947,108.843210,-14.751519,-100.013061
37079,NaN,2.495450,9.162172,-3.100332,-0.015278,0.053693,0.176387,-0.009000,0.017915,0.004746,-0.450905,-0.461147,0.665931,0.374919,108.838117,-14.759266,-100.008298
37080,NaN,2.512888,9.087821,-3.142817,0.043864,0.013144,0.126040,-0.013770,0.019996,0.010748,-0.451008,-0.461094,0.665915,0.374888,108.830361,-14.770508,-100.003486
37081,NaN,2.532986,9.000617,-3.094585,0.020596,-0.025894,0.036297,-0.015170,0.021528,0.010128,-0.451117,-0.461040,0.665894,0.374861,108.821615,-14.781818,-99.998199
37082,NaN,2.567949,8.937859,-3.109050,0.047574,-0.077310,-0.007708,-0.019442,0.012784,0.010921,-0.451209,-0.460961,0.665884,0.374866,108.811647,-14.791819,-99.997461
37083,NaN,2.596305,8.885159,-3.102348,0.052638,-0.118046,-0.050787,-0.013552,0.011932,0.005217,-0.451275,-0.460909,0.665875,0.374868,108.804718,-14.798777,-99.996461
37084,NaN,2.585685,8.927784,-3.068100,0.011562,-0.091890,-0.025157,-0.016244,0.004827,0.001711,-0.451316,-0.460852,0.665867,0.374901,108.797272,-14.802314,-99.998425
37085,NaN,2.584351,8.906044,-3.056716,0.008051,-0.095985,-0.048941,-0.011412,0.003804,-0.005929,-0.451328,-0.460827,0.665855,0.374938,108.792298,-14.801701,-99.999862
37086,NaN,2.580124,8.960971,-3.054487,-0.007908,-0.075998,-0.000445,-0.008220,0.000087,-0.007636,-0.451317,-0.460811,0.665852,0.374977,108.789673,-14.799294,-100.002700
37087,NaN,2.577848,9.002939,-2.962142,-0.106346,-0.054479,0.008627,-0.004277,0.006299,-0.014618,-0.451302,-0.460841,0.665827,0.375001,108.788599,-14.794166,-100.000765
37088,NaN,2.580591,9.070085,-2.991705,-0.097194,-0.040658,0.079991,-0.004338,0.005242,-0.012978,-0.451290,-0.460861,0.665807,0.375027,108.787200,-14.789811,-99.999692
37089,NaN,2.528623,9.122074,-3.002412,-0.092668,0.022372,0.117648,-0.001422,0.004289,-0.015011,-0.451264,-0.460889,0.665792,0.375051,108.787331,-14.784375,-99.999111
37090,NaN,2.539822,9.102446,-3.045081,-0.049141,0.001407,0.115823,0.001433,0.002279,-0.015405,-0.451224,-0.460924,0.665784,0.375070,108.789544,-14.778158,-99.999237
37091,NaN,2.524847,9.100580,-2.992285,-0.096496,0.018657,0.093852,0.000818,0.006749,-0.014419,-0.451204,-0.460962,0.665766,0.375079,108.790559,-14.773513,-99.996952
37092,NaN,2.511545,9.057083,-3.031418,-0.045906,0.014693,0.062827,0.008097,0.008606,-0.011994,-0.451176,-0.461013,0.665764,0.375053,108.795851,-14.770314,-99.994180
37093,NaN,2.518097,9.069465,-3.063119,-0.021212,0.008876,0.085706,0.002215,0.005215,-0.013796,-0.451146,-0.461053,0.665755,0.375057,108.798516,-14.765465,-99.992817
37094,NaN,2.528563,9.027332,-3.096178,0.019145,-0.016596,0.060105,0.007014,0.000384,-0.005408,-0.451105,-0.461065,0.665785,0.375039,108.804683,-14.764320,-99.995913
37095,NaN,2.529363,9.049502,-3.106731,0.022009,-0.011711,0.083894,0.004435,-0.000371,-0.004687,-0.451070,-0.461061,0.665815,0.375032,108.809240,-14.763679,-100.000191
37096,NaN,2.509274,8.993570,-3.114490,0.047498,-0.009514,0.029998,0.002360,0.004575,-0.002686,-0.451059,-0.461060,0.665833,0.375014,108.812275,-14.764785,-100.001456
37097,NaN,2.515431,8.983555,-3.135959,0.069092,-0.019808,0.029097,0.002360,0.004575,-0.002686,-0.451047,-0.461056,0.665854,0.374998,108.815271,-14.766055,-100.003299
37098,NaN,2.518015,9.027965,-3.156059,0.075066,-0.010469,0.076676,0.001684,0.007988,-0.000063,-0.451054,-0.461052,0.665868,0.374968,108.817558,-14.769214,-100.003152
37099,NaN,2.534355,9.017247,-3.118153,0.039398,-0.025386,0.059211,-0.002572,0.011529,-0.000290,-0.451084,-0.461045,0.665866,0.374944,108.816752,-14.773060,-100.000857
37100,NaN,2.568081,9.018110,-3.052292,-0.028476,-0.051127,0.048063,-0.006331,0.008486,0.001773,-0.451114,-0.461017,0.665869,0.374936,108.814465,-14.777307,-100.000781
37101,NaN,2.522646,9.037628,-3.073676,-0.005161,-0.003270,0.061011,-0.010806,0.015845,-0.000418,-0.451176,-0.460998,0.665844,0.374931,108.808375,-14.781891,-99.996496
37102,NaN,2.532199,9.072357,-3.113635,0.022742,-0.004606,0.107690,-0.011883,0.019907,0.005157,-0.451264,-0.460968,0.665818,0.374908,108.801436,-14.790082,-99.990659
37103,NaN,2.549141,9.061868,-3.074500,-0.012920,-0.019508,0.090220,-0.011207,0.016493,0.002535,-0.451335,-0.460941,0.665796,0.374895,108.795058,-14.796405,-99.986176
37104,NaN,2.548464,9.039984,-3.062981,-0.016437,-0.023639,0.066432,-0.012209,0.017375,-0.001035,-0.451404,-0.460926,0.665761,0.374892,108.787992,-14.800768,-99.980576
37105,NaN,2.594470,9.021124,-3.039102,-0.040426,-0.070702,0.053490,-0.010914,0.009493,-0.004646,-0.451436,-0.460907,0.665740,0.374913,108.782473,-14.801947,-99.979203
37106,NaN,2.591864,8.977103,-3.017839,-0.047104,-0.079330,0.005916,-0.010975,0.008436,-0.003007,-0.451468,-0.460885,0.665724,0.374931,108.777299,-14.803591,-99.978241
37107,NaN,2.590114,8.955314,-3.006932,-0.050648,-0.083440,-0.017870,-0.005519,0.002950,-0.011630,-0.451451,-0.460890,0.665714,0.374964,108.775803,-14.799650,-99.979419
37108,NaN,2.566796,8.976461,-3.022902,-0.037589,-0.057098,0.000495,-0.000982,-0.003352,-0.011079,-0.451406,-0.460895,0.665724,0.374994,108.777650,-14.794741,-99.983531
37109,NaN,2.568234,9.021143,-3.043186,-0.031617,-0.047716,0.048071,0.003216,-0.007947,-0.009216,-0.451340,-0.460894,0.665757,0.375016,108.782607,-14.790130,-99.990582
37110,NaN,2.537019,9.029805,-3.028760,-0.043640,-0.015173,0.043534,0.008893,-0.004971,-0.016878,-0.451255,-0.460938,0.665776,0.375030,108.790061,-14.781776,-99.994495
37111,NaN,2.513119,9.050724,-3.045826,-0.030641,0.011178,0.061894,0.007153,-0.001735,-0.016185,-0.451184,-0.460981,0.665788,0.375040,108.796486,-14.774373,-99.997078
37112,NaN,2.542902,9.064562,-3.071722,-0.016175,-0.016135,0.090221,0.008993,0.001376,-0.012642,-0.451129,-0.461023,0.665803,0.375030,108.803293,-14.769488,-99.998238
37113,NaN,2.513297,9.095272,-3.067499,-0.025018,0.020938,0.109466,0.012351,0.005069,-0.011752,-0.451079,-0.461072,0.665820,0.375000,108.811473,-14.765941,-99.998093
37114,NaN,2.495251,9.083727,-3.095906,0.006819,0.032075,0.103155,0.009151,0.008781,-0.010045,-0.451053,-0.461119,0.665824,0.374966,108.817439,-14.763832,-99.995594
37115,NaN,2.487377,9.071466,-3.064879,-0.018631,0.038664,0.080248,0.004374,0.010855,-0.004050,-0.451053,-0.461136,0.665831,0.374931,108.820797,-14.765462,-99.993685
37116,NaN,2.501257,9.073675,-3.117670,0.028017,0.022116,0.102274,0.001736,0.009043,-0.001694,-0.451061,-0.461139,0.665840,0.374902,108.822884,-14.767931,-99.992635
37117,NaN,2.528951,9.020674,-3.112624,0.033015,-0.018687,0.059249,0.002175,0.013686,0.001227,-0.451087,-0.461138,0.665849,0.374856,108.824677,-14.772995,-99.990147
37118,NaN,2.534272,8.988584,-3.123364,0.051429,-0.033542,0.034587,-0.009579,0.006898,-0.002389,-0.451112,-0.461115,0.665840,0.374872,108.820553,-14.774691,-99.990168
37119,NaN,2.540957,8.978787,-3.143851,0.073003,-0.043868,0.033714,-0.006518,0.005312,0.006685,-0.451141,-0.461061,0.665863,0.374861,108.818833,-14.781188,-99.993252
37120,NaN,2.579815,8.947487,-3.089009,0.023868,-0.084749,-0.002122,-0.011158,0.005261,0.001900,-0.451172,-0.461016,0.665865,0.374876,108.814249,-14.784907,-99.995011
37121,NaN,2.564090,8.958545,-3.125503,0.058849,-0.069109,0.015366,-0.011099,0.006317,0.000264,-0.451202,-0.460975,0.665863,0.374893,108.809561,-14.788047,-99.996457
37122,NaN,2.551646,8.978881,-3.081602,0.014655,-0.047317,0.017115,-0.011040,0.007372,-0.001371,-0.451234,-0.460946,0.665853,0.374910,108.804582,-14.790383,-99.996406
37123,NaN,2.549110,9.055976,-3.089041,0.001921,-0.022673,0.089349,-0.011203,0.012246,-0.004967,-0.451278,-0.460932,0.665822,0.374927,108.798154,-14.791989,-99.993130
37124,NaN,2.541535,9.044181,-3.056342,-0.023502,-0.016097,0.066433,-0.011264,0.011189,-0.003330,-0.451319,-0.460916,0.665798,0.374940,108.792404,-14.793967,-99.990563
37125,NaN,2.583585,9.079829,-3.031129,-0.063244,-0.043413,0.101951,-0.012384,0.009958,-0.003626,-0.451356,-0.460893,0.665778,0.374961,108.786478,-14.795613,-99.989262
37126,NaN,2.568270,9.055876,-2.966850,-0.113731,-0.030618,0.056113,-0.014786,0.012369,-0.007814,-0.451401,-0.460885,0.665734,0.374994,108.778322,-14.795375,-99.985178
37127,NaN,2.574157,9.046430,-2.986981,-0.092070,-0.040922,0.055245,-0.008560,0.001780,-0.006323,-0.451402,-0.460862,0.665730,0.375029,108.774773,-14.794379,-99.987600
37128,NaN,2.531361,9.011664,-3.010225,-0.053079,-0.012866,0.019726,-0.005239,0.000183,-0.011302,-0.451378,-0.460865,0.665723,0.375065,108.773663,-14.790002,-99.989688
37129,NaN,2.543029,8.992089,-3.052689,-0.009653,-0.033954,0.017995,-0.001318,-0.001647,-0.009764,-0.451342,-0.460872,0.665731,0.375086,108.775435,-14.786091,-99.992565
37130,NaN,2.535658,9.002269,-3.031574,-0.031921,-0.022862,0.018859,0.005582,-0.003367,-0.011892,-0.451280,-0.460895,0.665751,0.375096,108.781004,-14.780739,-99.996532
37131,NaN,2.554212,9.058266,-3.024767,-0.058187,-0.024170,0.072727,0.010681,-0.002909,-0.011691,-0.451207,-0.460925,0.665784,0.375090,108.789451,-14.775751,-100.000922
37132,NaN,2.519821,9.057512,-3.091106,0.009021,0.002165,0.083921,0.011858,-0.000621,-0.013028,-0.451137,-0.460971,0.665808,0.375075,108.798168,-14.770289,-100.003130
37133,NaN,2.506315,9.077406,-3.049229,-0.035095,0.024025,0.085641,0.009090,0.007729,-0.008397,-0.451115,-0.461011,0.665815,0.375039,108.804000,-14.769111,-100.001014
37134,NaN,2.513139,9.089668,-3.081197,-0.010393,0.018172,0.108566,0.007252,0.004616,-0.011939,-0.451076,-0.461053,0.665821,0.375025,108.809381,-14.765207,-100.000490
37135,NaN,2.517644,9.057433,-3.093108,0.008128,0.003331,0.083922,0.008688,0.008378,-0.005447,-0.451061,-0.461078,0.665835,0.374986,108.814769,-14.765892,-99.999296
37136,NaN,2.527561,8.992959,-3.116201,0.045305,-0.026817,0.034638,0.003872,0.005157,-0.005325,-0.451044,-0.461091,0.665849,0.374967,108.818458,-14.765675,-99.999733
37137,NaN,2.555820,8.962358,-3.121345,0.053480,-0.063137,0.015436,0.000234,0.004223,-0.006541,-0.451031,-0.461093,0.665855,0.374968,108.819758,-14.764886,-100.000836
37138,NaN,2.529641,8.916473,-3.107441,0.057145,-0.050363,-0.037568,-0.000567,0.005522,-0.000646,-0.451034,-0.461081,0.665870,0.374952,108.821078,-14.767274,-100.001962
37139,NaN,2.503468,8.991747,-3.122022,0.054670,-0.004220,0.029207,-0.005323,0.003357,-0.002159,-0.451040,-0.461056,0.665878,0.374962,108.819647,-14.768688,-100.004166
37140,NaN,2.520740,9.003411,-3.093857,0.022102,-0.014570,0.035500,-0.003429,0.007526,-0.000251,-0.451057,-0.461040,0.665884,0.374951,108.819061,-14.771660,-100.004244
37141,NaN,2.494802,9.078763,-3.108015,0.019606,0.031582,0.102268,-0.009988,0.007539,0.000562,-0.451090,-0.461002,0.665882,0.374962,108.814624,-14.775290,-100.005066
37142,NaN,2.529881,9.101948,-3.051610,-0.045182,0.010540,0.114846,-0.008838,0.014062,0.006732,-0.451154,-0.460963,0.665879,0.374938,108.810343,-14.783257,-100.002813
37143,NaN,2.536904,9.092202,-3.071736,-0.023567,0.000199,0.113996,-0.012568,0.006780,0.001280,-0.451193,-0.460914,0.665875,0.374958,108.804353,-14.787212,-100.004205
37144,NaN,2.588183,9.041152,-3.059213,-0.028932,-0.062127,0.076458,-0.012569,0.006780,0.001280,-0.451232,-0.460870,0.665869,0.374976,108.798711,-14.790877,-100.004993
37145,NaN,2.555832,9.005535,-3.022911,-0.047106,-0.038572,0.024295,-0.011483,0.002721,-0.004293,-0.451244,-0.460836,0.665863,0.375013,108.793759,-14.791027,-100.007382
37146,NaN,2.581511,8.930857,-3.006987,-0.045296,-0.083980,-0.042464,-0.009621,0.001598,-0.008255,-0.451241,-0.460822,0.665852,0.375054,108.790083,-14.788564,-100.009256
37147,NaN,2.564947,8.942079,-3.043782,-0.010326,-0.068382,-0.024963,-0.008562,0.001774,-0.006321,-0.451237,-0.460801,0.665851,0.375088,108.787318,-14.787266,-100.011946
37148,NaN,2.536842,8.995338,-3.048260,-0.015983,-0.026768,0.018009,0.000694,0.004633,-0.011120,-0.451214,-0.460825,0.665846,0.375094,108.788978,-14.783809,-100.011572
37149,NaN,2.523111,9.015567,-3.005461,-0.060122,-0.004879,0.019692,-0.000023,0.002752,-0.014365,-0.451184,-0.460859,0.665833,0.375111,108.790268,-14.778324,-100.010762
37150,NaN,2.565357,9.073304,-2.991560,-0.096752,-0.027585,0.078986,0.004047,0.008327,-0.010223,-0.451168,-0.460895,0.665828,0.375095,108.793364,-14.776036,-100.008486
37151,NaN,2.497603,9.135547,-3.040769,-0.056620,0.050734,0.134007,0.007253,0.004620,-0.011930,-0.451132,-0.460932,0.665833,0.375083,108.798226,-14.772460,-100.008085
37152,NaN,2.555194,9.096525,-3.061516,-0.036972,-0.017831,0.119431,0.007537,0.001859,-0.011608,-0.451083,-0.460968,0.665846,0.375074,108.804180,-14.768226,-100.009172
37153,NaN,2.551745,9.052138,-3.042089,-0.043566,-0.026495,0.071862,0.005243,-0.001661,-0.010571,-0.451031,-0.460986,0.665867,0.375080,108.809207,-14.764088,-100.012746
37154,NaN,2.515214,9.006966,-3.088000,0.017402,-0.009311,0.035515,0.006588,-0.004246,-0.008317,-0.450970,-0.460997,0.665899,0.375081,108.815649,-14.760512,-100.017886
37155,NaN,2.526987,8.987100,-3.131334,0.060891,-0.030459,0.033847,0.005242,-0.001662,-0.010570,-0.450919,-0.461016,0.665918,0.375086,108.820567,-14.756380,-100.021178
37156,NaN,2.526172,8.987241,-3.131585,0.060537,-0.030101,0.033850,0.000574,0.002517,-0.007848,-0.450896,-0.461025,0.665925,0.375090,108.822619,-14.754306,-100.022613
37157,NaN,2.514758,8.965934,-3.180622,0.114272,-0.029830,0.026743,0.001691,0.003749,-0.007550,-0.450872,-0.461034,0.665936,0.375088,108.825390,-14.752683,-100.024089
37158,NaN,2.496648,9.018249,-3.126166,0.051370,0.007371,0.053025,-0.007074,0.006586,-0.001465,-0.450892,-0.461012,0.665935,0.375094,108.822790,-14.754823,-100.024463
37159,NaN,2.549905,9.011673,-3.134258,0.052316,-0.045872,0.063091,-0.006044,0.001471,-0.005402,-0.450887,-0.460991,0.665938,0.375119,108.820843,-14.754201,-100.027214
37160,NaN,2.560219,9.033480,-3.084647,-0.002167,-0.045397,0.070200,-0.005986,0.002526,-0.007036,-0.450881,-0.460983,0.665935,0.375143,108.819174,-14.752570,-100.028800
37161,NaN,2.534953,9.010120,-3.080118,0.004739,-0.028105,0.040970,-0.011143,0.001006,-0.005604,-0.450885,-0.460951,0.665930,0.375187,108.814581,-14.751663,-100.031940
37162,NaN,2.535799,9.032835,-3.089026,0.007516,-0.023207,0.064755,-0.012662,0.000423,-0.002956,-0.450894,-0.460909,0.665928,0.375229,108.809586,-14.751856,-100.035486
37163,NaN,2.540494,9.001079,-3.099506,0.025964,-0.038134,0.040147,-0.005930,0.003582,-0.008668,-0.450890,-0.460907,0.665919,0.375254,108.807494,-14.749725,-100.036133
37164,NaN,2.544524,9.032921,-3.028127,-0.050408,-0.026862,0.048071,-0.013236,0.005942,-0.003596,-0.450918,-0.460877,0.665902,0.375287,108.801351,-14.750591,-100.036460
37165,NaN,2.538079,9.043287,-3.005564,-0.072591,-0.015676,0.048894,-0.009598,0.006879,-0.002379,-0.450944,-0.460848,0.665894,0.375304,108.796898,-14.752564,-100.036914
37166,NaN,2.545353,9.056059,-3.035766,-0.047927,-0.021554,0.071854,-0.011604,0.008637,-0.009508,-0.450966,-0.460847,0.665861,0.375339,108.791018,-14.750721,-100.034601
37167,NaN,2.553125,9.033468,-2.965866,-0.108681,-0.030092,0.031378,-0.005701,-0.000235,-0.006713,-0.450948,-0.460829,0.665869,0.375369,108.790037,-14.748904,-100.038419
37168,NaN,2.582428,9.025395,-2.980512,-0.097504,-0.061936,0.036008,-0.004297,-0.001762,-0.006094,-0.450925,-0.460813,0.665880,0.375395,108.789994,-14.746994,-100.042592
37169,NaN,2.518711,9.033310,-3.030536,-0.041758,-0.003521,0.042615,-0.002549,-0.004995,-0.006789,-0.450888,-0.460798,0.665900,0.375423,108.791297,-14.744227,-100.048090
37170,NaN,2.548960,9.047348,-3.055802,-0.027456,-0.030829,0.071033,0.003182,-0.008993,-0.007580,-0.450821,-0.460791,0.665938,0.375444,108.796499,-14.740175,-100.056034
37171,NaN,2.530748,9.035961,-3.084020,0.004377,-0.019821,0.064764,0.003525,-0.010698,-0.008893,-0.450744,-0.460786,0.665980,0.375469,108.802422,-14.735091,-100.064715
37172,NaN,2.557182,8.983145,-3.079866,0.009294,-0.060758,0.021837,0.009224,-0.002423,-0.010665,-0.450679,-0.460815,0.666008,0.375462,108.809997,-14.730578,-100.068384
37173,NaN,2.540050,8.994005,-3.118138,0.044348,-0.045198,0.039356,0.005123,0.004271,-0.015785,-0.450638,-0.460862,0.666001,0.375465,108.813826,-14.724717,-100.067297
37174,NaN,2.520599,8.960353,-3.136417,0.073117,-0.038757,0.009309,0.010053,0.001570,-0.010684,-0.450584,-0.460900,0.666022,0.375446,108.821306,-14.720931,-100.068722
37175,NaN,2.537871,8.994235,-3.119248,0.043608,-0.044468,0.039362,0.002543,0.003508,-0.015068,-0.450546,-0.460940,0.666014,0.375457,108.824191,-14.715156,-100.068164
37176,NaN,2.500532,9.012789,-3.082930,0.009859,-0.001093,0.035530,0.002086,0.003101,-0.010489,-0.450516,-0.460962,0.666017,0.375460,108.826897,-14.711759,-100.068767
37177,NaN,2.508413,9.047626,-3.124146,0.037775,-0.002388,0.082287,-0.002129,0.007681,-0.012344,-0.450513,-0.460985,0.665996,0.375474,108.825670,-14.708637,-100.066472
37178,NaN,2.537786,9.039616,-3.138648,0.048930,-0.034245,0.086937,-0.006681,0.005929,-0.004405,-0.450524,-0.460972,0.665990,0.375487,108.823245,-14.709062,-100.066652
37179,NaN,2.436168,9.107136,-3.059927,-0.026576,0.088936,0.098386,-0.006626,0.006984,-0.006037,-0.450538,-0.460971,0.665975,0.375497,108.820603,-14.708862,-100.065202
37180,NaN,2.540055,9.170644,-3.085070,-0.037178,0.006479,0.190753,-0.011010,0.008398,-0.002995,-0.450571,-0.460949,0.665958,0.375516,108.815415,-14.710508,-100.064267
37181,NaN,2.484176,9.133302,-3.055244,-0.044978,0.051390,0.133075,-0.007260,0.011448,-0.005042,-0.450598,-0.460950,0.665938,0.375516,108.812288,-14.711547,-100.061165
37182,NaN,2.559812,9.106259,-3.046696,-0.057705,-0.027839,0.124859,-0.009494,0.008981,-0.005640,-0.450624,-0.460941,0.665917,0.375534,108.807757,-14.711866,-100.059398
37183,NaN,2.612254,8.956573,-3.015734,-0.053883,-0.119217,-0.008525,-0.012844,0.005281,-0.006536,-0.450641,-0.460925,0.665896,0.375570,108.802386,-14.710895,-100.059280
37184,NaN,2.599869,8.913393,-3.053726,-0.003226,-0.123609,-0.039364,-0.007688,0.006805,-0.007965,-0.450651,-0.460924,0.665878,0.375592,108.799087,-14.709551,-100.058290
37185,NaN,2.574302,8.890015,-3.049451,0.003748,-0.106347,-0.068601,-0.003729,0.000751,-0.013931,-0.450622,-0.460935,0.665868,0.375630,108.798268,-14.704169,-100.059877
37186,NaN,2.581488,8.925006,-3.090900,0.031504,-0.107696,-0.021830,0.005330,-0.004832,-0.019694,-0.450541,-0.460980,0.665874,0.375662,108.803516,-14.694315,-100.063173
37187,NaN,2.545263,8.988172,-3.075069,0.003965,-0.055186,0.021874,0.004132,-0.012414,-0.024229,-0.450429,-0.461027,0.665884,0.375722,108.809275,-14.680594,-100.069625
37188,NaN,2.539320,9.065306,-3.084785,-0.008913,-0.030348,0.094018,0.013297,-0.015888,-0.033250,-0.450267,-0.461114,0.665898,0.375784,108.819999,-14.661344,-100.076527
37189,NaN,2.512177,9.064251,-3.092421,0.001054,-0.008574,0.088558,0.007131,-0.016542,-0.035376,-0.450114,-0.461199,0.665896,0.375868,108.827572,-14.640754,-100.082839
37190,NaN,2.520109,9.108645,-3.054554,-0.050318,-0.003427,0.119388,0.010156,-0.015377,-0.040658,-0.449947,-0.461305,0.665885,0.375955,108.836060,-14.617579,-100.088031
37191,NaN,2.595116,9.148924,-3.078125,-0.053811,-0.068976,0.182543,0.004225,-0.019850,-0.040830,-0.449777,-0.461391,0.665875,0.376071,108.842162,-14.593471,-100.095803
37192,NaN,2.496492,9.143471,-3.103756,-0.012598,0.017017,0.160696,-0.003590,-0.015171,-0.045520,-0.449633,-0.461482,0.665828,0.376215,108.842505,-14.567697,-100.099945
37193,NaN,2.498179,9.134930,-3.124881,0.008941,0.006571,0.159906,-0.010929,-0.018123,-0.046306,-0.449500,-0.461560,0.665766,0.376387,108.838900,-14.541022,-100.104453
37194,NaN,2.533970,9.063954,-3.161944,0.057575,-0.056052,0.115440,-0.018373,-0.023188,-0.043830,-0.449367,-0.461598,0.665712,0.376594,108.831978,-14.514682,-100.113410
37195,NaN,2.522593,8.932255,-3.100734,0.038490,-0.083043,-0.027248,-0.023328,-0.020510,-0.048906,-0.449246,-0.461652,0.665630,0.376819,108.821932,-14.486014,-100.119194
37196,NaN,2.580311,8.841333,-3.120573,0.073611,-0.171646,-0.090019,-0.034201,-0.035643,-0.051542,-0.449093,-0.461657,0.665556,0.377125,108.807309,-14.453193,-100.133663
37197,NaN,2.679851,8.808661,-3.126300,0.072188,-0.283125,-0.093505,-0.035694,-0.044729,-0.063848,-0.448890,-0.461689,0.665470,0.377479,108.793068,-14.411848,-100.150069
37198,NaN,2.665786,8.821629,-3.102721,0.049959,-0.271944,-0.092709,-0.043760,-0.053840,-0.075320,-0.448655,-0.461716,0.665364,0.377912,108.774359,-14.362779,-100.170212
37199,NaN,2.576046,8.826306,-2.986005,-0.045181,-0.183766,-0.147280,-0.039225,-0.051046,-0.084834,-0.448403,-0.461800,0.665233,0.378339,108.757627,-14.309015,-100.185609
37200,NaN,2.492670,8.901118,-3.011149,-0.026860,-0.094692,-0.091544,-0.033628,-0.048068,-0.092420,-0.448130,-0.461918,0.665094,0.378763,108.743092,-14.251743,-100.199290
37201,NaN,2.384128,9.037171,-2.961402,-0.092962,0.042245,-0.008913,-0.018534,-0.055086,-0.092777,-0.447803,-0.462073,0.664989,0.379143,108.738567,-14.192761,-100.214521
37202,NaN,2.424201,9.110140,-2.978870,-0.104793,0.013506,0.073358,-0.006776,-0.047176,-0.090783,-0.447474,-0.462247,0.664902,0.379473,108.739347,-14.136543,-100.228018
37203,NaN,2.368572,9.130902,-3.002481,-0.081368,0.061171,0.086202,0.015495,-0.026627,-0.092346,-0.447166,-0.462541,0.664794,0.379667,108.750812,-14.082765,-100.226044
37204,NaN,2.350592,9.155599,-3.073664,-0.021360,0.070399,0.126743,0.022110,-0.020254,-0.088926,-0.446863,-0.462825,0.664706,0.379833,108.764540,-14.032511,-100.224811
37205,NaN,2.299896,9.098662,-3.090515,0.014605,0.093534,0.067469,0.030542,-0.026187,-0.076133,-0.446549,-0.463096,0.664665,0.379942,108.785373,-13.987597,-100.226328
37206,NaN,2.389958,9.030186,-3.061262,-0.014822,-0.016221,0.017216,0.041487,-0.026506,-0.081597,-0.446194,-0.463386,0.664644,0.380042,108.811376,-13.940165,-100.229946
37207,NaN,2.415981,9.054196,-3.010777,-0.079715,-0.036954,0.029694,0.047205,-0.030492,-0.082360,-0.445812,-0.463683,0.664641,0.380133,108.841167,-13.891696,-100.235574
37208,NaN,2.430188,9.034525,-2.999418,-0.093576,-0.062549,0.011379,0.039342,-0.040276,-0.082735,-0.445414,-0.463946,0.664644,0.380275,108.867715,-13.841093,-100.246616
37209,NaN,2.365641,8.968770,-3.156793,0.078913,-0.041631,-0.015113,0.032252,-0.047111,-0.081513,-0.445013,-0.464176,0.664651,0.380452,108.891170,-13.789998,-100.261634
37210,NaN,2.349078,8.741136,-3.253181,0.230721,-0.106366,-0.197894,0.033174,-0.054367,-0.082128,-0.444584,-0.464395,0.664674,0.380645,108.916052,-13.737100,-100.280607
37211,NaN,2.350853,8.672028,-3.472171,0.451065,-0.156244,-0.191945,0.028023,-0.059179,-0.089704,-0.444137,-0.464620,0.664681,0.380882,108.938271,-13.679311,-100.300740
37212,NaN,2.277665,8.701883,-3.535968,0.510045,-0.093454,-0.161537,0.031142,-0.068228,-0.097160,-0.443637,-0.464858,0.664695,0.381147,108.963083,-13.615672,-100.324509
37213,NaN,2.215308,9.316030,-3.252633,0.075203,0.152762,0.299020,0.039750,-0.056654,-0.107429,-0.443137,-0.465172,0.664677,0.381378,108.990842,-13.548735,-100.339777
37214,NaN,2.431257,9.805519,-2.633109,-0.689568,0.129818,0.603651,0.012128,-0.030334,-0.097321,-0.442806,-0.465441,0.664571,0.381619,108.999750,-13.492058,-100.342338
37215,NaN,2.450913,9.322840,-2.876223,-0.330448,-0.054016,0.241310,-0.007360,-0.034253,-0.078916,-0.442544,-0.465598,0.664479,0.381891,108.998842,-13.444737,-100.350560
37216,NaN,2.257088,8.856803,-3.273353,0.207803,-0.042908,-0.106648,-0.014225,-0.051303,-0.079903,-0.442239,-0.465710,0.664409,0.382229,108.996131,-13.393585,-100.368136
37217,NaN,1.994862,8.695657,-3.413220,0.429493,0.141532,-0.271226,-0.010871,-0.066262,-0.082155,-0.441872,-0.465809,0.664374,0.382595,108.997173,-13.338541,-100.393560
37218,NaN,1.802043,8.756795,-3.411487,0.442812,0.333257,-0.259683,-0.015953,-0.085509,-0.085418,-0.441446,-0.465870,0.664363,0.383030,108.997577,-13.278022,-100.429114
37219,NaN,1.873861,8.831806,-3.364301,0.363268,0.278919,-0.188712,-0.031006,-0.111746,-0.083797,-0.440972,-0.465842,0.664385,0.383572,108.992760,-13.213602,-100.479530
37220,NaN,1.926815,8.981291,-3.271963,0.224345,0.266297,-0.067910,-0.045525,-0.128084,-0.087380,-0.440470,-0.465763,0.664406,0.384209,108.981456,-13.144089,-100.538391
37221,NaN,2.106288,9.135912,-3.281585,0.159136,0.123056,0.118559,-0.072022,-0.140102,-0.079915,-0.440003,-0.465577,0.664420,0.384944,108.956773,-13.076510,-100.605331
37222,NaN,2.161936,9.160096,-3.349020,0.209689,0.057222,0.174805,-0.104522,-0.140101,-0.066150,-0.439638,-0.465273,0.664402,0.385757,108.913965,-13.016320,-100.674961
37223,NaN,2.009549,8.999886,-3.418222,0.354352,0.140927,0.014572,-0.143196,-0.138783,-0.057622,-0.439384,-0.464858,0.664327,0.386676,108.849170,-12.961168,-100.745483
37224,NaN,2.119451,9.106720,-3.416853,0.314217,0.052680,0.137075,-0.175130,-0.124709,-0.055461,-0.439254,-0.464393,0.664163,0.387663,108.764335,-12.909771,-100.808681
37225,NaN,2.116337,9.037549,-3.394081,0.326456,0.028444,0.064991,-0.202293,-0.107282,-0.039543,-0.439276,-0.463848,0.663944,0.388665,108.662446,-12.870421,-100.865218
37226,NaN,2.084143,9.146596,-3.208297,0.143979,0.098909,0.100258,-0.220600,-0.081997,-0.032001,-0.439438,-0.463286,0.663650,0.389652,108.547195,-12.839789,-100.909190
37227,NaN,2.308473,9.248487,-3.026980,-0.077380,-0.076950,0.188024,-0.231771,-0.065340,-0.019808,-0.439704,-0.462691,0.663326,0.390609,108.424018,-12.819000,-100.946176
37228,NaN,2.250755,9.301003,-2.904498,-0.176514,-0.000855,0.186286,-0.230090,-0.043589,-0.012952,-0.440051,-0.462119,0.662972,0.391496,108.299357,-12.805841,-100.972381
37229,NaN,2.116782,9.181121,-2.812117,-0.186861,0.100673,0.017707,-0.220627,-0.038104,0.002338,-0.440424,-0.461527,0.662659,0.392303,108.180103,-12.802143,-100.998327
37230,NaN,2.211752,9.262871,-2.799120,-0.219694,0.029305,0.110948,-0.203548,-0.036550,0.011159,-0.440780,-0.460946,0.662395,0.393032,108.070763,-12.803473,-101.025063
37231,NaN,2.251732,9.298726,-2.646208,-0.363695,0.015370,0.107317,-0.192029,-0.040223,0.016954,-0.441108,-0.460364,0.662176,0.393717,107.968746,-12.807459,-101.054865
37232,NaN,2.299040,9.155718,-2.663555,-0.302539,-0.072018,-0.009089,-0.175829,-0.049051,0.021545,-0.441377,-0.459784,0.662017,0.394358,107.877256,-12.812339,-101.090464
37233,NaN,2.307515,9.285260,-2.728512,-0.262477,-0.054972,0.132840,-0.153163,-0.065173,0.022573,-0.441543,-0.459219,0.661940,0.394959,107.800825,-12.815102,-101.135220
37234,NaN,2.378524,9.272500,-2.689680,-0.297258,-0.123273,0.125493,-0.139282,-0.063079,0.023983,-0.441687,-0.458684,0.661889,0.395506,107.732115,-12.818955,-101.179093
37235,NaN,2.248679,9.260804,-2.654848,-0.292086,0.001165,0.075787,-0.117811,-0.049361,0.026976,-0.441832,-0.458213,0.661857,0.395943,107.674151,-12.826981,-101.215778
37236,NaN,2.410013,9.248000,-2.676715,-0.289624,-0.159289,0.106446,-0.099329,-0.038965,0.024580,-0.441965,-0.457811,0.661832,0.396301,107.625367,-12.835435,-101.246247
37237,NaN,2.452910,9.285528,-2.645707,-0.329629,-0.186137,0.141923,-0.071165,-0.022924,0.023329,-0.442084,-0.457507,0.661825,0.396531,107.590700,-12.846112,-101.267464
37238,NaN,2.366570,9.291841,-2.694080,-0.263189,-0.106556,0.143035,-0.058246,-0.000090,0.022807,-0.442247,-0.457279,0.661792,0.396668,107.560549,-12.860362,-101.275831
37239,NaN,2.339476,9.299627,-2.673320,-0.274897,-0.073885,0.138284,-0.037645,0.019850,0.028039,-0.442440,-0.457118,0.661768,0.396678,107.539940,-12.881025,-101.273902
37240,NaN,2.313304,9.245755,-2.737485,-0.191861,-0.067998,0.101331,-0.024785,0.020748,0.029048,-0.442608,-0.456985,0.661769,0.396643,107.526605,-12.902288,-101.271686
37241,NaN,2.328044,9.182267,-2.760048,-0.154679,-0.098538,0.052303,-0.015617,0.020634,0.028937,-0.442755,-0.456871,0.661788,0.396577,107.518548,-12.923577,-101.269465
37242,NaN,2.320358,9.267779,-2.742933,-0.189425,-0.062595,0.125102,-0.007119,0.022838,0.033067,-0.442898,-0.456767,0.661829,0.396469,107.515229,-12.947396,-101.266781
37243,NaN,2.230750,9.326793,-2.792697,-0.138618,0.037050,0.174498,-0.008091,0.029002,0.035409,-0.443068,-0.456666,0.661859,0.396345,107.510684,-12.973665,-101.261008
37244,NaN,2.299902,9.196592,-2.910340,-0.005800,-0.073934,0.103533,-0.005710,0.020240,0.035263,-0.443203,-0.456553,0.661914,0.396234,107.508583,-12.998236,-101.260166
37245,NaN,2.370962,9.262889,-2.999987,0.050780,-0.130555,0.207436,-0.020097,0.016548,0.040140,-0.443369,-0.456384,0.661959,0.396167,107.498914,-13.024943,-101.262209
37246,NaN,2.220755,9.162898,-3.053179,0.158182,-0.016221,0.096252,-0.031028,0.020944,0.039400,-0.443572,-0.456203,0.661970,0.396129,107.482380,-13.051895,-101.261695
37247,NaN,2.249807,9.210239,-3.061936,0.153551,-0.027996,0.149301,-0.047830,0.024927,0.046055,-0.443841,-0.455970,0.661955,0.396121,107.455993,-13.083278,-101.260065
37248,NaN,2.302946,9.237363,-3.053712,0.135355,-0.065740,0.184059,-0.068689,0.028515,0.054532,-0.444185,-0.455669,0.661910,0.396157,107.417517,-13.119801,-101.257943
37249,NaN,2.272592,9.209520,-2.989376,0.095669,-0.031381,0.132470,-0.086980,0.032914,0.062264,-0.444601,-0.455311,0.661836,0.396225,107.368318,-13.161413,-101.254637
37250,NaN,2.362459,9.259229,-2.922420,0.012837,-0.090029,0.179649,-0.100650,0.031065,0.070402,-0.445057,-0.454892,0.661758,0.396325,107.311819,-13.207047,-101.253802
37251,NaN,2.364158,9.292424,-2.899010,-0.006246,-0.074121,0.204153,-0.118447,0.026794,0.069681,-0.445539,-0.454427,0.661652,0.396494,107.245652,-13.251670,-101.255147
37252,NaN,2.382494,9.231275,-2.911562,0.030924,-0.104733,0.155159,-0.142559,0.020685,0.068626,-0.446053,-0.453900,0.661509,0.396760,107.166384,-13.294571,-101.259729
37253,NaN,2.303925,9.072743,-2.909729,0.097708,-0.068317,-0.010900,-0.143731,0.021527,0.065226,-0.446565,-0.453382,0.661354,0.397034,107.086209,-13.335870,-101.263143
37254,NaN,2.198192,9.117924,-2.862412,0.076914,0.054791,-0.006922,-0.159348,0.018664,0.066725,-0.447106,-0.452819,0.661176,0.397363,106.997486,-13.377403,-101.268411
37255,NaN,2.234815,9.196678,-2.788659,-0.003710,0.054412,0.053766,-0.154805,0.012352,0.067192,-0.447616,-0.452251,0.661023,0.397690,106.912219,-13.418256,-101.277207
37256,NaN,2.346990,9.226253,-2.701215,-0.100135,-0.030137,0.082650,-0.154719,0.004275,0.061697,-0.448088,-0.451685,0.660875,0.398047,106.827812,-13.454655,-101.289600
37257,NaN,2.421887,9.129023,-2.735852,-0.043363,-0.129868,0.019439,-0.149238,0.005487,0.043385,-0.448515,-0.451195,0.660694,0.398424,106.745674,-13.481337,-101.298097
37258,NaN,2.375637,9.037904,-2.698282,-0.035022,-0.105190,-0.086651,-0.137120,0.005781,0.025670,-0.448880,-0.450790,0.660495,0.398800,106.669716,-13.498248,-101.303434
37259,NaN,2.436777,9.026816,-2.718355,-0.012679,-0.169304,-0.077088,-0.128448,0.000146,0.010301,-0.449176,-0.450444,0.660292,0.399194,106.598880,-13.505915,-101.309294
37260,NaN,2.453885,9.077538,-2.585980,-0.143135,-0.157038,-0.062539,-0.112879,0.004262,-0.006611,-0.449417,-0.450197,0.660072,0.399566,106.535735,-13.504862,-101.310023
37261,NaN,2.388630,9.089362,-2.624732,-0.087069,-0.098889,-0.055951,-0.101709,-0.005965,-0.014764,-0.449582,-0.449981,0.659879,0.399941,106.480041,-13.497780,-101.315120
37262,NaN,2.530387,9.193626,-2.616537,-0.138079,-0.208139,0.072124,-0.092109,-0.005325,-0.033379,-0.449691,-0.449850,0.659661,0.400326,106.429019,-13.480464,-101.316800
37263,NaN,2.390196,9.214488,-2.572315,-0.151389,-0.068233,0.046778,-0.076589,-0.004437,-0.045510,-0.449743,-0.449795,0.659445,0.400684,106.386325,-13.456742,-101.315928
37264,NaN,2.312460,9.121444,-2.547707,-0.132512,-0.022229,-0.064818,-0.070687,-0.003950,-0.052921,-0.449768,-0.449779,0.659224,0.401039,106.346647,-13.428908,-101.313615
37265,NaN,2.350434,9.168331,-2.628450,-0.068637,-0.062087,0.009889,-0.064348,-0.016401,-0.062508,-0.449720,-0.449783,0.659021,0.401421,106.311888,-13.393911,-101.316723
37266,NaN,2.261628,9.147168,-2.690472,0.016705,0.001836,-0.013504,-0.062222,-0.019104,-0.067819,-0.449646,-0.449804,0.658816,0.401816,106.278483,-13.355445,-101.320551
37267,NaN,2.356027,9.194360,-2.701471,0.002334,-0.084817,0.055334,-0.062304,-0.021042,-0.078495,-0.449545,-0.449857,0.658592,0.402238,106.244898,-13.310914,-101.323688
37268,NaN,2.448964,9.219307,-2.703246,-0.015127,-0.176095,0.100402,-0.070836,-0.019966,-0.087347,-0.449448,-0.449921,0.658328,0.402706,106.205936,-13.261572,-101.324838
37269,NaN,2.481434,9.258545,-2.672087,-0.055224,-0.202812,0.135882,-0.074123,-0.015017,-0.100938,-0.449349,-0.450032,0.658015,0.403204,106.163965,-13.205660,-101.320947
37270,NaN,2.419184,9.395495,-2.596035,-0.141858,-0.107973,0.228994,-0.082563,-0.008765,-0.103850,-0.449282,-0.450147,0.657664,0.403722,106.116241,-13.149020,-101.313140
37271,NaN,2.289963,9.240966,-2.667551,-0.007195,-0.046299,0.074324,-0.087327,-0.003699,-0.102454,-0.449245,-0.450256,0.657296,0.404241,106.065225,-13.094067,-101.302699
37272,NaN,2.342503,9.310222,-2.829351,0.128244,-0.109749,0.194523,-0.094534,-0.008560,-0.104324,-0.449205,-0.450345,0.656919,0.404799,106.010637,-13.037185,-101.294806
37273,NaN,2.450116,9.302077,-2.782304,0.072269,-0.220625,0.198256,-0.103798,-0.004181,-0.110417,-0.449187,-0.450442,0.656499,0.405390,105.950003,-12.977752,-101.283462
37274,NaN,2.253919,9.183227,-2.694844,0.061676,-0.065773,0.019191,-0.112608,0.004803,-0.113523,-0.449212,-0.450548,0.656034,0.405998,105.883078,-12.917885,-101.266659
37275,NaN,2.126995,9.212109,-2.833551,0.220950,0.032758,0.054741,-0.119997,-0.007487,-0.118077,-0.449204,-0.450626,0.655572,0.406666,105.813362,-12.853688,-101.256101
37276,NaN,2.376510,9.412034,-2.715380,0.025551,-0.151397,0.266195,-0.133453,-0.008000,-0.115898,-0.449229,-0.450666,0.655087,0.407376,105.736088,-12.790477,-101.246319
37277,NaN,2.305018,9.385913,-2.652454,-0.003504,-0.095662,0.209029,-0.152567,-0.010484,-0.121466,-0.449277,-0.450675,0.654556,0.408165,105.648032,-12.723920,-101.237103
37278,NaN,2.157910,9.372744,-2.694916,0.081128,0.021797,0.175325,-0.166393,-0.008279,-0.119478,-0.449366,-0.450652,0.653995,0.408990,105.551862,-12.658661,-101.227115
37279,NaN,2.146422,9.253195,-2.739638,0.166322,-0.018693,0.071963,-0.169761,-0.021267,-0.124236,-0.449411,-0.450609,0.653446,0.409865,105.455264,-12.588895,-101.223795
37280,NaN,2.228688,9.245807,-2.691844,0.120837,-0.108237,0.070210,-0.183292,-0.020782,-0.123547,-0.449489,-0.450534,0.652868,0.410783,105.350886,-12.519453,-101.220484
37281,NaN,2.227996,9.340842,-2.650076,0.075571,-0.093391,0.148423,-0.193544,-0.019480,-0.131061,-0.449578,-0.450462,0.652249,0.411746,105.240281,-12.446174,-101.215358
37282,NaN,2.161509,9.284243,-2.596480,0.065300,-0.053251,0.066779,-0.198148,-0.015135,-0.132390,-0.449688,-0.450393,0.651606,0.412717,105.126479,-12.372678,-101.207766
37283,NaN,2.135895,9.239698,-2.508923,0.012166,-0.044801,-0.003173,-0.197190,-0.007385,-0.141368,-0.449803,-0.450371,0.650928,0.413687,105.012064,-12.295481,-101.194518
37284,NaN,2.328654,9.297466,-2.424420,-0.101677,-0.220755,0.070844,-0.191354,0.003811,-0.150554,-0.449920,-0.450414,0.650214,0.414633,104.899378,-12.214703,-101.173748
37285,NaN,2.237474,9.215379,-2.368972,-0.104467,-0.163890,-0.040088,-0.185530,0.013912,-0.158149,-0.450042,-0.450515,0.649472,0.415554,104.788672,-12.131288,-101.146233
37286,NaN,2.317102,9.300739,-2.353427,-0.137723,-0.234894,0.053271,-0.169705,0.020783,-0.168731,-0.450127,-0.450700,0.648722,0.416432,104.685937,-12.042835,-101.113464
37287,NaN,2.052956,9.371604,-2.376569,-0.067091,0.014568,0.070881,-0.161474,0.008190,-0.170072,-0.450150,-0.450881,0.648014,0.417312,104.589470,-11.951889,-101.087751
37288,NaN,1.885261,9.163527,-2.382521,0.025477,0.105313,-0.159239,-0.146153,-0.006837,-0.172304,-0.450084,-0.451072,0.647366,0.418183,104.503518,-11.857374,-101.070435
37289,NaN,2.192387,9.324203,-2.306401,-0.128856,-0.158663,0.037439,-0.122057,-0.007682,-0.174087,-0.449957,-0.451320,0.646765,0.418980,104.431498,-11.761853,-101.053425
37290,NaN,1.960193,9.423039,-2.174992,-0.223699,0.087917,0.051835,-0.109447,-0.004922,-0.171809,-0.449814,-0.451595,0.646189,0.419726,104.366482,-11.667842,-101.035357
37291,NaN,1.750119,9.325615,-2.158368,-0.173704,0.251363,-0.086682,-0.085954,-0.005692,-0.166242,-0.449627,-0.451902,0.645676,0.420383,104.315247,-11.576922,-101.018582
37292,NaN,1.970145,9.422569,-2.116549,-0.270238,0.052491,0.039736,-0.069023,-0.002719,-0.152146,-0.449441,-0.452208,0.645223,0.420948,104.273802,-11.494108,-101.002291
37293,NaN,1.974752,9.426764,-2.185660,-0.202051,0.024694,0.061480,-0.053284,0.005654,-0.147742,-0.449256,-0.452553,0.644795,0.421432,104.240611,-11.415036,-100.981897
37294,NaN,1.733943,9.342854,-2.349130,0.019639,0.200162,-0.026298,-0.043570,0.010368,-0.144973,-0.449068,-0.452920,0.644382,0.421869,104.212556,-11.338029,-100.959331
37295,NaN,1.804435,9.443423,-2.515257,0.147454,0.119979,0.123337,-0.038183,0.009553,-0.129638,-0.448899,-0.453248,0.644016,0.422255,104.188161,-11.269540,-100.939414
37296,NaN,1.789676,9.352171,-2.559828,0.213942,0.094905,0.044491,-0.045955,0.010786,-0.119738,-0.448772,-0.453529,0.643654,0.422641,104.159467,-11.206590,-100.920305
37297,NaN,1.761031,9.332197,-2.472145,0.142130,0.118959,-0.001048,-0.050690,0.018664,-0.109201,-0.448703,-0.453782,0.643287,0.423000,104.127531,-11.150709,-100.898225
37298,NaN,1.911941,9.350671,-2.506031,0.146989,-0.036784,0.053811,-0.059557,0.028196,-0.099925,-0.448704,-0.454005,0.642902,0.423346,104.089737,-11.101178,-100.872156
37299,NaN,1.975864,9.525374,-2.456718,0.057434,-0.060874,0.220520,-0.067366,0.042340,-0.095033,-0.448779,-0.454225,0.642479,0.423673,104.046111,-11.056439,-100.838762
37300,NaN,1.927667,9.456726,-2.356138,-0.009947,-0.024779,0.121910,-0.075445,0.053700,-0.082557,-0.448934,-0.454410,0.642041,0.423973,103.996974,-11.020065,-100.800789
37301,NaN,2.050599,9.294141,-2.387955,0.038166,-0.192273,-0.001984,-0.073658,0.070816,-0.085540,-0.449134,-0.454645,0.641562,0.424234,103.946980,-10.984490,-100.752689
37302,NaN,2.068121,9.510023,-2.364025,-0.024178,-0.164443,0.201235,-0.075558,0.082372,-0.083345,-0.449380,-0.454894,0.641057,0.424470,103.894727,-10.951565,-100.698438
37303,NaN,1.874408,9.409878,-2.268312,-0.053035,0.005866,0.046400,-0.074025,0.086005,-0.076881,-0.449648,-0.455132,0.640563,0.424678,103.843188,-10.922810,-100.643019
37304,NaN,1.869070,9.412949,-2.259961,-0.053324,0.006287,0.046398,-0.068865,0.087827,-0.078376,-0.449906,-0.455390,0.640071,0.424869,103.794385,-10.893301,-100.586441
37305,NaN,1.944519,9.464238,-2.191389,-0.136406,-0.051898,0.093565,-0.059417,0.090953,-0.069610,-0.450172,-0.455649,0.639612,0.425002,103.750942,-10.869175,-100.529287
37306,NaN,1.791984,9.398415,-2.071604,-0.205077,0.091389,-0.025832,-0.052273,0.093710,-0.064525,-0.450440,-0.455912,0.639173,0.425095,103.711437,-10.848091,-100.471348
37307,NaN,1.742035,9.372059,-2.069754,-0.187279,0.129804,-0.060656,-0.042026,0.098691,-0.052567,-0.450726,-0.456171,0.638772,0.425116,103.677619,-10.834425,-100.412204
37308,NaN,1.697266,9.430355,-2.122551,-0.135454,0.175788,-0.001047,-0.030876,0.113828,-0.052682,-0.451035,-0.456488,0.638360,0.425068,103.648574,-10.822589,-100.344525
37309,NaN,1.756770,9.539622,-2.108409,-0.177011,0.141890,0.111251,-0.028958,0.122062,-0.043203,-0.451386,-0.456795,0.637955,0.424973,103.620021,-10.817230,-100.273438
37310,NaN,1.740161,9.484506,-2.116675,-0.151040,0.143347,0.057518,-0.019864,0.125745,-0.031515,-0.451752,-0.457094,0.637587,0.424814,103.596577,-10.818724,-100.201922
37311,NaN,1.621212,9.400936,-2.200843,-0.028610,0.229348,-0.025133,-0.020138,0.135412,-0.015145,-0.452185,-0.457361,0.637235,0.424597,103.572369,-10.830724,-100.127114
37312,NaN,1.769471,9.456410,-2.197395,-0.064434,0.100271,0.054889,-0.018249,0.136282,-0.008488,-0.452629,-0.457612,0.636899,0.424357,103.549293,-10.846402,-100.052766
37313,NaN,1.850278,9.411240,-2.181209,-0.080766,0.016528,0.023259,-0.015216,0.137342,0.000011,-0.453089,-0.457844,0.636586,0.424084,103.528042,-10.867042,-99.978916
37314,NaN,1.685084,9.284727,-2.159669,-0.044068,0.153784,-0.133626,-0.019814,0.140558,0.000193,-0.453568,-0.458073,0.636256,0.423819,103.503781,-10.888071,-99.903304
37315,NaN,1.988058,9.353569,-2.354459,0.083022,-0.145434,0.033990,-0.007033,0.127763,-0.001732,-0.453974,-0.458309,0.635978,0.423546,103.488145,-10.906403,-99.834627
37316,NaN,1.866045,9.394033,-2.376410,0.119944,-0.018243,0.054561,-0.006748,0.133408,-0.000175,-0.454400,-0.458553,0.635691,0.423257,103.472074,-10.926226,-99.762998
37317,NaN,1.696060,9.345640,-2.276926,0.065049,0.150983,-0.046676,-0.007204,0.141233,0.005665,-0.454865,-0.458793,0.635398,0.422937,103.455029,-10.950440,-99.687662
37318,NaN,1.877168,9.372670,-2.281298,0.037303,-0.015012,0.014489,-0.004589,0.138808,0.009600,-0.455323,-0.459022,0.635126,0.422605,103.439803,-10.976389,-99.614272
37319,NaN,1.849751,9.283166,-2.312158,0.092599,-0.007948,-0.069167,-0.006747,0.124430,0.012333,-0.455747,-0.459207,0.634887,0.422306,103.424939,-11.002041,-99.549353
37320,NaN,1.835023,9.388750,-2.376798,0.139937,0.026023,0.043521,-0.014140,0.109290,0.015009,-0.456145,-0.459334,0.634673,0.422060,103.407513,-11.027042,-99.493428
37321,NaN,1.852605,9.537646,-2.391459,0.125577,0.044091,0.192322,-0.022917,0.084985,0.018916,-0.456494,-0.459377,0.634505,0.421888,103.387785,-11.051087,-99.451773
37322,NaN,1.752930,9.356906,-2.306762,0.099664,0.114428,-0.018681,-0.029100,0.071862,0.033968,-0.456847,-0.459330,0.634388,0.421732,103.366304,-11.081656,-99.419639
37323,NaN,1.916477,9.349111,-2.411089,0.180171,-0.052963,0.028901,-0.029387,0.062855,0.037089,-0.457179,-0.459254,0.634298,0.421590,103.345715,-11.112872,-99.392982
37324,NaN,1.924194,9.491245,-2.291124,0.040182,-0.010473,0.138884,-0.048637,0.067269,0.034323,-0.457563,-0.459152,0.634151,0.421505,103.313513,-11.143007,-99.363474
37325,NaN,1.778058,9.305570,-2.218043,0.035489,0.102441,-0.083192,-0.051083,0.051265,0.042960,-0.457921,-0.458983,0.634056,0.421445,103.281887,-11.175943,-99.344155
37326,NaN,2.098242,9.464011,-2.217691,-0.040697,-0.167946,0.130070,-0.054462,0.044483,0.033000,-0.458243,-0.458824,0.633946,0.421434,103.248788,-11.202311,-99.327382
37327,NaN,2.096104,9.425667,-2.173334,-0.068888,-0.165813,0.083170,-0.065790,0.047300,0.034143,-0.458603,-0.458641,0.633808,0.421449,103.208916,-11.229787,-99.309095
37328,NaN,1.853194,9.368944,-2.172523,-0.012861,0.060169,-0.018429,-0.063501,0.041443,0.033432,-0.458937,-0.458453,0.633686,0.421473,103.170964,-11.255977,-99.294070
37329,NaN,1.632935,9.174690,-2.200285,0.093303,0.229806,-0.240793,-0.061528,0.029920,0.031182,-0.459226,-0.458252,0.633590,0.421521,103.135365,-11.279512,-99.285237
37330,NaN,2.098216,9.224058,-2.223934,0.038948,-0.209658,-0.097433,-0.052869,0.024361,0.020232,-0.459453,-0.458095,0.633500,0.421581,103.105046,-11.296097,-99.278147
37331,NaN,2.190662,9.454546,-1.996095,-0.235096,-0.220073,0.090248,-0.056751,0.030976,0.008394,-0.459686,-0.457979,0.633359,0.421664,103.071466,-11.307041,-99.265669
37332,NaN,1.923344,9.233561,-1.950136,-0.189723,-0.005481,-0.183311,-0.042546,0.035192,-0.005584,-0.459870,-0.457949,0.633206,0.421725,103.045178,-11.310613,-99.248987
37333,NaN,2.038344,9.339869,-1.943699,-0.230868,-0.092783,-0.060556,-0.026812,0.037960,-0.019089,-0.459999,-0.458004,0.633049,0.421760,103.027256,-11.307108,-99.228900
37334,NaN,1.943470,9.330693,-1.967053,-0.188736,-0.007232,-0.082706,-0.024720,0.049387,-0.030711,-0.460133,-0.458125,0.632844,0.421790,103.008951,-11.298473,-99.200827
37335,NaN,2.178133,9.232001,-2.043867,-0.130619,-0.268166,-0.114104,-0.001407,0.045342,-0.055496,-0.460150,-0.458370,0.632640,0.421812,103.003831,-11.275587,-99.171753
37336,NaN,2.335504,9.438030,-1.976380,-0.259839,-0.372229,0.098468,-0.000801,0.050252,-0.082611,-0.460124,-0.458711,0.632364,0.421883,102.997826,-11.238081,-99.136374
37337,NaN,2.291360,9.382481,-1.914598,-0.302232,-0.342450,0.022878,0.003234,0.052374,-0.099551,-0.460059,-0.459120,0.632053,0.421975,102.993499,-11.191505,-99.097521
37338,NaN,2.220882,9.569982,-2.128449,-0.120784,-0.265337,0.235306,0.004491,0.036155,-0.114081,-0.459909,-0.459544,0.631748,0.422135,102.991339,-11.134608,-99.066049
37339,NaN,2.013702,9.720814,-2.213060,-0.036641,-0.050957,0.358001,-0.004066,0.024162,-0.117968,-0.459733,-0.459934,0.631444,0.422357,102.985531,-11.074117,-99.040848
37340,NaN,1.701931,9.478937,-2.310797,0.152670,0.176871,0.088424,-0.018637,0.015317,-0.107056,-0.459585,-0.460238,0.631154,0.422621,102.972636,-11.018454,-99.022177
37341,NaN,1.836478,9.184499,-2.514934,0.386793,-0.050674,-0.122467,-0.018294,-0.011032,-0.109667,-0.459348,-0.460495,0.630919,0.422949,102.962754,-10.958063,-99.018113
37342,NaN,2.209068,9.495737,-2.460286,0.217634,-0.349492,0.233829,-0.042752,-0.018804,-0.122885,-0.459114,-0.460721,0.630619,0.423404,102.939373,-10.889170,-99.016812
37343,NaN,1.887922,9.495643,-2.446979,0.257698,-0.049664,0.169812,-0.073394,-0.016840,-0.130453,-0.458941,-0.460904,0.630233,0.423967,102.898057,-10.816427,-99.013395
37344,NaN,1.825797,9.516735,-2.541644,0.360658,-0.009194,0.198883,-0.088812,-0.023157,-0.128846,-0.458786,-0.461033,0.629831,0.424590,102.848625,-10.743648,-99.013890
37345,NaN,1.922572,9.448895,-2.527653,0.352271,-0.129945,0.148534,-0.103952,-0.023828,-0.125680,-0.458671,-0.461116,0.629406,0.425254,102.790690,-10.672677,-99.015194
37346,NaN,1.959373,9.437452,-2.415380,0.248696,-0.169592,0.119486,-0.123405,-0.018517,-0.129843,-0.458608,-0.461179,0.628917,0.425977,102.720953,-10.599929,-99.013074
37347,NaN,1.780214,9.291037,-2.382904,0.282780,-0.037308,-0.061309,-0.136024,-0.016068,-0.130421,-0.458581,-0.461218,0.628394,0.426734,102.643755,-10.527289,-99.009533
37348,NaN,1.913261,9.493798,-2.250718,0.106850,-0.123782,0.128728,-0.134654,-0.000887,-0.143483,-0.458569,-0.461335,0.627809,0.427482,102.565474,-10.449113,-98.995850
37349,NaN,1.940190,9.769823,-1.960126,-0.218930,-0.074657,0.336319,-0.145402,0.020927,-0.140551,-0.458657,-0.461463,0.627157,0.428206,102.478918,-10.375395,-98.970199
37350,NaN,1.522933,9.553712,-1.956097,-0.106315,0.271953,0.053100,-0.135180,0.034872,-0.131415,-0.458783,-0.461616,0.626514,0.428845,102.397033,-10.308346,-98.937929
37351,NaN,1.944107,9.503435,-1.999139,-0.108700,-0.165535,0.089441,-0.111534,0.040880,-0.121356,-0.458896,-0.461804,0.625932,0.429372,102.328380,-10.247746,-98.903542
37352,NaN,1.979004,9.723816,-1.797774,-0.339833,-0.143926,0.265250,-0.111107,0.065539,-0.127148,-0.459072,-0.462064,0.625280,0.429854,102.257389,-10.186747,-98.854542
37353,NaN,1.684704,9.676102,-1.757022,-0.316253,0.125264,0.159101,-0.093863,0.086818,-0.118988,-0.459292,-0.462383,0.624635,0.430213,102.194398,-10.132969,-98.794472
37354,NaN,1.613506,9.710266,-1.723762,-0.335747,0.195017,0.172965,-0.075047,0.093277,-0.101367,-0.459526,-0.462704,0.624056,0.430459,102.141968,-10.089654,-98.733005
37355,NaN,1.567533,9.630411,-1.810365,-0.223128,0.205710,0.106349,-0.064613,0.086599,-0.086228,-0.459748,-0.462987,0.623549,0.430652,102.096565,-10.054088,-98.677180
37356,NaN,1.766353,9.613700,-1.969545,-0.088368,-0.016177,0.157983,-0.062591,0.080178,-0.082567,-0.459952,-0.463250,0.623070,0.430846,102.053063,-10.019638,-98.625541
37357,NaN,1.912841,9.621268,-2.046217,-0.030037,-0.172588,0.206497,-0.065397,0.085322,-0.077296,-0.460190,-0.463500,0.622585,0.431023,102.007598,-9.988839,-98.571594
37358,NaN,1.796852,9.648808,-2.108981,0.050717,-0.067542,0.225680,-0.075631,0.097064,-0.077156,-0.460488,-0.463751,0.622050,0.431206,101.955141,-9.959346,-98.511066
37359,NaN,1.771324,9.555584,-2.158766,0.127887,-0.071801,0.141483,-0.072367,0.105524,-0.056591,-0.460850,-0.463964,0.621551,0.431310,101.904188,-9.942455,-98.448174
37360,NaN,1.775227,9.574822,-2.179009,0.152385,-0.077745,0.164659,-0.081954,0.108988,-0.048792,-0.461261,-0.464139,0.621041,0.431419,101.847573,-9.930163,-98.384316
37361,NaN,1.659360,9.561748,-2.122390,0.126380,0.036205,0.120476,-0.094473,0.123778,-0.031275,-0.461785,-0.464261,0.620510,0.431490,101.782712,-9.929487,-98.314085
37362,NaN,1.549490,9.681086,-2.049635,0.061395,0.174447,0.201859,-0.099019,0.139931,-0.000894,-0.462434,-0.464313,0.620002,0.431469,101.714260,-9.947533,-98.238305
37363,NaN,1.250105,9.556024,-1.996833,0.086750,0.450729,0.018742,-0.109701,0.146120,0.039640,-0.463215,-0.464228,0.619551,0.431372,101.639868,-9.989071,-98.163691
37364,NaN,1.337033,9.559353,-1.904700,-0.002673,0.383573,0.018366,-0.105687,0.153589,0.080046,-0.464095,-0.464043,0.619183,0.431151,101.567770,-10.053930,-98.089534
37365,NaN,1.089491,9.509459,-1.860374,0.010533,0.631405,-0.082375,-0.106415,0.165861,0.131196,-0.465126,-0.463723,0.618904,0.430785,101.494959,-10.148933,-98.014180
37366,NaN,1.030929,9.483945,-1.841109,0.017469,0.701953,-0.122248,-0.093880,0.174640,0.177322,-0.466253,-0.463308,0.618738,0.430252,101.429215,-10.270632,-97.939060
37367,NaN,1.208022,9.714234,-1.843275,-0.030096,0.595893,0.130514,-0.108730,0.167630,0.210787,-0.467464,-0.462739,0.618632,0.429702,101.356175,-10.410349,-97.871567
37368,NaN,1.543815,9.835685,-2.213823,0.281455,0.280449,0.378835,-0.117454,0.143133,0.239877,-0.468681,-0.462006,0.618630,0.429167,101.281077,-10.563463,-97.821226
37369,NaN,1.846762,9.554967,-2.556565,0.641693,-0.079594,0.228515,-0.158295,0.134056,0.262775,-0.470012,-0.461086,0.618614,0.428725,101.183836,-10.728455,-97.778375
37370,NaN,2.139032,9.165857,-2.492091,0.627429,-0.411988,-0.105195,-0.200869,0.141995,0.273484,-0.471487,-0.460048,0.618510,0.428369,101.061384,-10.900168,-97.731880
37371,NaN,1.849730,9.321607,-2.008891,0.193845,-0.024760,-0.101292,-0.232772,0.186790,0.277578,-0.473182,-0.459017,0.618240,0.427998,100.915637,-11.079069,-97.659699
37372,NaN,1.463362,9.794868,-1.649683,-0.154605,0.513269,0.213021,-0.246257,0.207663,0.286900,-0.474989,-0.457968,0.617910,0.427596,100.759701,-11.265176,-97.576083
37373,NaN,2.218836,9.891146,-1.584075,-0.302913,-0.165764,0.441479,-0.220292,0.138940,0.287935,-0.476525,-0.456828,0.617798,0.427268,100.626080,-11.444449,-97.531473
37374,NaN,2.173810,9.703429,-1.669596,-0.159324,-0.142654,0.268171,-0.178112,0.082906,0.284713,-0.477783,-0.455677,0.617901,0.426943,100.522769,-11.615828,-97.518360
37375,NaN,1.918611,9.493162,-1.746732,0.001369,0.078911,0.028347,-0.151227,0.060712,0.282100,-0.478904,-0.454550,0.618106,0.426591,100.437306,-11.783499,-97.517402
37376,NaN,1.853338,9.619985,-1.721173,-0.017021,0.199824,0.132216,-0.143178,0.057256,0.284918,-0.480001,-0.453425,0.618342,0.426214,100.356862,-11.952301,-97.518523
37377,NaN,2.237674,9.553440,-1.750821,-0.009907,-0.162805,0.152957,-0.135113,0.065406,0.294130,-0.481124,-0.452307,0.618594,0.425770,100.280223,-12.127230,-97.515639
37378,NaN,2.598753,9.435932,-1.773282,0.001780,-0.513616,0.120639,-0.151648,0.114550,0.281788,-0.482407,-0.451290,0.618663,0.425295,100.187768,-12.300102,-97.482891
37379,NaN,2.742096,9.303156,-1.757742,0.008829,-0.654878,0.022373,-0.158926,0.193079,0.256207,-0.483895,-0.450501,0.618468,0.424725,100.080696,-12.466508,-97.401786
37380,NaN,2.567812,9.293833,-1.671624,-0.028534,-0.455054,-0.037447,-0.184360,0.245832,0.244576,-0.485576,-0.449797,0.618063,0.424143,99.951842,-12.631344,-97.288639
37381,NaN,2.533243,9.414426,-1.569518,-0.114817,-0.359099,0.054930,-0.194676,0.321289,0.235297,-0.487493,-0.449254,0.617429,0.423442,99.806849,-12.798205,-97.130372
37382,NaN,2.395734,9.616985,-1.632178,-0.034908,-0.156534,0.230424,-0.215929,0.381179,0.253377,-0.489676,-0.448728,0.616641,0.422627,99.641729,-12.980545,-96.938677
37383,NaN,2.403606,9.636402,-1.615560,-0.021539,-0.130110,0.248627,-0.235385,0.387252,0.250507,-0.491914,-0.448173,0.615787,0.421862,99.463864,-13.161394,-96.742435
37384,NaN,2.629792,9.628239,-1.401772,-0.221742,-0.307054,0.259063,-0.245456,0.375467,0.240585,-0.494113,-0.447597,0.614915,0.421176,99.280810,-13.334818,-96.551405
37385,NaN,2.463484,9.505065,-1.460500,-0.094539,-0.156482,0.112760,-0.247169,0.329978,0.211611,-0.496113,-0.447006,0.614082,0.420666,99.101598,-13.487220,-96.383360
37386,NaN,2.348915,9.343623,-1.383413,-0.106095,-0.060654,-0.080293,-0.227588,0.248607,0.154686,-0.497697,-0.446466,0.613363,0.420418,98.942948,-13.599499,-96.256910
37387,NaN,2.310909,9.350821,-1.434451,-0.027858,-0.013958,-0.074372,-0.185669,0.154695,0.075554,-0.498733,-0.446074,0.612788,0.420446,98.819255,-13.658490,-96.177582
37388,NaN,2.461770,9.307386,-1.376052,-0.076634,-0.161412,-0.089040,-0.158091,0.081957,0.025097,-0.499376,-0.445753,0.612338,0.420678,98.720214,-13.682287,-96.136024
37389,NaN,2.497876,9.532236,-1.273606,-0.193572,-0.131433,0.120601,-0.143839,0.080385,0.014024,-0.499960,-0.445497,0.611898,0.420896,98.629306,-13.699729,-96.094304
37390,NaN,2.427202,9.653497,-1.291678,-0.168473,-0.032601,0.223262,-0.129229,0.087296,0.018960,-0.500542,-0.445277,0.611481,0.421043,98.545888,-13.720378,-96.049008
37391,NaN,2.392731,9.622270,-1.308781,-0.128711,-0.005463,0.187789,-0.139167,0.128000,0.030478,-0.501296,-0.445082,0.610967,0.421099,98.451353,-13.751052,-95.980882
37392,NaN,2.269141,9.523178,-1.207039,-0.188323,0.100732,0.048916,-0.131651,0.147811,0.049499,-0.502132,-0.444889,0.610461,0.421041,98.358700,-13.793938,-95.902823
37393,NaN,2.079364,9.685510,-1.174781,-0.204341,0.333620,0.155255,-0.133297,0.167769,0.073559,-0.503083,-0.444660,0.609954,0.420882,98.262725,-13.852112,-95.815024
37394,NaN,2.009137,9.940048,-1.257078,-0.128659,0.470908,0.394323,-0.138266,0.204531,0.127162,-0.504269,-0.444332,0.609462,0.420521,98.159684,-13.943424,-95.710186
37395,NaN,2.179327,10.121455,-1.388520,-0.014199,0.362372,0.627125,-0.178477,0.289417,0.202483,-0.505960,-0.443850,0.608838,0.419903,98.022833,-14.084207,-95.561682
37396,NaN,2.031694,10.196390,-1.180579,-0.186069,0.563526,0.634111,-0.211584,0.377483,0.269982,-0.508131,-0.443261,0.608068,0.419018,97.855210,-14.269767,-95.366700
37397,NaN,1.767184,10.131348,-1.251911,-0.053297,0.830495,0.514059,-0.211126,0.385002,0.312549,-0.510411,-0.442557,0.607369,0.418003,97.686762,-14.479624,-95.169937
37398,NaN,1.640274,10.124695,-1.478627,0.211601,0.974894,0.501910,-0.184456,0.339430,0.341356,-0.512549,-0.441735,0.606903,0.416932,97.539989,-14.701752,-95.001436
37399,NaN,1.652408,10.362739,-2.234368,0.956105,1.021508,0.824581,-0.122000,0.246322,0.288575,-0.514155,-0.441037,0.606685,0.416010,97.441176,-14.886681,-94.882873
37400,NaN,2.057990,10.359870,-2.450994,1.151309,0.647167,0.949526,-0.034590,0.174652,0.170484,-0.515102,-0.440772,0.606571,0.415284,97.400611,-14.998984,-94.797137
37401,NaN,2.215219,10.364829,-2.798584,1.489001,0.499854,1.036365,0.011321,0.230346,0.108760,-0.515989,-0.440927,0.606273,0.414453,97.376461,-15.080348,-94.673788
37402,NaN,2.005045,11.012141,-2.135860,0.785625,0.925482,1.517608,0.002960,0.358058,0.105795,-0.517274,-0.441333,0.605619,0.413374,97.327640,-15.169238,-94.474966
37403,NaN,2.544507,11.943261,-1.459744,-0.015341,0.708494,2.465121,0.015059,0.479574,0.147449,-0.518984,-0.441893,0.604765,0.411879,97.267389,-15.290528,-94.207505
37404,NaN,1.816581,12.205322,-0.959571,-0.474098,1.529218,2.460341,-0.046416,0.507018,0.247885,-0.521116,-0.442044,0.603931,0.410247,97.168822,-15.470460,-93.931020
37405,NaN,1.258900,11.601297,-1.309000,-0.012743,1.929867,1.770216,-0.022737,0.476001,0.359475,-0.523326,-0.441852,0.603468,0.408317,97.089833,-15.711261,-93.680493
37406,NaN,1.443699,11.074940,-1.651136,0.381021,1.648852,1.349778,-0.007015,0.398478,0.455794,-0.525459,-0.441248,0.603448,0.406256,97.033005,-16.001037,-93.482236
37407,NaN,1.904174,10.282944,-2.686757,1.471770,1.018967,0.835257,0.048045,0.304674,0.554711,-0.527384,-0.440295,0.603997,0.403972,97.024025,-16.340393,-93.346247
37408,NaN,1.465006,9.895408,-3.487443,2.330504,1.377599,0.429294,0.118389,0.212246,0.606731,-0.528974,-0.439180,0.605041,0.401537,97.071186,-16.702859,-93.268773
37409,NaN,2.428962,9.103125,-3.968379,2.829589,0.283825,0.007049,0.206878,0.170438,0.642189,-0.530309,-0.438103,0.606445,0.398828,97.176677,-17.082611,-93.219138
37410,NaN,3.228280,9.176642,-3.588510,2.386821,-0.378365,0.270438,0.255422,0.240037,0.633024,-0.531723,-0.437315,0.607732,0.395839,97.297340,-17.462271,-93.128055
37411,NaN,3.367204,8.299033,-2.910211,1.790028,-0.697526,-0.593672,0.255134,0.312590,0.602498,-0.533290,-0.436757,0.608752,0.392767,97.403686,-17.830077,-92.991990
37412,NaN,1.101359,7.419714,-1.821759,0.908525,1.251159,-2.250084,0.264550,0.348533,0.461975,-0.534665,-0.436717,0.609379,0.389959,97.504747,-18.120954,-92.823896
37413,NaN,-1.498105,6.682729,-2.241801,1.510402,3.514500,-3.705664,0.380678,0.186864,0.216380,-0.534810,-0.437418,0.610125,0.387803,97.696055,-18.260507,-92.733470
37414,NaN,-4.119382,7.591910,-2.396102,1.647889,6.298138,-3.651066,0.386244,-0.144485,0.012473,-0.533534,-0.438110,0.611318,0.386899,97.947350,-18.258810,-92.824853
37415,NaN,-1.714842,6.790445,-1.425133,0.648835,3.764584,-3.772100,0.376843,-0.368272,-0.109865,-0.531354,-0.438717,0.612819,0.386837,98.231786,-18.169187,-93.039532
37416,NaN,-1.517771,6.599050,-1.459922,0.675265,3.499953,-3.873270,0.440178,-0.522283,-0.340542,-0.528112,-0.439895,0.614339,0.387528,98.573787,-17.934886,-93.324920
37417,NaN,-1.952401,6.973481,-1.050791,0.223323,4.001892,-3.690578,0.388146,-0.625686,-0.601456,-0.524151,-0.441529,0.615445,0.389289,98.895451,-17.542122,-93.646119
37418,NaN,-0.580464,7.417322,-0.250937,-0.733104,2.797305,-2.953105,0.323788,-0.650725,-0.804100,-0.519847,-0.443558,0.616028,0.391823,99.175601,-17.030977,-93.960000
37419,NaN,0.480772,7.435597,-0.000438,-1.079667,1.732611,-2.646717,0.281729,-0.619877,-0.986743,-0.515356,-0.446086,0.616024,0.394881,99.417477,-16.417858,-94.234752
37420,NaN,1.005705,7.568654,-0.032480,-1.131981,1.189452,-2.356137,0.221418,-0.597446,-1.165576,-0.510695,-0.449035,0.615419,0.398519,99.612232,-15.705010,-94.475212
37421,NaN,1.663372,7.910348,-0.067417,-1.224786,0.557037,-1.841892,0.183533,-0.573844,-1.300592,-0.505898,-0.452330,0.614345,0.402548,99.774230,-14.917244,-94.685273
37422,NaN,2.400977,8.302896,-0.159354,-1.278748,-0.162820,-1.264867,0.121546,-0.542267,-1.369076,-0.501175,-0.455717,0.612880,0.406846,99.890783,-14.093641,-94.867126
37423,NaN,3.066644,8.501014,-0.131844,-1.417259,-0.875493,-0.929419,0.088357,-0.491493,-1.387274,-0.496617,-0.459156,0.611145,0.411155,99.977872,-13.264246,-95.015576
37424,NaN,3.747433,8.742235,-0.024837,-1.642503,-1.597065,-0.581182,0.055857,-0.446686,-1.350118,-0.492323,-0.462468,0.609286,0.415345,100.038976,-12.460320,-95.140188
37425,NaN,4.542285,8.918980,0.148880,-1.933571,-2.443591,-0.299983,0.025186,-0.419263,-1.260671,-0.488345,-0.465468,0.607473,0.419327,100.079234,-11.709284,-95.257121
37426,NaN,5.389637,8.987012,0.237571,-2.128161,-3.364734,-0.116331,-0.001323,-0.359214,-1.124781,-0.484877,-0.468097,0.605751,0.422901,100.098674,-11.041080,-95.352625
37427,NaN,5.906849,8.987667,0.073699,-2.031616,-3.981245,-0.030266,-0.005662,-0.278562,-0.963845,-0.481989,-0.470385,0.604182,0.425896,100.108962,-10.471577,-95.417975
37428,NaN,6.175757,9.005880,-0.090336,-1.911532,-4.336446,0.025741,-0.004882,-0.203174,-0.776917,-0.479716,-0.472262,0.602861,0.428252,100.114816,-10.015249,-95.458968
37429,NaN,8.414310,14.760762,-4.607799,1.366064,-5.797669,6.753328,0.468601,0.028477,-0.308517,-0.478020,-0.474352,0.603097,0.427506,100.377008,-9.846436,-95.414735
37430,NaN,28.052222,10.531619,-2.407158,-1.935710,-25.701902,5.656666,-0.439430,0.080960,0.295167,-0.479923,-0.472560,0.602694,0.427927,100.124553,-10.023436,-95.402904
37431,NaN,9.893116,18.822253,2.273163,-6.137515,-6.002511,9.773497,0.150779,0.376921,0.367856,-0.481476,-0.472595,0.603011,0.425691,100.181634,-10.271474,-95.228586
37432,NaN,-14.094258,9.837067,0.404539,-0.738021,15.726903,-2.906265,0.138023,0.423436,0.396095,-0.483255,-0.472610,0.603250,0.423313,100.226326,-10.540140,-95.030656
37433,NaN,-6.051082,4.512758,-4.024139,3.753237,6.592777,-5.860127,0.148852,-0.116689,0.371372,-0.483325,-0.471578,0.604755,0.422235,100.333166,-10.739984,-95.140146
37434,NaN,5.586097,10.582600,-2.453778,0.190104,-3.473069,1.897065,0.258176,0.029672,0.411986,-0.483661,-0.470995,0.606230,0.420382,100.488174,-10.977535,-95.170528
37435,NaN,5.312356,12.171319,-2.057335,-0.447828,-2.800391,3.323202,0.097117,0.283823,0.499944,-0.485329,-0.470286,0.606954,0.418202,100.524748,-11.291203,-95.064756
37436,NaN,2.057873,10.522591,-1.845003,-0.101980,0.112956,1.065747,0.084038,0.200386,0.524108,-0.486821,-0.469294,0.607905,0.416197,100.563318,-11.609740,-95.009645
37437,NaN,1.866233,8.918554,-1.118558,-0.532557,0.047842,-0.648163,-0.016916,0.083777,0.506037,-0.488154,-0.467865,0.608883,0.414812,100.557028,-11.905953,-95.019675
37438,NaN,2.463032,8.075551,-2.199502,0.623124,-0.725377,-1.140649,-0.008821,0.177287,0.452705,-0.489639,-0.466809,0.609521,0.413312,100.542995,-12.181854,-94.970124
37439,NaN,2.603331,9.365634,-2.273297,0.475236,-0.535412,0.144604,0.072017,0.233468,0.392315,-0.490980,-0.466248,0.610044,0.411579,100.566758,-12.429728,-94.881631
37440,NaN,2.561858,10.321952,-2.107435,0.159568,-0.226273,1.025682,0.033997,0.168329,0.393284,-0.492209,-0.465455,0.610648,0.410111,100.576564,-12.671237,-94.830861
37441,NaN,2.039708,9.767375,-2.336098,0.523280,0.188721,0.420092,-0.030808,0.114176,0.413409,-0.493463,-0.464328,0.611296,0.408914,100.556418,-12.918484,-94.813424
37442,NaN,1.783044,9.192929,-2.031382,0.346723,0.356453,-0.243554,-0.064798,0.040062,0.388947,-0.494517,-0.463038,0.611998,0.408052,100.525769,-13.144079,-94.836119
37443,NaN,2.498790,9.215558,-1.617332,-0.115723,-0.279413,-0.133087,-0.052277,-0.000164,0.368957,-0.495377,-0.461756,0.612777,0.407293,100.507205,-13.354307,-94.879830
37444,NaN,2.947214,9.313943,-1.557684,-0.222118,-0.653511,0.055720,-0.044699,0.000239,0.342739,-0.496165,-0.460573,0.613507,0.406573,100.492417,-13.549728,-94.920504
37445,NaN,2.897800,9.226323,-1.398388,-0.356904,-0.588679,-0.065699,-0.019033,-0.001092,0.308403,-0.496819,-0.459554,0.614213,0.405861,100.491777,-13.725770,-94.958227
37446,NaN,2.775972,9.259398,-1.361645,-0.387238,-0.432890,-0.067989,0.007692,-0.009905,0.267733,-0.497301,-0.458708,0.614899,0.405188,100.506743,-13.877876,-94.996780
37447,NaN,2.605295,9.405872,-1.299393,-0.459929,-0.203320,0.020597,0.039208,-0.036833,0.243334,-0.497578,-0.457960,0.615659,0.404540,100.543012,-14.013511,-95.048380
37448,NaN,2.490776,9.527978,-1.318811,-0.456572,-0.039621,0.112812,0.064090,-0.074604,0.220896,-0.497634,-0.457266,0.616512,0.403957,100.598428,-14.132390,-95.119668
37449,NaN,2.517270,9.477135,-1.476303,-0.305164,-0.063837,0.098668,0.093128,-0.108623,0.210930,-0.497500,-0.456605,0.617483,0.403386,100.675231,-14.242088,-95.209756
37450,NaN,2.631743,9.409030,-1.595085,-0.199868,-0.177562,0.083205,0.112059,-0.126422,0.195124,-0.497233,-0.456004,0.618500,0.402836,100.765221,-14.340755,-95.308699
37451,NaN,2.841267,9.385705,-1.636144,-0.188904,-0.370032,0.120519,0.123683,-0.125923,0.171296,-0.496894,-0.455505,0.619484,0.402307,100.861338,-14.426019,-95.404865
37452,NaN,2.911996,9.445141,-1.677436,-0.180195,-0.408802,0.202530,0.145232,-0.079004,0.147710,-0.496602,-0.455227,0.620340,0.401663,100.962520,-14.502833,-95.471365
37453,NaN,2.792678,9.545890,-1.780673,-0.100943,-0.257442,0.287676,0.162233,-0.042636,0.129931,-0.496348,-0.455119,0.621099,0.400927,101.067748,-14.573629,-95.514836
37454,NaN,2.700827,9.409268,-1.988814,0.117109,-0.201379,0.173797,0.190706,-0.012455,0.106408,-0.496075,-0.455214,0.621785,0.400092,101.184290,-14.634340,-95.538293
37455,NaN,2.855563,9.303966,-1.889622,0.004608,-0.361815,0.094771,0.203490,0.023294,0.090233,-0.495852,-0.455462,0.622371,0.399174,101.302474,-14.690028,-95.539197
37456,NaN,2.815998,9.240354,-1.770846,-0.116192,-0.324566,0.002149,0.218548,0.047765,0.071348,-0.495631,-0.455854,0.622882,0.398202,101.425157,-14.737749,-95.523859
37457,NaN,2.826953,9.227393,-1.730651,-0.173731,-0.327690,-0.015035,0.225259,0.058480,0.050771,-0.495388,-0.456348,0.623332,0.397233,101.549489,-14.775296,-95.499920
37458,NaN,2.828266,9.152503,-1.727873,-0.183056,-0.341587,-0.086295,0.227884,0.058190,0.033166,-0.495101,-0.456902,0.623748,0.396301,101.674848,-14.802853,-95.474185
37459,NaN,2.952696,9.125148,-1.718362,-0.218683,-0.462941,-0.082460,0.231451,0.067349,0.008325,-0.494785,-0.457560,0.624089,0.395397,101.800123,-14.817728,-95.440143
37460,NaN,2.959873,9.060986,-1.603983,-0.339359,-0.479202,-0.164358,0.236479,0.089845,-0.014073,-0.494483,-0.458344,0.624333,0.394481,101.924256,-14.822635,-95.390414
37461,NaN,3.061541,9.020979,-1.402474,-0.557396,-0.578882,-0.217261,0.233032,0.109024,-0.039494,-0.494198,-0.459235,0.624464,0.393594,102.042760,-14.815815,-95.326386
37462,NaN,3.105819,8.969614,-1.327857,-0.642504,-0.633893,-0.270746,0.221780,0.115101,-0.061731,-0.493912,-0.460180,0.624505,0.392783,102.153236,-14.797253,-95.256127
37463,NaN,3.030322,8.917485,-1.355097,-0.616451,-0.579498,-0.335092,0.221531,0.107177,-0.078908,-0.493569,-0.461161,0.624525,0.392032,102.264193,-14.768390,-95.188207
37464,NaN,2.854710,8.970543,-1.625937,-0.363786,-0.410695,-0.275254,0.218844,0.085720,-0.100406,-0.493121,-0.462160,0.624542,0.391392,102.376128,-14.724851,-95.130010
37465,NaN,2.835642,9.011895,-1.828419,-0.189693,-0.394811,-0.199866,0.204263,0.071040,-0.113444,-0.492635,-0.463135,0.624535,0.390862,102.481446,-14.672467,-95.078497
37466,NaN,2.865185,8.975175,-1.870563,-0.160475,-0.442739,-0.218926,0.189191,0.071626,-0.131011,-0.492150,-0.464127,0.624456,0.390421,102.577526,-14.610264,-95.024380
37467,NaN,3.024918,8.839060,-1.960133,-0.074960,-0.645631,-0.289099,0.180245,0.082228,-0.155535,-0.491672,-0.465194,0.624276,0.390042,102.666157,-14.535922,-94.960803
37468,NaN,2.513554,9.055230,-2.703446,0.635665,-0.129472,-0.055490,0.196230,0.090424,-0.182072,-0.491128,-0.466399,0.624043,0.389660,102.761984,-14.447720,-94.889015
37469,NaN,2.089173,9.403719,-2.961116,0.834091,0.350737,0.224444,0.222835,0.096209,-0.196924,-0.490512,-0.467725,0.623813,0.389217,102.871798,-14.352248,-94.811729
37470,NaN,1.998870,9.683849,-2.918598,0.722494,0.498530,0.459608,0.219333,0.083194,-0.179315,-0.489895,-0.468961,0.623647,0.388771,102.982136,-14.264917,-94.744193
37471,NaN,2.189281,9.472887,-2.468175,0.290589,0.258962,0.210730,0.201575,0.055710,-0.165700,-0.489260,-0.470057,0.623545,0.388410,103.086684,-14.181919,-94.694084
37472,NaN,2.346453,9.321808,-2.078401,-0.089097,0.064866,0.021412,0.177581,0.018532,-0.160877,-0.488574,-0.471007,0.623497,0.388200,103.182920,-14.096695,-94.665954
37473,NaN,2.258950,9.254071,-2.296410,0.127231,0.113779,-0.015493,0.169837,-0.013739,-0.153216,-0.487820,-0.471850,0.623531,0.388070,103.279471,-14.011716,-94.657208
37474,NaN,2.161380,9.310976,-2.452929,0.257902,0.205469,0.050068,0.171855,-0.032819,-0.154171,-0.486999,-0.472664,0.623612,0.387981,103.379782,-13.923541,-94.659216
37475,NaN,2.289607,9.410854,-2.389575,0.147384,0.094590,0.161572,0.161250,-0.031989,-0.148442,-0.486217,-0.473435,0.623683,0.387908,103.474040,-13.838822,-94.661309
37476,NaN,2.270257,9.457307,-2.200716,-0.061872,0.116416,0.158293,0.156679,-0.039041,-0.137597,-0.485443,-0.474146,0.623787,0.387841,103.566974,-13.759040,-94.668868
37477,NaN,2.250129,9.369756,-2.242845,-0.016956,0.101195,0.080502,0.149419,-0.050163,-0.121631,-0.484683,-0.474769,0.623942,0.387782,103.657736,-13.686791,-94.684819
37478,NaN,2.252573,9.425457,-2.244322,-0.043874,0.101236,0.134076,0.145058,-0.055243,-0.123121,-0.483913,-0.475375,0.624096,0.387753,103.746597,-13.612846,-94.703415
37479,NaN,2.212606,9.523515,-2.419786,0.092789,0.149008,0.257937,0.144179,-0.035452,-0.115184,-0.483223,-0.475992,0.624218,0.387659,103.832496,-13.546143,-94.711611
37480,NaN,2.207988,9.609780,-2.407577,0.047154,0.165065,0.335712,0.140883,-0.007775,-0.109588,-0.482636,-0.476637,0.624281,0.387496,103.912968,-13.486193,-94.704727
37481,NaN,2.362910,9.503585,-2.339811,-0.022152,-0.017738,0.255846,0.145707,0.016905,-0.091821,-0.482151,-0.477285,0.624335,0.387216,103.993482,-13.439690,-94.686106
37482,NaN,2.370321,9.416657,-2.230324,-0.124057,-0.049957,0.149656,0.151031,0.037618,-0.081680,-0.481735,-0.477955,0.624373,0.386846,104.074644,-13.401578,-94.657097
37483,NaN,2.309093,9.349638,-2.355078,0.002645,-0.014627,0.101636,0.157178,0.046355,-0.071417,-0.481352,-0.478623,0.624426,0.386409,104.158508,-13.370580,-94.624456
37484,NaN,2.157154,9.412655,-2.484503,0.111648,0.141742,0.156845,0.152298,0.045537,-0.056080,-0.481007,-0.479231,0.624507,0.385954,104.240212,-13.347883,-94.594518
37485,NaN,2.106884,9.545978,-2.485220,0.071933,0.220950,0.271308,0.149174,0.057595,-0.041480,-0.480736,-0.479808,0.624589,0.385443,104.319019,-13.335184,-94.559726
37486,NaN,2.094600,9.646826,-2.569675,0.118922,0.255248,0.384005,0.129496,0.065276,-0.026905,-0.480563,-0.480306,0.624648,0.384941,104.386043,-13.331563,-94.522728
37487,NaN,2.189828,9.627720,-2.617175,0.151091,0.158557,0.399558,0.112734,0.061395,-0.008358,-0.480455,-0.480699,0.624729,0.384455,104.444589,-13.337863,-94.490596
37488,NaN,2.401333,9.480669,-2.648539,0.190092,-0.080412,0.317546,0.101482,0.074336,-0.003023,-0.480423,-0.481073,0.624769,0.383961,104.495172,-13.348861,-94.451937
37489,NaN,2.401304,9.409757,-2.629637,0.180826,-0.094412,0.246297,0.085214,0.091857,-0.005692,-0.480480,-0.481450,0.624730,0.383481,104.534022,-13.361067,-94.402842
37490,NaN,2.396848,9.320379,-2.659667,0.225747,-0.109762,0.168553,0.067337,0.100745,-0.013724,-0.480592,-0.481825,0.624615,0.383056,104.561184,-13.369982,-94.347558
37491,NaN,2.426412,9.199625,-2.631930,0.221391,-0.165751,0.054995,0.048768,0.093541,-0.023793,-0.480707,-0.482174,0.624458,0.382729,104.578301,-13.372441,-94.294831
37492,NaN,2.398223,9.223908,-2.570359,0.156001,-0.131690,0.056305,0.032784,0.082710,-0.037606,-0.480800,-0.482506,0.624263,0.382512,104.587222,-13.365546,-94.246289
37493,NaN,2.331875,9.212376,-2.537946,0.131016,-0.071360,0.022170,0.021485,0.075250,-0.051180,-0.480872,-0.482839,0.624031,0.382380,104.590192,-13.350198,-94.199928
37494,NaN,2.412635,9.205838,-2.413372,0.005482,-0.152577,0.004100,0.018320,0.066978,-0.055535,-0.480916,-0.483162,0.623802,0.382289,104.592305,-13.331098,-94.157697
37495,NaN,2.261932,9.339908,-2.416873,-0.012522,0.022472,0.096442,0.016755,0.063883,-0.059220,-0.480948,-0.483487,0.623569,0.382218,104.593815,-13.309657,-94.116625
37496,NaN,2.082576,9.291262,-2.560094,0.149769,0.179344,0.044501,0.010869,0.044990,-0.058588,-0.480935,-0.483760,0.623372,0.382211,104.594468,-13.285691,-94.086475
37497,NaN,2.199177,9.252328,-2.519453,0.110913,0.053215,0.024714,0.007504,0.023829,-0.053967,-0.480875,-0.483969,0.623230,0.382253,104.596130,-13.261379,-94.069009
37498,NaN,2.417762,9.190208,-2.395880,-0.009809,-0.176972,-0.013998,0.004948,0.020539,-0.059595,-0.480799,-0.484184,0.623077,0.382326,104.596576,-13.233326,-94.052642
37499,NaN,2.422555,9.206202,-2.425479,0.014448,-0.183008,0.009338,0.004985,0.022626,-0.062617,-0.480724,-0.484412,0.622912,0.382399,104.596676,-13.204045,-94.034582
37500,NaN,2.378447,9.220159,-2.532924,0.117560,-0.143356,0.038692,0.015924,0.028681,-0.072269,-0.480622,-0.484709,0.622730,0.382449,104.601940,-13.170142,-94.011702
37501,NaN,2.272801,9.218333,-2.548162,0.138953,-0.047200,0.016599,0.013492,0.039628,-0.079155,-0.480548,-0.485041,0.622501,0.382494,104.604176,-13.134152,-93.981508
37502,NaN,2.235638,9.270934,-2.553002,0.133697,-0.004839,0.058899,-0.002484,0.039120,-0.078980,-0.480510,-0.485334,0.622242,0.382591,104.597348,-13.098036,-93.951695
37503,NaN,2.183849,9.244134,-2.561100,0.152100,0.032998,0.023888,-0.004647,0.033458,-0.075226,-0.480468,-0.485598,0.622002,0.382699,104.590158,-13.063330,-93.925612
37504,NaN,2.268345,9.280515,-2.532214,0.111251,-0.046334,0.070173,-0.015948,0.037369,-0.076307,-0.480462,-0.485847,0.621728,0.382836,104.575970,-13.028434,-93.897211
37505,NaN,2.171947,9.409042,-2.476649,0.036119,0.071815,0.156001,-0.029259,0.046412,-0.079596,-0.480512,-0.486091,0.621399,0.382999,104.552912,-12.993158,-93.863136
37506,NaN,2.264336,9.369502,-2.440414,0.008052,-0.033188,0.130613,-0.037082,0.041658,-0.074881,-0.480574,-0.486292,0.621077,0.383187,104.526156,-12.959649,-93.832540
37507,NaN,2.206652,9.347864,-2.364516,-0.052341,0.012470,0.078719,-0.043882,0.032604,-0.071406,-0.480631,-0.486449,0.620773,0.383409,104.496799,-12.926902,-93.807572
37508,NaN,2.121139,9.376219,-2.433727,0.018338,0.095717,0.103272,-0.050195,0.019832,-0.066284,-0.480674,-0.486550,0.620499,0.383671,104.465631,-12.895006,-93.790705
37509,NaN,2.081503,9.433378,-2.492973,0.070243,0.141555,0.162843,-0.061698,0.008749,-0.055395,-0.480731,-0.486568,0.620257,0.383968,104.429651,-12.867703,-93.781707
37510,NaN,2.102468,9.412281,-2.409799,-0.001080,0.112568,0.127427,-0.061355,0.008791,-0.039844,-0.480817,-0.486539,0.620052,0.384227,104.394373,-12.848885,-93.775035
37511,NaN,2.147909,9.393666,-2.317542,-0.083274,0.062493,0.097642,-0.063149,0.012188,-0.014265,-0.480967,-0.486432,0.619899,0.384421,104.358475,-12.844887,-93.770118
37512,NaN,2.130803,9.319218,-2.375846,-0.002811,0.061698,0.037641,-0.048948,0.022730,0.011308,-0.481164,-0.486301,0.619809,0.384485,104.330203,-12.856433,-93.762980
37513,NaN,2.146419,9.307819,-2.332702,-0.038650,0.047422,0.019930,-0.036321,0.032586,0.039357,-0.481416,-0.486132,0.619788,0.384417,104.308823,-12.885088,-93.754245
37514,NaN,2.140031,9.342135,-2.376269,-0.000570,0.067294,0.061387,-0.023183,0.040806,0.066043,-0.481711,-0.485929,0.619838,0.384225,104.294779,-12.929576,-93.744749
37515,NaN,1.982534,9.351189,-2.424245,0.056519,0.231599,0.046080,-0.015839,0.050208,0.102930,-0.482089,-0.485646,0.619968,0.383898,104.284934,-12.996015,-93.735182
37516,NaN,1.970770,9.372865,-2.498958,0.127143,0.261315,0.081496,-0.013315,0.060978,0.151974,-0.482588,-0.485237,0.620196,0.383419,104.276736,-13.091065,-93.726633
37517,NaN,1.905473,9.377058,-2.621962,0.252069,0.343126,0.099599,-0.010773,0.065851,0.190211,-0.483169,-0.484725,0.620509,0.382828,104.270608,-13.208171,-93.720784
37518,NaN,1.919857,9.354739,-2.529998,0.169984,0.346535,0.058931,-0.021202,0.073905,0.229906,-0.483875,-0.484080,0.620879,0.382153,104.258752,-13.348318,-93.716129
37519,NaN,1.952576,9.411202,-2.433054,0.064205,0.354601,0.095546,-0.018839,0.074163,0.265135,-0.484644,-0.483331,0.621336,0.381384,104.249387,-13.508195,-93.716356
37520,NaN,2.132705,9.474923,-2.302451,-0.085243,0.224714,0.165591,-0.022242,0.060768,0.293370,-0.485431,-0.482459,0.621886,0.380589,104.240825,-13.681733,-93.728356
37521,NaN,2.020129,9.507189,-2.349321,-0.036032,0.372715,0.179639,-0.036022,0.046996,0.319318,-0.486257,-0.481445,0.622505,0.379806,104.227172,-13.867869,-93.751922
37522,NaN,2.091278,9.606158,-2.339485,-0.068029,0.361455,0.286299,-0.046357,0.018701,0.340174,-0.487058,-0.480287,0.623221,0.379072,104.212302,-14.061487,-93.794726
37523,NaN,2.189101,9.806832,-2.612321,0.151056,0.350691,0.562496,-0.078480,-0.013568,0.358979,-0.487870,-0.478928,0.623998,0.378467,104.184350,-14.261149,-93.858657
37524,NaN,2.437769,9.677360,-2.771524,0.328485,0.111839,0.538875,-0.119618,-0.031952,0.366969,-0.488736,-0.477408,0.624758,0.378015,104.135926,-14.462596,-93.934253
37525,NaN,2.863341,9.064221,-2.661492,0.343067,-0.423200,0.043553,-0.118599,-0.020451,0.352683,-0.489607,-0.475955,0.625457,0.377565,104.086138,-14.657889,-94.001030
37526,NaN,3.018363,8.814968,-2.443375,0.187775,-0.605974,-0.201147,-0.134257,0.007067,0.316612,-0.490531,-0.474627,0.625970,0.377187,104.022201,-14.836911,-94.046702
37527,NaN,3.147455,8.636516,-2.318762,0.109341,-0.749757,-0.362905,-0.124466,0.026145,0.274266,-0.491411,-0.473491,0.626353,0.376834,103.959582,-14.995206,-94.075113
37528,NaN,3.244274,8.651404,-2.169209,-0.035094,-0.814624,-0.356860,-0.115227,0.034826,0.231316,-0.492214,-0.472526,0.626629,0.376538,103.899383,-15.130718,-94.092278
37529,NaN,3.165264,8.670046,-2.182612,-0.010613,-0.713698,-0.355263,-0.102057,0.033210,0.192636,-0.492907,-0.471712,0.626841,0.376298,103.845547,-15.244647,-94.104692
37530,NaN,3.065322,8.874907,-2.192217,-0.030472,-0.545121,-0.186272,-0.091280,0.022797,0.162164,-0.493484,-0.471000,0.627027,0.376124,103.798313,-15.340070,-94.118737
37531,NaN,2.759305,8.990324,-2.200229,-0.018152,-0.204440,-0.156676,-0.098339,0.002559,0.152916,-0.493998,-0.470260,0.627227,0.376042,103.749801,-15.427745,-94.143027
37532,NaN,2.581714,9.205899,-2.415771,0.166135,0.037547,0.047370,-0.103771,0.001010,0.138371,-0.494490,-0.469550,0.627386,0.376016,103.697870,-15.506987,-94.166141
37533,NaN,2.349787,9.444167,-2.435865,0.160496,0.339097,0.212604,-0.112287,0.013564,0.135546,-0.495037,-0.468851,0.627491,0.375994,103.639036,-15.586526,-94.181481
37534,NaN,2.429706,9.717755,-2.444631,0.116441,0.351946,0.491535,-0.128586,0.019984,0.145410,-0.495660,-0.468092,0.627572,0.375984,103.570218,-15.672291,-94.194456
37535,NaN,2.578425,9.748541,-2.244423,-0.082365,0.235203,0.514831,-0.125255,0.039833,0.167845,-0.496380,-0.467307,0.627662,0.375861,103.501053,-15.773373,-94.198920
37536,NaN,2.590726,9.560052,-2.245799,-0.027479,0.188982,0.341796,-0.134557,0.071813,0.188988,-0.497260,-0.466493,0.627704,0.375639,103.422259,-15.890364,-94.187708
37537,NaN,2.533726,9.415238,-2.210114,-0.012750,0.223679,0.182353,-0.131589,0.079476,0.209589,-0.498196,-0.465635,0.627779,0.375338,103.344670,-16.019978,-94.174674
37538,NaN,2.556720,9.384412,-2.128077,-0.073196,0.215897,0.141241,-0.131323,0.081833,0.227518,-0.499170,-0.464725,0.627889,0.374986,103.267440,-16.159744,-94.162590
37539,NaN,2.527835,9.437482,-2.186592,-0.010385,0.282828,0.195161,-0.132155,0.087346,0.248351,-0.500203,-0.463757,0.628032,0.374570,103.189559,-16.311971,-94.149897
37540,NaN,2.410817,9.651245,-2.176170,-0.040900,0.483909,0.358761,-0.145635,0.096933,0.275680,-0.501346,-0.462686,0.628186,0.374106,103.103314,-16.480544,-94.135148
37541,NaN,2.363152,9.723138,-2.109544,-0.100126,0.581407,0.396422,-0.148009,0.118079,0.304543,-0.502614,-0.461557,0.628349,0.373526,103.013195,-16.668069,-94.111656
37542,NaN,2.327564,9.857845,-2.007002,-0.207673,0.690086,0.487955,-0.146318,0.107555,0.347025,-0.503923,-0.460278,0.628636,0.372858,102.927278,-16.877798,-94.099725
37543,NaN,2.221885,9.881921,-2.092967,-0.104095,0.836559,0.495504,-0.142776,0.086819,0.394938,-0.505245,-0.458816,0.629090,0.372103,102.848670,-17.111737,-94.105938
37544,NaN,2.353618,9.842810,-2.223336,0.039006,0.741611,0.522300,-0.143634,0.073617,0.436839,-0.506603,-0.457193,0.629669,0.371275,102.773433,-17.367300,-94.125167
37545,NaN,2.539637,9.907838,-2.484787,0.286223,0.630511,0.690144,-0.150189,0.086346,0.471157,-0.508077,-0.455466,0.630278,0.370348,102.693553,-17.643776,-94.141110
37546,NaN,2.246822,10.153333,-2.742360,0.528371,1.036265,0.878693,-0.149087,0.119373,0.510934,-0.509723,-0.453675,0.630891,0.369239,102.609934,-17.946555,-94.142553
37547,NaN,2.210040,10.189902,-3.007531,0.803136,1.139161,0.949309,-0.147378,0.170218,0.538942,-0.511572,-0.451890,0.631437,0.367935,102.519002,-18.271422,-94.117240
37548,NaN,2.485276,11.025689,-2.406686,0.054819,1.213926,1.678938,-0.109924,0.282047,0.589628,-0.513779,-0.450243,0.631873,0.366127,102.430407,-18.638360,-94.032031
37549,NaN,3.048228,11.510112,-0.869393,-1.556294,0.916798,1.988458,-0.163262,0.304912,0.663044,-0.516305,-0.448262,0.632311,0.364243,102.309129,-19.049110,-93.941895
37550,NaN,2.439705,11.014379,-1.693174,-0.589236,1.413389,1.491735,-0.129561,0.306701,0.764410,-0.518938,-0.446044,0.633022,0.361981,102.210106,-19.516601,-93.862710
37551,NaN,2.934124,11.205335,-1.495614,-0.827904,1.107096,1.784448,-0.093241,0.335507,0.816455,-0.521666,-0.443800,0.633829,0.359398,102.127368,-20.016646,-93.772013
37552,NaN,2.848345,11.255488,-1.416496,-0.889598,1.306856,1.776330,-0.065904,0.359298,0.873867,-0.524501,-0.441478,0.634737,0.356518,102.056802,-20.551551,-93.673462
37553,NaN,2.752605,11.598454,-1.407803,-0.937553,1.629626,2.042566,-0.061968,0.374739,0.942479,-0.527485,-0.438966,0.635747,0.353403,101.987017,-21.126658,-93.573332
37554,NaN,2.960740,11.601585,-1.648723,-0.696122,1.562346,2.152017,-0.033378,0.402390,1.016162,-0.530610,-0.436331,0.636879,0.349933,101.929618,-21.746223,-93.464881
37555,NaN,3.025682,11.771561,-1.771375,-0.593925,1.700635,2.337030,-0.020388,0.457109,1.079232,-0.533975,-0.433612,0.638005,0.346123,101.868628,-22.407500,-93.330170
37556,NaN,2.859882,11.788871,-2.023364,-0.324059,2.007744,2.316308,-0.010919,0.506853,1.133724,-0.537552,-0.430814,0.639110,0.342017,101.802052,-23.105048,-93.170714
37557,NaN,2.794127,11.654057,-2.374950,0.063670,2.174002,2.209467,0.029794,0.544886,1.195685,-0.541247,-0.427975,0.640289,0.337519,101.750140,-23.841605,-92.994245
37558,NaN,2.693467,11.965800,-2.284719,-0.068612,2.548600,2.400121,0.092745,0.565150,1.254524,-0.544946,-0.425133,0.641617,0.332600,101.729568,-24.613469,-92.811307
37559,NaN,1.663811,12.011486,-2.274430,-0.043416,3.664127,1.968105,0.160997,0.477494,1.281646,-0.548239,-0.422224,0.643323,0.327561,101.769777,-25.390266,-92.685119
37560,NaN,0.853777,12.033312,-2.663622,0.342278,4.569263,1.660200,0.405393,0.181994,1.160577,-0.549843,-0.419872,0.645957,0.322675,102.022206,-26.064655,-92.728409
37561,NaN,2.248227,12.579026,-1.516595,-0.984541,3.643041,2.489492,0.302048,0.136716,1.089363,-0.551382,-0.417378,0.648376,0.318404,102.225553,-26.693388,-92.793693
37562,NaN,3.238916,11.161098,-2.086313,-0.217845,2.288107,1.768711,0.077497,0.242407,1.184345,-0.553866,-0.414111,0.650322,0.314367,102.277568,-27.388176,-92.807444
37563,NaN,2.914306,10.143382,-3.389685,1.270714,2.314155,0.952979,-0.029522,0.215319,1.297152,-0.556637,-0.410122,0.652381,0.310410,102.283773,-28.142604,-92.854379
37564,NaN,3.009955,8.939900,-3.682640,1.791692,1.812741,-0.012389,-0.109075,0.131849,1.344135,-0.559348,-0.405609,0.654617,0.306737,102.273705,-28.913374,-92.961304
37565,NaN,4.437218,7.871216,-4.566581,2.802776,0.220806,-0.086793,-0.082555,0.065691,1.348228,-0.561768,-0.401038,0.657056,0.303088,102.301522,-29.678112,-93.112242
37566,NaN,4.262040,7.616688,-4.231369,2.531945,0.347336,-0.455820,-0.106367,-0.027195,1.324083,-0.563870,-0.396319,0.659642,0.299756,102.346716,-30.418133,-93.321489
37567,NaN,5.032357,6.243885,-3.798320,2.318804,-0.927777,-1.298023,-0.093644,-0.121639,1.302409,-0.565576,-0.391550,0.662442,0.296619,102.432646,-31.133965,-93.591766
37568,NaN,5.877207,5.203093,-3.905598,2.557141,-2.090865,-1.691354,-0.046741,-0.152885,1.227221,-0.566954,-0.387100,0.665225,0.293586,102.555113,-31.803684,-93.875052
37569,NaN,4.892951,4.490625,-3.278116,2.112261,-1.588571,-2.894078,-0.033953,-0.168657,1.060330,-0.567989,-0.383205,0.667726,0.291005,102.681879,-32.377377,-94.147800
37570,NaN,-0.589322,3.791820,-1.658050,0.978241,2.617549,-6.703705,-0.022014,-0.122934,0.604017,-0.568480,-0.380925,0.669228,0.289586,102.765646,-32.701598,-94.324455
37571,NaN,-6.546730,3.493564,-0.976207,0.746001,7.431464,-10.296896,0.036846,-0.143953,-0.076314,-0.567799,-0.381058,0.669575,0.289944,102.836068,-32.642617,-94.413338
37572,NaN,-4.967927,3.353086,-2.047385,1.730748,6.073941,-9.336384,0.078826,-0.463181,-0.507685,-0.565342,-0.382289,0.670063,0.291991,103.008353,-32.301897,-94.647574
37573,NaN,-6.459450,4.111554,-0.779480,0.473203,7.680931,-9.687552,-0.012032,-0.704121,-0.976344,-0.561552,-0.384472,0.670188,0.296123,103.171612,-31.667450,-94.966342
37574,NaN,-4.926715,4.266840,-0.217459,-0.193909,6.434859,-8.773497,-0.032120,-0.724505,-1.376643,-0.557114,-0.387891,0.669538,0.301469,103.292587,-30.806735,-95.232481
37575,NaN,-3.880649,5.212167,-0.827312,0.160804,6.015659,-7.225146,0.017925,-0.685800,-1.720264,-0.552148,-0.392631,0.668140,0.307510,103.396960,-29.758666,-95.416589
37576,NaN,-3.019199,6.307573,-1.133028,0.188129,5.761799,-5.695745,0.019248,-0.703897,-2.009814,-0.546620,-0.398274,0.666160,0.314348,103.481114,-28.547033,-95.563897
37577,NaN,-1.977543,7.366819,-0.813893,-0.416404,5.251915,-4.237339,-0.007056,-0.749548,-2.236421,-0.540566,-0.404479,0.663728,0.321949,103.543026,-27.202317,-95.702326
37578,NaN,-0.519481,8.540223,-0.783618,-0.807575,4.351858,-2.448942,-0.038748,-0.787820,-2.401469,-0.534105,-0.411023,0.660916,0.330126,103.582048,-25.760989,-95.836566
37579,NaN,1.060813,9.496385,-1.165932,-0.778589,3.152062,-0.750729,-0.064299,-0.859102,-2.525608,-0.527163,-0.417723,0.657884,0.338814,103.612833,-24.240202,-95.993730
37580,NaN,1.973977,10.368059,-1.365186,-0.863019,2.431952,0.511596,-0.087975,-0.971828,-2.607492,-0.519666,-0.424361,0.654818,0.347964,103.647550,-22.659170,-96.204206
37581,NaN,3.189234,11.278302,-1.295073,-1.259022,1.379705,1.829951,-0.145390,-1.040527,-2.649994,-0.511886,-0.430786,0.651609,0.357494,103.655741,-21.044411,-96.446840
37582,NaN,4.712462,11.647835,-1.503392,-1.320048,-0.231569,2.770377,-0.214835,-1.025971,-2.609656,-0.504276,-0.436840,0.648196,0.367040,103.616199,-19.454840,-96.684304
37583,NaN,5.766121,11.869027,-2.041760,-0.987196,-1.504513,3.417670,-0.250590,-0.976142,-2.499161,-0.497009,-0.442457,0.644709,0.376249,103.545396,-17.933019,-96.907726
37584,NaN,6.711722,11.978596,-2.431909,-0.766713,-2.722287,3.841594,-0.314401,-0.915707,-2.354579,-0.490269,-0.447485,0.641163,0.385102,103.428456,-16.500886,-97.116661
37585,NaN,7.212788,11.685264,-2.868894,-0.368298,-3.639212,3.730273,-0.336962,-0.850072,-2.196609,-0.484016,-0.452011,0.637668,0.393439,103.289673,-15.165284,-97.311336
37586,NaN,7.455525,11.567321,-3.116824,-0.154377,-4.225364,3.648995,-0.355746,-0.781765,-2.049472,-0.478252,-0.456097,0.634220,0.401269,103.131749,-13.921856,-97.488737
37587,NaN,7.459882,11.179358,-3.126096,-0.087683,-4.609316,3.192713,-0.334529,-0.712421,-1.883527,-0.472935,-0.459795,0.630953,0.408436,102.978778,-12.779898,-97.651169
37588,NaN,7.438057,10.770719,-2.940978,-0.202549,-4.916956,2.667695,-0.313377,-0.676383,-1.706515,-0.468002,-0.463013,0.627993,0.414991,102.836080,-11.742418,-97.818317
37589,NaN,6.909870,10.524286,-2.663908,-0.372233,-4.647797,2.181437,-0.276761,-0.663334,-1.525247,-0.463363,-0.465740,0.625448,0.420948,102.714927,-10.807746,-98.003448
37590,NaN,6.281318,10.497299,-2.238711,-0.712790,-4.183827,1.876833,-0.275052,-0.671463,-1.341338,-0.459054,-0.467847,0.623314,0.426461,102.597383,-9.975757,-98.217944
37591,NaN,5.713154,10.213397,-1.888932,-0.935773,-3.806060,1.374715,-0.290989,-0.729254,-1.171199,-0.454938,-0.469240,0.621642,0.431749,102.476963,-9.231746,-98.488051
37592,NaN,5.055522,9.998554,-1.793067,-0.910222,-3.326231,0.997064,-0.282346,-0.796702,-1.028874,-0.450880,-0.470042,0.620448,0.436822,102.367101,-8.560027,-98.814946
37593,NaN,4.953535,10.086184,-1.946771,-0.783038,-3.346903,1.061246,-0.265223,-0.851985,-0.910728,-0.446847,-0.470376,0.619666,0.441689,102.270014,-7.947902,-99.188492
37594,NaN,5.002189,9.557794,-2.044021,-0.620520,-3.599826,0.541375,-0.265865,-0.858661,-0.804342,-0.443015,-0.470345,0.619125,0.446316,102.171207,-7.395540,-99.579239
37595,NaN,5.041588,8.890794,-2.331646,-0.249854,-3.874243,-0.074749,-0.219991,-0.821238,-0.719765,-0.439363,-0.470222,0.618781,0.450513,102.093732,-6.895354,-99.959607
37596,NaN,5.232879,8.507219,-2.576304,-0.003053,-4.234157,-0.407135,-0.178261,-0.735896,-0.649258,-0.436025,-0.470151,0.618492,0.454211,102.032549,-6.445654,-100.300465
37597,NaN,5.092382,8.207498,-2.664504,0.135745,-4.222953,-0.727384,-0.134863,-0.607926,-0.584100,-0.433118,-0.470254,0.618162,0.457323,101.986667,-6.047813,-100.577202
37598,NaN,5.078421,8.084328,-2.443205,-0.074995,-4.250070,-0.921854,-0.092083,-0.447874,-0.523466,-0.430739,-0.470621,0.617718,0.459787,101.955108,-5.703394,-100.771009
37599,NaN,5.333202,7.756213,-2.058486,-0.449149,-4.530007,-1.320555,-0.086749,-0.307774,-0.496739,-0.428836,-0.471235,0.617040,0.461844,101.918135,-5.390520,-100.889237
37600,NaN,5.717579,7.516937,-2.208749,-0.343671,-5.004766,-1.511626,-0.044831,-0.190873,-0.471505,-0.427250,-0.472126,0.616263,0.463437,101.898881,-5.105828,-100.944694
37601,NaN,6.157943,9.194954,-4.592515,1.542116,-5.668828,0.629757,0.104641,-0.169589,-0.424326,-0.425484,-0.473238,0.615895,0.464416,101.964410,-4.850012,-100.993667
37602,NaN,12.143155,7.543081,-4.738624,0.848904,-11.776205,-0.463401,-0.087547,0.027523,-0.141989,-0.425434,-0.473528,0.615327,0.464918,101.913228,-4.775890,-100.965273
37603,NaN,13.142801,9.106041,-4.795511,0.448396,-12.575164,1.156092,0.088676,0.386901,0.055352,-0.426531,-0.474420,0.614871,0.463606,101.948041,-4.855042,-100.758146
37604,NaN,4.782701,11.911902,-0.094036,-3.027359,-3.272794,2.224769,0.101144,0.702983,-0.054583,-0.428311,-0.476405,0.613504,0.461737,101.973478,-4.910129,-100.360150
37605,NaN,0.013445,10.883648,-1.017582,-1.082075,1.132083,1.005674,0.102509,0.371359,0.022097,-0.429246,-0.477389,0.613028,0.460484,102.016207,-4.969167,-100.157793
37606,NaN,-3.557629,11.966687,-0.474258,-1.210119,4.854262,1.635232,0.240907,0.312084,-0.039457,-0.429523,-0.478720,0.612848,0.459080,102.140301,-4.986676,-99.981515
37607,NaN,-0.826319,11.091459,-1.920725,-0.143463,1.859505,1.318982,0.139577,0.237821,0.061565,-0.430048,-0.479351,0.612836,0.457945,102.210955,-5.052265,-99.859201
37608,NaN,0.475577,10.562657,-2.889411,0.655566,0.396536,1.121547,0.219112,0.074378,0.237855,-0.430283,-0.479239,0.613777,0.456579,102.337078,-5.196677,-99.850473
37609,NaN,0.988819,10.545721,-2.401231,0.084203,-0.003865,1.047732,0.168738,0.101114,0.274027,-0.430802,-0.478966,0.614632,0.455224,102.433385,-5.364789,-99.831409
37610,NaN,1.506622,10.004514,-1.686024,-0.596410,-0.440567,0.417317,0.116135,0.201636,0.297196,-0.431807,-0.478736,0.615203,0.453739,102.494395,-5.558165,-99.759009
37611,NaN,1.571659,9.426985,-1.556029,-0.622378,-0.526873,-0.164146,0.104634,0.224273,0.287665,-0.432887,-0.478561,0.615675,0.452253,102.547233,-5.749251,-99.672810
37612,NaN,1.545573,9.198251,-1.839665,-0.300827,-0.540365,-0.325938,0.104205,0.282468,0.268394,-0.434101,-0.478573,0.615971,0.450670,102.595967,-5.936736,-99.551678
37613,NaN,1.725471,9.271946,-1.975902,-0.215099,-0.693833,-0.204219,0.127252,0.377244,0.255933,-0.435523,-0.478885,0.616081,0.448813,102.651764,-6.129399,-99.375762
37614,NaN,1.680895,9.635954,-2.164852,-0.101048,-0.590877,0.187520,0.164483,0.416124,0.261738,-0.436984,-0.479345,0.616199,0.446734,102.726007,-6.330231,-99.178935
37615,NaN,0.997621,10.007842,-2.021663,-0.211732,0.188123,0.442016,0.158345,0.410072,0.275619,-0.438471,-0.479732,0.616346,0.444655,102.796643,-6.538481,-98.987392
37616,NaN,0.834831,9.953761,-2.115549,-0.091138,0.366423,0.390603,0.129944,0.322507,0.301265,-0.439809,-0.479780,0.616680,0.442814,102.856398,-6.749957,-98.848606
37617,NaN,0.969716,9.637034,-2.243503,0.071166,0.210406,0.126962,0.114926,0.226758,0.336221,-0.440965,-0.479472,0.617272,0.441170,102.914023,-6.969038,-98.768276
37618,NaN,1.190823,9.431811,-2.128587,-0.035164,0.014625,-0.070694,0.090122,0.170286,0.339508,-0.442010,-0.478974,0.617939,0.439730,102.961119,-7.182610,-98.720375
37619,NaN,1.442290,9.460166,-2.013963,-0.191797,-0.177286,-0.037071,0.083467,0.148813,0.333652,-0.442991,-0.478429,0.618623,0.438372,103.005686,-7.390358,-98.683888
37620,NaN,1.600088,9.555725,-1.979020,-0.271196,-0.276898,0.068525,0.090612,0.125579,0.330267,-0.443873,-0.477859,0.619363,0.437054,103.055882,-7.593072,-98.660259
37621,NaN,1.498985,9.586304,-1.991424,-0.253695,-0.138709,0.088133,0.093693,0.115143,0.328722,-0.444712,-0.477276,0.620128,0.435753,103.108545,-7.793768,-98.642414
37622,NaN,1.284330,9.523496,-2.341014,0.125052,0.056694,0.077099,0.105327,0.104874,0.338497,-0.445509,-0.476664,0.620962,0.434418,103.168808,-7.998421,-98.631894
37623,NaN,1.323847,9.422254,-2.481557,0.270601,0.020923,0.016646,0.112639,0.103487,0.329475,-0.446265,-0.476092,0.621791,0.433081,103.233196,-8.198049,-98.621118
37624,NaN,1.448864,9.370927,-2.255412,0.038583,-0.049483,-0.066081,0.103494,0.101416,0.324380,-0.447023,-0.475509,0.622591,0.431789,103.292410,-8.394397,-98.611109
37625,NaN,1.643786,9.284475,-2.072869,-0.153657,-0.201009,-0.161978,0.096635,0.090125,0.313963,-0.447739,-0.474917,0.623375,0.430565,103.348425,-8.583635,-98.606205
37626,NaN,1.926877,9.321133,-2.003385,-0.275413,-0.431797,-0.099420,0.104672,0.071153,0.290167,-0.448323,-0.474376,0.624160,0.429415,103.410189,-8.756920,-98.609065
37627,NaN,1.936285,9.348910,-2.056959,-0.237315,-0.411923,-0.057877,0.118532,0.068001,0.274046,-0.448830,-0.473908,0.624943,0.428263,103.479872,-8.920982,-98.611666
37628,NaN,1.616277,9.307492,-2.100362,-0.147715,-0.083036,-0.136713,0.139854,0.082971,0.257267,-0.449296,-0.473571,0.625696,0.427047,103.560138,-9.077515,-98.603832
37629,NaN,1.550348,9.262021,-2.133006,-0.106685,-0.003444,-0.183208,0.148466,0.079960,0.239515,-0.449693,-0.473301,0.626431,0.425848,103.645235,-9.223955,-98.595432
37630,NaN,1.727111,9.288657,-2.073646,-0.205885,-0.138723,-0.143128,0.142839,0.070167,0.229240,-0.450049,-0.473030,0.627150,0.424714,103.727789,-9.363171,-98.591425
37631,NaN,1.793130,9.337069,-2.006784,-0.301172,-0.162154,-0.101545,0.151551,0.050451,0.215857,-0.450295,-0.472776,0.627899,0.423627,103.816874,-9.492446,-98.596831
37632,NaN,1.611179,9.492093,-2.118751,-0.211566,0.057085,0.043111,0.167907,0.037756,0.207800,-0.450443,-0.472558,0.628691,0.422537,103.916385,-9.615297,-98.608562
37633,NaN,1.595973,9.685174,-2.374458,-0.017519,0.106098,0.285637,0.169234,0.025342,0.201084,-0.450535,-0.472336,0.629497,0.421486,104.017729,-9.732868,-98.626506
37634,NaN,1.632884,9.613340,-2.580155,0.176909,0.057159,0.272212,0.162556,0.008423,0.202321,-0.450590,-0.472059,0.630329,0.420493,104.116979,-9.848548,-98.654451
37635,NaN,1.725410,9.522307,-2.623138,0.210589,-0.033441,0.211619,0.158889,0.008629,0.195515,-0.450641,-0.471795,0.631135,0.419525,104.214025,-9.960617,-98.681454
37636,NaN,1.920848,9.320562,-2.700524,0.285852,-0.252473,0.072143,0.169126,0.004378,0.164657,-0.450587,-0.471641,0.631899,0.418604,104.316675,-10.054716,-98.706704
37637,NaN,2.112409,9.353403,-2.477423,0.018170,-0.391984,0.083373,0.204905,-0.002660,0.125330,-0.450345,-0.471677,0.632660,0.417674,104.439592,-10.126129,-98.730365
37638,NaN,2.197810,9.366935,-2.666800,0.166439,-0.477828,0.158551,0.195811,0.001221,0.098791,-0.450080,-0.471784,0.633329,0.416824,104.556288,-10.183136,-98.748196
37639,NaN,1.974419,9.321969,-2.835840,0.355402,-0.275707,0.118933,0.179145,0.018939,0.069714,-0.449850,-0.471982,0.633855,0.416049,104.660946,-10.226748,-98.751821
37640,NaN,1.894040,9.369427,-2.763609,0.272235,-0.171250,0.132544,0.148068,0.024446,0.046557,-0.449661,-0.472194,0.634248,0.415412,104.746654,-10.258122,-98.749066
37641,NaN,1.611143,9.271335,-3.148944,0.692020,0.049320,0.086198,0.174134,-0.033007,0.007515,-0.449148,-0.472469,0.634733,0.414914,104.852037,-10.259668,-98.772831
37642,NaN,1.698436,9.314806,-2.828759,0.335707,0.004084,0.063514,0.298299,-0.143315,-0.090942,-0.447785,-0.473106,0.635488,0.414504,105.036932,-10.190149,-98.843933
37643,NaN,2.090544,9.528951,-2.515740,-0.104097,-0.307434,0.256811,0.235175,-0.158780,-0.077441,-0.446551,-0.473525,0.636178,0.414299,105.187447,-10.125785,-98.925487
37644,NaN,1.891988,9.358971,-2.684243,0.102617,-0.173888,0.103679,0.193231,-0.116633,-0.070049,-0.445563,-0.473914,0.636703,0.414112,105.309851,-10.071466,-98.984401
37645,NaN,1.627947,9.544102,-2.722825,0.117139,0.112107,0.243533,0.153929,-0.060415,-0.059231,-0.444870,-0.474296,0.637047,0.413890,105.404471,-10.031750,-99.013258
37646,NaN,1.518554,9.529920,-2.825668,0.218225,0.199539,0.238298,0.163777,-0.062316,-0.076822,-0.444110,-0.474752,0.637372,0.413682,105.504393,-9.981776,-99.040448
37647,NaN,1.703819,9.552230,-2.728458,0.072253,0.028931,0.266325,0.169272,-0.079993,-0.059699,-0.443317,-0.475128,0.637789,0.413459,105.609620,-9.938692,-99.080056
37648,NaN,1.622111,9.449631,-2.791491,0.150762,0.075650,0.171836,0.167807,-0.094898,-0.059730,-0.442478,-0.475470,0.638235,0.413276,105.715380,-9.893010,-99.127985
37649,NaN,1.989031,9.437700,-2.672150,-0.035409,-0.274648,0.191817,0.139079,-0.066663,-0.034954,-0.441850,-0.475728,0.638617,0.413062,105.802616,-9.865506,-99.163876
37650,NaN,1.845885,9.462252,-2.662034,-0.042144,-0.130019,0.187775,0.109382,-0.018802,-0.007988,-0.441499,-0.475932,0.638896,0.412770,105.868946,-9.860100,-99.177294
37651,NaN,1.668146,9.444382,-2.755845,0.070642,0.031846,0.165676,0.077806,0.022273,0.024393,-0.441423,-0.476048,0.639096,0.412408,105.914151,-9.879175,-99.172823
37652,NaN,1.632277,9.394677,-2.950100,0.268491,0.041000,0.164968,0.057310,0.048655,0.036722,-0.441503,-0.476133,0.639225,0.412023,105.945396,-9.908988,-99.155644
37653,NaN,1.937604,9.133475,-2.781294,0.119378,-0.286034,-0.075429,0.044580,0.051744,0.038579,-0.441629,-0.476191,0.639325,0.411666,105.969116,-9.940524,-99.136983
37654,NaN,2.006681,8.980860,-2.569995,-0.058950,-0.356751,-0.265083,0.041950,0.051845,0.037761,-0.441759,-0.476246,0.639417,0.411320,105.991266,-9.971428,-99.118209
37655,NaN,2.008570,8.997364,-2.661988,0.022258,-0.359843,-0.223991,0.035017,0.044646,0.025260,-0.441857,-0.476310,0.639482,0.411040,106.009812,-9.994527,-99.101400
37656,NaN,2.043288,9.175818,-2.608153,-0.080320,-0.347035,-0.063521,0.021128,0.036559,0.017988,-0.441947,-0.476351,0.639518,0.410841,106.020953,-10.012136,-99.088017
37657,NaN,2.046120,9.147626,-2.680645,-0.004867,-0.359989,-0.069900,0.003252,0.038853,0.019658,-0.442091,-0.476351,0.639516,0.410688,106.021697,-10.031247,-99.073554
37658,NaN,2.189688,9.096715,-2.693295,-0.001716,-0.508782,-0.089522,-0.004862,0.035617,0.012639,-0.442228,-0.476349,0.639488,0.410586,106.017881,-10.045762,-99.059839
37659,NaN,2.157738,9.174015,-2.622379,-0.082527,-0.452668,-0.041120,-0.003573,0.046224,-0.008051,-0.442355,-0.476438,0.639390,0.410499,106.013214,-10.050785,-99.036799
37660,NaN,2.142778,9.341890,-2.659503,-0.084306,-0.406279,0.125280,-0.007945,0.082719,-0.017632,-0.442588,-0.476623,0.639179,0.410361,106.002181,-10.056069,-98.991877
37661,NaN,1.325315,9.507976,-2.600116,-0.054963,0.430141,0.123642,0.010618,0.109916,-0.027051,-0.442846,-0.476934,0.638924,0.410119,105.998886,-10.060689,-98.930159
37662,NaN,1.324452,9.916384,-2.557284,-0.196352,0.521861,0.498357,0.017524,0.124853,-0.016077,-0.443156,-0.477256,0.638676,0.409796,105.998358,-10.073475,-98.861915
37663,NaN,1.619096,10.000283,-2.372720,-0.438247,0.274411,0.579116,0.017566,0.126889,0.007865,-0.443522,-0.477506,0.638480,0.409413,105.998325,-10.099994,-98.796298
37664,NaN,1.785348,9.663006,-2.382875,-0.369387,0.046468,0.291799,0.011851,0.132927,0.028381,-0.443962,-0.477690,0.638308,0.408990,105.994943,-10.138540,-98.730656
37665,NaN,1.826197,9.355483,-2.504570,-0.182203,-0.063701,0.041026,0.021416,0.112839,0.021465,-0.444302,-0.477876,0.638183,0.408598,105.998800,-10.170326,-98.675067
37666,NaN,1.834284,9.199041,-2.775955,0.114799,-0.126877,-0.031910,0.024784,0.087523,-0.008335,-0.444491,-0.478112,0.638050,0.408323,106.006210,-10.181485,-98.628931
37667,NaN,1.803465,9.180053,-2.754464,0.101181,-0.098962,-0.061129,0.043868,0.057327,-0.053857,-0.444446,-0.478475,0.637915,0.408160,106.026264,-10.163035,-98.592312
37668,NaN,1.678344,9.252434,-2.827874,0.167889,0.026062,0.005275,0.037457,0.016736,-0.091103,-0.444210,-0.478859,0.637766,0.408198,106.045594,-10.117439,-98.572478
37669,NaN,1.574696,9.255904,-2.949202,0.293527,0.106821,0.023554,0.031608,-0.046355,-0.118794,-0.443731,-0.479189,0.637680,0.408465,106.067003,-10.046830,-98.583387
37670,NaN,1.709112,9.221851,-2.995238,0.321008,-0.048534,0.027518,0.020866,-0.079185,-0.139577,-0.443130,-0.479495,0.637595,0.408893,106.084828,-9.959342,-98.609345
37671,NaN,1.707011,9.258426,-2.978180,0.290914,-0.052694,0.057189,0.010224,-0.095434,-0.151600,-0.442478,-0.479782,0.637494,0.409419,106.097759,-9.862870,-98.642346
37672,NaN,1.677404,9.203653,-2.991028,0.317539,-0.052725,0.003805,-0.009929,-0.094813,-0.152081,-0.441874,-0.480027,0.637349,0.410009,106.098992,-9.766006,-98.674969
37673,NaN,1.627654,9.261085,-2.912856,0.233919,-0.001475,0.028397,-0.027422,-0.095364,-0.150176,-0.441315,-0.480225,0.637174,0.410651,106.090277,-9.670329,-98.708137
37674,NaN,1.517296,9.299127,-2.875030,0.205202,0.101186,0.035631,-0.058285,-0.101493,-0.136135,-0.440838,-0.480298,0.636982,0.411376,106.064754,-9.581195,-98.747074
37675,NaN,1.419532,9.256353,-2.911216,0.268070,0.169047,-0.011164,-0.076032,-0.109209,-0.116326,-0.440420,-0.480252,0.636817,0.412130,106.030283,-9.501990,-98.793472
37676,NaN,1.684551,9.267933,-2.723886,0.049995,-0.083600,-0.007467,-0.088701,-0.133437,-0.134686,-0.439917,-0.480187,0.636635,0.413025,105.990200,-9.408651,-98.850562
37677,NaN,1.820156,9.229922,-2.511238,-0.161321,-0.218265,-0.079391,-0.076424,-0.147986,-0.139197,-0.439329,-0.480132,0.636499,0.413923,105.958301,-9.310791,-98.915033
37678,NaN,1.664257,9.366090,-2.549876,-0.131903,-0.060375,0.034860,-0.068433,-0.136994,-0.133667,-0.438766,-0.480099,0.636368,0.414759,105.930001,-9.217519,-98.974350
37679,NaN,1.636004,9.441546,-2.630247,-0.066528,-0.042152,0.123674,-0.074056,-0.115389,-0.116400,-0.438323,-0.480043,0.636219,0.415520,105.896943,-9.137410,-99.024325
37680,NaN,1.707983,9.335894,-2.583090,-0.092979,-0.140901,0.021944,-0.076243,-0.092969,-0.093659,-0.438001,-0.479957,0.636070,0.416187,105.861136,-9.073155,-99.065502
37681,NaN,1.679517,9.400220,-2.551020,-0.130627,-0.107594,0.069821,-0.073716,-0.066937,-0.071014,-0.437805,-0.479858,0.635923,0.416731,105.825052,-9.025704,-99.095705
37682,NaN,1.603707,9.363424,-2.637968,-0.021781,-0.057815,0.046351,-0.067971,-0.044744,-0.045847,-0.437716,-0.479738,0.635800,0.417150,105.790895,-8.995384,-99.117590
37683,NaN,1.602729,9.426506,-2.679735,0.008060,-0.054023,0.117355,-0.064888,-0.013594,-0.024655,-0.437765,-0.479621,0.635666,0.417437,105.756334,-8.981841,-99.125377
37684,NaN,1.523290,9.446411,-2.680774,0.022492,0.025696,0.124137,-0.064331,0.011957,0.007663,-0.437959,-0.479457,0.635555,0.417591,105.720630,-8.989869,-99.124059
37685,NaN,1.113631,9.519350,-2.547444,-0.053104,0.455929,0.093723,-0.046235,0.025032,0.033874,-0.438208,-0.479276,0.635516,0.417598,105.694824,-9.014609,-99.119486
37686,NaN,1.018401,9.640177,-2.621784,0.008356,0.569892,0.213232,-0.032011,0.041697,0.082501,-0.438575,-0.479007,0.635586,0.417414,105.676870,-9.068525,-99.113287
37687,NaN,1.226953,9.596621,-2.559447,-0.068042,0.376281,0.187567,-0.040075,0.056222,0.130130,-0.439109,-0.478599,0.635721,0.417115,105.654208,-9.151178,-99.106352
37688,NaN,1.298491,9.439879,-2.562580,-0.032006,0.291480,0.050284,-0.037174,0.063401,0.174013,-0.439748,-0.478072,0.635951,0.416695,105.633622,-9.258934,-99.102303
37689,NaN,1.373252,9.282475,-2.565498,0.004028,0.206701,-0.086991,-0.043769,0.069053,0.206130,-0.440489,-0.477440,0.636231,0.416209,105.609567,-9.385491,-99.100009
37690,NaN,1.430343,9.208361,-2.549847,0.005569,0.159748,-0.152671,-0.047285,0.059839,0.233594,-0.441264,-0.476693,0.636589,0.415697,105.585011,-9.525575,-99.107167
37691,NaN,1.482301,9.274989,-2.503610,-0.054336,0.151176,-0.093385,-0.060872,0.048257,0.257990,-0.442086,-0.475813,0.637001,0.415200,105.554417,-9.677552,-99.124486
37692,NaN,1.611931,9.394855,-2.393278,-0.199035,0.086733,0.012901,-0.073662,0.049983,0.275086,-0.442977,-0.474854,0.637422,0.414702,105.516791,-9.839035,-99.143478
37693,NaN,1.716944,9.422559,-2.313095,-0.286969,0.026367,0.036161,-0.096541,0.052492,0.297996,-0.443978,-0.473774,0.637843,0.414219,105.466483,-10.013770,-99.164446
37694,NaN,1.817689,9.380877,-2.346549,-0.247823,-0.054614,0.023300,-0.089317,0.062329,0.312552,-0.445022,-0.472684,0.638290,0.413657,105.419762,-10.197858,-99.182074
37695,NaN,1.852894,9.461080,-2.392194,-0.215154,-0.045833,0.118040,-0.091863,0.083346,0.323914,-0.446161,-0.471593,0.638710,0.413025,105.369834,-10.391638,-99.189450
37696,NaN,1.721598,9.474711,-2.528389,-0.053082,0.102538,0.142882,-0.091539,0.095801,0.334883,-0.447360,-0.470493,0.639126,0.412339,105.319104,-10.593170,-99.191412
37697,NaN,1.649767,9.396960,-2.638558,0.096800,0.177659,0.084056,-0.103037,0.093792,0.355850,-0.448622,-0.469294,0.639571,0.411644,105.262579,-10.806190,-99.197475
37698,NaN,1.429571,9.451793,-2.658322,0.152041,0.436968,0.098546,-0.081915,0.071136,0.380096,-0.449809,-0.468016,0.640164,0.410880,105.221252,-11.029004,-99.219894
37699,NaN,1.650291,9.588847,-2.634939,0.076805,0.294635,0.263001,-0.080691,0.061613,0.405434,-0.451014,-0.466639,0.640838,0.410075,105.182489,-11.264608,-99.251360
37700,NaN,1.747254,9.487512,-2.681415,0.142890,0.213125,0.196797,-0.086139,0.046412,0.425826,-0.452222,-0.465150,0.641579,0.409276,105.143000,-11.509036,-99.294439
37701,NaN,1.837206,9.344050,-2.770153,0.260325,0.124579,0.100783,-0.092487,0.033596,0.436944,-0.453425,-0.463583,0.642359,0.408499,105.101845,-11.757918,-99.346257
37702,NaN,1.884177,9.419443,-2.896929,0.371561,0.124671,0.213003,-0.090627,0.021046,0.432575,-0.454571,-0.462007,0.643158,0.407754,105.063256,-12.002356,-99.404432
37703,NaN,1.993610,9.537380,-2.907315,0.352043,0.087099,0.348853,-0.106730,0.008811,0.433033,-0.455715,-0.460364,0.643950,0.407084,105.017144,-12.245459,-99.469414
37704,NaN,2.090269,9.250598,-2.886883,0.395251,-0.034206,0.092833,-0.111844,-0.014097,0.434156,-0.456795,-0.458658,0.644782,0.406481,104.971136,-12.485650,-99.547460
37705,NaN,2.043495,9.111388,-2.887592,0.446843,0.013598,-0.048903,-0.085301,-0.041412,0.408945,-0.457674,-0.457036,0.645671,0.405909,104.943197,-12.708083,-99.637038
37706,NaN,2.366869,9.320608,-2.639944,0.121121,-0.183096,0.157107,-0.092353,-0.042645,0.384608,-0.458513,-0.455472,0.646489,0.405418,104.910848,-12.916720,-99.723640
37707,NaN,2.472430,9.600795,-2.625958,0.042937,-0.177151,0.441604,-0.130328,-0.016789,0.360521,-0.459472,-0.453949,0.647114,0.405042,104.852923,-13.116077,-99.791761
37708,NaN,2.353181,9.689159,-2.644248,0.077979,-0.008152,0.502498,-0.138992,0.011803,0.358020,-0.460536,-0.452471,0.647647,0.404636,104.786390,-13.318124,-99.843122
37709,NaN,2.349356,9.651924,-2.576594,0.040066,0.026351,0.449648,-0.155632,0.026989,0.350094,-0.461670,-0.451008,0.648091,0.404265,104.708198,-13.518246,-99.884374
37710,NaN,2.294095,9.357766,-2.432137,-0.006868,0.047974,0.124288,-0.189254,0.025951,0.336953,-0.462847,-0.449508,0.648438,0.404034,104.610458,-13.710806,-99.924025
37711,NaN,2.458965,9.085752,-2.436813,0.048704,-0.154265,-0.091104,-0.194875,0.020915,0.329781,-0.464005,-0.448005,0.648767,0.403848,104.510017,-13.898918,-99.965129
37712,NaN,2.731778,8.901904,-2.328282,-0.043160,-0.426090,-0.223949,-0.182571,0.016426,0.306717,-0.465071,-0.446596,0.649076,0.403684,104.416445,-14.073470,-100.005151
37713,NaN,2.920596,8.888092,-2.253829,-0.124598,-0.577169,-0.207528,-0.175313,0.036898,0.273861,-0.466121,-0.445349,0.649278,0.403526,104.323073,-14.232955,-100.028322
37714,NaN,3.038062,8.914330,-2.218246,-0.166821,-0.655512,-0.160842,-0.124615,0.070750,0.232946,-0.467084,-0.444421,0.649410,0.403223,104.252450,-14.374347,-100.025956
37715,NaN,3.132093,9.031133,-2.223338,-0.186477,-0.692962,-0.024961,-0.097282,0.113904,0.187375,-0.468034,-0.443791,0.649395,0.402840,104.189656,-14.496707,-99.991993
37716,NaN,3.021415,9.103767,-2.227713,-0.165425,-0.549863,0.017902,-0.062926,0.136326,0.153485,-0.468911,-0.443397,0.649319,0.402376,104.141942,-14.603145,-99.940165
37717,NaN,2.786341,9.221297,-2.344027,-0.025684,-0.289278,0.097212,-0.059831,0.165431,0.126510,-0.469822,-0.443154,0.649122,0.401898,104.090707,-14.698837,-99.867550
37718,NaN,2.611460,9.304834,-2.482013,0.131891,-0.098663,0.163930,-0.063284,0.173224,0.122459,-0.470756,-0.442933,0.648889,0.401425,104.036020,-14.793079,-99.789806
37719,NaN,2.516738,9.437165,-2.391630,0.047416,0.053759,0.242599,-0.086908,0.191869,0.127373,-0.471814,-0.442676,0.648576,0.400974,103.965106,-14.892778,-99.701846
37720,NaN,2.543066,9.477675,-2.252505,-0.082863,0.070044,0.254858,-0.111727,0.228106,0.131871,-0.473050,-0.442418,0.648135,0.400513,103.874518,-14.999630,-99.593539
37721,NaN,2.512633,9.429978,-2.073264,-0.223661,0.119847,0.160867,-0.109778,0.257605,0.143679,-0.474402,-0.442184,0.647654,0.399950,103.780837,-15.117144,-99.469619
37722,NaN,2.477923,9.434386,-1.968123,-0.301698,0.182410,0.132005,-0.113268,0.274729,0.158577,-0.475844,-0.441928,0.647156,0.399326,103.682755,-15.244858,-99.337705
37723,NaN,2.466247,9.391976,-1.922529,-0.318042,0.205391,0.078941,-0.078576,0.273741,0.178281,-0.477246,-0.441686,0.646772,0.398542,103.605090,-15.383432,-99.208779
37724,NaN,2.380180,9.545341,-1.918212,-0.321059,0.354096,0.198796,-0.101815,0.256282,0.196219,-0.478676,-0.441296,0.646420,0.397830,103.517047,-15.529253,-99.092205
37725,NaN,2.388223,9.461784,-2.071377,-0.140087,0.331514,0.156764,-0.100760,0.224027,0.228392,-0.480063,-0.440738,0.646218,0.397105,103.435468,-15.688741,-98.998382
37726,NaN,2.537106,9.532142,-2.202700,-0.030741,0.224820,0.291715,-0.105242,0.197220,0.246214,-0.481406,-0.440058,0.646107,0.396412,103.355849,-15.854262,-98.922294
37727,NaN,2.483036,9.514819,-2.320634,0.113778,0.288677,0.286135,-0.122651,0.203139,0.274008,-0.482861,-0.439256,0.646008,0.395693,103.266068,-16.036161,-98.846210
37728,NaN,2.355113,9.478263,-2.512202,0.346111,0.413054,0.257300,-0.134219,0.221872,0.294527,-0.484440,-0.438395,0.645883,0.394920,103.167049,-16.231630,-98.761720
37729,NaN,2.326971,9.763485,-2.725518,0.527597,0.541757,0.560203,-0.142199,0.241497,0.316426,-0.486143,-0.437482,0.645740,0.394074,103.060686,-16.441925,-98.668278
37730,NaN,2.353316,9.874229,-2.831232,0.631224,0.579294,0.690653,-0.154408,0.273204,0.345109,-0.488027,-0.436506,0.645556,0.393128,102.942650,-16.671944,-98.559747
37731,NaN,2.347983,9.892413,-2.670466,0.499006,0.644099,0.667778,-0.157593,0.309689,0.370854,-0.490085,-0.435509,0.645329,0.392046,102.817034,-16.920969,-98.432669
37732,NaN,2.435830,10.060010,-2.337033,0.160397,0.684272,0.775258,-0.161818,0.333720,0.404384,-0.492290,-0.434437,0.645103,0.390841,102.685379,-17.191308,-98.295268
37733,NaN,2.379538,10.019214,-2.449249,0.313297,0.764009,0.740205,-0.144890,0.361134,0.427985,-0.494591,-0.433381,0.644889,0.389461,102.558698,-17.478152,-98.144018
37734,NaN,2.525422,9.935368,-2.969591,0.842193,0.613740,0.809059,-0.092081,0.410944,0.451755,-0.496978,-0.432472,0.644699,0.387740,102.453324,-17.784007,-97.965815
37735,NaN,2.556844,11.029924,-2.143339,-0.133881,1.057785,1.661343,-0.026982,0.506122,0.484331,-0.499591,-0.431800,0.644464,0.385518,102.368114,-18.119685,-97.734954
37736,NaN,2.706742,12.209400,0.148464,-2.569548,1.522093,2.332194,-0.071885,0.496020,0.569150,-0.502423,-0.430717,0.644341,0.383247,102.260736,-18.501081,-97.519935
37737,NaN,2.053340,12.349413,-0.741541,-1.618977,2.207297,2.425783,-0.010623,0.485519,0.683989,-0.505303,-0.429391,0.644600,0.380505,102.193343,-18.945328,-97.324667
37738,NaN,2.399245,12.294605,-0.846442,-1.534207,1.953106,2.494255,0.082031,0.493422,0.792432,-0.508205,-0.427956,0.645234,0.377167,102.180239,-19.451002,-97.137752
37739,NaN,2.145484,12.762712,-0.916947,-1.508786,2.461515,2.836186,0.156193,0.525078,0.896663,-0.511235,-0.426422,0.646135,0.373247,102.205913,-20.018988,-96.944799
37740,NaN,1.842977,13.178963,-1.288460,-1.187013,3.005609,3.160259,0.263829,0.524611,1.016289,-0.514240,-0.424763,0.647473,0.368664,102.296839,-20.653992,-96.767556
37741,NaN,1.756008,13.253163,-1.448840,-1.052624,3.256245,3.191759,0.365301,0.512198,1.131220,-0.517183,-0.422953,0.649248,0.363469,102.452228,-21.352180,-96.613510
37742,NaN,1.051390,13.264475,-2.552088,0.059712,4.037072,3.120237,0.569618,0.452108,1.177634,-0.519558,-0.421393,0.651620,0.357601,102.739477,-22.069331,-96.504073
37743,NaN,0.714207,14.056706,-1.841193,-0.810168,4.838845,3.507123,0.699970,0.312125,1.097315,-0.521036,-0.420163,0.654388,0.351796,103.129607,-22.724219,-96.472061
37744,NaN,1.025593,14.203114,-1.029377,-1.722916,4.792593,3.525220,0.409731,0.384082,1.189951,-0.523498,-0.417982,0.656625,0.346532,103.342674,-23.440407,-96.413256
37745,NaN,1.109308,12.778756,-1.249331,-1.277938,4.294700,2.270681,0.264174,0.417259,1.325146,-0.526583,-0.415014,0.658773,0.341308,103.472054,-24.236363,-96.355845
37746,NaN,1.498048,12.011266,-2.087235,-0.365607,3.780116,1.868295,0.221161,0.366161,1.464536,-0.529799,-0.411364,0.661236,0.335945,103.598500,-25.103377,-96.351934
37747,NaN,1.868934,11.019610,-2.998916,0.667102,3.181738,1.293485,0.212545,0.269138,1.513522,-0.532762,-0.407343,0.664003,0.330662,103.749745,-25.984293,-96.417516
37748,NaN,2.963360,9.462174,-4.170080,1.981347,1.665515,0.627709,0.311035,0.165299,1.530827,-0.535175,-0.403329,0.667204,0.325195,103.990113,-26.860600,-96.554130
37749,NaN,3.542801,9.460450,-3.999699,1.735927,1.311858,0.832151,0.279066,0.081363,1.499657,-0.537290,-0.399173,0.670474,0.320070,104.238032,-27.707046,-96.743556
37750,NaN,4.286594,7.539383,-3.156782,1.181527,-0.112558,-0.659965,0.290292,0.018706,1.443971,-0.539053,-0.395111,0.673782,0.315162,104.512063,-28.513181,-96.969249
37751,NaN,2.082420,5.466257,-4.244428,2.852473,0.904774,-3.234258,0.491165,0.110375,1.208274,-0.540329,-0.392509,0.676660,0.310018,104.859934,-29.200610,-97.104437
37752,NaN,-1.811504,4.858969,-4.365879,3.477862,4.044699,-5.629807,0.658618,0.572151,0.592046,-0.541866,-0.393147,0.677318,0.305053,105.111903,-29.615056,-96.846297
37753,NaN,-6.177861,7.031204,-1.695053,0.826952,8.912310,-6.593503,0.441048,0.978050,0.048974,-0.544360,-0.395643,0.675457,0.301492,105.063711,-29.789658,-96.236540
37754,NaN,-6.031905,6.246411,-0.290907,-0.472413,8.362471,-7.503660,0.167907,0.956661,-0.333501,-0.546732,-0.398643,0.672468,0.299926,104.832499,-29.748429,-95.574362
37755,NaN,-6.015712,6.071023,0.989908,-1.753247,8.202166,-7.895400,0.060195,0.796016,-0.766131,-0.548112,-0.402553,0.668874,0.300220,104.556724,-29.440996,-94.943710
37756,NaN,-6.057735,5.935609,0.758528,-1.558549,8.151423,-7.908187,-0.059164,0.746439,-1.193786,-0.548905,-0.407474,0.664350,0.302170,104.200464,-28.886672,-94.279418
37757,NaN,-5.997510,6.240600,0.353797,-1.293333,8.226837,-7.428339,-0.118200,0.754349,-1.570126,-0.549240,-0.413471,0.658906,0.305319,103.790232,-28.119627,-93.559330
37758,NaN,-5.387924,6.788518,0.176318,-1.325786,7.900783,-6.501750,-0.189264,0.705662,-1.922338,-0.548976,-0.420320,0.652702,0.309737,103.344221,-27.145873,-92.828604
37759,NaN,-4.371821,7.268191,0.146013,-1.485993,7.131402,-5.466121,-0.226269,0.640179,-2.233024,-0.548026,-0.427933,0.645886,0.315235,102.893911,-25.984306,-92.109181
37760,NaN,-3.784107,7.982371,0.212042,-1.749619,6.787926,-4.432966,-0.274297,0.582183,-2.514008,-0.546468,-0.436162,0.638456,0.321728,102.436584,-24.654214,-91.404195
37761,NaN,-2.617715,8.732110,-0.186329,-1.556843,5.899146,-3.037136,-0.274260,0.543475,-2.725907,-0.544343,-0.444929,0.630553,0.328834,102.000653,-23.194785,-90.714185
37762,NaN,-1.560108,9.591352,-0.461925,-1.471762,5.068519,-1.640850,-0.320213,0.445744,-2.875287,-0.541660,-0.453788,0.622381,0.336634,101.578182,-21.636506,-90.083943
37763,NaN,-0.507746,10.039831,-0.397955,-1.603233,3.995077,-0.720058,-0.357286,0.230188,-2.971455,-0.538105,-0.462387,0.614373,0.345234,101.199112,-19.994610,-89.590418
37764,NaN,0.575024,10.566422,-0.346517,-1.711671,2.861929,0.235738,-0.367766,-0.020101,-3.029715,-0.533587,-0.470596,0.606749,0.354514,100.879640,-18.290897,-89.254703
37765,NaN,1.604493,10.986126,-0.705224,-1.380882,1.721030,1.090906,-0.375115,-0.322902,-3.010941,-0.528072,-0.478085,0.599820,0.364405,100.623075,-16.562556,-89.112261
37766,NaN,3.391035,11.268733,-0.995327,-1.074152,-0.234503,1.945491,-0.397908,-0.608273,-2.964781,-0.521721,-0.484742,0.593577,0.374831,100.406712,-14.831096,-89.150249
37767,NaN,5.465149,11.060562,-1.172293,-0.789941,-2.638334,2.269605,-0.417603,-0.799832,-2.934378,-0.514780,-0.490788,0.587727,0.385622,100.206804,-13.096000,-89.309150
37768,NaN,6.724919,11.167767,-1.563237,-0.378328,-4.189146,2.624442,-0.426705,-0.888788,-2.912819,-0.507526,-0.496457,0.582008,0.396503,100.009689,-11.365943,-89.526387
37769,NaN,7.506152,11.424155,-1.889319,-0.071625,-5.266074,2.941636,-0.432980,-0.898836,-2.832483,-0.500295,-0.501745,0.576363,0.407140,99.805763,-9.679789,-89.762552
37770,NaN,8.341779,11.472183,-2.071655,0.124425,-6.442454,2.991757,-0.467209,-0.871269,-2.692294,-0.493412,-0.506488,0.570811,0.417360,99.576328,-8.077561,-90.001691
37771,NaN,9.379225,10.945929,-2.071897,0.231116,-7.882312,2.429842,-0.508056,-0.826059,-2.510949,-0.487040,-0.510612,0.565407,0.427062,99.316483,-6.582033,-90.238466
37772,NaN,9.885213,10.394853,-2.277134,0.538925,-8.743447,1.772100,-0.558959,-0.749716,-2.282117,-0.481426,-0.514041,0.560203,0.436077,99.020274,-5.225138,-90.459210
37773,NaN,10.372255,9.886660,-2.702786,1.054382,-9.529117,1.174153,-0.562801,-0.654400,-2.041096,-0.476544,-0.516925,0.555301,0.444224,98.714581,-4.013395,-90.654061
37774,NaN,10.957946,9.564596,-3.054551,1.465872,-10.354147,0.747832,-0.564840,-0.529343,-1.779961,-0.472548,-0.519299,0.550714,0.451377,98.401566,-2.962216,-90.806317
37775,NaN,11.069980,8.590370,-3.509856,2.079551,-10.697925,-0.332018,-0.524615,-0.421373,-1.543369,-0.469236,-0.521319,0.546529,0.457548,98.107192,-2.054235,-90.922359
37776,NaN,10.921574,7.852912,-3.957002,2.645311,-10.721505,-1.172364,-0.423688,-0.371846,-1.319676,-0.466283,-0.523045,0.543011,0.462756,97.868984,-1.278324,-91.032116
37777,NaN,11.029787,7.250799,-4.158424,2.930110,-10.957838,-1.884214,-0.306789,-0.361511,-1.112785,-0.463509,-0.524483,0.540255,0.467120,97.696446,-0.620648,-91.154903
37778,NaN,11.277015,6.846908,-4.402871,3.212704,-11.302480,-2.371758,-0.157998,-0.339997,-0.907073,-0.460870,-0.525744,0.538322,0.470533,97.608062,-0.082122,-91.282556
37779,NaN,10.816201,7.127964,-4.576585,3.338907,-10.914940,-2.166900,-0.050604,-0.319693,-0.701075,-0.458479,-0.526736,0.537125,0.473120,97.580061,0.337902,-91.414857
37780,NaN,10.163038,7.294619,-4.376685,3.108639,-10.313242,-2.090829,0.031736,-0.314886,-0.486712,-0.456387,-0.527347,0.536671,0.474975,97.598366,0.635648,-91.560653
37781,NaN,7.337974,11.191068,-2.069802,0.342037,-7.496925,1.458898,0.325961,-0.244011,-0.337273,-0.454060,-0.528391,0.537144,0.475509,97.784999,0.843282,-91.677116
37782,NaN,7.663169,11.430074,1.578185,-3.336983,-7.725186,1.189468,-0.314661,-0.388248,0.058424,-0.453977,-0.526572,0.537463,0.477243,97.602716,0.837393,-91.905858
37783,NaN,-4.592960,12.514730,-1.869697,0.337695,4.386089,2.909641,0.207898,-0.340606,-0.151467,-0.452143,-0.526614,0.538366,0.477920,97.720308,0.946665,-92.091441
37784,NaN,-7.198761,11.941429,-0.800469,-0.552894,7.001766,2.259179,0.025058,-0.175377,-0.378842,-0.450689,-0.527247,0.537856,0.479167,97.734653,1.172770,-92.165629
37785,NaN,0.018644,12.161612,1.256663,-2.878052,-0.161136,2.069027,-0.203097,0.228067,-0.106751,-0.451572,-0.527599,0.536607,0.479349,97.622424,1.213301,-92.031681
37786,NaN,2.479026,12.653559,-1.219318,-0.565074,-2.712268,2.839152,0.020669,0.247583,0.243801,-0.452756,-0.527561,0.536772,0.478087,97.637967,1.053512,-91.913393
37787,NaN,2.704362,12.637101,-2.673787,0.862152,-2.947700,3.021898,0.185079,0.163576,0.337716,-0.453504,-0.527440,0.537767,0.476390,97.746377,0.846557,-91.850150
37788,NaN,4.894581,10.999117,-4.153103,2.456144,-5.120415,1.586178,0.268928,0.175016,0.390021,-0.454183,-0.527393,0.539071,0.474317,97.902648,0.609031,-91.785019
37789,NaN,2.792123,12.553256,-0.682083,-1.150169,-2.864361,2.690020,0.245122,0.441555,0.395608,-0.455654,-0.527905,0.539724,0.471587,98.046249,0.346728,-91.569647
37790,NaN,-1.131821,10.895995,0.092991,-1.601216,1.131380,0.965450,0.215509,0.544718,0.381066,-0.457441,-0.528626,0.540026,0.468694,98.172119,0.084081,-91.295271
37791,NaN,-0.705572,9.171675,-0.455989,-0.851958,0.731096,-0.671308,0.324035,0.364678,0.406478,-0.458511,-0.529098,0.541057,0.465919,98.358971,-0.179162,-91.125719
37792,NaN,-0.005236,8.974272,-1.087114,-0.244800,0.059515,-0.776334,0.372677,0.248199,0.442693,-0.459215,-0.529308,0.542557,0.463235,98.573310,-0.453425,-91.026225
37793,NaN,0.066084,9.550305,-1.477194,0.020000,0.032911,-0.148680,0.364574,0.220092,0.444137,-0.459865,-0.529424,0.544103,0.460637,98.782668,-0.726702,-90.943716
37794,NaN,0.039220,9.757370,-1.809819,0.281618,0.105008,0.106619,0.381802,0.159826,0.442660,-0.460296,-0.529441,0.545817,0.458153,99.002073,-0.993853,-90.896284
37795,NaN,0.675636,9.741942,-1.837013,0.266179,-0.485850,0.108471,0.332713,0.117979,0.428424,-0.460708,-0.529282,0.547473,0.455941,99.193555,-1.249584,-90.872125
