// General information: 
//  MT Manager version: 2019.0.1 
//  XDA version: 2019.0.1 build 2740 rev 84096 built on 2019-01-30
// Device information: 
//  DeviceId: 00B4381A
//  ProductCode: MTW2-3A7G6
//  Firmware Version: 4.3.4
//  Hardware Version: 1.1.0
// Device settings: 
//  Filter Profile: human(46.1)
//  Option Flags: Orientation Smoother Disabled, AHS Disabled, ICC Disabled
// Coordinate system: ENU
PacketCounter,SampleTimeFine,Acc_X,Acc_Y,Acc_Z,FreeAcc_E,FreeAcc_N,FreeAcc_U,Gyr_X,Gyr_Y,Gyr_Z,Quat_q0,Quat_q1,Quat_q2,Quat_q3,Roll,Pitch,Yaw
54807,NaN,-4.355036,6.742343,5.501941,0.166007,-0.015704,-0.082884,0.038780,-0.079914,0.032333,-0.196505,0.150099,-0.439717,-0.863426,50.944873,25.595257,166.709280
54808,NaN,-4.171469,6.821895,5.224239,-0.001018,-0.248051,-0.264361,0.023812,-0.106547,0.037158,-0.196656,0.149535,-0.439785,-0.863455,50.946864,25.544210,166.666201
54809,NaN,-4.054667,6.808706,5.011435,-0.070406,-0.392248,-0.444952,0.022836,-0.099310,0.057909,-0.196717,0.148942,-0.439876,-0.863497,50.953611,25.485639,166.632631
54810,NaN,-3.988826,6.871066,4.907434,-0.139752,-0.497421,-0.488621,0.028718,-0.077140,0.068725,-0.196672,0.148432,-0.440017,-0.863524,50.970152,25.431166,166.616688
54811,NaN,-4.075209,7.018499,4.885748,-0.123638,-0.610829,-0.360239,0.028225,-0.031798,0.060462,-0.196561,0.148130,-0.440197,-0.863509,50.994947,25.396161,166.619688
54812,NaN,-4.159256,7.168289,4.917404,-0.117056,-0.680321,-0.200815,0.019558,-0.011382,0.058610,-0.196407,0.147935,-0.440356,-0.863496,51.018407,25.369911,166.632084
54813,NaN,-4.277605,7.253440,5.053726,-0.059716,-0.637099,-0.012637,0.006592,-0.009721,0.045446,-0.196289,0.147791,-0.440451,-0.863499,51.032765,25.349951,166.641080
54814,NaN,-4.236160,7.342937,5.332033,-0.158610,-0.448033,0.190735,-0.011931,-0.008299,0.017288,-0.196284,0.147730,-0.440447,-0.863513,51.031766,25.343214,166.638503
54815,NaN,-4.009193,7.356789,5.667046,-0.392355,-0.135429,0.293701,-0.047764,0.009376,0.007350,-0.196245,0.147808,-0.440298,-0.863585,51.012653,25.347149,166.642209
54816,NaN,-3.892629,7.280456,5.828754,-0.476168,0.059483,0.281949,-0.066495,0.063917,-0.009343,-0.196156,0.148171,-0.440109,-0.863639,50.991084,25.378308,166.664597
54817,NaN,-3.967591,7.174010,5.916892,-0.375542,0.171822,0.289156,-0.060837,0.103962,-0.028714,-0.196077,0.148732,-0.439974,-0.863630,50.978243,25.431711,166.697269
54818,NaN,-4.087677,7.100509,6.014821,-0.254862,0.268032,0.344457,-0.038333,0.135214,-0.041205,-0.195989,0.149446,-0.439952,-0.863537,50.982491,25.502779,166.742086
54819,NaN,-4.583127,7.167298,6.449961,0.098242,0.488270,0.851699,-0.040781,0.103739,-0.085486,-0.196164,0.150114,-0.439859,-0.863429,50.971342,25.581497,166.752809
54820,NaN,-4.477218,7.000595,6.494367,0.066644,0.633377,0.714658,-0.066161,-0.004744,-0.117760,-0.196693,0.150419,-0.439522,-0.863427,50.916654,25.636125,166.697928
54821,NaN,-4.052845,6.669924,6.110407,-0.122743,0.579168,0.081756,-0.055826,-0.008116,-0.004570,-0.196750,0.150444,-0.439316,-0.863515,50.887187,25.638543,166.686311
54822,NaN,-4.391382,6.434606,5.971860,0.297127,0.520709,-0.015132,-0.005886,0.028196,0.042141,-0.196562,0.150481,-0.439392,-0.863512,50.901742,25.633939,166.711705
54823,NaN,-4.548348,6.516701,5.945450,0.400841,0.425397,0.094966,0.028508,-0.002279,0.038289,-0.196496,0.150346,-0.439590,-0.863450,50.929474,25.619196,166.718644
54824,NaN,-4.397635,6.673780,5.696833,0.221565,0.171725,-0.001783,0.051460,-0.074134,0.037070,-0.196598,0.149896,-0.439810,-0.863393,50.954177,25.579886,166.691514
54825,NaN,-4.120293,6.851489,5.330632,-0.064929,-0.165055,-0.205196,0.044495,-0.131861,0.047136,-0.196777,0.149176,-0.439952,-0.863405,50.964665,25.514773,166.639893
54826,NaN,-4.051950,6.857419,5.044573,-0.092479,-0.390039,-0.393053,0.029095,-0.151126,0.053208,-0.196961,0.148380,-0.440010,-0.863470,50.963058,25.440506,166.581269
54827,NaN,-3.893357,6.894741,4.881966,-0.224987,-0.512320,-0.527421,0.028466,-0.130581,0.052741,-0.197104,0.147668,-0.440087,-0.863521,50.965566,25.373265,166.532151
54828,NaN,-3.714373,7.009160,4.778274,-0.418424,-0.621907,-0.582577,0.009128,-0.059147,0.075541,-0.196975,0.147239,-0.440166,-0.863583,50.975873,25.322251,166.527796
54829,NaN,-3.896780,7.075848,4.746412,-0.280885,-0.721249,-0.475565,-0.003708,0.024283,0.064088,-0.196700,0.147204,-0.440266,-0.863601,50.994815,25.305920,166.560043
54830,NaN,-4.052744,7.121671,4.865316,-0.173446,-0.679293,-0.308861,-0.025271,0.067328,0.043354,-0.196406,0.147426,-0.440297,-0.863614,51.006548,25.314843,166.605118
54831,NaN,-4.146496,7.183958,5.153406,-0.146080,-0.494492,-0.061051,-0.037345,0.092121,0.017986,-0.196141,0.147829,-0.440284,-0.863612,51.012950,25.343805,166.654618
54832,NaN,-4.173181,7.319668,5.476949,-0.219139,-0.306930,0.229609,-0.059423,0.100742,-0.013672,-0.195994,0.148354,-0.440158,-0.863619,51.002472,25.390164,166.693430
54833,NaN,-4.098626,7.286315,5.681427,-0.295020,-0.107194,0.290243,-0.091607,0.116871,-0.013602,-0.195781,0.148981,-0.439911,-0.863686,50.977390,25.442056,166.741065
54834,NaN,-4.096535,7.175556,5.851366,-0.270547,0.089681,0.307956,-0.098878,0.138639,-0.029017,-0.195588,0.149742,-0.439640,-0.863736,50.949769,25.508947,166.792422
54835,NaN,-4.261272,7.020329,5.968161,-0.076613,0.233541,0.336302,-0.080817,0.139711,-0.056433,-0.195530,0.150543,-0.439429,-0.863717,50.928094,25.587911,166.832350
54836,NaN,-4.377644,7.041820,6.213894,-0.020459,0.400322,0.541190,-0.045983,0.133951,-0.054117,-0.195495,0.151287,-0.439363,-0.863629,50.925559,25.664303,166.871358
54837,NaN,-4.505833,7.048124,6.317133,0.067062,0.458364,0.659664,-0.037390,0.132412,-0.033338,-0.195386,0.151962,-0.439349,-0.863542,50.931389,25.730331,166.916955
54838,NaN,-4.880408,6.824896,6.525887,0.470710,0.673001,0.784967,-0.062576,0.044154,-0.068843,-0.195599,0.152367,-0.439112,-0.863543,50.897603,25.780842,166.905740
54839,NaN,-4.538319,6.542363,6.266162,0.319386,0.676795,0.291944,-0.060613,-0.046003,-0.091357,-0.196105,0.152426,-0.438780,-0.863586,50.842020,25.808184,166.841195
54840,NaN,-4.195530,6.399993,5.825383,0.123395,0.458605,-0.206860,-0.021316,-0.013856,0.007439,-0.196147,0.152372,-0.438722,-0.863616,50.832716,25.803802,166.831933
54841,NaN,-4.492233,6.543141,5.741279,0.325040,0.252938,-0.025680,0.030621,-0.003387,0.023178,-0.196156,0.152260,-0.438917,-0.863534,50.858580,25.795211,166.831391
54842,NaN,-4.556650,6.730491,5.551954,0.314653,-0.014219,0.025379,0.036517,-0.089188,0.021800,-0.196346,0.151793,-0.439046,-0.863508,50.868757,25.757209,166.790718
54843,NaN,-4.176891,6.769252,5.319853,-0.006853,-0.148554,-0.244620,0.031999,-0.162969,0.033357,-0.196650,0.150977,-0.439097,-0.863556,50.863151,25.686736,166.717308
54844,NaN,-3.800927,6.777033,5.100974,-0.309023,-0.256969,-0.526482,0.034426,-0.161220,0.066215,-0.196805,0.150103,-0.439179,-0.863631,50.864576,25.602945,166.658987
54845,NaN,-3.853162,6.875974,4.928986,-0.282425,-0.462861,-0.532236,0.051495,-0.132998,0.066228,-0.196928,0.149312,-0.439369,-0.863643,50.882351,25.528103,166.611606
54846,NaN,-4.065283,7.019444,4.874102,-0.148109,-0.627693,-0.371287,0.059646,-0.084443,0.074169,-0.196898,0.148728,-0.439641,-0.863613,50.916021,25.468552,166.594305
54847,NaN,-4.051832,7.138992,4.922740,-0.210878,-0.646474,-0.265252,0.036632,-0.043009,0.076569,-0.196744,0.148340,-0.439858,-0.863604,50.946108,25.422680,166.599124
54848,NaN,-4.112483,7.228151,5.141812,-0.211666,-0.524714,-0.051705,0.020762,0.007862,0.052740,-0.196574,0.148239,-0.440037,-0.863569,50.973340,25.405993,166.618683
54849,NaN,-4.126848,7.296291,5.434747,-0.254257,-0.322047,0.169038,-0.018273,0.046135,0.018163,-0.196446,0.148410,-0.440062,-0.863556,50.980672,25.417899,166.642373
54850,NaN,-3.929715,7.237335,5.630663,-0.420058,-0.088485,0.154347,-0.058592,0.088614,0.003692,-0.196252,0.148844,-0.439941,-0.863587,50.971122,25.452171,166.682137
54851,NaN,-4.012805,7.099837,5.729522,-0.299478,0.049292,0.149520,-0.066457,0.144353,-0.023430,-0.196053,0.149576,-0.439824,-0.863565,50.964579,25.517973,166.737442
54852,NaN,-4.210157,7.114948,5.914922,-0.163665,0.154563,0.350162,-0.054091,0.177414,-0.072291,-0.195994,0.150556,-0.439752,-0.863445,50.963497,25.618112,166.790658
54853,NaN,-4.396258,7.164903,6.194937,-0.065684,0.322179,0.624363,-0.051976,0.161016,-0.075191,-0.195979,0.151468,-0.439674,-0.863329,50.960219,25.713257,166.835442
54854,NaN,-4.590716,7.123161,6.251954,0.102646,0.351124,0.711911,-0.075818,0.069463,-0.119577,-0.196346,0.152107,-0.439366,-0.863290,50.915452,25.795478,166.816413
54855,NaN,-4.122514,6.872902,5.959671,-0.177605,0.336433,0.167535,-0.113144,0.035181,-0.098099,-0.196674,0.152576,-0.438883,-0.863378,50.845922,25.855001,166.787601
54856,NaN,-4.249983,6.492079,5.822451,0.116741,0.397370,-0.120482,-0.071318,0.066287,-0.024237,-0.196639,0.152987,-0.438664,-0.863425,50.819666,25.893689,166.805161
54857,NaN,-4.508019,6.451740,5.928943,0.346228,0.452685,0.024728,-0.020956,0.048710,-0.009921,-0.196616,0.153239,-0.438658,-0.863388,50.821358,25.919251,166.820128
54858,NaN,-4.530640,6.690572,5.898248,0.254043,0.296254,0.183686,0.019659,-0.007583,0.009190,-0.196669,0.153168,-0.438784,-0.863325,50.837174,25.916359,166.814660
54859,NaN,-4.449025,6.856038,5.733238,0.122273,0.090418,0.169596,0.029722,-0.065215,0.009769,-0.196865,0.152823,-0.438903,-0.863280,50.846847,25.891482,166.779016
54860,NaN,-4.236742,6.943411,5.487540,-0.076633,-0.114046,-0.001717,0.022949,-0.086785,0.039364,-0.196964,0.152341,-0.438989,-0.863300,50.852782,25.846533,166.746569
54861,NaN,-4.172813,6.921390,5.267363,-0.094454,-0.269451,-0.169991,0.022604,-0.068985,0.056699,-0.196958,0.151885,-0.439109,-0.863320,50.865786,25.799531,166.728203
54862,NaN,-4.114628,6.989821,5.031753,-0.149577,-0.485901,-0.281275,0.028066,-0.040414,0.057575,-0.196880,0.151559,-0.439276,-0.863310,50.887833,25.763266,166.725958
54863,NaN,-4.159172,7.012193,4.957413,-0.108232,-0.565902,-0.288322,0.014863,-0.013320,0.067345,-0.196686,0.151336,-0.439425,-0.863318,50.910611,25.731873,166.741442
54864,NaN,-4.221481,7.034558,5.015556,-0.063833,-0.541146,-0.212438,0.010438,-0.003673,0.065572,-0.196479,0.151168,-0.439558,-0.863327,50.931810,25.705323,166.760511
54865,NaN,-4.217779,7.037110,5.015090,-0.064277,-0.540241,-0.212390,-0.001895,0.011505,0.045229,-0.196319,0.151115,-0.439642,-0.863329,50.946266,25.692723,166.778602
54866,NaN,-4.189908,7.090298,5.251752,-0.133586,-0.367875,-0.052801,-0.013514,0.032642,0.026168,-0.196184,0.151214,-0.439678,-0.863325,50.954658,25.696804,166.799800
54867,NaN,-4.268029,7.113017,5.552209,-0.104115,-0.149890,0.167533,-0.040099,0.040500,0.000405,-0.196130,0.151419,-0.439591,-0.863345,50.945382,25.714554,166.813439
54868,NaN,-4.092901,6.984665,5.667246,-0.211905,0.047409,0.066984,-0.063157,0.046834,-0.015230,-0.196105,0.151719,-0.439395,-0.863398,50.921183,25.742182,166.825057
54869,NaN,-4.153773,6.913604,5.849972,-0.148349,0.221440,0.147377,-0.050930,0.091225,-0.026862,-0.196055,0.152209,-0.439290,-0.863377,50.911651,25.790236,166.851888
54870,NaN,-4.389320,6.961713,6.048644,0.007539,0.310672,0.396186,-0.046775,0.101310,-0.046596,-0.196059,0.152796,-0.439194,-0.863321,50.903091,25.851499,166.877823
54871,NaN,-4.435266,6.963821,6.237293,0.019372,0.453904,0.524808,-0.056973,0.049167,-0.058556,-0.196228,0.153185,-0.438997,-0.863314,50.875745,25.898607,166.871982
54872,NaN,-4.520037,6.866788,6.118278,0.141055,0.386271,0.426830,-0.080784,-0.010043,-0.095434,-0.196660,0.153432,-0.438608,-0.863369,50.815085,25.941308,166.823214
54873,NaN,-4.197003,6.731871,5.789485,-0.055368,0.249211,0.004943,-0.084064,0.011238,-0.047160,-0.196835,0.153664,-0.438265,-0.863462,50.766084,25.969786,166.804255
54874,NaN,-4.368168,6.644019,5.828826,0.127163,0.289503,0.041200,-0.041130,0.022958,-0.018670,-0.196894,0.153846,-0.438138,-0.863481,50.748750,25.990318,166.802630
54875,NaN,-4.300350,6.744548,5.745720,0.025003,0.179760,0.034256,-0.010615,-0.023880,-0.030439,-0.197131,0.153814,-0.438090,-0.863457,50.737092,25.998433,166.772734
54876,NaN,-4.149607,6.881784,5.601300,-0.157964,0.017790,-0.018430,0.014017,-0.059852,0.003634,-0.197318,0.153536,-0.438136,-0.863440,50.737386,25.979042,166.739230
54877,NaN,-4.079170,6.984507,5.463488,-0.251085,-0.136120,-0.056095,0.021292,-0.074139,0.024627,-0.197453,0.153134,-0.438218,-0.863439,50.742637,25.944378,166.706497
54878,NaN,-4.114291,6.955258,5.315472,-0.186708,-0.248771,-0.145191,0.019466,-0.062623,0.046113,-0.197467,0.152745,-0.438317,-0.863455,50.752981,25.905140,166.688763
54879,NaN,-4.175349,7.014551,5.230932,-0.147121,-0.361482,-0.125181,0.029278,-0.045632,0.049812,-0.197440,0.152402,-0.438482,-0.863437,50.773585,25.869759,166.679851
54880,NaN,-4.248210,6.993907,5.269501,-0.070494,-0.331775,-0.085683,0.034019,-0.034397,0.059852,-0.197344,0.152090,-0.438683,-0.863413,50.800763,25.834657,166.681552
54881,NaN,-4.267100,7.021577,5.171280,-0.050916,-0.428533,-0.113894,0.026100,-0.038460,0.074372,-0.197187,0.151734,-0.438858,-0.863422,50.825269,25.791303,166.686974
54882,NaN,-4.165922,7.003157,5.165336,-0.123482,-0.400661,-0.174014,0.012197,-0.013518,0.066810,-0.196998,0.151518,-0.438990,-0.863436,50.845621,25.760664,166.701737
54883,NaN,-4.307807,7.009815,5.240337,-0.005342,-0.370347,-0.064936,-0.004847,0.027336,0.039373,-0.196823,0.151553,-0.439070,-0.863429,50.860496,25.756555,166.725710
54884,NaN,-4.387482,7.040807,5.463256,0.029892,-0.219700,0.118121,-0.025788,0.043958,0.021914,-0.196672,0.151722,-0.439060,-0.863439,50.863564,25.766648,166.750788
54885,NaN,-4.291809,6.999695,5.557180,-0.044569,-0.100926,0.101213,-0.042638,0.044106,0.021601,-0.196510,0.151904,-0.438979,-0.863485,50.857065,25.776518,166.775665
54886,NaN,-4.226285,6.913742,5.764697,-0.083419,0.127758,0.130640,-0.061011,0.076784,0.013288,-0.196298,0.152268,-0.438843,-0.863538,50.845505,25.802321,166.813481
54887,NaN,-4.164334,6.854003,5.850242,-0.123624,0.242295,0.110536,-0.062845,0.105414,-0.006748,-0.196117,0.152791,-0.438717,-0.863551,50.836092,25.846704,166.856103
54888,NaN,-4.263727,6.763000,5.913355,-0.007616,0.323497,0.126155,-0.048352,0.110920,-0.010024,-0.195940,0.153341,-0.438652,-0.863527,50.835105,25.895224,166.901416
54889,NaN,-4.605340,6.864725,6.236216,0.204303,0.464944,0.529753,-0.031442,0.088240,-0.050467,-0.196013,0.153848,-0.438612,-0.863440,50.832321,25.952462,166.917225
54890,NaN,-4.588532,6.964525,6.232187,0.132289,0.409431,0.589921,-0.052986,-0.012368,-0.113222,-0.196549,0.154097,-0.438326,-0.863420,50.783880,26.002190,166.860088
54891,NaN,-4.112779,6.849534,5.837475,-0.198825,0.240390,0.077200,-0.058665,-0.019657,-0.023295,-0.196711,0.154115,-0.438081,-0.863503,50.746891,26.008773,166.834923
54892,NaN,-4.400669,6.708259,5.765272,0.125676,0.195334,0.064106,-0.021660,-0.004595,0.007624,-0.196732,0.154102,-0.438031,-0.863527,50.739397,26.007647,166.830297
54893,NaN,-4.477343,6.784888,5.825093,0.152451,0.185134,0.185087,-0.008386,-0.063709,0.004245,-0.196910,0.153820,-0.437978,-0.863563,50.726121,25.985991,166.794452
54894,NaN,-4.314322,6.825158,5.773501,0.001146,0.151783,0.112353,0.018851,-0.120410,0.020731,-0.197160,0.153238,-0.437998,-0.863599,50.719147,25.937041,166.737985
54895,NaN,-4.109742,6.972329,5.529483,-0.216186,-0.087138,-0.013494,0.033163,-0.134888,0.034537,-0.197394,0.152542,-0.438080,-0.863628,50.720025,25.876196,166.679470
54896,NaN,-4.069559,7.077027,5.231064,-0.264830,-0.380405,-0.127916,0.031201,-0.106418,0.038257,-0.197546,0.151970,-0.438180,-0.863643,50.726334,25.824548,166.637015
54897,NaN,-4.093295,7.081937,5.125470,-0.229234,-0.474780,-0.174151,0.018469,-0.069759,0.043000,-0.197597,0.151544,-0.438272,-0.863659,50.734678,25.783217,166.613028
54898,NaN,-4.222903,7.048006,5.104382,-0.091497,-0.500619,-0.153339,0.023399,-0.055568,0.039668,-0.197625,0.151196,-0.438390,-0.863654,50.747715,25.749393,166.596203
54899,NaN,-4.079465,7.107105,5.082877,-0.237356,-0.519686,-0.186567,0.018543,-0.063126,0.037269,-0.197673,0.150821,-0.438481,-0.863662,50.756365,25.713381,166.575039
54900,NaN,-3.938037,7.053467,5.065589,-0.329639,-0.475763,-0.295087,-0.011473,-0.018858,0.043140,-0.197580,0.150658,-0.438487,-0.863709,50.757884,25.691325,166.577688
54901,NaN,-4.091966,6.986932,5.244150,-0.177473,-0.326510,-0.172956,-0.024132,0.029458,0.013872,-0.197508,0.150768,-0.438469,-0.863715,50.757713,25.699034,166.590744
54902,NaN,-4.104183,6.979025,5.507928,-0.188761,-0.108643,-0.022849,-0.031760,0.066317,0.005663,-0.197374,0.151075,-0.438444,-0.863705,50.759269,25.724480,166.620266
54903,NaN,-4.080724,6.944695,5.681903,-0.214304,0.057631,0.042051,-0.058384,0.102512,-0.010436,-0.197217,0.151590,-0.438332,-0.863708,50.751017,25.769536,166.660098
54904,NaN,-4.108010,6.855810,5.696367,-0.159223,0.112292,-0.000017,-0.069938,0.141565,-0.021828,-0.197008,0.152320,-0.438195,-0.863696,50.742069,25.834464,166.715648
54905,NaN,-4.319356,6.824911,5.807097,0.018241,0.177949,0.133498,-0.063158,0.175264,-0.026689,-0.196756,0.153191,-0.438121,-0.863637,50.743920,25.913176,166.785076
54906,NaN,-4.702707,6.895560,6.033036,0.285563,0.249777,0.478948,-0.048944,0.172142,-0.037344,-0.196563,0.154066,-0.438092,-0.863540,50.751032,25.996073,166.849531
54907,NaN,-5.081586,6.975205,6.292913,0.540480,0.342577,0.848797,-0.070835,0.068620,-0.100960,-0.196862,0.154644,-0.437822,-0.863506,50.712345,26.068923,166.836044
54908,NaN,-4.458449,6.819179,6.075943,0.078188,0.370461,0.343724,-0.085927,-0.037298,-0.109149,-0.197408,0.154808,-0.437371,-0.863580,50.640165,26.107674,166.768069
54909,NaN,-4.238255,6.676255,5.710457,-0.017662,0.187266,-0.060296,-0.047827,-0.023945,-0.040449,-0.197665,0.154831,-0.437158,-0.863626,50.605497,26.120068,166.733431
54910,NaN,-4.350670,6.742141,5.685607,0.048337,0.105126,0.020803,-0.031683,0.010491,-0.016609,-0.197750,0.154946,-0.437060,-0.863635,50.591205,26.135144,166.726427
54911,NaN,-4.541420,6.857972,5.838260,0.143359,0.126429,0.272203,-0.005568,-0.029398,-0.026464,-0.197992,0.154872,-0.437032,-0.863607,50.581724,26.139294,166.694446
54912,NaN,-4.374288,6.947552,5.729858,-0.034949,0.021006,0.198930,-0.008243,-0.098410,-0.037750,-0.198424,0.154539,-0.436912,-0.863628,50.553441,26.124091,166.625183
54913,NaN,-4.132625,6.957636,5.456233,-0.222284,-0.162101,-0.056557,0.005162,-0.122648,-0.023196,-0.198870,0.154041,-0.436843,-0.863649,50.530847,26.092725,166.547900
54914,NaN,-4.073392,7.016487,5.301355,-0.284002,-0.310976,-0.130197,0.020016,-0.099022,-0.014364,-0.199224,0.153627,-0.436862,-0.863632,50.522867,26.066911,166.487862
54915,NaN,-3.980574,7.113305,5.163463,-0.395886,-0.457656,-0.182565,0.012516,-0.069805,-0.014244,-0.199507,0.153340,-0.436881,-0.863608,50.517464,26.051126,166.442248
54916,NaN,-3.980044,7.029455,5.047750,-0.344506,-0.508346,-0.307075,-0.011443,-0.042253,-0.009122,-0.199690,0.153190,-0.436825,-0.863621,50.504704,26.043663,166.412300
54917,NaN,-3.883556,6.875953,5.146102,-0.364505,-0.326481,-0.399736,-0.017234,-0.005686,-0.011387,-0.199801,0.153202,-0.436782,-0.863615,50.496565,26.049918,166.398910
54918,NaN,-3.973050,6.797973,5.241999,-0.260741,-0.224730,-0.359771,-0.010857,0.046077,-0.022364,-0.199849,0.153462,-0.436806,-0.863545,50.500871,26.080496,166.407058
54919,NaN,-4.218234,6.894874,5.461376,-0.119058,-0.146893,-0.059552,-0.006303,0.081030,-0.035635,-0.199883,0.153891,-0.436879,-0.863424,50.513588,26.129145,166.426708
54920,NaN,-4.273880,6.966680,5.624095,-0.128314,-0.061352,0.107539,-0.021416,0.085592,-0.048849,-0.199951,0.154390,-0.436876,-0.863321,50.515707,26.185829,166.443590
54921,NaN,-4.270904,6.903952,5.623481,-0.110652,-0.025703,0.062321,-0.045551,0.094138,-0.053190,-0.200015,0.154943,-0.436780,-0.863255,50.505533,26.246639,166.460712
54922,NaN,-4.210758,6.760197,5.644132,-0.107388,0.081588,-0.052115,-0.063870,0.109645,-0.057888,-0.200036,0.155608,-0.436611,-0.863216,50.486983,26.316091,166.485777
54923,NaN,-4.156711,6.677206,5.772807,-0.139721,0.242919,-0.060247,-0.067747,0.130760,-0.065775,-0.200040,0.156380,-0.436445,-0.863160,50.470061,26.396186,166.518118
54924,NaN,-4.315875,6.644303,5.966456,-0.019542,0.387281,0.098000,-0.057641,0.169595,-0.080158,-0.200032,0.157346,-0.436344,-0.863037,50.464281,26.497353,166.563695
54925,NaN,-4.633075,6.803858,6.184098,0.140008,0.416799,0.473594,-0.038819,0.162735,-0.106139,-0.200164,0.158317,-0.436301,-0.862851,50.463590,26.607143,166.595367
54926,NaN,-4.987786,6.819349,6.311058,0.408898,0.438970,0.715895,-0.066559,0.066042,-0.164516,-0.200737,0.159028,-0.435991,-0.862744,50.414446,26.707805,166.555346
54927,NaN,-4.634775,6.734464,5.976857,0.158601,0.280274,0.309231,-0.067562,0.008890,-0.173338,-0.201480,0.159503,-0.435618,-0.862671,50.350918,26.790733,166.482202
54928,NaN,-4.594847,6.680470,5.693631,0.164732,0.081894,0.093113,-0.046156,0.024566,-0.101351,-0.201887,0.159877,-0.435405,-0.862614,50.315675,26.848301,166.447305
54929,NaN,-4.765366,6.638940,5.617869,0.329313,0.004264,0.098731,-0.029094,0.018065,-0.119093,-0.202413,0.160230,-0.435249,-0.862504,50.285733,26.910453,166.399701
54930,NaN,-4.679450,6.741496,5.513191,0.204578,-0.121325,0.070820,-0.013575,-0.037229,-0.132769,-0.203116,0.160373,-0.435088,-0.862394,50.249364,26.959196,166.321246
54931,NaN,-4.371646,6.819385,5.408738,-0.097587,-0.187805,-0.074878,-0.008415,-0.078754,-0.120372,-0.203869,0.160294,-0.434919,-0.862316,50.209062,26.986565,166.225924
54932,NaN,-4.222384,6.854967,5.303902,-0.240152,-0.265004,-0.178241,0.000525,-0.079074,-0.121598,-0.204626,0.160218,-0.434785,-0.862218,50.173341,27.014948,166.131278
54933,NaN,-4.171750,6.891539,5.247277,-0.303500,-0.322775,-0.208812,0.008590,-0.051349,-0.131492,-0.205398,0.160250,-0.434713,-0.862065,50.146860,27.056596,166.042250
54934,NaN,-4.155301,7.003249,5.222036,-0.379702,-0.400964,-0.154699,0.004314,-0.014335,-0.130611,-0.206057,0.160468,-0.434654,-0.861897,50.126007,27.112637,165.975764
54935,NaN,-4.212530,7.007882,5.224527,-0.344295,-0.413729,-0.124458,-0.002655,0.017826,-0.139700,-0.206681,0.160846,-0.434593,-0.861708,50.106913,27.183960,165.920792
54936,NaN,-4.337441,7.029253,5.339066,-0.272834,-0.358167,0.012112,-0.015838,0.056939,-0.152861,-0.207264,0.161441,-0.434502,-0.861503,50.086217,27.275936,165.880209
54937,NaN,-4.445932,7.032221,5.419360,-0.206638,-0.316840,0.109247,-0.024309,0.077976,-0.181533,-0.207932,0.162180,-0.434378,-0.861265,50.060288,27.387249,165.835897
54938,NaN,-4.548954,7.095062,5.420838,-0.171527,-0.371117,0.199864,-0.031303,0.084328,-0.222879,-0.208743,0.163061,-0.434191,-0.860997,50.023371,27.520019,165.779654
54939,NaN,-4.628325,7.048381,5.402204,-0.103747,-0.379361,0.193817,-0.052419,0.083922,-0.258548,-0.209703,0.164025,-0.433891,-0.860732,49.967968,27.667495,165.706612
54940,NaN,-4.547949,6.933168,5.388228,-0.141635,-0.314344,0.069960,-0.066655,0.075791,-0.283192,-0.210763,0.165036,-0.433492,-0.860481,49.896668,27.823466,165.620568
54941,NaN,-4.537116,6.832662,5.433027,-0.134359,-0.225353,0.021923,-0.058410,0.066231,-0.315172,-0.211999,0.166051,-0.433097,-0.860180,49.821799,27.988824,165.514268
54942,NaN,-4.411608,6.809455,5.491271,-0.267265,-0.141326,-0.020163,-0.052466,0.064227,-0.337639,-0.213329,0.167114,-0.432700,-0.859846,49.744406,28.164139,165.398938
54943,NaN,-4.383553,6.794645,5.576843,-0.324578,-0.061242,0.004376,-0.059798,0.057758,-0.346615,-0.214726,0.168153,-0.432263,-0.859515,49.659462,28.339536,165.272883
54944,NaN,-4.497607,6.674507,5.716360,-0.213025,0.086847,0.056521,-0.050927,0.050283,-0.361198,-0.216187,0.169204,-0.431834,-0.859158,49.573839,28.519659,165.139726
54945,NaN,-4.691114,6.656993,5.847161,-0.085590,0.154232,0.211294,-0.044225,0.018280,-0.364141,-0.217749,0.170100,-0.431400,-0.858805,49.483363,28.687964,164.986613
54946,NaN,-4.632135,6.554597,5.815227,-0.109121,0.189030,0.096327,-0.052156,-0.031125,-0.357852,-0.219370,0.170795,-0.430878,-0.858517,49.377069,28.835913,164.813371
54947,NaN,-4.399057,6.424051,5.831149,-0.266493,0.316180,-0.094077,-0.057688,-0.042345,-0.341728,-0.220956,0.171394,-0.430338,-0.858261,49.267994,28.971420,164.638254
54948,NaN,-4.395122,6.247741,5.870845,-0.206914,0.435008,-0.190520,-0.060776,-0.007679,-0.319788,-0.222354,0.172116,-0.429835,-0.858008,49.169050,29.111067,164.491850
54949,NaN,-4.431573,6.163880,5.788566,-0.149818,0.397959,-0.275452,-0.062625,0.044505,-0.312535,-0.223623,0.173028,-0.429394,-0.857715,49.083166,29.265869,164.371320
54950,NaN,-4.146696,6.112915,5.619951,-0.372868,0.352120,-0.545348,-0.047029,0.106113,-0.302668,-0.224714,0.174185,-0.429089,-0.857348,49.022267,29.440464,164.287881
54951,NaN,-3.928653,6.089731,5.593308,-0.571948,0.395885,-0.684693,-0.059799,0.211633,-0.299370,-0.225565,0.175786,-0.428855,-0.856915,48.980616,29.652377,164.255908
54952,NaN,-4.245291,6.123841,5.708222,-0.375026,0.403443,-0.442299,-0.049284,0.320249,-0.296730,-0.226167,0.177849,-0.428783,-0.856366,48.971821,29.904839,164.281065
54953,NaN,-4.891475,6.266780,5.938336,0.019043,0.376344,0.102992,-0.020625,0.377329,-0.298610,-0.226693,0.180109,-0.428901,-0.855696,48.993823,30.178450,164.331829
54954,NaN,-5.288662,6.339960,5.923334,0.267046,0.248811,0.341992,-0.010482,0.356227,-0.290292,-0.227222,0.182267,-0.429037,-0.855030,49.018118,30.441638,164.378098
54955,NaN,-5.476551,6.509174,5.744418,0.309795,-0.014965,0.447135,-0.010931,0.316831,-0.267484,-0.227767,0.184178,-0.429155,-0.854416,49.037827,30.678770,164.410256
54956,NaN,-5.711578,6.508487,5.539593,0.490895,-0.223722,0.452714,-0.009686,0.248416,-0.266104,-0.228423,0.185821,-0.429190,-0.853867,49.040737,30.890975,164.413207
54957,NaN,-5.965270,6.501275,5.360474,0.693820,-0.416180,0.479593,0.012826,0.151276,-0.241221,-0.229241,0.186933,-0.429243,-0.853378,49.037147,31.054305,164.372089
54958,NaN,-5.963615,6.473382,5.320809,0.687824,-0.429817,0.440240,0.026228,0.023516,-0.227263,-0.230247,0.187490,-0.429208,-0.853003,49.010717,31.165210,164.278400
54959,NaN,-5.702445,6.468679,5.387483,0.449847,-0.313579,0.340438,0.048839,-0.073849,-0.221045,-0.231499,0.187552,-0.429176,-0.852667,48.973252,31.234836,164.131490
54960,NaN,-5.342252,6.441130,5.476475,0.143869,-0.146369,0.186185,0.029878,-0.100945,-0.235307,-0.232808,0.187591,-0.429005,-0.852388,48.914023,31.302266,163.971010
54961,NaN,-4.907849,6.268760,5.445472,-0.127429,0.016689,-0.167949,0.031812,-0.066345,-0.241117,-0.234106,0.187752,-0.428885,-0.852057,48.863516,31.383210,163.819651
54962,NaN,-4.524548,6.113972,5.337094,-0.358339,0.098270,-0.528364,0.022104,-0.018511,-0.239253,-0.235247,0.188159,-0.428772,-0.851710,48.820043,31.483182,163.698681
54963,NaN,-4.216849,5.940843,5.348756,-0.532639,0.273759,-0.794598,0.026864,0.075038,-0.230621,-0.236174,0.188918,-0.428803,-0.851269,48.806038,31.613321,163.625577
54964,NaN,-4.414866,5.842208,5.642535,-0.374922,0.527519,-0.590882,0.049089,0.234255,-0.250158,-0.236844,0.190391,-0.429091,-0.850610,48.842130,31.813311,163.627512
54965,NaN,-4.943600,5.929153,5.975369,-0.067561,0.648894,-0.072397,0.096481,0.387778,-0.276430,-0.237372,0.192484,-0.429747,-0.849660,48.941295,32.080655,163.691352
54966,NaN,-5.337370,6.224956,6.155806,0.018770,0.581902,0.424124,0.140523,0.480021,-0.284515,-0.237746,0.194966,-0.430677,-0.848518,49.089103,32.387851,163.804489
54967,NaN,-5.633471,6.381703,6.189011,0.118019,0.494134,0.699572,0.113358,0.461562,-0.289615,-0.238174,0.197385,-0.431467,-0.847436,49.216194,32.688523,163.903425
54968,NaN,-6.120843,6.195976,5.952533,0.600497,0.309979,0.714922,0.069005,0.368355,-0.353277,-0.239006,0.199624,-0.431886,-0.846464,49.277365,32.983408,163.930507
54969,NaN,-6.181318,6.029855,5.560310,0.752994,0.079259,0.429941,0.118882,0.261360,-0.323713,-0.240033,0.201245,-0.432428,-0.845512,49.344614,33.223389,163.909336
54970,NaN,-6.324216,5.919195,5.083603,0.961255,-0.272269,0.181179,0.147997,0.184502,-0.272857,-0.240999,0.202436,-0.433038,-0.844641,49.418931,33.414664,163.877607
54971,NaN,-6.306694,5.825121,4.893495,1.003594,-0.362175,0.011482,0.219950,0.027601,-0.259464,-0.242380,0.202790,-0.433793,-0.843772,49.493045,33.538883,163.760873
54972,NaN,-6.114316,5.880820,4.999356,0.790639,-0.247006,-0.000637,0.284600,-0.160364,-0.233066,-0.244061,0.202272,-0.434600,-0.842996,49.555884,33.584618,163.567010
54973,NaN,-6.045268,6.064448,5.055643,0.621340,-0.272924,0.108087,0.330956,-0.367505,-0.205936,-0.246178,0.200714,-0.435390,-0.842346,49.592292,33.539183,163.268553
54974,NaN,-5.012124,6.243464,5.199698,-0.318040,0.006683,-0.271310,0.342580,-0.409483,-0.210252,-0.248359,0.199023,-0.436154,-0.841711,49.622226,33.482699,162.954661
54975,NaN,-4.511215,6.299917,5.206129,-0.743735,0.113767,-0.507974,0.352898,-0.305207,-0.227261,-0.250448,0.197739,-0.437087,-0.840910,49.684655,33.469740,162.679419
54976,NaN,-4.457163,6.371905,5.277701,-0.837018,0.166661,-0.453564,0.352814,-0.162457,-0.247430,-0.252253,0.197153,-0.438159,-0.839950,49.782831,33.521567,162.478429
54977,NaN,-4.640466,6.366477,5.328965,-0.700555,0.189023,-0.329162,0.358236,-0.011546,-0.258882,-0.253826,0.197170,-0.439442,-0.838801,49.924812,33.631968,162.344198
54978,NaN,-4.805585,6.396866,5.283223,-0.597746,0.125010,-0.244358,0.358575,0.135921,-0.260384,-0.255034,0.197855,-0.440898,-0.837508,50.109764,33.800159,162.294754
54979,NaN,-4.934770,6.367556,5.232249,-0.494325,0.102285,-0.220027,0.365091,0.276397,-0.262533,-0.255944,0.199121,-0.442557,-0.836054,50.339987,34.020640,162.319683
54980,NaN,-5.264271,6.361308,5.099875,-0.243574,-0.043695,-0.110831,0.372504,0.364890,-0.257328,-0.256644,0.200736,-0.444360,-0.834496,50.602761,34.271299,162.395211
54981,NaN,-5.267290,6.485092,4.893499,-0.325104,-0.226756,-0.138512,0.387717,0.427825,-0.264949,-0.257247,0.202608,-0.446297,-0.832822,50.893011,34.547539,162.503104
54982,NaN,-5.362658,6.702364,4.982293,-0.426511,-0.220716,0.100537,0.421924,0.478145,-0.280682,-0.257837,0.204680,-0.448419,-0.830992,51.215870,34.848745,162.633386
54983,NaN,-5.855261,6.909400,5.232501,-0.231647,-0.164056,0.643027,0.429649,0.448518,-0.297231,-0.258564,0.206651,-0.450513,-0.829143,51.532023,35.145838,162.742954
54984,NaN,-5.855369,6.809934,5.299007,-0.212253,-0.005422,0.612985,0.386348,0.331390,-0.274776,-0.259417,0.208142,-0.452294,-0.827532,51.793184,35.391078,162.799846
54985,NaN,-5.748870,6.368140,5.162199,-0.034054,0.150613,0.198656,0.365895,0.235179,-0.237133,-0.260306,0.209173,-0.453903,-0.826111,52.022494,35.584808,162.821424
54986,NaN,-5.745532,6.086134,5.118355,0.123665,0.280923,-0.006803,0.385412,0.171293,-0.210880,-0.261253,0.209856,-0.455532,-0.824741,52.249212,35.744452,162.819611
54987,NaN,-5.986291,6.088443,5.206619,0.286890,0.333868,0.178301,0.399631,0.074086,-0.182092,-0.262314,0.210050,-0.457122,-0.823475,52.460258,35.856696,162.776770
54988,NaN,-5.842731,6.213989,5.128284,0.099043,0.274614,0.135437,0.389208,-0.038228,-0.184475,-0.263631,0.209802,-0.458515,-0.822342,52.627656,35.931330,162.670080
54989,NaN,-5.405045,6.258137,4.877775,-0.244862,0.168762,-0.216699,0.366807,-0.061301,-0.175480,-0.264937,0.209465,-0.459794,-0.821293,52.777119,35.993772,162.554582
54990,NaN,-5.408720,6.331888,4.751972,-0.280981,0.050809,-0.229018,0.353198,-0.015256,-0.189282,-0.266181,0.209368,-0.461061,-0.820205,52.930274,36.079015,162.459117
54991,NaN,-5.734427,6.347527,4.618209,-0.032788,-0.127781,-0.092339,0.336270,-0.036530,-0.162088,-0.267341,0.209141,-0.462258,-0.819211,53.073745,36.144350,162.363554
54992,NaN,-5.248780,6.434854,4.515902,-0.457901,-0.111199,-0.371909,0.345062,0.012211,-0.165188,-0.268411,0.209110,-0.463550,-0.818138,53.237527,36.228388,162.294325
54993,NaN,-5.173889,6.644145,4.281906,-0.635755,-0.356319,-0.393703,0.339074,0.126628,-0.171116,-0.269232,0.209565,-0.464964,-0.816949,53.435322,36.354137,162.288227
54994,NaN,-5.456155,6.721150,4.162860,-0.472094,-0.527146,-0.232917,0.308117,0.237962,-0.165915,-0.269740,0.210507,-0.466403,-0.815718,53.654602,36.515744,162.348493
54995,NaN,-6.103470,6.618263,4.505214,0.039084,-0.303272,0.249969,0.295279,0.300450,-0.156344,-0.270047,0.211695,-0.467884,-0.814460,53.891392,36.693545,162.449896
54996,NaN,-6.261517,6.589365,4.863326,0.125053,0.027849,0.495642,0.310476,0.333812,-0.149374,-0.270264,0.212983,-0.469474,-0.813136,54.150882,36.879337,162.574555
54997,NaN,-6.285661,6.642347,4.836267,0.092100,0.024546,0.531899,0.335348,0.372588,-0.124907,-0.270313,0.214334,-0.471243,-0.811740,54.445855,37.065884,162.733659
54998,NaN,-6.213177,6.601718,4.699675,0.057259,-0.010971,0.398560,0.342054,0.382537,-0.099256,-0.270242,0.215657,-0.473075,-0.810347,54.755714,37.243422,162.910698
54999,NaN,-6.104646,6.655156,4.442224,-0.051243,-0.183464,0.249850,0.365937,0.358197,-0.087516,-0.270202,0.216817,-0.474982,-0.808933,55.075210,37.406323,163.080066
55000,NaN,-6.294480,6.599833,4.313165,0.129942,-0.270026,0.271542,0.382320,0.280081,-0.043724,-0.270190,0.217536,-0.476893,-0.807619,55.387786,37.522684,163.222392
55001,NaN,-6.214322,6.433138,4.190223,0.184141,-0.248959,0.059749,0.384384,0.215236,0.001185,-0.270149,0.217880,-0.478772,-0.806428,55.690272,37.595863,163.345610
55002,NaN,-6.305944,6.315857,4.256623,0.325404,-0.121269,0.069270,0.416598,0.175768,0.038721,-0.270087,0.217933,-0.480764,-0.805248,56.006249,37.638357,163.460839
55003,NaN,-6.573507,6.414119,4.255563,0.475922,-0.179650,0.296853,0.452482,0.065828,0.102407,-0.270068,0.217337,-0.482821,-0.804184,56.318631,37.614643,163.536172
55004,NaN,-6.242991,6.448547,4.172389,0.232104,-0.158691,0.081166,0.460451,-0.106926,0.168023,-0.270212,0.215880,-0.484743,-0.803371,56.587604,37.504917,163.533226
55005,NaN,-5.513435,6.401419,3.987572,-0.247166,-0.111873,-0.474428,0.496785,-0.120976,0.207708,-0.270265,0.214216,-0.486833,-0.802534,56.881699,37.371472,163.537043
55006,NaN,-5.253397,6.468398,4.062292,-0.462666,0.022332,-0.553864,0.524574,-0.060765,0.236780,-0.270085,0.212687,-0.489142,-0.801597,57.219796,37.243104,163.587510
55007,NaN,-5.020981,6.580883,4.243827,-0.693272,0.237034,-0.539541,0.549492,0.049503,0.286117,-0.269460,0.211440,-0.491749,-0.800542,57.623650,37.124359,163.722986
55008,NaN,-4.881263,6.682745,4.226840,-0.831510,0.266632,-0.561248,0.568671,0.227469,0.337197,-0.268211,0.210755,-0.494719,-0.799311,58.114188,37.034543,163.984650
55009,NaN,-5.113319,6.706987,4.099741,-0.629421,0.155176,-0.457642,0.572775,0.434362,0.387523,-0.266249,0.210761,-0.498031,-0.797907,58.693827,36.979978,164.390557
55010,NaN,-5.639854,6.624900,4.213187,-0.151973,0.250930,-0.150312,0.574904,0.601564,0.432567,-0.263689,0.211317,-0.501610,-0.796367,59.345360,36.949471,164.914709
55011,NaN,-6.290269,6.428931,4.498285,0.480908,0.534559,0.218034,0.590664,0.697596,0.466069,-0.260763,0.212144,-0.505404,-0.794711,60.048608,36.924836,165.509919
55012,NaN,-6.954198,6.397555,4.686140,1.030543,0.684728,0.661931,0.645580,0.687456,0.485756,-0.257838,0.212805,-0.509407,-0.792930,60.782718,36.881928,166.104899
55013,NaN,-6.940214,6.436594,4.414692,1.051136,0.527973,0.565232,0.678647,0.613627,0.518324,-0.254998,0.213040,-0.513469,-0.791164,61.513734,36.795837,166.663752
55014,NaN,-6.824489,6.358091,4.378403,1.054704,0.643074,0.416802,0.716305,0.551840,0.562011,-0.252178,0.212867,-0.517631,-0.789400,62.249420,36.665617,167.196010
55015,NaN,-6.839277,6.339903,4.552092,1.113886,0.902155,0.465253,0.726310,0.417378,0.587033,-0.249610,0.212077,-0.521677,-0.787764,62.942128,36.481570,167.648272
55016,NaN,-6.439071,6.216101,4.453425,0.938640,1.004406,0.089023,0.735698,0.250645,0.588674,-0.247475,0.210612,-0.525539,-0.786262,63.573901,36.249845,167.991135
55017,NaN,-6.270807,6.249223,4.201029,0.866335,0.859088,-0.089771,0.731737,0.118639,0.645998,-0.245451,0.208475,-0.529271,-0.784962,64.160807,35.952112,168.263711
55018,NaN,-5.680033,6.365957,4.074654,0.402125,0.867188,-0.406490,0.705224,0.135742,0.666272,-0.243269,0.206380,-0.532927,-0.783719,64.738414,35.646188,168.548508
55019,NaN,-5.535999,6.561624,4.063409,0.232934,0.884132,-0.358753,0.658421,0.215274,0.635488,-0.240941,0.204730,-0.536453,-0.782464,65.309491,35.372927,168.870129
55020,NaN,-5.197272,6.838734,3.917058,-0.137266,0.780875,-0.405560,0.596682,0.299989,0.634836,-0.238322,0.203485,-0.539827,-0.781270,65.872493,35.117753,169.241267
55021,NaN,-4.745791,6.922471,3.643996,-0.482063,0.634645,-0.697529,0.538883,0.474046,0.641266,-0.235142,0.202965,-0.543178,-0.780046,66.463665,34.896194,169.721361
55022,NaN,-4.933698,7.145422,3.459095,-0.406167,0.439537,-0.485042,0.508284,0.692940,0.631741,-0.231369,0.203357,-0.546642,-0.778651,67.112224,34.725110,170.335127
55023,NaN,-5.591061,7.416943,3.276914,0.019168,0.181991,0.034894,0.482979,0.854213,0.621775,-0.227159,0.204425,-0.550167,-0.777126,67.800384,34.588569,171.046357
55024,NaN,-6.484284,7.537403,2.983102,0.730353,-0.146317,0.541125,0.443114,1.005058,0.563836,-0.222713,0.206279,-0.553630,-0.775462,68.509605,34.508167,171.837006
55025,NaN,-7.377290,7.603702,2.960280,1.453618,-0.180944,1.089471,0.417859,0.989220,0.545708,-0.218344,0.208140,-0.556939,-0.773836,69.193917,34.425991,172.610808
55026,NaN,-7.821819,7.616600,3.226928,1.824783,0.129847,1.423808,0.405142,0.756707,0.575708,-0.214489,0.209027,-0.559957,-0.772496,69.787207,34.274207,173.238557
55027,NaN,-7.610715,7.699358,3.413874,1.634825,0.395519,1.413523,0.414193,0.467738,0.584433,-0.211412,0.208758,-0.562698,-0.771425,70.277776,34.056079,173.677131
55028,NaN,-6.470602,7.665629,2.948333,0.808816,0.131315,0.610903,0.403546,0.247167,0.636836,-0.208740,0.207499,-0.565209,-0.770656,70.685416,33.764801,173.980902
55029,NaN,-5.847542,7.545757,2.863053,0.427048,0.190401,0.142720,0.426238,0.165504,0.646642,-0.206281,0.205870,-0.567724,-0.769906,71.074597,33.450979,174.230258
55030,NaN,-5.549083,7.779765,2.848641,0.111963,0.190238,0.156392,0.487566,0.121826,0.639862,-0.204032,0.204027,-0.570414,-0.769007,71.479481,33.131536,174.446286
55031,NaN,-5.140142,8.045498,2.832431,-0.310658,0.190953,0.139208,0.514770,0.105545,0.654345,-0.201798,0.202048,-0.573197,-0.768049,71.892916,32.799848,174.651302
55032,NaN,-5.000791,8.283941,2.904686,-0.499306,0.265700,0.274348,0.537979,0.132157,0.644759,-0.199545,0.200173,-0.576076,-0.766974,72.324938,32.476966,174.867923
55033,NaN,-5.050168,8.473578,2.850409,-0.492819,0.222260,0.440976,0.558695,0.176699,0.645625,-0.197176,0.198440,-0.579069,-0.765782,72.781262,32.159688,175.109743
55034,NaN,-4.939593,8.644552,2.595388,-0.594813,0.005754,0.459088,0.567460,0.191719,0.654786,-0.194735,0.196727,-0.582108,-0.764543,73.245568,31.838442,175.359268
55035,NaN,-4.519554,8.722434,2.089778,-0.891116,-0.408172,0.182963,0.565555,0.218489,0.670289,-0.192150,0.195067,-0.585170,-0.763285,73.716084,31.511135,175.625022
55036,NaN,-4.292480,8.748157,1.761550,-1.012474,-0.650314,0.016350,0.580332,0.318556,0.670431,-0.189282,0.193773,-0.588372,-0.761868,74.225257,31.197850,175.951191
55037,NaN,-4.354506,8.775763,1.743290,-0.914143,-0.605481,0.077296,0.598108,0.429781,0.657219,-0.186150,0.192917,-0.591721,-0.760262,74.776583,30.906101,176.342202
55038,NaN,-4.606028,8.793503,1.877139,-0.661116,-0.414106,0.259823,0.611299,0.489827,0.655614,-0.182855,0.192280,-0.595159,-0.758537,75.351135,30.621053,176.767131
55039,NaN,-4.868673,8.719085,1.819341,-0.336887,-0.383659,0.325107,0.625121,0.462858,0.654649,-0.179651,0.191523,-0.598608,-0.756778,75.920541,30.328826,177.169921
55040,NaN,-4.760985,8.535569,1.461676,-0.254463,-0.606720,0.047626,0.627205,0.401345,0.646945,-0.176659,0.190552,-0.601988,-0.755044,76.466564,30.029361,177.527403
55041,NaN,-4.597305,8.224275,1.188858,-0.165690,-0.724523,-0.345153,0.634171,0.358276,0.646453,-0.173800,0.189407,-0.605341,-0.753313,76.998941,29.721352,177.852740
55042,NaN,-4.580633,8.173341,1.281738,-0.107404,-0.547906,-0.372555,0.656474,0.352583,0.650397,-0.170961,0.188207,-0.608762,-0.751504,77.538896,29.408053,178.170672
55043,NaN,-4.750068,8.361067,1.644177,-0.023519,-0.156990,-0.058308,0.680058,0.378180,0.637160,-0.168111,0.187117,-0.612267,-0.749570,78.095875,29.102368,178.498789
55044,NaN,-4.823819,8.622457,1.877654,-0.048122,0.102466,0.243551,0.665468,0.423974,0.625137,-0.165149,0.186244,-0.615728,-0.747608,78.654290,28.806207,178.850314
55045,NaN,-4.573509,8.717568,1.551473,-0.234780,-0.147113,0.149363,0.634598,0.494622,0.630766,-0.161914,0.185637,-0.619122,-0.745661,79.213447,28.511402,179.243518
55046,NaN,-4.435881,8.726955,1.293472,-0.287061,-0.316977,0.052714,0.592606,0.597544,0.656424,-0.158223,0.185365,-0.622449,-0.743749,79.777368,28.209788,179.701243
55047,NaN,-4.568505,8.813672,1.166671,-0.146299,-0.371959,0.174931,0.570083,0.678275,0.669241,-0.154205,0.185364,-0.625750,-0.741820,80.349029,27.904674,-179.792666
55048,NaN,-4.631646,8.951960,1.131574,-0.095640,-0.341535,0.323558,0.546764,0.729056,0.687977,-0.149935,0.185507,-0.629001,-0.739908,80.918612,27.589542,-179.257076
55049,NaN,-4.405919,8.967709,0.793860,-0.215794,-0.592544,0.190491,0.504665,0.764061,0.713194,-0.145415,0.185723,-0.632126,-0.738091,81.470534,27.258302,-178.701726
55050,NaN,-4.598299,8.828787,0.591010,0.097613,-0.682874,0.135396,0.474806,0.726407,0.752812,-0.140838,0.185693,-0.635128,-0.736407,81.990696,26.897174,-178.171930
55051,NaN,-4.711284,8.642359,0.438656,0.360566,-0.720166,0.007162,0.477772,0.655396,0.776558,-0.136395,0.185316,-0.638094,-0.734773,82.487784,26.512620,-177.690529
55052,NaN,-4.610218,8.731136,0.556033,0.285585,-0.540590,0.057537,0.501474,0.626409,0.767775,-0.132096,0.184840,-0.641098,-0.733061,82.984660,26.127521,-177.233595
55053,NaN,-4.563705,8.870282,0.552233,0.249033,-0.484029,0.163135,0.521921,0.638717,0.756564,-0.127812,0.184424,-0.644156,-0.731242,83.491326,25.745792,-176.774935
55054,NaN,-4.249576,8.969318,0.350645,0.010141,-0.629928,0.098553,0.507618,0.672826,0.761805,-0.123383,0.184122,-0.647167,-0.729418,83.994137,25.359857,-176.299647
55055,NaN,-3.741701,9.021154,0.266130,-0.396279,-0.668069,-0.073687,0.501455,0.751041,0.760754,-0.118694,0.184104,-0.650182,-0.727517,84.509291,24.974952,-175.780422
55056,NaN,-3.469866,9.136626,0.231696,-0.623285,-0.652458,-0.078392,0.487092,0.881833,0.751772,-0.113596,0.184594,-0.653190,-0.725510,85.044919,24.597963,-175.185083
55057,NaN,-3.315396,9.412692,0.225465,-0.813633,-0.617783,0.116907,0.484656,1.037409,0.738138,-0.108030,0.185685,-0.656237,-0.723328,85.613404,24.230542,-174.498591
55058,NaN,-3.351768,9.683245,0.067794,-0.807960,-0.710506,0.377774,0.462702,1.187292,0.735097,-0.101960,0.187332,-0.659250,-0.721042,86.200886,23.864986,-173.724569
55059,NaN,-3.771811,9.688930,-0.329473,-0.309458,-0.965439,0.540158,0.432256,1.217997,0.766113,-0.095641,0.188991,-0.662162,-0.718803,86.772025,23.475322,-172.936437
55060,NaN,-4.272089,9.805844,-0.279421,0.164903,-0.770529,0.857886,0.425521,1.136829,0.824063,-0.089372,0.190162,-0.665028,-0.716651,87.312158,23.043439,-172.203664
55061,NaN,-4.319927,10.067094,-0.309154,0.193271,-0.714454,1.121405,0.462080,1.045073,0.905085,-0.083146,0.190706,-0.668027,-0.714463,87.844053,22.556346,-171.532557
55062,NaN,-3.486813,10.412465,-0.439752,-0.587412,-0.886167,1.125265,0.434180,1.021607,0.955991,-0.076788,0.190999,-0.670929,-0.712374,88.346497,22.034420,-170.882243
55063,NaN,-3.332369,10.693063,-1.030028,-0.635794,-1.414306,1.327375,0.431408,1.127201,0.966116,-0.070030,0.191623,-0.673835,-0.710157,88.863435,21.502493,-170.173986
55064,NaN,-3.215082,11.039779,-1.628782,-0.659985,-1.943662,1.617581,0.442542,1.246516,0.923942,-0.063029,0.192798,-0.676738,-0.707730,89.404170,20.990053,-169.400719
55065,NaN,-2.988508,11.498941,-1.369704,-0.972536,-1.652353,1.992175,0.401612,1.365737,0.949549,-0.055487,0.194307,-0.679514,-0.705285,89.938175,20.456215,-168.562071
55066,NaN,-3.121844,11.511688,-0.897505,-0.841647,-1.055850,2.071977,0.325955,1.465888,0.978620,-0.047427,0.196078,-0.682026,-0.702955,90.439385,19.898847,-167.670623
55067,NaN,-3.148234,11.386206,-0.158284,-0.827661,-0.213832,1.970760,0.270962,1.471844,1.021471,-0.039135,0.197719,-0.684334,-0.700758,90.899307,19.309461,-166.783922
55068,NaN,-2.938161,10.964520,-0.015357,-0.815044,0.004945,1.509318,0.247320,1.419219,1.058753,-0.030870,0.199039,-0.686529,-0.698647,91.323467,18.693306,-165.937787
55069,NaN,-2.827615,11.014372,0.046263,-0.847895,0.134783,1.526412,0.295510,1.407813,1.070965,-0.022643,0.200252,-0.688851,-0.696327,91.761998,18.063863,-165.106613
55070,NaN,-2.530509,11.429870,-0.155856,-1.098773,-0.055336,1.843112,0.266127,1.438821,1.045097,-0.014372,0.201651,-0.690990,-0.694019,92.178281,17.443221,-164.264301
55071,NaN,-2.069965,11.887441,-0.447302,-1.474736,-0.378397,2.165464,0.256596,1.516579,1.097282,-0.005636,0.203121,-0.693098,-0.691610,92.591400,16.784555,-163.384264
55072,NaN,-1.758655,12.103960,-0.556454,-1.673857,-0.481414,2.306418,0.205540,1.548488,1.147762,0.003433,0.204511,-0.695017,-0.689285,92.967867,16.090838,-162.494646
55073,NaN,-1.497477,12.191084,-1.270205,-1.597455,-1.150870,2.377451,0.154653,1.447965,1.239691,0.012526,0.205214,-0.696794,-0.687174,93.285544,15.341945,-161.675248
55074,NaN,-1.629485,12.401954,-1.471131,-1.324977,-1.216752,2.652833,0.133782,1.391464,1.236019,0.021426,0.205718,-0.698436,-0.685134,93.570339,14.593522,-160.896297
55075,NaN,-2.070667,12.540772,-1.768638,-0.716453,-1.266551,2.937473,0.131350,1.353837,1.173724,0.029985,0.206290,-0.699953,-0.683089,93.837868,13.877855,-160.143364
55076,NaN,-1.849264,12.421161,-2.257325,-0.582967,-1.693523,2.820194,0.237049,1.257149,1.223442,0.038261,0.206361,-0.701839,-0.680715,94.141308,13.134638,-159.455457
55077,NaN,-1.564911,12.450803,-2.431772,-0.641739,-1.836001,2.820561,0.359078,1.273652,1.248556,0.046556,0.206404,-0.704110,-0.677834,94.506513,12.371787,-158.765430
55078,NaN,-1.419673,12.289277,-1.860412,-0.793038,-1.219482,2.612436,0.493372,1.324068,1.251336,0.054890,0.206624,-0.706765,-0.674371,94.943962,11.600956,-158.053735
55079,NaN,-2.789956,12.327109,-0.627675,0.125964,0.559429,2.828690,0.339414,1.073129,1.104377,0.062002,0.206457,-0.708767,-0.671700,95.256215,10.921509,-157.487290
55080,NaN,-2.060241,12.055371,-0.594544,-0.384619,0.421054,2.418548,0.289925,0.711232,1.070779,0.067762,0.205170,-0.710641,-0.669554,95.494317,10.278728,-157.133758
55081,NaN,-0.986181,11.903443,-0.332461,-1.319677,0.343769,2.058019,0.308874,0.572208,1.107803,0.073134,0.203281,-0.712636,-0.667442,95.724675,9.620477,-156.866087
55082,NaN,-1.056930,11.648929,-0.279901,-1.123353,0.497932,1.822679,0.233395,0.513398,1.052383,0.078181,0.201361,-0.714314,-0.665655,95.903195,8.997022,-156.632138
55083,NaN,-1.366635,11.212277,-0.166156,-0.708638,0.781018,1.434411,0.141291,0.419983,0.984973,0.082765,0.199325,-0.715634,-0.664294,96.018838,8.416185,-156.449884
55084,NaN,-1.390333,10.802522,-0.300706,-0.470656,0.710494,1.049662,0.084659,0.266715,0.983980,0.086846,0.196758,-0.716807,-0.663273,96.087417,7.845651,-156.357106
55085,NaN,-0.967140,10.066280,-1.243148,-0.277137,-0.298467,0.367880,0.125720,0.106554,1.027234,0.090460,0.193514,-0.718212,-0.662225,96.166160,7.259379,-156.359812
55086,NaN,-0.220353,9.923261,-0.670639,-1.062599,-0.011430,0.078668,0.333572,0.074114,1.191510,0.094291,0.189664,-0.720453,-0.660367,96.360240,6.582355,-156.392965
55087,NaN,-0.314787,9.640001,-1.080316,-0.687402,-0.302282,-0.136370,0.082220,0.133487,0.987424,0.097904,0.186617,-0.721622,-0.659433,96.415794,6.017029,-156.380371
55088,NaN,-0.140818,9.633229,-1.215277,-0.711903,-0.450330,-0.138725,0.077255,0.221256,0.909323,0.101572,0.184138,-0.722640,-0.658459,96.473747,5.491308,-156.313168
55089,NaN,-0.335206,9.688407,-1.255813,-0.448321,-0.363718,-0.054577,0.040476,0.369635,0.867472,0.105676,0.182273,-0.723409,-0.657486,96.518080,4.978911,-156.158861
55090,NaN,-1.098868,9.599741,-1.428939,0.401887,-0.178555,-0.055106,0.050941,0.404375,0.821239,0.109737,0.180694,-0.724135,-0.656457,96.568793,4.491259,-155.982313
55091,NaN,-1.307985,9.627101,-1.971466,0.877724,-0.542043,0.047014,0.070196,0.307296,0.836617,0.113482,0.178744,-0.724979,-0.655422,96.624939,4.000253,-155.862672
55092,NaN,-1.186773,9.670223,-2.377456,0.999778,-0.914482,0.123986,0.040866,0.190525,0.853497,0.116878,0.176334,-0.725793,-0.654577,96.658669,3.508113,-155.811295
55093,NaN,-1.833130,9.570561,-2.265298,1.631378,-0.517788,0.044159,0.019110,-0.051000,0.920875,0.119640,0.172869,-0.726723,-0.653970,96.671572,2.992866,-155.902207
55094,NaN,-2.090568,9.573106,-1.836745,1.776979,0.005847,-0.002994,-0.060982,-0.369571,0.988965,0.121529,0.168067,-0.727621,-0.653874,96.630410,2.460790,-156.179074
55095,NaN,-1.263507,9.602486,-1.582752,1.005827,-0.077638,-0.050983,-0.188518,-0.617016,1.007953,0.122687,0.162300,-0.728248,-0.654417,96.513522,1.933007,-156.597186
55096,NaN,-0.382917,9.424802,-1.584169,0.302218,-0.437802,-0.262850,-0.321705,-0.695991,1.022419,0.123704,0.156138,-0.728470,-0.655477,96.322687,1.401669,-157.059764
55097,NaN,0.203535,9.043807,-1.487277,-0.159362,-0.612125,-0.667030,-0.439011,-0.697995,1.042611,0.124871,0.149814,-0.728296,-0.656923,96.069218,0.856443,-157.522460
55098,NaN,0.409212,8.593880,-1.460458,-0.245139,-0.711940,-1.118579,-0.505465,-0.676379,1.059029,0.126209,0.143456,-0.727868,-0.658559,95.782029,0.299126,-157.971270
55099,NaN,0.629078,8.173162,-1.343962,-0.386629,-0.731232,-1.547233,-0.518623,-0.655790,1.074586,0.127683,0.137091,-0.727364,-0.660185,95.491990,-0.271204,-158.406275
55100,NaN,0.610473,7.945286,-1.397863,-0.257240,-0.799806,-1.766086,-0.499893,-0.628072,1.089614,0.129283,0.130772,-0.726880,-0.661687,95.216613,-0.852998,-158.823580
55101,NaN,0.476026,7.756962,-1.478108,-0.016374,-0.846088,-1.947246,-0.456674,-0.603845,1.094581,0.130959,0.124533,-0.726496,-0.662981,94.970239,-1.441501,-159.224614
55102,NaN,-0.156493,7.630137,-1.580422,0.690836,-0.729061,-2.084044,-0.325755,-0.661226,1.088877,0.132316,0.118209,-0.726547,-0.663814,94.803597,-2.024641,-159.656228
55103,NaN,-1.198823,7.805283,-1.498785,1.714833,-0.272061,-1.964706,-0.140347,-0.869672,1.094830,0.132824,0.111286,-0.727324,-0.664058,94.752686,-2.602792,-160.206179
55104,NaN,-1.554518,8.175918,-1.538520,2.142738,-0.150600,-1.626438,-0.033964,-1.188962,1.126914,0.132206,0.103253,-0.728640,-0.664037,94.777238,-3.183455,-160.940425
55105,NaN,-1.241975,8.546692,-1.534067,1.932343,-0.206829,-1.259061,0.011072,-1.497542,1.184792,0.130626,0.094004,-0.730284,-0.663917,94.846484,-3.782399,-161.854757
55106,NaN,-0.888934,8.582130,-1.413491,1.638383,-0.189190,-1.226624,0.037942,-1.717829,1.202205,0.128270,0.083970,-0.732094,-0.663728,94.949388,-4.378476,-162.897649
55107,NaN,-1.288709,8.304372,-1.343530,2.058612,-0.024692,-1.554994,0.152773,-1.950783,1.169181,0.124892,0.073346,-0.734335,-0.663155,95.139950,-4.941889,-164.074508
55108,NaN,-1.634767,8.288536,-1.254134,2.430769,0.159545,-1.626683,0.293268,-2.236575,1.123142,0.120239,0.062023,-0.737096,-0.662107,95.436542,-5.458372,-165.416094
55109,NaN,-1.428992,8.223088,-1.405524,2.325309,-0.039194,-1.674638,0.378440,-2.551072,1.098266,0.114299,0.049789,-0.740191,-0.660737,95.812179,-5.935643,-166.940537
55110,NaN,-0.581904,8.181034,-1.351737,1.536233,-0.164960,-1.645211,0.409320,-2.729573,1.057574,0.107530,0.037125,-0.743325,-0.659187,96.228242,-6.368036,-168.569439
55111,NaN,0.268994,7.964413,-1.215095,0.698138,-0.188440,-1.784146,0.428300,-2.656230,0.938089,0.100616,0.025148,-0.746305,-0.657474,96.661708,-6.725467,-170.152929
55112,NaN,-0.233906,7.540823,-1.168954,1.170241,-0.070022,-2.268774,0.535017,-2.581883,0.814818,0.093539,0.013926,-0.749434,-0.655290,97.158872,-7.004740,-171.689249
55113,NaN,-1.651060,7.519690,-0.651764,2.506055,0.660816,-2.533989,0.662286,-2.800661,0.702223,0.085247,0.002464,-0.752924,-0.652559,97.750560,-7.189578,-173.345678
55114,NaN,-2.574595,7.816102,-0.204359,3.425380,1.242784,-2.431373,0.717530,-3.192538,0.600414,0.075123,-0.009869,-0.756569,-0.649509,98.404566,-7.266923,-175.220401
55115,NaN,-2.153460,7.806275,-0.297127,3.054075,1.092195,-2.386841,0.664675,-3.559963,0.562118,0.063462,-0.023267,-0.759953,-0.646453,99.056390,-7.269569,-177.302396
55116,NaN,-1.727309,7.550896,-0.812064,2.655631,0.503096,-2.508334,0.649687,-3.866220,0.505437,0.050427,-0.037436,-0.763114,-0.643205,99.718903,-7.187706,-179.553339
55117,NaN,-1.265737,7.531836,-0.829509,2.197303,0.470324,-2.466301,0.668274,-4.107122,0.417775,0.036174,-0.052023,-0.766098,-0.639593,100.403087,-7.006014,178.069455
55118,NaN,-0.466264,7.710556,-1.002589,1.415702,0.376003,-2.162226,0.695237,-4.219574,0.343787,0.021244,-0.066660,-0.768860,-0.635578,101.099275,-6.742247,175.639894
55119,NaN,0.115193,7.965906,-1.133997,0.845971,0.388732,-1.819709,0.710882,-4.137365,0.205391,0.006186,-0.080470,-0.771365,-0.631254,101.784086,-6.380919,173.277655
55120,NaN,0.203600,8.327458,-0.939237,0.797461,0.725705,-1.499619,0.689473,-3.871032,0.002567,-0.008496,-0.092626,-0.773553,-0.626868,102.419712,-5.911057,171.096162
55121,NaN,0.326917,8.477633,-0.564236,0.718382,1.207081,-1.426869,0.612158,-3.483039,-0.167246,-0.022243,-0.102872,-0.775325,-0.622731,102.968171,-5.372557,169.161141
55122,NaN,0.986477,8.151414,-0.336627,0.048221,1.556689,-1.743867,0.566646,-2.949366,-0.213910,-0.034084,-0.111244,-0.776826,-0.618873,103.444615,-4.860888,167.537620
55123,NaN,-0.071689,8.368388,0.252763,1.200088,2.004661,-1.772802,0.632567,-2.577646,-0.474617,-0.045245,-0.117440,-0.778583,-0.614792,103.923513,-4.240792,166.162916
55124,NaN,1.873672,8.512044,0.220252,-0.694365,2.544809,-1.502753,0.597984,-2.139830,-0.536853,-0.054906,-0.122024,-0.780244,-0.610995,104.349774,-3.636807,165.046723
55125,NaN,4.939241,8.900812,0.644299,-3.517070,3.920562,-1.078046,0.457393,-1.398969,-0.455594,-0.061510,-0.124609,-0.781557,-0.608160,104.661391,-3.176854,164.335184
55126,NaN,5.116771,9.199494,0.725453,-3.651950,4.192252,-0.844623,0.359270,-0.312156,-0.489478,-0.064028,-0.123725,-0.782896,-0.606355,104.879519,-2.853829,164.233884
55127,NaN,2.882959,9.866368,0.905427,-1.433554,3.951983,-0.389169,0.268850,0.334477,-0.711359,-0.064742,-0.119980,-0.784295,-0.605222,105.027101,-2.503221,164.524863
55128,NaN,2.640342,10.478487,1.096005,-1.161537,4.237594,0.120305,0.170907,0.556030,-0.733300,-0.064711,-0.115445,-0.785466,-0.604589,105.114938,-2.174114,164.942395
55129,NaN,3.559434,10.393130,0.829744,-2.199139,4.211380,0.127272,-0.002409,0.742393,-0.577799,-0.063577,-0.110899,-0.786066,-0.604781,105.102607,-1.959192,165.439986
55130,NaN,3.590430,10.148761,0.555694,-2.385981,3.878897,-0.042420,-0.163667,0.927187,-0.466510,-0.061468,-0.106177,-0.786155,-0.605729,104.996493,-1.832763,166.023039
55131,NaN,3.328830,9.734154,0.249192,-2.293661,3.384627,-0.369171,-0.241901,1.026776,-0.282366,-0.058448,-0.101851,-0.785918,-0.607078,104.845275,-1.821861,166.633728
55132,NaN,2.232970,9.533599,-0.170313,-1.366510,2.642141,-0.482296,-0.272501,0.967579,-0.081293,-0.055066,-0.098482,-0.785446,-0.608558,104.678224,-1.911833,167.182252
55133,NaN,2.127562,9.792182,-0.254527,-1.273275,2.557562,-0.204588,-0.345829,0.683800,-0.038655,-0.052702,-0.096124,-0.784636,-0.610188,104.473737,-1.983045,167.567418
55134,NaN,1.467775,10.055356,-0.863893,-0.741546,1.858714,0.187612,-0.367049,0.399377,-0.073080,-0.051570,-0.094491,-0.783695,-0.611747,104.262321,-1.993019,167.799856
55135,NaN,0.993675,10.678749,-0.897035,-0.266551,1.831734,0.789247,-0.510490,-0.028765,-0.416028,-0.053231,-0.092787,-0.782358,-0.613574,103.975116,-1.751937,167.842159
55136,NaN,1.398076,10.532133,-1.415157,-0.833241,1.343805,0.788373,-0.636138,-0.321401,-0.394545,-0.056029,-0.092028,-0.780539,-0.615752,103.621107,-1.482235,167.717366
55137,NaN,0.745180,10.467940,-1.578908,-0.297446,0.981883,0.750115,-0.685716,-0.551298,-0.440739,-0.059887,-0.091784,-0.778506,-0.617994,103.240555,-1.157389,167.468749
55138,NaN,1.205279,10.139021,-1.802415,-0.879312,0.739541,0.491702,-0.782050,-0.677961,-0.301689,-0.063852,-0.092438,-0.776056,-0.620577,102.805503,-0.895196,167.129288
55139,NaN,0.535670,9.867972,-2.176303,-0.377169,0.115901,0.298885,-0.750340,-0.770454,-0.149485,-0.067686,-0.093980,-0.773579,-0.623026,102.387946,-0.709512,166.717037
55140,NaN,0.445037,9.880434,-2.345462,-0.376971,-0.123765,0.344293,-0.747022,-0.955934,-0.158778,-0.072264,-0.096059,-0.771031,-0.625350,101.972326,-0.498776,166.200824
55141,NaN,0.831155,9.832013,-2.580162,-0.863359,-0.319645,0.344502,-0.716237,-1.125487,-0.099314,-0.077291,-0.098908,-0.768455,-0.627471,101.572897,-0.305697,165.580957
55142,NaN,1.593164,9.735097,-2.730343,-1.694752,-0.337014,0.275867,-0.707018,-1.161509,-0.043879,-0.082275,-0.102079,-0.765834,-0.629530,101.177291,-0.143542,164.933401
55143,NaN,1.589463,9.374916,-2.727112,-1.754201,-0.439091,-0.087343,-0.620832,-1.064304,-0.003339,-0.086710,-0.105134,-0.763470,-0.631301,100.829064,-0.019529,164.334920
55144,NaN,1.195494,8.957612,-2.721379,-1.430694,-0.644095,-0.506129,-0.470917,-0.909459,0.024695,-0.090387,-0.107865,-0.761609,-0.632571,100.565974,0.069542,163.820107
55145,NaN,0.807870,8.577284,-2.717043,-1.102021,-0.834409,-0.885536,-0.296778,-0.745036,0.067755,-0.093202,-0.110320,-0.760332,-0.633275,100.401930,0.114722,163.392985
55146,NaN,0.280755,8.414977,-2.696869,-0.615093,-1.003278,-1.050334,-0.111040,-0.589067,0.084562,-0.095270,-0.112427,-0.759699,-0.633357,100.344519,0.134084,163.052069
55147,NaN,0.053136,8.514493,-2.628702,-0.379802,-0.987313,-0.964499,0.040848,-0.481968,0.107615,-0.096769,-0.114358,-0.759578,-0.632929,100.374013,0.128738,162.769019
55148,NaN,-0.283611,8.851539,-2.770433,-0.083506,-1.151635,-0.605504,0.155802,-0.437140,0.101817,-0.098054,-0.116176,-0.759842,-0.632082,100.469668,0.122918,162.511943
55149,NaN,-0.202594,9.158641,-3.046941,-0.225238,-1.316077,-0.251161,0.198586,-0.431394,0.110113,-0.099261,-0.118031,-0.760234,-0.631078,100.589717,0.111713,162.257119
55150,NaN,-0.260688,9.517612,-3.385355,-0.253462,-1.566692,0.167028,0.195680,-0.446998,0.049599,-0.100723,-0.119699,-0.760642,-0.630041,100.708226,0.137360,161.999999
55151,NaN,-0.054257,9.936970,-3.442148,-0.453297,-1.458016,0.592280,0.177445,-0.452743,-0.044205,-0.102510,-0.121023,-0.761039,-0.629019,100.815978,0.216342,161.749642
55152,NaN,0.316975,10.416304,-3.197570,-0.722793,-1.005719,1.017379,0.074664,-0.378783,-0.145015,-0.104397,-0.121673,-0.761209,-0.628377,100.864740,0.345013,161.551966
55153,NaN,1.066043,10.469939,-2.779268,-1.326048,-0.357314,0.985194,-0.063409,-0.195493,-0.212886,-0.105879,-0.121421,-0.761079,-0.628335,100.834690,0.491544,161.464693
55154,NaN,1.668876,10.300022,-2.354050,-1.801697,0.197090,0.729235,-0.166456,0.093679,-0.245073,-0.106429,-0.120079,-0.760797,-0.628842,100.747038,0.625678,161.543559
55155,NaN,1.926913,10.205548,-2.083749,-1.993910,0.498153,0.578862,-0.193996,0.422106,-0.256533,-0.105777,-0.117649,-0.760606,-0.629642,100.645960,0.730806,161.808263
55156,NaN,1.891609,10.242355,-1.980880,-1.948519,0.564589,0.593672,-0.198058,0.716530,-0.195794,-0.103819,-0.114517,-0.760514,-0.630655,100.544992,0.771836,162.232295
55157,NaN,1.549508,10.471959,-1.726310,-1.547097,0.706677,0.777403,-0.211473,0.930969,-0.092974,-0.100723,-0.111094,-0.760417,-0.631885,100.437771,0.732586,162.766256
55158,NaN,0.494772,10.799899,-1.126666,-0.351803,0.981855,1.006929,-0.233264,0.995625,0.011075,-0.097067,-0.107845,-0.760209,-0.633269,100.317726,0.629831,163.326074
55159,NaN,0.341996,10.988721,-0.263880,0.048276,1.746603,1.044820,-0.369005,0.905787,0.092106,-0.093561,-0.105124,-0.759463,-0.635146,100.118100,0.491277,163.827169
55160,NaN,0.642340,10.497155,-0.379538,-0.288681,1.587460,0.586508,-0.455263,0.858572,0.198277,-0.089946,-0.102909,-0.758349,-0.637359,99.867412,0.300280,164.291691
55161,NaN,0.729451,9.885962,-0.895458,-0.525402,0.964080,0.079754,-0.474291,0.776524,0.218962,-0.086578,-0.101027,-0.757107,-0.639598,99.603958,0.106812,164.708603
55162,NaN,0.619309,9.647986,-1.343759,-0.533648,0.418767,-0.075516,-0.402396,0.663915,0.160854,-0.083790,-0.099310,-0.756064,-0.641470,99.380560,-0.040578,165.068296
55163,NaN,0.298019,9.722375,-1.781096,-0.326207,-0.110198,0.069976,-0.346292,0.528739,-0.013696,-0.082039,-0.097395,-0.755220,-0.642983,99.188624,-0.076324,165.368100
55164,NaN,-0.112197,9.886673,-2.043499,-0.001288,-0.469349,0.272667,-0.320501,0.397149,-0.250808,-0.081538,-0.095011,-0.754515,-0.644230,99.011854,0.035821,165.615177
55165,NaN,0.728095,9.199444,-2.532910,-0.979728,-0.865082,-0.332859,-0.404925,0.394400,-0.113901,-0.080642,-0.093123,-0.753464,-0.645846,98.786853,0.070719,165.848049
55166,NaN,-0.336110,8.466189,-2.561213,0.007937,-1.288554,-1.055480,-0.236065,0.393515,-0.179882,-0.079887,-0.091052,-0.752985,-0.646793,98.658996,0.144637,166.086161
55167,NaN,-1.226941,8.012046,-2.640739,0.831811,-1.652741,-1.491130,-0.025721,0.193631,-0.094637,-0.079508,-0.090036,-0.753063,-0.646891,98.651431,0.186916,166.203507
55168,NaN,-1.645682,8.692829,-2.658768,1.243422,-1.659942,-0.810409,0.142010,-0.161085,-0.247987,-0.080891,-0.089652,-0.753612,-0.646133,98.739421,0.347562,166.133372
55169,NaN,-1.411328,8.878056,-2.948494,0.932605,-1.840531,-0.579702,0.097331,-0.376937,-0.076274,-0.082547,-0.090599,-0.753849,-0.645515,98.800678,0.429114,165.926125
55170,NaN,-2.034987,9.092529,-2.670686,1.580045,-1.688427,-0.399913,0.015150,-0.656149,-0.276523,-0.085942,-0.091652,-0.753791,-0.644991,98.813037,0.649481,165.578485
55171,NaN,-1.225344,8.397103,-2.647631,0.744316,-1.577191,-1.095973,-0.176685,-0.772854,-0.066434,-0.089183,-0.093795,-0.752956,-0.645218,98.713453,0.760072,165.146168
55172,NaN,-1.478216,7.437344,-2.445970,0.988338,-1.607883,-2.071898,-0.113999,-0.731899,0.022052,-0.091957,-0.096160,-0.752289,-0.645258,98.649349,0.817117,164.729296
55173,NaN,-1.266420,7.473473,-2.362229,0.782089,-1.474780,-2.050597,-0.025595,-0.708869,-0.124276,-0.095069,-0.097944,-0.751979,-0.644901,98.635671,0.954109,164.337974
55174,NaN,-0.333460,8.158672,-1.995819,-0.031746,-0.769878,-1.442227,-0.018648,-0.619004,-0.261126,-0.098285,-0.098922,-0.751791,-0.644488,98.625871,1.161491,164.009336
55175,NaN,-0.321961,8.027664,-2.050935,-0.085154,-0.831897,-1.563199,0.027349,-0.383705,-0.090093,-0.100036,-0.099811,-0.751777,-0.644097,98.644205,1.251129,163.799263
55176,NaN,-0.832702,8.357243,-1.442652,0.566862,-0.340183,-1.316743,0.055749,-0.194286,-0.159968,-0.101291,-0.099836,-0.751982,-0.643658,98.680892,1.364743,163.702610
55177,NaN,-0.632116,8.832714,-0.554120,0.617704,0.641231,-0.984851,0.073179,0.032114,-0.208919,-0.101839,-0.098962,-0.752381,-0.643240,98.730825,1.485894,163.738522
55178,NaN,-1.495892,9.720443,0.628177,1.769666,1.670153,-0.262919,0.015619,0.185017,-0.347657,-0.102290,-0.097040,-0.752739,-0.643043,98.750439,1.672904,163.873242
55179,NaN,-1.852486,10.168211,0.981431,2.177502,1.986768,0.142135,-0.114398,0.171907,-0.429111,-0.103111,-0.094790,-0.752708,-0.643283,98.696132,1.906635,164.007538
55180,NaN,-1.701371,10.014161,0.423704,1.830786,1.477124,0.077902,-0.196655,0.072956,-0.397973,-0.104247,-0.092930,-0.752343,-0.643799,98.593060,2.132022,164.082797
55181,NaN,-0.989891,9.456729,-0.550282,0.834405,0.657284,-0.347802,-0.180236,0.060221,-0.344829,-0.105248,-0.091322,-0.751995,-0.644272,98.499189,2.327991,164.145875
55182,NaN,-0.597004,9.073739,-1.278120,0.225266,0.017036,-0.632728,0.005900,0.190679,-0.296767,-0.105522,-0.089568,-0.752292,-0.644127,98.515103,2.486230,164.278794
55183,NaN,-0.671770,9.150068,-1.636998,0.182201,-0.312349,-0.500119,0.246833,0.371126,-0.243177,-0.104833,-0.087565,-0.753431,-0.643183,98.673685,2.597957,164.509645
55184,NaN,-0.990775,9.771930,-1.956593,0.397192,-0.564003,0.178531,0.410397,0.517218,-0.206083,-0.103404,-0.085314,-0.755150,-0.641699,98.930079,2.675536,164.820527
55185,NaN,-1.307374,10.317199,-2.237909,0.630880,-0.773966,0.778100,0.449555,0.561911,-0.168192,-0.101665,-0.083084,-0.756991,-0.640098,99.210279,2.725703,165.153623
55186,NaN,-1.871502,10.503764,-2.570185,1.097392,-1.146766,1.046309,0.449996,0.439657,-0.145761,-0.100317,-0.081327,-0.758753,-0.638448,99.487633,2.773430,165.415740
55187,NaN,-2.242639,10.460997,-2.608446,1.450597,-1.228212,1.034105,0.434519,0.127417,-0.160779,-0.100205,-0.080503,-0.760309,-0.636717,99.747833,2.857871,165.502896
55188,NaN,-1.369269,10.268674,-2.666750,0.587275,-1.051726,0.816563,0.361560,-0.127521,-0.132302,-0.101003,-0.080560,-0.761490,-0.635171,99.958936,2.951304,165.443550
55189,NaN,-1.266104,9.839363,-2.655113,0.487491,-1.057215,0.390758,0.276607,-0.220065,-0.027067,-0.101851,-0.081271,-0.762308,-0.633962,100.118096,2.994429,165.321676
55190,NaN,-1.478697,9.548052,-2.559946,0.713776,-1.049857,0.101618,0.214313,-0.352535,-0.022646,-0.103217,-0.082384,-0.762857,-0.632936,100.237455,3.049138,165.124665
55191,NaN,-1.120962,9.287242,-2.328004,0.420699,-0.769399,-0.212685,0.149291,-0.448177,-0.040851,-0.105029,-0.083698,-0.763155,-0.632106,100.316621,3.123899,164.875597
55192,NaN,-0.550046,9.097403,-2.142272,-0.092333,-0.467094,-0.462399,0.096958,-0.432359,-0.069987,-0.106897,-0.084821,-0.763303,-0.631464,100.366020,3.214063,164.638531
55193,NaN,-0.141967,8.921530,-2.000784,-0.458699,-0.247836,-0.683331,0.055455,-0.338020,-0.063922,-0.108400,-0.085649,-0.763366,-0.631020,100.394399,3.290918,164.454136
55194,NaN,-0.123109,8.896255,-1.808468,-0.434053,-0.057855,-0.744209,0.038649,-0.216575,-0.057835,-0.109430,-0.086105,-0.763436,-0.630695,100.416748,3.352169,164.337682
55195,NaN,-0.506504,9.125837,-1.447124,0.024058,0.228342,-0.561801,-0.001701,-0.141983,-0.066122,-0.110216,-0.086275,-0.763423,-0.630551,100.418522,3.410054,164.264205
55196,NaN,-0.624998,9.662999,-0.733169,0.322465,0.971601,-0.155891,-0.072161,-0.088130,-0.071944,-0.110847,-0.086211,-0.763220,-0.630695,100.381579,3.465961,164.221710
55197,NaN,-0.632725,10.344706,0.508333,0.655615,2.258558,0.293781,-0.246180,-0.028089,-0.098946,-0.111408,-0.085761,-0.762512,-0.631513,100.247222,3.530533,164.215807
55198,NaN,-0.598619,10.185296,1.226022,0.804360,2.886839,0.016896,-0.443659,0.037480,-0.084298,-0.111758,-0.085047,-0.761208,-0.633119,100.001802,3.580551,164.245269
55199,NaN,-0.560698,9.366828,0.901616,0.663170,2.402943,-0.721448,-0.495375,0.148547,-0.138595,-0.111877,-0.083748,-0.759820,-0.634936,99.731038,3.650115,164.342632
55200,NaN,-0.681697,8.725123,0.320496,0.603236,1.673226,-1.237636,-0.412239,0.252349,-0.146178,-0.111592,-0.082134,-0.758753,-0.636471,99.511852,3.714769,164.499224
55201,NaN,-0.250141,8.502459,-0.315103,0.000514,1.123072,-1.375133,-0.294061,0.405112,-0.075197,-0.110451,-0.080371,-0.758113,-0.637657,99.365512,3.725120,164.735394
55202,NaN,-0.395936,8.513155,-0.583963,0.061570,0.817972,-1.309822,-0.121229,0.654742,-0.024723,-0.108134,-0.078096,-0.758135,-0.638310,99.327101,3.684417,165.108323
55203,NaN,-0.722032,8.813652,-0.869075,0.299320,0.512831,-0.946770,-0.038648,0.957154,0.014536,-0.104510,-0.075051,-0.758555,-0.638779,99.346033,3.593133,165.648818
55204,NaN,-1.252201,9.138609,-1.485429,0.663566,-0.140700,-0.494506,0.045710,1.234379,-0.020758,-0.099913,-0.071025,-0.759381,-0.638994,99.422498,3.495788,166.349573
55205,NaN,-1.628161,9.626370,-2.095672,0.893587,-0.705420,0.107671,0.110649,1.398525,-0.103777,-0.094930,-0.066192,-0.760491,-0.638952,99.541032,3.428365,167.150807
55206,NaN,-2.658818,10.099321,-2.563218,1.807833,-1.260166,0.712479,0.193645,1.281677,-0.130048,-0.090445,-0.061665,-0.761787,-0.638513,99.702762,3.385330,167.888300
55207,NaN,-3.082019,11.004392,-2.674260,2.201435,-1.245340,1.648104,0.207895,0.892867,-0.138895,-0.087460,-0.058353,-0.762929,-0.637876,99.859244,3.382860,168.406536
55208,NaN,-2.599621,11.607934,-2.634888,1.736377,-0.967896,2.207834,0.050466,0.468766,-0.074350,-0.085933,-0.056568,-0.763355,-0.637734,99.911173,3.384963,168.678668
55209,NaN,-2.129188,11.127679,-2.541873,1.314480,-0.872083,1.690850,-0.174277,0.162282,0.098790,-0.085087,-0.056326,-0.762880,-0.638437,99.822906,3.319389,168.760414
55210,NaN,-1.985063,9.967051,-2.552493,1.206926,-1.085097,0.539298,-0.259906,-0.078889,0.166251,-0.084970,-0.057073,-0.762010,-0.639425,99.677450,3.239409,168.699369
55211,NaN,-1.329440,9.078640,-2.714157,0.556756,-1.294406,-0.348531,-0.195676,-0.217111,0.146357,-0.085424,-0.058214,-0.761290,-0.640119,99.564491,3.183717,168.562180
55212,NaN,-0.806742,9.024273,-2.605064,0.070398,-1.109214,-0.451096,-0.060205,-0.237362,0.106178,-0.086045,-0.059324,-0.761005,-0.640272,99.528950,3.152523,168.417466
55213,NaN,-0.475601,9.381973,-2.308527,-0.198656,-0.697617,-0.166404,0.015545,-0.206985,0.059954,-0.086675,-0.060193,-0.760988,-0.640126,99.537989,3.144510,168.294329
55214,NaN,-0.121394,9.697212,-1.762414,-0.435143,-0.042439,0.034425,0.029717,-0.149053,0.066484,-0.087060,-0.060908,-0.761039,-0.639945,99.556991,3.127354,168.203368
55215,NaN,-0.671944,10.170032,-0.995451,0.257865,0.668435,0.402923,0.008415,-0.076663,0.026392,-0.087303,-0.061230,-0.761066,-0.639850,99.566209,3.125949,168.157175
55216,NaN,-1.331694,10.893091,0.365605,1.174380,1.965818,0.926162,-0.097647,-0.097208,-0.026377,-0.087827,-0.061370,-0.760760,-0.640129,99.514320,3.156328,168.104385
55217,NaN,-1.455420,11.298599,1.680362,1.561165,3.253654,1.122420,-0.326288,-0.207428,0.010696,-0.088721,-0.061904,-0.759660,-0.641259,99.327657,3.175967,167.985627
55218,NaN,-2.008156,11.021843,2.178405,2.212845,3.522361,0.815346,-0.501923,-0.362763,0.103815,-0.089960,-0.063210,-0.757895,-0.643045,99.035134,3.156653,167.770294
55219,NaN,-2.218658,10.505387,1.724556,2.332596,2.887726,0.408821,-0.571834,-0.684978,0.072378,-0.092543,-0.065402,-0.755758,-0.644972,98.692305,3.182436,167.375092
55220,NaN,-0.739905,9.965623,0.552077,0.633339,1.931063,-0.012918,-0.532153,-0.833203,-0.048722,-0.096060,-0.067630,-0.753705,-0.646628,98.367882,3.287092,166.905976
55221,NaN,-0.337600,9.255246,-0.165588,0.074738,1.181362,-0.625757,-0.310625,-0.722016,-0.101659,-0.099255,-0.069405,-0.752421,-0.647452,98.172936,3.410561,166.503758
55222,NaN,-0.636225,8.895353,-0.433536,0.290979,0.784009,-0.923330,-0.077887,-0.571927,-0.142780,-0.101934,-0.070653,-0.751973,-0.647421,98.116227,3.544202,166.189944
55223,NaN,-0.762355,9.119605,-0.723665,0.317170,0.512606,-0.652520,0.086589,-0.425408,-0.202942,-0.104200,-0.071285,-0.752145,-0.646791,98.158045,3.700123,165.964108
55224,NaN,-0.494663,9.583509,-1.093612,-0.069795,0.309872,-0.159535,0.142239,-0.270998,-0.266937,-0.106070,-0.071205,-0.752599,-0.645967,98.237728,3.879879,165.831507
55225,NaN,-0.073577,9.949697,-1.545344,-0.628131,0.057659,0.236791,0.120228,-0.072868,-0.295713,-0.107297,-0.070365,-0.753092,-0.645282,98.311853,4.059868,165.813984
55226,NaN,0.055180,10.072549,-1.878407,-0.868297,-0.192035,0.394996,0.071313,0.092757,-0.312936,-0.107971,-0.068899,-0.753523,-0.644825,98.365333,4.235801,165.892355
55227,NaN,-0.361454,10.225600,-2.234716,-0.585894,-0.599288,0.626902,-0.017362,0.105543,-0.245233,-0.108410,-0.067599,-0.753646,-0.644744,98.367851,4.372293,165.972312
55228,NaN,-0.884385,10.439288,-2.571591,-0.195747,-1.015105,0.925336,-0.136389,-0.021289,-0.181982,-0.109162,-0.066882,-0.753297,-0.645100,98.296860,4.483464,165.974939
55229,NaN,-0.728047,10.783431,-2.955964,-0.481913,-1.309388,1.305015,-0.317120,-0.159531,-0.117762,-0.110289,-0.066754,-0.752264,-0.646126,98.115231,4.569559,165.893297
55230,NaN,-0.128420,10.612517,-3.268894,-1.158874,-1.531329,1.125293,-0.537563,-0.136369,-0.057863,-0.111206,-0.066654,-0.750511,-0.648016,97.808295,4.619448,165.819812
55231,NaN,0.127743,10.033466,-3.276347,-1.404190,-1.624908,0.522141,-0.702923,0.001085,-0.002990,-0.111486,-0.066223,-0.748270,-0.650598,97.412161,4.627302,165.820061
55232,NaN,0.356163,9.439025,-3.163969,-1.583525,-1.620682,-0.112273,-0.801364,0.151192,0.037547,-0.111102,-0.065398,-0.745770,-0.653610,96.966640,4.601343,165.903037
55233,NaN,1.005670,9.178248,-3.042820,-2.175900,-1.463526,-0.451423,-0.857329,0.341656,0.068558,-0.109922,-0.064036,-0.743168,-0.656900,96.497246,4.545560,166.092773
55234,NaN,1.672370,8.973889,-2.754137,-2.740236,-1.142337,-0.751884,-0.901098,0.604368,0.093590,-0.107696,-0.061877,-0.740542,-0.660432,96.014503,4.460740,166.431543
55235,NaN,2.190428,8.892101,-2.438531,-3.157148,-0.827910,-0.915505,-0.933798,0.899023,0.116725,-0.104308,-0.058812,-0.737932,-0.664166,95.525157,4.348469,166.938053
55236,NaN,2.443277,8.736990,-2.074016,-3.302419,-0.547959,-1.129444,-0.956404,1.204707,0.107951,-0.099823,-0.054684,-0.735373,-0.668035,95.035187,4.229564,167.620835
55237,NaN,2.569934,8.902489,-1.595177,-3.323852,-0.162386,-1.019072,-0.982886,1.514229,0.068082,-0.094332,-0.049360,-0.732839,-0.672021,94.541715,4.124151,168.483577
55238,NaN,2.050058,8.951975,-1.212986,-2.738983,-0.019845,-0.963506,-1.050765,1.829694,0.045504,-0.087770,-0.042855,-0.730162,-0.676257,94.020887,4.026078,169.528820
55239,NaN,0.767297,9.033311,-0.683884,-1.392025,0.152218,-0.829634,-1.026060,2.103947,-0.059999,-0.080545,-0.035046,-0.727621,-0.680332,93.524190,3.986777,170.735925
55240,NaN,-0.583086,9.270425,-0.182302,-0.012671,0.355712,-0.529003,-0.979988,2.253013,-0.206541,-0.073259,-0.026208,-0.725218,-0.684109,93.060424,4.036962,172.033680
55241,NaN,-1.446149,9.489351,-0.295655,0.782915,0.077073,-0.241513,-0.912598,2.318654,-0.279780,-0.065963,-0.016903,-0.722967,-0.687518,92.639663,4.136677,173.370827
55242,NaN,-1.876340,9.449145,-0.781573,1.131179,-0.493258,-0.226505,-0.751012,2.313625,-0.349142,-0.058902,-0.007412,-0.721166,-0.690214,92.314372,4.285410,174.706390
55243,NaN,-1.744299,9.486986,-1.266149,0.934623,-0.978454,-0.178493,-0.548992,2.298717,-0.442804,-0.052200,0.002303,-0.719953,-0.692053,92.108332,4.493826,176.035028
55244,NaN,-2.144521,9.305911,-1.549017,1.314180,-1.289668,-0.314895,-0.301457,2.226530,-0.464535,-0.045831,0.011786,-0.719480,-0.692899,92.045972,4.719734,177.322605
55245,NaN,-1.965195,9.481807,-1.647154,1.104731,-1.343585,-0.145526,-0.089265,2.160687,-0.530660,-0.039933,0.021225,-0.719630,-0.692883,92.107554,4.984504,178.574144
55246,NaN,-2.008868,9.729015,-1.529400,1.110158,-1.174222,0.107839,0.079256,2.026277,-0.565417,-0.034653,0.030290,-0.720250,-0.692186,92.265029,5.270104,179.750248
55247,NaN,-2.383852,9.921580,-1.600272,1.436847,-1.183376,0.346844,0.169624,1.776292,-0.581952,-0.030340,0.038529,-0.721065,-0.691130,92.466797,5.567093,-179.215578
55248,NaN,-2.477970,10.167368,-1.974352,1.475292,-1.484031,0.629271,0.262538,1.383991,-0.600139,-0.027521,0.045463,-0.722084,-0.689761,92.705030,5.880988,-178.404906
55249,NaN,-1.806349,10.679673,-2.424030,0.723597,-1.872831,1.103483,0.294131,0.998182,-0.603794,-0.026113,0.051071,-0.723125,-0.688331,92.942702,6.204277,-177.814373
55250,NaN,-0.940241,11.079655,-2.850198,-0.213501,-2.273147,1.436909,0.194125,0.706634,-0.591410,-0.025691,0.055645,-0.723765,-0.687319,93.107871,6.527461,-177.390566
55251,NaN,-0.546463,10.782114,-2.809359,-0.616716,-2.250359,1.096048,-0.013627,0.510873,-0.509245,-0.025635,0.059273,-0.723677,-0.687111,93.143069,6.808791,-177.081238
55252,NaN,-1.070497,9.807767,-2.382048,-0.032993,-1.851276,0.166492,-0.167692,0.326940,-0.359358,-0.025685,0.061747,-0.723072,-0.687528,93.077840,7.010392,-176.882564
55253,NaN,-1.674871,8.676066,-1.700193,0.650740,-1.204074,-0.919056,-0.154558,0.100682,-0.239239,-0.026143,0.063005,-0.722519,-0.687978,93.004421,7.150133,-176.818116
55254,NaN,-1.585422,7.964414,-0.830042,0.593955,-0.379763,-1.680196,0.002752,-0.107354,-0.130940,-0.027030,0.063138,-0.722510,-0.687940,93.005568,7.234447,-176.877070
55255,NaN,-0.798333,7.871757,0.016718,-0.222336,0.425323,-1.915104,0.203128,-0.165888,-0.027747,-0.027836,0.062668,-0.723217,-0.687208,93.117111,7.261352,-176.972800
55256,NaN,-0.047512,8.250918,0.972588,-1.058076,1.379756,-1.688495,0.340266,-0.098754,0.073205,-0.028097,0.062046,-0.724432,-0.685973,93.311415,7.228820,-177.033102
55257,NaN,0.374342,8.683157,1.687320,-1.553022,2.125070,-1.359494,0.385911,0.028409,0.201299,-0.027470,0.061387,-0.725860,-0.684547,93.540780,7.118645,-177.024561
55258,NaN,0.500259,8.990435,2.171020,-1.718831,2.654168,-1.106807,0.408761,0.167943,0.320225,-0.025939,0.060773,-0.727416,-0.683008,93.792210,6.935572,-176.940563
55259,NaN,0.345392,9.566145,2.924691,-1.646128,3.484023,-0.574943,0.347065,0.201692,0.347601,-0.024170,0.060180,-0.728769,-0.681682,94.010209,6.734860,-176.838971
55260,NaN,1.419377,9.628566,2.652934,-2.676568,3.189231,-0.624292,0.319989,0.447673,0.488075,-0.021019,0.059917,-0.730094,-0.680391,94.227632,6.443700,-176.602538
55261,NaN,0.475109,9.920734,2.812126,-1.756543,3.452702,-0.244614,0.344259,0.777561,0.418265,-0.016907,0.061026,-0.731501,-0.678893,94.478756,6.176671,-176.174795
55262,NaN,-0.628967,10.183451,2.667314,-0.670982,3.433661,0.135804,0.275075,0.885982,0.303344,-0.012768,0.062930,-0.732631,-0.677590,94.695582,5.969020,-175.680747
55263,NaN,-1.046812,9.817322,1.965637,-0.161077,2.775960,-0.137600,0.269925,0.899607,0.332170,-0.008478,0.064770,-0.733735,-0.676288,94.907852,5.741921,-175.181333
55264,NaN,-1.119520,9.404171,1.236577,0.020902,2.065004,-0.487664,0.311205,0.904392,0.263730,-0.004417,0.066878,-0.734939,-0.674812,95.142767,5.552206,-174.676715
55265,NaN,-1.702662,9.157664,0.772110,0.669002,1.686699,-0.643977,0.453173,0.843421,0.140492,-0.001041,0.069224,-0.736561,-0.672819,95.454412,5.433148,-174.201658
55266,NaN,-2.599154,9.405877,0.492414,1.546709,1.583705,-0.295979,0.577581,0.623850,-0.112722,0.000628,0.071765,-0.738498,-0.670425,95.826774,5.468498,-173.838675
55267,NaN,-2.596074,9.588101,0.157608,1.535734,1.334718,-0.088707,0.579201,0.335711,-0.138676,0.001149,0.073433,-0.740418,-0.668122,96.184210,5.533201,-173.638967
55268,NaN,-3.452649,9.631729,0.187771,2.358468,1.523757,0.028133,0.597096,0.010980,-0.056041,0.000734,0.073712,-0.742426,-0.665861,96.534164,5.570633,-173.629751
55269,NaN,-3.519576,9.972083,0.033629,2.385358,1.462107,0.385506,0.543720,-0.397719,-0.177698,-0.001581,0.073078,-0.744200,-0.663945,96.830815,5.704208,-173.846040
55270,NaN,-2.920992,10.331322,-0.219527,1.751126,1.215592,0.712160,0.398141,-0.749168,-0.232605,-0.005335,0.071484,-0.745460,-0.662684,97.024181,5.894504,-174.258760
55271,NaN,-2.938628,10.385863,-0.460460,1.754599,0.991832,0.801044,0.245040,-1.010303,-0.213068,-0.009942,0.068953,-0.746191,-0.662077,97.112076,6.092942,-174.822020
55272,NaN,-2.596771,10.442325,-0.386446,1.374759,1.028446,0.816844,0.120766,-1.237860,-0.237379,-0.015436,0.065765,-0.746469,-0.661983,97.113444,6.321952,-175.513571
55273,NaN,-1.805751,10.438253,-0.319076,0.560373,1.012308,0.722055,0.022083,-1.327839,-0.184050,-0.021056,0.062083,-0.746395,-0.662267,97.048733,6.526525,-176.261015
55274,NaN,-1.074815,10.540587,-0.317769,-0.200678,0.960574,0.741797,0.002786,-1.276342,-0.186328,-0.026484,0.058582,-0.746233,-0.662574,96.974398,6.727980,-176.979168
55275,NaN,-1.083238,10.836464,-0.505897,-0.245524,0.794007,1.057800,-0.032063,-1.134973,-0.161598,-0.031292,0.055457,-0.745949,-0.662952,96.886323,6.904490,-177.618852
55276,NaN,-1.374743,11.111555,-0.594363,-0.011371,0.732151,1.375413,-0.063562,-1.000854,-0.141123,-0.035522,0.052705,-0.745570,-0.663390,96.788235,7.059266,-178.183364
55277,NaN,-1.467514,11.514189,-0.298490,0.005685,1.049481,1.750950,-0.163033,-0.880394,-0.111157,-0.039177,0.050255,-0.744868,-0.664162,96.639221,7.187596,-178.681567
55278,NaN,-1.007884,11.886884,0.226885,-0.513342,1.562824,2.005060,-0.368167,-0.763144,-0.059947,-0.042172,0.048046,-0.743512,-0.665660,96.380510,7.277514,-179.116181
55279,NaN,-0.047911,11.749234,0.807746,-1.452902,2.050378,1.693130,-0.613975,-0.623110,-0.043234,-0.044532,0.046289,-0.741352,-0.668036,95.989516,7.346681,-179.472260
55280,NaN,0.947481,10.958978,0.744793,-2.344204,1.825138,0.804503,-0.738339,-0.508998,-0.089204,-0.046592,0.045112,-0.738782,-0.670817,95.536371,7.433027,-179.760381
55281,NaN,2.240538,9.982797,0.297117,-3.517440,1.209702,-0.277052,-0.755701,-0.299400,-0.183516,-0.048189,0.044988,-0.736162,-0.673587,95.088055,7.559549,-179.923897
55282,NaN,3.069399,9.041240,-0.217982,-4.237980,0.547694,-1.271496,-0.638063,0.154957,-0.167231,-0.048086,0.046307,-0.734046,-0.675810,94.742226,7.653606,-179.827171
55283,NaN,3.003148,8.404095,-0.475123,-4.102272,0.182315,-1.874720,-0.388956,0.662264,-0.154977,-0.046134,0.049231,-0.732882,-0.677002,94.577177,7.716994,-179.439417
55284,NaN,2.605320,8.416728,-0.673630,-3.716067,-0.053418,-1.795788,-0.093542,1.015450,-0.104617,-0.042791,0.053101,-0.732802,-0.677016,94.609758,7.736343,-178.850153
55285,NaN,1.990239,8.977711,-0.950374,-3.176713,-0.297323,-1.136074,0.104816,1.242968,-0.019702,-0.038375,0.057380,-0.733435,-0.676245,94.771882,7.694856,-178.134104
55286,NaN,0.751324,9.377691,-1.388682,-1.977864,-0.665346,-0.534793,0.172552,1.359904,0.078816,-0.033218,0.061684,-0.734323,-0.675176,94.981250,7.589822,-177.355477
55287,NaN,-1.046042,9.512105,-1.753581,-0.175652,-0.913418,-0.128473,0.212815,1.267035,0.129867,-0.028237,0.065470,-0.735308,-0.673972,95.203600,7.456651,-176.633867
55288,NaN,-2.806014,9.581814,-2.320500,1.615023,-1.324375,0.222601,0.250032,0.926089,0.149349,-0.024459,0.068036,-0.736359,-0.672718,95.421234,7.328524,-176.109853
55289,NaN,-3.442322,10.001936,-2.755860,2.242199,-1.631025,0.760637,0.231423,0.456988,0.180115,-0.022294,0.068905,-0.737283,-0.671691,95.591659,7.206122,-175.858127
55290,NaN,-3.520181,10.440795,-3.129816,2.307040,-1.929477,1.239564,0.122870,0.017183,0.201486,-0.021645,0.068236,-0.737803,-0.671209,95.668727,7.096480,-175.860388
55291,NaN,-3.452786,10.630917,-3.039004,2.225976,-1.826434,1.407063,-0.027526,-0.364531,0.208326,-0.022326,0.066272,-0.737773,-0.671417,95.631775,7.003837,-176.082633
55292,NaN,-2.472092,10.262716,-2.922757,1.303902,-1.832234,0.907376,-0.147672,-0.609665,0.212806,-0.023860,0.063487,-0.737313,-0.672138,95.510120,6.922603,-176.445530
55293,NaN,-2.103513,9.725948,-2.310854,0.980940,-1.324273,0.269121,-0.176306,-0.686880,0.204239,-0.025695,0.060472,-0.736731,-0.672986,95.366552,6.849072,-176.852289
55294,NaN,-1.024549,9.339443,-1.625204,-0.064540,-0.757977,-0.308085,-0.112377,-0.645352,0.190017,-0.027447,0.057645,-0.736361,-0.673570,95.263820,6.781125,-177.233990
55295,NaN,-0.287172,9.424855,-0.934832,-0.823508,-0.104678,-0.373665,0.045396,-0.412101,0.156699,-0.028495,0.055699,-0.736534,-0.673501,95.267196,6.719067,-177.480005
55296,NaN,-0.196036,9.870714,-0.300516,-0.977626,0.573089,-0.000679,0.177825,-0.119636,0.146066,-0.028541,0.054763,-0.737194,-0.672854,95.367038,6.648295,-177.557286
55297,NaN,0.087020,10.658541,0.503115,-1.364229,1.450321,0.670661,0.179063,0.133242,0.159951,-0.027605,0.054621,-0.737892,-0.672138,95.483588,6.555466,-177.490442
55298,NaN,-0.740134,11.392524,1.495892,-0.644048,2.558514,1.395089,0.096059,0.335397,0.245607,-0.025616,0.054859,-0.738364,-0.671679,95.565678,6.403104,-177.312304
55299,NaN,-1.097627,11.450800,2.059436,-0.287006,3.149027,1.437558,-0.049968,0.341616,0.388695,-0.023080,0.054602,-0.738377,-0.671777,95.562169,6.168045,-177.138993
55300,NaN,-1.756485,11.114606,1.677606,0.462171,2.769329,1.212334,-0.104306,0.215306,0.472416,-0.020718,0.053623,-0.738216,-0.672111,95.519490,5.892932,-177.042535
55301,NaN,-1.726539,10.819199,0.858061,0.542124,1.917735,0.994742,-0.136897,0.035154,0.370646,-0.019350,0.052413,-0.737890,-0.672605,95.446898,5.685206,-177.043780
55302,NaN,-0.781992,10.362497,0.084997,-0.286489,1.051227,0.522345,-0.065154,-0.054349,0.213303,-0.018864,0.051480,-0.737758,-0.672835,95.412250,5.572693,-177.087291
55303,NaN,-0.482068,9.775916,-0.663578,-0.478969,0.243816,-0.017159,0.134745,-0.002305,0.108556,-0.018587,0.051084,-0.738271,-0.672310,95.494536,5.516506,-177.095572
55304,NaN,-0.864358,9.306782,-1.191511,-0.022926,-0.279657,-0.394398,0.351031,0.078910,0.079184,-0.018166,0.051055,-0.739515,-0.670955,95.706446,5.473150,-177.055539
55305,NaN,-1.555798,9.224880,-1.516228,0.689587,-0.531698,-0.375558,0.532343,0.055735,0.046436,-0.017985,0.051047,-0.741347,-0.668936,96.020024,5.449016,-177.027331
55306,NaN,-2.193059,9.313015,-1.841749,1.327171,-0.758270,-0.189946,0.640967,-0.132732,0.046699,-0.018531,0.050402,-0.743524,-0.666549,96.386680,5.436849,-177.106839
55307,NaN,-2.875756,9.409191,-1.866070,1.994519,-0.681113,-0.022754,0.713042,-0.476965,0.104890,-0.020179,0.048382,-0.745908,-0.663983,96.774629,5.414126,-177.387341
55308,NaN,-3.285649,9.546234,-1.851232,2.385287,-0.584036,0.153370,0.741892,-0.954593,0.191296,-0.023330,0.044455,-0.748344,-0.661408,97.154065,5.377871,-177.946585
55309,NaN,-2.784962,9.710832,-2.063542,1.873956,-0.757733,0.298126,0.672723,-1.366072,0.290339,-0.027675,0.038798,-0.750483,-0.659169,97.470762,5.318274,-178.748367
55310,NaN,-2.378591,9.751155,-2.276914,1.459175,-0.947498,0.331279,0.594601,-1.586143,0.237406,-0.033005,0.032627,-0.752279,-0.657208,97.732890,5.309898,-179.671636
55311,NaN,-2.410106,9.868210,-2.202367,1.462330,-0.845876,0.443367,0.440800,-1.799845,0.202205,-0.039225,0.025905,-0.753464,-0.655807,97.894732,5.341179,179.285740
55312,NaN,-2.003329,9.744692,-2.201609,1.047319,-0.864880,0.285554,0.204917,-1.956961,0.240284,-0.045879,0.018571,-0.753784,-0.655256,97.913206,5.365234,178.150785
55313,NaN,-1.415002,9.206112,-2.276130,0.484814,-1.017025,-0.290817,0.011271,-1.997576,0.287275,-0.052509,0.010967,-0.753384,-0.655389,97.817120,5.364709,176.988718
55314,NaN,-1.039321,8.628374,-2.296282,0.138254,-1.123345,-0.895242,-0.070023,-1.922147,0.296293,-0.058817,0.003600,-0.752669,-0.655757,97.679407,5.351206,175.869198
55315,NaN,-0.485592,8.341491,-2.257845,-0.402331,-1.104395,-1.237576,-0.074484,-1.749971,0.324924,-0.064376,-0.003313,-0.751921,-0.656094,97.547861,5.305417,174.845589
55316,NaN,-0.025594,8.356886,-2.231711,-0.867683,-1.042103,-1.269861,-0.023343,-1.493382,0.328737,-0.068954,-0.009411,-0.751375,-0.656195,97.460855,5.236653,173.968452
55317,NaN,-0.055247,8.710685,-1.969237,-0.839165,-0.737820,-0.952191,0.000445,-1.185523,0.257879,-0.072602,-0.014244,-0.750978,-0.656170,97.404152,5.183844,173.272214
55318,NaN,-0.510498,9.459665,-1.228111,-0.349524,0.038673,-0.266460,-0.026283,-0.948143,0.161623,-0.075676,-0.017924,-0.750567,-0.656202,97.346117,5.167969,172.718792
55319,NaN,-0.795752,10.524027,-0.078910,0.013681,1.262793,0.665847,-0.184402,-0.821694,0.047678,-0.078660,-0.020705,-0.749676,-0.656788,97.203990,5.206278,172.245679
55320,NaN,-0.425987,11.095894,0.063705,-0.379883,1.492091,1.184289,-0.475263,-0.634121,-0.064767,-0.081340,-0.022330,-0.747907,-0.658423,96.905868,5.293954,171.887600
55321,NaN,-0.029683,10.447292,-0.196455,-0.782777,1.149466,0.543517,-0.643866,-0.275836,-0.135986,-0.082932,-0.022443,-0.745721,-0.660696,96.529282,5.395573,171.738315
55322,NaN,-0.151505,9.498615,-0.590820,-0.675057,0.571066,-0.335680,-0.527348,0.107293,-0.157546,-0.083153,-0.021255,-0.744079,-0.662556,96.240798,5.484661,171.809131
55323,NaN,-0.568186,9.132954,-0.913598,-0.307432,0.117809,-0.622482,-0.279212,0.371010,-0.245190,-0.082655,-0.018975,-0.743367,-0.663486,96.108908,5.607161,172.035777
55324,NaN,-1.263247,9.119912,-1.451961,0.279213,-0.514238,-0.510303,-0.011640,0.473590,-0.255772,-0.081787,-0.016421,-0.743586,-0.663416,96.137455,5.730142,172.321944
55325,NaN,-1.907008,9.263319,-1.994207,0.811572,-1.096053,-0.243855,0.225297,0.412282,-0.211771,-0.080979,-0.014335,-0.744552,-0.662479,96.297749,5.830885,172.570319
55326,NaN,-1.836711,9.477127,-2.692674,0.621834,-1.711390,0.042476,0.361045,0.279864,-0.119650,-0.080350,-0.013082,-0.745908,-0.661055,96.528636,5.887318,172.737565
55327,NaN,-1.953498,9.143578,-3.279210,0.689820,-2.301297,-0.200071,0.455501,0.130904,0.007573,-0.079848,-0.012836,-0.747499,-0.659321,96.803432,5.880073,172.811154
55328,NaN,-1.995671,8.971475,-3.430863,0.731645,-2.428650,-0.336032,0.571397,-0.069854,0.017132,-0.080059,-0.013331,-0.749391,-0.657135,97.133496,5.881409,172.769445
55329,NaN,-2.222199,8.844650,-3.377705,0.979844,-2.371866,-0.432450,0.614299,-0.392302,0.212964,-0.080829,-0.015639,-0.751269,-0.654842,97.467422,5.794781,172.529060
55330,NaN,-1.857610,8.861291,-3.230241,0.648258,-2.130031,-0.461207,0.670921,-0.756368,0.309843,-0.082645,-0.019523,-0.753164,-0.652328,97.813197,5.682678,172.073155
55331,NaN,-1.246101,8.966032,-3.001906,0.077540,-1.757485,-0.439377,0.675439,-0.955256,0.308727,-0.085208,-0.024055,-0.754966,-0.649759,98.150774,5.589416,171.503248
55332,NaN,-1.239033,9.166365,-2.683626,0.111508,-1.366900,-0.279677,0.597495,-1.055534,0.312449,-0.088146,-0.028890,-0.756445,-0.647447,98.439390,5.505755,170.875606
55333,NaN,-1.249450,9.035610,-2.543407,0.162607,-1.215180,-0.422847,0.494678,-1.111397,0.378718,-0.091090,-0.034112,-0.757524,-0.645520,98.666281,5.391809,170.210144
55334,NaN,-1.193157,8.932405,-2.454047,0.138016,-1.107250,-0.539676,0.422385,-1.133436,0.333446,-0.094274,-0.039198,-0.758339,-0.643815,98.852376,5.308119,169.535901
55335,NaN,-0.989515,8.723026,-2.500927,-0.051587,-1.126739,-0.754392,0.377915,-1.087918,0.349596,-0.097237,-0.044177,-0.758999,-0.642272,99.016033,5.212996,168.885866
55336,NaN,-0.908023,8.707412,-2.389409,-0.101308,-0.981813,-0.791682,0.380022,-0.987412,0.295026,-0.099992,-0.048625,-0.759703,-0.640694,99.187651,5.141822,168.297766
55337,NaN,-0.517894,8.863511,-2.066163,-0.413032,-0.537335,-0.722050,0.368949,-0.830308,0.249072,-0.102296,-0.052389,-0.760440,-0.639157,99.361742,5.083607,167.802919
55338,NaN,-0.564543,9.315923,-1.356456,-0.220745,0.243510,-0.387349,0.348033,-0.685623,0.195089,-0.104227,-0.055473,-0.761185,-0.637697,99.532111,5.044064,167.395174
55339,NaN,-0.506443,10.011292,-0.374634,-0.073333,1.346603,0.127336,0.226676,-0.583681,0.090072,-0.106135,-0.057770,-0.761614,-0.636665,99.638875,5.054802,167.055176
55340,NaN,-0.127325,10.297902,0.406228,-0.258571,2.241032,0.244097,0.033454,-0.407530,0.132966,-0.107293,-0.059564,-0.761505,-0.636436,99.643542,5.025043,166.810992
55341,NaN,-0.282269,10.163732,0.843367,0.015094,2.593453,0.054741,-0.107222,-0.140945,0.129020,-0.107489,-0.060422,-0.761088,-0.636821,99.580742,4.971541,166.718322
55342,NaN,-0.910602,9.498936,0.813538,0.654670,2.289024,-0.536233,-0.108006,0.018889,0.089355,-0.107204,-0.060617,-0.760768,-0.637233,99.525973,4.925502,166.720215
55343,NaN,-0.872376,9.241530,0.448778,0.546721,1.895713,-0.731074,-0.028131,-0.003675,0.077773,-0.107016,-0.060885,-0.760691,-0.637331,99.515565,4.887788,166.710334
55344,NaN,-0.581568,9.223036,-0.270983,0.099776,1.271075,-0.655698,0.059154,-0.049271,0.094151,-0.106924,-0.061405,-0.760865,-0.637088,99.553252,4.845507,166.673132
55345,NaN,-0.479730,9.221593,-0.785135,-0.111190,0.809388,-0.581389,0.131209,-0.066597,0.141415,-0.106725,-0.062201,-0.761241,-0.636595,99.630544,4.777855,166.621412
55346,NaN,-0.736844,9.277307,-1.020828,0.096437,0.546505,-0.466810,0.186473,-0.046972,0.200888,-0.106245,-0.063188,-0.761787,-0.635925,99.740518,4.675167,166.575085
55347,NaN,-1.027167,9.361045,-1.270160,0.338525,0.270483,-0.320074,0.215660,-0.016676,0.260159,-0.105450,-0.064322,-0.762418,-0.635187,99.867660,4.535784,166.539777
55348,NaN,-1.203290,9.383895,-1.528566,0.473597,0.002658,-0.240983,0.225942,0.026243,0.255457,-0.104505,-0.065304,-0.763107,-0.634415,100.003230,4.395264,166.529053
55349,NaN,-1.605882,9.336542,-1.693367,0.854325,-0.241077,-0.229928,0.225959,0.020363,0.270985,-0.103531,-0.066367,-0.763782,-0.633651,100.137883,4.246250,166.512979
55350,NaN,-2.013346,9.401219,-1.771228,1.255782,-0.382442,-0.125045,0.228476,-0.072236,0.241354,-0.103005,-0.067609,-0.764428,-0.632826,100.270951,4.123730,166.447352
55351,NaN,-1.995076,9.537706,-2.005743,1.199243,-0.562411,0.047163,0.194818,-0.177140,0.208899,-0.102993,-0.069042,-0.764919,-0.632080,100.380308,4.030141,166.325406
55352,NaN,-1.795111,9.572873,-2.042987,1.011342,-0.534901,0.073018,0.129946,-0.228633,0.175243,-0.103306,-0.070475,-0.765191,-0.631541,100.451430,3.961318,166.177860
55353,NaN,-1.587109,9.373476,-2.187466,0.789574,-0.657485,-0.111643,0.063750,-0.224721,0.150945,-0.103705,-0.071769,-0.765260,-0.631246,100.484571,3.905712,166.034889
55354,NaN,-1.502409,9.178271,-2.322625,0.687212,-0.802856,-0.285062,0.042379,-0.187890,0.161241,-0.103938,-0.072974,-0.765279,-0.631047,100.507484,3.840732,165.911739
55355,NaN,-1.326114,9.236890,-2.332938,0.520556,-0.758464,-0.237978,0.032426,-0.142122,0.104753,-0.104177,-0.073814,-0.765307,-0.630875,100.526418,3.802689,165.820227
55356,NaN,-1.354691,9.275660,-2.321712,0.558241,-0.746619,-0.200491,0.033440,-0.070795,0.132651,-0.104055,-0.074535,-0.765367,-0.630737,100.548970,3.741632,165.766149
55357,NaN,-1.497400,9.650029,-1.969484,0.789138,-0.372510,0.111153,0.058200,-0.023046,0.105580,-0.103827,-0.075015,-0.765538,-0.630511,100.587231,3.690740,165.741745
55358,NaN,-1.339684,10.186072,-1.603382,0.730564,0.122042,0.559054,0.057745,-0.010865,0.091059,-0.103598,-0.075401,-0.765721,-0.630280,100.626247,3.646852,165.725815
55359,NaN,-1.437823,10.864018,-0.906070,1.000758,0.894600,1.101219,0.015711,0.035830,0.073085,-0.103263,-0.075549,-0.765800,-0.630222,100.642516,3.608110,165.738020
55360,NaN,-1.987743,11.119568,-0.253291,1.704516,1.424218,1.265501,-0.075387,0.000536,0.143260,-0.102875,-0.076030,-0.765549,-0.630532,100.605336,3.533625,165.722986
55361,NaN,-2.711933,10.942401,-0.027812,2.480392,1.407735,1.094070,-0.132846,-0.204477,0.238478,-0.102996,-0.077491,-0.764972,-0.631035,100.527070,3.427057,165.582214
55362,NaN,-2.640568,10.889717,-0.114359,2.408315,1.303688,1.053402,-0.140885,-0.512959,0.249316,-0.104263,-0.079963,-0.764204,-0.631448,100.434647,3.346303,165.266488
55363,NaN,-2.062179,10.759125,-0.365831,1.800621,1.155264,0.937578,-0.106116,-0.730696,0.220375,-0.106441,-0.083029,-0.763432,-0.631623,100.354854,3.304046,164.830856
55364,NaN,-1.695203,10.464979,-0.540866,1.412846,1.005516,0.659886,-0.034742,-0.802045,0.176755,-0.108995,-0.086190,-0.762857,-0.631459,100.314783,3.293103,164.359620
55365,NaN,-1.644899,9.930222,-0.705329,1.330726,0.751283,0.161140,0.102936,-0.816882,0.162861,-0.111591,-0.089418,-0.762698,-0.630749,100.352457,3.291735,163.881300
55366,NaN,-1.691005,9.841646,-0.770424,1.364598,0.661820,0.087359,0.227503,-0.843040,0.122850,-0.114353,-0.092645,-0.762924,-0.629514,100.461587,3.316006,163.392496
55367,NaN,-1.535565,10.195443,-0.978642,1.159150,0.589412,0.462121,0.273500,-0.853982,0.073050,-0.117293,-0.095739,-0.763292,-0.628062,100.595824,3.370804,162.902614
55368,NaN,-1.208611,10.312764,-1.271975,0.757463,0.448613,0.611167,0.199189,-0.820194,0.010905,-0.120329,-0.098446,-0.763466,-0.626856,100.689268,3.457699,162.438612
55369,NaN,-0.961987,9.984430,-1.654102,0.393342,0.114491,0.345189,0.100752,-0.785688,-0.059140,-0.123503,-0.100715,-0.763369,-0.625996,100.726208,3.581208,162.001422
55370,NaN,-0.497052,9.808477,-2.157900,-0.228599,-0.236038,0.237276,0.025459,-0.738481,-0.112663,-0.126697,-0.102585,-0.763086,-0.625399,100.721943,3.729614,161.596719
55371,NaN,-0.008707,9.810376,-2.795514,-0.924791,-0.667941,0.324225,-0.079288,-0.667711,-0.104638,-0.129651,-0.104196,-0.762502,-0.625240,100.658330,3.866051,161.230768
55372,NaN,0.456677,9.901998,-3.491413,-1.623924,-1.145718,0.507109,-0.167359,-0.526495,-0.092533,-0.132070,-0.105354,-0.761724,-0.625487,100.549713,3.979922,160.943167
55373,NaN,0.621098,9.843548,-3.984161,-1.972192,-1.569986,0.521734,-0.272812,-0.347176,-0.058500,-0.133758,-0.106010,-0.760708,-0.626254,100.386195,4.055513,160.752837
55374,NaN,0.617578,9.892969,-4.240347,-2.079707,-1.822684,0.607739,-0.372787,-0.177256,-0.018263,-0.134722,-0.106221,-0.759473,-0.627509,100.172556,4.090179,160.654314
55375,NaN,0.715357,9.848682,-4.534234,-2.285238,-2.113630,0.597765,-0.527882,0.006943,0.110752,-0.134666,-0.106238,-0.757798,-0.629540,99.875855,4.033389,160.646797
55376,NaN,0.870401,9.578795,-4.373747,-2.374042,-2.027222,0.281588,-0.633732,0.296173,0.202610,-0.133278,-0.105621,-0.755933,-0.632176,99.529921,3.896607,160.794579
55377,NaN,0.420285,9.262199,-3.980297,-1.800037,-1.943067,-0.076596,-0.694026,0.603145,0.251427,-0.130606,-0.104176,-0.754039,-0.635228,99.159808,3.704633,161.112470
55378,NaN,0.164275,8.980661,-3.422822,-1.347685,-1.635028,-0.436932,-0.703922,0.851969,0.247746,-0.127008,-0.101918,-0.752262,-0.638423,98.792354,3.494502,161.573041
55379,NaN,0.282213,9.048845,-2.563346,-1.158373,-0.863105,-0.515129,-0.719992,1.016838,0.246733,-0.122797,-0.099116,-0.750509,-0.641742,98.419225,3.273770,162.128442
55380,NaN,0.851105,9.249971,-1.577249,-1.375492,0.183997,-0.493485,-0.784829,1.065740,0.246364,-0.118431,-0.096112,-0.748549,-0.645299,98.008759,3.053055,162.713087
55381,NaN,1.835868,9.499059,-1.012726,-2.141087,0.947289,-0.370996,-0.881463,1.159013,0.212472,-0.113865,-0.092618,-0.746311,-0.649213,97.543412,2.848735,163.354884
55382,NaN,1.681823,9.188503,-0.743926,-1.919181,1.007651,-0.696167,-0.914973,1.330609,0.107875,-0.109007,-0.088152,-0.744067,-0.653231,97.062331,2.696744,164.103564
55383,NaN,1.396933,8.838048,-0.721593,-1.651624,0.807784,-1.026213,-0.813368,1.423953,-0.062650,-0.104306,-0.082798,-0.742230,-0.656779,96.640857,2.641046,164.918120
55384,NaN,1.552105,8.954394,-1.019489,-1.906830,0.491319,-0.882318,-0.728724,1.500883,-0.249516,-0.099892,-0.076535,-0.740740,-0.659900,96.270792,2.692631,165.788998
55385,NaN,1.104014,9.163815,-1.131857,-1.537286,0.225311,-0.644209,-0.559889,1.576078,-0.398992,-0.095620,-0.069551,-0.739846,-0.662305,96.001048,2.829279,166.711623
55386,NaN,0.772213,9.559009,-1.465014,-1.339234,-0.182022,-0.205906,-0.431543,1.619795,-0.535933,-0.091588,-0.061969,-0.739392,-0.664132,95.809691,3.045448,167.666932
55387,NaN,0.476353,9.822828,-2.006366,-1.211853,-0.780709,0.120192,-0.312384,1.665655,-0.580830,-0.087490,-0.054122,-0.739308,-0.665462,95.691653,3.286725,168.650550
55388,NaN,0.306936,10.258837,-2.237391,-1.143417,-1.018392,0.579578,-0.224614,1.725394,-0.697362,-0.083531,-0.045676,-0.739514,-0.666375,95.631366,3.593028,169.674853
55389,NaN,-0.236706,10.269871,-2.525579,-0.697107,-1.411986,0.647957,-0.199097,1.725901,-0.681074,-0.079499,-0.037299,-0.739735,-0.667144,95.590776,3.890430,170.698539
55390,NaN,-0.581840,10.142171,-2.632605,-0.398892,-1.592486,0.552522,-0.172266,1.651094,-0.715269,-0.075849,-0.029049,-0.739961,-0.667728,95.568483,4.212543,171.681644
55391,NaN,-1.192091,9.908228,-2.629248,0.187036,-1.700439,0.364762,-0.181627,1.483051,-0.689516,-0.072727,-0.021453,-0.740032,-0.668283,95.538696,4.529236,172.567421
55392,NaN,-1.444953,9.587365,-2.566865,0.435210,-1.700570,0.062170,-0.203054,1.264238,-0.665000,-0.070334,-0.014666,-0.739907,-0.668862,95.491360,4.845086,173.326851
55393,NaN,-1.545734,9.180511,-2.597573,0.526719,-1.781778,-0.327636,-0.213839,1.070273,-0.675121,-0.068687,-0.008489,-0.739642,-0.669432,95.432398,5.177531,173.975830
55394,NaN,-1.335978,8.860256,-2.420771,0.326511,-1.619183,-0.679199,-0.254741,0.942558,-0.689715,-0.067563,-0.002668,-0.739169,-0.670117,95.347168,5.526443,174.552377
55395,NaN,-1.331329,8.449787,-2.102460,0.349996,-1.349642,-1.115130,-0.248576,0.888786,-0.681546,-0.066605,0.002938,-0.738674,-0.670758,95.265858,5.873964,175.097493
55396,NaN,-1.606341,8.176394,-1.576690,0.656693,-0.881879,-1.403728,-0.239375,0.825206,-0.646884,-0.065767,0.008202,-0.738165,-0.671356,95.188968,6.206188,175.604154
55397,NaN,-1.752065,8.069256,-1.090952,0.811395,-0.422860,-1.534071,-0.233279,0.723804,-0.609823,-0.065175,0.012984,-0.737627,-0.671931,95.111831,6.522783,176.050558
55398,NaN,-1.586984,8.032407,-0.922559,0.625454,-0.249160,-1.600756,-0.183738,0.610640,-0.496972,-0.064625,0.016956,-0.737209,-0.672353,95.057002,6.781602,176.426039
55399,NaN,-1.214447,8.318645,-0.874684,0.195395,-0.150686,-1.364086,-0.090362,0.559807,-0.392086,-0.063915,0.020338,-0.737089,-0.672459,95.053141,6.982995,176.767036
55400,NaN,-0.801393,8.869164,-0.771485,-0.298313,0.031221,-0.879073,-0.017345,0.581482,-0.336136,-0.062945,0.023565,-0.737217,-0.672305,95.093311,7.151573,177.117814
55401,NaN,-0.569973,9.321360,-0.613066,-0.597339,0.248676,-0.476212,-0.009607,0.641609,-0.300311,-0.061632,0.026858,-0.737386,-0.672118,95.143119,7.296035,177.501615
55402,NaN,-0.657245,9.440347,-0.377853,-0.536891,0.494922,-0.370142,-0.026214,0.701093,-0.271985,-0.060003,0.030252,-0.737511,-0.671984,95.188428,7.421273,177.918376
55403,NaN,-0.754676,9.389946,-0.094606,-0.443509,0.772564,-0.434203,-0.038083,0.727144,-0.235287,-0.058150,0.033600,-0.737599,-0.671891,95.229558,7.523539,178.348429
55404,NaN,-0.668989,9.278246,0.081333,-0.527787,0.944666,-0.573151,-0.002141,0.736401,-0.192627,-0.056126,0.036813,-0.737806,-0.671667,95.292302,7.600958,178.781709
55405,NaN,-0.513504,9.376513,0.360549,-0.706146,1.244004,-0.524715,0.061613,0.762190,-0.205517,-0.054060,0.040139,-0.738222,-0.671189,95.394277,7.683336,179.230726
55406,NaN,-0.427956,9.685538,0.692416,-0.846308,1.617827,-0.266035,0.099519,0.784705,-0.186146,-0.051854,0.043461,-0.738762,-0.670561,95.520179,7.752955,179.691876
55407,NaN,-0.421279,9.684671,0.606946,-0.876134,1.547432,-0.264049,0.110052,0.799711,-0.147392,-0.049462,0.046683,-0.739338,-0.669891,95.653382,7.798149,-179.840319
55408,NaN,-0.080819,9.457756,0.188000,-1.200441,1.122103,-0.496527,0.134974,0.850401,-0.046253,-0.046551,0.049697,-0.740020,-0.669129,95.804258,7.782091,-179.349036
55409,NaN,-0.646579,9.248618,-0.386454,-0.612915,0.557994,-0.570542,0.247107,0.839563,0.048526,-0.043387,0.052294,-0.741084,-0.667966,96.017196,7.710588,-178.869780
55410,NaN,-1.089365,9.343356,-0.603997,-0.177908,0.396631,-0.396706,0.371708,0.727233,0.070929,-0.040600,0.054409,-0.742532,-0.666361,96.292243,7.631724,-178.456830
55411,NaN,-1.197920,9.525102,-0.656115,-0.080574,0.414228,-0.199428,0.442405,0.586929,0.168534,-0.038024,0.055674,-0.744202,-0.664544,96.595305,7.503702,-178.131353
55412,NaN,-1.896089,9.689730,-0.536615,0.609591,0.626535,0.036654,0.476278,0.391707,0.277188,-0.035825,0.055883,-0.745969,-0.662665,96.901641,7.325834,-177.926018
55413,NaN,-2.428032,9.957626,-0.359069,1.120779,0.905091,0.341278,0.473557,0.056432,0.199264,-0.035130,0.055268,-0.747636,-0.660871,97.181877,7.214263,-177.908408
55414,NaN,-2.067724,10.091627,-0.466033,0.763634,0.845005,0.436036,0.409043,-0.301199,0.152137,-0.035914,0.053663,-0.749011,-0.659403,97.400150,7.155928,-178.092633
55415,NaN,-1.897437,9.955969,-0.623341,0.627816,0.696234,0.298256,0.329921,-0.565879,0.187256,-0.037548,0.051063,-0.750078,-0.658305,97.553794,7.097515,-178.431270
55416,NaN,-1.590953,9.681637,-0.587873,0.370608,0.707552,-0.016116,0.267884,-0.705953,0.173646,-0.039739,0.048068,-0.750903,-0.657461,97.662750,7.058682,-178.849049
55417,NaN,-1.617457,9.619991,-0.403673,0.414020,0.896269,-0.099366,0.228031,-0.701737,0.128290,-0.042051,0.045261,-0.751573,-0.656750,97.749408,7.045563,-179.261034
55418,NaN,-1.812131,9.751789,-0.185504,0.597589,1.143299,0.023540,0.206325,-0.618780,0.053190,-0.044294,0.043015,-0.752166,-0.656075,97.830513,7.069654,-179.619628
55419,NaN,-2.059271,9.991097,0.094245,0.814695,1.463433,0.250420,0.178939,-0.533958,-0.058991,-0.046578,0.041473,-0.752653,-0.655457,97.902262,7.150850,-179.920953
55420,NaN,-1.934451,10.265194,0.287026,0.650154,1.696505,0.477981,0.076715,-0.423315,-0.129284,-0.048657,0.040584,-0.752814,-0.655176,97.924017,7.263843,179.846708
55421,NaN,-1.987774,10.263594,0.308313,0.687199,1.715665,0.481577,-0.000367,-0.300245,-0.186588,-0.050443,0.040330,-0.752735,-0.655148,97.910120,7.399318,179.689156
55422,NaN,-1.719608,10.231470,0.331231,0.405321,1.728378,0.414635,-0.086427,-0.170953,-0.198051,-0.051764,0.040566,-0.752405,-0.655409,97.856814,7.531387,179.606524
55423,NaN,-1.294284,10.221846,0.302019,-0.041678,1.691445,0.355386,-0.112148,0.024475,-0.282037,-0.052618,0.041763,-0.752019,-0.655709,97.803574,7.695496,179.642102
55424,NaN,-1.268574,10.305781,0.530393,-0.108886,1.921071,0.404808,-0.118989,0.207323,-0.380587,-0.053107,0.043935,-0.751639,-0.655963,97.762446,7.901692,179.790211
55425,NaN,-1.999811,10.288281,0.690478,0.581421,2.069324,0.468580,-0.098226,0.238050,-0.335353,-0.053336,0.046028,-0.751337,-0.656147,97.734858,8.079618,179.952148
55426,NaN,-2.325312,10.262793,0.617048,0.866079,1.989291,0.502603,-0.072544,0.033765,-0.381201,-0.054489,0.047620,-0.751056,-0.656261,97.707154,8.299681,-179.999334
55427,NaN,-1.351353,10.286250,0.323749,-0.147700,1.697958,0.426107,-0.022843,-0.207251,-0.386757,-0.056577,0.048425,-0.750862,-0.656247,97.686975,8.541165,179.910964
55428,NaN,-0.252546,10.276840,-0.043978,-1.279855,1.336431,0.299432,0.072488,-0.308597,-0.356974,-0.058971,0.048760,-0.750960,-0.655899,97.712875,8.773773,179.760948
55429,NaN,0.302615,10.465797,-0.363573,-1.898133,1.058704,0.435865,0.120738,-0.260907,-0.267540,-0.060903,0.048900,-0.751244,-0.655388,97.768002,8.951725,179.631149
55430,NaN,0.110587,10.593172,-0.663470,-1.760018,0.793198,0.624786,0.138516,-0.203170,-0.155547,-0.062256,0.048805,-0.751633,-0.654821,97.837876,9.062057,179.526143
55431,NaN,-0.158529,10.650008,-1.008750,-1.527835,0.471172,0.766021,0.109662,-0.220639,-0.072776,-0.063395,0.048346,-0.751935,-0.654398,97.887340,9.126449,179.404314
55432,NaN,-0.229587,10.614001,-1.436171,-1.473378,0.051016,0.798574,0.039030,-0.285474,0.007236,-0.064501,0.047401,-0.752010,-0.654273,97.890422,9.151024,179.239159
55433,NaN,0.066539,10.407707,-1.883870,-1.750133,-0.417502,0.610195,-0.063262,-0.328082,0.094728,-0.065454,0.046016,-0.751749,-0.654578,97.828775,9.128643,179.042251
55434,NaN,0.505617,10.159118,-2.203819,-2.151545,-0.771394,0.340929,-0.166950,-0.327942,0.174452,-0.066123,0.044370,-0.751170,-0.655288,97.708025,9.061235,178.839533
55435,NaN,1.094815,9.767749,-2.572827,-2.675456,-1.197723,-0.084671,-0.274606,-0.289678,0.264809,-0.066325,0.042541,-0.750262,-0.656428,97.527250,8.938384,178.651819
55436,NaN,1.179962,9.345207,-2.784277,-2.686549,-1.489187,-0.483055,-0.361769,-0.221199,0.300578,-0.066138,0.040835,-0.749100,-0.657881,97.303772,8.790191,178.501596
55437,NaN,-0.009163,8.858771,-2.730577,-1.416104,-1.563637,-0.785866,-0.389107,-0.103326,0.293202,-0.065522,0.039548,-0.747876,-0.659413,97.074514,8.636263,178.420103
55438,NaN,-1.468041,8.678621,-2.274451,0.092200,-1.208124,-0.802774,-0.364730,-0.059291,0.221959,-0.064986,0.038670,-0.746733,-0.660811,96.864988,8.520376,178.369817
55439,NaN,-1.735099,8.887985,-2.122410,0.349338,-1.070848,-0.579994,-0.318438,-0.099838,0.207498,-0.064652,0.037691,-0.745720,-0.662043,96.678004,8.414349,178.297400
55440,NaN,-1.325407,9.136519,-2.229910,-0.079815,-1.164638,-0.387067,-0.291654,-0.063454,0.216169,-0.064164,0.036797,-0.744811,-0.663163,96.510362,8.301707,178.245901
55441,NaN,-1.226042,9.500103,-2.119610,-0.205125,-1.035319,-0.059030,-0.256310,0.058330,0.209601,-0.063246,0.036314,-0.744051,-0.664131,96.372459,8.183921,178.265020
55442,NaN,-1.470430,9.946784,-1.761595,0.011065,-0.657355,0.374146,-0.215201,0.133903,0.183831,-0.062144,0.036171,-0.743449,-0.664916,96.265253,8.077005,178.329689
55443,NaN,-1.664460,10.259937,-1.771752,0.180243,-0.655439,0.709370,-0.187575,0.194903,0.181873,-0.060822,0.036223,-0.742952,-0.665591,96.177988,7.966605,178.429567
55444,NaN,-2.017533,10.676922,-1.510978,0.503527,-0.370906,1.139893,-0.119826,0.279289,0.128949,-0.059380,0.036738,-0.742698,-0.665976,96.137233,7.882199,178.581530
55445,NaN,-2.294163,10.916340,-1.216715,0.771376,-0.062046,1.381560,-0.059233,0.282322,0.081866,-0.058089,0.037414,-0.742633,-0.666125,96.130976,7.823602,178.738000
55446,NaN,-2.311323,10.569406,-1.430276,0.840754,-0.308673,1.063804,0.027067,0.166495,0.141896,-0.057050,0.037463,-0.742835,-0.665986,96.165114,7.738767,178.824272
55447,NaN,-1.895939,10.229915,-1.705990,0.481525,-0.599761,0.702279,0.150206,0.027282,0.172536,-0.056444,0.036893,-0.743410,-0.665429,96.258034,7.644189,178.828347
55448,NaN,-1.356944,9.998599,-1.874457,-0.010925,-0.758932,0.422090,0.296051,-0.072300,0.194473,-0.056166,0.035874,-0.744446,-0.664348,96.427392,7.544239,178.773746
55449,NaN,-1.080095,9.860303,-1.925716,-0.249590,-0.783720,0.258254,0.434768,-0.108236,0.249136,-0.055861,0.034488,-0.745937,-0.662773,96.672535,7.414913,178.694425
55450,NaN,-0.852066,9.931404,-1.883223,-0.460005,-0.679473,0.298284,0.542294,-0.115988,0.265478,-0.055553,0.032991,-0.747782,-0.660794,96.979282,7.278004,178.609073
55451,NaN,-0.934755,10.010236,-1.750990,-0.356710,-0.484565,0.374666,0.579744,-0.121374,0.292801,-0.055176,0.031358,-0.749742,-0.658680,97.306430,7.125586,178.517820
55452,NaN,-1.218268,9.939506,-1.762562,-0.039305,-0.455249,0.344845,0.581766,-0.165694,0.319056,-0.054883,0.029484,-0.751696,-0.656561,97.632075,6.962900,178.398508
55453,NaN,-1.733162,9.772291,-1.907950,0.513632,-0.581744,0.263982,0.586283,-0.304420,0.346100,-0.055017,0.027047,-0.753618,-0.654448,97.950286,6.795463,178.196776
55454,NaN,-2.080694,9.893301,-1.983402,0.865401,-0.601050,0.435737,0.560879,-0.520437,0.298197,-0.056123,0.024095,-0.755381,-0.652433,98.240838,6.674536,177.874827
55455,NaN,-2.328434,10.001897,-2.023479,1.115061,-0.596638,0.577433,0.458950,-0.752611,0.307086,-0.058059,0.020375,-0.756731,-0.650824,98.457754,6.568510,177.419080
55456,NaN,-2.507271,10.044973,-1.957485,1.304339,-0.512419,0.630288,0.355889,-0.970877,0.282389,-0.060893,0.016073,-0.757663,-0.649600,98.602822,6.497252,176.840805
55457,NaN,-2.336564,9.951616,-1.825323,1.161972,-0.383401,0.498899,0.220251,-1.137918,0.286764,-0.064329,0.011248,-0.758077,-0.648887,98.659653,6.438182,176.166789
55458,NaN,-2.079463,9.713890,-1.853225,0.932289,-0.440164,0.239942,0.113160,-1.216292,0.259995,-0.068145,0.006309,-0.758091,-0.648548,98.651348,6.402025,175.450542
55459,NaN,-1.898696,9.457762,-1.800993,0.782883,-0.430281,-0.040287,0.052954,-1.185520,0.233415,-0.071922,0.001587,-0.757888,-0.648406,98.610784,6.377339,174.754120
55460,NaN,-1.634889,9.474370,-1.449757,0.557429,-0.073392,-0.105874,0.039220,-1.094349,0.202469,-0.075455,-0.002714,-0.757650,-0.648279,98.569013,6.362522,174.112452
55461,NaN,-1.408630,9.572938,-1.163892,0.362232,0.232899,-0.076438,0.010657,-0.985314,0.216152,-0.078526,-0.006706,-0.757337,-0.648251,98.517560,6.329562,173.531746
55462,NaN,-1.099988,9.748529,-0.851257,0.089863,0.589549,0.016492,-0.021659,-0.890570,0.209187,-0.081263,-0.010348,-0.756941,-0.648328,98.454282,6.292551,173.005791
55463,NaN,-0.654283,9.982589,-0.630243,-0.330626,0.883377,0.166675,-0.101885,-0.762353,0.174669,-0.083626,-0.013414,-0.756323,-0.648692,98.353317,6.263038,172.555870
55464,NaN,-0.429306,10.177147,-0.069214,-0.477782,1.472605,0.255406,-0.210070,-0.507266,0.170394,-0.085048,-0.015588,-0.755454,-0.649471,98.206879,6.214517,172.251968
55465,NaN,-1.339375,10.046107,0.369998,0.505075,1.729735,0.167688,-0.325072,-0.295395,0.120841,-0.085835,-0.016842,-0.754299,-0.650678,98.007857,6.175449,172.073063
55466,NaN,-1.649253,9.473305,0.333966,0.855682,1.527803,-0.351790,-0.360850,-0.286456,0.024038,-0.086910,-0.017682,-0.753037,-0.651973,97.790186,6.190594,171.907164
55467,NaN,-1.261267,8.846396,-0.248778,0.433120,0.887399,-0.928078,-0.252349,-0.304843,-0.017559,-0.088176,-0.018477,-0.752119,-0.652841,97.633268,6.229639,171.733806
55468,NaN,-1.120582,8.433978,-0.985261,0.206902,0.109643,-1.250936,-0.096230,-0.266502,-0.055122,-0.089410,-0.019070,-0.751731,-0.653103,97.568885,6.287371,171.585241
55469,NaN,-1.641077,8.220680,-1.527580,0.641920,-0.527987,-1.332394,0.120175,-0.235170,-0.064582,-0.090532,-0.019625,-0.752060,-0.652553,97.629812,6.347521,171.455156
55470,NaN,-2.313690,8.440946,-1.879728,1.218071,-0.924093,-0.992346,0.296424,-0.291497,-0.051295,-0.091809,-0.020490,-0.752938,-0.651334,97.788490,6.405279,171.292092
55471,NaN,-2.667837,8.638578,-2.114336,1.503741,-1.154715,-0.723235,0.362166,-0.413430,0.030704,-0.093267,-0.022095,-0.753958,-0.649893,97.975707,6.426068,171.052952
55472,NaN,-2.509358,8.794891,-2.316214,1.295488,-1.279871,-0.555505,0.391764,-0.557613,0.059930,-0.095173,-0.024288,-0.754999,-0.648327,98.170851,6.443172,170.729316
55473,NaN,-2.139660,8.783105,-2.607949,0.875944,-1.484021,-0.563210,0.381114,-0.701494,0.090342,-0.097521,-0.027060,-0.755921,-0.646793,98.349860,6.455539,170.321008
55474,NaN,-1.802721,8.750623,-2.738072,0.514495,-1.538027,-0.609972,0.358043,-0.833489,0.097083,-0.100349,-0.030270,-0.756691,-0.645316,98.507443,6.476749,169.836965
55475,NaN,-1.518761,8.677476,-2.906106,0.196181,-1.644013,-0.685291,0.313960,-0.958878,0.110084,-0.103613,-0.033912,-0.757234,-0.643981,98.631028,6.502157,169.280262
55476,NaN,-1.327948,8.608104,-3.075132,-0.037019,-1.767358,-0.746577,0.271151,-1.065778,0.129100,-0.107226,-0.037946,-0.757561,-0.642779,98.723081,6.527397,168.661060
55477,NaN,-1.091217,8.481804,-3.118733,-0.288110,-1.769684,-0.888371,0.236976,-1.089356,0.123588,-0.110947,-0.042017,-0.757741,-0.641680,98.793563,6.558387,168.028860
55478,NaN,-1.054375,8.439332,-2.852237,-0.282738,-1.498885,-0.972854,0.209392,-1.060488,0.105855,-0.114620,-0.045910,-0.757831,-0.640661,98.850130,6.597879,167.414717
55479,NaN,-1.573186,8.511862,-2.426208,0.295580,-1.180269,-0.905793,0.206573,-1.114709,0.134700,-0.118402,-0.050084,-0.757850,-0.639637,98.900789,6.626110,166.767082
55480,NaN,-1.093582,8.711581,-2.263220,-0.158952,-0.873307,-0.789286,0.176666,-1.159065,0.128866,-0.122375,-0.054357,-0.757724,-0.638690,98.931162,6.662332,166.094691
55481,NaN,-0.308786,8.931181,-1.898014,-0.849708,-0.288506,-0.721013,0.128246,-1.066517,0.127738,-0.126009,-0.058301,-0.757475,-0.637930,98.939556,6.690931,165.475100
55482,NaN,-0.011303,9.091824,-1.516468,-1.050663,0.188663,-0.657275,0.095847,-0.867965,0.106579,-0.128966,-0.061507,-0.757236,-0.637322,98.942532,6.714137,164.970538
55483,NaN,0.043097,9.218150,-1.210579,-1.029216,0.525595,-0.587391,0.076248,-0.626352,0.061960,-0.131153,-0.063764,-0.757092,-0.636824,98.950682,6.740777,164.607658
55484,NaN,-0.097434,9.476035,-0.807382,-0.800598,0.925216,-0.380846,0.061873,-0.367475,0.014917,-0.132515,-0.065006,-0.757083,-0.636427,98.968243,6.771364,164.396525
55485,NaN,-0.544725,9.685307,-0.382317,-0.269411,1.251246,-0.189286,0.018428,-0.149861,-0.035442,-0.133226,-0.065338,-0.757094,-0.636232,98.975970,6.810649,164.313941
55486,NaN,-0.987868,9.693630,-0.243130,0.188658,1.267616,-0.150440,-0.010447,-0.074703,-0.039148,-0.133675,-0.065395,-0.757064,-0.636167,98.972248,6.845720,164.274527
55487,NaN,-0.992469,9.524347,-0.543168,0.114960,0.952211,-0.269455,-0.014922,-0.086147,-0.024325,-0.134119,-0.065545,-0.757006,-0.636127,98.964893,6.872975,164.227237
55488,NaN,-0.717820,9.301174,-0.927009,-0.243184,0.624629,-0.461904,0.032325,-0.057975,0.011374,-0.134331,-0.065769,-0.757107,-0.635939,98.986241,6.877959,164.192807
55489,NaN,-0.590916,9.377050,-1.341593,-0.487548,0.287855,-0.338641,0.096112,0.030341,-0.004663,-0.134235,-0.065697,-0.757474,-0.635530,99.050185,6.883622,164.210153
55490,NaN,-0.949947,9.361404,-1.711851,-0.242158,-0.149597,-0.252997,0.160679,0.120704,0.082321,-0.133502,-0.065709,-0.758078,-0.634962,99.156471,6.832347,164.271073
55491,NaN,-1.270728,9.582934,-1.869772,0.017094,-0.326580,0.027863,0.209451,0.181179,0.050539,-0.132621,-0.065443,-0.758887,-0.634208,99.294950,6.792899,164.369195
55492,NaN,-1.449882,9.708165,-2.006205,0.157249,-0.459460,0.194289,0.202995,0.249371,0.093882,-0.131350,-0.065117,-0.759704,-0.633527,99.433837,6.722818,164.502027
55493,NaN,-1.763593,9.734331,-2.093746,0.450870,-0.599902,0.271360,0.198808,0.291323,0.091907,-0.129923,-0.064652,-0.760534,-0.632873,99.572821,6.649105,164.658687
55494,NaN,-1.866608,9.831717,-2.095987,0.560108,-0.588974,0.379436,0.180507,0.320872,0.029798,-0.128588,-0.063841,-0.761343,-0.632255,99.703891,6.607735,164.837996
55495,NaN,-2.141212,9.848534,-2.131419,0.827735,-0.669662,0.433664,0.155953,0.309564,0.042120,-0.127262,-0.063100,-0.762060,-0.631734,99.819784,6.559626,165.009585
55496,NaN,-2.202552,9.946481,-2.055555,0.914987,-0.575392,0.523690,0.141738,0.256862,0.030824,-0.126180,-0.062471,-0.762700,-0.631240,99.924192,6.523238,165.152221
55497,NaN,-2.139764,10.012331,-1.972451,0.883206,-0.451163,0.566729,0.107458,0.201761,0.007965,-0.125388,-0.061909,-0.763204,-0.630845,100.005536,6.504590,165.265786
55498,NaN,-2.039559,9.988374,-1.797837,0.842623,-0.252534,0.501663,0.072864,0.149124,0.020533,-0.124770,-0.061537,-0.763560,-0.630572,100.063550,6.484362,165.348159
55499,NaN,-1.848675,9.850941,-1.710969,0.697104,-0.140514,0.330308,0.051968,0.122828,0.022974,-0.124250,-0.061245,-0.763833,-0.630373,100.107814,6.465048,165.415310
55500,NaN,-1.709278,9.795569,-1.678121,0.581360,-0.078568,0.254424,0.049860,0.105154,0.042380,-0.123738,-0.061081,-0.764083,-0.630187,100.149528,6.436794,165.470470
55501,NaN,-1.725983,9.787366,-1.600354,0.626819,-0.005010,0.234190,0.051878,0.067056,0.080937,-0.123248,-0.061186,-0.764303,-0.630006,100.189453,6.390364,165.500057
55502,NaN,-1.682640,9.720245,-1.555521,0.613267,0.040181,0.155079,0.075966,0.042597,0.133869,-0.122679,-0.061584,-0.764567,-0.629758,100.241062,6.316795,165.510317
55503,NaN,-1.999607,9.728996,-1.547708,0.935952,-0.021810,0.195843,0.121236,0.070903,0.146195,-0.121947,-0.061969,-0.764986,-0.629352,100.320132,6.233177,165.535272
55504,NaN,-2.141992,10.104938,-1.312633,1.130843,0.255571,0.535101,0.204990,0.081172,0.119815,-0.121235,-0.062271,-0.765683,-0.628612,100.448134,6.163516,165.568638
55505,NaN,-2.069285,10.633393,-1.028531,1.124151,0.669864,0.989922,0.218045,0.068543,0.123946,-0.120553,-0.062637,-0.766410,-0.627821,100.582648,6.092662,165.594232
55506,NaN,-2.061108,10.898150,-1.000209,1.129737,0.770646,1.239371,0.169544,0.027097,0.168441,-0.119906,-0.063273,-0.766946,-0.627227,100.686450,6.001191,165.591491
55507,NaN,-2.195995,10.666143,-1.066626,1.275640,0.637400,1.035959,0.112519,-0.053300,0.178251,-0.119554,-0.064165,-0.767249,-0.626833,100.752564,5.912734,165.542020
55508,NaN,-2.041787,10.208171,-1.102931,1.158908,0.550726,0.577005,0.068599,-0.149550,0.172118,-0.119604,-0.065309,-0.767359,-0.626570,100.788243,5.838114,165.438712
55509,NaN,-1.691739,9.638681,-1.023086,0.884515,0.597159,-0.031385,0.066030,-0.208320,0.136427,-0.119994,-0.066498,-0.767434,-0.626278,100.819338,5.789995,165.305929
55510,NaN,-1.500174,9.135922,-0.855226,0.779375,0.702350,-0.574382,0.093677,-0.262083,0.125214,-0.120614,-0.067828,-0.767568,-0.625852,100.863673,5.754025,165.143980
55511,NaN,-1.317739,8.707352,-0.826951,0.640826,0.691582,-1.017842,0.139614,-0.321461,0.119783,-0.121465,-0.069351,-0.767808,-0.625226,100.930809,5.727791,164.948955
55512,NaN,-1.299692,8.542671,-0.876379,0.624600,0.626095,-1.172530,0.231858,-0.382006,0.062506,-0.122693,-0.070900,-0.768317,-0.624186,101.048329,5.740606,164.726017
55513,NaN,-1.174050,8.729722,-0.850156,0.507295,0.739981,-1.009037,0.263280,-0.426963,0.030156,-0.124185,-0.072483,-0.768902,-0.622988,101.181207,5.777180,164.481210
55514,NaN,-1.219673,9.080124,-0.776422,0.558765,0.892190,-0.678639,0.287545,-0.490380,-0.004167,-0.126016,-0.074146,-0.769532,-0.621646,101.324910,5.840598,164.204583
55515,NaN,-1.229481,9.333000,-0.770188,0.560300,0.969422,-0.434203,0.243002,-0.569170,0.019666,-0.128093,-0.076117,-0.769955,-0.620457,101.437550,5.900296,163.880775
55516,NaN,-1.170099,9.603249,-0.746725,0.497746,1.081553,-0.182962,0.174583,-0.623370,-0.018980,-0.130522,-0.078063,-0.770141,-0.619478,101.508299,5.988244,163.530947
55517,NaN,-1.114771,9.771490,-0.782725,0.419331,1.113063,-0.018678,0.144503,-0.604642,-0.092736,-0.133120,-0.079646,-0.770263,-0.618571,101.562653,6.115977,163.200110
55518,NaN,-1.350476,10.065122,-0.759919,0.624915,1.143303,0.287325,0.109754,-0.528487,-0.121830,-0.135525,-0.080858,-0.770337,-0.617799,101.601858,6.251403,162.915765
55519,NaN,-1.757576,10.490908,-0.931840,0.924665,0.967730,0.780944,0.068763,-0.469510,-0.110689,-0.137686,-0.081902,-0.770310,-0.617217,101.619851,6.374077,162.663291
55520,NaN,-1.782194,10.996701,-1.069674,0.865824,0.948236,1.304823,-0.010545,-0.413728,-0.093682,-0.139610,-0.082785,-0.770070,-0.616967,101.595810,6.480601,162.440422
55521,NaN,-1.485072,11.383092,-1.264015,0.488848,0.935719,1.687894,-0.137247,-0.323570,-0.041396,-0.141079,-0.083502,-0.769473,-0.617281,101.503217,6.547396,162.262157
55522,NaN,-1.142849,11.492289,-1.407080,0.100998,0.907511,1.785795,-0.292235,-0.173030,0.031063,-0.141807,-0.083924,-0.768475,-0.618299,101.331152,6.555823,162.160705
55523,NaN,-0.938356,11.349106,-1.538836,-0.135853,0.774382,1.651709,-0.442341,0.010000,0.111967,-0.141648,-0.083983,-0.767102,-0.620030,101.083091,6.498223,162.153531
55524,NaN,-0.677674,11.099666,-1.669558,-0.414245,0.620291,1.407496,-0.577613,0.207316,0.175419,-0.140587,-0.083578,-0.765421,-0.622399,100.770091,6.383270,162.251586
55525,NaN,-0.426061,10.754576,-1.747854,-0.658181,0.480937,1.060788,-0.658565,0.411129,0.196458,-0.138716,-0.082561,-0.763609,-0.625174,100.422191,6.235714,162.463363
55526,NaN,-0.069851,10.463525,-1.827943,-1.000313,0.375164,0.755644,-0.734026,0.621921,0.224769,-0.135977,-0.080940,-0.761685,-0.628327,100.043833,6.051921,162.792825
55527,NaN,0.397357,10.243864,-1.861676,-1.432761,0.349922,0.501598,-0.794013,0.844238,0.251602,-0.132330,-0.078680,-0.759685,-0.631804,99.642036,5.833523,163.246797
