// General information: 
//  MT Manager version: 2019.0.1 
//  XDA version: 2019.0.1 build 2740 rev 84096 built on 2019-01-30
// Device information: 
//  DeviceId: 00B43876
//  ProductCode: MTW2-3A7G6
//  Firmware Version: 4.3.4
//  Hardware Version: 1.1.0
// Device settings: 
//  Filter Profile: human(46.1)
//  Option Flags: Orientation Smoother Disabled, AHS Disabled, ICC Disabled
// Coordinate system: ENU
PacketCounter,SampleTimeFine,Acc_X,Acc_Y,Acc_Z,FreeAcc_E,FreeAcc_N,FreeAcc_U,Gyr_X,Gyr_Y,Gyr_Z,Quat_q0,Quat_q1,Quat_q2,Quat_q3,Roll,Pitch,Yaw
37961,NaN,0.607297,9.601775,-2.150549,-0.013610,0.009683,0.045684,-0.006433,0.005478,-0.007839,0.357336,0.405225,-0.667589,-0.512279,102.719941,-3.550664,-114.645859
37962,NaN,0.572525,9.598528,-2.147975,-0.000476,0.041526,0.039804,-0.008033,0.001891,-0.003533,0.357341,0.405200,-0.667584,-0.512300,102.716911,-3.551322,-114.647957
37963,NaN,0.606552,9.602100,-2.149311,-0.013817,0.010718,0.045682,-0.002407,0.004560,-0.003710,0.357340,0.405189,-0.667593,-0.512298,102.717290,-3.552386,-114.649226
37964,NaN,0.588087,9.600762,-2.165211,0.008426,0.021048,0.046730,-0.005451,0.005553,-0.005912,0.357338,0.405174,-0.667593,-0.512312,102.715788,-3.552409,-114.650892
37965,NaN,0.571455,9.598893,-2.146625,-0.000807,0.043149,0.039797,-0.002638,0.006887,-0.006000,0.357339,0.405176,-0.667592,-0.512310,102.715936,-3.552488,-114.650569
37966,NaN,0.605334,9.602406,-2.148284,-0.014187,0.012300,0.045680,-0.000578,0.005819,-0.005725,0.357336,0.405185,-0.667596,-0.512300,102.717360,-3.552264,-114.650002
37967,NaN,0.600635,9.627294,-2.182084,0.013449,0.007014,0.077046,-0.001772,0.008126,-0.005219,0.357341,0.405189,-0.667597,-0.512292,102.717968,-3.552936,-114.649083
37968,NaN,0.588799,9.576773,-2.164856,0.011653,0.017147,0.023341,0.000500,0.004674,-0.007376,0.357331,0.405204,-0.667600,-0.512284,102.719684,-3.551739,-114.648462
37969,NaN,0.583453,9.625390,-2.163793,0.004130,0.029602,0.070109,-0.000579,0.005818,-0.005725,0.357326,0.405206,-0.667607,-0.512277,102.721051,-3.551836,-114.648772
37970,NaN,0.567371,9.599741,-2.180308,0.030056,0.033930,0.047770,-0.005338,0.004387,-0.004767,0.357326,0.405192,-0.667607,-0.512288,102.719709,-3.552126,-114.650079
37971,NaN,0.603103,9.602734,-2.147448,-0.014757,0.014921,0.045675,0.001250,0.007077,-0.007739,0.357316,0.405208,-0.667612,-0.512275,102.722064,-3.551257,-114.649429
37972,NaN,0.566329,9.599894,-2.179905,0.029824,0.034944,0.047767,-0.004260,0.003243,-0.006418,0.357311,0.405207,-0.667608,-0.512285,102.721239,-3.550317,-114.649929
37973,NaN,0.600221,9.603485,-2.181268,0.016461,0.004147,0.053661,-0.005223,0.003223,-0.003622,0.357312,0.405187,-0.667612,-0.512295,102.720052,-3.551262,-114.651958
37974,NaN,0.583616,9.601608,-2.162670,0.007284,0.026230,0.046718,-0.003509,0.005646,-0.006781,0.357307,0.405182,-0.667611,-0.512303,102.719452,-3.550746,-114.652799
37975,NaN,0.583179,9.601730,-2.162245,0.007167,0.026770,0.046717,-0.004588,0.006789,-0.005129,0.357314,0.405178,-0.667608,-0.512306,102.718493,-3.551298,-114.652641
37976,NaN,0.566661,9.599878,-2.143492,-0.002019,0.048838,0.039771,-0.007285,0.004290,-0.003897,0.357325,0.405161,-0.667601,-0.512321,102.715838,-3.552106,-114.653430
37977,NaN,0.619292,9.581188,-2.163520,-0.002593,-0.009487,0.029234,-0.001776,0.008124,-0.005216,0.357331,0.405165,-0.667602,-0.512312,102.716442,-3.552778,-114.652513
37978,NaN,0.566007,9.600151,-2.142441,-0.002301,0.049897,0.039765,-0.009465,0.006520,-0.005316,0.357343,0.405152,-0.667588,-0.512332,102.712907,-3.552961,-114.652749
37979,NaN,0.595676,9.628662,-2.177405,0.012069,0.013279,0.077041,-0.006536,0.006692,-0.004259,0.357356,0.405140,-0.667581,-0.512340,102.710842,-3.553987,-114.652755
37980,NaN,0.567862,9.576219,-2.141525,0.001162,0.044971,0.016379,-0.005786,0.009094,-0.004621,0.357375,0.405140,-0.667571,-0.512342,102.709079,-3.554938,-114.651151
37981,NaN,0.616013,9.582416,-2.195422,0.028315,-0.019189,0.037231,-0.004495,0.005569,-0.008706,0.357369,0.405144,-0.667562,-0.512354,102.708187,-3.553338,-114.651224
37982,NaN,0.598578,9.604272,-2.141825,-0.015964,0.020671,0.045663,-0.004379,0.004405,-0.007561,0.357365,0.405143,-0.667555,-0.512367,102.706943,-3.552241,-114.651686
37983,NaN,0.581692,9.602395,-2.123227,-0.025169,0.042779,0.038708,-0.004496,0.005568,-0.008705,0.357359,0.405147,-0.667547,-0.512378,102.706050,-3.550641,-114.651759
37984,NaN,0.597106,9.604528,-2.141090,-0.016138,0.021731,0.045661,-0.000605,0.005762,-0.010443,0.357342,0.405163,-0.667544,-0.512381,102.706984,-3.548127,-114.651526
37985,NaN,0.594473,9.605221,-2.175190,0.015185,0.010458,0.053658,-0.006444,0.005471,-0.007836,0.357342,0.405161,-0.667532,-0.512398,102.704985,-3.547001,-114.651764
37986,NaN,0.579683,9.602806,-2.121920,-0.025502,0.044353,0.038700,-0.006541,0.006689,-0.004258,0.357352,0.405150,-0.667527,-0.512407,102.703095,-3.547764,-114.651935
37987,NaN,0.596074,9.581231,-2.174644,0.018600,0.005523,0.030279,-0.001452,0.004577,-0.006503,0.357342,0.405150,-0.667533,-0.512406,102.703999,-3.547270,-114.652842
37988,NaN,0.578690,9.602986,-2.121377,-0.025789,0.045394,0.038695,-0.000188,0.011709,-0.009514,0.357345,0.405186,-0.667521,-0.512391,102.705542,-3.545635,-114.648859
37989,NaN,0.593086,9.581933,-2.208826,0.049745,-0.005265,0.038283,-0.001901,0.009285,-0.006357,0.357352,0.405196,-0.667518,-0.512382,102.706026,-3.545816,-114.647147
37990,NaN,0.575824,9.603710,-2.155414,0.005498,0.034626,0.046693,-0.002767,0.008045,-0.007139,0.357359,0.405206,-0.667508,-0.512381,102.705538,-3.545462,-114.645465
37991,NaN,0.609646,9.607337,-2.156772,-0.007906,0.003853,0.052614,-0.005463,0.005545,-0.005909,0.357362,0.405200,-0.667504,-0.512391,102.704114,-3.545422,-114.645905
37992,NaN,0.590593,9.629690,-2.137747,-0.020787,0.031912,0.069025,-0.001037,0.010524,-0.005573,0.357376,0.405216,-0.667498,-0.512375,102.704898,-3.545986,-114.642980
37993,NaN,0.593087,9.581821,-2.172862,0.017926,0.008637,0.030278,-0.006682,0.007794,-0.010123,0.357378,0.405227,-0.667478,-0.512392,102.702665,-3.543874,-114.641629
37994,NaN,0.608311,9.607761,-2.155259,-0.008270,0.005387,0.052613,-0.007508,0.006664,-0.001463,0.357400,0.405208,-0.667472,-0.512399,102.700035,-3.546183,-114.641645
37995,NaN,0.574351,9.580710,-2.187817,0.040037,0.019406,0.031318,-0.005583,0.006707,-0.007052,0.357404,0.405208,-0.667463,-0.512408,102.698494,-3.545650,-114.641290
37996,NaN,0.591366,9.606083,-2.135700,-0.017564,0.028033,0.045642,-0.009476,0.006511,-0.005315,0.357415,0.405188,-0.667451,-0.512433,102.694673,-3.546050,-114.642415
37997,NaN,0.591703,9.582598,-2.169812,0.017446,0.010737,0.030277,-0.008494,0.006587,-0.003388,0.357434,0.405170,-0.667441,-0.512446,102.691496,-3.547549,-114.642590
37998,NaN,0.559003,9.578722,-2.132645,-0.000761,0.054385,0.016332,-0.010108,0.002944,-0.003811,0.357445,0.405143,-0.667430,-0.512473,102.687246,-3.548273,-114.644256
37999,NaN,0.587996,9.631028,-2.132427,-0.021577,0.035629,0.069011,-0.008279,0.004205,-0.005822,0.357450,0.405128,-0.667421,-0.512495,102.684255,-3.548113,-114.645457
38000,NaN,0.570089,9.606028,-2.183209,0.035825,0.028032,0.054688,-0.003402,0.004478,-0.005632,0.357444,0.405118,-0.667424,-0.512502,102.683852,-3.548045,-114.646911
38001,NaN,0.591924,9.582765,-2.132430,-0.014389,0.024680,0.022260,-0.006451,0.005466,-0.007833,0.357444,0.405116,-0.667412,-0.512519,102.681849,-3.546920,-114.647153
38002,NaN,0.591324,9.582951,-2.131760,-0.014551,0.025191,0.022259,-0.007081,0.001900,-0.006330,0.357434,0.405099,-0.667410,-0.512543,102.679786,-3.545917,-114.649748
38003,NaN,0.620719,9.611564,-2.166676,-0.000258,-0.011405,0.059587,-0.008518,0.006530,-0.008108,0.357441,0.405097,-0.667391,-0.512565,102.676560,-3.544771,-114.649359
38004,NaN,0.588364,9.583911,-2.164914,0.016563,0.014396,0.030274,-0.001910,0.009283,-0.006350,0.357443,0.405108,-0.667389,-0.512556,102.677372,-3.544640,-114.647985
38005,NaN,0.585385,9.608272,-2.164151,0.012748,0.020947,0.053645,-0.001576,0.005739,-0.007642,0.357434,0.405114,-0.667390,-0.512556,102.678156,-3.543656,-114.648098
38006,NaN,0.603491,9.586151,-2.182561,0.025374,-0.006149,0.037256,-0.002895,0.009206,-0.008276,0.357441,0.405136,-0.667376,-0.512553,102.677950,-3.542493,-114.645239
38007,NaN,0.586053,9.607874,-2.129096,-0.018910,0.033834,0.045622,-0.002777,0.008042,-0.007133,0.357444,0.405144,-0.667371,-0.512551,102.677969,-3.542083,-114.644126
38008,NaN,0.567446,9.606480,-2.145266,0.003426,0.044077,0.046657,-0.000084,0.010544,-0.008359,0.357446,0.405162,-0.667367,-0.512541,102.678980,-3.541414,-114.642084
38009,NaN,0.580519,9.632912,-2.162650,0.008657,0.029062,0.077011,-0.002561,0.005661,-0.009567,0.357434,0.405173,-0.667361,-0.512547,102.679186,-3.539343,-114.641999
38010,NaN,0.582232,9.608790,-2.162700,0.012226,0.023556,0.053640,-0.007321,0.004223,-0.008616,0.357427,0.405168,-0.667349,-0.512572,102.676708,-3.537456,-114.643037
38011,NaN,0.583527,9.608434,-2.127266,-0.019308,0.035959,0.045613,-0.012180,0.004001,-0.004087,0.357443,0.405139,-0.667333,-0.512604,102.671502,-3.538240,-114.644571
38012,NaN,0.581260,9.609237,-2.160976,0.012063,0.024617,0.053637,-0.002899,0.009204,-0.008274,0.357449,0.405153,-0.667321,-0.512604,102.670972,-3.537415,-114.642564
38013,NaN,0.599313,9.587227,-2.178982,0.024679,-0.002443,0.037259,-0.010135,0.002882,-0.008532,0.357446,0.405140,-0.667304,-0.512640,102.666942,-3.535574,-114.644165
38014,NaN,0.559354,9.632548,-2.174913,0.030591,0.041392,0.078038,-0.014777,0.000279,-0.006438,0.357452,0.405106,-0.667280,-0.512694,102.659841,-3.534570,-114.647041
38015,NaN,0.597196,9.611593,-2.141235,-0.010587,0.016493,0.052599,-0.016627,-0.001038,-0.009148,0.357448,0.405073,-0.667251,-0.512760,102.652222,-3.531893,-114.650761
38016,NaN,0.580058,9.609926,-2.121463,-0.019751,0.038575,0.045603,-0.017951,0.002427,-0.009781,0.357454,0.405050,-0.667211,-0.512826,102.643704,-3.529074,-114.652485
38017,NaN,0.579202,9.610389,-2.119602,-0.019867,0.039117,0.045600,-0.020646,-0.000078,-0.008554,0.357462,0.405010,-0.667172,-0.512902,102.633754,-3.526850,-114.655742
38018,NaN,0.579097,9.587237,-2.152652,0.015074,0.021696,0.030263,-0.021274,-0.003646,-0.007053,0.357465,0.404963,-0.667137,-0.512984,102.623689,-3.524610,-114.660240
38019,NaN,0.594451,9.589842,-2.168784,0.023985,0.000658,0.037261,-0.020314,-0.003623,-0.009846,0.357457,0.404919,-0.667102,-0.513069,102.614041,-3.521222,-114.665322
38020,NaN,0.540562,9.608835,-2.146802,0.024525,0.060039,0.047661,-0.012093,0.002779,-0.007659,0.357464,0.404905,-0.667077,-0.513108,102.608656,-3.519674,-114.666121
38021,NaN,0.578490,9.587789,-2.113451,-0.016659,0.035148,0.022225,-0.012839,0.000375,-0.007301,0.357461,0.404877,-0.667059,-0.513156,102.603172,-3.518209,-114.669283
38022,NaN,0.591627,9.614506,-2.129670,-0.011457,0.020131,0.052591,-0.013924,0.001513,-0.005649,0.357466,0.404842,-0.667041,-0.513203,102.597061,-3.517681,-114.672293
38023,NaN,0.575539,9.589028,-2.145617,0.014503,0.024327,0.030258,-0.007093,0.001894,-0.006325,0.357459,0.404825,-0.667038,-0.513226,102.594824,-3.516952,-114.674727
38024,NaN,0.569948,9.637801,-2.143595,0.007020,0.036927,0.076986,-0.009908,0.000552,-0.006242,0.357451,0.404795,-0.667031,-0.513264,102.590863,-3.516036,-114.678502
38025,NaN,0.572010,9.613767,-2.143222,0.010597,0.031427,0.053620,-0.010127,0.002930,-0.003805,0.357460,0.404766,-0.667023,-0.513291,102.586872,-3.516847,-114.680670
38026,NaN,0.571673,9.614003,-2.142251,0.010363,0.031928,0.053618,-0.009502,0.006497,-0.005303,0.357469,0.404754,-0.667009,-0.513311,102.583638,-3.516767,-114.680997
38027,NaN,0.586590,9.640007,-2.124234,-0.015833,0.028828,0.075948,-0.011761,-0.000766,-0.008952,0.357456,0.404730,-0.666993,-0.513360,102.578798,-3.514237,-114.684592
38028,NaN,0.590924,9.591724,-2.124419,-0.008446,0.017212,0.029220,-0.009790,-0.000613,-0.005100,0.357461,0.404707,-0.666979,-0.513394,102.574332,-3.513824,-114.686508
38029,NaN,0.572317,9.590539,-2.139715,0.013825,0.027438,0.030251,-0.012726,-0.000792,-0.006158,0.357457,0.404672,-0.666966,-0.513441,102.568962,-3.512855,-114.690467
38030,NaN,0.585159,9.617268,-2.156048,0.018960,0.012415,0.060624,-0.011545,-0.003144,-0.011389,0.357424,0.404651,-0.666951,-0.513499,102.564581,-3.508332,-114.695405
38031,NaN,0.567938,9.615450,-2.136744,0.009834,0.034536,0.053610,-0.013714,-0.000870,-0.008083,0.357417,0.404620,-0.666932,-0.513554,102.558632,-3.506277,-114.699168
38032,NaN,0.603887,9.595053,-2.138099,-0.000038,-0.002284,0.036231,-0.007002,0.000679,-0.009901,0.357394,0.404615,-0.666923,-0.513585,102.556697,-3.502980,-114.701606
38033,NaN,0.568654,9.591699,-2.135490,0.013229,0.029516,0.030245,-0.011143,0.002799,-0.010446,0.357388,0.404606,-0.666899,-0.513627,102.552077,-3.500061,-114.703018
38034,NaN,0.565053,9.616246,-2.133928,0.009417,0.036100,0.053605,-0.008111,0.001765,-0.012966,0.357361,0.404603,-0.666883,-0.513670,102.549210,-3.495530,-114.705658
38035,NaN,0.563995,9.616481,-2.133149,0.009302,0.036641,0.053603,-0.007586,0.006546,-0.010884,0.357358,0.404612,-0.666861,-0.513693,102.546496,-3.492833,-114.704917
38036,NaN,0.598119,9.596820,-2.168926,0.030942,-0.012069,0.044281,-0.013840,0.000289,-0.009222,0.357355,0.404589,-0.666834,-0.513749,102.540023,-3.490283,-114.707456
38037,NaN,0.564897,9.592834,-2.131384,0.012827,0.031634,0.030239,-0.014060,0.002666,-0.006784,0.357364,0.404562,-0.666810,-0.513795,102.533764,-3.489396,-114.709401
38038,NaN,0.598563,9.596774,-2.131863,-0.000631,0.000895,0.036231,-0.011367,0.005174,-0.008006,0.357374,0.404551,-0.666784,-0.513830,102.528601,-3.488126,-114.709654
38039,NaN,0.579857,9.595609,-2.147117,0.021647,0.011105,0.037260,-0.011368,0.005173,-0.008006,0.357382,0.404539,-0.666761,-0.513864,102.523789,-3.486868,-114.710042
38040,NaN,0.561287,9.594447,-2.162328,0.043876,0.021269,0.038289,-0.012332,0.005145,-0.005212,0.357398,0.404521,-0.666738,-0.513896,102.518603,-3.486819,-114.710384
38041,NaN,0.580631,9.595544,-2.109956,-0.010023,0.024059,0.029204,-0.018951,0.002377,-0.006972,0.357415,0.404486,-0.666702,-0.513959,102.509550,-3.485792,-114.712467
38042,NaN,0.562087,9.594473,-2.124739,0.012328,0.034223,0.030231,-0.013663,0.008607,-0.005837,0.357451,0.404476,-0.666665,-0.513990,102.502847,-3.486121,-114.710267
38043,NaN,0.558980,9.619107,-2.122599,0.008523,0.040833,0.053587,-0.017163,-0.005793,-0.006505,0.357438,0.404421,-0.666649,-0.514062,102.495100,-3.484342,-114.716987
38044,NaN,0.578959,9.596664,-2.105315,-0.010319,0.025589,0.029200,-0.016055,-0.006881,-0.003440,0.357429,0.404362,-0.666640,-0.514127,102.488030,-3.483813,-114.723811
38045,NaN,0.560481,9.595548,-2.120304,0.011964,0.035791,0.030226,-0.013862,-0.009105,-0.002028,0.357410,0.404290,-0.666648,-0.514187,102.482321,-3.484130,-114.732944
38046,NaN,0.575594,9.621593,-2.101880,-0.014218,0.032711,0.052554,-0.015936,-0.008047,-0.002299,0.357399,0.404219,-0.666645,-0.514254,102.475185,-3.484287,-114.741126
38047,NaN,0.577771,9.597610,-2.101325,-0.010642,0.027179,0.029195,-0.010304,-0.005355,-0.002463,0.357384,0.404164,-0.666654,-0.514296,102.471383,-3.484827,-114.748103
38048,NaN,0.608108,9.603023,-2.170983,0.038623,-0.027412,0.051326,-0.010890,0.000513,-0.003441,0.357390,0.404129,-0.666646,-0.514330,102.466765,-3.485437,-114.751224
38049,NaN,0.577178,9.598058,-2.099443,-0.010836,0.028227,0.029192,-0.007207,0.003100,-0.002738,0.357397,0.404102,-0.666647,-0.514345,102.464447,-3.486869,-114.753427
38050,NaN,0.576982,9.598202,-2.098836,-0.011032,0.028725,0.029191,-0.005135,0.002041,-0.002467,0.357394,0.404080,-0.666656,-0.514353,102.463678,-3.487885,-114.755926
38051,NaN,0.592994,9.600555,-2.116341,-0.002169,0.007682,0.036228,-0.006587,0.006670,-0.004230,0.357407,0.404068,-0.666649,-0.514361,102.461584,-3.488924,-114.755944
38052,NaN,0.576239,9.598445,-2.097932,-0.011244,0.029780,0.029187,0.000971,0.009423,-0.009980,0.357400,0.404097,-0.666644,-0.514350,102.463525,-3.486967,-114.753612
38053,NaN,0.573700,9.599307,-2.132189,0.020019,0.018385,0.037253,-0.004540,0.005564,-0.008677,0.357393,0.404101,-0.666636,-0.514362,102.462607,-3.485382,-114.753698
38054,NaN,0.591132,9.600874,-2.115415,-0.002564,0.009260,0.036226,-0.002809,0.008045,-0.007104,0.357390,0.404107,-0.666634,-0.514362,102.462900,-3.484727,-114.753360
38055,NaN,0.542601,9.570808,-2.096076,0.005475,0.056532,-0.000190,-0.000859,0.008151,-0.007972,0.357387,0.404122,-0.666632,-0.514355,102.464008,-3.483856,-114.752083
38056,NaN,0.587408,9.625329,-2.114223,-0.006470,0.016389,0.059578,-0.004419,0.004399,-0.007537,0.357384,0.404126,-0.666624,-0.514365,102.463019,-3.482562,-114.751982
38057,NaN,0.589457,9.601137,-2.114686,-0.002896,0.010842,0.036225,0.000871,0.010632,-0.006399,0.357390,0.404145,-0.666625,-0.514344,102.465046,-3.482878,-114.749510
38058,NaN,0.554120,9.621022,-2.077654,-0.024584,0.060618,0.045481,-0.003651,0.006849,-0.003172,0.357402,0.404136,-0.666626,-0.514342,102.464308,-3.484470,-114.749346
38059,NaN,0.568320,9.624137,-2.129744,0.015638,0.027626,0.060599,-0.005382,0.004368,-0.004745,0.357404,0.404123,-0.666626,-0.514352,102.462978,-3.484936,-114.750590
38060,NaN,0.567912,9.624306,-2.129089,0.015513,0.028144,0.060598,-0.007580,0.006590,-0.006154,0.357412,0.404116,-0.666613,-0.514368,102.460300,-3.484735,-114.750557
38061,NaN,0.586464,9.602451,-2.147077,0.028047,0.001002,0.044297,-0.007678,0.007800,-0.002575,0.357435,0.404099,-0.666605,-0.514375,102.457554,-3.486840,-114.750146
38062,NaN,0.588213,9.601858,-2.111757,-0.003460,0.013470,0.036221,-0.008888,0.010097,-0.002060,0.357468,0.404085,-0.666592,-0.514381,102.454095,-3.489317,-114.748817
38063,NaN,0.583843,9.627118,-2.144621,0.024104,0.008156,0.067648,-0.009012,0.011261,-0.003198,0.357504,0.404077,-0.666573,-0.514387,102.450462,-3.491501,-114.746388
38064,NaN,0.551383,9.622896,-2.107359,0.006018,0.051814,0.053537,-0.012793,0.009882,-0.000324,0.357553,0.404060,-0.666547,-0.514399,102.444893,-3.494657,-114.743765
38065,NaN,0.590247,9.601740,-2.074136,-0.035230,0.026995,0.028139,-0.009112,0.012470,0.000383,0.357602,0.404044,-0.666533,-0.514396,102.441187,-3.498992,-114.741101
38066,NaN,0.587993,9.626160,-2.072655,-0.038994,0.033593,0.051487,-0.005555,0.016222,-0.000048,0.357660,0.404050,-0.666515,-0.514373,102.439061,-3.503381,-114.735329
38067,NaN,0.568606,9.625685,-2.122657,0.014668,0.031804,0.060588,-0.010943,0.011197,0.002388,0.357714,0.404020,-0.666503,-0.514375,102.434365,-3.508681,-114.733627
38068,NaN,0.587020,9.627342,-2.105144,-0.007932,0.022670,0.059565,-0.010449,0.015930,-0.000238,0.357776,0.404019,-0.666476,-0.514368,102.430028,-3.512648,-114.728298
38069,NaN,0.573631,9.601031,-2.086782,-0.013308,0.038695,0.029154,-0.008376,0.014872,0.000034,0.357831,0.404011,-0.666459,-0.514359,102.426658,-3.517083,-114.724243
38070,NaN,0.553453,9.624025,-2.101653,0.005338,0.054926,0.053521,-0.007389,0.014947,0.001960,0.357893,0.404003,-0.666443,-0.514341,102.423584,-3.522452,-114.719598
38071,NaN,0.572696,9.602190,-2.119439,0.017857,0.027768,0.037235,-0.011195,0.013523,0.000114,0.357950,0.403987,-0.666422,-0.514343,102.418645,-3.526766,-114.716309
38072,NaN,0.572161,9.625856,-2.083212,-0.017334,0.046346,0.052494,-0.009121,0.012465,0.000385,0.358000,0.403975,-0.666405,-0.514339,102.414978,-3.530782,-114.713021
38073,NaN,0.585935,9.652581,-2.099581,-0.012193,0.031415,0.082905,-0.009885,0.010017,-0.003982,0.358031,0.403966,-0.666384,-0.514351,102.410879,-3.532371,-114.711191
38074,NaN,0.605662,9.653464,-2.047400,-0.066068,0.034276,0.073793,-0.015622,0.008528,-0.000245,0.358081,0.403933,-0.666356,-0.514379,102.403391,-3.535684,-114.710179
38075,NaN,0.587768,9.652381,-2.062180,-0.043765,0.044441,0.074811,-0.017082,0.013153,-0.002002,0.358143,0.403912,-0.666316,-0.514405,102.395075,-3.538766,-114.706835
38076,NaN,0.554539,9.625636,-2.093976,0.004616,0.058054,0.053504,-0.018050,0.013119,0.000790,0.358214,0.403884,-0.666276,-0.514429,102.386264,-3.543107,-114.703290
38077,NaN,0.574452,9.580564,-2.146216,0.052167,0.012786,0.021973,-0.016491,0.007285,-0.001032,0.358258,0.403846,-0.666249,-0.514463,102.378497,-3.546011,-114.703354
38078,NaN,0.545410,9.528674,-2.144568,0.072953,0.032261,-0.030770,-0.013552,0.007468,0.000028,0.358298,0.403807,-0.666232,-0.514488,102.372127,-3.549524,-114.703740
38079,NaN,0.629550,9.561964,-2.129494,0.019757,-0.033093,0.003664,-0.009522,0.006520,-0.000566,0.358326,0.403778,-0.666225,-0.514500,102.368383,-3.552594,-114.704289
38080,NaN,0.615101,9.559038,-2.076066,-0.020666,0.000990,-0.011504,-0.008658,0.007760,0.000223,0.358358,0.403753,-0.666219,-0.514505,102.365128,-3.556020,-114.704057
38081,NaN,0.589365,9.630608,-2.089491,-0.009418,0.029517,0.059545,-0.007199,0.012528,-0.005190,0.358389,0.403758,-0.666199,-0.514505,102.362471,-3.557239,-114.700670
38082,NaN,0.589193,9.630816,-2.088582,-0.009589,0.030032,0.059544,-0.010511,0.006444,-0.002492,0.358412,0.403735,-0.666186,-0.514524,102.358367,-3.558924,-114.701045
38083,NaN,0.587357,9.631888,-2.122128,0.021645,0.018587,0.067640,-0.007817,0.008957,-0.003705,0.358436,0.403726,-0.666174,-0.514531,102.355491,-3.560537,-114.699842
38084,NaN,0.589874,9.607779,-2.122162,0.025256,0.012951,0.044296,-0.005350,0.013841,-0.002474,0.358480,0.403734,-0.666156,-0.514517,102.353526,-3.563280,-114.695124
38085,NaN,0.589129,9.631321,-2.086272,-0.009892,0.031619,0.059538,-0.007182,0.012566,-0.000471,0.358523,0.403724,-0.666145,-0.514508,102.350913,-3.567145,-114.692294
38086,NaN,0.594360,9.582938,-2.087027,-0.002607,0.019886,0.012853,-0.006216,0.012600,-0.003262,0.358555,0.403720,-0.666133,-0.514505,102.348645,-3.569470,-114.689900
38087,NaN,0.608143,9.609610,-2.103721,0.002512,0.004970,0.043277,-0.004490,0.015079,-0.001683,0.358599,0.403725,-0.666122,-0.514485,102.347477,-3.572964,-114.685512
38088,NaN,0.594474,9.583161,-2.085968,-0.002806,0.020953,0.012851,-0.003400,0.013948,-0.003337,0.358630,0.403731,-0.666113,-0.514470,102.346750,-3.575378,-114.682164
38089,NaN,0.571495,9.630368,-2.100524,0.012138,0.043367,0.060548,-0.003506,0.015152,0.000244,0.358677,0.403732,-0.666109,-0.514442,102.346157,-3.579959,-114.677971
38090,NaN,0.574148,9.606147,-2.101036,0.015709,0.037728,0.037205,0.000508,0.014166,-0.005066,0.358700,0.403759,-0.666102,-0.514413,102.347741,-3.581227,-114.673073
38091,NaN,0.589707,9.631880,-2.083525,-0.010518,0.034822,0.059527,-0.005340,0.013877,0.002246,0.358752,0.403747,-0.666099,-0.514391,102.346157,-3.586773,-114.669842
38092,NaN,0.590067,9.631893,-2.083361,-0.010685,0.035307,0.059525,0.003957,0.019122,-0.001905,0.358793,0.403787,-0.666097,-0.514333,102.349810,-3.590194,-114.662120
38093,NaN,0.574912,9.606179,-2.100681,0.015313,0.039295,0.037200,0.000523,0.014204,-0.000348,0.358826,0.403795,-0.666104,-0.514295,102.351553,-3.594328,-114.658386
38094,NaN,0.591684,9.608465,-2.118548,0.023988,0.018190,0.044291,-0.001664,0.016463,0.002962,0.358878,0.403800,-0.666106,-0.514252,102.352489,-3.600030,-114.653418
38095,NaN,0.610068,9.609875,-2.101951,0.001440,0.009148,0.043275,0.001136,0.017771,-0.001829,0.358918,0.403823,-0.666104,-0.514208,102.354446,-3.603773,-114.647503
38096,NaN,0.608663,9.610784,-2.136204,0.032566,-0.002365,0.051386,-0.003638,0.016312,-0.000890,0.358963,0.403835,-0.666095,-0.514180,102.354114,-3.607404,-114.642282
38097,NaN,0.594208,9.607737,-2.083145,-0.007791,0.031788,0.036177,-0.006457,0.014963,-0.000817,0.359013,0.403834,-0.666080,-0.514165,102.351827,-3.611369,-114.638065
38098,NaN,0.611857,9.586714,-2.135885,0.035973,-0.007421,0.028050,-0.001180,0.021192,0.000347,0.359065,0.403842,-0.666079,-0.514123,102.352594,-3.616727,-114.632601
38099,NaN,0.594732,9.607909,-2.082205,-0.008061,0.032891,0.036173,-0.006351,0.013758,-0.004397,0.359100,0.403850,-0.666061,-0.514116,102.350382,-3.618539,-114.628621
38100,NaN,0.591549,9.609758,-2.150742,0.054411,0.009357,0.052403,-0.000214,0.021225,-0.002441,0.359148,0.403881,-0.666050,-0.514072,102.351754,-3.621995,-114.621179
38101,NaN,0.608634,9.634637,-2.098606,-0.003156,0.018504,0.066607,-0.006097,0.020856,-0.004568,0.359207,0.403908,-0.666019,-0.514050,102.349435,-3.624582,-114.613197
38102,NaN,0.608730,9.634815,-2.097760,-0.003296,0.019015,0.066606,-0.008538,0.025441,-0.003530,0.359288,0.403941,-0.665974,-0.514026,102.345596,-3.628081,-114.602612
38103,NaN,0.629492,9.612128,-2.081139,-0.022167,0.003830,0.042255,-0.006337,0.023221,-0.002120,0.359361,0.403966,-0.665943,-0.513996,102.343073,-3.632327,-114.593604
38104,NaN,0.596001,9.631033,-2.009377,-0.075113,0.065740,0.043257,-0.003040,0.019872,-0.002365,0.359413,0.403988,-0.665926,-0.513963,102.342683,-3.635815,-114.586632
38105,NaN,0.608399,9.658631,-2.060318,-0.038694,0.038823,0.081816,-0.010631,0.017064,-0.001360,0.359476,0.403987,-0.665896,-0.513959,102.337924,-3.639732,-114.581170
38106,NaN,0.577847,9.607464,-2.093987,0.013357,0.046162,0.037173,-0.004640,0.016229,-0.002811,0.359514,0.403995,-0.665885,-0.513941,102.336987,-3.642481,-114.576989
38107,NaN,0.630045,9.612658,-2.078524,-0.022753,0.005976,0.042253,-0.002201,0.011644,-0.003848,0.359536,0.404003,-0.665881,-0.513924,102.337232,-3.644341,-114.574261
38108,NaN,0.580329,9.583369,-2.093981,0.016785,0.041049,0.013835,-0.003422,0.013936,-0.003329,0.359567,0.404014,-0.665872,-0.513906,102.336742,-3.646555,-114.570340
38109,NaN,0.583868,9.535798,-2.129685,0.055356,0.017214,-0.024708,-0.000857,0.008187,-0.003230,0.359577,0.404013,-0.665879,-0.513890,102.337884,-3.648337,-114.569627
38110,NaN,0.612762,9.588085,-2.129461,0.034238,-0.001116,0.028059,-0.001842,0.008112,-0.005158,0.359581,0.404022,-0.665879,-0.513880,102.338736,-3.648595,-114.568334
38111,NaN,0.631876,9.588662,-2.078254,-0.019645,0.001908,0.018918,-0.001231,0.011678,-0.006636,0.359594,0.404041,-0.665873,-0.513865,102.339512,-3.648899,-114.565245
38112,NaN,0.592129,9.633537,-2.075158,-0.013665,0.045903,0.059478,-0.000859,0.008186,-0.003230,0.359600,0.404047,-0.665879,-0.513847,102.341068,-3.650143,-114.564082
38113,NaN,0.645046,9.615323,-2.095223,-0.014792,-0.012484,0.049366,0.000600,0.012952,-0.008632,0.359609,0.404079,-0.665871,-0.513827,102.342833,-3.649486,-114.560034
38114,NaN,0.593876,9.609376,-2.075670,-0.010241,0.040783,0.036141,-0.002703,0.006872,-0.005950,0.359610,0.404083,-0.665869,-0.513825,102.342985,-3.649341,-114.559522
38115,NaN,0.609961,9.611775,-2.093278,-0.001485,0.019726,0.043259,-0.003677,0.006836,-0.003161,0.359620,0.404074,-0.665872,-0.513821,102.342561,-3.650997,-114.559575
38116,NaN,0.609676,9.611862,-2.092957,-0.001640,0.020213,0.043258,-0.001969,0.009274,-0.006292,0.359631,0.404093,-0.665863,-0.513810,102.343057,-3.650809,-114.556635
38117,NaN,0.588919,9.634824,-2.108323,0.017007,0.036488,0.067599,-0.005634,0.006725,-0.002299,0.359647,0.404077,-0.665863,-0.513811,102.341522,-3.652933,-114.556856
38118,NaN,0.607688,9.613023,-2.126385,0.029498,0.009214,0.051391,-0.006743,0.007814,-0.005362,0.359664,0.404072,-0.665849,-0.513821,102.338895,-3.653443,-114.555842
38119,NaN,0.592467,9.609989,-2.073230,-0.010801,0.043415,0.036129,-0.007478,0.005411,-0.005020,0.359672,0.404059,-0.665841,-0.513837,102.336329,-3.653884,-114.556466
38120,NaN,0.610047,9.611599,-2.055853,-0.033468,0.034358,0.035116,-0.009436,0.005300,-0.004159,0.359685,0.404046,-0.665828,-0.513855,102.333055,-3.654251,-114.556605
38121,NaN,0.608329,9.612712,-2.089442,-0.002273,0.022845,0.043252,-0.008452,0.005374,-0.002231,0.359703,0.404021,-0.665823,-0.513868,102.329954,-3.656248,-114.557591
38122,NaN,0.608229,9.612880,-2.088700,-0.002342,0.023376,0.043251,-0.006371,0.004322,-0.001956,0.359712,0.403991,-0.665827,-0.513880,102.327797,-3.658322,-114.559856
38123,NaN,0.590407,9.611634,-2.104485,0.019990,0.033461,0.044260,-0.008568,0.006576,0.001352,0.359743,0.403957,-0.665827,-0.513885,102.324615,-3.662471,-114.560607
38124,NaN,0.611163,9.588892,-2.088098,0.001115,0.018248,0.019921,-0.003061,0.010439,0.000082,0.359773,0.403948,-0.665830,-0.513867,102.324308,-3.666274,-114.558925
38125,NaN,0.592469,9.610895,-2.069029,-0.011539,0.046588,0.036114,-0.003545,0.005709,0.002693,0.359795,0.403916,-0.665847,-0.513854,102.324045,-3.671069,-114.560328
38126,NaN,0.625540,9.615610,-2.104491,0.006022,0.003900,0.050380,-0.004529,0.005634,0.000765,0.359810,0.403888,-0.665860,-0.513850,102.323317,-3.674572,-114.561953
38127,NaN,0.609210,9.613393,-2.086051,-0.002951,0.026049,0.043244,-0.004904,0.009125,-0.002639,0.359832,0.403881,-0.665856,-0.513845,102.322111,-3.676800,-114.560785
38128,NaN,0.625494,9.615824,-2.103528,0.005752,0.004941,0.050379,-0.003681,0.006835,-0.003158,0.359844,0.403877,-0.665856,-0.513840,102.321732,-3.678127,-114.560102
38129,NaN,0.625332,9.615944,-2.103028,0.005632,0.005485,0.050379,-0.005764,0.007887,-0.003432,0.359861,0.403868,-0.665851,-0.513842,102.320072,-3.679760,-114.559532
38130,NaN,0.627740,9.591822,-2.103208,0.009188,-0.000224,0.027054,-0.005156,0.011452,-0.004907,0.359889,0.403880,-0.665833,-0.513836,102.318515,-3.680713,-114.555824
38131,NaN,0.592235,9.611569,-2.065961,-0.012305,0.049732,0.036098,-0.006131,0.011415,-0.002118,0.359922,0.403874,-0.665824,-0.513829,102.316528,-3.683512,-114.553436
38132,NaN,0.627514,9.592102,-2.101999,0.008904,0.000818,0.027054,-0.004550,0.015017,-0.006381,0.359952,0.403898,-0.665802,-0.513817,102.315414,-3.684024,-114.548244
38133,NaN,0.592821,9.588506,-2.100121,0.022397,0.032492,0.020920,-0.004184,0.011488,-0.007694,0.359968,0.403915,-0.665786,-0.513814,102.314496,-3.683710,-114.545131
38134,NaN,0.623967,9.616641,-2.100246,0.004940,0.008090,0.050378,-0.004310,0.012651,-0.008828,0.359979,0.403936,-0.665768,-0.513813,102.313647,-3.682685,-114.541973
38135,NaN,0.604403,9.638707,-2.081068,-0.007699,0.036449,0.066555,-0.004186,0.011487,-0.007693,0.359995,0.403952,-0.665752,-0.513810,102.312727,-3.682372,-114.538861
38136,NaN,0.569678,9.635120,-2.079118,0.005781,0.068072,0.060414,-0.006752,0.007809,-0.005359,0.360011,0.403954,-0.665737,-0.513816,102.310481,-3.682596,-114.537146
38137,NaN,0.624130,9.616167,-2.064023,-0.026737,0.021761,0.042221,-0.006021,0.010210,-0.005699,0.360031,0.403958,-0.665722,-0.513818,102.308572,-3.683243,-114.534995
38138,NaN,0.604392,9.615876,-2.114388,0.026750,0.019679,0.051384,-0.006879,0.008972,-0.006493,0.360045,0.403969,-0.665705,-0.513823,102.306865,-3.682634,-114.532646
38139,NaN,0.634084,9.645021,-2.148716,0.040620,-0.016779,0.089006,-0.007131,0.011298,-0.008760,0.360063,0.403983,-0.665679,-0.513832,102.304257,-3.681700,-114.529510
38140,NaN,0.606083,9.592020,-2.113590,0.030145,0.014499,0.028061,-0.008603,0.015951,-0.005791,0.360108,0.404004,-0.665645,-0.513829,102.300784,-3.682617,-114.523317
38141,NaN,0.605797,9.592239,-2.112679,0.030026,0.015041,0.028061,-0.008840,0.008858,-0.005632,0.360129,0.403999,-0.665626,-0.513843,102.297310,-3.683135,-114.521932
38142,NaN,0.587983,9.613419,-2.058556,-0.013928,0.055453,0.036065,-0.009817,0.008819,-0.002845,0.360161,0.403989,-0.665606,-0.513854,102.293359,-3.684852,-114.520055
38143,NaN,0.586382,9.614610,-2.091977,0.017247,0.043901,0.044224,-0.011406,0.005179,-0.003300,0.360181,0.403962,-0.665592,-0.513879,102.288565,-3.686226,-114.521018
38144,NaN,0.586082,9.614861,-2.090907,0.017069,0.044406,0.044223,-0.010306,0.004053,-0.004954,0.360188,0.403941,-0.665579,-0.513907,102.284662,-3.686189,-114.522491
38145,NaN,0.568124,9.613753,-2.106176,0.039416,0.054457,0.045227,-0.016301,0.004913,0.001206,0.360229,0.403890,-0.665562,-0.513941,102.277108,-3.690054,-114.524154
38146,NaN,0.603890,9.616805,-2.071823,-0.005631,0.035955,0.043212,-0.007861,0.008931,-0.003701,0.360254,0.403881,-0.665548,-0.513949,102.274129,-3.691487,-114.522806
38147,NaN,0.605411,9.616036,-2.036381,-0.037035,0.048605,0.035043,-0.011276,0.004049,0.002550,0.360285,0.403832,-0.665548,-0.513965,102.269497,-3.695999,-114.525118
38148,NaN,0.590284,9.590563,-2.052879,-0.010989,0.052403,0.012727,-0.006382,0.004315,-0.001956,0.360295,0.403806,-0.665550,-0.513975,102.267465,-3.697938,-114.526876
38149,NaN,0.617826,9.643976,-2.086363,-0.000824,0.022186,0.073687,-0.008342,0.004201,-0.001096,0.360312,0.403775,-0.665550,-0.513989,102.264480,-3.700428,-114.528656
38150,NaN,0.606646,9.593240,-2.069357,-0.002409,0.031839,0.019886,-0.005526,0.005552,-0.001160,0.360328,0.403755,-0.665552,-0.513990,102.262980,-3.702812,-114.529224
38151,NaN,0.604010,9.617650,-2.067863,-0.006204,0.038615,0.043201,-0.008342,0.004201,-0.001096,0.360344,0.403724,-0.665552,-0.514004,102.259995,-3.705301,-114.531005
38152,NaN,0.603818,9.617810,-2.067176,-0.006312,0.039134,0.043199,-0.005407,0.004354,-0.004742,0.360346,0.403710,-0.665551,-0.514015,102.258540,-3.705651,-114.532331
38153,NaN,0.658448,9.598774,-2.052419,-0.038880,-0.007156,0.025040,0.000107,0.008255,-0.001286,0.360358,0.403705,-0.665565,-0.513992,102.260247,-3.708528,-114.531814
38154,NaN,0.603584,9.617946,-2.066609,-0.006600,0.040209,0.043195,-0.005155,0.002026,-0.002477,0.360352,0.403675,-0.665577,-0.514004,102.259404,-3.709767,-114.535434
38155,NaN,0.622389,9.596135,-2.085046,0.005768,0.012905,0.027048,0.000226,0.007057,-0.004868,0.360351,0.403679,-0.665586,-0.513990,102.261194,-3.710493,-114.535153
38156,NaN,0.620801,9.619474,-2.049570,-0.029304,0.031775,0.042186,-0.003448,0.004467,-0.005601,0.360347,0.403674,-0.665587,-0.513995,102.260872,-3.710311,-114.535925
38157,NaN,0.622991,9.595299,-2.050117,-0.025746,0.026081,0.018869,-0.001362,0.003417,-0.005327,0.360336,0.403668,-0.665598,-0.513994,102.261881,-3.710337,-114.537630
38158,NaN,0.637476,9.598735,-2.102324,0.014216,-0.007174,0.034221,-0.001615,0.005745,-0.007592,0.360334,0.403684,-0.665591,-0.513991,102.262483,-3.709038,-114.536138
38159,NaN,0.602573,9.595045,-2.100826,0.027767,0.024467,0.028049,-0.001616,0.005744,-0.007592,0.360325,0.403691,-0.665593,-0.513991,102.263245,-3.708079,-114.536260
38160,NaN,0.617194,9.620747,-2.083375,0.001456,0.021716,0.050358,0.001200,0.007096,-0.007654,0.360317,0.403713,-0.665594,-0.513976,102.265661,-3.706857,-114.534616
38161,NaN,0.617936,9.619814,-2.048840,-0.029936,0.034390,0.042176,-0.001140,0.010473,-0.010193,0.360317,0.403741,-0.665583,-0.513969,102.266503,-3.705017,-114.531768
38162,NaN,0.633698,9.622252,-2.066679,-0.021320,0.013298,0.049353,0.001199,0.007096,-0.007654,0.360302,0.403756,-0.665591,-0.513958,102.269098,-3.703895,-114.531621
38163,NaN,0.597494,9.641772,-2.030148,-0.042706,0.063321,0.058302,0.000944,0.009422,-0.009918,0.360294,0.403784,-0.665587,-0.513946,102.271175,-3.702081,-114.529395
38164,NaN,0.647538,9.648027,-2.049148,-0.047713,0.011098,0.071661,-0.003705,0.006792,-0.007866,0.360298,0.403799,-0.665574,-0.513948,102.270551,-3.700745,-114.527421
38165,NaN,0.613938,9.643392,-2.012925,-0.065418,0.054875,0.057292,-0.004689,0.006716,-0.009794,0.360293,0.403810,-0.665561,-0.513960,102.269499,-3.698671,-114.526729
38166,NaN,0.560975,9.616048,-2.097599,0.036852,0.065439,0.045170,-0.002850,0.008029,-0.007069,0.360293,0.403815,-0.665557,-0.513961,102.269382,-3.698194,-114.526213
38167,NaN,0.583476,9.546693,-2.152370,0.087820,0.013460,-0.009392,0.003410,0.004883,-0.006245,0.360275,0.403823,-0.665576,-0.513943,102.273065,-3.697884,-114.526982
38168,NaN,0.598153,9.572376,-2.135003,0.061551,0.010747,0.012917,-0.002221,0.002177,-0.006122,0.360259,0.403816,-0.665583,-0.513951,102.273511,-3.697143,-114.529187
38169,NaN,0.648388,9.578564,-2.154336,0.056524,-0.041414,0.026294,0.006225,0.006236,-0.006306,0.360240,0.403833,-0.665606,-0.513921,102.278758,-3.696963,-114.529190
38170,NaN,0.609684,9.622231,-2.117364,0.031487,0.014833,0.058536,0.002681,0.002481,-0.005908,0.360217,0.403837,-0.665625,-0.513910,102.281987,-3.696330,-114.530815
38171,NaN,0.594300,9.618842,-2.065127,-0.008679,0.049138,0.043153,0.000473,0.004728,-0.002601,0.360214,0.403827,-0.665643,-0.513895,102.284022,-3.698041,-114.532117
38172,NaN,0.610483,9.621295,-2.082820,0.000081,0.028054,0.050342,-0.004054,0.000898,-0.004132,0.360204,0.403800,-0.665653,-0.513910,102.283050,-3.698582,-114.535803
38173,NaN,0.589659,9.644233,-2.098290,0.018771,0.044329,0.074650,-0.002470,0.004538,-0.003672,0.360203,0.403789,-0.665662,-0.513908,102.283396,-3.699670,-114.537080
38174,NaN,0.622563,9.671397,-2.063891,-0.030004,0.032190,0.095956,-0.004806,0.007948,-0.001496,0.360221,0.403773,-0.665665,-0.513905,102.282326,-3.702219,-114.537079
38175,NaN,0.592165,9.620197,-2.098131,0.022193,0.039126,0.051337,-0.006390,0.004308,-0.001957,0.360232,0.403749,-0.665668,-0.513913,102.280449,-3.704239,-114.538695
38176,NaN,0.609937,9.621797,-2.080659,-0.000400,0.030211,0.050336,-0.011165,0.002839,-0.001038,0.360243,0.403699,-0.665668,-0.513944,102.275856,-3.706621,-114.542853
38177,NaN,0.627688,9.623430,-2.063027,-0.023004,0.021299,0.049335,-0.009934,0.000552,-0.001560,0.360249,0.403657,-0.665670,-0.513971,102.272087,-3.708406,-114.546625
38178,NaN,0.608452,9.623266,-2.113008,0.030611,0.019105,0.058532,-0.012999,0.001560,0.000952,0.360271,0.403605,-0.665665,-0.514002,102.266511,-3.711505,-114.549973
38179,NaN,0.611244,9.599235,-2.112770,0.034165,0.013374,0.035225,-0.008824,-0.000537,0.001501,0.360280,0.403552,-0.665677,-0.514022,102.263443,-3.714872,-114.554728
38180,NaN,0.611332,9.599439,-2.111813,0.034027,0.013886,0.035224,-0.011040,0.001674,0.000095,0.360294,0.403504,-0.665678,-0.514049,102.259039,-3.717521,-114.558367
38181,NaN,0.628064,9.624342,-2.058653,-0.023506,0.023421,0.049329,-0.014834,0.000279,0.002942,0.360321,0.403438,-0.665676,-0.514084,102.252509,-3.721794,-114.562840
38182,NaN,0.613099,9.598983,-2.074663,0.002558,0.027111,0.027021,-0.014362,0.005008,0.000344,0.360356,0.403392,-0.665661,-0.514115,102.245877,-3.725094,-114.564390
38183,NaN,0.628413,9.624925,-2.055818,-0.023722,0.024488,0.049326,-0.014363,0.005007,0.000345,0.360391,0.403347,-0.665647,-0.514144,102.239424,-3.728489,-114.565893
38184,NaN,0.631214,9.600942,-2.055337,-0.020264,0.018722,0.026020,-0.012276,0.003959,0.000619,0.360413,0.403303,-0.665642,-0.514168,102.234643,-3.731510,-114.568381
38185,NaN,0.610812,9.624061,-2.069903,-0.001564,0.034996,0.050320,-0.012405,0.005122,-0.000512,0.360443,0.403265,-0.665631,-0.514192,102.229302,-3.734439,-114.569715
38186,NaN,0.628725,9.625672,-2.052224,-0.024164,0.026060,0.049321,-0.008860,0.008878,-0.000907,0.360477,0.403246,-0.665619,-0.514198,102.225708,-3.737420,-114.568586
38187,NaN,0.615291,9.599184,-2.034189,-0.029366,0.041940,0.018804,-0.010816,0.008793,0.004666,0.360529,0.403203,-0.665616,-0.514200,102.221184,-3.743694,-114.568488
38188,NaN,0.629350,9.648231,-1.980422,-0.090616,0.057766,0.056201,-0.008740,0.007681,-0.004489,0.360546,0.403192,-0.665602,-0.514215,102.217998,-3.744395,-114.568043
38189,NaN,0.645656,9.650866,-1.997322,-0.081980,0.036700,0.063411,-0.010446,0.005237,-0.001369,0.360569,0.403160,-0.665594,-0.514234,102.213769,-3.746858,-114.569207
38190,NaN,0.629319,9.648621,-1.978527,-0.090894,0.058815,0.056192,-0.007880,0.008950,0.001023,0.360608,0.403142,-0.665587,-0.514230,102.210996,-3.750706,-114.567658
38191,NaN,0.592512,9.647061,-2.045473,-0.014777,0.066055,0.066393,-0.007374,0.004263,0.000833,0.360627,0.403106,-0.665593,-0.514237,102.208580,-3.754285,-114.569636
38192,NaN,0.573532,9.646918,-2.095671,0.038893,0.063804,0.075600,-0.010698,0.007595,0.001084,0.360671,0.403078,-0.665579,-0.514247,102.203769,-3.758270,-114.568737
38193,NaN,0.650410,9.581925,-2.099914,0.022290,-0.016644,0.018141,-0.005030,0.000887,0.003369,0.360681,0.403029,-0.665602,-0.514248,102.202841,-3.762860,-114.572917
38194,NaN,0.613843,9.602489,-2.097167,0.032318,0.021220,0.035217,-0.008354,0.004219,0.003620,0.360712,0.402981,-0.665609,-0.514255,102.199460,-3.768007,-114.575139
38195,NaN,0.612899,9.603719,-2.130767,0.063440,0.009572,0.043433,-0.009810,-0.000584,0.004286,0.360729,0.402916,-0.665625,-0.514273,102.195855,-3.772932,-114.580256
38196,NaN,0.630991,9.605292,-2.113149,0.040801,0.000670,0.042439,-0.010922,0.000506,0.001227,0.360739,0.402858,-0.665633,-0.514301,102.191630,-3.776150,-114.585430
38197,NaN,0.628582,9.629799,-2.111060,0.037010,0.007515,0.065739,-0.014720,-0.000892,0.004072,0.360764,0.402785,-0.665636,-0.514337,102.185223,-3.780920,-114.590693
38198,NaN,0.628812,9.630089,-2.109668,0.036998,0.008063,0.065738,-0.014470,-0.003251,0.001620,0.360773,0.402703,-0.665642,-0.514387,102.178467,-3.784310,-114.598301
38199,NaN,0.631422,9.606152,-2.109103,0.040548,0.002303,0.042439,-0.015583,-0.002160,-0.001439,0.360782,0.402643,-0.665634,-0.514438,102.171568,-3.785841,-114.603607
38200,NaN,0.631358,9.606544,-2.107338,0.040419,0.002829,0.042440,-0.021472,-0.002513,0.001134,0.360803,0.402558,-0.665619,-0.514508,102.161335,-3.788665,-114.610395
38201,NaN,0.631458,9.606961,-2.105405,0.040300,0.003373,0.042440,-0.019256,-0.004726,0.002538,0.360821,0.402472,-0.665615,-0.514569,102.152459,-3.792116,-114.617622
38202,NaN,0.617551,9.580606,-2.086856,0.035175,0.019219,0.011912,-0.013751,-0.000879,-0.003425,0.360823,0.402418,-0.665607,-0.514620,102.146223,-3.792771,-114.622953
38203,NaN,0.650282,9.607946,-2.051021,-0.013618,0.007242,0.033223,-0.021861,0.000978,-0.002254,0.360853,0.402358,-0.665576,-0.514687,102.135604,-3.794227,-114.626398
38204,NaN,0.636307,9.581596,-2.032413,-0.018749,0.023068,0.002692,-0.012041,0.001594,-0.001828,0.360868,0.402316,-0.665567,-0.514720,102.130272,-3.795941,-114.629370
38205,NaN,0.665097,9.634168,-2.030693,-0.039983,0.005206,0.055526,-0.012170,0.002759,-0.002958,0.360883,0.402280,-0.665555,-0.514753,102.125134,-3.797218,-114.631730
38206,NaN,0.630444,9.608567,-2.098368,0.039905,0.006028,0.042440,-0.006786,0.007800,-0.005336,0.360900,0.402272,-0.665542,-0.514764,102.122297,-3.797889,-114.630977
38207,NaN,0.613631,9.606255,-2.079915,0.031064,0.028196,0.035204,-0.004695,0.006753,-0.005063,0.360907,0.402267,-0.665539,-0.514768,102.121277,-3.798468,-114.630840
38208,NaN,0.665474,9.611515,-2.064114,-0.005260,-0.011728,0.040458,-0.002382,0.012794,-0.004927,0.360933,0.402280,-0.665528,-0.514753,102.120829,-3.799907,-114.627172
38209,NaN,0.610377,9.652744,-2.008265,-0.038870,0.066334,0.065331,-0.006316,0.012531,-0.007926,0.360956,0.402296,-0.665504,-0.514755,102.118642,-3.799577,-114.623447
38210,NaN,0.613842,9.605439,-2.044342,-0.000413,0.041993,0.026969,0.004107,0.016716,-0.008958,0.360968,0.402345,-0.665497,-0.514718,102.122121,-3.799054,-114.617401
38211,NaN,0.627262,9.632134,-2.061540,0.004520,0.027237,0.057502,0.003125,0.016669,-0.006172,0.360990,0.402383,-0.665493,-0.514678,102.125203,-3.800205,-114.611564
38212,NaN,0.643329,9.634598,-2.079545,0.013113,0.006149,0.064744,0.001921,0.009509,-0.007965,0.360981,0.402401,-0.665499,-0.514662,102.127835,-3.799430,-114.610471
38213,NaN,0.627688,9.608982,-2.097293,0.039170,0.009769,0.042440,0.004230,0.015549,-0.007827,0.360993,0.402444,-0.665497,-0.514623,102.131579,-3.799520,-114.605063
38214,NaN,0.642429,9.634571,-2.079947,0.012887,0.007204,0.064744,0.001538,0.013028,-0.006639,0.361006,0.402474,-0.665493,-0.514596,102.133720,-3.799793,-114.600813
38215,NaN,0.626886,9.608982,-2.097537,0.038945,0.010818,0.042440,0.001409,0.014192,-0.007768,0.361019,0.402508,-0.665486,-0.514569,102.135898,-3.799752,-114.596174
38216,NaN,0.607345,9.630795,-2.078746,0.026494,0.039292,0.058484,-0.001154,0.010506,-0.005452,0.361031,0.402520,-0.665483,-0.514555,102.136482,-3.800514,-114.593875
38217,NaN,0.630182,9.583679,-2.063849,0.011194,0.017779,0.010909,0.002261,0.015428,-0.006968,0.361049,0.402556,-0.665478,-0.514521,102.139109,-3.801071,-114.588639
38218,NaN,0.623270,9.633331,-2.096470,0.034940,0.018701,0.065731,-0.002265,0.011624,-0.003796,0.361073,0.402570,-0.665470,-0.514503,102.139294,-3.802592,-114.585043
38219,NaN,0.609236,9.606697,-2.079164,0.029784,0.034538,0.035187,-0.003975,0.009149,-0.005394,0.361086,0.402574,-0.665463,-0.514500,102.138594,-3.803273,-114.583522
38220,NaN,0.626724,9.608159,-2.062125,0.007306,0.025674,0.034198,-0.002524,0.013952,-0.006054,0.361114,0.402589,-0.665448,-0.514488,102.137675,-3.804435,-114.579461
38221,NaN,0.640192,9.634968,-2.078798,0.012223,0.010931,0.064741,-0.001287,0.011669,-0.006579,0.361127,0.402607,-0.665442,-0.514473,102.138411,-3.804757,-114.576382
38222,NaN,0.590489,9.605636,-2.094722,0.052129,0.045544,0.036169,-0.006584,0.014876,-0.005471,0.361157,0.402610,-0.665424,-0.514472,102.135892,-3.806193,-114.573408
38223,NaN,0.642354,9.610973,-2.078677,0.015673,0.005692,0.041450,-0.003124,0.010385,-0.004594,0.361175,0.402615,-0.665419,-0.514462,102.135640,-3.807472,-114.571290
38224,NaN,0.643322,9.609958,-2.043778,-0.015636,0.018456,0.033205,-0.004108,0.010311,-0.006522,0.361189,0.402625,-0.665406,-0.514461,102.134628,-3.807564,-114.568967
38225,NaN,0.638867,9.635500,-2.076741,0.011792,0.013100,0.064739,-0.007780,0.007717,-0.007267,0.361200,0.402624,-0.665389,-0.514476,102.131785,-3.807024,-114.568024
38226,NaN,0.624590,9.608899,-2.059319,0.006619,0.028899,0.034189,-0.001291,0.011667,-0.006577,0.361211,0.402643,-0.665383,-0.514462,102.132587,-3.807117,-114.565186
38227,NaN,0.640652,9.611493,-2.076796,0.015189,0.007815,0.041450,-0.004240,0.011474,-0.007650,0.361226,0.402659,-0.665367,-0.514459,102.131631,-3.806815,-114.562087
38228,NaN,0.656454,9.636127,-2.024198,-0.042258,0.017564,0.055502,-0.005818,0.007835,-0.008122,0.361232,0.402663,-0.665351,-0.514472,102.129510,-3.805829,-114.561185
38229,NaN,0.606428,9.606781,-2.040244,-0.002357,0.052141,0.026920,-0.001037,0.009311,-0.009031,0.361231,0.402684,-0.665345,-0.514465,102.130457,-3.804493,-114.559134
38230,NaN,0.655028,9.636327,-2.023708,-0.042491,0.018641,0.055499,0.000073,0.008193,-0.010686,0.361218,0.402709,-0.665339,-0.514462,102.131985,-3.801975,-114.557697
38231,NaN,0.606108,9.605777,-2.005627,-0.033789,0.065468,0.018662,0.000202,0.007029,-0.009557,0.361205,0.402728,-0.665339,-0.514456,102.133724,-3.800070,-114.556864
38232,NaN,0.638307,9.610844,-2.041181,-0.016565,0.022725,0.033195,-0.000652,0.005791,-0.010357,0.361185,0.402746,-0.665337,-0.514459,102.135049,-3.797352,-114.556742
38233,NaN,0.602025,9.608132,-2.074627,0.028365,0.042007,0.035163,0.003278,0.006059,-0.007353,0.361169,0.402761,-0.665351,-0.514441,102.138604,-3.796565,-114.556720
38234,NaN,0.635652,9.611972,-2.076115,0.014424,0.011517,0.041447,0.005112,0.007342,-0.009336,0.361148,0.402791,-0.665360,-0.514419,102.142924,-3.794681,-114.555475
38235,NaN,0.597983,9.632327,-2.074356,0.024494,0.049418,0.058444,0.001183,0.007101,-0.007627,0.361139,0.402806,-0.665366,-0.514407,102.145237,-3.793865,-114.554834
38236,NaN,0.615220,9.633714,-2.057782,0.001840,0.040569,0.057457,0.002035,0.008339,-0.006826,0.361131,0.402822,-0.665374,-0.514389,102.147982,-3.793449,-114.553921
38237,NaN,0.635170,9.610858,-2.042098,-0.017143,0.025392,0.033187,0.001182,0.007101,-0.007626,0.361121,0.402836,-0.665380,-0.514377,102.150295,-3.792634,-114.553280
38238,NaN,0.616906,9.609486,-2.058898,0.005246,0.035235,0.034169,0.002164,0.007175,-0.005697,0.361118,0.402856,-0.665386,-0.514356,102.153132,-3.792522,-114.551544
38239,NaN,0.631739,9.613115,-2.111337,0.044993,0.001875,0.049705,0.002033,0.008338,-0.006825,0.361113,0.402873,-0.665394,-0.514337,102.155893,-3.792305,-114.550306
38240,NaN,0.647640,9.637602,-2.059464,-0.012440,0.011665,0.063744,0.003016,0.008412,-0.004896,0.361116,0.402889,-0.665402,-0.514311,102.158755,-3.793141,-114.548372
38241,NaN,0.648703,9.614571,-2.094557,0.022296,-0.006432,0.048723,-0.007790,0.007707,-0.007268,0.361127,0.402888,-0.665385,-0.514326,102.155907,-3.792599,-114.547434
38242,NaN,0.615092,9.609666,-2.058601,0.004851,0.037340,0.034162,0.001180,0.007100,-0.007625,0.361118,0.402906,-0.665388,-0.514314,102.158098,-3.791592,-114.546456
38243,NaN,0.613318,9.610827,-2.093090,0.035927,0.025605,0.042424,-0.000064,0.009380,-0.007099,0.361120,0.402922,-0.665388,-0.514301,102.159616,-3.791347,-114.544599
38244,NaN,0.630530,9.612299,-2.076164,0.013324,0.016768,0.041441,-0.003733,0.006783,-0.007847,0.361120,0.402928,-0.665379,-0.514307,102.158802,-3.790326,-114.544020
38245,NaN,0.613493,9.609865,-2.058150,0.004546,0.038947,0.034156,0.000066,0.008216,-0.005970,0.361120,0.402938,-0.665384,-0.514294,102.160447,-3.790573,-114.542952
38246,NaN,0.626783,9.636683,-2.074931,0.009438,0.024206,0.064721,-0.001638,0.005740,-0.007572,0.361111,0.402944,-0.665384,-0.514295,102.161066,-3.789492,-114.543145
38247,NaN,0.612512,9.609982,-2.057895,0.004322,0.040008,0.034152,-0.000525,0.004652,-0.004514,0.361104,0.402939,-0.665396,-0.514287,102.162516,-3.790124,-114.544255
38248,NaN,0.612186,9.609991,-2.057948,0.004188,0.040517,0.034150,0.002291,0.006010,-0.004566,0.361095,0.402944,-0.665412,-0.514269,102.165527,-3.790655,-114.544546
38249,NaN,0.609111,9.634274,-2.056978,0.000412,0.047443,0.057427,-0.003341,0.003293,-0.004461,0.361090,0.402931,-0.665420,-0.514273,102.165415,-3.791153,-114.546425
38250,NaN,0.645745,9.613992,-2.058840,-0.010035,0.010595,0.040456,0.001439,0.004773,-0.005367,0.361072,0.402935,-0.665437,-0.514261,102.168445,-3.790874,-114.547657
38251,NaN,0.628795,9.611476,-2.041161,-0.018803,0.032777,0.033162,0.001439,0.004772,-0.005367,0.361060,0.402936,-0.665452,-0.514248,102.171009,-3.791043,-114.548596
38252,NaN,0.643639,9.615140,-2.093505,0.020851,-0.000636,0.048729,0.000587,0.003534,-0.006168,0.361039,0.402935,-0.665468,-0.514244,102.173370,-3.790318,-114.550624
38253,NaN,0.644387,9.614052,-2.058984,-0.010452,0.012207,0.040453,-0.000658,0.005814,-0.005642,0.361033,0.402937,-0.665475,-0.514236,102.174692,-3.790459,-114.550945
38254,NaN,0.643916,9.614090,-2.058951,-0.010494,0.012750,0.040453,0.000586,0.003534,-0.006167,0.361015,0.402930,-0.665491,-0.514235,102.176387,-3.790193,-114.553314
38255,NaN,0.643365,9.614094,-2.059105,-0.010613,0.013297,0.040452,0.003270,0.006056,-0.007347,0.360998,0.402945,-0.665504,-0.514217,102.179936,-3.789407,-114.553293
38256,NaN,0.642832,9.614085,-2.059314,-0.010794,0.013822,0.040451,0.002025,0.008335,-0.006821,0.360987,0.402960,-0.665515,-0.514200,102.182969,-3.788929,-114.552784
38257,NaN,0.622958,9.635827,-2.040712,-0.023210,0.042399,0.056426,0.000322,0.005859,-0.008424,0.360973,0.402973,-0.665519,-0.514194,102.184828,-3.787517,-114.552743
38258,NaN,0.586896,9.633009,-2.074355,0.021778,0.061573,0.058382,0.005557,0.012094,-0.007199,0.360972,0.403007,-0.665527,-0.514158,102.189265,-3.787442,-114.549323
38259,NaN,0.641000,9.614053,-2.060036,-0.011128,0.015432,0.040448,0.004835,0.009663,-0.011584,0.360954,0.403048,-0.665529,-0.514136,102.193545,-3.784721,-114.546764
38260,NaN,0.639133,9.615164,-2.094778,0.019895,0.003639,0.048730,0.001435,0.004771,-0.005365,0.360939,0.403050,-0.665545,-0.514124,102.196215,-3.784663,-114.547863
38261,NaN,0.622097,9.612665,-2.077013,0.011143,0.025821,0.041424,-0.000207,0.010537,-0.008225,0.360942,0.403073,-0.665540,-0.514110,102.197600,-3.783929,-114.545221
38262,NaN,0.624184,9.588479,-2.077841,0.014729,0.019935,0.018149,0.000187,0.007019,-0.009551,0.360930,0.403093,-0.665538,-0.514107,102.198999,-3.781980,-114.544268
38263,NaN,0.642773,9.566814,-2.096507,0.026896,-0.007562,0.002181,0.001037,0.008257,-0.008749,0.360922,0.403114,-0.665539,-0.514094,102.201177,-3.780676,-114.542842
38264,NaN,0.599613,9.635660,-2.092663,0.029745,0.043128,0.065672,-0.002891,0.008014,-0.007045,0.360924,0.403120,-0.665533,-0.514095,102.200970,-3.780239,-114.541968
38265,NaN,0.604540,9.587298,-2.094056,0.036939,0.030862,0.019123,-0.003875,0.007937,-0.008974,0.360924,0.403133,-0.665522,-0.514100,102.200343,-3.778771,-114.540694
38266,NaN,0.635448,9.615594,-2.093926,0.019167,0.006821,0.048730,-0.001514,0.004572,-0.006442,0.360910,0.403134,-0.665529,-0.514099,102.201532,-3.777939,-114.541725
38267,NaN,0.621302,9.588958,-2.076492,0.014081,0.022596,0.018144,-0.009369,0.004085,-0.003034,0.360923,0.403107,-0.665522,-0.514120,102.197948,-3.779331,-114.543333
38268,NaN,0.612592,9.661842,-2.073197,0.003042,0.042336,0.087959,-0.003026,0.009175,-0.008172,0.360929,0.403122,-0.665510,-0.514120,102.197442,-3.778392,-114.541261
38269,NaN,0.651944,9.617441,-2.075591,-0.003694,-0.000889,0.047752,-0.004725,0.006729,-0.005064,0.360936,0.403117,-0.665506,-0.514123,102.196404,-3.778967,-114.541139
38270,NaN,0.633867,9.616157,-2.091817,0.018737,0.008924,0.048729,-0.004726,0.006728,-0.005064,0.360945,0.403115,-0.665500,-0.514127,102.195244,-3.779327,-114.540603
38271,NaN,0.616969,9.613719,-2.073661,0.010002,0.031109,0.041410,-0.002629,0.005688,-0.004787,0.360945,0.403109,-0.665505,-0.514125,102.195448,-3.779931,-114.541099
38272,NaN,0.599936,9.611276,-2.055554,0.001304,0.053260,0.034090,-0.003745,0.006774,-0.007845,0.360945,0.403116,-0.665496,-0.514131,102.194686,-3.778858,-114.540350
38273,NaN,0.650365,9.617937,-2.073790,-0.004138,0.001221,0.047752,-0.007275,0.003043,-0.002758,0.360952,0.403089,-0.665497,-0.514146,102.192342,-3.780278,-114.542577
38274,NaN,0.633415,9.615483,-2.055703,-0.012779,0.023398,0.040430,0.001165,0.007094,-0.007617,0.360942,0.403099,-0.665503,-0.514138,102.194145,-3.779636,-114.542472
38275,NaN,0.649470,9.618049,-2.073549,-0.004289,0.002305,0.047752,0.001431,0.004770,-0.005362,0.360930,0.403101,-0.665518,-0.514126,102.196705,-3.779807,-114.543413
38276,NaN,0.614736,9.614104,-2.072541,0.009505,0.033768,0.041402,-0.000084,0.009372,-0.007091,0.360928,0.403116,-0.665519,-0.514113,102.198323,-3.779366,-114.542003
38277,NaN,0.614279,9.614173,-2.072354,0.009387,0.034313,0.041400,-0.002765,0.006849,-0.005914,0.360930,0.403117,-0.665519,-0.514112,102.198397,-3.779479,-114.541711
38278,NaN,0.631400,9.615669,-2.055454,-0.013312,0.025537,0.040424,0.000180,0.007017,-0.009546,0.360914,0.403136,-0.665519,-0.514107,102.200207,-3.777382,-114.541147
38279,NaN,0.595258,9.612855,-2.088987,0.031679,0.044673,0.042371,0.002460,0.013055,-0.009395,0.360917,0.403175,-0.665514,-0.514082,102.203017,-3.776298,-114.536949
38280,NaN,0.626057,9.641098,-2.089207,0.013988,0.020679,0.071992,0.000894,0.009416,-0.009871,0.360910,0.403202,-0.665509,-0.514072,102.204807,-3.774424,-114.534687
38281,NaN,0.629514,9.615752,-2.055645,-0.013633,0.027146,0.040420,0.001029,0.008285,-0.004033,0.360914,0.403208,-0.665519,-0.514051,102.207016,-3.775764,-114.533817
38282,NaN,0.611416,9.614325,-2.072495,0.008753,0.036944,0.041391,0.002591,0.011892,-0.008266,0.360914,0.403243,-0.665518,-0.514025,102.210137,-3.774840,-114.530207
38283,NaN,0.631273,9.591537,-2.056743,-0.010270,0.021767,0.017150,0.000892,0.009415,-0.009870,0.360907,0.403271,-0.665515,-0.514013,102.212180,-3.773049,-114.527995
38284,NaN,0.626739,9.616892,-2.090587,0.017042,0.016371,0.048722,0.005535,0.012091,-0.007186,0.360900,0.403304,-0.665526,-0.513976,102.217123,-3.772814,-114.525235
38285,NaN,0.609665,9.614299,-2.073131,0.008331,0.038558,0.041386,0.001873,0.009491,-0.007940,0.360896,0.403327,-0.665529,-0.513958,102.219741,-3.772113,-114.523215
38286,NaN,0.625588,9.616882,-2.090976,0.016814,0.017420,0.048721,0.001604,0.011813,-0.010194,0.360897,0.403367,-0.665519,-0.513939,102.221945,-3.770242,-114.519010
38287,NaN,0.604388,9.639706,-2.106932,0.035602,0.033686,0.072957,0.001737,0.010651,-0.009067,0.360894,0.403397,-0.665517,-0.513920,102.224433,-3.769051,-114.516201
38288,NaN,0.628122,9.591621,-2.057315,-0.010994,0.024404,0.017143,-0.003309,0.011489,-0.010424,0.360896,0.403424,-0.665500,-0.513919,102.224315,-3.766876,-114.513184
38289,NaN,0.606936,9.614517,-2.072919,0.007796,0.040669,0.041378,-0.000942,0.008128,-0.007891,0.360893,0.403439,-0.665498,-0.513913,102.225371,-3.766037,-114.511934
38290,NaN,0.622948,9.617119,-2.090672,0.016242,0.019533,0.048718,0.002582,0.011889,-0.008262,0.360895,0.403474,-0.665495,-0.513887,102.228321,-3.765199,-114.508181
38291,NaN,0.623462,9.616024,-2.056215,-0.015022,0.032445,0.040402,-0.000365,0.011687,-0.009342,0.360899,0.403503,-0.665486,-0.513873,102.229564,-3.763979,-114.504757
38292,NaN,0.606290,9.613558,-2.038161,-0.023713,0.054587,0.033055,-0.005007,0.009041,-0.007319,0.360912,0.403517,-0.665468,-0.513876,102.228101,-3.763336,-114.502161
38293,NaN,0.636126,9.643067,-2.072305,-0.010323,0.018293,0.071006,-0.002909,0.008003,-0.007041,0.360915,0.403525,-0.665463,-0.513875,102.228041,-3.762958,-114.501084
38294,NaN,0.604112,9.614919,-2.071881,0.007170,0.043298,0.041367,-0.003044,0.009164,-0.008168,0.360913,0.403533,-0.665457,-0.513876,102.227966,-3.761981,-114.500342
38295,NaN,0.586920,9.612459,-2.053779,-0.001523,0.065488,0.034016,-0.003757,0.006764,-0.007843,0.360911,0.403539,-0.665451,-0.513882,102.227459,-3.761003,-114.499863
38296,NaN,0.620715,9.616613,-2.054292,-0.015633,0.035115,0.040392,-0.004739,0.006718,-0.005064,0.360913,0.403527,-0.665451,-0.513889,102.226419,-3.761542,-114.500939
38297,NaN,0.636781,9.619327,-2.071556,-0.007180,0.014016,0.047741,-0.003894,0.007924,-0.008970,0.360913,0.403539,-0.665440,-0.513894,102.225783,-3.760075,-114.499673
38298,NaN,0.639075,9.595234,-2.071955,-0.003655,0.008090,0.024479,-0.005452,0.004317,-0.004740,0.360912,0.403523,-0.665441,-0.513907,102.224413,-3.760442,-114.501539
38299,NaN,0.615338,9.642371,-2.086516,0.011493,0.030812,0.071969,-0.002777,0.006841,-0.005912,0.360913,0.403524,-0.665441,-0.513905,102.224480,-3.760555,-114.501252
38300,NaN,0.603974,9.591434,-2.070159,0.010159,0.040033,0.018093,-0.004877,0.007877,-0.006190,0.360928,0.403532,-0.665426,-0.513908,102.222897,-3.760478,-114.499091
38301,NaN,0.617358,9.618384,-2.086510,0.014957,0.025390,0.048707,-0.004031,0.009116,-0.005387,0.360941,0.403535,-0.665419,-0.513905,102.222167,-3.761161,-114.497591
38302,NaN,0.618158,9.617355,-2.051585,-0.016275,0.038284,0.040379,-0.003896,0.007955,-0.004260,0.360955,0.403534,-0.665415,-0.513902,102.221362,-3.762175,-114.496469
38303,NaN,0.597350,9.640233,-2.067112,0.002528,0.054550,0.064604,-0.002643,0.005679,-0.004785,0.360955,0.403529,-0.665419,-0.513900,102.221558,-3.762778,-114.496970
38304,NaN,0.616559,9.618708,-2.085252,0.014611,0.026941,0.048703,-0.006436,0.004270,-0.001961,0.360968,0.403509,-0.665418,-0.513908,102.219596,-3.764539,-114.497949
38305,NaN,0.651788,9.621706,-2.051280,-0.030651,0.008978,0.046765,-0.001661,0.005757,-0.002854,0.360971,0.403499,-0.665429,-0.513899,102.220367,-3.766233,-114.498642
38306,NaN,0.619062,9.594638,-2.085493,0.018000,0.021537,0.025443,-0.002508,0.004518,-0.003658,0.360968,0.403487,-0.665439,-0.513898,102.220748,-3.767136,-114.500263
38307,NaN,0.635351,9.597344,-2.102797,0.026437,0.000432,0.032806,-0.005455,0.004316,-0.004739,0.360969,0.403473,-0.665439,-0.513909,102.219383,-3.767599,-114.501535
38308,NaN,0.632286,9.621633,-2.101713,0.022673,0.007415,0.056063,0.002571,0.011919,-0.003544,0.360983,0.403489,-0.665447,-0.513876,102.222246,-3.769504,-114.498735
38309,NaN,0.633159,9.620500,-2.067216,-0.008574,0.020360,0.047728,-0.001223,0.010477,-0.005430,0.360994,0.403501,-0.665445,-0.513861,102.223074,-3.770328,-114.496466
38310,NaN,0.615185,9.619085,-2.083919,0.013817,0.030121,0.048695,0.000876,0.009441,-0.005151,0.360995,0.403514,-0.665452,-0.513841,102.225413,-3.770862,-114.495141
38311,NaN,0.631581,9.621728,-2.101490,0.022247,0.009017,0.056062,-0.002343,0.011591,-0.003777,0.361017,0.403521,-0.665449,-0.513824,102.225571,-3.772746,-114.492448
38312,NaN,0.614947,9.619183,-2.083534,0.013634,0.031181,0.048692,-0.001362,0.011669,-0.001847,0.361044,0.403522,-0.665450,-0.513803,102.225940,-3.775702,-114.489984
38313,NaN,0.632617,9.620694,-2.066479,-0.009061,0.022485,0.047723,-0.002918,0.008031,-0.002328,0.361059,0.403515,-0.665454,-0.513793,102.225911,-3.777966,-114.489465
38314,NaN,0.632472,9.620801,-2.066023,-0.009170,0.023010,0.047722,-0.005292,0.011387,-0.004859,0.361081,0.403517,-0.665442,-0.513791,102.224268,-3.779130,-114.487205
38315,NaN,0.611743,9.643756,-2.081163,0.009642,0.039275,0.071941,-0.009386,0.004064,-0.003045,0.361094,0.403490,-0.665436,-0.513812,102.220674,-3.780511,-114.488825
38316,NaN,0.632154,9.621162,-2.064439,-0.009348,0.024076,0.047719,-0.006985,0.008941,-0.001758,0.361124,0.403474,-0.665427,-0.513814,102.217899,-3.783211,-114.487826
38317,NaN,0.651570,9.599713,-2.082243,0.002718,-0.003513,0.031841,-0.008541,0.005303,-0.002241,0.361141,0.403449,-0.665422,-0.513828,102.214750,-3.785193,-114.488848
38318,NaN,0.633725,9.598443,-2.098268,0.025095,0.006229,0.032808,-0.006713,0.006588,-0.004214,0.361150,0.403438,-0.665417,-0.513837,102.212936,-3.785834,-114.489131
38319,NaN,0.631651,9.621678,-2.062188,-0.009788,0.025678,0.047715,-0.006714,0.006587,-0.004214,0.361163,0.403426,-0.665410,-0.513846,102.210771,-3.786867,-114.489193
38320,NaN,0.615859,9.618068,-2.009275,-0.049555,0.060271,0.031987,-0.007261,0.011260,-0.004009,0.361192,0.403424,-0.665394,-0.513848,102.208050,-3.788448,-114.486874
38321,NaN,0.648752,9.623443,-2.044082,-0.032608,0.017518,0.046747,-0.003630,0.005599,-0.006713,0.361189,0.403423,-0.665392,-0.513854,102.207668,-3.787962,-114.487187
38322,NaN,0.614210,9.619519,-2.042609,-0.018707,0.048913,0.040327,-0.007699,0.006539,-0.001436,0.361208,0.403399,-0.665390,-0.513862,102.205061,-3.790304,-114.487932
38323,NaN,0.630664,9.622279,-2.059685,-0.010296,0.027808,0.047709,-0.004042,0.009111,-0.005381,0.361221,0.403403,-0.665383,-0.513859,102.204324,-3.790988,-114.486435
38324,NaN,0.633175,9.598195,-2.060016,-0.006751,0.021814,0.024457,-0.006853,0.007746,-0.005339,0.361239,0.403401,-0.665368,-0.513868,102.201818,-3.791338,-114.484990
38325,NaN,0.683739,9.604991,-2.078214,-0.012404,-0.030166,0.038265,0.000162,0.007041,-0.004824,0.361238,0.403405,-0.665376,-0.513854,102.203570,-3.792084,-114.484722
38326,NaN,0.635255,9.574087,-2.060602,-0.003328,0.016384,0.001205,0.001853,0.009487,-0.007922,0.361233,0.403427,-0.665379,-0.513837,102.206035,-3.791310,-114.482960
38327,NaN,0.666117,9.602398,-2.060710,-0.021157,-0.007444,0.030878,0.002560,0.011885,-0.008242,0.361234,0.403458,-0.665379,-0.513811,102.208954,-3.790729,-114.479559
38328,NaN,0.614637,9.595672,-2.042447,-0.015753,0.045562,0.017061,0.005232,0.014409,-0.009409,0.361239,0.403513,-0.665373,-0.513772,102.213260,-3.789424,-114.473492
38329,NaN,0.642681,9.648118,-2.042093,-0.037229,0.028244,0.069983,0.009023,0.015851,-0.007519,0.361243,0.403564,-0.665383,-0.513716,102.219741,-3.789728,-114.467952
38330,NaN,0.593192,9.618256,-2.059510,0.002949,0.062323,0.041267,0.004089,0.007290,-0.006516,0.361232,0.403586,-0.665396,-0.513691,102.223636,-3.789293,-114.466790
38331,NaN,0.607457,9.643877,-2.042262,-0.023401,0.060161,0.063548,0.006761,0.009814,-0.007682,0.361220,0.403618,-0.665411,-0.513655,102.229043,-3.788775,-114.464619
38332,NaN,0.626516,9.622167,-2.061474,-0.011366,0.032478,0.047693,0.007742,0.009893,-0.005751,0.361217,0.403657,-0.665424,-0.513609,102.234880,-3.788961,-114.460849
38333,NaN,0.607527,9.621742,-2.113444,0.042208,0.029792,0.057013,0.007034,0.007494,-0.005430,0.361202,0.403676,-0.665449,-0.513572,102.240548,-3.789422,-114.460253
38334,NaN,0.625819,9.621962,-2.062640,-0.011590,0.033520,0.047689,0.004362,0.004969,-0.004264,0.361191,0.403686,-0.665469,-0.513547,102.244592,-3.790001,-114.460290
38335,NaN,0.624640,9.623085,-2.097344,0.019392,0.021620,0.056049,0.000569,0.003558,-0.001446,0.361187,0.403670,-0.665492,-0.513532,102.246734,-3.792215,-114.462388
38336,NaN,0.624401,9.623086,-2.097413,0.019341,0.022145,0.056048,0.001415,0.004764,-0.005349,0.361175,0.403669,-0.665506,-0.513523,102.248867,-3.792454,-114.463626
38337,NaN,0.623107,9.624283,-2.131808,0.050320,0.010240,0.064410,-0.003084,0.000955,-0.002211,0.361167,0.403642,-0.665523,-0.513527,102.249007,-3.793923,-114.467092
38338,NaN,0.640647,9.625833,-2.114651,0.027647,0.001531,0.063449,-0.003499,0.004466,-0.000880,0.361180,0.403625,-0.665530,-0.513523,102.248455,-3.796405,-114.467727
38339,NaN,0.623994,9.623297,-2.096564,0.019022,0.023729,0.056045,-0.004912,-0.000331,-0.000240,0.361177,0.403585,-0.665548,-0.513533,102.247610,-3.798822,-114.472154
38340,NaN,0.640569,9.626075,-2.113569,0.027444,0.002602,0.063449,-0.008549,0.005295,-0.002245,0.361193,0.403556,-0.665544,-0.513550,102.244206,-3.800803,-114.473645
38341,NaN,0.644371,9.600851,-2.079233,-0.000130,0.009082,0.031838,-0.006309,0.003101,-0.000840,0.361203,0.403525,-0.665551,-0.513558,102.242429,-3.803301,-114.476073
38342,NaN,0.660961,9.603665,-2.096081,0.008195,-0.012045,0.039246,-0.009946,0.008726,-0.002845,0.361227,0.403504,-0.665539,-0.513573,102.238581,-3.805144,-114.475962
38343,NaN,0.627582,9.598600,-2.059843,-0.008921,0.031810,0.024428,-0.007844,0.007692,-0.002565,0.361251,0.403488,-0.665531,-0.513580,102.235740,-3.807234,-114.475604
38344,NaN,0.641267,9.625618,-2.075905,-0.004162,0.017197,0.055079,-0.005741,0.006659,-0.002285,0.361267,0.403471,-0.665529,-0.513584,102.233948,-3.809270,-114.475916
38345,NaN,0.625448,9.622002,-2.022883,-0.043867,0.051863,0.039295,-0.011498,0.005088,-0.003330,0.361287,0.403443,-0.665515,-0.513610,102.229104,-3.810615,-114.476926
38346,NaN,0.638997,9.649020,-2.038984,-0.039137,0.037245,0.069946,-0.001105,0.009309,-0.004294,0.361298,0.403451,-0.665516,-0.513595,102.229972,-3.811725,-114.475138
38347,NaN,0.624169,9.623463,-2.056130,-0.013017,0.040453,0.047662,-0.010380,0.004007,-0.000274,0.361320,0.403413,-0.665512,-0.513614,102.225834,-3.814650,-114.477126
38348,NaN,0.623208,9.624782,-2.089971,0.017944,0.028514,0.056034,-0.002228,0.010421,-0.002643,0.361337,0.403410,-0.665515,-0.513600,102.226117,-3.816922,-114.475914
38349,NaN,0.643636,9.602145,-2.073478,-0.001134,0.013341,0.031833,-0.008553,0.005292,-0.002245,0.361355,0.403385,-0.665510,-0.513614,102.222961,-3.818899,-114.476941
38350,NaN,0.623999,9.623894,-2.054159,-0.013423,0.042024,0.047655,-0.006450,0.004259,-0.001965,0.361367,0.403366,-0.665510,-0.513621,102.221143,-3.820528,-114.477820
38351,NaN,0.677653,9.606579,-2.072861,-0.015534,-0.016461,0.038293,-0.007293,0.003020,-0.002770,0.361373,0.403339,-0.665511,-0.513636,102.218790,-3.821936,-114.480058
38352,NaN,0.625646,9.601234,-2.087897,0.021049,0.024035,0.032790,-0.012625,0.006198,-0.001679,0.361408,0.403318,-0.665488,-0.513658,102.213184,-3.823941,-114.478991
38353,NaN,0.660829,9.604369,-2.053216,-0.024275,0.006219,0.030872,-0.007144,0.010088,-0.002881,0.361438,0.403310,-0.665476,-0.513659,102.210651,-3.826143,-114.477248
38354,NaN,0.622759,9.625884,-2.085023,0.017076,0.031580,0.056026,-0.011645,0.006276,0.000253,0.361476,0.403289,-0.665459,-0.513671,102.205997,-3.828983,-114.475946
38355,NaN,0.657855,9.629044,-2.050218,-0.028249,0.013771,0.054109,-0.011086,0.001575,-0.004663,0.361480,0.403258,-0.665449,-0.513705,102.201510,-3.829156,-114.478765
38356,NaN,0.639857,9.627807,-2.066167,-0.005810,0.023481,0.055065,-0.006867,0.007737,-0.005337,0.361488,0.403248,-0.665442,-0.513717,102.199405,-3.829523,-114.479052
38357,NaN,0.639533,9.628007,-2.065336,-0.005930,0.024028,0.055064,-0.009539,0.005211,-0.004174,0.361502,0.403227,-0.665430,-0.513738,102.195672,-3.830410,-114.479889
38358,NaN,0.642177,9.603994,-2.065351,-0.002409,0.017984,0.031826,-0.008696,0.006450,-0.003367,0.361523,0.403212,-0.665417,-0.513752,102.192268,-3.831664,-114.479524
38359,NaN,0.659485,9.605611,-2.047830,-0.025135,0.009359,0.030867,-0.004197,0.010263,-0.006499,0.361537,0.403222,-0.665406,-0.513749,102.191388,-3.831860,-114.477244
38360,NaN,0.641712,9.604237,-2.064365,-0.002638,0.019027,0.031824,-0.000687,0.014056,-0.002147,0.361571,0.403238,-0.665401,-0.513718,102.192239,-3.834724,-114.472592
38361,NaN,0.641587,9.604333,-2.063959,-0.002759,0.019572,0.031823,-0.006165,0.010134,-0.005654,0.361591,0.403241,-0.665387,-0.513721,102.190243,-3.835378,-114.470485
38362,NaN,0.675480,9.608581,-2.064272,-0.016993,-0.010724,0.038298,-0.001520,0.021014,-0.008892,0.361629,0.403288,-0.665358,-0.513694,102.190291,-3.835512,-114.462266
38363,NaN,0.623442,9.603063,-2.080129,0.019636,0.029811,0.032777,-0.000691,0.014055,-0.002146,0.361660,0.403299,-0.665358,-0.513664,102.191313,-3.838606,-114.458385
38364,NaN,0.626254,9.578825,-2.081152,0.023187,0.023765,0.009541,0.004366,0.013199,-0.005485,0.361671,0.403330,-0.665363,-0.513626,102.194986,-3.839616,-114.454302
38365,NaN,0.637896,9.628679,-2.062708,-0.006820,0.028258,0.055052,0.003241,0.014309,-0.003833,0.361691,0.403354,-0.665369,-0.513585,102.198236,-3.841795,-114.450073
38366,NaN,0.624041,9.601742,-2.046229,-0.011798,0.043862,0.024379,0.003240,0.014309,-0.003833,0.361711,0.403383,-0.665372,-0.513544,102.201569,-3.843655,-114.445365
38367,NaN,0.640689,9.604365,-2.064087,-0.003457,0.022748,0.031816,0.003377,0.013149,-0.002708,0.361729,0.403401,-0.665382,-0.513503,102.204950,-3.846324,-114.441924
38368,NaN,0.603546,9.624355,-2.062883,0.007039,0.060649,0.048562,0.008291,0.013483,-0.002463,0.361742,0.403426,-0.665403,-0.513448,102.210548,-3.849298,-114.438321
38369,NaN,0.618302,9.649908,-2.045683,-0.019329,0.058601,0.070836,0.005620,0.010957,-0.001303,0.361753,0.403438,-0.665426,-0.513402,102.215307,-3.852490,-114.436282
38370,NaN,0.637040,9.629463,-2.099157,0.023637,0.018371,0.063442,0.004778,0.009718,-0.002110,0.361757,0.403453,-0.665446,-0.513361,102.219903,-3.854646,-114.434426
38371,NaN,0.654775,9.630828,-2.082684,0.000902,0.009763,0.062487,0.005195,0.014464,0.000032,0.361783,0.403468,-0.665464,-0.513306,102.224298,-3.859011,-114.430580
38372,NaN,0.637413,9.629332,-2.099643,0.023379,0.019440,0.063441,-0.001965,0.008096,-0.000388,0.361798,0.403453,-0.665477,-0.513292,102.224860,-3.862226,-114.430859
38373,NaN,0.620873,9.626695,-2.081840,0.014809,0.041646,0.055993,-0.000561,0.012891,-0.001021,0.361828,0.403458,-0.665481,-0.513262,102.226007,-3.865810,-114.427769
38374,NaN,0.661148,9.582399,-2.084260,0.007825,-0.001793,0.016024,-0.001125,0.009334,0.000420,0.361852,0.403450,-0.665490,-0.513239,102.226735,-3.869649,-114.426490
38375,NaN,0.640856,9.605191,-2.100018,0.026681,0.014468,0.040208,-0.001967,0.008096,-0.000388,0.361871,0.403437,-0.665501,-0.513222,102.227263,-3.873006,-114.426169
38376,NaN,0.675296,9.609408,-2.100303,0.012348,-0.015828,0.046705,-0.006040,0.008999,0.000173,0.361900,0.403419,-0.665501,-0.513216,102.225557,-3.876518,-114.425450
38377,NaN,0.657717,9.608058,-2.116680,0.034841,-0.006141,0.047660,-0.003225,0.010334,-0.004568,0.361917,0.403424,-0.665495,-0.513206,102.225245,-3.877806,-114.423364
38378,NaN,0.637864,9.629789,-2.097407,0.022629,0.022594,0.063436,-0.010948,0.008633,-0.004780,0.361946,0.403417,-0.665469,-0.513225,102.220517,-3.878496,-114.421465
38379,NaN,0.623925,9.603107,-2.079780,0.017705,0.038224,0.032751,-0.007724,0.006522,-0.001442,0.361968,0.403394,-0.665466,-0.513232,102.217798,-3.881072,-114.421898
38380,NaN,0.641285,9.604717,-2.062264,-0.005052,0.029583,0.031797,-0.004206,0.010254,-0.006498,0.361985,0.403409,-0.665451,-0.513228,102.216893,-3.880979,-114.418905
38381,NaN,0.657740,9.607549,-2.079228,0.003263,0.008465,0.039252,-0.007864,0.007680,-0.002566,0.362008,0.403392,-0.665443,-0.513236,102.214040,-3.883065,-114.418551
38382,NaN,0.620488,9.627783,-2.076919,0.013748,0.046374,0.055973,-0.005057,0.009046,-0.002599,0.362030,0.403381,-0.665439,-0.513234,102.212406,-3.885351,-114.417749
38383,NaN,0.657562,9.607827,-2.077996,0.003076,0.009540,0.039251,-0.005196,0.010205,-0.003723,0.362053,0.403379,-0.665431,-0.513230,102.210976,-3.887095,-114.415837
38384,NaN,0.637775,9.629534,-2.058746,-0.009056,0.038280,0.055017,-0.008706,0.006441,-0.003374,0.362079,0.403367,-0.665414,-0.513243,102.207243,-3.888439,-114.414788
38385,NaN,0.622123,9.605193,-2.110585,0.048134,0.028839,0.041154,-0.000283,0.010540,-0.003474,0.362094,0.403374,-0.665418,-0.513221,102.208617,-3.890364,-114.412718
38386,NaN,0.640469,9.605525,-2.058752,-0.005682,0.032754,0.031786,-0.007728,0.006519,-0.001442,0.362115,0.403352,-0.665414,-0.513229,102.205930,-3.892720,-114.413155
38387,NaN,0.674706,9.609814,-2.058777,-0.019999,0.002508,0.038298,-0.005059,0.009044,-0.002598,0.362137,0.403344,-0.665411,-0.513224,102.204631,-3.894953,-114.412030
38388,NaN,0.653302,9.633952,-2.108605,0.029874,0.006197,0.070891,-0.006606,0.013630,-0.004318,0.362171,0.403353,-0.665391,-0.513219,102.202394,-3.896483,-114.407972
38389,NaN,0.639407,9.607226,-2.091134,0.024963,0.021814,0.040199,-0.008576,0.013501,-0.003476,0.362213,0.403353,-0.665368,-0.513218,102.198904,-3.898765,-114.404239
38390,NaN,0.619722,9.628956,-2.071700,0.012771,0.050572,0.055954,-0.008577,0.013500,-0.003475,0.362257,0.403358,-0.665343,-0.513217,102.195375,-3.900782,-114.399860
38391,NaN,0.626221,9.579474,-2.038207,-0.011126,0.050470,0.001083,-0.008150,0.009994,-0.004811,0.362282,0.403354,-0.665325,-0.513225,102.192251,-3.901891,-114.397934
38392,NaN,0.673300,9.611994,-2.089081,0.010359,-0.007445,0.046717,-0.009979,0.008706,-0.002847,0.362317,0.403346,-0.665303,-0.513235,102.188095,-3.903570,-114.395615
38393,NaN,0.638848,9.608062,-2.087457,0.024445,0.023884,0.040196,-0.008851,0.007596,-0.004497,0.362337,0.403334,-0.665288,-0.513250,102.184663,-3.904564,-114.395072
38394,NaN,0.636422,9.631259,-2.051082,-0.010408,0.043539,0.054993,-0.009692,0.006358,-0.005306,0.362350,0.403322,-0.665272,-0.513271,102.180987,-3.904638,-114.395066
38395,NaN,0.639064,9.607249,-2.051128,-0.006894,0.037485,0.031769,-0.008013,0.008833,-0.003687,0.362375,0.403312,-0.665259,-0.513278,102.177995,-3.906236,-114.393927
38396,NaN,0.672419,9.612868,-2.085342,0.009765,-0.005323,0.046719,-0.010543,0.005148,-0.001409,0.362394,0.403279,-0.665253,-0.513299,102.173903,-3.908429,-114.395592
38397,NaN,0.655542,9.610359,-2.066898,0.001230,0.016888,0.039242,-0.006745,0.006566,-0.004214,0.362407,0.403266,-0.665246,-0.513308,102.171719,-3.909457,-114.395662
38398,NaN,0.652348,9.634768,-2.065149,-0.002558,0.024016,0.062462,-0.008855,0.007595,-0.004495,0.362423,0.403252,-0.665233,-0.513324,102.168403,-3.910249,-114.395651
38399,NaN,0.654916,9.610726,-2.065390,0.000954,0.017956,0.039240,-0.004917,0.007854,-0.006177,0.362432,0.403253,-0.665225,-0.513328,102.167202,-3.910333,-114.394760
38400,NaN,0.657638,9.586610,-2.065925,0.004410,0.011848,0.016019,-0.002820,0.006852,-0.001189,0.362445,0.403244,-0.665232,-0.513317,102.167466,-3.912716,-114.394542
38401,NaN,0.651538,9.635142,-2.063662,-0.002978,0.025612,0.062458,-0.003648,0.005587,-0.006705,0.362443,0.403243,-0.665230,-0.513322,102.167074,-3.912231,-114.394860
38402,NaN,0.651108,9.635261,-2.063242,-0.003179,0.026110,0.062457,-0.004080,0.009091,-0.005367,0.362455,0.403252,-0.665221,-0.513317,102.166610,-3.912468,-114.392832
38403,NaN,0.653663,9.611104,-2.064025,0.000333,0.020045,0.039236,0.001409,0.004766,-0.005331,0.362443,0.403254,-0.665237,-0.513305,102.169159,-3.912653,-114.393776
38404,NaN,0.653298,9.611121,-2.064061,0.000107,0.020521,0.039235,0.000138,0.007032,-0.004802,0.362443,0.403270,-0.665241,-0.513287,102.171282,-3.912793,-114.392126
38405,NaN,0.664544,9.661085,-2.045007,-0.029916,0.025198,0.084722,-0.003650,0.005586,-0.006705,0.362441,0.403269,-0.665239,-0.513292,102.170890,-3.912307,-114.392444
38406,NaN,0.651525,9.612581,-2.097974,0.030898,0.009012,0.047670,-0.003092,0.009141,-0.008139,0.362445,0.403285,-0.665227,-0.513291,102.170573,-3.911280,-114.390437
38407,NaN,0.666306,9.637086,-2.045310,-0.026524,0.019647,0.061501,-0.001681,0.005715,-0.007545,0.362436,0.403290,-0.665229,-0.513291,102.171296,-3.910340,-114.390581
38408,NaN,0.616888,9.607329,-2.062308,0.013846,0.053400,0.032687,-0.002953,0.007981,-0.007016,0.362439,0.403300,-0.665222,-0.513290,102.171230,-3.909735,-114.389393
38409,NaN,0.649879,9.612833,-2.097328,0.030510,0.010609,0.047670,0.001964,0.008321,-0.006764,0.362433,0.403317,-0.665230,-0.513271,102.173949,-3.909547,-114.388168
38410,NaN,0.649404,9.612942,-2.096977,0.030333,0.011118,0.047670,-0.008429,0.004085,-0.005834,0.362435,0.403302,-0.665220,-0.513294,102.171085,-3.909049,-114.389447
38411,NaN,0.666482,9.614509,-2.079673,0.007573,0.002570,0.046722,0.001406,0.004766,-0.005329,0.362423,0.403304,-0.665235,-0.513281,102.173632,-3.909234,-114.390392
38412,NaN,0.628868,9.634666,-2.077634,0.018044,0.040450,0.063388,-0.010399,0.003954,-0.004994,0.362434,0.403288,-0.665219,-0.513307,102.169465,-3.909182,-114.391014
38413,NaN,0.648895,9.612136,-2.060725,-0.001085,0.025280,0.039224,-0.008430,0.004084,-0.005834,0.362439,0.403271,-0.665209,-0.513330,102.166399,-3.909002,-114.392280
38414,NaN,0.645473,9.636564,-2.058924,-0.004882,0.032422,0.062437,-0.008431,0.004084,-0.005834,0.362441,0.403257,-0.665199,-0.513353,102.163486,-3.908542,-114.393540
38415,NaN,0.682217,9.616746,-2.059688,-0.015630,-0.004416,0.045775,-0.007734,0.006480,-0.006145,0.362450,0.403249,-0.665186,-0.513369,102.160724,-3.908477,-114.393423
38416,NaN,0.667099,9.591270,-2.076869,0.010499,-0.001455,0.023508,-0.006603,0.005373,-0.007795,0.362450,0.403249,-0.665173,-0.513386,102.158653,-3.907104,-114.393404
38417,NaN,0.646932,9.612911,-2.057722,-0.001634,0.027392,0.039218,-0.006039,0.000738,-0.003307,0.362445,0.403221,-0.665180,-0.513402,102.157106,-3.907936,-114.396854
38418,NaN,0.663213,9.615799,-2.074749,0.006659,0.006244,0.046721,-0.004494,0.004345,-0.007513,0.362438,0.403217,-0.665176,-0.513416,102.156010,-3.906806,-114.397812
38419,NaN,0.645832,9.613195,-2.056739,-0.001839,0.028459,0.039215,-0.004494,0.004345,-0.007513,0.362431,0.403214,-0.665172,-0.513428,102.155175,-3.905717,-114.398728
38420,NaN,0.642289,9.637524,-2.055422,-0.005676,0.035594,0.062426,-0.002242,0.002159,-0.006109,0.362414,0.403211,-0.665180,-0.513433,102.156061,-3.904685,-114.400523
38421,NaN,0.681882,9.593369,-2.057834,-0.012808,-0.007885,0.022563,-0.000272,0.002290,-0.006948,0.362393,0.403209,-0.665192,-0.513434,102.157728,-3.903664,-114.402661
38422,NaN,0.626488,9.611950,-2.073258,0.020342,0.039125,0.040156,0.001697,0.002422,-0.007788,0.362359,0.403205,-0.665213,-0.513433,102.160610,-3.902164,-114.406090
38423,NaN,0.660817,9.614886,-2.039514,-0.025071,0.021524,0.038263,0.001697,0.002422,-0.007788,0.362332,0.403210,-0.665228,-0.513429,102.163394,-3.900689,-114.408054
38424,NaN,0.659406,9.616181,-2.074191,0.005789,0.009434,0.046719,0.002534,0.003660,-0.006977,0.362309,0.403219,-0.665243,-0.513418,102.166695,-3.899542,-114.409153
38425,NaN,0.641996,9.613461,-2.056697,-0.002698,0.031651,0.039205,-0.001111,0.001051,-0.007759,0.362283,0.403215,-0.665254,-0.513426,102.167922,-3.897917,-114.411888
38426,NaN,0.671879,9.643234,-2.090793,0.010228,-0.004538,0.077443,0.001118,0.007083,-0.007570,0.362272,0.403233,-0.665259,-0.513413,102.170362,-3.896796,-114.410974
38427,NaN,0.620254,9.636259,-2.072833,0.016030,0.048418,0.063356,0.003783,0.009611,-0.008720,0.362263,0.403263,-0.665264,-0.513389,102.174058,-3.895667,-114.408788
38428,NaN,0.653933,9.640508,-2.073490,0.001618,0.018192,0.069926,-0.001548,0.004554,-0.006419,0.362254,0.403265,-0.665268,-0.513389,102.174842,-3.895026,-114.409425
38429,NaN,0.601701,9.634867,-2.089734,0.038437,0.058538,0.064295,-0.000015,0.008189,-0.005919,0.362254,0.403275,-0.665272,-0.513375,102.176440,-3.895294,-114.408376
38430,NaN,0.653018,9.640615,-2.073282,0.001397,0.019253,0.069924,-0.000853,0.006950,-0.006730,0.362252,0.403284,-0.665273,-0.513369,102.177396,-3.894833,-114.407663
38431,NaN,0.655565,9.616499,-2.073934,0.004904,0.013145,0.046716,-0.004793,0.006686,-0.005051,0.362259,0.403278,-0.665269,-0.513373,102.176321,-3.895405,-114.407564
38432,NaN,0.637818,9.615137,-2.090458,0.027426,0.022729,0.047659,-0.003118,0.009162,-0.003429,0.362272,0.403274,-0.665270,-0.513365,102.176117,-3.897063,-114.406839
38433,NaN,0.658120,9.592570,-2.073723,0.008280,0.007558,0.023508,-0.011540,0.005050,-0.003345,0.362292,0.403246,-0.665256,-0.513392,102.171252,-3.898393,-114.407864
38434,NaN,0.637454,9.615493,-2.088932,0.027228,0.023775,0.047657,-0.003814,0.006765,-0.003118,0.362308,0.403241,-0.665254,-0.513388,102.170403,-3.899943,-114.407048
38435,NaN,0.655299,9.615787,-2.037043,-0.026549,0.027883,0.038244,-0.004499,0.004341,-0.007512,0.362300,0.403238,-0.665250,-0.513400,102.169565,-3.898854,-114.407967
38436,NaN,0.654867,9.615970,-2.036321,-0.026776,0.028378,0.038242,-0.010124,0.001627,-0.002752,0.362306,0.403210,-0.665245,-0.513425,102.166083,-3.899569,-114.410365
38437,NaN,0.634025,9.638913,-2.051471,-0.007871,0.044641,0.062388,-0.007022,0.000653,-0.005241,0.362297,0.403186,-0.665246,-0.513449,102.163959,-3.899306,-114.413629
38438,NaN,0.656281,9.593406,-2.070439,0.007600,0.010181,0.023506,-0.003520,0.004421,-0.005578,0.362287,0.403172,-0.665253,-0.513458,102.163739,-3.899268,-114.415954
38439,NaN,0.670249,9.619219,-2.052058,-0.018806,0.008344,0.045767,-0.005195,0.001944,-0.007201,0.362274,0.403160,-0.665253,-0.513476,102.162596,-3.898063,-114.418256
38440,NaN,0.653080,9.616569,-2.034064,-0.027289,0.030517,0.038234,-0.003817,0.006764,-0.003116,0.362287,0.403156,-0.665252,-0.513472,102.162082,-3.899427,-114.417533
38441,NaN,0.689329,9.598012,-2.069729,-0.007104,-0.018953,0.030096,-0.003379,0.003262,-0.004457,0.362282,0.403143,-0.665259,-0.513476,102.161953,-3.899918,-114.419427
38442,NaN,0.651618,9.617992,-2.068246,0.003454,0.018938,0.046707,0.005338,0.005032,-0.007000,0.362260,0.403163,-0.665277,-0.513452,102.166680,-3.898945,-114.419349
38443,NaN,0.634441,9.615218,-2.050820,-0.005003,0.041158,0.039169,-0.002542,0.004500,-0.003646,0.362259,0.403151,-0.665286,-0.513451,102.166990,-3.900040,-114.420646
38444,NaN,0.634033,9.615240,-2.050845,-0.005167,0.041657,0.039167,0.003919,0.008454,-0.007592,0.362249,0.403180,-0.665294,-0.513425,102.170932,-3.899051,-114.418524
38445,NaN,0.653277,9.593773,-2.069686,0.006673,0.013853,0.023502,0.004061,0.007295,-0.006470,0.362237,0.403197,-0.665309,-0.513400,102.174894,-3.898902,-114.417910
38446,NaN,0.652852,9.593704,-2.070143,0.006535,0.014351,0.023501,0.006317,0.005112,-0.005067,0.362219,0.403213,-0.665333,-0.513369,102.180220,-3.898991,-114.417984
38447,NaN,0.649471,9.617861,-2.069529,0.002786,0.021574,0.046702,0.002090,0.007162,-0.005632,0.362212,0.403223,-0.665345,-0.513350,102.183066,-3.899295,-114.417546
38448,NaN,0.645362,9.643366,-2.103202,0.030100,0.016106,0.078384,0.002090,0.007161,-0.005632,0.362214,0.403241,-0.665350,-0.513330,102.185397,-3.899486,-114.415579
38449,NaN,0.650978,9.594910,-2.105439,0.037230,0.003288,0.031983,0.004895,0.008533,-0.005658,0.362206,0.403260,-0.665366,-0.513299,102.189797,-3.899941,-114.414368
38450,NaN,0.627845,9.640586,-2.085896,0.021446,0.038825,0.070839,-0.005493,0.004285,-0.004741,0.362206,0.403251,-0.665365,-0.513308,102.188742,-3.899950,-114.415260
38451,NaN,0.664677,9.620740,-2.087103,0.010612,0.001981,0.054243,-0.000168,0.009343,-0.007035,0.362208,0.403268,-0.665364,-0.513294,102.190199,-3.899733,-114.413427
38452,NaN,0.646776,9.619372,-2.103681,0.033123,0.011528,0.055184,-0.006914,0.007705,-0.005333,0.362220,0.403262,-0.665353,-0.513305,102.187961,-3.900058,-114.412975
38453,NaN,0.629667,9.616711,-2.085684,0.024680,0.033748,0.047634,-0.001996,0.008052,-0.005076,0.362226,0.403265,-0.665355,-0.513296,102.188436,-3.900781,-114.412105
38454,NaN,0.666488,9.596924,-2.086650,0.013762,-0.003131,0.031045,-0.008588,0.005227,-0.006957,0.362227,0.403256,-0.665341,-0.513319,102.185556,-3.899758,-114.412870
38455,NaN,0.659881,9.645526,-2.084031,0.006388,0.010795,0.077441,-0.004505,0.004336,-0.007511,0.362220,0.403253,-0.665338,-0.513331,102.184715,-3.898668,-114.413791
38456,NaN,0.645610,9.618668,-2.066986,0.001585,0.026315,0.046690,-0.005495,0.004283,-0.004740,0.362218,0.403235,-0.665340,-0.513345,102.183254,-3.899090,-114.415879
38457,NaN,0.645029,9.618799,-2.066561,0.001464,0.026860,0.046689,-0.002679,0.005627,-0.009469,0.362206,0.403245,-0.665335,-0.513352,102.183394,-3.897059,-114.415838
38458,NaN,0.626873,9.617420,-2.083254,0.023995,0.036404,0.047627,-0.002940,-0.000243,-0.005798,0.362182,0.403226,-0.665348,-0.513366,102.183672,-3.896226,-114.419996
38459,NaN,0.647459,9.593550,-2.032180,-0.026148,0.033894,0.014994,-0.008735,0.006383,-0.008076,0.362189,0.403222,-0.665329,-0.513389,102.180324,-3.895067,-114.419699
38460,NaN,0.657715,9.644924,-2.047136,-0.025181,0.026121,0.068942,-0.002691,0.005655,-0.004765,0.362192,0.403220,-0.665330,-0.513388,102.180253,-3.895541,-114.419652
38461,NaN,0.660306,9.620791,-2.047908,-0.021678,0.019970,0.045744,-0.000866,0.006946,-0.006723,0.362188,0.403228,-0.665333,-0.513381,102.181404,-3.895207,-114.419203
38462,NaN,0.642231,9.619404,-2.064612,0.000837,0.029503,0.046681,-0.003961,0.007888,-0.008939,0.362185,0.403240,-0.665322,-0.513387,102.180842,-3.893523,-114.418208
38463,NaN,0.675892,9.623816,-2.064773,-0.013651,-0.000640,0.053303,-0.002290,0.010365,-0.007314,0.362194,0.403256,-0.665313,-0.513380,102.181042,-3.893273,-114.415768
38464,NaN,0.644119,9.595420,-2.064916,0.004150,0.023854,0.023484,-0.003126,0.009126,-0.008126,0.362195,0.403273,-0.665304,-0.513378,102.181084,-3.892059,-114.413880
38465,NaN,0.640555,9.619732,-2.063607,0.000405,0.031104,0.046676,-0.002292,0.010365,-0.007313,0.362204,0.403289,-0.665295,-0.513370,102.181283,-3.891808,-114.411440
38466,NaN,0.640201,9.619805,-2.063377,0.000277,0.031581,0.046675,-0.001168,0.009288,-0.004260,0.362221,0.403306,-0.665290,-0.513352,102.182058,-3.892762,-114.408148
38467,NaN,0.676434,9.601287,-2.099191,0.020375,-0.017938,0.038614,-0.001559,0.004549,-0.006414,0.362212,0.403305,-0.665296,-0.513351,102.182906,-3.892311,-114.409082
38468,NaN,0.639369,9.619923,-2.063085,-0.000032,0.032633,0.046672,-0.000034,0.008183,-0.005909,0.362210,0.403318,-0.665299,-0.513337,102.184753,-3.892211,-114.407877
38469,NaN,0.655627,9.622775,-2.080575,0.008141,0.011500,0.054239,0.000956,0.008236,-0.008678,0.362202,0.403339,-0.665300,-0.513325,102.186882,-3.890939,-114.406467
38470,NaN,0.655190,9.622797,-2.080613,0.007898,0.012023,0.054239,0.000945,0.008264,-0.003976,0.362197,0.403343,-0.665315,-0.513306,102.189628,-3.891892,-114.406476
38471,NaN,0.655491,9.621516,-2.046046,-0.023190,0.025248,0.045729,-0.001560,0.004548,-0.006414,0.362188,0.403343,-0.665321,-0.513305,102.190475,-3.891442,-114.407410
38472,NaN,0.671809,9.624420,-2.063292,-0.015060,0.004070,0.053301,-0.002841,0.006809,-0.005884,0.362190,0.403350,-0.665318,-0.513303,102.190594,-3.891227,-114.406480
38473,NaN,0.637105,9.620154,-2.062705,-0.000794,0.035292,0.046662,0.001934,0.008317,-0.006744,0.362185,0.403366,-0.665325,-0.513284,102.193298,-3.891047,-114.405258
38474,NaN,0.654090,9.621715,-2.045560,-0.023618,0.026820,0.045724,-0.004220,0.002016,-0.005270,0.362172,0.403349,-0.665332,-0.513297,102.192807,-3.890743,-114.408097
38475,NaN,0.653576,9.621824,-2.045210,-0.023739,0.027367,0.045722,-0.002940,-0.000245,-0.005799,0.362151,0.403332,-0.665344,-0.513310,102.193052,-3.890056,-114.411796
38476,NaN,0.638576,9.596212,-2.062959,0.002403,0.030136,0.023467,-0.001707,0.005704,-0.007533,0.362144,0.403344,-0.665343,-0.513308,102.193849,-3.888780,-114.411255
38477,NaN,0.616901,9.620289,-2.113396,0.052299,0.033703,0.056107,0.000699,0.002368,-0.005009,0.362126,0.403337,-0.665361,-0.513302,102.196086,-3.888851,-114.413583
38478,NaN,0.671309,9.601938,-2.097860,0.018700,-0.012187,0.038626,-0.000437,0.003471,-0.003360,0.362120,0.403332,-0.665374,-0.513293,102.197618,-3.889664,-114.414597
38479,NaN,0.654166,9.599182,-2.080153,0.010299,0.010037,0.031045,-0.003532,0.004411,-0.005577,0.362116,0.403325,-0.665376,-0.513298,102.197348,-3.889665,-114.415709
38480,NaN,0.671172,9.600817,-2.062675,-0.012511,0.001566,0.030109,-0.005649,0.005433,-0.005860,0.362119,0.403318,-0.665370,-0.513310,102.195784,-3.889460,-114.416161
38481,NaN,0.650336,9.623645,-2.078210,0.006426,0.017825,0.054231,-0.003292,0.010307,-0.004541,0.362136,0.403323,-0.665365,-0.513300,102.195435,-3.890755,-114.414090
38482,NaN,0.649934,9.623707,-2.078048,0.006321,0.018309,0.054230,0.001096,0.007078,-0.007555,0.362133,0.403347,-0.665363,-0.513286,102.197457,-3.889689,-114.411873
38483,NaN,0.650344,9.622443,-2.043329,-0.024755,0.031554,0.045707,-0.004826,0.006700,-0.000345,0.362153,0.403326,-0.665369,-0.513281,102.196402,-3.892897,-114.412335
38484,NaN,0.669402,9.602497,-2.095910,0.017889,-0.009045,0.038631,-0.002157,0.009203,-0.006189,0.362156,0.403336,-0.665367,-0.513273,102.197080,-3.892785,-114.410994
38485,NaN,0.655342,9.575529,-2.079196,0.013118,0.006444,0.007857,-0.001178,0.009284,-0.004256,0.362167,0.403342,-0.665370,-0.513258,102.197984,-3.894115,-114.409531
38486,NaN,0.665683,9.626827,-2.094545,0.013998,-0.001225,0.061818,-0.000876,0.006942,-0.006718,0.362157,0.403343,-0.665377,-0.513255,102.199235,-3.893708,-114.410256
38487,NaN,0.651428,9.599874,-2.077820,0.009231,0.014263,0.031041,-0.002993,0.007963,-0.007002,0.362160,0.403351,-0.665372,-0.513254,102.199127,-3.893340,-114.409202
38488,NaN,0.647262,9.625517,-2.110971,0.036409,0.008806,0.062753,-0.003535,0.004410,-0.005576,0.362154,0.403345,-0.665374,-0.513259,102.198927,-3.893107,-114.410283
38489,NaN,0.633714,9.597223,-2.059751,0.000698,0.037001,0.023444,-0.000731,0.005784,-0.005598,0.362149,0.403346,-0.665381,-0.513252,102.200210,-3.893262,-114.410622
38490,NaN,0.681319,9.628712,-2.076362,-0.009260,-0.008058,0.060884,-0.005506,0.004273,-0.004741,0.362145,0.403328,-0.665385,-0.513265,102.199047,-3.893532,-114.412869
38491,NaN,0.626125,9.647165,-2.091563,0.024115,0.038852,0.078338,-0.001565,0.004545,-0.006411,0.362135,0.403328,-0.665390,-0.513265,102.199892,-3.893082,-114.413804
38492,NaN,0.646190,9.624576,-2.075192,0.004812,0.023661,0.054220,-0.004819,0.006669,-0.005046,0.362135,0.403321,-0.665391,-0.513269,102.199345,-3.893256,-114.414488
38493,NaN,0.645697,9.624736,-2.074602,0.004690,0.024207,0.054218,-0.006633,0.005347,-0.007793,0.362135,0.403318,-0.665380,-0.513287,102.197245,-3.892129,-114.414806
38494,NaN,0.645113,9.624890,-2.074071,0.004509,0.024736,0.054217,-0.003683,0.005565,-0.006695,0.362125,0.403314,-0.665381,-0.513294,102.197111,-3.891418,-114.416041
38495,NaN,0.647652,9.600809,-2.074677,0.008007,0.018531,0.031035,-0.003684,0.005565,-0.006695,0.362123,0.403313,-0.665379,-0.513299,102.196702,-3.890931,-114.416370
38496,NaN,0.678448,9.629463,-2.073818,-0.010223,-0.004843,0.060885,-0.001871,0.006886,-0.003948,0.362125,0.403310,-0.665386,-0.513292,102.197474,-3.891888,-114.416531
38497,NaN,0.666691,9.579658,-2.092507,0.019584,-0.008847,0.015458,-0.003978,0.007878,-0.008933,0.362124,0.403322,-0.665374,-0.513297,102.196790,-3.890428,-114.415290
38498,NaN,0.663642,9.602655,-2.056547,-0.015124,0.011169,0.030099,-0.004430,0.011376,-0.007589,0.362135,0.403333,-0.665362,-0.513298,102.195847,-3.890022,-114.413168
38499,NaN,0.662437,9.604037,-2.091059,0.015690,-0.001016,0.038639,0.006402,0.012141,-0.009830,0.362126,0.403378,-0.665367,-0.513262,102.200940,-3.888576,-114.409426
38500,NaN,0.625045,9.622504,-2.055421,-0.004553,0.049608,0.046600,0.000941,0.008232,-0.008669,0.362120,0.403405,-0.665364,-0.513249,102.203045,-3.887012,-114.407174
38501,NaN,0.626950,9.599667,-2.090998,0.029880,0.030660,0.031961,0.001920,0.008315,-0.006736,0.362115,0.403421,-0.665372,-0.513230,102.205741,-3.886836,-114.405955
38502,NaN,0.657641,9.628245,-2.090561,0.011592,0.007284,0.061818,0.001920,0.008314,-0.006735,0.362107,0.403443,-0.665378,-0.513209,102.208811,-3.886201,-114.404388
38503,NaN,0.660197,9.604063,-2.091650,0.015087,0.001066,0.038640,0.001087,0.007075,-0.007549,0.362098,0.403457,-0.665384,-0.513197,102.211070,-3.885419,-114.403766
38504,NaN,0.659665,9.604061,-2.091823,0.014983,0.001572,0.038640,0.003352,0.004899,-0.006145,0.362083,0.403470,-0.665399,-0.513179,102.214527,-3.885005,-114.403903
38505,NaN,0.641815,9.602538,-2.109002,0.037557,0.011061,0.039572,0.000632,0.010572,-0.006206,0.362089,0.403488,-0.665400,-0.513159,102.216404,-3.885399,-114.401481
38506,NaN,0.675696,9.606965,-2.109347,0.022832,-0.019069,0.046257,-0.001275,0.002229,-0.004171,0.362072,0.403479,-0.665416,-0.513157,102.218139,-3.885369,-114.403979
38507,NaN,0.641619,9.601335,-2.074117,0.006247,0.024846,0.031022,-0.004437,0.011371,-0.007589,0.362087,0.403494,-0.665400,-0.513155,102.217070,-3.885086,-114.400940
38508,NaN,0.661039,9.580128,-2.092145,0.018013,-0.003098,0.015465,-0.003004,0.007956,-0.006999,0.362093,0.403504,-0.665392,-0.513154,102.216659,-3.884649,-114.399438
38509,NaN,0.620161,9.624204,-2.089548,0.025127,0.041612,0.055126,-0.000055,0.008176,-0.005900,0.362094,0.403514,-0.665396,-0.513141,102.218236,-3.884925,-114.398397
38510,NaN,0.637166,9.625774,-2.072422,0.002318,0.033201,0.054193,-0.000739,0.005780,-0.005595,0.362087,0.403513,-0.665404,-0.513136,102.219407,-3.885017,-114.399121
38511,NaN,0.654065,9.627369,-2.055221,-0.020504,0.024811,0.053260,-0.001719,0.005697,-0.007528,0.362078,0.403518,-0.665405,-0.513136,102.220111,-3.884079,-114.399275
38512,NaN,0.656116,9.604555,-2.090671,0.013838,0.005790,0.038640,0.001527,0.003605,-0.004190,0.362063,0.403517,-0.665425,-0.513122,102.223091,-3.884369,-114.400853
38513,NaN,0.673078,9.606155,-2.073440,-0.008987,-0.002599,0.037709,-0.005058,0.000768,-0.006085,0.362048,0.403500,-0.665429,-0.513141,102.222082,-3.883641,-114.403948
38514,NaN,0.655172,9.604748,-2.090082,0.013543,0.006860,0.038640,-0.002859,0.006799,-0.005880,0.362045,0.403498,-0.665431,-0.513141,102.222325,-3.883556,-114.404383
38515,NaN,0.657830,9.580663,-2.090709,0.017037,0.000623,0.015467,-0.004227,0.002008,-0.005271,0.362035,0.403483,-0.665437,-0.513153,102.221751,-3.883435,-114.406882
38516,NaN,0.654858,9.603622,-2.054848,-0.017657,0.020669,0.030079,-0.002860,0.006798,-0.005879,0.362036,0.403487,-0.665435,-0.513151,102.221864,-3.883267,-114.406253
38517,NaN,0.637079,9.602177,-2.071616,0.004926,0.030140,0.031008,-0.002029,0.008038,-0.005064,0.362043,0.403490,-0.665436,-0.513143,102.222323,-3.883993,-114.405393
38518,NaN,0.670381,9.608023,-2.106221,0.021258,-0.012722,0.046271,-0.002861,0.006798,-0.005879,0.362047,0.403493,-0.665433,-0.513142,102.222110,-3.884022,-114.404762
38519,NaN,0.653212,9.605247,-2.088400,0.012923,0.009509,0.038638,-0.004001,0.007899,-0.004231,0.362059,0.403489,-0.665431,-0.513139,102.221451,-3.885198,-114.404080
38520,NaN,0.636055,9.602440,-2.070712,0.004482,0.031713,0.031003,-0.000060,0.008175,-0.005897,0.362053,0.403500,-0.665438,-0.513126,102.223543,-3.885065,-114.403545
38521,NaN,0.670049,9.606926,-2.070846,-0.010140,0.001649,0.037708,-0.004387,0.003192,-0.001690,0.362056,0.403475,-0.665449,-0.513129,102.222863,-3.887093,-114.405814
38522,NaN,0.615066,9.625296,-2.086020,0.023230,0.048485,0.055100,-0.005516,0.004264,-0.004742,0.362051,0.403461,-0.665451,-0.513140,102.221953,-3.887159,-114.407723
38523,NaN,0.649225,9.629849,-2.085798,0.008604,0.018423,0.061807,-0.006133,0.008946,0.000184,0.362082,0.403441,-0.665451,-0.513134,102.220070,-3.890934,-114.406991
38524,NaN,0.689780,9.586011,-2.087539,0.001118,-0.025264,0.022178,-0.006359,0.003054,-0.000856,0.362089,0.403414,-0.665458,-0.513142,102.218629,-3.892993,-114.409218
38525,NaN,0.652379,9.605925,-2.085543,0.011888,0.012678,0.038636,-0.005825,0.006605,-0.002278,0.362105,0.403397,-0.665458,-0.513144,102.216991,-3.895105,-114.409500
38526,NaN,0.651691,9.607457,-2.119295,0.042573,0.000391,0.047208,-0.008777,0.006383,-0.003379,0.362123,0.403386,-0.665445,-0.513156,102.214064,-3.896054,-114.409050
38527,NaN,0.655209,9.582078,-2.085038,0.015157,0.006914,0.015467,-0.006508,0.004209,-0.001975,0.362134,0.403361,-0.665448,-0.513165,102.212128,-3.898046,-114.410713
38528,NaN,0.666202,9.632146,-2.065310,-0.014887,0.012136,0.060873,-0.006124,0.008916,-0.004514,0.362150,0.403353,-0.665440,-0.513170,102.210070,-3.899168,-114.410009
38529,NaN,0.668977,9.608184,-2.065349,-0.011395,0.005881,0.037705,-0.013243,0.002525,-0.004991,0.362161,0.403321,-0.665422,-0.513210,102.204315,-3.899266,-114.412251
38530,NaN,0.614453,9.625315,-2.045430,-0.008766,0.065467,0.046504,-0.009461,0.003986,-0.003075,0.362180,0.403301,-0.665409,-0.513230,102.200369,-3.900454,-114.412634
38531,NaN,0.647837,9.631307,-2.079491,0.007495,0.022633,0.061799,-0.006883,-0.000527,-0.004135,0.362170,0.403270,-0.665415,-0.513253,102.198381,-3.900663,-114.416693
38532,NaN,0.636372,9.581567,-2.097897,0.037197,0.018446,0.016394,-0.007342,0.002968,-0.002789,0.362168,0.403242,-0.665421,-0.513270,102.196584,-3.901652,-114.419851
38533,NaN,0.667146,9.610365,-2.096541,0.018933,-0.004796,0.046283,-0.007032,0.000628,-0.005253,0.362159,0.403217,-0.665422,-0.513294,102.194458,-3.901374,-114.423126
38534,NaN,0.670462,9.584943,-2.062468,-0.008629,0.001704,0.014537,-0.005222,0.001951,-0.002504,0.362149,0.403190,-0.665436,-0.513304,102.194083,-3.902293,-114.426802
38535,NaN,0.650123,9.606333,-2.043648,-0.020549,0.030751,0.030047,-0.002258,0.002145,-0.006103,0.362133,0.403181,-0.665445,-0.513310,102.194628,-3.901723,-114.429123
38536,NaN,0.669100,9.586529,-2.096301,0.021952,-0.010054,0.023121,-0.003399,0.003246,-0.004454,0.362129,0.403175,-0.665449,-0.513313,102.194742,-3.901765,-114.430169
38537,NaN,0.662440,9.634965,-2.094149,0.014600,0.004117,0.069449,0.001907,0.008314,-0.006724,0.362124,0.403192,-0.665456,-0.513294,102.197432,-3.901594,-114.428951
38538,NaN,0.665165,9.610837,-2.095004,0.018043,-0.002195,0.046286,-0.004158,0.009053,-0.005344,0.362137,0.403199,-0.665447,-0.513290,102.196779,-3.901951,-114.426965
38539,NaN,0.664764,9.610924,-2.094733,0.017919,-0.001651,0.046286,-0.000215,0.009331,-0.007009,0.362139,0.403216,-0.665447,-0.513277,102.198212,-3.901743,-114.425142
38540,NaN,0.647554,9.608068,-2.077157,0.009569,0.020567,0.038625,-0.001888,0.006880,-0.003940,0.362139,0.403210,-0.665455,-0.513270,102.199030,-3.902740,-114.425699
38541,NaN,0.664569,9.609659,-2.059903,-0.013273,0.012223,0.037697,-0.000897,0.006935,-0.006706,0.362135,0.403218,-0.665458,-0.513263,102.200167,-3.902412,-114.425258
38542,NaN,0.660491,9.635314,-2.093161,0.013790,0.006721,0.069449,-0.002720,0.005640,-0.004756,0.362137,0.403224,-0.665457,-0.513258,102.200664,-3.902460,-114.424452
38543,NaN,0.628493,9.608130,-2.128157,0.062721,0.018214,0.048141,-0.000067,0.008174,-0.005890,0.362138,0.403234,-0.665462,-0.513244,102.202236,-3.902739,-114.423413
38544,NaN,0.679985,9.612832,-2.076604,-0.005628,-0.007942,0.045360,-0.005661,0.005388,-0.010556,0.362129,0.403248,-0.665444,-0.513262,102.200886,-3.899674,-114.422698
38545,NaN,0.661947,9.611422,-2.093338,0.016970,0.001486,0.046288,-0.000749,0.005779,-0.005588,0.362124,0.403249,-0.665452,-0.513255,102.202161,-3.899831,-114.423040
38546,NaN,0.665106,9.585882,-2.059838,-0.010533,0.007994,0.014533,0.001072,0.007074,-0.007537,0.362107,0.403262,-0.665462,-0.513244,102.204919,-3.898696,-114.423244
38547,NaN,0.658215,9.634311,-2.057758,-0.017882,0.022196,0.060851,-0.000520,0.011640,-0.009242,0.362111,0.403291,-0.665452,-0.513231,102.206072,-3.897517,-114.419853
38548,NaN,0.643431,9.608701,-2.075510,0.008205,0.024752,0.038617,-0.005674,0.005414,-0.005857,0.362109,0.403287,-0.665448,-0.513240,102.205119,-3.896972,-114.420420
38549,NaN,0.657756,9.633124,-2.022613,-0.049139,0.036070,0.052249,0.000609,0.010568,-0.006190,0.362115,0.403305,-0.665449,-0.513220,102.206985,-3.897373,-114.418002
38550,NaN,0.622662,9.630104,-2.056655,-0.003923,0.054327,0.054099,-0.002043,0.008033,-0.005057,0.362118,0.403313,-0.665450,-0.513211,102.207937,-3.897614,-114.417014
38551,NaN,0.625475,9.605994,-2.057406,-0.000431,0.048038,0.030938,-0.002723,0.005637,-0.004755,0.362118,0.403308,-0.665455,-0.513209,102.208094,-3.898220,-114.417537
38552,NaN,0.658731,9.611901,-2.092155,0.015725,0.005163,0.046288,0.001833,0.001267,-0.006648,0.362089,0.403308,-0.665474,-0.513205,102.211115,-3.896989,-114.420175
38553,NaN,0.661784,9.586358,-2.058690,-0.011667,0.011693,0.014528,-0.001053,0.008088,-0.007821,0.362086,0.403322,-0.665472,-0.513198,102.212110,-3.896175,-114.418950
38554,NaN,0.637015,9.634652,-2.108130,0.034538,0.021923,0.070371,-0.000289,0.002282,-0.006933,0.362063,0.403322,-0.665484,-0.513199,102.213978,-3.894837,-114.420931
38555,NaN,0.677959,9.587956,-2.041717,-0.034696,0.003880,0.013600,0.005313,0.005042,-0.006963,0.362040,0.403337,-0.665505,-0.513175,102.218744,-3.894134,-114.421521
38556,NaN,0.622260,9.607507,-2.092163,0.029653,0.037801,0.039533,-0.000603,0.004621,-0.004469,0.362034,0.403343,-0.665513,-0.513165,102.220551,-3.894204,-114.421464
38557,NaN,0.673452,9.613574,-2.075297,-0.007781,-0.001078,0.045362,-0.000226,0.009327,-0.007005,0.362036,0.403359,-0.665512,-0.513151,102.221980,-3.893998,-114.419644
38558,NaN,0.658638,9.587869,-2.093481,0.018429,0.001457,0.023133,0.002888,0.008367,-0.009483,0.362022,0.403387,-0.665516,-0.513135,102.225183,-3.892126,-114.418040
38559,NaN,0.655362,9.610692,-2.058034,-0.016181,0.021681,0.037677,-0.000227,0.009326,-0.007004,0.362024,0.403404,-0.665515,-0.513122,102.226612,-3.891920,-114.416220
38560,NaN,0.637400,9.609187,-2.075121,0.006359,0.031085,0.038600,0.001442,0.011776,-0.010069,0.362013,0.403432,-0.665515,-0.513107,102.229248,-3.890125,-114.414218
38561,NaN,0.653223,9.613561,-2.126990,0.045248,-0.002905,0.054900,-0.000755,0.005775,-0.005586,0.362008,0.403433,-0.665523,-0.513100,102.230521,-3.890282,-114.414563
38562,NaN,0.619053,9.607671,-2.092364,0.028778,0.041009,0.039522,0.005372,0.012085,-0.007032,0.362002,0.403465,-0.665535,-0.513064,102.235381,-3.890130,-114.411929
38563,NaN,0.669691,9.615109,-2.110179,0.022195,-0.010693,0.053977,-0.001585,0.004535,-0.006402,0.361992,0.403464,-0.665540,-0.513064,102.236219,-3.889679,-114.412871
38564,NaN,0.652669,9.610811,-2.058335,-0.017009,0.024372,0.037669,0.003561,0.010760,-0.009781,0.361978,0.403498,-0.665545,-0.513041,102.240102,-3.887812,-114.410643
38565,NaN,0.668510,9.615164,-2.110303,0.021868,-0.009625,0.053979,-0.000757,0.005774,-0.005586,0.361973,0.403499,-0.665552,-0.513034,102.241374,-3.887969,-114.410990
38566,NaN,0.667974,9.615210,-2.110263,0.021734,-0.009103,0.053980,0.000911,0.008224,-0.008650,0.361963,0.403519,-0.665554,-0.513024,102.243474,-3.886573,-114.409802
38567,NaN,0.630495,9.633571,-2.074325,0.001741,0.041692,0.061739,-0.002881,0.006787,-0.005872,0.361965,0.403520,-0.665553,-0.513022,102.243489,-3.886692,-114.409545
38568,NaN,0.650052,9.612395,-2.092598,0.013296,0.013665,0.046284,0.001062,0.007069,-0.007532,0.361950,0.403532,-0.665562,-0.513012,102.246024,-3.885690,-114.409677
38569,NaN,0.650038,9.611034,-2.058124,-0.017691,0.027062,0.037661,0.000594,0.010562,-0.006186,0.361956,0.403550,-0.665563,-0.512992,102.247884,-3.886092,-114.407263
38570,NaN,0.666446,9.614012,-2.075531,-0.009705,0.005868,0.045359,0.001061,0.007068,-0.007532,0.361949,0.403570,-0.665565,-0.512979,102.250113,-3.885054,-114.405878
38571,NaN,0.648422,9.612499,-2.092627,0.012909,0.015253,0.046282,-0.000596,0.004588,-0.009166,0.361930,0.403581,-0.665568,-0.512980,102.251493,-3.883062,-114.406454
38572,NaN,0.648252,9.611208,-2.057877,-0.018100,0.028626,0.037655,-0.004235,0.001997,-0.005272,0.361919,0.403567,-0.665573,-0.512992,102.250982,-3.882715,-114.408862
38573,NaN,0.627738,9.632524,-2.039214,-0.029951,0.057737,0.053098,-0.000760,0.005772,-0.005585,0.361914,0.403568,-0.665580,-0.512985,102.252253,-3.882871,-114.409209
38574,NaN,0.681558,9.615884,-2.057708,-0.032970,-0.000867,0.044433,-0.002264,0.002137,-0.006102,0.361902,0.403566,-0.665584,-0.512990,102.252686,-3.882033,-114.410395
38575,NaN,0.646294,9.612845,-2.091694,0.012388,0.017349,0.046279,-0.002416,0.003292,-0.007218,0.361888,0.403564,-0.665589,-0.512996,102.253089,-3.880973,-114.411935
38576,NaN,0.645708,9.612961,-2.091347,0.012212,0.017844,0.046279,-0.004388,0.003150,-0.006389,0.361881,0.403561,-0.665587,-0.513006,102.252534,-3.879983,-114.412841
38577,NaN,0.665152,9.591841,-2.109466,0.023811,-0.010184,0.030840,-0.001121,0.001038,-0.007748,0.361855,0.403557,-0.665597,-0.513014,102.253760,-3.878353,-114.415581
38578,NaN,0.682051,9.593498,-2.092084,0.000981,-0.018492,0.029918,-0.003878,0.006729,-0.003108,0.361866,0.403546,-0.665599,-0.513013,102.252978,-3.879999,-114.415748
38579,NaN,0.664371,9.591983,-2.109068,0.023599,-0.009120,0.030841,0.002407,0.011857,-0.008129,0.361868,0.403577,-0.665598,-0.512987,102.255812,-3.879471,-114.412370
38580,NaN,0.677992,9.617793,-2.090834,-0.002945,-0.010572,0.053065,-0.003040,0.007938,-0.006988,0.361871,0.403591,-0.665591,-0.512984,102.255924,-3.878705,-114.410679
38581,NaN,0.646521,9.589167,-2.091314,0.015176,0.013617,0.023129,-0.001538,0.011573,-0.006470,0.361885,0.403608,-0.665584,-0.512970,102.256521,-3.879071,-114.407662
38582,NaN,0.625654,9.611846,-2.107208,0.034143,0.029824,0.047196,-0.001386,0.010418,-0.005353,0.361897,0.403625,-0.665579,-0.512954,102.257406,-3.879598,-114.404940
38583,NaN,0.640402,9.634860,-2.019910,-0.054031,0.054179,0.052140,-0.000560,0.011658,-0.004535,0.361913,0.403638,-0.665579,-0.512933,102.258577,-3.881058,-114.402111
38584,NaN,0.626024,9.609156,-2.037891,-0.027874,0.056620,0.029914,-0.001388,0.010418,-0.005352,0.361925,0.403655,-0.665575,-0.512916,102.259608,-3.881494,-114.399327
38585,NaN,0.656874,9.637906,-2.037050,-0.046248,0.033532,0.059851,0.001195,0.005943,-0.001715,0.361926,0.403648,-0.665595,-0.512896,102.262024,-3.883837,-114.400050
38586,NaN,0.639341,9.636316,-2.054318,-0.023744,0.042849,0.060770,0.002708,0.009546,-0.005893,0.361923,0.403673,-0.665602,-0.512868,102.265654,-3.883732,-114.397709
38587,NaN,0.658953,9.615122,-2.072778,-0.012161,0.014808,0.045347,-0.000294,0.002277,-0.006930,0.361902,0.403671,-0.665614,-0.512869,102.267314,-3.882709,-114.399853
38588,NaN,0.675494,9.618112,-2.090171,-0.004223,-0.006381,0.053068,0.001715,0.009491,-0.003130,0.361910,0.403681,-0.665625,-0.512841,102.269976,-3.884431,-114.398148
38589,NaN,0.641142,9.613583,-2.089889,0.010307,0.024677,0.046266,-0.001757,0.005714,-0.002820,0.361914,0.403671,-0.665636,-0.512833,102.270701,-3.886128,-114.398865
38590,NaN,0.675487,9.616798,-2.055437,-0.035322,0.007573,0.044422,-0.001439,0.003375,-0.005284,0.361902,0.403664,-0.665646,-0.512833,102.271653,-3.886019,-114.400676
38591,NaN,0.634893,9.659311,-2.018331,-0.058842,0.065309,0.075250,-0.005383,0.003091,-0.003627,0.361902,0.403643,-0.665650,-0.512844,102.270394,-3.886944,-114.402766
38592,NaN,0.634320,9.660825,-2.052321,-0.028203,0.052942,0.083894,-0.004923,-0.000370,-0.000277,0.361893,0.403604,-0.665671,-0.512854,102.269926,-3.888993,-114.407624
38593,NaN,0.623037,9.611102,-2.070610,0.001640,0.048501,0.038532,-0.013613,-0.002241,-0.007174,0.361883,0.403567,-0.665657,-0.512909,102.264126,-3.887283,-114.412273
38594,NaN,0.635298,9.641465,-2.154321,0.067672,0.008435,0.086702,-0.020723,-0.008611,-0.002975,0.361875,0.403484,-0.665645,-0.512995,102.254492,-3.887062,-114.421471
38595,NaN,0.675503,9.598153,-2.154548,0.060090,-0.035329,0.047235,-0.023372,-0.011149,-0.001847,0.361868,0.403389,-0.665633,-0.513091,102.243483,-3.887253,-114.431769
38596,NaN,0.678292,9.574476,-2.153478,0.063553,-0.041686,0.024099,-0.021507,-0.002813,-0.003857,0.361873,0.403315,-0.665612,-0.513171,102.233300,-3.887334,-114.438752
38597,NaN,0.695223,9.576548,-2.134211,0.040671,-0.049947,0.023182,-0.023482,-0.002957,-0.003027,0.361892,0.403245,-0.665582,-0.513253,102.221905,-3.887863,-114.444310
38598,NaN,0.674733,9.598266,-2.113505,0.028814,-0.020813,0.038587,-0.024418,0.003997,-0.005024,0.361924,0.403193,-0.665536,-0.513330,102.209907,-3.887939,-114.446562
38599,NaN,0.654613,9.618496,-2.058451,-0.013824,0.021244,0.045333,-0.019648,0.005523,-0.005863,0.361956,0.403161,-0.665495,-0.513387,102.200364,-3.887909,-114.447015
38600,NaN,0.653909,9.620374,-2.091045,0.016883,0.008882,0.053989,-0.018622,0.012648,-0.003991,0.362008,0.403135,-0.665452,-0.513426,102.191160,-3.889788,-114.444885
38601,NaN,0.674732,9.596610,-2.039059,-0.033223,0.006634,0.021274,-0.008923,0.014548,-0.004554,0.362051,0.403141,-0.665424,-0.513427,102.187429,-3.891583,-114.440431
38602,NaN,0.654551,9.617953,-2.019818,-0.045186,0.035768,0.036668,-0.006489,0.011227,-0.002036,0.362076,0.403135,-0.665419,-0.513421,102.186051,-3.893843,-114.438892
38603,NaN,0.637623,9.614992,-2.002219,-0.053376,0.058018,0.028923,0.003057,0.014283,-0.003713,0.362096,0.403158,-0.665424,-0.513381,102.189201,-3.896077,-114.434689
38604,NaN,0.653912,9.619439,-2.054262,-0.014608,0.023921,0.045325,0.002704,0.009552,-0.005882,0.362095,0.403178,-0.665432,-0.513356,102.192269,-3.896371,-114.432797
38605,NaN,0.671279,9.619441,-2.003186,-0.068315,0.028599,0.035741,0.010430,0.011309,-0.005614,0.362086,0.403214,-0.665458,-0.513301,102.199740,-3.897181,-114.430033
38606,NaN,0.639479,9.591950,-2.039605,-0.019384,0.039748,0.014442,0.013030,0.006807,-0.006678,0.362054,0.403254,-0.665494,-0.513246,102.209119,-3.896412,-114.428770
38607,NaN,0.652198,9.620329,-2.091787,0.015776,0.012588,0.053987,0.016975,0.007094,-0.008333,0.362011,0.403300,-0.665539,-0.513182,102.220479,-3.895189,-114.428042
38608,NaN,0.651590,9.620064,-2.093198,0.015602,0.013097,0.053987,0.013545,0.010354,-0.008089,0.361984,0.403351,-0.665568,-0.513122,102.229934,-3.894191,-114.425268
38609,NaN,0.668335,9.621382,-2.077387,-0.007284,0.004861,0.053067,0.015670,0.009343,-0.007800,0.361952,0.403398,-0.665607,-0.513057,102.240466,-3.893539,-114.423342
38610,NaN,0.667748,9.621189,-2.078467,-0.007536,0.005352,0.053067,0.007945,0.007584,-0.008070,0.361927,0.403437,-0.665626,-0.513019,102.247179,-3.891927,-114.421587
38611,NaN,0.670468,9.596961,-2.079912,-0.004057,-0.001028,0.029934,0.001355,0.004759,-0.005290,0.361915,0.403439,-0.665642,-0.513007,102.249705,-3.892124,-114.422539
38612,NaN,0.649270,9.619557,-2.096246,0.014975,0.015185,0.053985,0.004011,0.007267,-0.011110,0.361892,0.403474,-0.665645,-0.512991,102.253546,-3.889186,-114.420963
38613,NaN,0.648225,9.621031,-2.130749,0.045668,0.002799,0.062657,-0.002900,0.006778,-0.005866,0.361894,0.403475,-0.665645,-0.512989,102.253551,-3.889306,-114.420711
38614,NaN,0.664769,9.624139,-2.147775,0.053622,-0.018369,0.070414,-0.002746,0.005625,-0.004750,0.361892,0.403464,-0.665651,-0.512991,102.253537,-3.889951,-114.422045
38615,NaN,0.647784,9.619822,-2.095489,0.014632,0.016811,0.053982,-0.005854,0.006547,-0.006972,0.361896,0.403463,-0.665641,-0.513002,102.251850,-3.889423,-114.421788
38616,NaN,0.650550,9.595780,-2.096065,0.018136,0.010388,0.030852,-0.002901,0.006778,-0.005865,0.361901,0.403467,-0.665637,-0.513001,102.251637,-3.889423,-114.420918
38617,NaN,0.647248,9.618641,-2.060102,-0.016404,0.030801,0.045303,-0.005029,0.007787,-0.006153,0.361909,0.403468,-0.665629,-0.513005,102.250382,-3.889505,-114.420065
38618,NaN,0.670213,9.573408,-2.079207,-0.001322,-0.004238,0.006804,-0.000259,0.009316,-0.006988,0.361905,0.403479,-0.665632,-0.512994,102.252007,-3.889153,-114.419257
38619,NaN,0.632146,9.592982,-2.078170,0.009678,0.033710,0.023088,0.004988,0.007354,-0.009173,0.361884,0.403507,-0.665644,-0.512972,102.256483,-3.887492,-114.418279
38620,NaN,0.686286,9.574971,-2.062546,-0.024375,-0.011941,0.005887,0.002655,0.002508,-0.005819,0.361859,0.403507,-0.665666,-0.512961,102.259959,-3.886902,-114.420565
38621,NaN,0.644683,9.620098,-2.095179,0.013836,0.020005,0.053978,0.005967,0.007440,-0.007238,0.361841,0.403531,-0.665684,-0.512931,102.265008,-3.886334,-114.419774
38622,NaN,0.661827,9.620174,-2.044054,-0.039868,0.024721,0.044377,0.006121,0.006286,-0.006122,0.361820,0.403545,-0.665709,-0.512903,102.270176,-3.886166,-114.420220
38623,NaN,0.664317,9.597356,-2.080062,-0.005584,0.005376,0.029932,0.004818,0.008536,-0.005592,0.361813,0.403564,-0.665725,-0.512872,102.274539,-3.886653,-114.419016
38624,NaN,0.640522,9.642612,-2.061099,-0.020959,0.041499,0.068416,0.005486,0.010929,-0.005888,0.361809,0.403589,-0.665740,-0.512836,102.279234,-3.887138,-114.416857
38625,NaN,0.626167,9.616843,-2.079406,0.005292,0.043853,0.046203,-0.002081,0.008015,-0.005046,0.361815,0.403591,-0.665741,-0.512828,102.279669,-3.887867,-114.416012
38626,NaN,0.659751,9.622883,-2.114167,0.021124,0.000939,0.061745,0.005640,0.009776,-0.004772,0.361810,0.403618,-0.665758,-0.512788,102.284913,-3.888476,-114.413756
38627,NaN,0.642422,9.619817,-2.097160,0.012970,0.023189,0.053972,0.002376,0.011850,-0.008110,0.361812,0.403649,-0.665757,-0.512763,102.287730,-3.887957,-114.410385
38628,NaN,0.659040,9.622942,-2.114123,0.020884,0.002006,0.061745,-0.008668,0.005188,-0.002272,0.361829,0.403623,-0.665752,-0.512779,102.284418,-3.889817,-114.411611
38629,NaN,0.641871,9.620105,-2.096008,0.012734,0.024256,0.053970,-0.007007,0.007638,-0.005328,0.361843,0.403617,-0.665741,-0.512789,102.282043,-3.890343,-114.410943
38630,NaN,0.679001,9.600718,-2.096563,0.001483,-0.012654,0.037705,-0.004879,0.006629,-0.005039,0.361856,0.403618,-0.665731,-0.512791,102.280682,-3.890719,-114.409595
38631,NaN,0.658103,9.623458,-2.112064,0.020533,0.003589,0.061745,-0.007676,0.005243,-0.005032,0.361865,0.403604,-0.665722,-0.512807,102.278016,-3.891119,-114.410306
38632,NaN,0.644058,9.596424,-2.095119,0.015951,0.018843,0.030843,-0.005548,0.004235,-0.004743,0.361867,0.403595,-0.665719,-0.512817,102.276704,-3.891258,-114.411016
38633,NaN,0.657662,9.622422,-2.075974,-0.010549,0.017601,0.053050,-0.013271,0.002472,-0.005019,0.361877,0.403563,-0.665702,-0.512857,102.270938,-3.891327,-114.413284
38634,NaN,0.660394,9.598523,-2.075924,-0.007078,0.011156,0.029926,-0.008814,0.006308,-0.008081,0.361884,0.403562,-0.665681,-0.512881,102.267506,-3.889979,-114.412779
38635,NaN,0.639685,9.619878,-2.056683,-0.018817,0.040369,0.045265,-0.008473,0.011038,-0.005911,0.361911,0.403564,-0.665658,-0.512889,102.264157,-3.890592,-114.410131
38636,NaN,0.659542,9.598975,-2.074103,-0.007319,0.012213,0.029925,-0.009809,0.006250,-0.005320,0.361928,0.403552,-0.665640,-0.512911,102.260116,-3.890806,-114.409844
38637,NaN,0.676403,9.600762,-2.056157,-0.030223,0.004021,0.029010,-0.005040,0.007780,-0.006152,0.361937,0.403552,-0.665631,-0.512915,102.258855,-3.890887,-114.408995
38638,NaN,0.638497,9.620406,-2.054584,-0.019237,0.041943,0.045257,-0.002244,0.009166,-0.006157,0.361942,0.403564,-0.665628,-0.512907,102.259386,-3.890827,-114.407366
38639,NaN,0.655046,9.623517,-2.071721,-0.011350,0.020781,0.053043,-0.000115,0.008158,-0.005868,0.361943,0.403573,-0.665632,-0.512894,102.260935,-3.891114,-114.406339
38640,NaN,0.675512,9.599527,-2.021041,-0.061425,0.018583,0.020304,0.000552,0.010552,-0.006162,0.361949,0.403590,-0.665632,-0.512875,102.262620,-3.891469,-114.403998
38641,NaN,0.674730,9.600986,-2.055658,-0.030761,0.006152,0.029007,0.003164,0.006055,-0.007223,0.361933,0.403605,-0.665646,-0.512858,102.266116,-3.890740,-114.403986
38642,NaN,0.653686,9.623562,-2.071942,-0.011749,0.022362,0.053039,0.001060,0.014097,-0.007571,0.361945,0.403641,-0.665638,-0.512831,102.268268,-3.890500,-114.399151
38643,NaN,0.656576,9.599352,-2.073301,-0.008275,0.015934,0.029919,0.006938,0.007529,-0.005293,0.361931,0.403660,-0.665662,-0.512795,102.273887,-3.891032,-114.398548
38644,NaN,0.652931,9.623458,-2.072663,-0.011944,0.023415,0.053036,0.002678,0.009543,-0.005872,0.361936,0.403682,-0.665666,-0.512769,102.276613,-3.891414,-114.395834
38645,NaN,0.638599,9.597666,-2.091100,0.014314,0.025708,0.030830,0.002678,0.009543,-0.005872,0.361936,0.403700,-0.665675,-0.512743,102.279709,-3.891867,-114.394030
38646,NaN,0.638235,9.597647,-2.091296,0.014122,0.026219,0.030829,0.002677,0.009542,-0.005872,0.361932,0.403721,-0.665684,-0.512718,102.283093,-3.891995,-114.392289
38647,NaN,0.672015,9.602332,-2.091417,-0.000790,-0.003668,0.037713,-0.000942,0.006915,-0.006687,0.361928,0.403728,-0.665687,-0.512711,102.284208,-3.891671,-114.391860
38648,NaN,0.633942,9.621841,-2.090446,0.010199,0.034251,0.053943,0.005134,0.006199,-0.008046,0.361903,0.403752,-0.665704,-0.512688,102.289163,-3.890135,-114.391704
38649,NaN,0.667274,9.628032,-2.124846,0.026062,-0.008625,0.069543,-0.007998,0.007541,-0.007263,0.361914,0.403750,-0.665686,-0.512704,102.286208,-3.889565,-114.390853
38650,NaN,0.649931,9.623673,-2.072607,-0.012812,0.026604,0.053027,-0.000615,0.004578,-0.009152,0.361895,0.403759,-0.665689,-0.512707,102.287416,-3.887532,-114.391573
38651,NaN,0.669458,9.602650,-2.090777,-0.001350,-0.001546,0.037713,-0.001923,0.006825,-0.008621,0.361888,0.403771,-0.665685,-0.512708,102.287957,-3.886115,-114.390957
38652,NaN,0.651873,9.599727,-2.073046,-0.009434,0.020697,0.029909,-0.006534,0.004140,-0.006679,0.361885,0.403758,-0.665679,-0.512728,102.285796,-3.885468,-114.392569
38653,NaN,0.667953,9.604433,-2.124138,0.029203,-0.013470,0.046431,-0.007357,0.002898,-0.007499,0.361879,0.403747,-0.665671,-0.512752,102.283382,-3.884200,-114.394295
38654,NaN,0.629835,9.624114,-2.122326,0.040269,0.024455,0.062651,-0.006536,0.004139,-0.006678,0.361876,0.403738,-0.665664,-0.512770,102.281426,-3.883361,-114.395377
38655,NaN,0.632857,9.598695,-2.088117,0.012968,0.031008,0.030816,-0.008667,0.005145,-0.006968,0.361881,0.403728,-0.665649,-0.512793,102.278180,-3.882664,-114.395907
38656,NaN,0.646239,9.624694,-2.069017,-0.013533,0.029820,0.053017,-0.008003,0.007538,-0.007261,0.361891,0.403725,-0.665632,-0.512812,102.275139,-3.882023,-114.395340
38657,NaN,0.645855,9.624932,-2.068032,-0.013657,0.030365,0.053015,-0.011635,0.004940,-0.003385,0.361910,0.403697,-0.665617,-0.512839,102.270231,-3.883307,-114.396422
38658,NaN,0.665811,9.604023,-2.085627,-0.002283,0.002176,0.037713,-0.002920,0.006767,-0.005860,0.361908,0.403699,-0.665618,-0.512838,102.270559,-3.883101,-114.396429
38659,NaN,0.627996,9.623645,-2.083925,0.008815,0.040129,0.053922,-0.008177,0.008720,-0.003681,0.361933,0.403688,-0.665605,-0.512846,102.267485,-3.884680,-114.395354
38660,NaN,0.631219,9.599663,-2.084160,0.012227,0.033620,0.030809,-0.007862,0.006415,-0.001453,0.361957,0.403674,-0.665597,-0.512851,102.264881,-3.886797,-114.394679
38661,NaN,0.648002,9.602928,-2.100654,0.020077,0.012451,0.038623,-0.007690,0.005232,-0.005032,0.361965,0.403659,-0.665588,-0.512867,102.262209,-3.887194,-114.395396
38662,NaN,0.644668,9.625796,-2.064376,-0.014457,0.032977,0.053006,-0.006711,0.005320,-0.003097,0.361975,0.403643,-0.665586,-0.512876,102.260293,-3.888395,-114.396128
38663,NaN,0.664724,9.604904,-2.081912,-0.003016,0.004808,0.037712,-0.009001,0.007478,-0.004501,0.361995,0.403630,-0.665571,-0.512891,102.256788,-3.889363,-114.395650
38664,NaN,0.661123,9.629269,-2.080018,-0.006774,0.012318,0.060822,-0.007534,0.004079,-0.003918,0.362002,0.403614,-0.665565,-0.512906,102.254370,-3.889949,-114.396670
38665,NaN,0.657802,9.652093,-2.043887,-0.041255,0.032889,0.075199,-0.003412,0.010254,-0.004505,0.362020,0.403618,-0.665560,-0.512897,102.253962,-3.891252,-114.394633
38666,NaN,0.643893,9.624971,-2.027130,-0.045746,0.048122,0.044265,-0.006871,0.006472,-0.004211,0.362032,0.403605,-0.665553,-0.512908,102.251649,-3.892159,-114.394875
38667,NaN,0.660427,9.629671,-2.078379,-0.007144,0.013933,0.060819,-0.002592,0.011494,-0.003683,0.362055,0.403612,-0.665549,-0.512892,102.251670,-3.894073,-114.392242
38668,NaN,0.608665,9.623465,-2.095180,0.030292,0.053537,0.054813,-0.004409,0.003132,-0.006387,0.362042,0.403604,-0.665552,-0.512904,102.251272,-3.893130,-114.394171
38669,NaN,0.663010,9.605742,-2.078590,-0.003874,0.007984,0.037710,-0.004740,0.005466,-0.003920,0.362048,0.403592,-0.665553,-0.512908,102.250290,-3.894178,-114.394893
38670,NaN,0.645433,9.604252,-2.095386,0.018688,0.017182,0.038619,-0.003588,0.004373,-0.005565,0.362039,0.403586,-0.665558,-0.512913,102.250522,-3.893746,-114.396366
38671,NaN,0.699836,9.586500,-2.078933,-0.015487,-0.028368,0.021521,-0.002608,0.004461,-0.003630,0.362038,0.403574,-0.665567,-0.512911,102.250802,-3.894835,-114.397686
38672,NaN,0.679324,9.607631,-2.060356,-0.027179,0.000848,0.036799,-0.001787,0.005702,-0.002808,0.362047,0.403574,-0.665570,-0.512900,102.251471,-3.896191,-114.396835
38673,NaN,0.627301,9.602905,-2.111697,0.041098,0.027433,0.039526,-0.005072,0.000738,-0.006095,0.362032,0.403557,-0.665575,-0.512918,102.250461,-3.895447,-114.399944
38674,NaN,0.681640,9.585175,-2.095180,0.006883,-0.018142,0.022434,-0.002609,0.004461,-0.003630,0.362030,0.403546,-0.665584,-0.512917,102.250854,-3.896316,-114.401334
38675,NaN,0.657556,9.630508,-2.075406,-0.008378,0.018156,0.060811,-0.004569,0.004283,-0.007500,0.362022,0.403543,-0.665580,-0.512929,102.249986,-3.895216,-114.402283
38676,NaN,0.636531,9.653171,-2.091207,0.010684,0.034374,0.084824,-0.002106,0.008006,-0.005034,0.362027,0.403546,-0.665581,-0.512922,102.250472,-3.895760,-114.401509
38677,NaN,0.639727,9.627576,-2.057600,-0.016597,0.040936,0.052972,-0.000794,0.005761,-0.005566,0.362022,0.403547,-0.665588,-0.512915,102.251726,-3.895922,-114.401864
38678,NaN,0.639347,9.627646,-2.057392,-0.016701,0.041452,0.052970,-0.002769,0.005612,-0.004743,0.362024,0.403544,-0.665590,-0.512914,102.251687,-3.896418,-114.402012
38679,NaN,0.655918,9.630807,-2.074536,-0.008880,0.020283,0.060807,0.001179,0.005909,-0.006388,0.362013,0.403552,-0.665601,-0.512902,102.254060,-3.896138,-114.402183
38680,NaN,0.655568,9.630820,-2.074587,-0.009080,0.020787,0.060806,0.000846,0.008242,-0.003922,0.362016,0.403562,-0.665610,-0.512880,102.256476,-3.897120,-114.400892
38681,NaN,0.661690,9.582514,-2.076826,-0.002021,0.007273,0.014599,0.002516,0.010665,-0.011663,0.362005,0.403602,-0.665604,-0.512863,102.259390,-3.894465,-114.397751
38682,NaN,0.674853,9.608342,-2.058509,-0.028503,0.006161,0.036793,-0.001617,0.004519,-0.006387,0.361997,0.403601,-0.665609,-0.512864,102.259950,-3.894004,-114.398632
