// General information: 
//  MT Manager version: 2019.0.1 
//  XDA version: 2019.0.1 build 2740 rev 84096 built on 2019-01-30
// Device information: 
//  DeviceId: 00B43876
//  ProductCode: MTW2-3A7G6
//  Firmware Version: 4.3.4
//  Hardware Version: 1.1.0
// Device settings: 
//  Filter Profile: human(46.1)
//  Option Flags: Orientation Smoother Disabled, AHS Disabled, ICC Disabled
// Coordinate system: ENU
PacketCounter,SampleTimeFine,Acc_X,Acc_Y,Acc_Z,FreeAcc_E,FreeAcc_N,FreeAcc_U,Gyr_X,Gyr_Y,Gyr_Z,Quat_q0,Quat_q1,Quat_q2,Quat_q3,Roll,Pitch,Yaw
45683,NaN,2.780662,-9.409409,0.437640,0.058064,-0.047664,0.008460,-0.007254,-0.000728,-0.005457,0.056771,-0.250487,0.646889,-0.718031,-87.752106,-16.634485,-154.955792
45684,NaN,2.768270,-9.388781,0.438259,0.064803,-0.046867,-0.014820,-0.007355,-0.001319,-0.015980,0.056751,-0.250544,0.646895,-0.718006,-87.756441,-16.640199,-154.951959
45685,NaN,2.789642,-9.375459,0.441725,0.045532,-0.061345,-0.021333,-0.010469,-0.000362,-0.008972,0.056749,-0.250580,0.646925,-0.717967,-87.763222,-16.642040,-154.948135
45686,NaN,2.789721,-9.401580,0.387372,0.029044,-0.008682,0.001658,-0.004666,0.000503,-0.013989,0.056757,-0.250646,0.646914,-0.717953,-87.765399,-16.646767,-154.941623
45687,NaN,2.794910,-9.371327,0.416445,0.030804,-0.041999,-0.024735,-0.008717,0.002683,-0.013845,0.056730,-0.250686,0.646933,-0.717925,-87.770623,-16.651329,-154.939732
45688,NaN,2.773036,-9.387515,0.435251,0.062838,-0.047979,-0.014812,-0.010892,0.001949,-0.012223,0.056715,-0.250727,0.646954,-0.717893,-87.776352,-16.654866,-154.936683
45689,NaN,2.790579,-9.404049,0.409116,0.041348,-0.029502,0.005065,-0.006737,-0.000106,-0.014094,0.056698,-0.250777,0.646965,-0.717867,-87.780919,-16.659632,-154.933130
45690,NaN,2.778410,-9.383360,0.409712,0.048156,-0.028710,-0.018213,-0.008912,-0.000841,-0.012473,0.056718,-0.250854,0.646970,-0.717834,-87.786332,-16.663612,-154.924211
45691,NaN,2.790174,-9.406871,0.431606,0.054179,-0.049994,0.008471,-0.007368,0.001957,-0.013890,0.056695,-0.250896,0.646984,-0.717808,-87.790907,-16.668215,-154.921885
45692,NaN,2.794241,-9.403057,0.406915,0.039900,-0.030354,0.005068,-0.007035,-0.003755,-0.010995,0.056711,-0.250956,0.646990,-0.717780,-87.795487,-16.671236,-154.914800
45693,NaN,2.782078,-9.382359,0.407729,0.046726,-0.029651,-0.018209,-0.003213,-0.000097,-0.015761,0.056693,-0.251011,0.646986,-0.717767,-87.798023,-16.676956,-154.911289
45694,NaN,2.786276,-9.378491,0.383264,0.032466,-0.009999,-0.021611,-0.007472,0.001832,-0.012161,0.056710,-0.251078,0.646985,-0.717743,-87.801884,-16.680666,-154.903670
45695,NaN,2.801909,-9.372113,0.435040,0.040743,-0.064240,-0.021331,-0.004037,-0.001558,-0.014187,0.056701,-0.251133,0.646985,-0.717724,-87.805152,-16.685516,-154.899249
45696,NaN,2.782916,-9.384823,0.430216,0.059066,-0.050292,-0.014800,-0.004963,-0.003145,-0.010887,0.056758,-0.251228,0.646969,-0.717701,-87.808341,-16.688727,-154.886017
45697,NaN,2.787011,-9.380986,0.405636,0.044840,-0.030775,-0.018204,-0.005477,-0.004231,-0.014495,0.056755,-0.251294,0.646973,-0.717674,-87.812893,-16.693811,-154.880004
45698,NaN,2.770780,-9.390236,0.376707,0.049365,0.003052,-0.015074,-0.004539,-0.005458,-0.007634,0.056822,-0.251378,0.646962,-0.717650,-87.816183,-16.695173,-154.866852
45699,NaN,2.822683,-9.387719,0.407292,0.017810,-0.046535,-0.001459,-0.007021,-0.007030,-0.013076,0.056831,-0.251450,0.646972,-0.717614,-87.822109,-16.699505,-154.859133
45700,NaN,2.767072,-9.396708,0.423256,0.075947,-0.037273,-0.008260,-0.005067,-0.003270,-0.009157,0.056860,-0.251507,0.646972,-0.717592,-87.825538,-16.701473,-154.851390
45701,NaN,2.774692,-9.363091,0.428282,0.063994,-0.050709,-0.038069,-0.006507,-0.005944,-0.009466,0.056879,-0.251563,0.646986,-0.717558,-87.831008,-16.703713,-154.844237
45702,NaN,2.805193,-9.400059,0.400778,0.035126,-0.033159,0.005078,-0.007975,-0.002070,-0.005605,0.056940,-0.251631,0.646989,-0.717527,-87.835581,-16.703813,-154.832803
45703,NaN,2.840373,-9.380833,0.456781,0.024669,-0.101551,-0.001190,-0.005081,0.000004,-0.007071,0.056950,-0.251657,0.647003,-0.717505,-87.839228,-16.704553,-154.829151
45704,NaN,2.823638,-9.390226,0.427973,0.029162,-0.067738,0.001944,-0.006447,0.004003,-0.004937,0.056981,-0.251686,0.647009,-0.717486,-87.842014,-16.704043,-154.823735
45705,NaN,2.809530,-9.396175,0.375157,0.019914,-0.014215,0.001675,-0.006021,0.001690,-0.001687,0.057004,-0.251690,0.647033,-0.717461,-87.845944,-16.701663,-154.820970
45706,NaN,2.803908,-9.403203,0.422451,0.046976,-0.054191,0.008486,-0.010075,0.003866,-0.001540,0.057028,-0.251694,0.647065,-0.717429,-87.851153,-16.699075,-154.817933
45707,NaN,2.806823,-9.399691,0.397991,0.032730,-0.034689,0.005081,-0.002614,0.004850,0.000456,0.057052,-0.251679,0.647080,-0.717419,-87.852601,-16.695400,-154.817009
45708,NaN,2.790332,-9.382945,0.423070,0.053319,-0.053641,-0.014785,-0.006770,0.006900,0.002330,0.057111,-0.251686,0.647092,-0.717401,-87.854997,-16.690773,-154.811193
45709,NaN,2.783577,-9.416353,0.417035,0.064339,-0.040907,0.015034,-0.005654,0.012013,-0.002337,0.057099,-0.251654,0.647117,-0.717391,-87.856939,-16.688544,-154.814614
45710,NaN,2.786507,-9.412827,0.392736,0.050017,-0.021329,0.011631,-0.006668,0.007026,0.000603,0.057111,-0.251626,0.647145,-0.717374,-87.859721,-16.684569,-154.815642
45711,NaN,2.770155,-9.396045,0.417770,0.070658,-0.040453,-0.008233,-0.004494,0.007763,-0.001017,0.057118,-0.251606,0.647166,-0.717362,-87.861736,-16.681675,-154.816493
45712,NaN,2.793196,-9.379476,0.397925,0.037515,-0.034996,-0.018187,-0.004597,0.007637,0.000710,0.057123,-0.251565,0.647189,-0.717355,-87.862822,-16.677492,-154.819506
45713,NaN,2.786385,-9.412895,0.391983,0.048525,-0.022264,0.011636,-0.004597,0.007637,0.000710,0.057137,-0.251539,0.647212,-0.717342,-87.864929,-16.673612,-154.820244
45714,NaN,2.772928,-9.392571,0.393299,0.055326,-0.021360,-0.011632,-0.000440,0.005587,-0.001163,0.057192,-0.251556,0.647199,-0.717344,-87.863951,-16.671005,-154.814345
45715,NaN,2.773035,-9.392539,0.393308,0.054870,-0.021713,-0.011630,-0.001879,0.002914,-0.001474,0.057217,-0.251553,0.647209,-0.717334,-87.865296,-16.668476,-154.812308
45716,NaN,2.786424,-9.412883,0.391988,0.047021,-0.023020,0.011642,0.000072,0.006672,0.002447,0.057253,-0.251526,0.647210,-0.717339,-87.863942,-16.663513,-154.811820
45717,NaN,2.752643,-9.405649,0.389195,0.072635,-0.008107,-0.005068,0.000807,0.004736,0.000516,0.057282,-0.251510,0.647213,-0.717340,-87.863447,-16.659806,-154.810828
45718,NaN,2.772937,-9.392553,0.393672,0.053393,-0.022548,-0.011624,0.000207,0.000252,-0.003454,0.057341,-0.251548,0.647198,-0.717335,-87.863511,-16.658549,-154.802715
45719,NaN,2.790411,-9.382964,0.422139,0.047984,-0.056924,-0.014776,0.000911,0.004862,-0.001211,0.057364,-0.251537,0.647199,-0.717337,-87.862924,-16.655828,-154.801836
45720,NaN,2.786702,-9.412769,0.392758,0.045108,-0.024190,0.011648,0.003613,0.003411,-0.001309,0.057424,-0.251555,0.647173,-0.717349,-87.860026,-16.653253,-154.795741
45721,NaN,2.780064,-9.359014,0.400229,0.040520,-0.036535,-0.041449,0.002262,0.004137,-0.001260,0.057451,-0.251546,0.647168,-0.717354,-87.858788,-16.650576,-154.794430
45722,NaN,2.780228,-9.358953,0.400509,0.040017,-0.036734,-0.041447,0.000383,0.007050,-0.002734,0.057493,-0.251559,0.647152,-0.717361,-87.857154,-16.648780,-154.790057
45723,NaN,2.760150,-9.371963,0.396630,0.058315,-0.022899,-0.034881,0.006931,0.003172,0.000477,0.057535,-0.251547,0.647133,-0.717379,-87.853416,-16.645130,-154.788130
45724,NaN,2.807094,-9.399578,0.398739,0.024422,-0.039493,0.005087,0.001335,0.002548,0.002038,0.057610,-0.251561,0.647118,-0.717381,-87.852057,-16.640657,-154.780928
45725,NaN,2.773416,-9.392312,0.396050,0.050032,-0.024555,-0.011611,0.002982,0.005474,-0.001104,0.057635,-0.251546,0.647112,-0.717391,-87.850179,-16.637862,-154.780413
45726,NaN,2.770566,-9.395801,0.420515,0.063304,-0.044569,-0.008201,0.003069,0.008873,-0.000744,0.057662,-0.251526,0.647095,-0.717410,-87.846482,-16.634723,-154.780356
45727,NaN,2.753447,-9.405272,0.392603,0.067772,-0.010894,-0.005036,0.001734,0.006325,-0.002782,0.057676,-0.251514,0.647091,-0.717417,-87.845162,-16.632871,-154.780387
45728,NaN,2.753698,-9.405184,0.392941,0.067262,-0.011065,-0.005032,0.002366,0.004263,-0.002986,0.057731,-0.251540,0.647065,-0.717427,-87.842735,-16.631332,-154.773984
45729,NaN,2.774066,-9.392055,0.397591,0.048063,-0.025615,-0.011604,0.002175,0.000738,-0.001619,0.057767,-0.251545,0.647060,-0.717427,-87.842125,-16.628935,-154.770650
45730,NaN,2.771390,-9.395505,0.421699,0.061319,-0.045691,-0.008194,0.000208,0.000252,-0.003454,0.057783,-0.251539,0.647060,-0.717428,-87.841818,-16.627271,-154.769925
45731,NaN,2.805344,-9.402664,0.424898,0.034800,-0.061351,0.008494,0.004262,-0.001924,-0.003598,0.057823,-0.251559,0.647043,-0.717433,-87.840454,-16.626064,-154.765046
45732,NaN,2.769055,-9.398833,0.446259,0.074172,-0.066097,-0.004782,0.004245,0.001349,-0.001512,0.057873,-0.251568,0.647022,-0.717445,-87.837690,-16.623546,-154.760572
45733,NaN,2.775101,-9.391705,0.398632,0.046056,-0.026793,-0.011597,0.002278,0.000863,-0.003346,0.057903,-0.251577,0.647013,-0.717447,-87.836987,-16.622135,-154.757352
45734,NaN,2.772508,-9.395118,0.422959,0.059369,-0.046841,-0.008187,0.004981,-0.000587,-0.003442,0.057964,-0.251609,0.646982,-0.717459,-87.834105,-16.620780,-154.749988
45735,NaN,2.762348,-9.371141,0.400730,0.052407,-0.026253,-0.034856,0.003101,0.002326,-0.004917,0.057984,-0.251618,0.646969,-0.717466,-87.832670,-16.620237,-154.747678
45736,NaN,2.776198,-9.391332,0.399784,0.044564,-0.027613,-0.011592,0.004981,-0.000587,-0.003442,0.058029,-0.251636,0.646944,-0.717478,-87.829918,-16.618862,-154.742837
45737,NaN,2.773594,-9.394744,0.424164,0.057944,-0.047790,-0.008183,0.002997,0.002200,-0.003190,0.058057,-0.251640,0.646934,-0.717484,-87.828574,-16.617333,-154.740412
45738,NaN,2.807594,-9.401868,0.427637,0.031376,-0.063330,0.008493,0.005804,0.000876,-0.005013,0.058109,-0.251674,0.646897,-0.717501,-87.824946,-16.616918,-154.733663
45739,NaN,2.784043,-9.357552,0.406704,0.031746,-0.041624,-0.041436,0.001031,0.001714,-0.005024,0.058129,-0.251686,0.646892,-0.717500,-87.824800,-16.616450,-154.730989
45740,NaN,2.784556,-9.357395,0.406800,0.031218,-0.041852,-0.041436,-0.001481,0.006688,-0.006295,0.058134,-0.251691,0.646887,-0.717502,-87.824354,-16.616513,-154.730291
45741,NaN,2.781122,-9.387157,0.377241,0.028312,-0.009295,-0.014995,0.001542,0.002800,-0.001415,0.058164,-0.251687,0.646884,-0.717503,-87.823753,-16.613955,-154.728184
45742,NaN,2.775503,-9.394127,0.425330,0.055508,-0.049128,-0.008176,-0.000424,0.002313,-0.003249,0.058223,-0.251724,0.646868,-0.717501,-87.823404,-16.612628,-154.720187
45743,NaN,2.765132,-9.370230,0.402813,0.048543,-0.028539,-0.034842,0.000277,0.006924,-0.001007,0.058239,-0.251705,0.646871,-0.717503,-87.822826,-16.609747,-154.720535
45744,NaN,2.801897,-9.373884,0.382086,0.008119,-0.024289,-0.021586,0.000485,0.007175,-0.004460,0.058260,-0.251709,0.646859,-0.717511,-87.821186,-16.608818,-154.718726
45745,NaN,2.745518,-9.383128,0.398752,0.066289,-0.014893,-0.028243,-0.003041,0.007162,-0.002794,0.058265,-0.251696,0.646872,-0.717503,-87.822456,-16.606954,-154.719257
45746,NaN,2.776450,-9.393824,0.425834,0.053571,-0.050215,-0.008170,0.000381,0.007050,-0.002733,0.058309,-0.251711,0.646854,-0.717511,-87.820602,-16.605202,-154.714597
45747,NaN,2.759531,-9.403280,0.397558,0.057977,-0.016534,-0.004981,-0.002937,0.007288,-0.004520,0.058308,-0.251703,0.646865,-0.717504,-87.821779,-16.604324,-154.715242
45748,NaN,2.756919,-9.406716,0.421404,0.071271,-0.036581,-0.001568,-0.004392,0.007887,-0.002745,0.058304,-0.251677,0.646881,-0.717498,-87.822788,-16.602162,-154.717515
45749,NaN,2.793717,-9.410373,0.400266,0.030904,-0.032480,0.011679,-0.003127,0.003763,-0.003153,0.058319,-0.251678,0.646893,-0.717486,-87.824685,-16.600579,-154.716023
45750,NaN,2.746966,-9.382715,0.398492,0.063771,-0.016226,-0.028229,-0.001585,0.006563,-0.004567,0.058328,-0.251675,0.646892,-0.717487,-87.824389,-16.599628,-154.715527
45751,NaN,2.814527,-9.397107,0.404543,0.011206,-0.047300,0.005076,-0.003041,0.007162,-0.002793,0.058334,-0.251661,0.646906,-0.717480,-87.825658,-16.597764,-154.716059
45752,NaN,2.781042,-9.389822,0.401568,0.036773,-0.032171,-0.011574,-0.000357,0.008986,-0.000801,0.058377,-0.251664,0.646896,-0.717484,-87.824353,-16.594827,-154.712404
45753,NaN,2.791634,-9.413639,0.424374,0.042832,-0.053468,0.015091,-0.001075,0.007649,-0.000958,0.058390,-0.251642,0.646905,-0.717483,-87.824425,-16.591901,-154.713185
45754,NaN,2.778116,-9.393328,0.425922,0.049672,-0.052599,-0.008162,0.000257,0.010198,0.001082,0.058417,-0.251614,0.646904,-0.717491,-87.822720,-16.587668,-154.713589
45755,NaN,2.783855,-9.386314,0.378059,0.021487,-0.013344,-0.014982,-0.003883,0.008973,0.000864,0.058428,-0.251583,0.646926,-0.717481,-87.824186,-16.583671,-154.715119
45756,NaN,2.787578,-9.356460,0.407605,0.023500,-0.046525,-0.041435,-0.003864,0.005699,-0.001222,0.058452,-0.251577,0.646938,-0.717471,-87.825697,-16.580860,-154.713467
45757,NaN,2.750911,-9.352786,0.428309,0.062965,-0.051300,-0.054666,-0.002280,-0.000864,0.003344,0.058506,-0.251572,0.646953,-0.717454,-87.827938,-16.575657,-154.709064
45758,NaN,2.766932,-9.369711,0.402538,0.041201,-0.032882,-0.034822,-0.007158,-0.000153,0.005057,0.058557,-0.251556,0.646986,-0.717426,-87.832007,-16.569260,-154.705666
45759,NaN,2.783028,-9.386613,0.376718,0.019523,-0.014580,-0.014980,-0.003527,-0.000014,0.001665,0.058601,-0.251554,0.647004,-0.717407,-87.834805,-16.564999,-154.701811
45760,NaN,2.779895,-9.390220,0.400202,0.032873,-0.034616,-0.011568,-0.008847,0.006285,0.002218,0.058634,-0.251540,0.647035,-0.717381,-87.838777,-16.560233,-154.699636
45761,NaN,2.756635,-9.406896,0.419239,0.064985,-0.040527,-0.001540,-0.007305,0.009085,0.000805,0.058641,-0.251509,0.647068,-0.717361,-87.842184,-16.556267,-154.701235
45762,NaN,2.779569,-9.390358,0.399221,0.031859,-0.035242,-0.011567,-0.009203,0.015271,0.001420,0.058605,-0.251430,0.647117,-0.717348,-87.844921,-16.551494,-154.710611
45763,NaN,2.753351,-9.410577,0.442172,0.077843,-0.060950,0.001875,-0.011993,0.013322,0.001154,0.058593,-0.251384,0.647169,-0.717318,-87.850295,-16.547238,-154.714734
45764,NaN,2.742734,-9.386773,0.419047,0.070819,-0.040227,-0.024783,-0.006395,0.013948,-0.000400,0.058598,-0.251353,0.647189,-0.717311,-87.851531,-16.543867,-154.716861
45765,NaN,2.765785,-9.370198,0.399051,0.037797,-0.035025,-0.034816,-0.008743,0.006411,0.000492,0.058610,-0.251334,0.647226,-0.717283,-87.856214,-16.540138,-154.716871
45766,NaN,2.779020,-9.390615,0.397001,0.029918,-0.036460,-0.011566,-0.010305,0.006883,0.003993,0.058629,-0.251296,0.647272,-0.717253,-87.861178,-16.534242,-154.717800
45767,NaN,2.798043,-9.403974,0.347151,-0.005658,0.001620,0.004861,-0.007325,0.012358,0.002897,0.058632,-0.251247,0.647310,-0.717236,-87.864053,-16.529009,-154.721310
45768,NaN,2.801265,-9.374292,0.376688,-0.003646,-0.031495,-0.021604,-0.004747,0.014055,0.006618,0.058654,-0.251182,0.647336,-0.717233,-87.864290,-16.521466,-154.724948
45769,NaN,2.774433,-9.394679,0.420098,0.042345,-0.057187,-0.008154,-0.006205,0.014653,0.008393,0.058671,-0.251107,0.647376,-0.717222,-87.866169,-16.513038,-154.729706
45770,NaN,2.786832,-9.415325,0.418510,0.034449,-0.058606,0.015095,-0.006608,0.010874,0.013209,0.058719,-0.251027,0.647420,-0.717206,-87.868254,-16.501766,-154.732225
45771,NaN,2.779603,-9.335707,0.479074,0.046494,-0.123557,-0.061087,-0.004518,0.008214,0.011230,0.058769,-0.250965,0.647456,-0.717191,-87.870278,-16.491851,-154.733075
45772,NaN,2.663516,-9.407303,0.403974,0.130332,0.001294,-0.028114,-0.011555,0.004914,0.012468,0.058861,-0.250944,0.647502,-0.717149,-87.876216,-16.481399,-154.726492
45773,NaN,2.792333,-9.405749,0.345037,-0.008609,-0.000189,0.004859,-0.005410,0.000078,0.010345,0.058933,-0.250914,0.647538,-0.717121,-87.880123,-16.472163,-154.722505
45774,NaN,2.744980,-9.439305,0.383484,0.056045,-0.011460,0.024953,-0.010116,0.007589,0.012786,0.059028,-0.250892,0.647575,-0.717088,-87.884628,-16.461631,-154.715885
45775,NaN,2.784037,-9.413596,0.391825,0.018236,-0.040325,0.011682,-0.005975,0.008812,0.013008,0.059081,-0.250823,0.647619,-0.717068,-87.887396,-16.450686,-154.717056
45776,NaN,2.802683,-9.401009,0.396034,-0.000973,-0.054896,0.005043,-0.004224,0.009042,0.018299,0.059138,-0.250716,0.647668,-0.717056,-87.888738,-16.436409,-154.721260
45777,NaN,2.773993,-9.360893,0.398415,0.013316,-0.052913,-0.041449,-0.005856,0.002843,0.019345,0.059233,-0.250647,0.647718,-0.717028,-87.892486,-16.421961,-154.718729
45778,NaN,2.739187,-9.415011,0.435692,0.070501,-0.065407,0.001902,-0.004086,-0.000199,0.022545,0.059330,-0.250552,0.647770,-0.717006,-87.895017,-16.405348,-154.718456
45779,NaN,2.752512,-9.458746,0.356190,0.032284,0.005509,0.044797,-0.004494,-0.003979,0.027363,0.059477,-0.250482,0.647823,-0.716971,-87.899181,-16.386453,-154.711680
45780,NaN,2.793062,-9.429961,0.340718,-0.019498,-0.003491,0.028098,-0.002548,-0.000223,0.031295,0.059619,-0.250371,0.647875,-0.716950,-87.900912,-16.365001,-154.709065
45781,NaN,2.776571,-9.410528,0.341915,-0.012582,-0.002674,0.004854,-0.001846,0.004385,0.033549,0.059765,-0.250250,0.647929,-0.716932,-87.902185,-16.342387,-154.707148
45782,NaN,2.750932,-9.401802,0.415267,0.035930,-0.061077,-0.008151,0.001468,0.004142,0.035342,0.059923,-0.250118,0.647968,-0.716929,-87.900703,-16.318552,-154.705494
45783,NaN,2.730331,-9.412238,0.387046,0.040243,-0.027385,-0.004916,0.000640,0.002679,0.036915,0.060090,-0.249991,0.648017,-0.716916,-87.900856,-16.294047,-154.702486
45784,NaN,2.680353,-9.446376,0.426321,0.104814,-0.038709,0.015210,0.003757,-0.001092,0.040071,0.060265,-0.249844,0.648061,-0.716912,-87.899259,-16.267471,-154.700639
45785,NaN,2.699718,-9.430913,0.406962,0.071791,-0.033539,0.005150,0.002116,-0.007289,0.041121,0.060481,-0.249739,0.648106,-0.716890,-87.900253,-16.240767,-154.691594
45786,NaN,2.712343,-9.448808,0.381659,0.049955,-0.015200,0.024981,0.002851,-0.009225,0.039190,0.060694,-0.249639,0.648144,-0.716872,-87.900410,-16.214931,-154.682504
45787,NaN,2.712167,-9.420158,0.411405,0.052115,-0.048413,-0.001499,0.001794,-0.007669,0.046315,0.060929,-0.249518,0.648197,-0.716847,-87.901675,-16.185260,-154.673123
45788,NaN,2.680478,-9.406825,0.360302,0.049811,0.006309,-0.024908,0.000764,-0.006560,0.041183,0.061126,-0.249391,0.648250,-0.716826,-87.902674,-16.158198,-154.667499
45789,NaN,2.696963,-9.394929,0.364857,0.030689,-0.008303,-0.031562,0.003865,-0.000966,0.038365,0.061313,-0.249271,0.648288,-0.716818,-87.901583,-16.132938,-154.662290
45790,NaN,2.716502,-9.379476,0.345814,-0.002467,-0.003078,-0.041633,0.007806,-0.003278,0.039953,0.061481,-0.249111,0.648324,-0.716826,-87.897927,-16.106267,-154.662531
45791,NaN,2.646708,-9.339296,0.394016,0.065704,-0.025169,-0.097863,0.009273,-0.007153,0.036086,0.061687,-0.249019,0.648337,-0.716829,-87.894741,-16.082442,-154.653685
45792,NaN,2.609081,-9.358947,0.338119,0.074679,0.042662,-0.091365,0.015510,-0.011880,0.032233,0.061896,-0.248944,0.648321,-0.716852,-87.888010,-16.060700,-154.643697
45793,NaN,2.609970,-9.416886,0.356211,0.091996,0.034439,-0.034808,0.018019,-0.014042,0.023335,0.062089,-0.248916,0.648284,-0.716878,-87.880864,-16.044324,-154.631024
45794,NaN,2.584939,-9.433785,0.377124,0.123983,0.028619,-0.024724,0.019072,-0.015602,0.016213,0.062226,-0.248874,0.648247,-0.716914,-87.872771,-16.031565,-154.624252
45795,NaN,2.594271,-9.457921,0.401564,0.130029,0.007314,0.001934,0.026652,-0.011697,0.006326,0.062362,-0.248890,0.648159,-0.716976,-87.860186,-16.024882,-154.613350
45796,NaN,2.593812,-9.457945,0.403951,0.129458,0.007006,0.001942,0.030805,-0.013760,0.004456,0.062474,-0.248884,0.648063,-0.717055,-87.845007,-16.018852,-154.606671
45797,NaN,2.597028,-9.454268,0.382477,0.115093,0.026440,-0.001466,0.030729,-0.017616,-0.008169,0.062582,-0.248966,0.647940,-0.717128,-87.830968,-16.020601,-154.592567
45798,NaN,2.641606,-9.424493,0.370021,0.063344,0.017390,-0.018212,0.035396,-0.012506,-0.014503,0.062648,-0.249038,0.647796,-0.717227,-87.812886,-16.025614,-154.583449
45799,NaN,2.594294,-9.373164,0.448886,0.126792,-0.038709,-0.077673,0.034884,-0.013591,-0.018114,0.062712,-0.249136,0.647648,-0.717321,-87.795744,-16.032976,-154.571970
45800,NaN,2.672987,-9.437628,0.427244,0.064053,-0.038276,0.005186,0.040906,-0.012487,-0.026585,0.062713,-0.249216,0.647480,-0.717446,-87.774358,-16.044627,-154.568042
45801,NaN,2.641479,-9.455561,0.374043,0.073093,0.029462,0.011708,0.039565,-0.008948,-0.036704,0.062702,-0.249356,0.647293,-0.717566,-87.753652,-16.062536,-154.559765
45802,NaN,2.542322,-9.496130,0.433432,0.196297,0.028154,0.025423,0.040294,-0.004805,-0.046712,0.062649,-0.249518,0.647087,-0.717701,-87.731134,-16.086001,-154.553412
45803,NaN,2.540708,-9.440887,0.444222,0.191991,0.015934,-0.027711,0.044145,-0.007708,-0.055641,0.062572,-0.249714,0.646860,-0.717844,-87.707477,-16.114729,-154.546336
45804,NaN,2.600384,-9.433532,0.455610,0.146758,-0.014099,-0.017824,0.044786,-0.010244,-0.068084,0.062447,-0.249946,0.646617,-0.717993,-87.683341,-16.150388,-154.540228
45805,NaN,2.637346,-9.381579,0.445797,0.102501,-0.022013,-0.057824,0.052068,-0.016545,-0.079019,0.062324,-0.250247,0.646330,-0.718157,-87.656455,-16.192712,-154.528475
45806,NaN,2.661970,-9.369718,0.478191,0.097254,-0.056312,-0.061086,0.045548,-0.022015,-0.076222,0.062229,-0.250565,0.646061,-0.718296,-87.633616,-16.233483,-154.512375
45807,NaN,2.635943,-9.447169,0.466371,0.137924,-0.016236,0.005428,0.046605,-0.026867,-0.085390,0.062110,-0.250926,0.645782,-0.718432,-87.611547,-16.279708,-154.494657
45808,NaN,2.680907,-9.448505,0.449138,0.097443,-0.012220,0.018569,0.046913,-0.026500,-0.090544,0.061972,-0.251299,0.645493,-0.718573,-87.588695,-16.328733,-154.477448
45809,NaN,2.609053,-9.498146,0.435522,0.171559,0.044533,0.045314,0.045483,-0.032452,-0.092899,0.061843,-0.251704,0.645206,-0.718700,-87.568175,-16.379405,-154.456616
45810,NaN,2.789159,-9.528202,0.430303,0.026843,-0.013421,0.124631,0.049547,-0.037904,-0.095077,0.061713,-0.252116,0.644905,-0.718837,-87.545922,-16.431124,-154.435395
45811,NaN,2.749227,-9.474548,0.509913,0.090362,-0.069470,0.065183,0.049985,-0.024181,-0.095372,0.061553,-0.252498,0.644601,-0.718989,-87.521433,-16.483023,-154.419593
45812,NaN,2.747006,-9.474664,0.437442,0.066722,0.003832,0.061632,0.045859,-0.028689,-0.097629,0.061389,-0.252894,0.644307,-0.719127,-87.499440,-16.536099,-154.402542
45813,NaN,2.790860,-9.452183,0.497617,0.056818,-0.064611,0.055082,0.047287,-0.026010,-0.097293,0.061225,-0.253289,0.644010,-0.719268,-87.476812,-16.589155,-154.385733
45814,NaN,2.835194,-9.392580,0.439050,-0.015275,-0.032967,0.008225,0.048963,-0.029152,-0.092323,0.061105,-0.253690,0.643705,-0.719410,-87.453450,-16.639423,-154.364861
45815,NaN,2.850174,-9.356372,0.448498,-0.026946,-0.046396,-0.021699,0.053403,-0.027054,-0.085028,0.060996,-0.254047,0.643400,-0.719566,-87.427608,-16.685499,-154.347139
45816,NaN,2.863849,-9.347052,0.404732,-0.055287,-0.007148,-0.028532,0.054649,-0.027893,-0.083318,0.060908,-0.254408,0.643087,-0.719727,-87.400638,-16.730548,-154.327563
45817,NaN,2.852228,-9.330929,0.458367,-0.020476,-0.045822,-0.044933,0.055771,-0.025567,-0.077819,0.060823,-0.254736,0.642783,-0.719889,-87.373255,-16.772475,-154.310569
45818,NaN,2.856788,-9.331761,0.486916,-0.007033,-0.065848,-0.041521,0.057120,-0.026286,-0.077835,0.060764,-0.255085,0.642462,-0.720057,-87.344606,-16.814481,-154.289785
45819,NaN,2.849345,-9.336058,0.439079,-0.016697,-0.012399,-0.041654,0.053193,-0.026775,-0.069257,0.060711,-0.255390,0.642178,-0.720207,-87.318991,-16.851556,-154.271864
45820,NaN,2.880241,-9.377614,0.464993,-0.018077,-0.034861,0.008214,0.053703,-0.025668,-0.065641,0.060698,-0.255707,0.641882,-0.720359,-87.292373,-16.886672,-154.249780
45821,NaN,2.867080,-9.361889,0.518506,0.016756,-0.073520,-0.008185,0.052219,-0.021781,-0.061796,0.060654,-0.255970,0.641612,-0.720510,-87.266522,-16.919357,-154.234664
45822,NaN,2.892691,-9.346634,0.526670,-0.002333,-0.088049,-0.014889,0.047044,-0.021433,-0.054911,0.060660,-0.256241,0.641353,-0.720643,-87.242901,-16.948257,-154.214489
45823,NaN,2.876602,-9.421716,0.591961,0.061420,-0.121531,0.055212,0.044819,-0.015602,-0.049166,0.060632,-0.256444,0.641128,-0.720774,-87.220326,-16.973555,-154.202728
45824,NaN,2.916478,-9.336495,0.586117,0.005986,-0.142510,-0.014771,0.039647,-0.015254,-0.042289,0.060629,-0.256630,0.640925,-0.720889,-87.200242,-16.994829,-154.190001
45825,NaN,2.949391,-9.284985,0.574473,-0.038201,-0.150484,-0.054830,0.034575,-0.014790,-0.037139,0.060629,-0.256795,0.640752,-0.720984,-87.183501,-17.013229,-154.178388
45826,NaN,2.946433,-9.317288,0.571938,-0.027425,-0.137726,-0.024904,0.032379,-0.012244,-0.033461,0.060667,-0.256971,0.640577,-0.721073,-87.167337,-17.029613,-154.162481
45827,NaN,2.869140,-9.369745,0.557960,0.046603,-0.080893,0.001929,0.025825,-0.007892,-0.024499,0.060680,-0.257073,0.640454,-0.721145,-87.154513,-17.040591,-154.154631
45828,NaN,2.893978,-9.352385,0.540132,0.013609,-0.075717,-0.008197,0.022888,-0.003400,-0.018919,0.060728,-0.257173,0.640335,-0.721211,-87.142161,-17.048435,-154.143827
45829,NaN,2.895918,-9.351671,0.542080,0.013168,-0.076078,-0.008199,0.020375,-0.001738,-0.022280,0.060722,-0.257247,0.640236,-0.721273,-87.131400,-17.057970,-154.139597
45830,NaN,2.861256,-9.347452,0.564783,0.052674,-0.080606,-0.021295,0.014017,0.002843,-0.016768,0.060719,-0.257294,0.640164,-0.721320,-87.123170,-17.064110,-154.137052
45831,NaN,2.876307,-9.367133,0.564877,0.044802,-0.082197,0.001927,0.010947,0.000531,-0.011853,0.060731,-0.257329,0.640113,-0.721352,-87.117505,-17.067613,-154.133869
45832,NaN,2.866379,-9.343382,0.542934,0.037852,-0.061495,-0.024711,0.010138,-0.000926,-0.010277,0.060784,-0.257394,0.640053,-0.721378,-87.112131,-17.070453,-154.124691
45833,NaN,2.867306,-9.343057,0.543639,0.037411,-0.061854,-0.024711,0.007198,-0.006412,-0.009135,0.060823,-0.257447,0.640017,-0.721388,-87.109858,-17.072603,-154.117270
45834,NaN,2.813510,-9.376593,0.483567,0.064888,0.020306,-0.011384,0.004063,-0.012126,-0.004551,0.060937,-0.257548,0.639976,-0.721378,-87.109907,-17.072584,-154.099127
45835,NaN,2.864820,-9.373058,0.514836,0.033758,-0.029657,0.001815,0.007931,-0.014502,-0.001227,0.061031,-0.257605,0.639945,-0.721377,-87.108705,-17.070442,-154.086623
45836,NaN,2.831192,-9.366269,0.511831,0.059354,-0.014348,-0.014684,0.002763,-0.024131,0.001204,0.061202,-0.257731,0.639913,-0.721346,-87.111586,-17.067467,-154.061243
45837,NaN,2.868502,-9.342668,0.544016,0.035675,-0.063077,-0.024713,0.010477,-0.019450,0.000087,0.061320,-0.257800,0.639873,-0.721347,-87.109805,-17.064716,-154.045738
45838,NaN,2.735917,-9.339430,0.455216,0.108635,0.071188,-0.070996,0.009926,-0.027256,-0.005877,0.061480,-0.257952,0.639808,-0.721336,-87.109180,-17.065776,-154.019587
45839,NaN,2.851464,-9.379668,0.463113,0.022652,0.022886,0.001713,0.012472,-0.032204,-0.004560,0.061625,-0.258082,0.639751,-0.721328,-87.108455,-17.066054,-153.996588
45840,NaN,2.866712,-9.372436,0.515627,0.031503,-0.031188,0.001817,0.012797,-0.025172,-0.007345,0.061749,-0.258203,0.639685,-0.721333,-87.105767,-17.067694,-153.976259
45841,NaN,2.777416,-9.375223,0.530401,0.115681,-0.005812,-0.021020,0.014959,-0.024431,-0.008960,0.061856,-0.258318,0.639616,-0.721344,-87.102213,-17.070267,-153.958046
45842,NaN,2.842210,-9.418792,0.507611,0.060292,-0.004414,0.038496,0.012152,-0.023113,-0.007157,0.061970,-0.258428,0.639553,-0.721351,-87.099358,-17.071690,-153.939605
45843,NaN,2.846789,-9.388079,0.537484,0.062671,-0.037579,0.011965,0.015216,-0.020802,-0.012073,0.062055,-0.258540,0.639480,-0.721368,-87.094993,-17.075941,-153.923658
45844,NaN,2.864110,-9.290165,0.577765,0.042713,-0.096811,-0.074469,0.013217,-0.018027,-0.011848,0.062134,-0.258643,0.639410,-0.721386,-87.090689,-17.079865,-153.908885
45845,NaN,2.781497,-9.373872,0.532877,0.113787,-0.007056,-0.020999,0.005444,-0.016132,-0.006625,0.062211,-0.258723,0.639381,-0.721377,-87.091152,-17.080864,-153.895568
45846,NaN,2.866578,-9.403951,0.513609,0.039840,-0.020002,0.031772,0.009856,-0.024518,-0.016000,0.062316,-0.258888,0.639306,-0.721375,-87.089842,-17.087594,-153.872975
45847,NaN,2.837883,-9.366383,0.540032,0.068266,-0.037576,-0.011245,0.007599,-0.025371,-0.012658,0.062403,-0.259021,0.639258,-0.721362,-87.090643,-17.092314,-153.854310
45848,NaN,2.816596,-9.382562,0.560087,0.100409,-0.043176,-0.001090,0.007049,-0.023200,-0.014195,0.062539,-0.259208,0.639183,-0.721349,-87.090682,-17.098291,-153.827058
45849,NaN,2.809224,-9.418848,0.578925,0.125077,-0.050179,0.032282,0.005079,-0.023715,-0.016015,0.062605,-0.259346,0.639141,-0.721332,-87.092610,-17.104883,-153.809485
45850,NaN,2.819920,-9.381574,0.559920,0.099577,-0.043757,-0.001084,0.006688,-0.020802,-0.019172,0.062723,-0.259549,0.639059,-0.721321,-87.092549,-17.113703,-153.782392
45851,NaN,2.866224,-9.375008,0.466354,0.017166,0.019144,0.001732,0.001912,-0.020000,-0.019190,0.062762,-0.259684,0.639024,-0.721299,-87.095613,-17.122003,-153.767137
45852,NaN,2.887985,-9.361043,0.470091,-0.001885,0.004536,-0.005009,0.003302,-0.014024,-0.016861,0.062817,-0.259812,0.638977,-0.721291,-87.096202,-17.128866,-153.751644
45853,NaN,2.893319,-9.330103,0.499291,0.000548,-0.028621,-0.031553,0.003618,-0.006994,-0.019656,0.062815,-0.259901,0.638940,-0.721291,-87.095995,-17.137055,-153.744191
45854,NaN,2.906116,-9.352882,0.522334,0.006599,-0.049818,-0.004924,0.002138,-0.003102,-0.015850,0.062841,-0.259989,0.638899,-0.721294,-87.095022,-17.143068,-153.734708
45855,NaN,2.916231,-9.315736,0.503533,-0.018944,-0.043550,-0.038301,0.002566,-0.002096,-0.010546,0.062855,-0.260032,0.638879,-0.721295,-87.094636,-17.145903,-153.729910
45856,NaN,2.869454,-9.351792,0.567957,0.059674,-0.074279,-0.014561,0.002108,0.000187,-0.013806,0.062855,-0.260080,0.638853,-0.721301,-87.093551,-17.150412,-153.725988
45857,NaN,2.873263,-9.348258,0.543928,0.045241,-0.054931,-0.017977,-0.000208,-0.004070,-0.010787,0.062871,-0.260132,0.638842,-0.721290,-87.095101,-17.153442,-153.720016
45858,NaN,2.888131,-9.368057,0.542603,0.037314,-0.056457,0.005236,-0.002116,-0.001185,-0.012285,0.062895,-0.260201,0.638824,-0.721279,-87.096532,-17.157339,-153.711985
45859,NaN,2.891593,-9.364649,0.518178,0.022875,-0.037113,0.001821,-0.005849,0.001851,-0.005140,0.062905,-0.260215,0.638843,-0.721257,-87.100319,-17.156966,-153.709386
45860,NaN,2.900778,-9.390949,0.564522,0.043016,-0.078053,0.031863,-0.009634,0.004332,-0.010180,0.062940,-0.260291,0.638844,-0.721225,-87.105270,-17.159813,-153.699282
45861,NaN,2.890186,-9.367515,0.541012,0.036032,-0.057435,0.005236,-0.008467,0.013373,-0.002369,0.062920,-0.260256,0.638880,-0.721208,-87.108545,-17.157521,-153.703500
45862,NaN,2.901432,-9.390826,0.563198,0.042134,-0.078621,0.031862,-0.013462,0.007254,-0.001314,0.062964,-0.260284,0.638909,-0.721168,-87.114881,-17.155120,-153.696543
45863,NaN,2.904003,-9.387730,0.538020,0.027684,-0.059286,0.028446,-0.015006,0.007742,0.002168,0.062970,-0.260256,0.638973,-0.721121,-87.122938,-17.150394,-153.697251
45864,NaN,2.889747,-9.367829,0.537913,0.034698,-0.058279,0.005235,-0.015998,0.006058,0.007188,0.063027,-0.260246,0.639031,-0.721068,-87.131404,-17.142988,-153.692103
45865,NaN,2.915074,-9.321143,0.545715,0.004632,-0.086092,-0.031495,-0.015540,0.003773,0.010448,0.063075,-0.260207,0.639106,-0.721012,-87.140540,-17.133639,-153.690188
45866,NaN,2.899196,-9.328659,0.492143,-0.005325,-0.032584,-0.031567,-0.017241,0.000745,0.015327,0.063173,-0.260185,0.639178,-0.720946,-87.150514,-17.121679,-153.682416
45867,NaN,2.918280,-9.288688,0.547851,-0.007346,-0.099790,-0.061471,-0.018202,0.005751,0.022718,0.063255,-0.260100,0.639279,-0.720881,-87.160933,-17.105251,-153.681324
45868,NaN,2.838880,-9.340007,0.506000,0.052320,-0.022884,-0.037834,-0.023042,0.003149,0.022377,0.063354,-0.260041,0.639387,-0.720798,-87.173964,-17.089086,-153.676244
45869,NaN,2.853199,-9.357678,0.478718,0.030391,-0.004844,-0.018040,-0.023042,0.003149,0.022380,0.063437,-0.259968,0.639504,-0.720713,-87.187607,-17.072924,-153.673611
45870,NaN,2.864835,-9.378565,0.475482,0.022453,-0.006342,0.005169,-0.023688,0.005207,0.022566,0.063558,-0.259928,0.639601,-0.720630,-87.200332,-17.056851,-153.665158
45871,NaN,2.846169,-9.362438,0.498680,0.043505,-0.025100,-0.014622,-0.023719,0.008495,0.024617,0.063630,-0.259829,0.639725,-0.720550,-87.213440,-17.039259,-153.665669
45872,NaN,2.817556,-9.410242,0.487377,0.072625,0.002094,0.022124,-0.027075,0.011984,0.024888,0.063711,-0.259736,0.639851,-0.720464,-87.227266,-17.021467,-153.664913
45873,NaN,2.835176,-9.397652,0.489301,0.053649,-0.012648,0.015357,-0.023721,0.008495,0.024623,0.063784,-0.259637,0.639975,-0.720383,-87.240373,-17.003871,-153.665432
45874,NaN,2.852672,-9.385110,0.491278,0.034656,-0.027293,0.008588,-0.024622,0.006922,0.027926,0.063905,-0.259563,0.640090,-0.720297,-87.253718,-16.984568,-153.659688
45875,NaN,2.813638,-9.382497,0.510530,0.074248,-0.031654,-0.004429,-0.019269,0.000658,0.027432,0.064019,-0.259482,0.640199,-0.720219,-87.265664,-16.965580,-153.655445
45876,NaN,2.844653,-9.390194,0.511202,0.047800,-0.047593,0.012005,-0.027011,-0.000738,0.030618,0.064173,-0.259429,0.640323,-0.720114,-87.281718,-16.945023,-153.644811
45877,NaN,2.847815,-9.357724,0.514181,0.036309,-0.061038,-0.017976,-0.021100,0.000796,0.036090,0.064315,-0.259320,0.640450,-0.720028,-87.294754,-16.921074,-153.640416
45878,NaN,2.827212,-9.368945,0.484095,0.040308,-0.027224,-0.014614,-0.020430,-0.004549,0.033857,0.064489,-0.259255,0.640558,-0.719940,-87.307614,-16.898574,-153.629690
45879,NaN,2.810122,-9.349899,0.483347,0.047342,-0.026278,-0.037817,-0.018007,-0.006329,0.038941,0.064668,-0.259162,0.640675,-0.719854,-87.320132,-16.873182,-153.620965
45880,NaN,2.873961,-9.364714,0.487048,-0.005137,-0.057936,-0.004968,-0.020717,-0.004895,0.039032,0.064855,-0.259076,0.640792,-0.719763,-87.333263,-16.847728,-153.610829
45881,NaN,2.827388,-9.395962,0.500904,0.045499,-0.049189,0.012008,-0.022194,-0.001008,0.042856,0.065026,-0.258952,0.640931,-0.719668,-87.347278,-16.819951,-153.605192
45882,NaN,2.794046,-9.447485,0.513602,0.088624,-0.041656,0.052193,-0.019772,-0.002791,0.047944,0.065247,-0.258837,0.641056,-0.719579,-87.359694,-16.789365,-153.594894
45883,NaN,2.843068,-9.442538,0.518305,0.043669,-0.072122,0.061830,-0.024193,-0.004389,0.052919,0.065462,-0.258694,0.641213,-0.719470,-87.375507,-16.755915,-153.586976
45884,NaN,2.794610,-9.386796,0.543698,0.079684,-0.088136,-0.004360,-0.022009,-0.006933,0.049250,0.065690,-0.258583,0.641349,-0.719368,-87.389949,-16.724624,-153.575403
45885,NaN,2.800284,-9.375310,0.445018,0.023043,-0.009807,-0.018024,-0.026717,-0.008879,0.059397,0.065940,-0.258436,0.641523,-0.719244,-87.408015,-16.687579,-153.564647
45886,NaN,2.812053,-9.367111,0.470411,0.018072,-0.044075,-0.021394,-0.026101,-0.007654,0.061277,0.066215,-0.258295,0.641683,-0.719126,-87.424437,-16.649482,-153.551471
45887,NaN,2.854589,-9.369249,0.522851,0.001236,-0.113897,-0.004940,-0.023513,-0.005925,0.064981,0.066479,-0.258118,0.641853,-0.719013,-87.440183,-16.609159,-153.542356
45888,NaN,2.787711,-9.374415,0.389314,-0.006525,0.028758,-0.024854,-0.025813,-0.000213,0.072458,0.066777,-0.257922,0.642027,-0.718901,-87.455381,-16.564522,-153.532169
45889,NaN,2.808613,-9.302931,0.449526,-0.019397,-0.051512,-0.084796,-0.031150,0.006069,0.072987,0.067022,-0.257679,0.642239,-0.718776,-87.473502,-16.519307,-153.530033
45890,NaN,2.764653,-9.415523,0.402768,0.017571,0.021609,0.008556,-0.031729,0.014815,0.075589,0.067261,-0.257406,0.642448,-0.718665,-87.489429,-16.472373,-153.531235
45891,NaN,2.801351,-9.361210,0.437720,-0.016833,-0.040318,-0.031608,-0.034469,0.022824,0.079820,0.067473,-0.257082,0.642686,-0.718548,-87.506660,-16.422827,-153.538949
45892,NaN,2.757241,-9.359889,0.456285,0.022707,-0.044512,-0.044597,-0.035383,0.021249,0.083147,0.067704,-0.256753,0.642925,-0.718429,-87.524004,-16.371316,-153.545335
45893,NaN,2.749265,-9.362368,0.453550,0.022262,-0.044870,-0.044597,-0.036118,0.023193,0.085088,0.067931,-0.256411,0.643176,-0.718306,-87.542161,-16.318750,-153.553161
45894,NaN,2.738522,-9.368173,0.475052,0.035796,-0.064791,-0.041180,-0.032521,0.026606,0.083779,0.068144,-0.256053,0.643410,-0.718204,-87.556917,-16.266667,-153.563942
45895,NaN,2.680800,-9.433711,0.482802,0.097410,-0.042900,0.005834,-0.037565,0.020518,0.084842,0.068376,-0.255722,0.643664,-0.718072,-87.576352,-16.214310,-153.570208
45896,NaN,2.609436,-9.478861,0.491837,0.166432,-0.019587,0.029659,-0.026313,0.009147,0.085692,0.068659,-0.255417,0.643873,-0.717966,-87.590544,-16.161569,-153.570813
45897,NaN,2.632421,-9.491735,0.516153,0.154058,-0.055341,0.049477,-0.029174,-0.002767,0.080989,0.068963,-0.255179,0.644084,-0.717833,-87.609005,-16.111981,-153.563327
45898,NaN,2.665764,-9.380509,0.533364,0.102009,-0.109271,-0.047321,-0.039829,0.006052,0.067752,0.069159,-0.254932,0.644323,-0.717687,-87.631227,-16.069403,-153.565114
45899,NaN,2.633558,-9.539588,0.430554,0.114335,0.014766,0.092435,-0.038055,0.006305,0.073054,0.069394,-0.254690,0.644558,-0.717539,-87.653206,-16.024138,-153.563269
45900,NaN,2.660579,-9.374585,0.454779,0.058821,-0.050872,-0.057571,-0.029769,0.005471,0.071405,0.069633,-0.254445,0.644758,-0.717423,-87.669625,-15.979649,-153.562084
45901,NaN,2.616661,-9.399199,0.419737,0.081284,-0.002732,-0.047371,-0.031881,0.007646,0.061143,0.069830,-0.254234,0.644956,-0.717301,-87.687756,-15.941171,-153.561356
45902,NaN,2.642123,-9.324476,0.455564,0.054328,-0.063194,-0.110767,-0.045183,0.015155,0.058172,0.069962,-0.253994,0.645201,-0.717153,-87.711265,-15.903970,-153.567703
45903,NaN,2.622171,-9.419469,0.386928,0.058698,0.015013,-0.027586,-0.052591,0.020365,0.046370,0.070038,-0.253792,0.645458,-0.716985,-87.739083,-15.873659,-153.574927
45904,NaN,2.616594,-9.310536,0.472936,0.074888,-0.082101,-0.130540,-0.042331,0.020008,0.046543,0.070115,-0.253569,0.645681,-0.716856,-87.760146,-15.842915,-153.584816
45905,NaN,2.617638,-9.392233,0.408248,0.060759,-0.018315,-0.054168,-0.058610,0.015509,0.040557,0.070178,-0.253405,0.645951,-0.716665,-87.792164,-15.816047,-153.589312
45906,NaN,2.626327,-9.353267,0.361004,0.021083,0.007661,-0.091010,-0.054076,0.023768,0.038011,0.070202,-0.253205,0.646205,-0.716504,-87.819440,-15.790173,-153.600815
45907,NaN,2.562983,-9.453945,0.385556,0.107698,0.022998,-0.010520,-0.041641,0.020858,0.034475,0.070247,-0.253036,0.646408,-0.716376,-87.840830,-15.766674,-153.608656
45908,NaN,2.603312,-9.425533,0.366026,0.056084,0.013569,-0.027568,-0.055982,0.029486,0.026375,0.070199,-0.252843,0.646659,-0.716222,-87.868080,-15.747295,-153.625563
45909,NaN,2.570999,-9.476116,0.376012,0.099156,0.021063,0.012684,-0.048215,0.027548,0.021102,0.070166,-0.252696,0.646872,-0.716086,-87.892076,-15.731318,-153.637698
45910,NaN,2.539892,-9.439380,0.398744,0.127675,0.003833,-0.030273,-0.052385,0.029143,0.010730,0.070066,-0.252552,0.647091,-0.715948,-87.917331,-15.720874,-153.654996
45911,NaN,2.539066,-9.439767,0.394826,0.127218,0.003489,-0.030267,-0.047115,0.032187,0.004177,0.069959,-0.252442,0.647279,-0.715827,-87.939852,-15.714502,-153.670268
45912,NaN,2.551025,-9.486722,0.336019,0.101941,0.054294,0.016107,-0.047008,0.022489,-0.003799,0.069838,-0.252371,0.647456,-0.715704,-87.962836,-15.712555,-153.683441
45913,NaN,2.555729,-9.456843,0.361897,0.104589,0.021218,-0.010483,-0.044630,0.020196,-0.010963,0.069719,-0.252352,0.647612,-0.715581,-87.985778,-15.715107,-153.691904
45914,NaN,2.513625,-9.486059,0.373733,0.155047,0.030186,0.006597,-0.041003,0.017051,-0.016450,0.069582,-0.252343,0.647748,-0.715475,-88.006123,-15.720592,-153.701333
45915,NaN,2.549370,-9.493046,0.373640,0.128593,0.014070,0.022966,-0.030651,0.016355,-0.030276,0.069424,-0.252395,0.647828,-0.715399,-88.021565,-15.734284,-153.707908
45916,NaN,2.549027,-9.435004,0.354081,0.110483,0.021804,-0.033652,-0.033134,0.008246,-0.039889,0.069242,-0.252491,0.647902,-0.715316,-88.038472,-15.753366,-153.712628
45917,NaN,2.570422,-9.424596,0.379705,0.105627,-0.012617,-0.037057,-0.026806,0.003648,-0.045477,0.069076,-0.252637,0.647945,-0.715242,-88.053679,-15.776015,-153.711946
45918,NaN,2.611238,-9.427350,0.356290,0.064986,-0.008971,-0.024116,-0.023380,0.000256,-0.047506,0.068903,-0.252780,0.647973,-0.715182,-88.066498,-15.799625,-153.712360
45919,NaN,2.585375,-9.415131,0.327311,0.076442,0.026108,-0.043887,-0.020897,-0.001900,-0.056397,0.068723,-0.252979,0.647980,-0.715123,-88.079163,-15.828633,-153.708583
45920,NaN,2.615174,-9.370873,0.359334,0.060543,-0.021238,-0.077319,-0.019433,-0.009043,-0.062342,0.068542,-0.253214,0.647967,-0.715069,-88.091028,-15.861053,-153.701899
45921,NaN,2.574057,-9.428619,0.342897,0.107977,0.020340,-0.033621,-0.016718,-0.017039,-0.066609,0.068380,-0.253499,0.647940,-0.715008,-88.103717,-15.896196,-153.689297
45922,NaN,2.591213,-9.450826,0.363122,0.113948,-0.000864,-0.007007,-0.020846,-0.024800,-0.070975,0.068210,-0.253810,0.647918,-0.714933,-88.118856,-15.933710,-153.674769
45923,NaN,2.649142,-9.446862,0.391843,0.083108,-0.051073,0.005926,-0.014806,-0.033037,-0.073459,0.068078,-0.254173,0.647870,-0.714861,-88.133053,-15.973068,-153.652751
45924,NaN,2.659286,-9.441314,0.365438,0.068458,-0.031618,0.002508,-0.020354,-0.024162,-0.079574,0.067885,-0.254519,0.647832,-0.714790,-88.147798,-16.015602,-153.637227
45925,NaN,2.656228,-9.415354,0.340576,0.061445,-0.010965,-0.024095,-0.014953,-0.027061,-0.079764,0.067711,-0.254881,0.647778,-0.714726,-88.161100,-16.058450,-153.618861
45926,NaN,2.663817,-9.413292,0.338286,0.060873,-0.011184,-0.024092,-0.019011,-0.024888,-0.079586,0.067516,-0.255223,0.647739,-0.714659,-88.175341,-16.100909,-153.603809
45927,NaN,2.682259,-9.435079,0.358503,0.066971,-0.032543,0.002516,-0.016027,-0.022679,-0.082764,0.067315,-0.255580,0.647686,-0.714598,-88.188552,-16.145387,-153.588082
45928,NaN,2.672864,-9.442383,0.328210,0.070803,0.001362,0.005943,-0.013228,-0.023996,-0.084575,0.067126,-0.255952,0.647610,-0.714551,-88.199160,-16.190934,-153.570456
45929,NaN,2.678260,-9.443752,0.350314,0.084432,-0.018635,0.009368,-0.012499,-0.025927,-0.086485,0.066927,-0.256331,0.647539,-0.714499,-88.210902,-16.237595,-153.552836
45930,NaN,2.749563,-9.398443,0.337324,0.014368,-0.042510,-0.014596,-0.011966,-0.028116,-0.084945,0.066723,-0.256690,0.647469,-0.714453,-88.221595,-16.283085,-153.537415
45931,NaN,2.713239,-9.365159,0.310340,0.033353,-0.006060,-0.057533,-0.007177,-0.032210,-0.087015,0.066550,-0.257092,0.647375,-0.714409,-88.231372,-16.330154,-153.516030
45932,NaN,2.748476,-9.403330,0.305692,0.017736,-0.009002,-0.011168,-0.009367,-0.029687,-0.083283,0.066378,-0.257469,0.647290,-0.714366,-88.240967,-16.374952,-153.496572
45933,NaN,2.753605,-9.404712,0.328297,0.031370,-0.029003,-0.007745,-0.001984,-0.032078,-0.081657,0.066230,-0.257850,0.647185,-0.714338,-88.247814,-16.418945,-153.475142
45934,NaN,2.774955,-9.422692,0.325589,0.023339,-0.030704,0.015436,-0.002877,-0.036945,-0.080423,0.066104,-0.258247,0.647081,-0.714301,-88.255771,-16.462185,-153.450403
45935,NaN,2.748760,-9.413544,0.321758,0.048877,-0.015257,-0.000889,0.000425,-0.033904,-0.076556,0.065983,-0.258618,0.646973,-0.714275,-88.261609,-16.503282,-153.427769
45936,NaN,2.820848,-9.428964,0.350086,0.010490,-0.066851,0.035182,-0.002436,-0.039263,-0.077143,0.065877,-0.259012,0.646870,-0.714235,-88.269765,-16.544679,-153.401565
45937,NaN,2.814343,-9.406687,0.350483,0.017577,-0.065842,0.012000,0.001412,-0.038408,-0.071763,0.065789,-0.259383,0.646763,-0.714206,-88.275866,-16.583104,-153.376134
45938,NaN,2.809720,-9.380996,0.327102,0.010532,-0.045167,-0.014603,0.001553,-0.037845,-0.061263,0.065740,-0.259719,0.646667,-0.714175,-88.281613,-16.615376,-153.350472
45939,NaN,2.805701,-9.329307,0.357099,0.020814,-0.076857,-0.064401,-0.007271,-0.038151,-0.063147,0.065671,-0.260064,0.646602,-0.714114,-88.292723,-16.648857,-153.325022
45940,NaN,2.859789,-9.441723,0.343132,0.001055,-0.069634,0.058352,-0.010524,-0.040764,-0.054770,0.065639,-0.260394,0.646557,-0.714038,-88.305956,-16.677452,-153.297479
45941,NaN,2.857166,-9.386746,0.349029,-0.002756,-0.081689,0.005129,0.005866,-0.045531,-0.042869,0.065683,-0.260695,0.646469,-0.714004,-88.310940,-16.699435,-153.267237
45942,NaN,2.832011,-9.436036,0.362043,0.040203,-0.074152,0.045458,-0.001861,-0.037014,-0.035135,0.065720,-0.260945,0.646419,-0.713954,-88.318688,-16.716717,-153.241578
45943,NaN,2.801413,-9.428325,0.358118,0.065742,-0.058690,0.029147,-0.002302,-0.040932,-0.028598,0.065790,-0.261187,0.646380,-0.713895,-88.327652,-16.730442,-153.213825
45944,NaN,2.815233,-9.451366,0.379103,0.071807,-0.080041,0.055747,-0.003200,-0.042533,-0.025298,0.065878,-0.261425,0.646346,-0.713830,-88.337181,-16.742174,-153.184683
45945,NaN,2.800265,-9.460364,0.349250,0.075691,-0.046327,0.059195,-0.006717,-0.042574,-0.023607,0.065965,-0.261657,0.646329,-0.713753,-88.348997,-16.753059,-153.155854
45946,NaN,2.842495,-9.433118,0.355871,0.038317,-0.075562,0.045455,-0.006122,-0.038093,-0.019657,0.066056,-0.261862,0.646314,-0.713683,-88.359474,-16.761477,-153.129262
45947,NaN,2.838088,-9.401579,0.283784,0.003094,-0.015654,0.012011,-0.007776,-0.034500,-0.012358,0.066155,-0.262030,0.646318,-0.713608,-88.370568,-16.765776,-153.105063
45948,NaN,2.802933,-9.398161,0.303563,0.042701,-0.019786,-0.000868,-0.007801,-0.031231,-0.010280,0.066255,-0.262181,0.646324,-0.713539,-88.380874,-16.768704,-153.082412
45949,NaN,2.855133,-9.395035,0.332658,0.011930,-0.070072,0.011979,-0.008536,-0.029305,-0.008351,0.066350,-0.262318,0.646337,-0.713467,-88.391531,-16.770616,-153.061250
45950,NaN,2.830721,-9.351030,0.310286,0.012440,-0.048006,-0.037793,-0.009476,-0.024371,-0.000907,0.066459,-0.262414,0.646363,-0.713398,-88.401658,-16.768058,-153.042545
45951,NaN,2.808118,-9.368107,0.328491,0.044536,-0.053545,-0.027494,-0.009170,-0.030218,0.003699,0.066600,-0.262515,0.646394,-0.713319,-88.412891,-16.763075,-153.020637
45952,NaN,2.821352,-9.388435,0.325130,0.036492,-0.055276,-0.004320,-0.010084,-0.028552,0.009070,0.066757,-0.262595,0.646434,-0.713239,-88.424132,-16.754863,-152.999267
45953,NaN,2.811811,-9.361279,0.277056,0.015370,-0.014999,-0.034338,-0.009463,-0.027341,0.010941,0.066914,-0.262662,0.646477,-0.713161,-88.435065,-16.745679,-152.978964
45954,NaN,2.840652,-9.398231,0.248094,-0.014352,0.001494,0.008585,-0.010930,-0.023489,0.014797,0.067074,-0.262705,0.646529,-0.713083,-88.445937,-16.734101,-152.960535
45955,NaN,2.842769,-9.369016,0.276166,-0.011561,-0.031561,-0.018050,-0.012575,-0.019898,0.022095,0.067243,-0.262711,0.646600,-0.713000,-88.457413,-16.718406,-152.944509
45956,NaN,2.824396,-9.353263,0.300442,0.009628,-0.050127,-0.037801,-0.007036,-0.012695,0.024643,0.067408,-0.262683,0.646655,-0.712946,-88.464233,-16.701017,-152.932384
45957,NaN,2.844540,-9.337023,0.279545,-0.023368,-0.045332,-0.048111,-0.005928,-0.017071,0.027676,0.067596,-0.262658,0.646710,-0.712886,-88.471430,-16.682078,-152.917968
45958,NaN,2.830339,-9.378743,0.320486,0.015247,-0.071856,-0.011211,-0.011064,-0.016789,0.034596,0.067805,-0.262614,0.646791,-0.712810,-88.481296,-16.659048,-152.903244
45959,NaN,2.796965,-9.343258,0.346131,0.044045,-0.089039,-0.054131,-0.012917,-0.023394,0.040841,0.068051,-0.262571,0.646886,-0.712715,-88.493625,-16.632660,-152.884850
45960,NaN,2.838167,-9.310538,0.304396,-0.021528,-0.079063,-0.074759,-0.015806,-0.022223,0.044410,0.068306,-0.262516,0.646995,-0.712613,-88.507163,-16.604085,-152.866738
45961,NaN,2.809978,-9.354924,0.268138,-0.006821,-0.032291,-0.041230,-0.020764,-0.021677,0.047894,0.068562,-0.262447,0.647128,-0.712493,-88.523704,-16.573623,-152.849280
45962,NaN,2.810129,-9.349057,0.217389,-0.035558,0.006603,-0.048075,-0.024632,-0.022241,0.056489,0.068848,-0.262356,0.647284,-0.712357,-88.542330,-16.538122,-152.830996
45963,NaN,2.807251,-9.411653,0.255122,-0.004479,-0.021349,0.012000,-0.024876,-0.009725,0.054321,0.069083,-0.262225,0.647444,-0.712237,-88.559197,-16.503794,-152.820606
45964,NaN,2.776905,-9.433953,0.296425,0.041699,-0.046457,0.025739,-0.025620,-0.004533,0.058338,0.069317,-0.262065,0.647612,-0.712121,-88.575367,-16.466970,-152.812902
45965,NaN,2.751334,-9.448878,0.289650,0.059660,-0.032356,0.032638,-0.027053,-0.007212,0.058056,0.069554,-0.261914,0.647785,-0.711996,-88.593052,-16.430463,-152.803983
45966,NaN,2.732357,-9.430326,0.288826,0.066738,-0.031282,0.009472,-0.024654,0.000469,0.055415,0.069763,-0.261745,0.647947,-0.711890,-88.607796,-16.395239,-152.799332
45967,NaN,2.699931,-9.391514,0.290005,0.081426,-0.028820,-0.036860,-0.022026,-0.004366,0.054948,0.069986,-0.261592,0.648099,-0.711785,-88.622092,-16.360468,-152.792181
45968,NaN,2.674844,-9.406201,0.283806,0.099347,-0.014683,-0.029955,-0.018505,-0.007597,0.051178,0.070214,-0.261463,0.648231,-0.711690,-88.634641,-16.327780,-152.782793
45969,NaN,2.670246,-9.407562,0.281987,0.098892,-0.015044,-0.029950,-0.014348,-0.012888,0.047197,0.070447,-0.261364,0.648343,-0.711602,-88.645922,-16.297561,-152.770684
45970,NaN,2.706522,-9.469514,0.275256,0.075674,-0.019627,0.039551,-0.010377,-0.015180,0.048744,0.070702,-0.261267,0.648440,-0.711525,-88.655059,-16.266365,-152.756821
45971,NaN,2.668719,-9.463671,0.271448,0.101199,-0.004100,0.023295,-0.011200,-0.013663,0.038465,0.070911,-0.261197,0.648528,-0.711449,-88.664616,-16.241154,-152.744386
45972,NaN,2.682834,-9.455271,0.298530,0.096431,-0.038517,0.019814,-0.004183,-0.010337,0.037147,0.071116,-0.261118,0.648589,-0.711401,-88.669335,-16.216532,-152.733586
45973,NaN,2.672898,-9.489623,0.291897,0.106802,-0.025825,0.049891,-0.003625,-0.019058,0.034505,0.071338,-0.261077,0.648644,-0.711344,-88.675422,-16.193658,-152.717996
45974,NaN,2.645464,-9.446234,0.270937,0.107326,-0.003706,0.000146,0.005017,-0.019321,0.025867,0.071545,-0.261063,0.648655,-0.711319,-88.676311,-16.175614,-152.701998
45975,NaN,2.703862,-9.407396,0.283182,0.051657,-0.047497,-0.020586,0.006382,-0.029836,0.019565,0.071762,-0.261106,0.648650,-0.711285,-88.678385,-16.161440,-152.680191
45976,NaN,2.664881,-9.365624,0.186417,0.028171,0.047921,-0.073685,0.007276,-0.028232,0.016264,0.071967,-0.261154,0.648637,-0.711259,-88.679412,-16.149013,-152.659013
45977,NaN,2.656884,-9.399388,0.180607,0.038531,0.060611,-0.043604,0.010703,-0.031601,0.014208,0.072176,-0.261219,0.648610,-0.711239,-88.679274,-16.137929,-152.636230
45978,NaN,2.628939,-9.359146,0.184362,0.053200,0.063131,-0.089925,0.012492,-0.031660,0.005522,0.072360,-0.261312,0.648562,-0.711229,-88.677833,-16.131700,-152.613159
45979,NaN,2.665005,-9.362552,0.163263,0.012616,0.066465,-0.077098,0.015804,-0.025645,-0.002520,0.072497,-0.261408,0.648497,-0.711239,-88.673715,-16.130121,-152.594160
45980,NaN,2.622599,-9.392408,0.180164,0.063057,0.075489,-0.059834,0.018304,-0.014570,-0.004825,0.072597,-0.261472,0.648422,-0.711274,-88.666073,-16.129594,-152.581423
45981,NaN,2.690787,-9.406376,0.186066,0.010633,0.043298,-0.027348,0.014680,-0.008480,-0.011185,0.072646,-0.261536,0.648355,-0.711307,-88.659723,-16.132753,-152.572779
45982,NaN,2.677808,-9.363488,0.266928,0.049357,-0.027462,-0.070325,0.013843,0.002831,-0.015239,0.072646,-0.261573,0.648289,-0.711354,-88.651715,-16.137961,-152.570565
45983,NaN,2.703953,-9.407195,0.288929,0.047874,-0.050293,-0.020581,0.016001,0.003580,-0.016880,0.072637,-0.261612,0.648214,-0.711408,-88.642588,-16.144221,-152.569193
45984,NaN,2.676074,-9.369899,0.317975,0.076712,-0.067358,-0.063479,0.014735,0.004433,-0.018542,0.072622,-0.261654,0.648141,-0.711461,-88.633790,-16.151299,-152.567982
45985,NaN,2.691449,-9.389574,0.317320,0.068671,-0.069156,-0.040318,0.006537,0.002095,-0.020599,0.072592,-0.261713,0.648095,-0.711484,-88.630316,-16.159709,-152.565779
45986,NaN,2.666680,-9.435523,0.308218,0.097369,-0.041953,-0.003302,0.008060,0.004903,-0.022032,0.072554,-0.261767,0.648041,-0.711518,-88.625250,-16.168780,-152.564899
45987,NaN,2.722534,-9.428847,0.315194,0.052546,-0.072732,0.006001,0.001126,0.004977,-0.020349,0.072509,-0.261817,0.648015,-0.711527,-88.624399,-16.177008,-152.564412
45988,NaN,2.733616,-9.391157,0.297298,0.027110,-0.066521,-0.027510,0.002017,0.006579,-0.023652,0.072452,-0.261873,0.647981,-0.711543,-88.622509,-16.186983,-152.564555
45989,NaN,2.727113,-9.362903,0.251167,0.005944,-0.026252,-0.057512,-0.003395,0.009461,-0.023403,0.072376,-0.261919,0.647969,-0.711545,-88.623491,-16.196899,-152.566786
45990,NaN,2.738112,-9.325238,0.232789,-0.019490,-0.020044,-0.091025,-0.006911,0.012697,-0.019622,0.072302,-0.261943,0.647974,-0.711539,-88.625714,-16.204483,-152.570520
45991,NaN,2.746823,-9.378358,0.224938,-0.016753,-0.008807,-0.037777,-0.008269,0.016683,-0.017482,0.072217,-0.261945,0.647990,-0.711532,-88.628309,-16.210907,-152.576974
45992,NaN,2.749991,-9.351932,0.278446,0.000288,-0.061382,-0.061029,-0.008993,0.018610,-0.015548,0.072135,-0.261936,0.648010,-0.711526,-88.630757,-16.216077,-152.584179
45993,NaN,2.728724,-9.368442,0.298025,0.032376,-0.066846,-0.050672,-0.009080,0.018478,-0.013822,0.072056,-0.261921,0.648034,-0.711517,-88.633531,-16.220382,-152.591651
45994,NaN,2.723432,-9.401489,0.291694,0.042667,-0.054136,-0.020578,-0.011868,0.016520,-0.014050,0.071983,-0.261915,0.648066,-0.711498,-88.637979,-16.224723,-152.597587
45995,NaN,2.702045,-9.418061,0.310928,0.074753,-0.059596,-0.010216,-0.011319,0.014329,-0.012532,0.071919,-0.261911,0.648098,-0.711477,-88.642732,-16.228346,-152.602565
45996,NaN,2.723071,-9.404634,0.314391,0.055887,-0.074428,-0.017156,-0.010229,0.013213,-0.007420,0.071882,-0.261895,0.648131,-0.711456,-88.646817,-16.228936,-152.606434
45997,NaN,2.730971,-9.458015,0.306124,0.058604,-0.063200,0.036096,-0.011487,0.010799,-0.011160,0.071834,-0.261899,0.648165,-0.711429,-88.652260,-16.231821,-152.609287
45998,NaN,2.711615,-9.471016,0.301093,0.076485,-0.049039,0.043042,-0.014458,0.011841,-0.005863,0.071802,-0.261885,0.648214,-0.711393,-88.659002,-16.231538,-152.612313
45999,NaN,2.705119,-9.417290,0.307533,0.072866,-0.060992,-0.010210,-0.013981,0.002987,-0.006780,0.071792,-0.261903,0.648260,-0.711345,-88.667193,-16.232020,-152.610444
46000,NaN,2.764303,-9.403582,0.264567,-0.000306,-0.052614,-0.007793,-0.018385,0.001349,-0.001777,0.071803,-0.261914,0.648325,-0.711281,-88.677950,-16.229536,-152.607154
46001,NaN,2.770819,-9.370232,0.268938,-0.011524,-0.066025,-0.037897,-0.014421,0.002324,0.001842,0.071825,-0.261907,0.648383,-0.711228,-88.686537,-16.225088,-152.604771
46002,NaN,2.759470,-9.346400,0.245337,-0.018573,-0.045320,-0.064474,-0.017686,0.009218,0.002531,0.071826,-0.261876,0.648454,-0.711175,-88.695598,-16.220034,-152.606118
46003,NaN,2.730076,-9.396839,0.257931,0.024270,-0.037725,-0.023999,-0.018323,0.011277,0.002741,0.071818,-0.261836,0.648530,-0.711121,-88.704932,-16.214953,-152.609065
46004,NaN,2.756921,-9.437383,0.252959,0.008558,-0.040988,0.022304,-0.022862,0.022289,0.003852,0.071775,-0.261755,0.648626,-0.711068,-88.714786,-16.208974,-152.618193
46005,NaN,2.706437,-9.478882,0.339226,0.101520,-0.090676,0.049896,-0.022527,0.029351,0.001121,0.071696,-0.261658,0.648721,-0.711024,-88.723513,-16.204590,-152.631944
46006,NaN,2.728742,-9.462081,0.317927,0.068491,-0.085936,0.039521,-0.025961,0.032715,0.003184,0.071613,-0.261544,0.648831,-0.710975,-88.733406,-16.198865,-152.647301
46007,NaN,2.713285,-9.467897,0.264057,0.058048,-0.032630,0.039637,-0.029935,0.035007,0.001652,0.071508,-0.261427,0.648956,-0.710914,-88.745441,-16.194110,-152.664420
46008,NaN,2.698311,-9.425785,0.341649,0.096948,-0.103282,-0.003357,-0.035361,0.041148,0.003992,0.071389,-0.261283,0.649103,-0.710845,-88.759322,-16.187823,-152.684797
46009,NaN,2.702745,-9.418491,0.291176,0.068141,-0.064484,-0.010199,-0.041584,0.042552,0.005825,0.071259,-0.261130,0.649277,-0.710755,-88.776794,-16.180593,-152.706365
46010,NaN,2.719746,-9.409358,0.316498,0.063412,-0.098793,-0.013737,-0.043567,0.042068,0.004024,0.071119,-0.260979,0.649451,-0.710665,-88.794452,-16.174314,-152.728599
46011,NaN,2.727866,-9.372567,0.295185,0.038041,-0.092617,-0.047270,-0.052144,0.045709,0.013030,0.070991,-0.260795,0.649673,-0.710543,-88.817480,-16.162933,-152.751964
46012,NaN,2.722704,-9.402591,0.261418,0.034096,-0.060315,-0.020580,-0.055390,0.046081,0.009572,0.070847,-0.260620,0.649900,-0.710414,-88.841900,-16.153408,-152.775613
46013,NaN,2.674226,-9.375807,0.256529,0.067234,-0.043217,-0.059910,-0.059716,0.044571,0.012858,0.070712,-0.260444,0.650148,-0.710265,-88.869461,-16.142159,-152.798309
46014,NaN,2.640639,-9.391039,0.171472,0.060901,0.044221,-0.056237,-0.064224,0.045801,0.007740,0.070555,-0.260284,0.650403,-0.710106,-88.899053,-16.133755,-152.821080
46015,NaN,2.669072,-9.340978,0.153094,0.017173,0.035883,-0.096739,-0.062235,0.043024,0.007477,0.070402,-0.260131,0.650652,-0.709949,-88.928301,-16.125627,-152.842923
46016,NaN,2.693226,-9.385447,0.168946,0.015612,0.013026,-0.047022,-0.059161,0.042135,0.000469,0.070236,-0.260004,0.650879,-0.709804,-88.955615,-16.121418,-152.863956
46017,NaN,2.656798,-9.382390,0.186126,0.055309,0.009087,-0.059774,-0.055739,0.042034,0.000509,0.070070,-0.259874,0.651095,-0.709669,-88.981285,-16.117312,-152.885291
46018,NaN,2.596552,-9.421887,0.169196,0.109852,0.052307,-0.038852,-0.049579,0.033978,-0.003774,0.069926,-0.259785,0.651280,-0.709546,-89.004492,-16.115611,-152.901719
46019,NaN,2.588686,-9.393807,0.119320,0.088637,0.092576,-0.068832,-0.048119,0.030140,-0.007650,0.069781,-0.259722,0.651455,-0.709423,-89.027742,-16.116312,-152.916049
46020,NaN,2.614533,-9.437809,0.136030,0.087066,0.069712,-0.019114,-0.040462,0.011735,-0.020024,0.069664,-0.259763,0.651578,-0.709307,-89.049343,-16.124163,-152.919218
46021,NaN,2.582739,-9.430285,0.130199,0.112570,0.085359,-0.035274,-0.033769,0.004742,-0.020718,0.069573,-0.259827,0.651676,-0.709202,-89.068540,-16.132601,-152.918529
46022,NaN,2.632457,-9.456885,0.128114,0.078463,0.067537,0.004044,-0.025967,-0.003608,-0.030251,0.069490,-0.259951,0.651729,-0.709116,-89.084368,-16.146455,-152.912559
46023,NaN,2.655500,-9.442936,0.130154,0.059652,0.052654,-0.002931,-0.021094,-0.004287,-0.032009,0.069405,-0.260080,0.651764,-0.709045,-89.097773,-16.161443,-152.906587
46024,NaN,2.653476,-9.449951,0.176235,0.087533,0.013184,0.003917,-0.013495,-0.009658,-0.035999,0.069337,-0.260239,0.651763,-0.708994,-89.107460,-16.178641,-152.897030
46025,NaN,2.673405,-9.465162,0.149046,0.065240,0.030900,0.023643,-0.009866,-0.012730,-0.041514,0.069261,-0.260425,0.651743,-0.708952,-89.115817,-16.199147,-152.886103
46026,NaN,2.623748,-9.470206,0.141006,0.109042,0.061107,0.014474,-0.005691,-0.018000,-0.045527,0.069196,-0.260642,0.651700,-0.708918,-89.122402,-16.221865,-152.871774
46027,NaN,2.625662,-9.472919,0.164286,0.122769,0.041181,0.017903,0.002625,-0.022026,-0.049359,0.069138,-0.260882,0.651622,-0.708907,-89.125143,-16.246944,-152.855365
46028,NaN,2.727017,-9.434978,0.155656,0.027090,0.000810,0.009681,0.005353,-0.026717,-0.051580,0.069095,-0.261146,0.651528,-0.708900,-89.126855,-16.273212,-152.835789
46029,NaN,2.735969,-9.404090,0.185710,0.030126,-0.032153,-0.017026,0.007698,-0.025672,-0.056647,0.069030,-0.261421,0.651421,-0.708903,-89.127297,-16.302497,-152.817263
46030,NaN,2.786437,-9.368222,0.146343,-0.035438,-0.022425,-0.037849,0.002803,-0.021746,-0.052776,0.068964,-0.261672,0.651336,-0.708895,-89.129662,-16.329403,-152.800658
46031,NaN,2.771250,-9.380006,0.142072,-0.017567,-0.008264,-0.030860,0.010347,-0.017338,-0.050471,0.068897,-0.261896,0.651231,-0.708915,-89.127221,-16.355077,-152.787047
46032,NaN,2.745948,-9.342328,0.170162,0.011415,-0.025169,-0.073719,0.008255,-0.014706,-0.048456,0.068830,-0.262107,0.651135,-0.708933,-89.125303,-16.379449,-152.774607
46033,NaN,2.719147,-9.395475,0.207928,0.068380,-0.037092,-0.029748,0.007793,-0.012368,-0.051670,0.068739,-0.262318,0.651039,-0.708951,-89.123496,-16.405767,-152.763972
46034,NaN,2.732632,-9.422078,0.254114,0.088650,-0.078050,0.000235,0.002296,-0.012902,-0.051773,0.068646,-0.262535,0.650960,-0.708953,-89.124688,-16.432025,-152.752630
46035,NaN,2.677552,-9.460462,0.240789,0.143170,-0.034812,0.021228,-0.001753,-0.014011,-0.053662,0.068541,-0.262762,0.650895,-0.708939,-89.128634,-16.459499,-152.741028
46036,NaN,2.687904,-9.451072,0.192291,0.114258,0.003969,0.014392,-0.003575,-0.010959,-0.056808,0.068417,-0.262990,0.650831,-0.708925,-89.132858,-16.488619,-152.730924
46037,NaN,2.713400,-9.436225,0.195990,0.095471,-0.010930,0.007397,-0.002841,-0.012874,-0.058739,0.068289,-0.263229,0.650763,-0.708911,-89.137235,-16.518989,-152.720040
46038,NaN,2.725522,-9.401159,0.201419,0.084294,-0.024298,-0.022737,-0.006553,-0.010167,-0.065409,0.068127,-0.263484,0.650698,-0.708891,-89.143019,-16.553028,-152.710481
46039,NaN,2.765511,-9.406123,0.202874,0.057866,-0.040709,-0.006600,-0.010473,-0.004489,-0.066544,0.067934,-0.263722,0.650650,-0.708866,-89.150334,-16.587797,-152.704667
46040,NaN,2.740783,-9.393536,0.175163,0.069126,-0.005447,-0.026152,-0.014343,-0.005322,-0.071863,0.067723,-0.263982,0.650606,-0.708830,-89.159757,-16.625491,-152.698010
46041,NaN,2.752619,-9.449024,0.189551,0.085898,-0.013850,0.030550,-0.015641,-0.001213,-0.071409,0.067496,-0.264226,0.650570,-0.708793,-89.169471,-16.663018,-152.694185
46042,NaN,2.723296,-9.444321,0.209670,0.125577,-0.017691,0.017847,-0.013307,-0.000158,-0.076463,0.067253,-0.264483,0.650518,-0.708768,-89.177411,-16.703302,-152.690661
46043,NaN,2.739073,-9.404896,0.190546,0.100236,-0.011532,-0.015713,-0.016117,0.001124,-0.074595,0.067006,-0.264729,0.650480,-0.708734,-89.186997,-16.742633,-152.688247
46044,NaN,2.788015,-9.462821,0.183496,0.076782,-0.016417,0.053695,-0.015615,0.005229,-0.082794,0.066721,-0.264989,0.650429,-0.708711,-89.195321,-16.786501,-152.687968
46045,NaN,2.759758,-9.457869,0.203793,0.116502,-0.020278,0.040997,-0.013284,0.006287,-0.087840,0.066413,-0.265258,0.650366,-0.708697,-89.202365,-16.833378,-152.688742
46046,NaN,2.809288,-9.450054,0.133348,0.047382,0.021967,0.046859,-0.013973,0.011595,-0.085506,0.066100,-0.265503,0.650308,-0.708688,-89.208644,-16.878746,-152.692289
46047,NaN,2.829544,-9.380764,0.144982,0.025606,-0.004457,-0.013433,-0.009720,0.009752,-0.089120,0.065782,-0.265764,0.650231,-0.708691,-89.213041,-16.926329,-152.695137
46048,NaN,2.803102,-9.397148,0.087916,0.033286,0.063386,-0.006242,-0.006952,0.011731,-0.088857,0.065465,-0.266016,0.650143,-0.708706,-89.215260,-16.973617,-152.698786
46049,NaN,2.862702,-9.391654,0.118620,0.002770,0.012849,0.006280,-0.002029,0.014489,-0.090223,0.065138,-0.266261,0.650039,-0.708740,-89.214414,-17.021795,-152.704480
46050,NaN,2.852168,-9.377169,0.168680,0.038371,-0.025071,-0.010009,-0.001328,0.015834,-0.090047,0.064811,-0.266501,0.649930,-0.708779,-89.212682,-17.069733,-152.710591
46051,NaN,2.896997,-9.376968,0.147855,-0.002275,-0.021972,0.002682,0.004953,0.017890,-0.091477,0.064478,-0.266736,0.649800,-0.708840,-89.207223,-17.118602,-152.718341
46052,NaN,2.866510,-9.376018,0.194297,0.051641,-0.045337,-0.006586,0.005474,0.018950,-0.087871,0.064158,-0.266956,0.649672,-0.708904,-89.201031,-17.165270,-152.726303
46053,NaN,2.848192,-9.445918,0.130736,0.062320,0.033976,0.053903,0.008762,0.015345,-0.086490,0.063855,-0.267181,0.649534,-0.708973,-89.193837,-17.211301,-152.732500
46054,NaN,2.887936,-9.362889,0.148996,0.022237,-0.006970,-0.013426,0.013681,0.011464,-0.090316,0.063562,-0.267433,0.649370,-0.709054,-89.184250,-17.259428,-152.736005
46055,NaN,2.912774,-9.376163,0.124995,-0.000113,0.010667,0.006283,0.018287,0.010412,-0.086912,0.063286,-0.267675,0.649196,-0.709147,-89.172461,-17.305739,-152.739265
46056,NaN,2.951460,-9.409350,0.099605,-0.030168,0.026792,0.049121,0.023685,0.010850,-0.085067,0.063027,-0.267908,0.649004,-0.709258,-89.157257,-17.350860,-152.742385
46057,NaN,2.909364,-9.359374,0.179805,0.035054,-0.027614,-0.010003,0.029477,0.008815,-0.078305,0.062802,-0.268124,0.648801,-0.709382,-89.139352,-17.392253,-152.744636
46058,NaN,2.952996,-9.359261,0.161320,-0.005633,-0.024514,0.002675,0.029347,0.005276,-0.076949,0.062598,-0.268349,0.648597,-0.709501,-89.121911,-17.432772,-152.744361
46059,NaN,2.957613,-9.360956,0.188542,0.008142,-0.044432,0.006094,0.038134,0.002268,-0.075456,0.062416,-0.268576,0.648365,-0.709643,-89.100222,-17.472589,-152.742683
46060,NaN,2.891110,-9.379889,0.180907,0.070199,0.000424,0.004065,0.040487,-0.009751,-0.071550,0.062294,-0.268833,0.648124,-0.709777,-89.079118,-17.510154,-152.733353
46061,NaN,2.931630,-9.383906,0.186927,0.043779,-0.016048,0.020161,0.039729,-0.007843,-0.069603,0.062168,-0.269076,0.647891,-0.709908,-89.058354,-17.546713,-152.725574
46062,NaN,2.904262,-9.375688,0.187859,0.069247,-0.000302,0.004072,0.041602,-0.017528,-0.068899,0.062082,-0.269352,0.647647,-0.710034,-89.038038,-17.582837,-152.711567
46063,NaN,2.914464,-9.434841,0.231392,0.100210,-0.028273,0.064206,0.045112,-0.017440,-0.070567,0.061990,-0.269631,0.647391,-0.710170,-89.015932,-17.620047,-152.698055
46064,NaN,2.924265,-9.403098,0.265276,0.103337,-0.061178,0.037466,0.048474,-0.024285,-0.071261,0.061927,-0.269936,0.647117,-0.710309,-88.992908,-17.657603,-152.680021
46065,NaN,2.963521,-9.341789,0.207664,0.031266,-0.030530,-0.009999,0.050327,-0.027313,-0.068099,0.061884,-0.270240,0.646842,-0.710448,-88.969635,-17.693511,-152.660573
46066,NaN,2.992449,-9.296375,0.245815,0.016119,-0.077997,-0.043787,0.049365,-0.029080,-0.063101,0.061866,-0.270536,0.646574,-0.710581,-88.947011,-17.726456,-152.639618
46067,NaN,2.980994,-9.304259,0.221278,0.019715,-0.044279,-0.040166,0.049856,-0.031406,-0.059878,0.061865,-0.270828,0.646310,-0.710710,-88.924800,-17.757712,-152.617638
46068,NaN,2.969707,-9.286604,0.250768,0.041148,-0.062618,-0.059870,0.049620,-0.028424,-0.054367,0.061876,-0.271093,0.646053,-0.710841,-88.901962,-17.785662,-152.596965
46069,NaN,2.971562,-9.314592,0.224512,0.037063,-0.030447,-0.033122,0.048689,-0.026791,-0.049011,0.061897,-0.271334,0.645810,-0.710969,-88.879625,-17.810659,-152.577654
46070,NaN,2.995789,-9.299231,0.232532,0.018295,-0.045368,-0.040168,0.049966,-0.027626,-0.047350,0.061931,-0.271573,0.645561,-0.711100,-88.856476,-17.834596,-152.557413
46071,NaN,3.028503,-9.337264,0.232801,0.002489,-0.048853,0.006076,0.048365,-0.023943,-0.041786,0.061968,-0.271780,0.645329,-0.711228,-88.833835,-17.855435,-152.539743
46072,NaN,3.039405,-9.367283,0.306777,0.037062,-0.109352,0.039457,0.047607,-0.022032,-0.039854,0.062008,-0.271976,0.645101,-0.711357,-88.811043,-17.875028,-152.522789
46073,NaN,3.014322,-9.326572,0.314046,0.051978,-0.106625,-0.006789,0.045922,-0.018484,-0.032588,0.062056,-0.272135,0.644891,-0.711482,-88.788836,-17.890546,-152.508303
46074,NaN,3.017212,-9.325516,0.317648,0.051499,-0.106980,-0.006790,0.044950,-0.023642,-0.027960,0.062140,-0.272299,0.644688,-0.711596,-88.767917,-17.903362,-152.490192
46075,NaN,3.024395,-9.316935,0.272804,0.022556,-0.068307,-0.013632,0.039775,-0.030244,-0.021794,0.062256,-0.272467,0.644511,-0.711682,-88.751455,-17.912853,-152.468496
46076,NaN,3.004205,-9.333970,0.295028,0.054599,-0.073617,-0.003158,0.029961,-0.025778,-0.016233,0.062369,-0.272606,0.644376,-0.711741,-88.739573,-17.918991,-152.448910
46077,NaN,3.022685,-9.323487,0.325069,0.050135,-0.108097,-0.006796,0.027481,-0.027110,-0.007772,0.062508,-0.272721,0.644264,-0.711787,-88.729635,-17.920419,-152.428917
46078,NaN,3.025750,-9.319384,0.302490,0.035402,-0.088927,-0.010217,0.018529,-0.021021,-0.005484,0.062627,-0.272812,0.644186,-0.711812,-88.723456,-17.920341,-152.412146
46079,NaN,3.080135,-9.285345,0.363667,0.008660,-0.172082,-0.024560,0.009245,-0.015473,0.003635,0.062745,-0.272855,0.644157,-0.711811,-88.721857,-17.915090,-152.399006
46080,NaN,3.092603,-9.214548,0.351370,-0.027227,-0.178940,-0.088347,-0.002687,-0.008397,0.011167,0.062854,-0.272853,0.644181,-0.711780,-88.725562,-17.905315,-152.389594
46081,NaN,3.081456,-9.187751,0.303889,-0.048485,-0.138713,-0.118313,-0.020352,-0.002339,0.023718,0.062960,-0.272794,0.644289,-0.711696,-88.738569,-17.888392,-152.384095
46082,NaN,3.100691,-9.171076,0.281594,-0.081478,-0.134129,-0.128805,-0.035242,0.009124,0.036861,0.063060,-0.272658,0.644470,-0.711576,-88.757796,-17.863671,-152.384914
46083,NaN,3.120560,-9.219656,0.322732,-0.068779,-0.176692,-0.075740,-0.046646,0.017283,0.047972,0.063153,-0.272458,0.644710,-0.711426,-88.782337,-17.832609,-152.390922
46084,NaN,3.034540,-9.280684,0.325569,0.018061,-0.138251,-0.044060,-0.061548,0.015290,0.058002,0.063272,-0.272240,0.645015,-0.711223,-88.815567,-17.795715,-152.395176
46085,NaN,2.984627,-9.318149,0.359487,0.082666,-0.148509,-0.023089,-0.072810,0.020323,0.065360,0.063382,-0.271983,0.645373,-0.710986,-88.854603,-17.754664,-152.402836
46086,NaN,2.933655,-9.381528,0.338784,0.129273,-0.106686,0.021237,-0.074232,0.014225,0.064731,0.063510,-0.271750,0.645732,-0.710738,-88.895304,-17.713923,-152.406549
46087,NaN,2.932231,-9.375912,0.283999,0.100300,-0.068029,0.014401,-0.080478,0.015530,0.066572,0.063630,-0.271507,0.646117,-0.710470,-88.939605,-17.672240,-152.411371
46088,NaN,2.923007,-9.407666,0.246857,0.096109,-0.035853,0.041173,-0.081011,0.014457,0.063032,0.063742,-0.271281,0.646497,-0.710201,-88.984121,-17.632474,-152.415345
46089,NaN,2.917116,-9.409678,0.239770,0.095656,-0.036232,0.041176,-0.078870,0.015247,0.061434,0.063846,-0.271056,0.646869,-0.709939,-89.027522,-17.593744,-152.420115
46090,NaN,2.918426,-9.399826,0.161030,0.052364,0.021961,0.030922,-0.076869,0.019155,0.063621,0.063951,-0.270809,0.647236,-0.709688,-89.068811,-17.553600,-152.426927
46091,NaN,2.922961,-9.360290,0.113030,0.012817,0.047602,-0.006104,-0.067092,0.021332,0.060501,0.064048,-0.270561,0.647567,-0.709473,-89.104349,-17.515356,-152.435418
46092,NaN,2.907958,-9.334363,0.061671,-0.008517,0.087855,-0.036054,-0.059545,0.022577,0.060713,0.064155,-0.270307,0.647870,-0.709284,-89.135083,-17.476857,-152.444345
46093,NaN,2.888494,-9.316237,0.058977,-0.001275,0.089056,-0.059164,-0.054264,0.029323,0.052868,0.064216,-0.270051,0.648147,-0.709122,-89.161810,-17.442927,-152.457743
46094,NaN,2.883545,-9.317793,0.055191,-0.001775,0.088705,-0.059161,-0.045351,0.029863,0.053010,0.064291,-0.269790,0.648391,-0.708992,-89.183070,-17.408780,-152.471294
46095,NaN,2.819650,-9.360264,0.039227,0.052511,0.132096,-0.037908,-0.036825,0.026224,0.045779,0.064360,-0.269563,0.648596,-0.708885,-89.200351,-17.378945,-152.482914
46096,NaN,2.828079,-9.359858,0.113108,0.076578,0.058628,-0.034729,-0.026933,0.021882,0.038477,0.064434,-0.269371,0.648752,-0.708807,-89.212458,-17.353198,-152.491814
46097,NaN,2.782064,-9.417651,0.072782,0.108877,0.119950,0.006228,-0.017704,0.019588,0.031390,0.064500,-0.269208,0.648868,-0.708758,-89.219943,-17.331663,-152.499579
46098,NaN,2.774500,-9.426488,0.119703,0.136922,0.080590,0.013075,-0.013301,0.014655,0.023974,0.064565,-0.269085,0.648954,-0.708720,-89.225499,-17.314295,-152.504155
46099,NaN,2.772667,-9.427034,0.119164,0.136458,0.080218,0.013085,-0.004719,0.007759,0.014643,0.064627,-0.269014,0.648997,-0.708702,-89.227618,-17.302448,-152.504960
46100,NaN,2.771682,-9.427321,0.119341,0.135954,0.079873,0.013094,0.003937,0.007655,0.006058,0.064674,-0.268968,0.648995,-0.708716,-89.224520,-17.295389,-152.505490
46101,NaN,2.782917,-9.451295,0.142126,0.142059,0.058402,0.039632,0.008166,0.002437,0.002061,0.064726,-0.268952,0.648974,-0.708737,-89.220177,-17.290791,-152.503203
46102,NaN,2.805562,-9.433489,0.123779,0.109035,0.062968,0.029130,0.018323,-0.001481,-0.010387,0.064764,-0.268988,0.648897,-0.708791,-89.210414,-17.293224,-152.498441
46103,NaN,2.829825,-9.389959,0.160147,0.094087,0.015491,-0.004742,0.022101,-0.000969,-0.017213,0.064778,-0.269042,0.648799,-0.708859,-89.198647,-17.299696,-152.494269
46104,NaN,2.859887,-9.429039,0.158586,0.078163,0.011949,0.041480,0.023763,0.002152,-0.022039,0.064770,-0.269101,0.648688,-0.708939,-89.185108,-17.308772,-152.491715
46105,NaN,2.856162,-9.370973,0.145214,0.060612,0.019673,-0.015248,0.030055,-0.002421,-0.025942,0.064768,-0.269186,0.648549,-0.709033,-89.169021,-17.320260,-152.486750
46106,NaN,2.853117,-9.403632,0.142009,0.070632,0.032323,0.014962,0.035020,-0.002896,-0.029405,0.064766,-0.269283,0.648387,-0.709145,-89.149914,-17.333591,-152.481322
46107,NaN,2.914995,-9.361765,0.158430,0.015472,-0.011856,-0.006334,0.040333,-0.002588,-0.025867,0.064779,-0.269365,0.648212,-0.709272,-89.127968,-17.345039,-152.476264
46108,NaN,2.917511,-9.360915,0.162297,0.014977,-0.012207,-0.006334,0.044510,-0.004551,-0.027767,0.064800,-0.269459,0.648017,-0.709412,-89.103715,-17.357470,-152.469702
46109,NaN,2.934213,-9.379863,0.164603,0.006804,-0.014190,0.016773,0.044576,0.002243,-0.027020,0.064799,-0.269527,0.647828,-0.709560,-89.078468,-17.369539,-152.467564
46110,NaN,2.930426,-9.321777,0.152969,-0.010769,-0.006437,-0.039962,0.047074,0.003817,-0.021640,0.064820,-0.269572,0.647634,-0.709718,-89.051274,-17.378396,-152.465831
46111,NaN,2.963618,-9.331213,0.183899,-0.022881,-0.042526,-0.020545,0.046810,0.003397,-0.016499,0.064856,-0.269600,0.647451,-0.709871,-89.024569,-17.384429,-152.464291
46112,NaN,2.962925,-9.309069,0.266486,0.008994,-0.114372,-0.040506,0.049133,0.004695,-0.007697,0.064924,-0.269595,0.647270,-0.710032,-88.996084,-17.385265,-152.463172
46113,NaN,2.985463,-9.291198,0.251219,-0.023970,-0.109860,-0.051037,0.043872,0.001355,0.000537,0.065023,-0.269577,0.647119,-0.710167,-88.971482,-17.381561,-152.460231
46114,NaN,2.974556,-9.332578,0.297032,0.014633,-0.136210,-0.013991,0.040096,0.000854,0.007361,0.065146,-0.269540,0.646989,-0.710288,-88.948909,-17.373821,-152.456576
46115,NaN,2.934085,-9.360194,0.292073,0.050633,-0.107373,0.000228,0.037650,-0.003745,0.013757,0.065300,-0.269499,0.646876,-0.710392,-88.928829,-17.362599,-152.450424
46116,NaN,2.889904,-9.326695,0.246667,0.055229,-0.050901,-0.045703,0.035729,-0.007514,0.009885,0.065453,-0.269485,0.646762,-0.710487,-88.910277,-17.353506,-152.441654
46117,NaN,2.889606,-9.301176,0.303433,0.072878,-0.103257,-0.069084,0.029455,-0.009593,0.011335,0.065606,-0.269475,0.646674,-0.710558,-88.895930,-17.343739,-152.432013
46118,NaN,2.879625,-9.364654,0.269876,0.079082,-0.058124,-0.012065,0.027285,-0.003720,0.015399,0.065755,-0.269433,0.646598,-0.710628,-88.881552,-17.331447,-152.425489
46119,NaN,2.880910,-9.361072,0.248154,0.064334,-0.039007,-0.015482,0.023422,-0.004602,0.010090,0.065880,-0.269411,0.646531,-0.710686,-88.869763,-17.322342,-152.418854
46120,NaN,2.832100,-9.335306,0.249425,0.097520,-0.021505,-0.054564,0.021568,-0.001577,0.006943,0.065984,-0.269391,0.646465,-0.710744,-88.858240,-17.314883,-152.413645
46121,NaN,2.862255,-9.371224,0.223766,0.067309,-0.005628,-0.011776,0.017565,0.000664,0.005418,0.066067,-0.269367,0.646414,-0.710792,-88.848850,-17.308396,-152.410223
46122,NaN,2.884034,-9.353755,0.205485,0.034302,-0.001102,-0.022313,0.012198,0.003607,0.003954,0.066132,-0.269341,0.646379,-0.710828,-88.841749,-17.302587,-152.408247
46123,NaN,2.870511,-9.399004,0.272730,0.087238,-0.046951,0.018166,0.011480,0.008918,0.006239,0.066182,-0.269287,0.646354,-0.710867,-88.834375,-17.295535,-152.409766
46124,NaN,2.895359,-9.351891,0.284238,0.058061,-0.074908,-0.019181,0.010204,0.009756,0.004590,0.066227,-0.269239,0.646328,-0.710904,-88.827334,-17.289297,-152.411317
46125,NaN,2.869892,-9.399125,0.275068,0.086299,-0.047674,0.018171,0.004524,0.015295,-0.003512,0.066213,-0.269196,0.646316,-0.710932,-88.822774,-17.287756,-152.416779
46126,NaN,2.879189,-9.426613,0.322095,0.106687,-0.088622,0.048108,0.002985,0.015723,-0.000026,0.066213,-0.269143,0.646313,-0.710956,-88.818788,-17.284084,-152.422043
46127,NaN,2.867503,-9.402915,0.300365,0.099665,-0.067883,0.021593,-0.001139,0.014430,-0.000204,0.066206,-0.269095,0.646325,-0.710963,-88.817639,-17.280657,-152.426945
46128,NaN,2.886501,-9.415060,0.250821,0.062823,-0.030893,0.037858,-0.004653,0.014348,0.001480,0.066204,-0.269044,0.646350,-0.710960,-88.818284,-17.276135,-152.431370
46129,NaN,2.885849,-9.324372,0.240501,0.034865,-0.036134,-0.049114,-0.004741,0.014212,0.003193,0.066205,-0.268987,0.646380,-0.710954,-88.819251,-17.270765,-152.436098
46130,NaN,2.893633,-9.287083,0.222317,0.009603,-0.029989,-0.082762,-0.008166,0.014267,0.003165,0.066205,-0.268932,0.646420,-0.710939,-88.821916,-17.265279,-152.440538
46131,NaN,2.873046,-9.326659,0.164092,0.009195,0.036211,-0.052232,-0.003133,0.020580,0.000435,0.066178,-0.268861,0.646442,-0.710948,-88.820819,-17.261414,-152.449120
46132,NaN,2.865076,-9.364002,0.182554,0.033474,0.029365,-0.018580,-0.000108,0.022984,-0.004458,0.066133,-0.268797,0.646446,-0.710972,-88.817309,-17.260183,-152.458855
46133,NaN,2.813540,-9.410549,0.294755,0.140988,-0.039163,0.012785,0.002864,0.028650,-0.007275,0.066060,-0.268720,0.646440,-0.711014,-88.811311,-17.260638,-152.472374
46134,NaN,2.836695,-9.392685,0.276001,0.107985,-0.034653,0.002234,0.002364,0.020916,-0.013285,0.065995,-0.268691,0.646422,-0.711047,-88.806710,-17.264497,-152.480919
46135,NaN,2.787038,-9.395947,0.245958,0.137354,0.015347,-0.009994,0.002597,0.017928,-0.018782,0.065916,-0.268689,0.646397,-0.711078,-88.802730,-17.271669,-152.488150
46136,NaN,2.884478,-9.356501,0.238379,0.042018,-0.025670,-0.018876,0.008140,0.015259,-0.020733,0.065850,-0.268703,0.646347,-0.711124,-88.795794,-17.279864,-152.493366
46137,NaN,2.855013,-9.345917,0.213075,0.053188,0.009703,-0.038244,0.008838,0.016608,-0.020579,0.065777,-0.268710,0.646298,-0.711173,-88.788464,-17.288080,-152.499830
46138,NaN,2.907470,-9.367371,0.191399,0.004689,0.010910,-0.002615,0.011565,0.015206,-0.020698,0.065715,-0.268722,0.646236,-0.711231,-88.779590,-17.296236,-152.505100
46139,NaN,2.876176,-9.334765,0.244381,0.048373,-0.025129,-0.041967,0.014471,0.014077,-0.024237,0.065645,-0.268748,0.646160,-0.711296,-88.769468,-17.306577,-152.510096
46140,NaN,2.884377,-9.391280,0.262277,0.064896,-0.033614,0.014785,0.010290,0.016043,-0.022345,0.065573,-0.268762,0.646101,-0.711351,-88.761145,-17.315668,-152.515985
46141,NaN,2.866769,-9.404323,0.259531,0.082633,-0.019357,0.021936,0.015683,0.006444,-0.023307,0.065532,-0.268812,0.646020,-0.711410,-88.751692,-17.325569,-152.516393
46142,NaN,2.883345,-9.397647,0.313304,0.092603,-0.073285,0.021623,0.012686,0.007437,-0.018054,0.065508,-0.268844,0.645954,-0.711459,-88.743565,-17.332324,-152.516788
46143,NaN,2.929539,-9.361901,0.275393,0.027131,-0.063983,0.000487,0.014717,0.004687,-0.018323,0.065489,-0.268884,0.645883,-0.711511,-88.734999,-17.339392,-152.516079
46144,NaN,2.956171,-9.314129,0.286921,-0.001974,-0.091952,-0.036911,0.009569,0.004895,-0.011453,0.065491,-0.268903,0.645837,-0.711545,-88.729119,-17.342388,-152.515076
46145,NaN,2.942715,-9.294063,0.289603,0.005334,-0.090676,-0.060006,0.008543,0.006402,-0.004400,0.065508,-0.268894,0.645807,-0.711574,-88.723839,-17.341459,-152.515212
46146,NaN,2.917788,-9.341247,0.280069,0.033462,-0.063406,-0.022606,0.002967,0.005668,-0.002815,0.065530,-0.268886,0.645796,-0.711585,-88.721631,-17.339508,-152.514473
46147,NaN,2.867269,-9.319185,0.303576,0.081037,-0.065300,-0.058213,0.004151,0.004696,0.000547,0.065564,-0.268868,0.645787,-0.711597,-88.719192,-17.335768,-152.513519
46148,NaN,2.858775,-9.382439,0.268057,0.087069,-0.020216,-0.001132,0.001483,0.002834,-0.001407,0.065599,-0.268867,0.645782,-0.711598,-88.718372,-17.333049,-152.510882
46149,NaN,2.884311,-9.335040,0.278324,0.058019,-0.048210,-0.038538,-0.002459,0.001807,-0.005014,0.065614,-0.268880,0.645789,-0.711586,-88.720214,-17.332530,-152.508269
46150,NaN,2.898770,-9.354763,0.276464,0.049769,-0.050219,-0.015448,-0.003974,0.005634,-0.001171,0.065630,-0.268866,0.645806,-0.711574,-88.721998,-17.329607,-152.507828
46151,NaN,2.867692,-9.344795,0.249722,0.060922,-0.014825,-0.034790,-0.001762,0.003156,-0.004862,0.065642,-0.268874,0.645811,-0.711566,-88.723200,-17.328984,-152.506022
46152,NaN,2.868214,-9.344638,0.249600,0.060433,-0.015172,-0.034787,-0.003037,0.003992,-0.006513,0.065648,-0.268885,0.645816,-0.711557,-88.724721,-17.329166,-152.504387
46153,NaN,2.905245,-9.346666,0.228030,0.019710,-0.012389,-0.022280,-0.004401,0.004692,-0.006454,0.065646,-0.268893,0.645828,-0.711543,-88.727153,-17.329435,-152.503524
46154,NaN,2.914855,-9.373991,0.274245,0.040131,-0.053333,0.007641,0.000299,0.003806,-0.004769,0.065663,-0.268898,0.645824,-0.711543,-88.726814,-17.328615,-152.501739
46155,NaN,2.901299,-9.354004,0.275641,0.047446,-0.052042,-0.015446,-0.007097,-0.000569,-0.008772,0.065666,-0.268933,0.645841,-0.711514,-88.731723,-17.330279,-152.497750
46156,NaN,2.867857,-9.347840,0.272459,0.072895,-0.036078,-0.031361,-0.006704,0.007033,-0.001053,0.065677,-0.268918,0.645867,-0.711495,-88.734843,-17.327299,-152.497677
46157,NaN,2.865492,-9.351649,0.295805,0.086786,-0.055912,-0.027943,-0.010067,0.003821,-0.003160,0.065682,-0.268920,0.645904,-0.711460,-88.740691,-17.325693,-152.496248
46158,NaN,2.905387,-9.324010,0.303490,0.049968,-0.085556,-0.042287,-0.009944,-0.002703,-0.007306,0.065698,-0.268961,0.645930,-0.711420,-88.747380,-17.326415,-152.490446
46159,NaN,2.857941,-9.298018,0.301367,0.083224,-0.067935,-0.081283,-0.012124,-0.006887,-0.006052,0.065724,-0.269011,0.645967,-0.711365,-88.756309,-17.326598,-152.482630
46160,NaN,2.886825,-9.337503,0.296469,0.067200,-0.071629,-0.035112,-0.017004,-0.006274,-0.004315,0.065752,-0.269055,0.646022,-0.711296,-88.767682,-17.325633,-152.474899
46161,NaN,2.870162,-9.347308,0.266376,0.070570,-0.037895,-0.031351,-0.018278,-0.005438,-0.005965,0.065765,-0.269102,0.646081,-0.711223,-88.779878,-17.325746,-152.467951
46162,NaN,2.882549,-9.370797,0.286649,0.076657,-0.059375,-0.004849,-0.021525,-0.005115,-0.009417,0.065765,-0.269161,0.646145,-0.711143,-88.793613,-17.327698,-152.460864
46163,NaN,2.880535,-9.400253,0.254516,0.072248,-0.027319,0.021999,-0.022772,-0.000880,-0.010702,0.065741,-0.269209,0.646215,-0.711063,-88.807551,-17.330466,-152.456710
46164,NaN,2.881705,-9.399957,0.252202,0.071752,-0.027669,0.022001,-0.026018,-0.000557,-0.014153,0.065702,-0.269267,0.646291,-0.710976,-88.823020,-17.335056,-152.452670
46165,NaN,2.930462,-9.334649,0.240419,0.010251,-0.050873,-0.026044,-0.026019,-0.000557,-0.014150,0.065661,-0.269325,0.646368,-0.710888,-88.838750,-17.339794,-152.448751
46166,NaN,2.892116,-9.361919,0.229259,0.046076,-0.021911,-0.011676,-0.029659,0.005876,-0.008320,0.065618,-0.269344,0.646466,-0.710795,-88.855169,-17.340993,-152.448230
46167,NaN,2.934824,-9.330313,0.211231,-0.005038,-0.032147,-0.029463,-0.031052,0.003177,-0.008622,0.065577,-0.269373,0.646569,-0.710694,-88.873135,-17.342520,-152.446484
46168,NaN,2.834389,-9.286324,0.254783,0.090596,-0.035349,-0.100580,-0.027510,0.006664,-0.009932,0.065530,-0.269395,0.646657,-0.710610,-88.888199,-17.344629,-152.446367
46169,NaN,2.855531,-9.388777,0.212915,0.080986,0.006302,0.002705,-0.027241,0.007079,-0.015058,0.065459,-0.269429,0.646740,-0.710528,-88.903262,-17.349798,-152.447036
46170,NaN,2.823209,-9.382343,0.208069,0.106424,0.022299,-0.013181,-0.023662,0.003909,-0.018811,0.065394,-0.269488,0.646802,-0.710456,-88.916588,-17.357023,-152.445352
46171,NaN,2.819753,-9.415325,0.200122,0.116338,0.034897,0.017096,-0.017933,0.001530,-0.024182,0.065321,-0.269569,0.646837,-0.710399,-88.927281,-17.367479,-152.442790
46172,NaN,2.850724,-9.454135,0.195194,0.100279,0.031169,0.063261,-0.013569,-0.000150,-0.029491,0.065245,-0.269673,0.646847,-0.710358,-88.935518,-17.380865,-152.438765
46173,NaN,2.808616,-9.397861,0.223207,0.137525,0.016420,-0.002553,-0.010480,-0.000991,-0.036448,0.065147,-0.269800,0.646839,-0.710326,-88.942354,-17.398374,-152.434823
46174,NaN,2.843346,-9.432349,0.194842,0.107104,0.032142,0.040195,-0.006165,-0.009464,-0.042493,0.065064,-0.269977,0.646802,-0.710300,-88.947941,-17.419319,-152.425437
46175,NaN,2.813715,-9.425115,0.191944,0.132574,0.048124,0.024321,0.006417,-0.011930,-0.047798,0.064984,-0.270174,0.646715,-0.710312,-88.947030,-17.443444,-152.415048
46176,NaN,2.838113,-9.409880,0.196631,0.113928,0.033113,0.017130,0.010645,-0.020540,-0.052129,0.064923,-0.270414,0.646602,-0.710329,-88.944970,-17.469986,-152.399479
46177,NaN,2.851239,-9.370800,0.179346,0.088753,0.039215,-0.016556,0.016351,-0.026309,-0.057859,0.064867,-0.270691,0.646462,-0.710356,-88.940938,-17.500027,-152.380565
46178,NaN,2.859311,-9.365158,0.156226,0.073893,0.058313,-0.019966,0.018476,-0.028914,-0.059831,0.064818,-0.270984,0.646307,-0.710389,-88.935888,-17.531099,-152.359774
46179,NaN,2.918594,-9.355419,0.164081,0.029369,0.026902,-0.011290,0.019255,-0.027424,-0.061375,0.064757,-0.271276,0.646151,-0.710426,-88.930402,-17.563170,-152.340228
46180,NaN,2.919573,-9.361387,0.213083,0.057610,-0.012334,-0.004456,0.021468,-0.029890,-0.065052,0.064699,-0.271590,0.645978,-0.710468,-88.923834,-17.597258,-152.318681
46181,NaN,2.937497,-9.383076,0.236653,0.063734,-0.033857,0.022037,0.022889,-0.020392,-0.064004,0.064610,-0.271864,0.645807,-0.710527,-88.915000,-17.630763,-152.303392
46182,NaN,2.971105,-9.329701,0.224465,0.020390,-0.042403,-0.018866,0.021676,-0.022817,-0.067708,0.064516,-0.272157,0.645633,-0.710581,-88.907005,-17.666269,-152.286718
46183,NaN,2.977252,-9.327709,0.225791,0.019941,-0.042784,-0.018866,0.018123,-0.012862,-0.063218,0.064400,-0.272404,0.645483,-0.710634,-88.899545,-17.699245,-152.275951
46184,NaN,2.958484,-9.347580,0.270588,0.066333,-0.067341,-0.004826,0.013846,-0.011055,-0.059609,0.064291,-0.272637,0.645350,-0.710676,-88.893959,-17.730042,-152.265429
46185,NaN,2.978741,-9.339684,0.323513,0.076498,-0.121270,-0.005205,0.007007,-0.007586,-0.059294,0.064156,-0.272855,0.645246,-0.710698,-88.891926,-17.760714,-152.257793
46186,NaN,3.032289,-9.363388,0.324615,0.042296,-0.139713,0.033727,0.003247,-0.004705,-0.052126,0.064037,-0.273043,0.645163,-0.710712,-88.891273,-17.787131,-152.251320
46187,NaN,3.013452,-9.288965,0.333665,0.047113,-0.149638,-0.042708,-0.009941,-0.003494,-0.048670,0.063904,-0.273218,0.645135,-0.710682,-88.898243,-17.811672,-152.246019
46188,NaN,3.059042,-9.281558,0.263079,-0.022415,-0.108074,-0.037102,-0.014305,-0.001829,-0.043362,0.063782,-0.273373,0.645127,-0.710640,-88.907173,-17.833026,-152.241172
46189,NaN,3.040387,-9.298381,0.281126,0.009645,-0.113217,-0.026474,-0.021825,0.003926,-0.029042,0.063679,-0.273462,0.645171,-0.710576,-88.919659,-17.846240,-152.240102
46190,NaN,3.059763,-9.313332,0.253061,-0.013016,-0.095849,-0.006822,-0.031587,0.005097,-0.025560,0.063573,-0.273538,0.645252,-0.710483,-88.937225,-17.857322,-152.239536
46191,NaN,3.086333,-9.265238,0.260153,-0.041908,-0.123875,-0.044337,-0.043052,0.009801,-0.014829,0.063471,-0.273567,0.645392,-0.710354,-88.960840,-17.862332,-152.241837
46192,NaN,3.067537,-9.279062,0.251964,-0.024262,-0.109554,-0.037122,-0.049121,0.014994,-0.002272,0.063395,-0.273542,0.645569,-0.710209,-88.986753,-17.859985,-152.246519
46193,NaN,3.042832,-9.301154,0.291029,0.022177,-0.134123,-0.023075,-0.059824,0.017787,0.006547,0.063321,-0.273478,0.645800,-0.710030,-89.018574,-17.852672,-152.253397
46194,NaN,3.058766,-9.317278,0.259927,-0.000492,-0.116766,-0.003424,-0.068977,0.023564,0.012264,0.063239,-0.273379,0.646071,-0.709828,-89.054302,-17.841900,-152.263518
46195,NaN,3.023068,-9.312336,0.251416,0.024985,-0.100748,-0.019272,-0.073024,0.019214,0.023821,0.063203,-0.273259,0.646373,-0.709603,-89.093474,-17.824685,-152.271096
46196,NaN,3.023225,-9.309249,0.220971,0.010118,-0.081668,-0.022690,-0.077242,0.014355,0.024994,0.063186,-0.273156,0.646687,-0.709358,-89.135663,-17.806744,-152.275288
46197,NaN,3.044983,-9.288310,0.170435,-0.037215,-0.057880,-0.036751,-0.082477,0.014371,0.033577,0.063188,-0.273025,0.647034,-0.709092,-89.181165,-17.783992,-152.279890
46198,NaN,2.999945,-9.321461,0.178480,0.012911,-0.048296,-0.018880,-0.082721,0.020738,0.039461,0.063193,-0.272852,0.647390,-0.708833,-89.225379,-17.757688,-152.288021
46199,NaN,2.976209,-9.362201,0.112952,0.012104,0.017817,0.011818,-0.080252,0.018924,0.044471,0.063222,-0.272669,0.647745,-0.708577,-89.268792,-17.728667,-152.295312
46200,NaN,2.993856,-9.345700,0.086454,-0.020894,0.022205,0.001172,-0.080521,0.018493,0.049612,0.063273,-0.272471,0.648106,-0.708318,-89.312144,-17.696590,-152.302089
46201,NaN,2.938239,-9.325982,0.102929,0.026769,0.020542,-0.034312,-0.075907,0.017476,0.053006,0.063343,-0.272263,0.648457,-0.708071,-89.353344,-17.662700,-152.308492
46202,NaN,2.942470,-9.380784,0.088219,0.028759,0.031420,0.019058,-0.074455,0.016928,0.051256,0.063413,-0.272063,0.648797,-0.707830,-89.393501,-17.629709,-152.314301
46203,NaN,2.901075,-9.380716,0.103729,0.068610,0.028035,0.006647,-0.062867,0.022770,0.053748,0.063486,-0.271830,0.649104,-0.707631,-89.426261,-17.595370,-152.323927
46204,NaN,2.859282,-9.405896,0.065900,0.089926,0.076485,0.017714,-0.054768,0.015062,0.054688,0.063600,-0.271618,0.649380,-0.707450,-89.455506,-17.560383,-152.328977
46205,NaN,2.893736,-9.379701,0.070481,0.053251,0.046724,0.003241,-0.048146,0.017763,0.046441,0.063683,-0.271421,0.649623,-0.707294,-89.480727,-17.530266,-152.335669
46206,NaN,2.892255,-9.376797,0.042963,0.038355,0.065799,-0.000170,-0.037542,0.011441,0.038925,0.063778,-0.271269,0.649813,-0.707169,-89.500708,-17.504380,-152.338260
46207,NaN,2.896463,-9.340251,0.022640,0.013209,0.071885,-0.033887,-0.028646,0.008619,0.038685,0.063890,-0.271124,0.649974,-0.707067,-89.516395,-17.478757,-152.339519
46208,NaN,2.870910,-9.359292,0.040185,0.045201,0.066810,-0.023224,-0.017401,0.010289,0.033796,0.063996,-0.270985,0.650087,-0.707007,-89.525028,-17.455789,-152.341801
46209,NaN,2.877048,-9.388300,0.085095,0.065715,0.025852,0.006673,-0.009108,0.006262,0.031685,0.064118,-0.270865,0.650168,-0.706967,-89.529933,-17.434188,-152.341688
46210,NaN,2.860052,-9.369431,0.086477,0.073028,0.027246,-0.016385,-0.004757,0.001222,0.025975,0.064243,-0.270778,0.650223,-0.706938,-89.532951,-17.415737,-152.338581
46211,NaN,2.838625,-9.358720,0.135803,0.109187,-0.010222,-0.032613,-0.006348,0.004703,0.017734,0.064324,-0.270708,0.650275,-0.706910,-89.536534,-17.402136,-152.337602
46212,NaN,2.856707,-9.370457,0.085884,0.072064,0.026524,-0.016376,0.002867,-0.004325,0.009882,0.064421,-0.270692,0.650279,-0.706904,-89.536149,-17.392947,-152.331085
46213,NaN,2.855997,-9.370671,0.086149,0.071602,0.026147,-0.016372,0.003852,0.000863,0.005305,0.064484,-0.270673,0.650277,-0.706907,-89.534558,-17.386485,-152.327862
46214,NaN,2.859317,-9.432387,0.126180,0.102354,-0.001827,0.043836,0.007280,0.000820,0.005328,0.064556,-0.270653,0.650261,-0.706923,-89.530735,-17.379890,-152.324231
46215,NaN,2.844950,-9.412691,0.129008,0.109716,-0.000455,0.020781,0.011831,-0.000531,-0.003414,0.064604,-0.270664,0.650218,-0.706954,-89.524809,-17.378430,-152.320214
46216,NaN,2.862615,-9.402887,0.158706,0.105527,-0.034918,0.016945,0.016202,-0.002177,-0.008740,0.064646,-0.270697,0.650150,-0.707000,-89.516400,-17.379887,-152.315043
46217,NaN,2.829687,-9.396644,0.157495,0.130984,-0.018841,0.001147,0.014321,-0.002536,-0.012245,0.064673,-0.270743,0.650086,-0.707038,-89.509394,-17.383497,-152.309866
46218,NaN,2.855796,-9.374072,0.115598,0.083577,0.004938,-0.012935,0.017345,-0.000090,-0.017117,0.064680,-0.270795,0.650004,-0.707093,-89.499908,-17.389744,-152.306198
46219,NaN,2.855181,-9.377632,0.140902,0.097526,-0.014850,-0.009516,0.012216,-0.000113,-0.024060,0.064654,-0.270871,0.649933,-0.707132,-89.493655,-17.400113,-152.302539
46220,NaN,2.879617,-9.358954,0.122880,0.064528,-0.010487,-0.020188,0.018377,-0.001547,-0.024169,0.064642,-0.270951,0.649837,-0.707191,-89.483832,-17.410415,-152.297938
46221,NaN,2.848330,-9.352236,0.121787,0.089985,0.005597,-0.035980,0.012683,0.004017,-0.032208,0.064574,-0.271039,0.649754,-0.707240,-89.476557,-17.425432,-152.296806
46222,NaN,2.882723,-9.361334,0.149649,0.077976,-0.030623,-0.016768,0.014050,0.003322,-0.032272,0.064511,-0.271127,0.649664,-0.707294,-89.468331,-17.440324,-152.295435
46223,NaN,2.936682,-9.381730,0.127730,0.029358,-0.029819,0.018667,0.012168,0.002961,-0.035774,0.064434,-0.271231,0.649578,-0.707341,-89.461534,-17.457389,-152.293693
46224,NaN,2.874933,-9.339595,0.154141,0.084853,-0.029587,-0.039819,0.013535,0.002265,-0.035837,0.064362,-0.271337,0.649484,-0.707392,-89.453799,-17.474350,-152.291415
46225,NaN,2.890146,-9.362349,0.177401,0.090977,-0.051133,-0.013346,0.011564,0.001756,-0.037631,0.064281,-0.271451,0.649397,-0.707436,-89.447563,-17.492487,-152.288964
46226,NaN,2.910796,-9.351522,0.206785,0.086818,-0.085596,-0.017199,0.007549,0.003987,-0.039133,0.064185,-0.271564,0.649320,-0.707472,-89.442951,-17.511338,-152.287563
46227,NaN,2.907648,-9.318275,0.137823,0.050953,-0.025993,-0.050496,0.010194,0.002452,-0.037556,0.064100,-0.271676,0.649238,-0.707512,-89.437373,-17.529428,-152.285532
46228,NaN,2.937448,-9.360601,0.158634,0.049197,-0.049279,-0.000972,0.001473,0.005559,-0.040723,0.063985,-0.271790,0.649182,-0.707530,-89.435936,-17.549175,-152.285268
46229,NaN,2.929184,-9.310488,0.191188,0.060763,-0.080238,-0.050939,0.003084,0.005484,-0.032098,0.063900,-0.271876,0.649133,-0.707550,-89.433893,-17.564121,-152.285029
46230,NaN,2.966066,-9.340525,0.139547,0.015755,-0.045320,-0.011661,-0.005756,0.001649,-0.034326,0.063811,-0.271987,0.649109,-0.707537,-89.437329,-17.580253,-152.282012
46231,NaN,2.944226,-9.387014,0.128182,0.043603,-0.018047,0.025945,-0.007380,0.005299,-0.028756,0.063724,-0.272066,0.649101,-0.707521,-89.441322,-17.593285,-152.281641
46232,NaN,2.935076,-9.362379,0.105714,0.036523,0.002777,-0.000520,-0.005322,0.005957,-0.028662,0.063641,-0.272142,0.649085,-0.707514,-89.443723,-17.606132,-152.281440
46233,NaN,2.966543,-9.375629,0.155619,0.038998,-0.052895,0.022082,-0.010208,0.006538,-0.026913,0.063553,-0.272212,0.649091,-0.707491,-89.449115,-17.618101,-152.281801
46234,NaN,2.959614,-9.346932,0.108992,0.017495,-0.012674,-0.007798,-0.010953,0.015228,-0.024213,0.063448,-0.272242,0.649104,-0.707476,-89.453077,-17.628339,-152.287161
46235,NaN,3.005971,-9.310122,0.069773,-0.047946,-0.003694,-0.029192,-0.006925,0.016400,-0.022322,0.063348,-0.272261,0.649107,-0.707475,-89.454800,-17.637624,-152.293422
46236,NaN,2.946856,-9.330152,0.134106,0.038809,-0.031033,-0.027433,-0.013070,0.024610,-0.021444,0.063219,-0.272249,0.649135,-0.707466,-89.458274,-17.646207,-152.304580
46237,NaN,2.985177,-9.331127,0.112516,-0.001985,-0.028516,-0.015083,-0.007774,0.021547,-0.018297,0.063115,-0.272236,0.649148,-0.707468,-89.459551,-17.653159,-152.313913
46238,NaN,2.911033,-9.356952,0.124467,0.073982,-0.002321,-0.012857,-0.012162,0.019786,-0.013366,0.063032,-0.272215,0.649181,-0.707453,-89.463356,-17.657172,-152.322040
46239,NaN,2.946372,-9.362232,0.126606,0.047614,-0.019203,0.002907,-0.010613,0.019388,-0.016840,0.062937,-0.272207,0.649206,-0.707442,-89.466654,-17.663302,-152.330067
46240,NaN,2.962265,-9.381389,0.124297,0.039267,-0.021349,0.025957,-0.010024,0.017197,-0.015359,0.062859,-0.272203,0.649228,-0.707430,-89.469799,-17.668446,-152.336297
46241,NaN,2.929749,-9.375246,0.121276,0.064719,-0.005225,0.010202,-0.007974,0.014461,-0.015650,0.062788,-0.272207,0.649244,-0.707420,-89.472485,-17.673921,-152.341354
46242,NaN,2.939039,-9.337026,0.103728,0.039576,0.000876,-0.023550,-0.002307,0.015385,-0.018937,0.062712,-0.272215,0.649234,-0.707433,-89.471478,-17.681109,-152.347036
46243,NaN,2.935592,-9.370039,0.097436,0.049322,0.013431,0.006794,-0.005137,0.016621,-0.017099,0.062632,-0.272215,0.649238,-0.707436,-89.472140,-17.687402,-152.353400
46244,NaN,2.956963,-9.355527,0.102271,0.030760,-0.001639,-0.000500,0.001982,0.013606,-0.022542,0.062554,-0.272240,0.649207,-0.707462,-89.468935,-17.696690,-152.358136
46245,NaN,2.908178,-9.358934,0.071742,0.059829,0.048610,-0.012364,0.003344,0.009518,-0.022993,0.062488,-0.272282,0.649171,-0.707484,-89.466023,-17.706397,-152.360262
46246,NaN,2.927315,-9.348492,0.100636,0.055705,0.014142,-0.016244,0.002641,0.001374,-0.023924,0.062445,-0.272354,0.649133,-0.707496,-89.464708,-17.716516,-152.357711
46247,NaN,2.912487,-9.332392,0.126604,0.077541,-0.003835,-0.035872,0.001855,-0.003522,-0.022765,0.062421,-0.272441,0.649099,-0.707496,-89.465037,-17.726163,-152.351993
46248,NaN,2.931717,-9.347109,0.100999,0.054739,0.013411,-0.016237,0.004685,-0.004756,-0.024599,0.062397,-0.272536,0.649050,-0.707506,-89.463662,-17.736698,-152.345865
46249,NaN,2.965242,-9.356255,0.127916,0.042811,-0.022882,0.002921,0.005192,-0.003699,-0.021030,0.062384,-0.272617,0.649006,-0.707516,-89.462117,-17.745352,-152.340031
46250,NaN,2.972672,-9.347157,0.080700,0.013430,0.015545,-0.003905,0.010352,-0.003828,-0.027882,0.062356,-0.272720,0.648933,-0.707546,-89.457311,-17.757810,-152.334053
46251,NaN,2.967288,-9.358947,0.153543,0.056296,-0.042998,0.006337,0.012835,0.004537,-0.021744,0.062324,-0.272772,0.648863,-0.707593,-89.449874,-17.766829,-152.333179
46252,NaN,2.993861,-9.310763,0.165654,0.027570,-0.071018,-0.031320,0.009407,0.004565,-0.021770,0.062290,-0.272826,0.648804,-0.707629,-89.444142,-17.775715,-152.332094
46253,NaN,2.990788,-9.343664,0.160475,0.037299,-0.058470,-0.000970,0.010790,0.014063,-0.020678,0.062228,-0.272842,0.648746,-0.707682,-89.436129,-17.784070,-152.336948
46254,NaN,2.983185,-9.289923,0.169942,0.034488,-0.069952,-0.054365,0.006584,0.012590,-0.019161,0.062172,-0.272859,0.648703,-0.707719,-89.430517,-17.791420,-152.340800
46255,NaN,2.994100,-9.317317,0.216732,0.055063,-0.110903,-0.024497,0.002291,0.014365,-0.015557,0.062116,-0.272860,0.648683,-0.707743,-89.427326,-17.796839,-152.345807
46256,NaN,3.012519,-9.332268,0.191281,0.032260,-0.093683,-0.004871,-0.003288,0.010185,-0.014362,0.062073,-0.272874,0.648680,-0.707743,-89.427856,-17.801449,-152.348014
46257,NaN,2.971982,-9.338839,0.260169,0.101058,-0.135669,-0.010358,-0.006898,0.009917,-0.010984,0.062034,-0.272879,0.648697,-0.707730,-89.430755,-17.804273,-152.350317
46258,NaN,2.992501,-9.349792,0.209751,0.063799,-0.099065,0.005855,-0.013254,0.004236,-0.008247,0.062017,-0.272896,0.648736,-0.707688,-89.438063,-17.805413,-152.349149
46259,NaN,2.998002,-9.316102,0.215023,0.053180,-0.112375,-0.024503,-0.014895,0.007879,-0.002686,0.062004,-0.272884,0.648792,-0.707643,-89.445934,-17.803494,-152.350176
46260,NaN,2.981328,-9.325864,0.185139,0.056278,-0.078606,-0.020599,-0.021065,0.009284,-0.002583,0.061983,-0.272870,0.648867,-0.707581,-89.456798,-17.801405,-152.351513
46261,NaN,2.956926,-9.373415,0.172356,0.084022,-0.051321,0.017081,-0.022620,0.006282,0.000503,0.061975,-0.272855,0.648954,-0.707508,-89.469394,-17.797668,-152.351562
46262,NaN,2.959485,-9.369263,0.146509,0.069075,-0.032295,0.013669,-0.025266,0.014601,-0.000292,0.061939,-0.272816,0.649049,-0.707439,-89.481709,-17.794228,-152.356096
46263,NaN,3.007888,-9.394451,0.145454,0.034840,-0.051047,0.052425,-0.022619,0.009678,0.000893,0.061922,-0.272788,0.649137,-0.707370,-89.493680,-17.790250,-152.358188
46264,NaN,2.981245,-9.351228,0.123443,0.035633,-0.028392,0.002935,-0.023486,0.011425,0.004528,0.061914,-0.272743,0.649232,-0.707302,-89.505541,-17.784050,-152.361106
46265,NaN,3.017290,-9.352784,0.100590,-0.005184,-0.025961,0.015234,-0.018779,0.010561,0.006196,0.061918,-0.272693,0.649315,-0.707245,-89.515158,-17.777031,-152.363703
46266,NaN,2.951538,-9.362720,0.016038,0.012903,0.077855,0.003938,-0.009863,0.014569,0.006739,0.061927,-0.272626,0.649365,-0.707224,-89.518658,-17.769560,-152.368296
46267,NaN,2.916929,-9.332165,0.067073,0.057112,0.042364,-0.035304,-0.008998,0.009427,0.002717,0.061935,-0.272589,0.649408,-0.707198,-89.522874,-17.764539,-152.370230
46268,NaN,2.942939,-9.375628,0.086920,0.055310,0.018995,0.014185,-0.003604,0.009916,0.004545,0.061958,-0.272541,0.649432,-0.707192,-89.523636,-17.758315,-152.372423
46269,NaN,2.942844,-9.375655,0.087224,0.054849,0.018613,0.014189,0.004988,0.006373,-0.002663,0.061977,-0.272528,0.649417,-0.707209,-89.520391,-17.756391,-152.372547
46270,NaN,2.957558,-9.395139,0.086380,0.046471,0.016444,0.037227,0.012531,0.007674,-0.002441,0.062007,-0.272509,0.649373,-0.707254,-89.512279,-17.754247,-152.372922
46271,NaN,2.948207,-9.341973,0.096057,0.043751,0.004964,-0.016174,0.015081,-0.004190,-0.000335,0.062082,-0.272522,0.649322,-0.707289,-89.505193,-17.751042,-152.366679
46272,NaN,2.962655,-9.361537,0.095471,0.035363,0.002787,0.006863,0.015673,-0.006381,0.001141,0.062171,-0.272536,0.649269,-0.707325,-89.497867,-17.746845,-152.359314
46273,NaN,2.930927,-9.326648,0.124276,0.065136,-0.013309,-0.035790,0.014208,-0.009235,0.002521,0.062271,-0.272558,0.649224,-0.707349,-89.492210,-17.742030,-152.350020
46274,NaN,2.925546,-9.360300,0.118983,0.074770,-0.000740,-0.005415,0.016766,-0.010911,0.005797,0.062394,-0.272575,0.649171,-0.707380,-89.485128,-17.735204,-152.339524
46275,NaN,2.942146,-9.350595,0.148470,0.070763,-0.035239,-0.009339,0.011555,-0.011104,0.000563,0.062490,-0.272610,0.649132,-0.707394,-89.481328,-17.731523,-152.329116
46276,NaN,3.025777,-9.447182,0.216342,0.056226,-0.117602,0.108723,0.013841,-0.009827,0.009336,0.062620,-0.272614,0.649095,-0.707416,-89.475712,-17.722690,-152.319072
46277,NaN,2.983994,-9.384556,0.199014,0.064962,-0.093120,0.036212,0.013065,-0.007932,0.011266,0.062745,-0.272603,0.649065,-0.707435,-89.470482,-17.712861,-152.310512
46278,NaN,2.976036,-9.327574,0.184157,0.047756,-0.085191,-0.020609,0.009542,-0.011449,0.012553,0.062883,-0.272600,0.649048,-0.707440,-89.467625,-17.702157,-152.299905
46279,NaN,2.982096,-9.290325,0.167022,0.022712,-0.079127,-0.054401,0.004974,-0.010118,0.021267,0.063040,-0.272568,0.649060,-0.707428,-89.467444,-17.686610,-152.289976
46280,NaN,2.985075,-9.282660,0.119231,-0.006727,-0.040753,-0.061229,0.001958,-0.009180,0.026510,0.063211,-0.272515,0.649089,-0.707406,-89.468547,-17.667912,-152.280427
46281,NaN,3.001973,-9.269535,0.123577,-0.025188,-0.055892,-0.068580,-0.000282,-0.010138,0.029824,0.063391,-0.272456,0.649131,-0.707374,-89.471388,-17.647463,-152.270441
46282,NaN,3.003956,-9.236988,0.129585,-0.035790,-0.069158,-0.098963,-0.002018,-0.010038,0.036708,0.063597,-0.272378,0.649187,-0.707335,-89.474921,-17.622970,-152.259977
46283,NaN,2.988315,-9.214448,0.106963,-0.042822,-0.048338,-0.125410,-0.004528,-0.008041,0.045523,0.063820,-0.272262,0.649266,-0.707286,-89.479830,-17.593514,-152.251171
46284,NaN,2.978836,-9.249423,0.099606,-0.033205,-0.035777,-0.095032,-0.008926,-0.013202,0.050065,0.064072,-0.272150,0.649364,-0.707217,-89.487919,-17.561335,-152.239154
46285,NaN,2.971063,-9.280481,0.067894,-0.038028,-0.003885,-0.068064,-0.012397,-0.013000,0.063840,0.064365,-0.271995,0.649495,-0.707130,-89.498250,-17.521408,-152.227282
46286,NaN,2.986174,-9.334188,0.134606,-0.010882,-0.066021,-0.011772,-0.008274,-0.008283,0.064427,0.064653,-0.271820,0.649612,-0.707064,-89.505144,-17.480949,-152.218016
46287,NaN,2.974661,-9.369766,0.127074,-0.001234,-0.053491,0.018610,-0.012052,-0.002050,0.072004,0.064940,-0.271599,0.649755,-0.706990,-89.513296,-17.436287,-152.212696
46288,NaN,2.948149,-9.360721,0.175678,0.035133,-0.090705,0.002407,-0.012216,0.004447,0.076204,0.065225,-0.271343,0.649905,-0.706925,-89.520078,-17.389090,-152.210800
46289,NaN,2.911039,-9.418755,0.211601,0.091738,-0.102123,0.046979,-0.010160,0.005105,0.076313,0.065506,-0.271083,0.650050,-0.706865,-89.525858,-17.341924,-152.209767
46290,NaN,2.876689,-9.447351,0.277878,0.152678,-0.145772,0.064581,-0.012626,0.006937,0.071344,0.065760,-0.270829,0.650197,-0.706804,-89.532401,-17.297433,-152.210202
46291,NaN,2.791640,-9.479666,0.312858,0.243079,-0.138709,0.070473,-0.012643,0.003541,0.070969,0.066024,-0.270592,0.650342,-0.706736,-89.539869,-17.253336,-152.208269
46292,NaN,2.821498,-9.483336,0.290161,0.202194,-0.136322,0.082728,-0.017489,-0.005912,0.069854,0.066310,-0.270392,0.650500,-0.706641,-89.551529,-17.209740,-152.200811
46293,NaN,2.873606,-9.469053,0.247217,0.128877,-0.129377,0.084198,-0.026534,-0.013427,0.070648,0.066609,-0.270220,0.650689,-0.706505,-89.569954,-17.165901,-152.188724
46294,NaN,2.848652,-9.389930,0.206536,0.105115,-0.100217,0.000934,-0.031609,-0.013134,0.075825,0.066918,-0.270028,0.650902,-0.706352,-89.590923,-17.118899,-152.177325
46295,NaN,2.896629,-9.289240,0.177038,0.019534,-0.117244,-0.081415,-0.038019,-0.022183,0.078197,0.067257,-0.269866,0.651138,-0.706164,-89.617450,-17.070760,-152.159999
46296,NaN,2.951884,-9.176197,0.075191,-0.109560,-0.076189,-0.174013,-0.045484,-0.016345,0.090903,0.067609,-0.269639,0.651420,-0.705957,-89.646893,-17.015102,-152.147007
46297,NaN,2.998274,-9.101199,-0.009726,-0.214025,-0.041615,-0.232812,-0.054130,-0.009511,0.100274,0.067963,-0.269366,0.651747,-0.705726,-89.680406,-16.954255,-152.137257
46298,NaN,2.924617,-9.153913,0.018951,-0.131583,-0.036361,-0.203878,-0.061871,0.002368,0.106793,0.068290,-0.269029,0.652113,-0.705484,-89.715979,-16.889442,-152.135056
46299,NaN,2.822569,-9.258074,0.059866,-0.006543,-0.022797,-0.133749,-0.070237,0.009656,0.111060,0.068598,-0.268658,0.652518,-0.705222,-89.755356,-16.822352,-152.136838
46300,NaN,2.754009,-9.368243,0.102717,0.092533,-0.025825,-0.047962,-0.073731,0.002918,0.110293,0.068915,-0.268308,0.652931,-0.704942,-89.797525,-16.755512,-152.135736
46301,NaN,2.645488,-9.439450,0.072857,0.181987,0.047666,-0.011068,-0.073944,0.005722,0.102020,0.069199,-0.267982,0.653334,-0.704664,-89.839673,-16.693611,-152.135282
46302,NaN,2.647299,-9.466308,0.087757,0.188035,0.026121,0.015376,-0.076142,0.001530,0.103282,0.069491,-0.267656,0.653747,-0.704376,-89.883379,-16.630768,-152.133966
46303,NaN,2.683549,-9.499251,0.105036,0.168252,-0.012104,0.057458,-0.075469,-0.004040,0.088839,0.069758,-0.267408,0.654134,-0.704085,-89.928035,-16.576428,-152.127786
46304,NaN,2.683957,-9.554821,0.089409,0.169863,-0.001401,0.110888,-0.068816,-0.001343,0.080594,0.069988,-0.267163,0.654489,-0.703825,-89.967982,-16.526571,-152.124968
46305,NaN,2.665231,-9.532749,0.061160,0.162809,0.019445,0.084464,-0.064260,-0.002683,0.071848,0.070206,-0.266962,0.654814,-0.703578,-90.005951,-16.481957,-152.119685
46306,NaN,2.638523,-9.481863,-0.012305,0.134612,0.080897,0.028198,-0.057769,-0.006928,0.064496,0.070412,-0.266785,0.655106,-0.703352,-90.040463,-16.441326,-152.113702
46307,NaN,2.688915,-9.471922,-0.034292,0.075767,0.068447,0.033038,-0.051997,-0.005884,0.059490,0.070613,-0.266631,0.655370,-0.703144,-90.071925,-16.403785,-152.106559
46308,NaN,2.685999,-9.378161,-0.071065,0.034039,0.082862,-0.057611,-0.041712,-0.006073,0.059560,0.070823,-0.266464,0.655599,-0.702973,-90.097170,-16.365947,-152.100676
46309,NaN,2.661273,-9.393044,-0.079434,0.051541,0.097267,-0.050216,-0.032781,-0.009057,0.045430,0.071010,-0.266360,0.655776,-0.702829,-90.118140,-16.336452,-152.091660
46310,NaN,2.696105,-9.391849,-0.127280,-0.003893,0.118973,-0.041411,-0.020387,-0.005218,0.045987,0.071196,-0.266225,0.655912,-0.702734,-90.130919,-16.306419,-152.086629
46311,NaN,2.701023,-9.330643,-0.091945,-0.009967,0.073456,-0.098811,-0.021376,-0.003890,0.039217,0.071360,-0.266120,0.656042,-0.702636,-90.144478,-16.280487,-152.080708
46312,NaN,2.717233,-9.318195,-0.089047,-0.028484,0.058341,-0.106204,-0.015745,0.000232,0.038024,0.071503,-0.265986,0.656155,-0.702566,-90.153706,-16.254935,-152.079616
46313,NaN,2.705459,-9.356892,-0.073141,-0.004406,0.051525,-0.072379,-0.009968,0.001271,0.032997,0.071643,-0.265878,0.656238,-0.702515,-90.159861,-16.232572,-152.076776
46314,NaN,2.668865,-9.351255,-0.076645,0.020952,0.067854,-0.087995,-0.010955,0.002601,0.026221,0.071746,-0.265777,0.656318,-0.702468,-90.165950,-16.213852,-152.076455
46315,NaN,2.655366,-9.394061,-0.036432,0.059528,0.041701,-0.050751,-0.005409,-0.000066,0.024211,0.071866,-0.265701,0.656373,-0.702434,-90.169717,-16.196521,-152.072806
46316,NaN,2.638806,-9.465774,-0.026828,0.093578,0.047828,0.013494,-0.010722,0.006307,0.023206,0.071950,-0.265600,0.656448,-0.702393,-90.175058,-16.179589,-152.074177
46317,NaN,2.572736,-9.490857,0.060558,0.194984,0.001552,0.018944,-0.009592,0.005038,0.014398,0.072013,-0.265540,0.656506,-0.702355,-90.180376,-16.167888,-152.073559
46318,NaN,2.628043,-9.479750,0.042899,0.136081,-0.010891,0.023748,-0.014097,-0.000349,0.006788,0.072056,-0.265517,0.656569,-0.702300,-90.188797,-16.160313,-152.070981
46319,NaN,2.700735,-9.483936,-0.000943,0.054805,-0.005924,0.048143,-0.014238,0.005876,-0.001130,0.072056,-0.265507,0.656624,-0.702253,-90.196645,-16.157511,-152.070834
46320,NaN,2.690101,-9.435059,0.030872,0.066683,-0.036608,-0.001870,-0.010669,0.009356,-0.002418,0.072041,-0.265481,0.656665,-0.702226,-90.201535,-16.155241,-152.073633
46321,NaN,2.620184,-9.426447,0.048826,0.132511,-0.022965,-0.029663,-0.010480,0.009669,-0.005845,0.072017,-0.265471,0.656701,-0.702198,-90.206603,-16.155148,-152.075741
46322,NaN,2.713701,-9.416894,0.009988,0.033222,-0.032767,-0.012688,-0.015788,0.009414,-0.009379,0.071974,-0.265473,0.656751,-0.702155,-90.214446,-16.156900,-152.078062
46323,NaN,2.672008,-9.381486,-0.039290,0.037562,0.024103,-0.058126,-0.013771,0.013288,-0.007164,0.071929,-0.265456,0.656798,-0.702122,-90.220800,-16.157571,-152.082325
46324,NaN,2.675472,-9.376834,-0.064231,0.022533,0.043103,-0.061537,-0.015129,0.007365,-0.009620,0.071894,-0.265467,0.656843,-0.702079,-90.228592,-16.159493,-152.083236
46325,NaN,2.738604,-9.398333,-0.012563,-0.000704,-0.029301,-0.023514,-0.019086,0.019662,-0.008163,0.071817,-0.265433,0.656910,-0.702037,-90.236932,-16.160752,-152.091299
46326,NaN,2.745190,-9.364774,-0.006976,-0.011241,-0.042537,-0.053939,-0.019746,0.021712,-0.007918,0.071733,-0.265388,0.656980,-0.701998,-90.245013,-16.161692,-152.100992
46327,NaN,2.726089,-9.378008,-0.012965,0.006245,-0.028121,-0.046525,-0.021066,0.025811,-0.007429,0.071637,-0.265331,0.657057,-0.701957,-90.253466,-16.162548,-152.112724
46328,NaN,2.701122,-9.424591,-0.025954,0.033696,-0.000787,-0.008683,-0.025113,0.031322,-0.006788,0.071521,-0.265254,0.657149,-0.701912,-90.263058,-16.162901,-152.127565
46329,NaN,2.682266,-9.413440,0.022503,0.070198,-0.037918,-0.024861,-0.023100,0.035195,-0.004565,0.071401,-0.265155,0.657241,-0.701876,-90.271116,-16.162145,-152.144903
46330,NaN,2.674474,-9.451021,0.038315,0.094208,-0.044700,0.008983,-0.022674,0.039220,-0.010999,0.071248,-0.265063,0.657322,-0.701850,-90.277994,-16.164942,-152.164487
46331,NaN,2.667097,-9.421885,-0.008499,0.072645,-0.004506,-0.020849,-0.025253,0.037555,-0.014682,0.071082,-0.264990,0.657408,-0.701814,-90.286901,-16.169994,-152.183204
46332,NaN,2.688129,-9.408087,-0.005269,0.054181,-0.019646,-0.028269,-0.028878,0.037306,-0.011269,0.070926,-0.264908,0.657509,-0.701765,-90.297680,-16.172925,-152.201600
46333,NaN,2.734244,-9.438576,0.017396,0.034390,-0.057949,0.013734,-0.031523,0.045503,-0.010281,0.070741,-0.264795,0.657626,-0.701717,-90.308852,-16.175485,-152.225070
46334,NaN,2.687480,-9.411968,0.015011,0.067717,-0.039684,-0.024851,-0.032172,0.040925,-0.012572,0.070565,-0.264706,0.657739,-0.701663,-90.320896,-16.179206,-152.245534
46335,NaN,2.716550,-9.451424,0.008826,0.051349,-0.043870,0.021161,-0.031707,0.038558,-0.009386,0.070405,-0.264614,0.657855,-0.701605,-90.333325,-16.181240,-152.264864
46336,NaN,2.706096,-9.426824,-0.015109,0.044260,-0.022982,-0.005256,-0.037304,0.037826,-0.007783,0.070250,-0.264523,0.657990,-0.701528,-90.348840,-16.182206,-152.283447
46337,NaN,2.718129,-9.384275,-0.058302,0.004747,0.002410,-0.042518,-0.037967,0.039876,-0.007528,0.070084,-0.264422,0.658131,-0.701450,-90.364634,-16.183190,-152.303569
46338,NaN,2.701891,-9.368743,-0.034834,0.026711,-0.015347,-0.062107,-0.038166,0.039555,-0.004095,0.069935,-0.264313,0.658275,-0.701371,-90.380351,-16.182068,-152.323120
46339,NaN,2.769969,-9.405650,-0.086504,-0.044611,0.002386,-0.007359,-0.038534,0.042086,-0.008975,0.069756,-0.264210,0.658417,-0.701295,-90.396104,-16.183901,-152.344554
46340,NaN,2.697664,-9.401598,-0.046766,0.035709,-0.003175,-0.031668,-0.039722,0.049737,-0.009758,0.069551,-0.264084,0.658562,-0.701226,-90.411011,-16.186079,-152.370206
46341,NaN,2.659323,-9.403951,-0.004055,0.090183,-0.025468,-0.040404,-0.035393,0.051337,-0.012975,0.069332,-0.263961,0.658691,-0.701174,-90.423429,-16.190252,-152.397142
46342,NaN,2.651975,-9.465650,-0.044035,0.095095,0.019279,0.017064,-0.038024,0.052908,-0.014524,0.069102,-0.263839,0.658825,-0.701116,-90.436844,-16.195183,-152.424668
46343,NaN,2.622785,-9.430005,-0.018117,0.125061,0.003432,-0.025518,-0.036963,0.051507,-0.021610,0.068850,-0.263744,0.658947,-0.701062,-90.450139,-16.204316,-152.451665
46344,NaN,2.639121,-9.449217,-0.022419,0.116585,0.001173,-0.002511,-0.038028,0.052698,-0.026656,0.068579,-0.263662,0.659065,-0.701008,-90.463597,-16.216206,-152.479011
46345,NaN,2.636208,-9.481739,-0.031690,0.126079,0.013690,0.027937,-0.037064,0.051137,-0.032028,0.068291,-0.263603,0.659174,-0.700956,-90.477016,-16.231319,-152.505735
46346,NaN,2.642368,-9.452088,-0.002902,0.130125,-0.018849,0.000915,-0.034105,0.043433,-0.038157,0.068016,-0.263591,0.659260,-0.700907,-90.489790,-16.249769,-152.527391
46347,NaN,2.663014,-9.466285,-0.031120,0.107151,-0.001822,0.020506,-0.038138,0.042316,-0.040058,0.067728,-0.263589,0.659359,-0.700842,-90.505294,-16.269450,-152.548806
46348,NaN,2.644623,-9.416269,-0.076739,0.093483,0.040321,-0.032315,-0.031843,0.034389,-0.044453,0.067463,-0.263629,0.659425,-0.700791,-90.518271,-16.291470,-152.565074
46349,NaN,2.733577,-9.442907,-0.098906,0.018727,0.023870,0.018376,-0.031574,0.041501,-0.047000,0.067162,-0.263650,0.659491,-0.700749,-90.530147,-16.315134,-152.585960
46350,NaN,2.709789,-9.401982,-0.096316,0.034134,0.027382,-0.027618,-0.026914,0.037181,-0.045760,0.066889,-0.263683,0.659539,-0.700718,-90.539825,-16.337925,-152.603859
46351,NaN,2.758913,-9.431537,-0.073200,0.014342,-0.010971,0.014343,-0.025160,0.037330,-0.040517,0.066633,-0.263695,0.659590,-0.700689,-90.548702,-16.357859,-152.622288
46352,NaN,2.790715,-9.379016,-0.085913,-0.028593,-0.019697,-0.026973,-0.020673,0.036074,-0.035429,0.066409,-0.263696,0.659630,-0.700674,-90.554966,-16.374728,-152.639583
46353,NaN,2.779941,-9.358215,-0.084494,-0.021102,-0.018136,-0.049971,-0.015876,0.035313,-0.035469,0.066189,-0.263696,0.659654,-0.700671,-90.558844,-16.391762,-152.656836
46354,NaN,2.766206,-9.366177,-0.113663,-0.018243,0.015638,-0.045932,-0.011493,0.033893,-0.028674,0.066008,-0.263678,0.659669,-0.700681,-90.560196,-16.404749,-152.672901
46355,NaN,2.760560,-9.403305,-0.097204,0.005770,0.008834,-0.012066,-0.010053,0.029965,-0.030888,0.065830,-0.263679,0.659677,-0.700689,-90.561625,-16.419130,-152.686987
46356,NaN,2.754628,-9.349425,-0.087743,0.003276,-0.002451,-0.065513,-0.004869,0.030056,-0.025624,0.065680,-0.263663,0.659672,-0.700714,-90.559805,-16.430350,-152.700819
46357,NaN,2.807791,-9.370133,-0.110339,-0.045603,-0.002205,-0.030399,-0.006418,0.033818,-0.021691,0.065526,-0.263619,0.659681,-0.700737,-90.558478,-16.439483,-152.717262
46358,NaN,2.843365,-9.375858,-0.106728,-0.072006,-0.019312,-0.014868,0.000027,0.033043,-0.014793,0.065412,-0.263555,0.659674,-0.700778,-90.553337,-16.444515,-152.732890
46359,NaN,2.818840,-9.398411,-0.063200,-0.025476,-0.043484,-0.000581,0.000359,0.040511,-0.006902,0.065296,-0.263437,0.659681,-0.700827,-90.546968,-16.445208,-152.753418
46360,NaN,2.784966,-9.368079,-0.010318,0.019057,-0.078560,-0.039740,0.000582,0.034412,-0.000757,0.065227,-0.263322,0.659690,-0.700867,-90.541262,-16.442211,-152.769850
46361,NaN,2.785058,-9.392174,-0.064220,-0.000583,-0.027446,-0.016114,0.000567,0.024591,0.008366,0.065219,-0.263210,0.659711,-0.700891,-90.537443,-16.434068,-152.780954
46362,NaN,2.823300,-9.365430,-0.053169,-0.036914,-0.057434,-0.031048,0.002879,0.022528,0.015052,0.065247,-0.263083,0.659730,-0.700918,-90.532412,-16.421937,-152.790458
46363,NaN,2.824555,-9.361298,-0.075914,-0.051941,-0.038503,-0.034467,0.005217,0.023857,0.022177,0.065295,-0.262926,0.659753,-0.700952,-90.526036,-16.405875,-152.801197
46364,NaN,2.749191,-9.382775,-0.088098,0.009240,0.007558,-0.035053,0.004308,0.022182,0.025415,0.065363,-0.262766,0.659780,-0.700980,-90.520233,-16.387813,-152.810476
46365,NaN,2.819485,-9.362844,-0.073730,-0.052930,-0.039226,-0.034475,0.005064,0.023881,0.036034,0.065459,-0.262564,0.659821,-0.701008,-90.513928,-16.363809,-152.821299
46366,NaN,2.812764,-9.368623,-0.048896,-0.038892,-0.058876,-0.031065,0.001260,0.030063,0.043717,0.065560,-0.262315,0.659886,-0.701030,-90.508513,-16.335278,-152.835655
46367,NaN,2.858296,-9.343403,0.038934,-0.049400,-0.161619,-0.043246,0.001585,0.037532,0.051620,0.065661,-0.262014,0.659964,-0.701060,-90.501901,-16.302412,-152.854700
46368,NaN,2.768410,-9.408233,0.066876,0.050809,-0.141270,-0.006522,-0.004207,0.039846,0.057054,0.065771,-0.261691,0.660068,-0.701072,-90.498011,-16.266302,-152.874679
46369,NaN,2.700754,-9.454958,0.075661,0.118591,-0.116458,0.019321,-0.008555,0.038233,0.060267,0.065887,-0.261362,0.660193,-0.701066,-90.497106,-16.228483,-152.894177
46370,NaN,2.700857,-9.447369,0.028109,0.088959,-0.078204,0.012493,-0.011118,0.030149,0.066131,0.066050,-0.261045,0.660330,-0.701040,-90.498800,-16.187119,-152.908460
46371,NaN,2.714147,-9.435747,0.032546,0.070586,-0.093394,0.005015,-0.021634,0.030009,0.069455,0.066209,-0.260719,0.660510,-0.700977,-90.506769,-16.143996,-152.923095
46372,NaN,2.741139,-9.444106,0.034252,0.044191,-0.110524,0.020521,-0.024730,0.027531,0.074308,0.066392,-0.260388,0.660705,-0.700899,-90.516704,-16.097937,-152.935867
46373,NaN,2.685527,-9.395981,0.086170,0.096805,-0.143598,-0.041611,-0.029861,0.027805,0.079495,0.066582,-0.260039,0.660925,-0.700802,-90.529755,-16.049055,-152.949252
46374,NaN,2.672452,-9.431379,0.076622,0.106195,-0.131069,-0.011140,-0.037106,0.037102,0.077163,0.066727,-0.259668,0.661170,-0.700695,-90.545216,-16.001398,-152.967925
46375,NaN,2.609562,-9.377885,0.027445,0.118452,-0.072122,-0.079442,-0.039214,0.033074,0.076631,0.066877,-0.259313,0.661422,-0.700575,-90.562782,-15.954193,-152.984455
46376,NaN,2.622286,-9.481424,-0.018081,0.107186,-0.031356,0.024062,-0.043685,0.034349,0.071555,0.067004,-0.258974,0.661680,-0.700444,-90.582496,-15.909769,-153.001258
46377,NaN,2.548390,-9.470111,-0.027606,0.158463,0.001881,-0.006927,-0.043799,0.037230,0.063277,0.067088,-0.258650,0.661932,-0.700318,-90.602050,-15.870250,-153.020206
46378,NaN,2.529280,-9.475566,-0.083465,0.146685,0.054962,-0.006259,-0.040667,0.033093,0.055853,0.067166,-0.258364,0.662160,-0.700201,-90.620275,-15.834791,-153.036498
46379,NaN,2.531099,-9.467328,-0.133866,0.117059,0.093188,-0.013081,-0.040174,0.040204,0.039456,0.067162,-0.258108,0.662368,-0.700099,-90.637329,-15.808950,-153.057081
46380,NaN,2.486142,-9.408376,-0.130054,0.140514,0.098762,-0.082021,-0.033117,0.040054,0.025661,0.067122,-0.257896,0.662532,-0.700025,-90.650171,-15.790859,-153.077157
46381,NaN,2.481773,-9.437322,-0.163037,0.135341,0.130564,-0.054949,-0.029407,0.046761,0.012724,0.067016,-0.257701,0.662671,-0.699976,-90.660053,-15.780385,-153.101471
46382,NaN,2.480219,-9.504658,-0.102475,0.180412,0.083260,0.008771,-0.017991,0.038213,-0.007336,0.066886,-0.257601,0.662739,-0.699961,-90.664600,-15.781196,-153.120159
46383,NaN,2.442040,-9.530940,-0.113348,0.215679,0.112582,0.023777,-0.005617,0.031677,-0.020173,0.066746,-0.257560,0.662747,-0.699982,-90.663356,-15.789472,-153.135267
46384,NaN,2.501475,-9.518774,-0.127931,0.156810,0.099886,0.028361,0.004217,0.023503,-0.036735,0.066590,-0.257599,0.662695,-0.700032,-90.657606,-15.807006,-153.145190
46385,NaN,2.496655,-9.555660,-0.110417,0.180768,0.093109,0.062269,0.009730,0.017118,-0.049647,0.066414,-0.257702,0.662606,-0.700095,-90.649977,-15.832072,-153.151432
46386,NaN,2.501929,-9.554303,-0.108456,0.180230,0.092774,0.062282,0.023400,0.013104,-0.060381,0.066235,-0.257850,0.662452,-0.700202,-90.634966,-15.863088,-153.154921
46387,NaN,2.528136,-9.539275,-0.100603,0.161861,0.077579,0.054791,0.024232,0.007665,-0.074960,0.066020,-0.258065,0.662277,-0.700309,-90.620604,-15.902594,-153.155381
46388,NaN,2.578367,-9.505822,-0.110666,0.110994,0.066840,0.036377,0.037087,0.002149,-0.084155,0.065810,-0.258324,0.662042,-0.700456,-90.599563,-15.947130,-153.152511
46389,NaN,2.595811,-9.465565,-0.123186,0.086057,0.072903,0.002484,0.044005,-0.001549,-0.096656,0.065576,-0.258636,0.661766,-0.700623,-90.575411,-15.999011,-153.147376
46390,NaN,2.612995,-9.401288,-0.080422,0.080378,0.027562,-0.055065,0.047462,0.001776,-0.096134,0.065341,-0.258934,0.661478,-0.700807,-90.548503,-16.050447,-153.143924
46391,NaN,2.659195,-9.400454,-0.096149,0.039436,0.029656,-0.043007,0.055150,-0.006851,-0.100592,0.065124,-0.259274,0.661156,-0.701006,-90.518842,-16.104560,-153.135654
46392,NaN,2.656366,-9.416442,0.003788,0.097243,-0.047805,-0.029339,0.054977,-0.010753,-0.109737,0.064893,-0.259660,0.660819,-0.701202,-90.489719,-16.163735,-153.124637
46393,NaN,2.633830,-9.431115,-0.049147,0.103330,0.020087,-0.021144,0.061217,-0.015445,-0.111949,0.064673,-0.260065,0.660457,-0.701413,-90.458028,-16.224323,-153.111238
46394,NaN,2.656392,-9.476570,-0.076728,0.090067,0.049894,0.028912,0.064139,-0.019908,-0.115909,0.064462,-0.260500,0.660077,-0.701629,-90.425221,-16.287008,-153.094663
46395,NaN,2.653683,-9.453617,-0.069028,0.097592,0.051522,0.005942,0.068205,-0.022366,-0.126505,0.064223,-0.260976,0.659669,-0.701857,-90.390716,-16.355922,-153.077135
46396,NaN,2.722269,-9.438256,-0.078275,0.038744,0.038772,0.010476,0.072407,-0.024301,-0.128367,0.063994,-0.261465,0.659241,-0.702099,-90.353907,-16.425764,-153.057955
