// General information: 
//  MT Manager version: 2019.0.1 
//  XDA version: 2019.0.1 build 2740 rev 84096 built on 2019-01-30
// Device information: 
//  DeviceId: 00B4381A
//  ProductCode: MTW2-3A7G6
//  Firmware Version: 4.3.4
//  Hardware Version: 1.1.0
// Device settings: 
//  Filter Profile: human(46.1)
//  Option Flags: Orientation Smoother Disabled, AHS Disabled, ICC Disabled
// Coordinate system: ENU
PacketCounter,SampleTimeFine,Acc_X,Acc_Y,Acc_Z,FreeAcc_E,FreeAcc_N,FreeAcc_U,Gyr_X,Gyr_Y,Gyr_Z,Quat_q0,Quat_q1,Quat_q2,Quat_q3,Roll,Pitch,Yaw
38669,NaN,-5.309534,8.017064,2.630812,1.404903,0.578470,0.040018,-1.190527,0.047368,-0.746787,-0.259189,0.074424,-0.634443,-0.724407,78.205079,25.894008,161.793150
38670,NaN,-6.289603,7.771269,1.855659,2.080241,-0.498600,0.128026,-1.151973,-0.015620,-0.788047,-0.261707,0.078366,-0.629974,-0.726981,77.499179,26.338783,161.674515
38671,NaN,-2.173194,8.339390,0.568116,-2.062840,-0.688483,-1.454426,-1.193118,-0.083539,-0.624349,-0.263814,0.081591,-0.625298,-0.729895,76.756888,26.681488,161.529766
38672,NaN,-1.127579,9.291777,1.446330,-3.310811,0.287033,-0.943912,-1.169831,-0.037975,-0.701710,-0.266060,0.085193,-0.620711,-0.732579,76.032864,27.072318,161.396790
38673,NaN,-3.089985,10.566703,2.717210,-2.131677,0.742977,1.299848,-1.088533,0.009735,-0.804159,-0.268552,0.089169,-0.616411,-0.734824,75.357659,27.524284,161.271131
38674,NaN,-5.195913,9.191313,3.786378,0.414435,1.193711,1.332491,-1.488729,0.084556,-0.774361,-0.270514,0.093868,-0.610720,-0.738263,74.473311,27.970381,161.190104
38675,NaN,-6.940631,6.807273,3.537304,2.921823,0.618014,0.092005,-1.555602,0.197157,-0.735755,-0.271935,0.098939,-0.604907,-0.741856,73.582244,28.410603,161.177794
38676,NaN,-6.882941,6.314093,2.189870,2.785295,-0.657922,-0.655909,-1.291402,0.261143,-0.565074,-0.272646,0.103375,-0.600209,-0.744800,72.874112,28.768781,161.230933
38677,NaN,-5.143291,7.430144,2.020135,0.645998,-0.536367,-0.591208,-1.139545,0.189398,-0.429691,-0.273134,0.106920,-0.596019,-0.747481,72.241534,29.040407,161.260740
38678,NaN,-3.965689,9.069556,2.404315,-1.214932,-0.140173,0.300059,-1.007496,0.184596,-0.462673,-0.273821,0.110367,-0.592281,-0.749696,71.679124,29.330163,161.278140
38679,NaN,-2.466914,9.723836,2.306841,-2.900721,-0.000268,0.063769,-1.300111,0.164734,-0.457540,-0.274375,0.114114,-0.587396,-0.752770,70.941165,29.612867,161.280090
38680,NaN,-3.735502,9.059140,3.059150,-1.479348,0.351378,0.339460,-1.571239,0.233775,-0.694692,-0.275448,0.119189,-0.581417,-0.756225,70.041489,30.037628,161.268474
38681,NaN,-5.561852,7.760503,3.169926,0.631093,0.059676,0.227426,-1.708541,0.301230,-0.788665,-0.276574,0.124963,-0.574905,-0.759852,69.068672,30.524990,161.268538
38682,NaN,-6.457255,6.557311,3.673408,1.976542,0.407135,-0.111468,-1.783532,0.244759,-0.776580,-0.277746,0.130588,-0.567987,-0.763672,68.031855,30.995134,161.226925
38683,NaN,-6.351773,6.425609,3.921022,1.872479,0.599418,-0.161756,-1.547168,0.148401,-0.766302,-0.279282,0.135470,-0.561793,-0.766837,67.095005,31.437178,161.118150
38684,NaN,-5.338898,7.281513,3.175491,0.367007,-0.093170,-0.249058,-1.359356,0.060467,-0.763375,-0.281163,0.139742,-0.556163,-0.769482,66.233033,31.857119,160.947622
38685,NaN,-4.619917,8.174476,3.941516,-0.772298,0.519006,0.327981,-1.441660,-0.062304,-0.802208,-0.283459,0.143750,-0.549977,-0.772342,65.271677,32.265335,160.681483
38686,NaN,-5.012309,8.206936,4.030625,-0.599734,0.365463,0.590525,-1.544385,-0.027603,-0.970556,-0.286215,0.148496,-0.543286,-0.775158,64.230367,32.766037,160.378630
38687,NaN,-5.817735,7.587770,3.549761,0.227792,-0.279960,0.379839,-1.676696,-0.023714,-1.114248,-0.289393,0.153817,-0.535926,-0.778059,63.080446,33.335663,160.020810
38688,NaN,-5.423842,6.962577,4.025569,0.185840,0.300611,-0.118754,-1.810120,-0.178353,-1.143174,-0.292964,0.158796,-0.527748,-0.781306,61.785352,33.873327,159.543239
38689,NaN,-5.414301,6.322234,4.570029,0.461033,0.838587,-0.365405,-1.776839,-0.266804,-1.244227,-0.297155,0.163622,-0.519423,-0.784300,60.445704,34.427074,158.959808
38690,NaN,-5.531786,6.317221,4.286494,0.388524,0.417793,-0.402407,-1.537560,-0.280091,-1.325966,-0.301864,0.168242,-0.511897,-0.786469,59.207443,35.007342,158.321307
38691,NaN,-5.224656,6.798593,4.810548,-0.281220,0.719303,-0.011687,-1.473815,-0.405835,-1.271122,-0.306703,0.172107,-0.504421,-0.788589,57.956752,35.510856,157.607384
38692,NaN,-5.545378,6.777218,4.698713,-0.179300,0.398585,0.115330,-1.451523,-0.330534,-1.314869,-0.311512,0.176334,-0.497065,-0.790438,56.720345,36.046847,156.904265
38693,NaN,-6.594036,6.728902,4.124332,0.456171,-0.556460,0.446373,-1.476474,-0.207920,-1.349460,-0.316102,0.181146,-0.489717,-0.792113,55.486581,36.625156,156.239900
38694,NaN,-7.998024,6.351370,3.904395,1.566480,-1.212642,0.940177,-1.634765,-0.166022,-1.359878,-0.320452,0.186388,-0.481751,-0.794032,54.157150,37.210962,155.575451
38695,NaN,-8.821376,5.781286,3.460865,2.376483,-1.823998,0.875572,-1.698275,-0.219261,-1.285053,-0.324538,0.191312,-0.473458,-0.796186,52.772705,37.730700,154.889453
38696,NaN,-8.874416,5.461453,3.758083,2.478725,-1.616643,0.861792,-1.639178,-0.414398,-1.164886,-0.328629,0.195065,-0.465151,-0.798491,51.370605,38.114745,154.125930
38697,NaN,-8.198012,5.493988,4.524938,1.834183,-0.885174,0.851039,-1.485869,-0.673876,-1.036184,-0.332927,0.197208,-0.457105,-0.800827,49.989512,38.332535,153.260143
38698,NaN,-7.269174,5.608715,4.977689,0.983467,-0.370837,0.578087,-1.288104,-0.892347,-0.945550,-0.337526,0.197926,-0.449540,-0.803004,48.667288,38.413527,152.308863
38699,NaN,-6.710460,5.710177,4.944083,0.431811,-0.393210,0.273771,-1.141098,-1.023103,-0.894383,-0.342333,0.197739,-0.442355,-0.805003,47.397875,38.405721,151.308419
38700,NaN,-6.375750,5.793819,5.794542,0.051589,0.262629,0.566184,-1.073283,-1.129826,-0.821255,-0.347121,0.196829,-0.435302,-0.807018,46.156934,38.308356,150.289445
38701,NaN,-5.757513,5.564751,6.624821,-0.273775,1.124320,0.515051,-1.022627,-1.204567,-0.675209,-0.351507,0.195197,-0.428431,-0.809190,44.971529,38.104362,149.310569
38702,NaN,-4.952389,5.127094,7.183839,-0.542666,1.922572,0.108396,-0.987956,-1.227941,-0.517714,-0.355313,0.193058,-0.421786,-0.811528,43.858353,37.812270,148.410763
38703,NaN,-4.937910,4.528996,6.127816,-0.119169,1.151639,-0.806973,-0.869423,-1.207233,-0.452263,-0.358921,0.190634,-0.415699,-0.813652,42.850710,37.490204,147.563730
38704,NaN,-5.688943,4.515303,6.397302,0.370692,0.921240,-0.185135,-0.838296,-1.155959,-0.438696,-0.362356,0.188332,-0.409815,-0.815648,41.890665,37.172950,146.762176
38705,NaN,-6.266550,4.733599,7.080079,0.567067,0.987502,0.699472,-0.811227,-1.149643,-0.366612,-0.365512,0.185840,-0.404102,-0.817659,40.980926,36.820925,146.009496
38706,NaN,-6.419609,4.700884,6.484320,0.684950,0.308137,0.424015,-0.841672,-1.193240,-0.267701,-0.368282,0.183024,-0.398252,-0.819918,40.084302,36.403486,145.304043
38707,NaN,-6.515427,4.472755,6.436220,0.907036,0.162841,0.337669,-0.995944,-1.256979,-0.270172,-0.371048,0.180217,-0.391628,-0.822479,39.092870,35.949775,144.577782
38708,NaN,-6.703893,4.167202,6.632509,1.243170,0.185345,0.420373,-1.063561,-1.302815,-0.289993,-0.373876,0.177382,-0.384594,-0.825130,38.057941,35.472122,143.837849
38709,NaN,-6.645056,4.089772,6.114450,1.249816,-0.320936,0.015952,-0.963438,-1.339888,-0.296147,-0.376887,0.174198,-0.377872,-0.827541,37.082543,34.969678,143.090178
38710,NaN,-6.014043,4.431678,6.302866,0.570398,-0.176216,-0.056862,-0.817365,-1.399788,-0.266492,-0.379966,0.170431,-0.371640,-0.829737,36.200556,34.419402,142.352278
38711,NaN,-5.047285,4.996825,6.598402,-0.484535,0.133296,-0.131371,-0.711402,-1.429591,-0.216850,-0.382981,0.166230,-0.365808,-0.831792,35.401868,33.830199,141.642018
38712,NaN,-4.233327,5.240554,6.559580,-1.190852,0.275401,-0.489759,-0.727117,-1.387991,-0.224824,-0.385895,0.162242,-0.359960,-0.833781,34.615485,33.254699,140.961325
38713,NaN,-3.331235,5.139332,6.980261,-1.693345,0.966551,-0.733547,-0.834390,-1.281136,-0.232314,-0.388561,0.158903,-0.353846,-0.835801,33.800363,32.724746,140.328017
38714,NaN,-3.049104,4.673698,7.244772,-1.527931,1.388975,-0.904147,-0.938201,-1.049661,-0.271142,-0.390851,0.156799,-0.347695,-0.837710,32.971895,32.309880,139.775015
38715,NaN,-3.532034,3.961070,6.149131,-0.708768,0.570258,-1.741205,-0.912654,-0.692628,-0.385262,-0.393026,0.156324,-0.342245,-0.839024,32.199618,32.096171,139.292537
38716,NaN,-4.430796,3.715798,6.025905,0.011328,0.018548,-1.461072,-0.888506,-0.420725,-0.472907,-0.395084,0.157096,-0.337350,-0.839895,31.469461,32.035958,138.864137
38717,NaN,-4.900746,3.917226,7.126264,0.104159,0.350196,-0.325254,-0.845436,-0.310891,-0.405825,-0.396720,0.158119,-0.332895,-0.840710,30.805200,32.005175,138.511100
38718,NaN,-4.341789,4.211745,7.652247,-0.530628,0.819672,-0.107386,-0.706642,-0.266706,-0.271553,-0.397799,0.158833,-0.329212,-0.841515,30.270953,31.954149,138.254823
38719,NaN,-3.721128,4.307592,7.885585,-1.044182,1.228858,-0.221868,-0.625482,-0.121307,-0.246075,-0.398615,0.159944,-0.326176,-0.842101,29.817074,31.965962,138.059773
38720,NaN,-3.808465,4.161768,7.827806,-0.928328,1.170303,-0.280244,-0.616417,0.119922,-0.312961,-0.399297,0.162170,-0.323600,-0.842345,29.390317,32.115723,137.909101
38721,NaN,-4.414737,3.774913,7.629881,-0.310345,0.852902,-0.266447,-0.628218,0.313646,-0.371195,-0.399923,0.165315,-0.321313,-0.842313,28.970916,32.377442,137.782500
38722,NaN,-5.111954,3.226768,7.870424,0.471284,0.867109,0.062187,-0.641910,0.393169,-0.359598,-0.400328,0.168813,-0.319129,-0.842257,28.559757,32.675416,137.690011
38723,NaN,-5.758207,2.751407,7.961416,1.164282,0.783234,0.293837,-0.562226,0.408606,-0.346932,-0.400745,0.172180,-0.317320,-0.842060,28.198891,32.976891,137.603177
38724,NaN,-6.127705,2.504942,7.743952,1.524454,0.547177,0.245572,-0.422631,0.369009,-0.299048,-0.401109,0.175036,-0.316053,-0.841774,27.925581,33.245350,137.534493
38725,NaN,-6.170861,2.534437,7.242867,1.495345,0.178535,-0.081607,-0.253591,0.317493,-0.227523,-0.401427,0.177211,-0.315455,-0.841392,27.762132,33.468086,137.487096
38726,NaN,-6.013706,2.843043,7.093748,1.125420,0.030980,-0.153433,-0.123611,0.281169,-0.165161,-0.401625,0.178884,-0.315385,-0.840970,27.687969,33.655963,137.469553
38727,NaN,-5.897566,3.355302,7.475965,0.605683,0.125394,0.264352,-0.034582,0.267604,-0.112207,-0.401731,0.180227,-0.315709,-0.840510,27.679359,33.822799,137.475295
38728,NaN,-5.759216,3.746056,7.573757,0.188414,0.103620,0.410668,0.026155,0.267565,-0.070165,-0.401683,0.181391,-0.316325,-0.840051,27.720774,33.978468,137.511278
38729,NaN,-5.704992,3.907638,7.649717,0.009242,0.130970,0.498348,0.039466,0.240379,-0.045042,-0.401612,0.182366,-0.316963,-0.839634,27.772672,34.113489,137.549988
38730,NaN,-5.663937,3.851855,7.595107,0.019313,0.163806,0.413523,0.034956,0.199824,-0.045468,-0.401574,0.183189,-0.317502,-0.839269,27.815721,34.228176,137.579651
38731,NaN,-5.656876,3.590880,7.301164,0.227132,0.109281,0.093780,0.052803,0.165476,-0.049929,-0.401653,0.183830,-0.318039,-0.838888,27.860186,34.326472,137.591632
38732,NaN,-5.130661,3.414718,7.156506,0.048249,0.404209,-0.376913,0.099490,0.149073,-0.007284,-0.401594,0.184249,-0.318781,-0.838542,27.944396,34.405176,137.628564
38733,NaN,-4.751329,3.266717,7.662538,-0.092909,1.048597,-0.281012,0.090450,0.170012,0.075122,-0.401177,0.184633,-0.319601,-0.838345,28.055000,34.472125,137.718803
38734,NaN,-5.068358,3.116792,7.824139,0.207126,1.078579,-0.044704,0.085620,0.308254,0.035848,-0.400670,0.185677,-0.320643,-0.837959,28.176202,34.619511,137.834813
38735,NaN,-5.619734,3.142933,7.675023,0.518861,0.693375,0.168059,0.083277,0.416673,-0.002960,-0.400176,0.187234,-0.321852,-0.837385,28.302213,34.831732,137.959120
38736,NaN,-6.095960,3.140729,7.543415,0.803374,0.382919,0.342893,0.096551,0.441118,0.032089,-0.399478,0.188818,-0.323199,-0.836844,28.455076,35.046679,138.118334
38737,NaN,-6.490631,3.335402,7.054197,0.907033,-0.218979,0.293946,0.163484,0.427659,0.038917,-0.398865,0.190190,-0.324803,-0.836204,28.645954,35.252464,138.273834
38738,NaN,-6.891771,3.895400,6.855973,0.717224,-0.800379,0.604602,0.205571,0.209212,0.010714,-0.398732,0.190620,-0.326121,-0.835657,28.810619,35.355980,138.343950
38739,NaN,-6.747516,4.606540,7.630342,0.032356,-0.499658,1.355149,0.192914,-0.121431,0.032586,-0.399064,0.189649,-0.326744,-0.835476,28.909819,35.287310,138.311366
38740,NaN,-5.834298,4.658921,8.147326,-0.566917,0.323802,1.218954,0.160861,-0.371814,0.082983,-0.399533,0.187621,-0.326783,-0.835694,28.960946,35.079238,138.229105
38741,NaN,-4.972250,4.208247,7.949434,-0.691174,0.847999,0.406371,0.226668,-0.420678,-0.007575,-0.400548,0.185396,-0.326910,-0.835655,29.007389,34.871703,138.070733
38742,NaN,-4.862341,3.966060,8.489879,-0.562102,1.380414,0.638554,0.238872,-0.388977,-0.167505,-0.402161,0.183548,-0.327004,-0.835252,29.013156,34.724721,137.829873
38743,NaN,-5.220555,3.604048,8.136731,-0.020952,1.095894,0.446372,0.303678,-0.267230,-0.279910,-0.404132,0.182251,-0.327506,-0.834387,29.039666,34.669858,137.557207
38744,NaN,-5.623062,3.290477,7.896518,0.492959,0.848175,0.377438,0.289667,-0.178447,-0.307693,-0.406027,0.181407,-0.328104,-0.833415,29.067074,34.667478,137.302442
38745,NaN,-6.276684,2.905508,7.093279,1.226610,0.100844,0.017807,0.301688,-0.147411,-0.351167,-0.408092,0.180728,-0.328769,-0.832291,29.090675,34.692532,137.027016
38746,NaN,-6.570377,2.718809,6.352979,1.577665,-0.498338,-0.422014,0.337990,-0.240792,-0.344990,-0.410284,0.179584,-0.329403,-0.831210,29.120760,34.669528,136.728375
38747,NaN,-6.283456,2.812339,6.555987,1.338623,-0.248586,-0.404273,0.423138,-0.397736,-0.206500,-0.412261,0.177376,-0.330184,-0.830395,29.215984,34.529423,136.456334
38748,NaN,-5.461334,3.172121,6.705001,0.588793,0.152328,-0.621630,0.520097,-0.435231,-0.063909,-0.413760,0.174584,-0.331420,-0.829750,29.410810,34.331322,136.262617
38749,NaN,-4.741573,3.811923,7.008806,-0.315266,0.492850,-0.550173,0.550074,-0.375352,-0.018686,-0.415027,0.171892,-0.332934,-0.829072,29.648245,34.150982,136.111141
38750,NaN,-4.638737,4.575840,7.533455,-0.948044,0.587846,0.085019,0.485157,-0.401132,-0.008744,-0.416201,0.169219,-0.334135,-0.828550,29.848675,33.955379,135.961303
38751,NaN,-4.761514,4.778464,7.326186,-0.990821,0.289492,0.092514,0.480375,-0.338533,0.037994,-0.417105,0.166724,-0.335480,-0.828058,30.072559,33.777922,135.855109
38752,NaN,-4.690862,4.745909,6.166275,-0.971772,-0.446961,-0.790131,0.575196,-0.169963,-0.027622,-0.418038,0.164848,-0.337514,-0.827136,30.362776,33.703239,135.772821
38753,NaN,-4.593482,5.037104,5.496057,-1.243044,-0.950407,-1.196971,0.620359,-0.021032,-0.108669,-0.419119,0.163619,-0.339972,-0.825825,30.679331,33.725765,135.689291
38754,NaN,-4.912117,5.275078,5.330703,-1.229994,-1.306530,-1.029089,0.633506,0.185001,-0.125152,-0.419892,0.163249,-0.342903,-0.824292,31.040024,33.855102,135.673759
38755,NaN,-5.191735,5.423632,5.142544,-1.176503,-1.604541,-0.932565,0.637449,0.370390,-0.106378,-0.420299,0.163590,-0.346247,-0.822618,31.445601,34.069518,135.732171
38756,NaN,-5.121005,5.382777,5.176543,-1.176704,-1.454874,-0.953013,0.627494,0.513577,-0.046942,-0.420167,0.164446,-0.349898,-0.820968,31.897064,34.335720,135.884406
38757,NaN,-4.661206,5.252358,5.803594,-1.319933,-0.616394,-0.819738,0.594436,0.620198,0.042193,-0.419478,0.165638,-0.353704,-0.819448,32.383193,34.625211,136.127360
38758,NaN,-4.685228,4.915064,6.283746,-1.014976,-0.068224,-0.617078,0.515720,0.817848,0.096849,-0.418112,0.167717,-0.357640,-0.818014,32.889280,34.991635,136.485150
38759,NaN,-5.472338,4.472176,6.025163,-0.200678,-0.428900,-0.537759,0.466480,1.060750,0.055437,-0.416459,0.170947,-0.361840,-0.816340,33.412032,35.484676,136.913169
38760,NaN,-6.732509,4.183197,6.004515,0.766610,-0.918497,0.058858,0.433828,1.185956,0.017259,-0.414661,0.174834,-0.366118,-0.814523,33.940229,36.046513,137.380710
38761,NaN,-7.158557,3.911204,6.161040,1.224005,-0.804856,0.304302,0.424770,1.215961,0.063782,-0.412623,0.178756,-0.370451,-0.812745,34.495586,36.603863,137.893116
38762,NaN,-7.064792,3.657796,6.675846,1.367988,-0.144639,0.481198,0.323636,1.171174,0.280483,-0.409651,0.182308,-0.374457,-0.811623,35.068781,37.065283,138.529301
38763,NaN,-7.413136,3.209711,6.804924,1.930955,0.063162,0.571437,0.220780,1.143892,0.362201,-0.406320,0.185789,-0.378053,-0.810841,35.614284,37.481921,139.206932
38764,NaN,-8.087823,2.864951,6.426948,2.606072,-0.328057,0.580881,0.177815,1.001004,0.338372,-0.403272,0.188828,-0.381146,-0.810212,36.098762,37.835261,139.822743
38765,NaN,-7.996977,2.866041,6.522389,2.556652,-0.111367,0.587211,0.245540,0.721371,0.371950,-0.400707,0.190520,-0.383976,-0.809752,36.565435,38.044400,140.339259
38766,NaN,-6.668249,3.278953,7.654959,1.450030,1.345455,0.670739,0.332259,0.348185,0.526482,-0.398277,0.190238,-0.386548,-0.809794,37.040273,38.025577,140.790626
38767,NaN,-5.482747,3.670981,7.738467,0.465786,1.901476,0.166664,0.468201,0.231911,0.604608,-0.395908,0.189054,-0.389505,-0.809815,37.587116,37.923907,141.230989
38768,NaN,-4.808490,4.300655,6.724731,-0.391757,1.259634,-0.587805,0.678359,0.393877,0.532701,-0.393677,0.188253,-0.393561,-0.809129,38.273494,37.916551,141.705056
38769,NaN,-5.046709,5.432684,6.390325,-1.080947,0.529628,-0.098281,0.815105,0.570640,0.483508,-0.391446,0.187981,-0.398458,-0.807877,39.069182,38.001336,142.227006
38770,NaN,-5.769704,6.376372,6.357626,-1.314672,-0.100639,0.799915,0.805437,0.661344,0.475374,-0.389015,0.188112,-0.403476,-0.806528,39.886041,38.123056,142.793111
38771,NaN,-5.442726,6.461132,6.731920,-1.529734,0.418414,0.872455,0.589917,0.611345,0.528292,-0.386290,0.188340,-0.407565,-0.805729,40.584169,38.197781,143.362994
38772,NaN,-5.304579,5.666894,6.954508,-0.954661,1.031682,0.514035,0.355552,0.591163,0.566303,-0.383191,0.188866,-0.410698,-0.805494,41.157790,38.244129,143.950588
38773,NaN,-6.122033,4.579522,6.599471,0.433369,0.838635,0.242793,0.322661,0.655165,0.510655,-0.380178,0.189812,-0.413760,-0.805133,41.712796,38.334548,144.535013
38774,NaN,-7.058250,3.963561,6.102688,1.534748,0.310379,0.203257,0.418387,0.544960,0.511757,-0.377440,0.190138,-0.416992,-0.804676,42.292414,38.373010,145.072530
38775,NaN,-6.777429,3.733126,6.298746,1.583071,0.747222,0.009679,0.542788,0.303390,0.632842,-0.374860,0.188991,-0.420372,-0.804394,42.907800,38.258324,145.551356
38776,NaN,-6.025284,3.617611,6.330057,1.253188,1.207626,-0.515851,0.688674,0.209255,0.729974,-0.372187,0.186994,-0.424248,-0.804067,43.608527,38.061779,146.036551
38777,NaN,-5.505080,4.079574,5.740607,0.630131,0.851753,-0.936885,0.918040,0.369689,0.710127,-0.369486,0.185241,-0.429308,-0.803032,44.478453,37.934148,146.583168
38778,NaN,-5.637142,5.006291,5.759669,0.102443,0.568673,-0.342805,1.109009,0.497022,0.777806,-0.366370,0.183503,-0.435418,-0.801568,45.517982,37.823321,147.230972
38779,NaN,-6.336348,5.673191,5.074107,0.143303,-0.420012,0.080841,1.199037,0.694243,0.822797,-0.362739,0.182269,-0.442263,-0.799751,46.681393,37.762640,147.995642
38780,NaN,-6.920300,5.866770,5.400944,0.495600,-0.323052,0.729010,1.020351,0.867990,0.911654,-0.358149,0.181858,-0.448764,-0.798291,47.825594,37.719729,148.899436
38781,NaN,-6.774418,5.254994,6.021866,0.956419,0.605381,0.603036,0.827717,0.905189,0.987979,-0.353007,0.181746,-0.454599,-0.797304,48.890431,37.645043,149.852854
38782,NaN,-6.738792,4.556761,6.154981,1.530850,1.096863,0.212809,0.845560,0.857837,1.018391,-0.347811,0.181345,-0.460426,-0.796335,49.956948,37.524862,150.796674
38783,NaN,-7.122740,4.343263,5.609344,2.023913,0.682636,0.010625,1.107803,0.836144,0.986995,-0.343038,0.180452,-0.467192,-0.794665,51.150909,37.396488,151.704124
38784,NaN,-7.135006,5.032324,4.199697,1.597177,-0.626494,-0.277295,1.378300,0.809257,1.060868,-0.338217,0.178810,-0.475023,-0.792458,52.507260,37.208687,152.628613
38785,NaN,-6.874447,6.309724,4.078746,0.629233,-0.891445,0.312160,1.487284,0.811091,1.169030,-0.333063,0.176707,-0.483332,-0.790085,53.944495,36.954918,153.586540
38786,NaN,-6.616692,7.282544,3.952521,-0.101819,-1.051767,0.738049,1.422113,0.811328,1.202870,-0.327646,0.174622,-0.491369,-0.787853,55.344420,36.665551,154.552431
38787,NaN,-6.486844,7.513289,4.199465,-0.207807,-0.706676,0.939918,1.191712,0.706589,1.131654,-0.322573,0.172652,-0.498215,-0.786078,56.545496,36.360112,155.410494
38788,NaN,-6.512234,7.007330,4.428923,0.288227,-0.235164,0.722337,0.967403,0.562209,1.031654,-0.318000,0.170723,-0.503831,-0.784783,57.536095,36.043323,156.138440
38789,NaN,-6.076534,6.545166,5.086268,0.422259,0.731514,0.430287,0.894031,0.345754,0.992512,-0.314077,0.168144,-0.508746,-0.783748,58.388704,35.671400,156.707851
38790,NaN,-4.952740,6.428972,4.478881,-0.264887,0.664785,-0.571043,1.081056,0.291422,0.993134,-0.310399,0.165054,-0.514292,-0.782249,59.322935,35.274815,157.239390
38791,NaN,-4.021604,7.150363,3.752453,-1.375371,0.194537,-0.899185,1.269625,0.377881,1.023942,-0.306550,0.161915,-0.520694,-0.780185,60.389910,34.881704,157.818152
38792,NaN,-3.731745,8.038466,3.834440,-2.056300,0.227921,-0.380646,1.223606,0.557366,1.010801,-0.302191,0.159574,-0.527152,-0.778028,61.482677,34.534838,158.494866
38793,NaN,-4.041446,8.004002,2.722994,-1.774533,-0.761547,-0.643105,1.107448,0.817995,0.957972,-0.297250,0.158554,-0.533456,-0.775840,62.577645,34.274962,159.301422
38794,NaN,-4.793185,7.992246,2.689536,-1.095768,-0.893548,-0.216687,0.979128,0.898710,0.932663,-0.292056,0.158092,-0.539343,-0.773834,63.617891,34.035776,160.143673
38795,NaN,-5.723130,7.913288,2.975172,-0.209603,-0.753618,0.366321,0.936974,0.804796,0.891652,-0.287233,0.157432,-0.544846,-0.771917,64.584339,33.782658,160.905897
38796,NaN,-5.507221,7.910731,3.031302,-0.278631,-0.529323,0.273857,0.916999,0.650746,0.923232,-0.282666,0.156108,-0.550063,-0.770169,65.486789,33.464978,161.575306
38797,NaN,-5.288487,7.854106,3.505194,-0.289279,0.083782,0.279356,0.823292,0.528752,0.892333,-0.278475,0.154528,-0.554678,-0.768704,66.278152,33.127262,162.150040
38798,NaN,-5.912414,7.611502,3.027818,0.410248,-0.380943,0.274167,0.767512,0.439519,0.832691,-0.274698,0.152838,-0.558904,-0.767338,66.994435,32.793765,162.646613
38799,NaN,-5.937710,7.424100,3.218023,0.642376,-0.088287,0.202692,0.729180,0.307952,0.795973,-0.271402,0.150799,-0.562738,-0.766112,67.630178,32.446579,163.042782
38800,NaN,-5.656443,7.446117,3.919863,0.541247,0.708831,0.287259,0.758793,0.185547,0.765317,-0.268570,0.148326,-0.566496,-0.764821,68.235216,32.084848,163.349835
38801,NaN,-5.215675,7.573961,4.415500,0.235095,1.325018,0.299326,0.816365,0.107614,0.719608,-0.266177,0.145607,-0.570301,-0.763351,68.833823,31.728880,163.589523
38802,NaN,-4.962021,7.527014,3.567251,0.070538,0.661679,-0.140092,0.851614,0.179982,0.708517,-0.263630,0.143141,-0.574329,-0.761680,69.473889,31.390977,163.868023
38803,NaN,-4.866495,7.517859,2.584625,-0.007670,-0.174624,-0.493365,0.796857,0.354229,0.735338,-0.260443,0.141333,-0.578362,-0.760061,70.135443,31.071219,164.255167
38804,NaN,-4.850530,7.910718,2.137739,-0.202158,-0.594703,-0.311034,0.803914,0.486951,0.763834,-0.256749,0.139929,-0.582611,-0.758330,70.845375,30.756734,164.728078
38805,NaN,-4.790409,8.628490,2.305288,-0.552671,-0.470319,0.295986,0.804839,0.552062,0.789005,-0.252771,0.138694,-0.586930,-0.756560,71.571735,30.436196,165.239649
38806,NaN,-5.401963,8.840523,2.841703,-0.026871,-0.040732,0.930111,0.656823,0.589018,0.796152,-0.248536,0.137757,-0.590733,-0.755174,72.222506,30.112416,165.771393
38807,NaN,-6.196396,8.003748,3.446025,1.223131,0.598246,0.792760,0.444242,0.550070,0.811390,-0.244214,0.136893,-0.593659,-0.754446,72.732603,29.769752,166.274500
38808,NaN,-6.274069,6.888364,3.522861,1.963909,0.916869,-0.090256,0.441349,0.427880,0.817359,-0.240213,0.135545,-0.596430,-0.753788,73.200978,29.398793,166.698111
38809,NaN,-6.003334,6.876874,2.726373,1.752262,0.268151,-0.452066,0.729455,0.284449,0.805021,-0.236887,0.133349,-0.600072,-0.752341,73.781331,29.008945,167.022081
38810,NaN,-4.173622,8.104578,1.658488,-0.445841,-0.537494,-0.573366,0.898515,0.259518,0.859490,-0.233523,0.130686,-0.604352,-0.750431,74.453485,28.581049,167.335525
38811,NaN,-3.590548,9.222735,2.273773,-1.370440,0.070576,0.248949,0.858910,0.302842,0.844817,-0.230060,0.128276,-0.608484,-0.748575,75.106748,28.165777,167.665263
38812,NaN,-4.953634,9.332277,3.222503,-0.072775,0.798624,1.204118,0.752423,0.280650,0.817307,-0.226679,0.125979,-0.612170,-0.746990,75.687913,27.758293,167.971722
38813,NaN,-5.592630,8.060448,2.761893,1.159837,0.489286,0.301203,0.618221,0.182032,0.848816,-0.223403,0.123371,-0.615228,-0.745899,76.158873,27.318202,168.214374
38814,NaN,-5.213185,7.203413,2.576224,1.318252,0.552421,-0.666126,0.669823,0.039479,0.870595,-0.220497,0.120098,-0.618330,-0.744732,76.618798,26.843902,168.367656
38815,NaN,-5.602974,7.666120,2.627672,1.536812,0.523257,-0.095148,0.935116,-0.095783,0.859609,-0.218214,0.116062,-0.622226,-0.742797,77.186070,26.357921,168.428041
38816,NaN,-5.369097,8.627814,2.095978,0.934571,-0.007574,0.520968,1.082477,-0.136779,0.909090,-0.215938,0.111550,-0.626642,-0.740438,77.828991,25.837671,168.465193
38817,NaN,-4.624076,8.840607,1.950507,0.277694,0.034779,0.349154,1.010164,-0.136462,0.956778,-0.213448,0.106969,-0.630768,-0.738329,78.427487,25.291832,168.500882
38818,NaN,-3.973668,8.351569,1.673178,0.000469,0.002621,-0.413908,0.927711,-0.224182,0.955300,-0.211171,0.102146,-0.634483,-0.736481,78.955448,24.735221,168.477371
38819,NaN,-5.005837,8.483107,2.492073,1.067536,0.661595,0.269631,1.057355,-0.391472,0.902261,-0.209691,0.096739,-0.638425,-0.734224,79.507662,24.192246,168.337089
38820,NaN,-4.078200,8.739323,1.710363,0.147335,0.106405,-0.019922,1.122680,-0.488376,0.977835,-0.208248,0.090655,-0.642520,-0.731835,80.078112,23.596616,168.141651
38821,NaN,-3.711612,8.387750,1.656683,0.073116,0.212655,-0.494791,1.009007,-0.503693,0.953449,-0.206898,0.084715,-0.646121,-0.729756,80.576089,23.017082,167.927556
38822,NaN,-5.066962,8.604432,2.615016,1.461123,0.929390,0.363178,1.216845,-0.575523,0.942313,-0.205878,0.078320,-0.650376,-0.726974,81.178100,22.437118,167.664694
38823,NaN,-4.264788,9.176040,2.853227,0.682657,1.349920,0.591080,1.346332,-0.674821,1.013422,-0.204972,0.071201,-0.654962,-0.723838,81.831658,21.812690,167.340485
38824,NaN,-3.953246,9.147437,2.740781,0.541771,1.379513,0.415545,1.338051,-0.736617,1.033974,-0.204159,0.063785,-0.659424,-0.720701,82.470966,21.173631,166.975557
38825,NaN,-3.891557,8.625554,1.306837,0.566019,0.085640,-0.277341,1.362618,-0.815507,1.013309,-0.203688,0.056131,-0.663812,-0.717436,83.105494,20.546136,166.553555
38826,NaN,-1.326638,8.622513,-1.072264,-2.109048,-1.601963,-1.431661,1.329762,-0.875070,1.099137,-0.203061,0.047999,-0.668002,-0.714307,83.716212,19.868502,166.097446
38827,NaN,-3.945875,9.578365,0.890839,0.456669,-0.231099,0.572147,1.358180,-0.944739,1.014492,-0.202970,0.039872,-0.672124,-0.710959,84.327659,19.240618,165.586821
38828,NaN,-5.599527,10.209263,2.583220,2.277650,1.072129,1.845635,1.391577,-1.125381,1.148087,-0.202984,0.030611,-0.676154,-0.707585,84.932067,18.530896,164.971162
38829,NaN,-4.172591,9.119100,2.811683,1.559329,1.679449,0.347010,1.187155,-1.225357,1.192208,-0.203141,0.021059,-0.679274,-0.704895,85.404381,17.798215,164.292004
38830,NaN,-3.995615,8.379663,2.821179,1.801695,1.757747,-0.442288,1.441144,-1.210115,1.189720,-0.203243,0.011301,-0.683242,-0.701245,86.034675,17.072287,163.618524
38831,NaN,-3.681739,8.935965,2.151334,1.344030,1.258049,-0.084242,1.753665,-1.211805,1.228771,-0.203219,0.001092,-0.688194,-0.696484,86.847361,16.333577,162.937314
38832,NaN,-3.021334,9.821151,0.770705,0.281483,0.235381,0.484842,1.946079,-1.211566,1.256898,-0.203049,-0.009416,-0.693723,-0.690964,87.779575,15.587321,162.249288
38833,NaN,-1.157582,10.093033,-0.049266,-1.567227,0.130950,0.223969,1.879813,-1.225823,1.256885,-0.202914,-0.019897,-0.698873,-0.685570,88.674461,14.853063,161.541706
38834,NaN,-0.971105,9.775980,0.204570,-1.411700,0.536017,-0.103364,1.821461,-1.196169,1.184541,-0.202880,-0.029969,-0.703768,-0.680186,89.549384,14.169524,160.842994
38835,NaN,-2.169462,10.334647,0.989277,-0.011086,1.058094,0.740331,1.968229,-1.199094,1.180560,-0.202829,-0.040176,-0.709027,-0.674187,90.510625,13.500281,160.132244
38836,NaN,-1.990967,10.957805,1.426391,0.042236,1.708727,1.284397,2.005558,-1.183479,1.184313,-0.202653,-0.050379,-0.714325,-0.667932,91.504327,12.839494,159.422182
38837,NaN,-1.971869,10.880981,3.137277,0.873680,3.422174,1.125606,1.896912,-1.195128,1.189900,-0.202508,-0.060519,-0.719109,-0.661975,92.436818,12.188344,158.694538
38838,NaN,-6.625035,10.122465,7.059683,6.952421,5.357241,1.102930,1.746833,-1.495869,1.097445,-0.203748,-0.071164,-0.723022,-0.656248,93.256842,11.608683,157.786494
38839,NaN,-6.873811,8.421774,2.169237,5.761799,0.504649,-0.356179,1.745727,-1.958396,1.096872,-0.206666,-0.083328,-0.726308,-0.650248,94.027666,11.060098,156.597510
38840,NaN,-4.328853,8.579967,1.416670,3.287328,0.807381,-0.707682,2.000299,-2.376430,1.096051,-0.210908,-0.097073,-0.729838,-0.642986,94.911588,10.545933,155.164607
38841,NaN,-3.867347,9.862271,1.275583,2.814593,1.083295,0.422029,2.111005,-2.550949,1.079264,-0.215774,-0.111426,-0.733315,-0.635040,95.848781,10.075167,153.620015
38842,NaN,-4.117938,11.109480,1.838261,3.348539,1.696026,1.574326,1.921563,-2.662720,1.097293,-0.220985,-0.125944,-0.735859,-0.627547,96.680819,9.622535,152.010236
38843,NaN,-4.336539,11.279991,2.154223,3.869805,1.870692,1.685411,1.489804,-2.822964,1.037952,-0.227228,-0.140249,-0.736670,-0.621301,97.258291,9.236489,150.303090
38844,NaN,-4.044033,10.958126,2.200061,3.832124,1.925323,1.272460,1.212264,-2.843377,0.879024,-0.234124,-0.153663,-0.736532,-0.615707,97.690034,8.954898,148.600043
38845,NaN,-3.854640,11.099839,2.446589,3.934319,2.175046,1.315594,0.992905,-2.764544,0.750018,-0.241292,-0.166083,-0.735701,-0.610687,98.007427,8.753748,146.945500
38846,NaN,-3.651043,11.434469,1.943647,3.585383,1.857700,1.656727,0.776454,-2.516530,0.677032,-0.247846,-0.177164,-0.734444,-0.606446,98.232635,8.579262,145.445405
38847,NaN,-4.177715,12.026666,1.453258,3.795587,1.205922,2.366972,0.633550,-2.316567,0.620922,-0.253978,-0.187244,-0.732894,-0.602745,98.393099,8.427503,144.058053
38848,NaN,-4.898552,12.900141,0.625916,3.909678,0.227647,3.433558,0.492032,-2.142337,0.546161,-0.259735,-0.196300,-0.731137,-0.599535,98.495959,8.304110,142.783642
38849,NaN,-4.266003,13.669402,-0.762203,2.559443,-0.391539,4.291489,0.224060,-1.975511,0.445380,-0.265480,-0.204135,-0.728772,-0.597278,98.457341,8.227159,141.606588
38850,NaN,-2.244679,13.861356,-2.237627,0.055021,-0.294718,4.403242,-0.026274,-1.751216,0.478361,-0.270477,-0.211051,-0.725890,-0.596140,98.300331,8.108098,140.562654
38851,NaN,-0.220205,13.703002,-3.733870,-2.473553,-0.223214,4.172806,-0.347078,-1.354166,0.404138,-0.274635,-0.216081,-0.722582,-0.596456,97.989086,7.997328,139.746359
38852,NaN,1.336036,13.164496,-4.736125,-4.346930,-0.127678,3.551704,-0.761940,-0.924426,0.210352,-0.278193,-0.218535,-0.718840,-0.598431,97.482957,7.955079,139.199198
38853,NaN,-0.170791,12.495872,-5.679460,-3.922314,-2.008638,3.187727,-1.196543,-0.450727,0.026469,-0.281123,-0.218317,-0.714595,-0.602214,96.762611,7.980160,138.930738
38854,NaN,-1.200718,11.111337,-5.729227,-3.275295,-3.071788,1.915960,-1.475101,-0.118314,-0.286137,-0.284037,-0.215560,-0.710319,-0.606880,95.916679,8.156445,138.880012
38855,NaN,-1.068755,9.623258,-5.302205,-3.164058,-3.018550,0.323268,-1.439267,0.056271,-0.538021,-0.287095,-0.211435,-0.706600,-0.611219,95.102954,8.467991,138.934852
38856,NaN,-0.245675,9.272122,-4.412642,-3.283650,-1.950126,-0.277633,-1.190349,0.166651,-0.582106,-0.289566,-0.207145,-0.703842,-0.614695,94.445784,8.798238,139.058047
38857,NaN,0.475755,10.243164,-3.294524,-3.249736,-0.551643,0.440911,-1.045273,0.173496,-0.524414,-0.291725,-0.203257,-0.701424,-0.617728,93.868428,9.098369,139.173001
38858,NaN,1.830673,10.715124,-2.937444,-4.171060,0.602052,0.629151,-1.140486,0.131032,-0.471806,-0.293905,-0.199520,-0.698599,-0.621105,93.236039,9.369328,139.264632
38859,NaN,2.696218,10.350952,-2.508140,-4.621328,1.351753,0.062366,-1.287166,0.279636,-0.476105,-0.295761,-0.195103,-0.695484,-0.625110,92.530468,9.640900,139.433311
38860,NaN,2.069382,9.979369,-1.982866,-3.892402,1.204314,-0.262892,-1.402458,0.528192,-0.479656,-0.296812,-0.189695,-0.692369,-0.629717,91.786924,9.909901,139.749287
38861,NaN,0.892059,9.307317,-1.442138,-2.697689,0.683646,-0.770837,-1.417564,0.796781,-0.448900,-0.296876,-0.183537,-0.689504,-0.634636,91.059707,10.162257,140.211571
38862,NaN,0.291575,8.803201,-0.905322,-1.935751,0.569437,-1.191296,-1.298654,1.089920,-0.346934,-0.295431,-0.176939,-0.687334,-0.639519,90.435212,10.358611,140.847231
38863,NaN,-0.322974,8.599409,-0.734090,-1.407816,0.220263,-1.294368,-1.191431,1.370885,-0.165824,-0.292366,-0.170236,-0.685684,-0.644499,89.900149,10.457614,141.638243
38864,NaN,-0.551087,8.244027,-0.811118,-1.281700,-0.090657,-1.610611,-1.104622,1.607188,-0.049758,-0.287975,-0.163254,-0.684524,-0.649496,89.443555,10.497106,142.572868
38865,NaN,-0.837185,7.884600,-0.946807,-1.118720,-0.473421,-1.920400,-1.017053,1.845596,0.033062,-0.282442,-0.155921,-0.683832,-0.654438,89.060256,10.498221,143.640256
38866,NaN,-1.342942,7.698608,-1.184142,-0.839887,-1.035414,-2.021890,-0.906697,1.961397,0.087121,-0.276175,-0.148502,-0.683567,-0.659098,88.754946,10.475425,144.782169
38867,NaN,-1.488205,7.604639,-1.392052,-0.818781,-1.346306,-2.099068,-0.780024,1.961258,0.168524,-0.269555,-0.141547,-0.683561,-0.663362,88.519080,10.411807,145.919040
38868,NaN,-1.137956,7.561395,-1.302587,-1.026880,-1.130075,-2.207783,-0.663076,1.918367,0.268676,-0.262598,-0.135191,-0.683761,-0.667260,88.346687,10.293654,147.038455
38869,NaN,-1.397247,7.704666,-1.177516,-0.743281,-1.197656,-2.020790,-0.595377,1.854047,0.308577,-0.255696,-0.129289,-0.683989,-0.670867,88.201885,10.155172,148.115074
38870,NaN,-1.396162,7.919701,-1.133234,-0.727574,-1.185981,-1.811499,-0.560754,1.678704,0.341616,-0.249197,-0.124094,-0.684046,-0.674227,88.058589,9.996587,149.096124
38871,NaN,-0.856029,7.730572,-1.279945,-1.197090,-1.096536,-2.099253,-0.543893,1.481483,0.432100,-0.243076,-0.119909,-0.683791,-0.677470,87.900397,9.785327,149.958816
38872,NaN,-0.628682,7.205668,-1.280110,-1.273136,-1.060402,-2.656572,-0.469909,1.451681,0.423777,-0.236988,-0.115854,-0.683728,-0.680389,87.780580,9.579686,150.809433
38873,NaN,-0.903531,7.223400,-1.788309,-1.247197,-1.673963,-2.613102,-0.277224,1.542758,0.345388,-0.230766,-0.111468,-0.684416,-0.682566,87.775087,9.422390,151.705679
38874,NaN,-1.295411,7.746066,-2.171657,-1.119648,-2.195609,-2.046022,-0.101161,1.601447,0.331376,-0.224240,-0.107004,-0.685752,-0.684113,87.875309,9.273132,152.640387
38875,NaN,-1.349241,8.442624,-2.160469,-1.116182,-2.195059,-1.345017,-0.034425,1.612872,0.365565,-0.217545,-0.102712,-0.687251,-0.685427,88.010881,9.103236,153.576350
38876,NaN,-1.720530,8.962044,-1.894650,-0.687998,-2.109694,-0.760414,-0.109210,1.595304,0.340146,-0.210985,-0.098278,-0.688455,-0.686918,88.100518,8.945129,154.506199
38877,NaN,-2.031712,8.936611,-1.763753,-0.293976,-2.134216,-0.731930,-0.220420,1.559820,0.270165,-0.204860,-0.093625,-0.689218,-0.688654,88.119608,8.826123,155.408954
38878,NaN,-1.930791,8.464307,-1.573778,-0.184668,-1.945027,-1.208514,-0.234893,1.541759,0.264315,-0.198779,-0.088970,-0.689884,-0.690385,88.128044,8.709344,156.305497
38879,NaN,-1.779199,8.120804,-1.403954,-0.155908,-1.745099,-1.565614,-0.152443,1.569178,0.269127,-0.192570,-0.084335,-0.690808,-0.691801,88.183446,8.590519,157.213093
38880,NaN,-1.480438,8.206315,-1.282949,-0.346921,-1.514107,-1.520029,-0.007685,1.658498,0.274571,-0.185928,-0.079523,-0.692278,-0.692718,88.328303,8.467861,158.176578
38881,NaN,-1.044568,8.555954,-1.340184,-0.767566,-1.388127,-1.235086,0.127391,1.851943,0.282049,-0.178555,-0.074207,-0.694333,-0.693191,88.564278,8.341549,159.246887
38882,NaN,-0.754455,8.970337,-1.337761,-1.037326,-1.258823,-0.859211,0.204507,2.131086,0.265418,-0.170190,-0.067905,-0.696845,-0.693420,88.865761,8.222572,160.482173
38883,NaN,-0.642542,9.330536,-1.387184,-1.146630,-1.239864,-0.509805,0.252767,2.460340,0.248905,-0.160726,-0.060457,-0.699713,-0.693480,89.218988,8.109918,161.902732
38884,NaN,-0.953173,9.718606,-1.074075,-0.746646,-0.998762,-0.068046,0.245678,2.725793,0.239732,-0.150310,-0.052020,-0.702656,-0.693524,89.587034,7.994536,163.479738
38885,NaN,-1.613378,10.061315,-1.284497,-0.158029,-1.333821,0.369566,0.197387,2.865838,0.207188,-0.139526,-0.042957,-0.705404,-0.693608,89.935297,7.888980,165.132541
38886,NaN,-2.157448,10.225717,-1.334463,0.400943,-1.461092,0.613453,0.109926,2.856286,0.196955,-0.128773,-0.033800,-0.707702,-0.693853,90.229593,7.779492,166.782724
38887,NaN,-2.517684,10.276621,-1.368092,0.805518,-1.514818,0.717038,0.027110,2.764599,0.182736,-0.118409,-0.024871,-0.709516,-0.694224,90.466196,7.671565,168.375198
38888,NaN,-2.539518,10.203021,-1.457612,0.885415,-1.552831,0.650562,-0.034148,2.638532,0.155015,-0.108548,-0.016221,-0.710917,-0.694659,90.654990,7.573689,169.897943
38889,NaN,-2.440761,9.971409,-1.374542,0.892948,-1.411666,0.409107,-0.081401,2.557789,0.125050,-0.099089,-0.007733,-0.711993,-0.695117,90.808400,7.489855,171.370204
38890,NaN,-2.358995,9.793107,-1.288290,0.899541,-1.274434,0.222042,-0.096955,2.506638,0.091215,-0.089889,0.000723,-0.712876,-0.695505,90.946838,7.421339,172.816151
38891,NaN,-2.286332,9.701537,-1.083232,0.907496,-1.020395,0.119860,-0.097558,2.491745,0.059202,-0.080863,0.009228,-0.713642,-0.695767,91.082655,7.368784,174.250512
38892,NaN,-2.204704,9.624199,-0.856979,0.892114,-0.744225,0.029587,-0.085226,2.529745,0.025297,-0.071783,0.017993,-0.714349,-0.695866,91.226883,7.330830,175.709875
38893,NaN,-2.122018,9.615046,-0.613636,0.851789,-0.449647,0.005698,-0.095491,2.587422,-0.019532,-0.062664,0.027109,-0.714924,-0.695860,91.369365,7.315198,177.200138
38894,NaN,-2.116494,9.460257,-0.765733,0.872538,-0.559540,-0.143780,-0.113678,2.693416,-0.083834,-0.053353,0.036835,-0.715333,-0.695770,91.508819,7.330218,178.755305
38895,NaN,-2.247881,9.263127,-1.077306,1.034735,-0.830857,-0.312275,-0.148493,2.810103,-0.140256,-0.043828,0.047161,-0.715510,-0.695630,91.638456,7.373195,-179.623790
38896,NaN,-2.402824,9.049468,-1.298707,1.235081,-1.000892,-0.494666,-0.093225,2.874437,-0.156387,-0.034110,0.057757,-0.715740,-0.695138,91.805267,7.419039,-177.962509
38897,NaN,-2.300849,9.154591,-1.354963,1.142947,-0.987734,-0.397068,0.087113,2.947614,-0.143584,-0.024153,0.068510,-0.716467,-0.693829,92.082782,7.450953,-176.261401
38898,NaN,-2.397466,9.575126,-1.357824,1.200927,-0.890169,0.038165,0.152119,2.909445,-0.181184,-0.014457,0.079251,-0.717242,-0.692152,92.395176,7.495340,-174.578705
38899,NaN,-2.494426,9.978456,-1.515441,1.267650,-0.938339,0.463510,0.147670,2.846536,-0.231091,-0.005175,0.089933,-0.717834,-0.690362,92.702929,7.562189,-172.932561
38900,NaN,-2.421152,10.020455,-1.499603,1.194260,-0.846404,0.501242,0.092819,2.777487,-0.252271,0.003832,0.100440,-0.718077,-0.688667,92.975283,7.633525,-171.323151
38901,NaN,-2.304208,9.942751,-1.506446,1.093653,-0.796704,0.415010,0.078975,2.732794,-0.264463,0.012622,0.110815,-0.718136,-0.686907,93.239401,7.707182,-169.740271
38902,NaN,-2.162025,9.773532,-1.467936,0.972315,-0.717372,0.231749,0.099189,2.698356,-0.264997,0.021294,0.121057,-0.718126,-0.684972,93.513430,7.773503,-168.174960
38903,NaN,-2.011198,9.623307,-1.374564,0.825612,-0.591449,0.062055,0.140638,2.686974,-0.267608,0.029870,0.131253,-0.718132,-0.682764,93.813182,7.835482,-166.616746
38904,NaN,-1.929269,9.472345,-1.239840,0.730685,-0.413749,-0.102946,0.197246,2.691126,-0.265594,0.038442,0.141439,-0.718195,-0.680230,94.146237,7.886095,-165.054515
38905,NaN,-1.914637,9.359292,-1.275696,0.730199,-0.381086,-0.210050,0.273788,2.705328,-0.262404,0.046997,0.151653,-0.718392,-0.677278,94.526759,7.926168,-163.484888
38906,NaN,-1.940908,9.294202,-1.258595,0.746239,-0.277325,-0.268110,0.358568,2.696879,-0.232111,0.055570,0.161718,-0.718760,-0.673902,94.954508,7.936832,-161.920133
38907,NaN,-1.888808,9.210242,-1.276805,0.700150,-0.224568,-0.353035,0.432764,2.688303,-0.193715,0.064152,0.171609,-0.719286,-0.670122,95.425064,7.915413,-160.363436
38908,NaN,-1.737777,9.144064,-1.242674,0.543933,-0.154240,-0.439445,0.460035,2.672172,-0.155403,0.072787,0.181283,-0.719800,-0.666128,95.907170,7.858701,-158.817483
38909,NaN,-1.567233,8.940157,-1.386033,0.456625,-0.267595,-0.646286,0.504012,2.678783,-0.130447,0.081461,0.190878,-0.720353,-0.661831,96.414119,7.775751,-157.270620
38910,NaN,-1.034265,8.784820,-1.479116,0.025337,-0.475818,-0.857082,0.580893,2.685651,-0.025364,0.090434,0.200106,-0.721118,-0.657091,96.959976,7.616858,-155.727652
38911,NaN,-0.450096,8.656838,-1.537163,-0.450346,-0.688077,-1.047447,0.645371,2.666289,0.103923,0.099665,0.208802,-0.722103,-0.651947,97.535898,7.372424,-154.208170
38912,NaN,-0.246023,8.669592,-1.545811,-0.614991,-0.697436,-1.052175,0.719543,2.645459,0.181550,0.108993,0.217141,-0.723279,-0.646403,98.142899,7.068500,-152.709709
38913,NaN,0.087397,8.802109,-1.433464,-0.960947,-0.650229,-0.970029,0.798850,2.651104,0.311037,0.118641,0.225039,-0.724717,-0.640365,98.786294,6.675888,-151.223747
38914,NaN,0.970415,8.956542,-1.461434,-1.709379,-0.994900,-0.902890,0.859692,2.657839,0.517735,0.128895,0.232194,-0.726428,-0.633857,99.448870,6.147559,-149.758678
38915,NaN,2.393543,9.085523,-1.623271,-2.815233,-1.751432,-0.873082,0.955574,2.694724,0.750748,0.139874,0.238641,-0.728543,-0.626667,100.151432,5.467892,-148.303443
38916,NaN,3.582553,9.306696,-1.977136,-3.583316,-2.573282,-0.653304,0.950068,2.829260,0.996035,0.152095,0.244548,-0.730664,-0.619026,100.833621,4.617413,-146.808186
38917,NaN,3.279040,9.558133,-2.655100,-2.881486,-2.854438,-0.184313,0.896879,3.038732,1.100996,0.165426,0.250620,-0.732404,-0.611072,101.470231,3.668098,-145.218184
38918,NaN,1.531027,10.016714,-3.071395,-1.149149,-2.008696,0.519427,0.865618,3.211027,1.146912,0.179523,0.256945,-0.733740,-0.602807,102.064678,2.655427,-143.548964
38919,NaN,-0.496721,10.436795,-2.964898,0.481350,-0.469636,1.027355,0.846170,3.183142,1.281489,0.193893,0.262602,-0.734994,-0.594331,102.617038,1.554283,-141.922800
38920,NaN,-1.333767,10.804921,-2.100152,0.670344,1.001309,1.209038,0.843875,2.909111,1.482183,0.207798,0.266620,-0.736546,-0.585861,103.130940,0.360899,-140.487226
38921,NaN,-0.708581,10.802334,-1.433608,-0.122801,1.332493,1.024842,0.734429,2.544773,1.758365,0.221261,0.268378,-0.738331,-0.577827,103.553368,-0.949770,-139.300263
38922,NaN,-0.146785,10.527075,-1.418826,-0.399606,1.138249,0.741628,0.639594,2.324023,1.924075,0.234461,0.268706,-0.740124,-0.570124,103.896668,-2.330736,-138.268075
38923,NaN,-0.209506,10.612539,-1.249968,-0.349056,1.532859,0.758757,0.721694,2.182215,2.007833,0.247210,0.268366,-0.742258,-0.562068,104.268146,-3.744564,-137.332894
38924,NaN,-0.328842,10.750185,-1.101090,-0.258636,1.976372,0.813139,0.809188,2.006674,2.107900,0.259414,0.267195,-0.744817,-0.553678,104.674739,-5.195385,-136.519107
38925,NaN,-0.283975,11.648677,-0.619908,-0.601714,2.742464,1.512786,0.881114,1.798822,2.230361,0.271028,0.265035,-0.747842,-0.545007,105.117444,-6.689008,-135.847248
38926,NaN,0.338509,12.269631,-0.425244,-1.110097,2.869753,2.076953,0.735446,1.545323,2.360822,0.282183,0.261432,-0.750822,-0.536928,105.480159,-8.221411,-135.345927
38927,NaN,0.913376,12.191914,-0.564010,-1.250107,2.615945,2.077692,0.531344,1.384972,2.442652,0.293165,0.256761,-0.753430,-0.529594,105.730000,-9.776210,-134.952074
38928,NaN,0.807853,11.929627,-0.611903,-0.948957,2.825996,1.782514,0.431453,1.313233,2.433737,0.303923,0.251725,-0.755720,-0.522641,105.919590,-11.317041,-134.602499
38929,NaN,0.062290,11.663759,-0.513615,-0.323403,3.558755,1.301924,0.417585,1.219575,2.404280,0.314209,0.246496,-0.757932,-0.515802,106.102940,-12.827191,-134.303256
38930,NaN,-0.722867,11.592646,-0.179071,0.122357,4.521216,0.886883,0.460725,1.005144,2.401298,0.323565,0.240739,-0.760455,-0.508977,106.332560,-14.303191,-134.129620
38931,NaN,-0.831054,11.633746,0.195817,0.060664,5.069467,0.692688,0.485090,0.683262,2.433278,0.331694,0.234053,-0.763466,-0.502313,106.621827,-15.743936,-134.149078
38932,NaN,-0.340033,11.519461,0.202082,-0.126188,4.916181,0.611451,0.488196,0.354686,2.474211,0.338615,0.226339,-0.766958,-0.495868,106.971392,-17.153865,-134.373227
38933,NaN,0.105912,11.318927,0.032673,-0.152492,4.651655,0.505385,0.498225,0.130393,2.444624,0.344535,0.218180,-0.770692,-0.489619,107.372247,-18.506408,-134.731145
38934,NaN,0.356295,11.324122,-0.093854,-0.087916,4.629807,0.527638,0.522788,-0.000621,2.374954,0.349703,0.209962,-0.774529,-0.483455,107.821077,-19.797448,-135.166750
38935,NaN,0.377398,11.436184,-0.131953,0.059876,4.858034,0.547621,0.506142,-0.064134,2.301013,0.354410,0.201835,-0.778237,-0.477498,108.280831,-21.031352,-135.638177
38936,NaN,0.123539,11.318534,-0.023042,0.275752,5.236719,0.218281,0.418841,-0.102915,2.212040,0.358800,0.193763,-0.781624,-0.471999,108.708571,-22.208672,-136.130463
38937,NaN,-0.253303,11.107170,0.095133,0.560947,5.628483,-0.250096,0.340232,-0.159106,2.131534,0.362805,0.185724,-0.784741,-0.466970,109.109957,-23.325925,-136.651699
38938,NaN,-0.316614,10.790920,0.234882,0.609877,5.759544,-0.699470,0.331432,-0.241927,2.081178,0.366342,0.177637,-0.787864,-0.462070,109.538471,-24.399388,-137.225771
38939,NaN,-0.328798,10.686921,0.251643,0.717233,5.877648,-0.906703,0.366809,-0.292115,2.002790,0.369420,0.169806,-0.790992,-0.457195,110.005375,-25.413467,-137.825509
38940,NaN,-0.345476,10.753205,0.120883,0.939211,5.991088,-0.925252,0.378913,-0.317783,1.899882,0.372123,0.162311,-0.794042,-0.452412,110.494388,-26.365811,-138.433640
38941,NaN,-0.347641,10.704098,0.007971,1.124570,6.034133,-1.036583,0.314436,-0.307998,1.806219,0.374662,0.155098,-0.796763,-0.448043,110.945437,-27.261443,-139.026116
38942,NaN,-0.451598,10.475393,0.089436,1.216357,6.137728,-1.398894,0.213172,-0.273695,1.685231,0.377125,0.148219,-0.799053,-0.444209,111.333036,-28.099578,-139.583849
38943,NaN,-0.589125,10.126141,0.258116,1.248159,6.221156,-1.895008,0.132269,-0.245993,1.548295,0.379415,0.141807,-0.800937,-0.440947,111.658088,-28.863007,-140.100476
38944,NaN,-0.795692,9.738249,0.484209,1.270011,6.334294,-2.466721,0.088050,-0.239651,1.424714,0.381483,0.135791,-0.802598,-0.438026,111.955397,-29.563990,-140.593225
38945,NaN,-0.778656,9.495879,0.525290,1.281208,6.279237,-2.742868,0.100995,-0.252103,1.298393,0.383180,0.130297,-0.804166,-0.435330,112.251804,-30.187893,-141.067533
38946,NaN,-0.861965,9.467068,0.640768,1.319670,6.440556,-2.916632,0.136857,-0.267530,1.168665,0.384512,0.125331,-0.805747,-0.432683,112.569683,-30.742587,-141.527287
38947,NaN,-1.098074,9.749183,0.807842,1.455406,6.891082,-2.935274,0.143799,-0.292343,1.031813,0.385412,0.120900,-0.807254,-0.430327,112.881764,-31.211465,-141.970254
38948,NaN,-1.571841,10.137325,1.061500,1.699723,7.574680,-3.023190,0.109292,-0.334458,0.873488,0.385832,0.116920,-0.808676,-0.428376,113.177447,-31.591198,-142.405355
38949,NaN,-2.046670,10.375575,1.414785,1.853330,8.212376,-3.257953,-0.004772,-0.414850,0.701558,0.385594,0.113265,-0.809868,-0.427320,113.407013,-31.854177,-142.845680
38950,NaN,-2.524777,10.424201,1.563291,2.134523,8.594141,-3.562368,-0.150187,-0.516081,0.506624,0.384630,0.109877,-0.810847,-0.427217,113.567864,-31.996673,-143.300550
38951,NaN,-2.833916,10.184946,1.455715,2.443630,8.537292,-3.894383,-0.257517,-0.616201,0.306714,0.382861,0.106908,-0.811639,-0.428054,113.664254,-32.003048,-143.760901
38952,NaN,-3.004063,9.947054,1.540183,2.520045,8.513907,-4.199944,-0.337328,-0.779794,0.145335,0.380145,0.104059,-0.812504,-0.429533,113.752806,-31.893765,-144.281480
38953,NaN,-3.326595,9.734936,1.632049,2.702618,8.572832,-4.549537,-0.404751,-0.987650,-0.035459,0.376190,0.101393,-0.813475,-0.431809,113.833529,-31.633054,-144.877565
38954,NaN,-3.672991,9.635414,1.729542,2.921344,8.702528,-4.807249,-0.471104,-1.241718,-0.237546,0.370818,0.098846,-0.814679,-0.434767,113.933233,-31.214674,-145.574324
38955,NaN,-3.998152,9.446817,1.688700,3.216445,8.663414,-5.050560,-0.547647,-1.550620,-0.428303,0.363739,0.096252,-0.816121,-0.438607,114.043475,-30.615602,-146.405332
38956,NaN,-4.108196,9.251483,1.586223,3.406188,8.461689,-5.145851,-0.615425,-1.884662,-0.612133,0.354944,0.093547,-0.817885,-0.443089,114.187567,-29.848399,-147.379185
38957,NaN,-3.985324,9.057360,1.420323,3.469680,8.092719,-5.079509,-0.678118,-2.205172,-0.803060,0.344347,0.090799,-0.819851,-0.448359,114.336995,-28.894947,-148.483506
38958,NaN,-3.743673,8.735141,1.098151,3.514199,7.476934,-4.989098,-0.757489,-2.492181,-0.975549,0.332216,0.087952,-0.821946,-0.454204,114.485621,-27.789922,-149.697346
38959,NaN,-3.450842,8.566038,0.857554,3.472117,6.968102,-4.772072,-0.807692,-2.729804,-1.143465,0.318597,0.085108,-0.824050,-0.460644,114.611223,-26.530334,-150.997910
38960,NaN,-3.136857,8.430079,0.610542,3.394704,6.455832,-4.514205,-0.874795,-2.924846,-1.298654,0.303845,0.082369,-0.826054,-0.467470,114.703144,-25.149046,-152.344141
38961,NaN,-2.876593,8.460218,0.514206,3.270545,6.155521,-4.198053,-0.942574,-3.063658,-1.437384,0.288033,0.079676,-0.827795,-0.474809,114.729213,-23.653408,-153.729067
38962,NaN,-2.591073,8.612087,0.441021,3.104410,5.921134,-3.781497,-1.024934,-3.165273,-1.538985,0.271599,0.077092,-0.829194,-0.482418,114.687411,-22.088355,-155.116078
38963,NaN,-2.443114,8.882732,0.426267,3.017090,5.835278,-3.339978,-1.106622,-3.224347,-1.613428,0.254560,0.074437,-0.830147,-0.490423,114.556989,-20.464865,-156.520697
38964,NaN,-2.208797,9.279516,0.150418,2.974396,5.566468,-2.659117,-1.160401,-3.209905,-1.670907,0.237486,0.072060,-0.830642,-0.498440,114.354284,-18.826076,-157.876452
38965,NaN,-1.796551,9.989795,-0.163324,2.784949,5.336653,-1.638991,-1.199948,-3.092710,-1.698695,0.220693,0.070034,-0.830536,-0.506558,114.054630,-17.195586,-159.156089
38966,NaN,-1.529071,10.796100,-0.317698,2.617098,5.308739,-0.649891,-1.317531,-2.905981,-1.691506,0.204727,0.068279,-0.829705,-0.514796,113.638965,-15.630090,-160.334242
38967,NaN,-1.420183,11.600218,-0.686671,2.645301,5.116902,0.378764,-1.458520,-2.648533,-1.714808,0.189571,0.066931,-0.827986,-0.523472,113.073415,-14.113950,-161.401525
38968,NaN,-1.216876,12.533792,-1.230089,2.618841,4.762976,1.612571,-1.544506,-2.345194,-1.711911,0.175832,0.066452,-0.825509,-0.532167,112.399522,-12.684079,-162.284993
38969,NaN,-1.047087,13.471097,-1.899099,2.620878,4.257569,2.882457,-1.664392,-1.994887,-1.678577,0.163547,0.066655,-0.822136,-0.541204,111.585708,-11.347978,-163.002010
38970,NaN,-0.953424,14.401475,-2.398986,2.598641,3.858844,4.058498,-1.861497,-1.606158,-1.670874,0.152983,0.067690,-0.817793,-0.550661,110.622749,-10.117592,-163.524391
38971,NaN,-1.041273,15.172455,-2.919627,2.721010,3.356549,5.057589,-2.093956,-1.165264,-1.713355,0.143916,0.069681,-0.812303,-0.560889,109.478084,-8.953868,-163.857105
38972,NaN,-1.094982,15.564634,-3.499492,2.795000,2.582327,5.718031,-2.356086,-0.732505,-1.770537,0.136736,0.073155,-0.805542,-0.571886,108.144779,-7.852374,-163.927692
38973,NaN,-1.116713,15.407891,-4.004028,2.791635,1.618539,5.815728,-2.645653,-0.330011,-1.852334,0.130757,0.077643,-0.797481,-0.583865,106.618809,-6.770191,-163.831191
38974,NaN,-1.042090,14.931880,-4.319876,2.638147,0.673812,5.525867,-2.845574,-0.009727,-1.982231,0.125973,0.083685,-0.788322,-0.596386,104.961620,-5.669892,-163.525699
38975,NaN,-1.162637,14.692179,-3.056834,2.213022,1.294203,5.018334,-3.043344,0.074618,-2.054209,0.121072,0.089863,-0.778278,-0.609549,103.196736,-4.525582,-163.239380
38976,NaN,-2.818445,14.105617,-3.119799,3.650048,1.057119,4.406322,-3.197707,0.098089,-2.185817,0.116160,0.096751,-0.767377,-0.623121,101.348907,-3.307887,-162.917862
38977,NaN,-2.912574,13.637846,-4.561879,4.003487,-0.850692,4.276755,-2.898258,0.173876,-2.280687,0.110764,0.104136,-0.757093,-0.635372,99.681617,-2.028005,-162.625222
38978,NaN,-2.071610,13.861144,-4.004377,2.854711,-1.003964,4.444949,-2.771564,0.063117,-2.230515,0.105295,0.111263,-0.747004,-0.646930,98.094253,-0.765086,-162.392678
38979,NaN,-1.306942,14.027449,-3.700604,1.839622,-1.395872,4.568465,-2.738686,0.133016,-2.387225,0.099426,0.119199,-0.736566,-0.658313,96.516149,0.600091,-162.150420
38980,NaN,-1.410286,14.345557,-3.664931,1.705385,-1.765330,4.855943,-2.637818,0.266546,-2.507450,0.093660,0.128012,-0.726167,-0.668971,95.017822,2.019952,-161.855067
38981,NaN,-1.859512,14.886332,-3.165298,1.714729,-1.580225,5.340532,-2.460746,0.382937,-2.574832,0.087843,0.137519,-0.715934,-0.678831,93.615619,3.492923,-161.532988
38982,NaN,-1.835639,15.307171,-2.817025,1.299895,-1.702613,5.711558,-2.412655,0.517821,-2.680804,0.082191,0.147821,-0.705588,-0.688142,92.267357,5.017427,-161.158159
38983,NaN,-1.462808,14.983338,-2.791909,0.709923,-2.278408,5.310640,-2.525503,0.699258,-2.810101,0.076681,0.159127,-0.694345,-0.697627,90.857879,6.634561,-160.720447
38984,NaN,-1.354060,14.320813,-2.730080,0.412767,-2.710846,4.568897,-2.588996,0.938465,-2.905830,0.071794,0.171492,-0.682536,-0.706810,89.451618,8.303713,-160.175242
38985,NaN,-1.510719,13.491816,-2.894157,0.484509,-3.213413,3.681996,-2.510964,1.154949,-3.012320,0.067065,0.184967,-0.670463,-0.715380,88.106558,10.062017,-159.552153
38986,NaN,-1.838640,12.905204,-2.847105,0.628366,-3.407651,3.071664,-2.357043,1.300664,-3.087359,0.062493,0.199166,-0.658632,-0.722932,86.891244,11.867405,-158.874347
38987,NaN,-1.936376,12.475433,-2.854948,0.562892,-3.699510,2.577551,-2.190265,1.361997,-3.143574,0.057617,0.213767,-0.646966,-0.729671,85.780251,13.733465,-158.204319
38988,NaN,-1.837518,12.095136,-2.837470,0.314018,-3.999070,2.087522,-2.022086,1.368944,-3.165644,0.052589,0.228400,-0.635713,-0.735484,84.793045,15.611122,-157.552511
38989,NaN,-1.792156,11.768565,-2.819091,0.112764,-4.253914,1.656284,-1.848049,1.349342,-3.161495,0.047184,0.242932,-0.624775,-0.740550,83.903611,17.508576,-156.947089
38990,NaN,-1.789041,11.443705,-2.747630,-0.059981,-4.407186,1.244918,-1.667189,1.298483,-3.128302,0.041615,0.257099,-0.614414,-0.744758,83.132973,19.378988,-156.383520
38991,NaN,-2.013156,11.308454,-2.631103,-0.098826,-4.450675,1.097324,-1.467625,1.207210,-3.067375,0.035611,0.270720,-0.604601,-0.748265,82.458627,21.227894,-155.898382
38992,NaN,-2.436427,11.359087,-2.391007,-0.079666,-4.335189,1.226883,-1.295345,1.030211,-2.985075,0.029245,0.283349,-0.595471,-0.751180,81.864655,23.008181,-155.521529
38993,NaN,-2.742853,11.495495,-2.231342,-0.166174,-4.354058,1.396844,-1.115026,0.820965,-2.910052,0.022167,0.294945,-0.586912,-0.753691,81.318425,24.744680,-155.291143
38994,NaN,-2.877325,11.928170,-2.202727,-0.440524,-4.638977,1.749676,-0.949704,0.602348,-2.826723,0.014618,0.305390,-0.579057,-0.755788,80.822278,26.403612,-155.194616
38995,NaN,-2.988145,12.394079,-2.280009,-0.709790,-5.048179,2.092880,-0.911628,0.358003,-2.720114,0.006598,0.314567,-0.571323,-0.758020,80.267176,27.992554,-155.267086
38996,NaN,-2.981846,12.387229,-2.352015,-0.907990,-5.344039,1.954794,-0.961863,0.110882,-2.620675,-0.001569,0.322429,-0.563522,-0.760579,79.611436,29.487451,-155.497831
38997,NaN,-2.857903,11.976442,-2.531106,-0.980644,-5.629764,1.383030,-1.015015,-0.121248,-2.527435,-0.010050,0.329112,-0.555488,-0.763556,78.827451,30.914309,-155.902482
38998,NaN,-2.641723,11.354496,-2.737197,-0.999695,-5.869287,0.576701,-1.019503,-0.328284,-2.435779,-0.018646,0.334662,-0.547548,-0.766711,77.962102,32.248829,-156.451495
38999,NaN,-2.320961,10.867295,-2.835343,-1.178592,-6.076022,-0.158159,-0.954881,-0.481735,-2.327679,-0.027449,0.339292,-0.539859,-0.769857,77.049335,33.507732,-157.128345
39000,NaN,-2.085944,10.551809,-2.851517,-1.378621,-6.222268,-0.691310,-0.879486,-0.623498,-2.218404,-0.036242,0.342989,-0.532609,-0.772899,76.115042,34.666404,-157.907525
39001,NaN,-1.932772,10.425922,-2.682328,-1.673937,-6.244608,-0.990695,-0.812198,-0.734054,-2.106332,-0.045095,0.345925,-0.525647,-0.775885,75.145986,35.746780,-158.785201
39002,NaN,-1.854345,10.475844,-2.650123,-1.911291,-6.419762,-1.133198,-0.725455,-0.834345,-1.986338,-0.053801,0.348063,-0.519200,-0.778710,74.175944,36.722989,-159.733778
39003,NaN,-1.711754,10.676443,-2.494352,-2.320621,-6.564334,-1.172207,-0.641802,-0.930476,-1.846998,-0.062435,0.349425,-0.513171,-0.781447,73.190198,37.603539,-160.761362
39004,NaN,-1.424142,10.780130,-2.463308,-2.726327,-6.792126,-1.402142,-0.607669,-0.977362,-1.712112,-0.070633,0.350181,-0.507498,-0.784111,72.200358,38.378547,-161.814086
39005,NaN,-1.042150,10.652453,-2.640416,-2.985418,-7.090842,-1.917351,-0.583305,-0.932085,-1.579902,-0.078308,0.350761,-0.502061,-0.786619,71.227057,39.084114,-162.840501
39006,NaN,-0.610777,10.547692,-2.713343,-3.325507,-7.296051,-2.417079,-0.509102,-0.873013,-1.394091,-0.085152,0.351023,-0.497279,-0.788826,70.335368,39.678592,-163.796135
39007,NaN,-0.207085,10.520187,-2.760501,-3.682444,-7.484456,-2.829994,-0.412388,-0.754870,-1.245665,-0.091347,0.351341,-0.493105,-0.790609,69.549721,40.213199,-164.657219
39008,NaN,0.331810,10.420516,-3.003722,-4.000925,-7.804229,-3.424840,-0.320891,-0.593053,-1.120186,-0.096738,0.351906,-0.489612,-0.791886,68.904178,40.697572,-165.378541
39009,NaN,0.605639,10.510392,-2.990932,-4.326294,-7.930866,-3.634966,-0.238465,-0.379927,-0.960593,-0.101173,0.352893,-0.486769,-0.792645,68.414826,41.142410,-165.923081
39010,NaN,0.563130,10.511769,-2.742147,-4.470092,-7.743539,-3.616804,-0.184015,-0.136833,-0.801319,-0.104422,0.354398,-0.484578,-0.792895,68.098855,41.544549,-166.251424
39011,NaN,0.303215,10.458158,-2.462649,-4.429071,-7.457326,-3.464387,-0.116797,0.096024,-0.628523,-0.106587,0.356388,-0.483038,-0.792655,67.954955,41.909461,-166.373771
39012,NaN,-0.002166,10.418217,-2.113556,-4.383740,-7.102589,-3.229202,-0.012621,0.275495,-0.449562,-0.107746,0.358578,-0.482356,-0.791925,67.995683,42.212142,-166.311672
39013,NaN,-0.188098,10.522942,-1.848822,-4.451855,-6.902925,-2.977746,0.075596,0.424966,-0.233187,-0.107885,0.360805,-0.482461,-0.790830,68.198179,42.436391,-166.082586
39014,NaN,-0.357726,10.557893,-1.627927,-4.462616,-6.696051,-2.777407,0.122326,0.552631,-0.009140,-0.106874,0.362952,-0.483249,-0.789502,68.539265,42.562711,-165.690866
39015,NaN,-0.425555,10.531830,-1.426378,-4.491524,-6.483648,-2.676617,0.148427,0.694028,0.215431,-0.104712,0.365112,-0.484596,-0.787969,69.006065,42.600248,-165.134619
39016,NaN,-0.556047,10.337058,-1.440062,-4.269726,-6.346861,-2.690593,0.133891,0.860642,0.431118,-0.101238,0.367391,-0.486380,-0.786263,69.589911,42.548290,-164.394432
39017,NaN,-0.779996,9.852665,-1.540486,-3.773181,-6.111240,-2.850519,0.095805,1.022608,0.654084,-0.096442,0.369785,-0.488476,-0.784442,70.267767,42.405192,-163.480504
39018,NaN,-1.019499,9.247164,-1.714670,-3.152659,-5.862948,-3.091437,0.103222,1.170695,0.872552,-0.090415,0.372194,-0.491069,-0.782398,71.056298,42.160438,-162.405850
39019,NaN,-1.242090,8.705917,-1.843096,-2.590441,-5.597401,-3.278911,0.184354,1.276381,1.092310,-0.083430,0.374429,-0.494398,-0.780009,71.967277,41.805965,-161.211151
39020,NaN,-1.332307,8.509864,-1.874812,-2.337577,-5.435726,-3.278577,0.327289,1.333349,1.325872,-0.075638,0.376207,-0.498714,-0.777195,73.006946,41.316349,-159.936307
39021,NaN,-1.209816,8.631273,-1.881945,-2.398159,-5.446056,-3.172569,0.478322,1.357387,1.541794,-0.067233,0.377455,-0.503978,-0.773959,74.150683,40.695497,-158.620913
39022,NaN,-0.979602,8.888454,-1.637029,-2.721443,-5.330604,-2.970198,0.522823,1.393839,1.710972,-0.058149,0.378349,-0.509690,-0.770511,75.327213,39.965020,-157.275773
39023,NaN,-1.017460,8.774671,-1.319556,-2.707453,-4.896367,-2.851108,0.457500,1.430166,1.851780,-0.048301,0.379000,-0.515360,-0.767092,76.464347,39.141746,-155.912634
39024,NaN,-1.229733,8.464189,-1.128837,-2.407681,-4.416808,-2.804063,0.421124,1.469326,1.971799,-0.037814,0.379436,-0.521049,-0.763614,77.569977,38.235165,-154.540144
39025,NaN,-1.487362,8.276218,-1.029801,-2.084958,-4.040326,-2.664688,0.521802,1.493635,2.080900,-0.027028,0.379607,-0.527256,-0.759716,78.712939,37.249653,-153.173183
39026,NaN,-1.624178,8.548663,-0.940423,-2.047774,-3.895117,-2.247463,0.678391,1.471996,2.210911,-0.016101,0.379257,-0.534202,-0.755336,79.899268,36.166668,-151.849527
39027,NaN,-1.817705,9.051983,-0.934625,-2.014804,-3.862496,-1.619243,0.805018,1.432631,2.337919,-0.005029,0.378342,-0.541768,-0.750546,81.104503,34.985883,-150.583635
39028,NaN,-1.845177,9.847150,-1.044318,-2.140372,-4.069090,-0.850758,0.926761,1.387013,2.470741,0.006181,0.376805,-0.549917,-0.745366,82.317109,33.704997,-149.386928
39029,NaN,-1.717380,10.797426,-1.251295,-2.359452,-4.431721,-0.020688,1.050475,1.362534,2.617568,0.017649,0.374694,-0.558689,-0.739702,83.549628,32.317060,-148.243625
39030,NaN,-1.610825,11.846726,-1.300254,-2.659793,-4.637859,0.959217,1.117696,1.351538,2.793323,0.029593,0.371956,-0.567883,-0.733676,84.768437,30.809206,-147.150953
39031,NaN,-1.743194,12.730740,-1.258582,-2.736266,-4.538350,1.959961,1.119348,1.335769,2.977998,0.042175,0.368534,-0.577284,-0.727425,85.937863,29.174260,-146.110612
39032,NaN,-2.118780,13.362535,-1.067288,-2.588246,-4.053632,2.877312,1.093643,1.280720,3.165811,0.055299,0.364247,-0.586755,-0.721100,87.024092,27.414422,-145.154628
39033,NaN,-2.689890,13.690107,-0.878363,-2.147981,-3.317808,3.595617,1.066466,1.176283,3.373766,0.068919,0.358845,-0.596358,-0.714729,88.020402,25.515358,-144.308715
39034,NaN,-3.269273,13.819417,-0.742340,-1.569821,-2.511177,4.094884,1.104228,1.025090,3.557982,0.082632,0.352237,-0.606246,-0.708214,88.950958,23.498679,-143.606211
39035,NaN,-3.574968,13.902328,-0.606740,-1.152097,-1.796740,4.394366,1.166646,0.840670,3.731737,0.096284,0.344338,-0.616524,-0.701470,89.836325,21.368322,-143.060018
39036,NaN,-3.698898,14.031819,-0.318927,-0.952701,-1.041998,4.632118,1.224482,0.665250,3.877626,0.109743,0.335261,-0.627066,-0.694510,90.680772,19.150644,-142.666117
39037,NaN,-3.574241,13.985413,-0.145990,-0.806887,-0.466162,4.591798,1.270439,0.542286,3.975481,0.123057,0.325328,-0.637749,-0.687237,91.504433,16.869684,-142.384430
39038,NaN,-3.714329,14.174542,0.723610,-0.927483,0.787324,4.806644,1.259830,0.387201,4.057925,0.136096,0.314450,-0.648319,-0.679913,92.273134,14.544402,-142.235181
39039,NaN,-4.610849,14.185243,1.360371,-0.261593,2.332840,4.978785,1.164002,0.160881,4.063854,0.148537,0.302573,-0.658454,-0.672923,92.945571,12.216492,-142.248871
39040,NaN,-4.814030,13.482837,1.497948,0.335226,3.102567,4.238530,1.044690,-0.209627,4.074674,0.159883,0.289194,-0.668167,-0.666601,93.501232,9.898133,-142.506095
39041,NaN,-4.538192,12.650457,1.487483,0.650766,3.408686,3.255287,1.109033,-0.540383,4.068595,0.169962,0.274651,-0.678069,-0.660229,94.074021,7.595146,-142.974099
39042,NaN,-4.035418,12.252766,1.428153,0.707136,3.476462,2.671053,1.270646,-0.764129,3.997150,0.178725,0.259630,-0.688273,-0.653399,94.738874,5.351177,-143.591626
39043,NaN,-3.593917,12.462022,1.458869,0.651747,3.643964,2.702057,1.385819,-0.897917,3.893960,0.186480,0.244507,-0.698544,-0.646126,95.488225,3.177920,-144.304733
39044,NaN,-3.414003,12.687734,1.398539,0.852067,3.894825,2.783774,1.357531,-0.992657,3.752423,0.193380,0.229446,-0.708321,-0.638937,96.243089,1.103160,-145.091732
39045,NaN,-3.273286,12.472436,1.121801,1.236748,3.939256,2.453804,1.243648,-1.084824,3.605756,0.199553,0.214401,-0.717378,-0.632123,96.962017,-0.874023,-145.946761
39046,NaN,-3.294679,12.022558,0.938756,1.694276,4.077029,1.882097,1.147609,-1.189458,3.463347,0.204912,0.199364,-0.725799,-0.625684,97.655379,-2.749705,-146.876450
39047,NaN,-3.186110,11.594752,0.684219,2.049906,4.035545,1.347751,1.139136,-1.265652,3.308102,0.209456,0.184568,-0.733868,-0.619275,98.378259,-4.521253,-147.861045
39048,NaN,-2.857192,11.361313,0.538794,2.123212,3.964407,1.017635,1.171271,-1.310293,3.177786,0.213321,0.170088,-0.741706,-0.612729,99.151509,-6.200465,-148.885612
39049,NaN,-2.506183,11.161876,0.411436,2.139654,3.886936,0.739095,1.156057,-1.264987,3.037546,0.216876,0.156194,-0.749102,-0.606148,99.944507,-7.791649,-149.896852
39050,NaN,-2.154759,10.866984,0.275822,2.129160,3.763472,0.390451,1.085820,-1.121864,2.866385,0.220435,0.143256,-0.755777,-0.599740,100.712293,-9.286220,-150.834580
39051,NaN,-1.845814,10.520140,0.187115,2.097682,3.666406,-0.001218,1.035702,-0.894416,2.684604,0.224292,0.131596,-0.761738,-0.593406,101.453499,-10.691674,-151.645779
39052,NaN,-1.499388,10.369639,0.230156,1.951647,3.697140,-0.202996,1.005720,-0.618657,2.511313,0.228656,0.121354,-0.767025,-0.587080,102.165041,-12.021633,-152.300408
39053,NaN,-1.292894,10.333160,0.342612,1.881681,3.873724,-0.325281,0.960352,-0.300484,2.348130,0.233747,0.112599,-0.771581,-0.580816,102.825142,-13.291796,-152.771328
39054,NaN,-1.206082,10.334758,0.567960,1.848401,4.199969,-0.457310,0.885094,0.019594,2.185478,0.239609,0.105295,-0.775335,-0.574767,103.406321,-14.507927,-153.053042
39055,NaN,-1.216288,10.263694,0.769738,1.885853,4.511243,-0.674669,0.799995,0.359609,2.003501,0.246275,0.099560,-0.778241,-0.569015,103.889993,-15.665390,-153.126501
39056,NaN,-1.326181,10.089141,0.879993,2.020528,4.736604,-0.992104,0.709221,0.688616,1.827932,0.253743,0.095319,-0.780309,-0.563602,104.265546,-16.771290,-152.993419
39057,NaN,-1.557684,9.892133,1.056647,2.198370,5.042275,-1.378395,0.606251,0.988905,1.654506,0.261909,0.092465,-0.781538,-0.558616,104.521089,-17.823080,-152.665695
39058,NaN,-1.985890,9.628126,0.993680,2.628422,5.194708,-1.829177,0.514790,1.234705,1.466742,0.270536,0.090898,-0.782029,-0.554057,104.665907,-18.808658,-152.167710
39059,NaN,-2.195342,9.317021,0.857278,2.879549,5.162500,-2.235315,0.482956,1.416281,1.294731,0.279371,0.090461,-0.782025,-0.549732,104.739234,-19.724171,-151.535986
39060,NaN,-2.300848,9.066701,0.772530,3.005589,5.142662,-2.559141,0.474252,1.576045,1.145924,0.288411,0.091017,-0.781636,-0.545508,104.758204,-20.583063,-150.783930
39061,NaN,-2.524427,8.941034,0.808489,3.162876,5.316954,-2.834610,0.466234,1.712403,0.979617,0.297488,0.092584,-0.780866,-0.541459,104.721021,-21.366705,-149.921016
39062,NaN,-2.907680,9.004680,0.965050,3.390939,5.734778,-3.024243,0.455285,1.785021,0.827905,0.306429,0.094904,-0.779817,-0.537569,104.642006,-22.078856,-148.985561
39063,NaN,-3.302148,9.222572,1.022387,3.687685,6.145396,-3.057004,0.473524,1.809956,0.685635,0.315023,0.097878,-0.778622,-0.533786,104.544841,-22.710584,-148.007578
39064,NaN,-3.594795,9.540938,1.254719,3.798049,6.687408,-3.002500,0.464540,1.764043,0.568897,0.323124,0.101147,-0.777356,-0.530168,104.436800,-23.273149,-147.033294
39065,NaN,-3.936319,9.697900,1.432660,3.931361,7.141908,-3.094582,0.406865,1.668471,0.459963,0.330537,0.104502,-0.775958,-0.526986,104.299286,-23.754837,-146.095190
39066,NaN,-4.265225,9.777657,1.575908,4.049209,7.525990,-3.236920,0.343117,1.537895,0.341439,0.337171,0.107843,-0.774502,-0.524245,104.144164,-24.155015,-145.213291
39067,NaN,-4.609897,9.663175,1.678750,4.159357,7.797188,-3.539793,0.290099,1.361272,0.240799,0.342829,0.111036,-0.773092,-0.521985,103.987132,-24.466331,-144.420539
39068,NaN,-4.927862,9.580026,1.754821,4.268381,8.041034,-3.790874,0.261573,1.141188,0.136316,0.347402,0.113985,-0.771909,-0.520073,103.861744,-24.693546,-143.743520
39069,NaN,-5.136593,9.520025,1.762950,4.345184,8.178177,-3.950963,0.255365,0.887114,0.028731,0.350664,0.116699,-0.771051,-0.518552,103.785158,-24.817578,-143.205133
39070,NaN,-5.183104,9.483551,1.773453,4.311884,8.230006,-4.014252,0.226188,0.611279,-0.068622,0.352666,0.118996,-0.770549,-0.517417,103.759420,-24.856830,-142.820192
39071,NaN,-5.165578,9.350221,1.807090,4.208472,8.206951,-4.128500,0.183025,0.326651,-0.172834,0.353273,0.120910,-0.770349,-0.516857,103.771617,-24.790435,-142.594862
39072,NaN,-5.125187,9.132154,1.729932,4.157944,8.042748,-4.273548,0.147282,0.037771,-0.296869,0.352518,0.122462,-0.770510,-0.516767,103.834106,-24.624477,-142.527265
39073,NaN,-4.878338,8.965315,1.569632,4.030432,7.715343,-4.256811,0.177213,-0.239801,-0.421709,0.350293,0.123865,-0.771134,-0.517016,103.971612,-24.340887,-142.611045
39074,NaN,-4.531143,9.202406,1.652946,3.737839,7.674817,-3.890412,0.241586,-0.496782,-0.527657,0.346817,0.125088,-0.772323,-0.517289,104.207272,-23.972426,-142.833126
39075,NaN,-4.344955,9.796385,1.736462,3.615791,7.870195,-3.266780,0.271591,-0.729773,-0.648326,0.342038,0.126262,-0.773875,-0.517866,104.501432,-23.491703,-143.176103
39076,NaN,-4.431754,10.372370,1.900233,3.633606,8.255196,-2.778087,0.202334,-0.964210,-0.764732,0.336149,0.127118,-0.775577,-0.518965,104.805398,-22.922096,-143.637147
39077,NaN,-4.393563,10.505123,1.991816,3.542766,8.310546,-2.600802,0.060039,-1.180065,-0.879405,0.329126,0.127654,-0.777131,-0.521006,105.057550,-22.242738,-144.205215
39078,NaN,-4.259881,10.140697,2.056636,3.335753,8.068834,-2.814419,-0.090129,-1.369082,-0.991789,0.321225,0.127838,-0.778516,-0.523818,105.256474,-21.483201,-144.860984
39079,NaN,-4.182247,9.655100,2.077053,3.192626,7.762868,-3.136606,-0.188939,-1.516842,-1.112148,0.312389,0.127977,-0.779701,-0.527353,105.404977,-20.619569,-145.579791
39080,NaN,-4.222380,9.366428,2.202396,3.108921,7.674647,-3.344157,-0.252409,-1.680182,-1.236581,0.302678,0.128016,-0.780852,-0.531289,105.537768,-19.673976,-146.366740
39081,NaN,-4.074501,9.442341,2.007671,3.117857,7.385306,-3.065510,-0.282313,-1.825670,-1.392867,0.291879,0.128260,-0.781905,-0.535706,105.649145,-18.603941,-147.207548
39082,NaN,-3.625992,9.766207,1.796465,2.904713,7.013834,-2.456035,-0.346602,-1.929185,-1.543735,0.280357,0.128660,-0.782768,-0.540482,105.725388,-17.447556,-148.075125
39083,NaN,-3.137521,10.053091,1.493674,2.675258,6.516527,-1.843080,-0.480678,-1.972299,-1.698363,0.268195,0.129382,-0.783049,-0.546045,105.695960,-16.183943,-148.937988
39084,NaN,-2.741644,10.474894,1.156643,2.514497,6.067116,-1.126991,-0.594715,-1.953409,-1.877383,0.255735,0.130636,-0.782782,-0.552074,105.580229,-14.840436,-149.755586
39085,NaN,-2.441784,11.263002,0.645484,2.507070,5.623368,-0.049428,-0.639501,-1.909249,-2.019706,0.242934,0.132528,-0.782030,-0.558434,105.397241,-13.411714,-150.526161
39086,NaN,-2.164616,12.463994,0.175931,2.460731,5.326526,1.395946,-0.662453,-1.860298,-2.123904,0.230097,0.134865,-0.780978,-0.564748,105.183172,-11.950842,-151.251094
39087,NaN,-1.987745,13.810674,-0.202455,2.390233,5.140608,2.937920,-0.756896,-1.790383,-2.215673,0.217184,0.137662,-0.779285,-0.571485,104.875477,-10.436925,-151.928253
39088,NaN,-2.161365,15.062750,-0.456347,2.497110,5.127359,4.302114,-0.895562,-1.719214,-2.309475,0.204431,0.140803,-0.776942,-0.578570,104.473944,-8.901364,-152.554923
39089,NaN,-2.254856,16.199115,-0.976769,2.599534,4.742465,5.652885,-0.982274,-1.645044,-2.421471,0.191546,0.144514,-0.773942,-0.586038,103.986951,-7.302588,-153.136831
39090,NaN,-2.297837,17.407089,-1.362789,2.534456,4.398712,7.050000,-1.112733,-1.589514,-2.476515,0.178871,0.148397,-0.770346,-0.593760,103.418278,-5.702356,-153.689246
39091,NaN,-2.472613,18.161477,-1.773104,2.555227,3.888497,8.003624,-1.344868,-1.551218,-2.520865,0.166222,0.152360,-0.765719,-0.602354,102.687483,-4.071971,-154.235295
39092,NaN,-2.516438,18.381194,-2.303747,2.504859,3.021718,8.464961,-1.584019,-1.522318,-2.563007,0.153809,0.156288,-0.760180,-0.611590,101.817007,-2.445896,-154.777216
39093,NaN,-2.413672,18.297669,-2.567545,2.207093,2.209624,8.556766,-1.740824,-1.484291,-2.586416,0.141426,0.160297,-0.753808,-0.621351,100.828030,-0.802976,-155.325829
39094,NaN,-2.466311,18.173170,-2.665638,1.985485,1.586685,8.543756,-1.876754,-1.427853,-2.611142,0.129364,0.164387,-0.746806,-0.631286,99.758920,0.821112,-155.863955
39095,NaN,-2.353443,17.853345,-2.633001,1.577436,0.963879,8.291498,-2.020648,-1.359848,-2.647515,0.117395,0.168724,-0.738950,-0.641642,98.578647,2.465752,-156.398115
39096,NaN,-2.191374,17.234718,-2.384997,1.087716,0.489996,7.682135,-2.183379,-1.289435,-2.676614,0.105815,0.173201,-0.730347,-0.652225,97.304096,4.092573,-156.919563
39097,NaN,-2.063545,16.393427,-2.028951,0.636962,0.128192,6.820561,-2.312328,-1.218314,-2.729427,0.094271,0.178014,-0.720891,-0.663129,95.927263,5.749246,-157.442204
39098,NaN,-1.936833,15.509584,-1.635875,0.210915,-0.148861,5.899677,-2.373117,-1.145928,-2.781588,0.082960,0.183121,-0.710984,-0.673858,94.515041,7.401933,-157.955438
39099,NaN,-1.787107,14.784347,-1.440240,-0.165599,-0.561651,5.136391,-2.366972,-1.073180,-2.836038,0.071562,0.188643,-0.700656,-0.684378,93.077386,9.086495,-158.475282
39100,NaN,-1.641022,14.209595,-1.158096,-0.575632,-0.833104,4.501526,-2.299138,-0.989840,-2.880777,0.060338,0.194520,-0.690328,-0.694239,91.678914,10.764931,-158.982364
39101,NaN,-1.535117,13.919970,-0.716949,-1.047496,-0.910914,4.140307,-2.246222,-0.924145,-2.910370,0.049039,0.200712,-0.679782,-0.703709,90.280405,12.463240,-159.503459
39102,NaN,-1.618649,13.594018,-0.546391,-1.235168,-1.140435,3.783915,-2.201098,-0.841368,-2.958007,0.037917,0.207256,-0.669184,-0.712601,88.908232,14.160289,-160.012815
39103,NaN,-1.796788,13.323268,-0.865490,-1.178261,-1.781615,3.487812,-2.143828,-0.726641,-2.996653,0.026843,0.214313,-0.658384,-0.721027,87.544870,15.884876,-160.509528
39104,NaN,-1.960363,13.097564,-1.099815,-1.168990,-2.325007,3.218298,-2.068327,-0.635625,-2.989851,0.016127,0.221574,-0.647727,-0.728763,86.228185,17.581235,-160.988382
39105,NaN,-2.041176,12.919317,-1.355284,-1.237592,-2.901369,2.952235,-1.991723,-0.560629,-3.001990,0.005396,0.229113,-0.637004,-0.736005,84.926604,19.291963,-161.477704
39106,NaN,-2.008903,12.659081,-1.660688,-1.358921,-3.516050,2.549288,-1.948378,-0.498259,-3.012366,-0.005103,0.236805,-0.626322,-0.742710,83.648556,20.986457,-161.965529
39107,NaN,-2.068751,12.215650,-1.838978,-1.374857,-3.922320,2.002222,-1.919931,-0.461533,-3.004728,-0.015611,0.244565,-0.615445,-0.749114,82.349622,22.682797,-162.487232
39108,NaN,-2.103826,11.758044,-2.045867,-1.375607,-4.322028,1.424561,-1.870082,-0.451697,-2.991702,-0.025976,0.252205,-0.604679,-0.755037,81.064342,24.347088,-163.038754
39109,NaN,-2.058609,11.280607,-2.144043,-1.458592,-4.603857,0.805704,-1.789161,-0.465284,-2.964846,-0.036491,0.259655,-0.593957,-0.760567,79.772792,25.996672,-163.655396
39110,NaN,-2.023083,10.962651,-2.273377,-1.557182,-4.917816,0.327272,-1.687562,-0.492625,-2.913117,-0.046896,0.266720,-0.583611,-0.765545,78.512074,27.588041,-164.321093
39111,NaN,-2.079486,10.870996,-2.373141,-1.662085,-5.227203,0.088675,-1.574439,-0.534085,-2.846337,-0.057416,0.273359,-0.573512,-0.770105,77.253644,29.136291,-165.064670
39112,NaN,-2.139145,10.930311,-2.476653,-1.814950,-5.570024,-0.022316,-1.481643,-0.584353,-2.753300,-0.067722,0.279410,-0.563832,-0.774233,76.012845,30.598893,-165.864155
39113,NaN,-2.212588,11.097553,-2.482140,-2.034472,-5.852986,-0.024678,-1.427546,-0.671704,-2.652480,-0.078049,0.284778,-0.554238,-0.778223,74.725149,31.989007,-166.764318
39114,NaN,-2.202203,11.146606,-2.561532,-2.239933,-6.170070,-0.191846,-1.407711,-0.765071,-2.564056,-0.088195,0.289435,-0.544775,-0.782093,73.394523,33.286320,-167.747639
39115,NaN,-2.131330,11.073396,-2.572968,-2.455484,-6.382820,-0.485132,-1.399124,-0.851014,-2.461893,-0.098266,0.293435,-0.535243,-0.785974,71.987977,34.503498,-168.829659
39116,NaN,-2.090750,10.993846,-2.551866,-2.639879,-6.543962,-0.760263,-1.372165,-0.924980,-2.362337,-0.108064,0.296776,-0.525902,-0.789730,70.548407,35.620072,-169.977946
39117,NaN,-1.929413,10.879685,-2.591796,-2.871096,-6.750095,-1.152889,-1.357019,-0.975825,-2.271821,-0.117729,0.299632,-0.516533,-0.793445,69.048979,36.662845,-171.200274
39118,NaN,-1.633493,10.701609,-2.632210,-3.159506,-6.923499,-1.676580,-1.346273,-0.979176,-2.176698,-0.126929,0.302141,-0.507333,-0.797002,67.536998,37.618825,-172.437315
39119,NaN,-1.376511,10.469279,-2.778124,-3.334481,-7.137476,-2.252969,-1.332399,-0.925764,-2.082464,-0.135697,0.304582,-0.498196,-0.800385,66.013685,38.518939,-173.670054
39120,NaN,-1.048695,10.287398,-2.871389,-3.587455,-7.305908,-2.818178,-1.287047,-0.835105,-1.954311,-0.143692,0.306964,-0.489492,-0.803445,64.550157,39.340564,-174.835608
39121,NaN,-0.805529,10.161732,-3.055768,-3.756430,-7.546967,-3.318476,-1.229690,-0.717573,-1.844543,-0.151180,0.309430,-0.481226,-0.806114,63.153107,40.118807,-175.945119
39122,NaN,-0.668484,10.066854,-3.203244,-3.854648,-7.743909,-3.712001,-1.167671,-0.550342,-1.739623,-0.157765,0.312266,-0.473412,-0.808382,61.855228,40.861729,-176.923323
39123,NaN,-0.556315,9.954484,-3.380476,-3.900993,-7.937507,-4.102737,-1.077694,-0.368455,-1.613570,-0.163663,0.315415,-0.466265,-0.810139,60.686394,41.581185,-177.781687
39124,NaN,-0.298387,10.076626,-3.431477,-4.215184,-8.129575,-4.377445,-0.953593,-0.152941,-1.480418,-0.168571,0.319017,-0.459951,-0.811330,59.695540,42.277790,-178.456348
39125,NaN,0.080720,10.344823,-3.395116,-4.721611,-8.310268,-4.598062,-0.831272,0.099407,-1.331019,-0.172578,0.323167,-0.454551,-0.811889,58.904338,42.972082,-178.937775
39126,NaN,0.480852,10.502965,-3.367965,-5.157982,-8.433149,-4.897185,-0.785290,0.372936,-1.193888,-0.175368,0.328065,-0.449770,-0.811989,58.292520,43.671326,-179.182967
39127,NaN,0.553720,10.302846,-3.288026,-5.149396,-8.314295,-5.162827,-0.808076,0.674999,-1.068896,-0.177008,0.333904,-0.445344,-0.811693,57.832654,44.404045,-179.193875
39128,NaN,0.397009,9.769030,-3.199970,-4.763537,-8.004063,-5.445295,-0.790466,0.963181,-0.940733,-0.177422,0.340598,-0.441430,-0.810959,57.558757,45.158526,-178.948766
39129,NaN,0.147156,9.214136,-2.891021,-4.377382,-7.485005,-5.559135,-0.666699,1.192427,-0.783362,-0.176955,0.347740,-0.438462,-0.809638,57.517774,45.911363,-178.484388
39130,NaN,-0.018708,8.913281,-2.488019,-4.238847,-7.014701,-5.515814,-0.473916,1.381175,-0.606509,-0.175619,0.355071,-0.436723,-0.807686,57.752287,46.632494,-177.792906
39131,NaN,-0.136785,9.026312,-1.983783,-4.429913,-6.677597,-5.206830,-0.278333,1.528607,-0.424091,-0.173614,0.362398,-0.436208,-0.805139,58.251364,47.309354,-176.906120
39132,NaN,0.003004,9.414474,-1.490192,-4.961620,-6.503484,-4.919835,-0.143016,1.634248,-0.214733,-0.170716,0.369558,-0.436671,-0.802248,58.976474,47.906117,-175.821994
39133,NaN,0.092712,9.645793,-1.004898,-5.363664,-6.244680,-4.684843,-0.130927,1.710576,-0.012792,-0.166939,0.376515,-0.437607,-0.799292,59.838091,48.417300,-174.582193
39134,NaN,-0.070893,9.424503,-0.793138,-5.197100,-5.946887,-4.608849,-0.238224,1.778814,0.167315,-0.161990,0.383443,-0.438460,-0.796545,60.762364,48.843196,-173.177210
39135,NaN,-0.300783,8.721863,-0.776971,-4.602006,-5.533438,-4.815946,-0.364081,1.844717,0.344004,-0.156017,0.390279,-0.439192,-0.794010,61.729206,49.184121,-171.637839
39136,NaN,-0.596002,7.767817,-1.037994,-3.673679,-5.190439,-5.193738,-0.428120,1.889708,0.533615,-0.148973,0.396926,-0.440008,-0.791612,62.765210,49.422074,-169.956275
39137,NaN,-0.778756,6.950863,-1.339464,-2.872575,-4.951154,-5.576061,-0.400867,1.912149,0.723900,-0.141236,0.403143,-0.441314,-0.789158,63.900333,49.547724,-168.179278
39138,NaN,-0.700145,6.399269,-1.775361,-2.316491,-4.989445,-6.027013,-0.297153,1.947876,0.906884,-0.132821,0.409018,-0.443340,-0.786456,65.176107,49.562869,-166.287601
39139,NaN,-0.523264,6.197649,-2.141442,-2.050126,-5.176097,-6.309203,-0.166767,1.985718,1.109649,-0.123800,0.414435,-0.446311,-0.783405,66.608238,49.450751,-164.295932
39140,NaN,-0.479075,6.403959,-2.394939,-1.979724,-5.474501,-6.195374,-0.000027,2.029397,1.342779,-0.114071,0.419361,-0.450338,-0.779949,68.203349,49.191812,-162.201071
39141,NaN,-0.528562,7.230679,-2.417415,-2.311992,-5.903340,-5.545501,0.247867,2.080215,1.608938,-0.103714,0.423654,-0.455904,-0.775830,70.012460,48.758272,-160.010214
39142,NaN,-0.642849,8.597535,-2.507089,-2.843984,-6.641223,-4.481814,0.459755,2.100547,1.881889,-0.092658,0.427238,-0.462737,-0.771205,71.958656,48.135769,-157.770217
39143,NaN,-0.955296,9.997449,-2.385604,-3.362365,-7.126662,-3.145493,0.549468,2.107533,2.163439,-0.080696,0.430027,-0.470499,-0.766287,73.955233,47.305738,-155.520054
39144,NaN,-1.424300,11.216653,-2.240708,-3.663536,-7.385871,-1.757825,0.576152,2.078422,2.440160,-0.067755,0.431969,-0.478749,-0.761322,75.899664,46.270351,-153.314070
39145,NaN,-1.988413,12.149926,-2.030418,-3.755413,-7.333621,-0.442563,0.589134,2.027592,2.723430,-0.053887,0.432868,-0.487606,-0.756282,77.771686,45.015008,-151.193630
39146,NaN,-2.371065,12.762086,-1.680366,-3.838682,-6.991674,0.564267,0.607510,1.933040,3.033060,-0.039080,0.432559,-0.496926,-0.751285,79.516054,43.534415,-149.202924
39147,NaN,-2.631779,13.242118,-1.333030,-3.893653,-6.560041,1.405236,0.663342,1.825214,3.360939,-0.023437,0.430806,-0.507086,-0.746137,81.160473,41.809058,-147.367731
39148,NaN,-3.006639,13.795845,-0.946760,-3.896440,-6.016388,2.387972,0.806992,1.688785,3.711548,-0.007111,0.427523,-0.518199,-0.740705,82.712817,39.844529,-145.710661
39149,NaN,-3.553911,14.679049,-0.712994,-3.798825,-5.562247,3.722755,1.004685,1.509348,4.038727,0.009524,0.422449,-0.530628,-0.734765,84.205941,37.639664,-144.279020
39150,NaN,-3.889900,15.533899,-0.425229,-3.793123,-5.032596,4.913296,1.101800,1.288119,4.337503,0.026478,0.415629,-0.543652,-0.728694,85.548778,35.235754,-143.092187
39151,NaN,-3.925757,15.866910,-0.303931,-3.594745,-4.470896,5.494216,1.071681,1.093773,4.561019,0.043751,0.407167,-0.556889,-0.722618,86.719028,32.664759,-142.135197
39152,NaN,-3.960060,15.687184,-0.138492,-3.179867,-3.651857,5.623922,1.025816,0.913932,4.746532,0.061276,0.397374,-0.569908,-0.716620,87.710874,29.979461,-141.370527
39153,NaN,-4.135631,15.427684,0.049956,-2.635271,-2.696254,5.706692,1.059801,0.733899,4.884212,0.078663,0.386201,-0.583161,-0.710340,88.612224,27.188682,-140.800295
39154,NaN,-4.198771,15.514927,0.216528,-2.261309,-1.914123,5.984626,1.172517,0.535212,4.990201,0.095590,0.373910,-0.596578,-0.703668,89.460930,24.340771,-140.408387
39155,NaN,-4.066454,15.700996,0.273135,-1.963657,-1.324733,6.232916,1.210744,0.306091,5.065273,0.111957,0.360240,-0.610109,-0.696750,90.246854,21.431082,-140.221421
39156,NaN,-3.958384,15.586756,0.125483,-1.414430,-0.806068,6.184886,1.178152,0.091764,5.091418,0.127749,0.345593,-0.623145,-0.689881,90.935992,18.519286,-140.199167
39157,NaN,-3.738163,15.301763,-0.117596,-0.843474,-0.413087,5.909705,1.193052,-0.096989,5.078201,0.142784,0.329991,-0.636038,-0.682770,91.599042,15.603873,-140.336711
39158,NaN,-3.451752,15.247172,-0.348984,-0.402439,-0.116926,5.816858,1.281602,-0.242691,5.036377,0.156980,0.313982,-0.648703,-0.675246,92.279757,12.730393,-140.582189
39159,NaN,-3.210463,15.326584,-0.598004,0.042638,0.173841,5.855231,1.349717,-0.368775,4.970883,0.170337,0.297489,-0.661256,-0.667253,92.997578,9.888280,-140.941837
39160,NaN,-3.144996,15.400683,-0.754048,0.555432,0.635158,5.899646,1.341177,-0.462216,4.873092,0.182957,0.280916,-0.673183,-0.659119,93.708366,7.122290,-141.375505
39161,NaN,-3.144061,15.265941,-0.947910,1.162341,1.094767,5.719081,1.324306,-0.515315,4.726447,0.194837,0.264352,-0.684560,-0.650795,94.429901,4.434708,-141.875166
39162,NaN,-3.102648,15.094380,-1.092456,1.685573,1.527852,5.466108,1.316981,-0.533486,4.571164,0.206032,0.248215,-0.695236,-0.642330,95.162127,1.856192,-142.400602
39163,NaN,-2.909226,14.876309,-1.014626,1.929754,2.006629,5.120774,1.305370,-0.515462,4.396301,0.216621,0.232499,-0.705338,-0.633655,95.918844,-0.626514,-142.947767
39164,NaN,-2.743886,14.461097,-0.985126,2.200959,2.399371,4.574388,1.248905,-0.439170,4.200181,0.226821,0.217631,-0.714508,-0.625034,96.657105,-2.985136,-143.462639
39165,NaN,-2.548337,13.898317,-0.922486,2.388321,2.727363,3.874447,1.209954,-0.288667,3.973783,0.236799,0.203807,-0.722870,-0.616318,97.393968,-5.228600,-143.914699
39166,NaN,-2.229340,13.395742,-0.818537,2.397789,2.966982,3.245257,1.198692,-0.082454,3.754048,0.246749,0.191405,-0.730374,-0.607481,98.124456,-7.347542,-144.254745
39167,NaN,-2.147718,12.963277,-0.659000,2.520447,3.357714,2.655132,1.187066,0.136928,3.547241,0.256799,0.180257,-0.737159,-0.598464,98.849808,-9.372287,-144.487582
39168,NaN,-2.176697,12.654578,-0.414769,2.642563,3.863152,2.150752,1.189049,0.346386,3.338225,0.266902,0.170531,-0.743192,-0.589363,99.557677,-11.286148,-144.600080
39169,NaN,-2.344875,12.524565,-0.047543,2.772330,4.558557,1.758124,1.244194,0.513848,3.116849,0.276850,0.162083,-0.748791,-0.579996,100.286017,-13.096414,-144.624404
39170,NaN,-2.264643,12.853832,0.086789,2.841221,5.043408,1.884912,1.345977,0.695624,2.892710,0.286666,0.155157,-0.754004,-0.570287,101.042647,-14.793008,-144.537391
39171,NaN,-2.037557,13.224188,0.257820,2.754639,5.493641,2.074920,1.334751,0.897929,2.696370,0.296633,0.149440,-0.758576,-0.560570,101.761760,-16.409113,-144.335494
39172,NaN,-2.075020,13.349420,0.323471,2.895428,5.922944,1.983101,1.223640,1.139450,2.462766,0.306863,0.145138,-0.762100,-0.551338,102.363248,-17.919512,-143.976321
39173,NaN,-2.224645,13.060492,0.216166,3.160316,6.114961,1.509068,1.089143,1.373601,2.243291,0.317414,0.142032,-0.764602,-0.542640,102.833515,-19.344468,-143.466892
39174,NaN,-2.498110,12.355136,0.146084,3.413886,6.211427,0.611667,0.970806,1.567289,2.066797,0.328248,0.139958,-0.766171,-0.534460,103.174514,-20.694421,-142.819573
39175,NaN,-2.902780,11.644162,0.440911,3.489850,6.602611,-0.409103,0.896399,1.692759,1.912801,0.339145,0.138625,-0.767101,-0.526612,103.426772,-21.981969,-142.080745
39176,NaN,-3.508071,11.086268,0.785758,3.653708,7.165113,-1.378492,0.866740,1.730340,1.774098,0.349778,0.137884,-0.767640,-0.519011,103.627733,-23.196227,-141.294518
39177,NaN,-4.040317,10.679341,1.261103,3.652801,7.809939,-2.221902,0.867044,1.676717,1.676053,0.359893,0.137332,-0.768090,-0.511522,103.821718,-24.353410,-140.526651
39178,NaN,-4.594388,10.352392,1.774428,3.613951,8.498826,-3.020487,0.857093,1.529719,1.594618,0.369188,0.136704,-0.768597,-0.504253,104.026421,-25.445187,-139.831360
39179,NaN,-4.976116,10.090735,2.126928,3.550893,8.979951,-3.659946,0.849295,1.337052,1.497586,0.377449,0.135910,-0.769281,-0.497259,104.260715,-26.459461,-139.241236
39180,NaN,-5.200364,9.786189,2.309190,3.481678,9.211199,-4.229323,0.826649,1.098533,1.427914,0.384602,0.134755,-0.770222,-0.490592,104.534418,-27.402461,-138.785759
39181,NaN,-5.428354,9.426818,2.457322,3.429339,9.371936,-4.835346,0.794894,0.837013,1.353119,0.390537,0.133158,-0.771472,-0.484335,104.855071,-28.267617,-138.486363
39182,NaN,-5.683485,9.164651,2.576129,3.435813,9.554484,-5.359166,0.778353,0.544607,1.267545,0.395134,0.131156,-0.773139,-0.478459,105.245816,-29.044033,-138.357949
39183,NaN,-5.914794,8.947694,2.745068,3.406205,9.756705,-5.839803,0.759786,0.226880,1.185388,0.398276,0.128657,-0.775290,-0.473020,105.718042,-29.725427,-138.424889
39184,NaN,-6.178877,8.794582,2.789101,3.515465,9.911678,-6.248884,0.706642,-0.108135,1.100193,0.399954,0.125595,-0.777893,-0.468128,106.263998,-30.308384,-138.694187
39185,NaN,-6.230340,8.443888,2.753020,3.529567,9.769884,-6.684482,0.650540,-0.424099,0.994184,0.400147,0.122082,-0.780893,-0.463880,106.874320,-30.775834,-139.155637
39186,NaN,-6.036902,8.106804,2.846338,3.307295,9.560840,-6.998944,0.596454,-0.695848,0.874571,0.399045,0.118299,-0.784212,-0.460195,107.539646,-31.130614,-139.772390
39187,NaN,-5.968443,7.922357,2.836975,3.283314,9.426517,-7.206108,0.520454,-0.917660,0.713997,0.396699,0.114473,-0.787664,-0.457286,108.221020,-31.348183,-140.507182
39188,NaN,-5.839073,7.628643,2.611567,3.365366,9.050957,-7.390893,0.441981,-1.108506,0.538689,0.393263,0.110746,-0.791190,-0.455080,108.907767,-31.432626,-141.327250
39189,NaN,-5.346313,7.383945,2.614200,3.052538,8.644397,-7.384592,0.383205,-1.260653,0.372393,0.388818,0.107196,-0.794746,-0.453550,109.589645,-31.384953,-142.212473
39190,NaN,-4.873046,7.406165,2.573950,2.826262,8.373502,-7.144461,0.346631,-1.367564,0.180672,0.383558,0.104103,-0.798293,-0.452520,110.263633,-31.209290,-143.115337
39191,NaN,-4.455494,7.819002,2.718826,2.568513,8.476065,-6.660063,0.336315,-1.449645,-0.008252,0.377473,0.101527,-0.801827,-0.451973,110.926376,-30.901333,-144.026533
39192,NaN,-4.093186,8.509807,2.928285,2.341850,8.813338,-5.993464,0.275869,-1.489982,-0.186176,0.370888,0.099479,-0.805170,-0.451937,111.539897,-30.486797,-144.906319
39193,NaN,-3.875336,9.063495,3.205152,2.139510,9.188314,-5.519046,0.124814,-1.483869,-0.365023,0.363915,0.097845,-0.808017,-0.452880,112.028379,-29.965306,-145.736640
39194,NaN,-3.774453,9.393561,3.256833,2.130596,9.337595,-5.190789,-0.089294,-1.448309,-0.566123,0.356775,0.096741,-0.810174,-0.454941,112.350922,-29.345645,-146.479065
39195,NaN,-3.627157,9.380906,3.159317,2.127568,9.155127,-5.038241,-0.315872,-1.401928,-0.772539,0.349360,0.096101,-0.811583,-0.458307,112.491186,-28.618886,-147.146372
39196,NaN,-3.406151,9.164064,2.805180,2.192240,8.635037,-4.905545,-0.497312,-1.333711,-1.009431,0.341820,0.096322,-0.812282,-0.462686,112.472267,-27.786362,-147.695816
39197,NaN,-3.002675,9.031973,2.256877,2.238392,7.925610,-4.534540,-0.614644,-1.255766,-1.261542,0.333943,0.097437,-0.812399,-0.467969,112.326050,-26.833250,-148.150833
39198,NaN,-2.527218,9.314353,1.740243,2.236406,7.410568,-3.791702,-0.680357,-1.161505,-1.510368,0.325965,0.099766,-0.811995,-0.473770,112.085145,-25.774635,-148.472544
39199,NaN,-2.086261,10.078161,1.194799,2.307882,7.115411,-2.643950,-0.735545,-1.043082,-1.755944,0.317757,0.103132,-0.811078,-0.480153,111.754450,-24.608302,-148.692200
39200,NaN,-1.768778,11.056812,0.709977,2.415769,6.986238,-1.372463,-0.852925,-0.911577,-1.975438,0.309694,0.107644,-0.809430,-0.487160,111.303193,-23.357845,-148.768699
39201,NaN,-1.674950,12.003589,0.368682,2.562940,6.989213,-0.241770,-0.997219,-0.792665,-2.201739,0.301481,0.113019,-0.807013,-0.495041,110.724016,-22.005836,-148.755209
39202,NaN,-2.194463,12.951448,0.256465,3.018940,7.392847,0.620083,-1.160396,-0.739224,-2.406940,0.293125,0.119191,-0.803843,-0.503693,110.032884,-20.559667,-148.665413
39203,NaN,-2.920175,13.880631,-0.214392,3.817132,7.558170,1.568622,-1.247384,-0.818793,-2.600019,0.283888,0.125804,-0.800245,-0.513020,109.293303,-18.982558,-148.603356
39204,NaN,-3.178997,15.034893,-0.484696,4.098544,7.680321,2.859509,-1.235616,-0.998556,-2.742211,0.273557,0.132493,-0.796693,-0.522391,108.601690,-17.304819,-148.635585
39205,NaN,-3.603997,16.612596,-0.632579,4.420002,8.071562,4.493091,-1.261920,-1.210083,-2.858314,0.261953,0.139038,-0.793025,-0.532128,107.917745,-15.515413,-148.789036
39206,NaN,-3.403843,18.248832,-1.498628,4.556498,7.519609,6.604126,-1.256539,-1.358024,-3.008604,0.249351,0.145734,-0.789271,-0.541883,107.261445,-13.631134,-149.016940
39207,NaN,-2.598605,19.830719,-2.043971,3.910992,6.757154,8.712688,-1.472662,-1.376110,-3.092384,0.236448,0.152410,-0.784583,-0.552533,106.467876,-11.689233,-149.266430
39208,NaN,-1.987729,20.552302,-2.470375,3.278373,5.743533,9.901790,-1.891376,-1.217504,-3.232601,0.224091,0.159506,-0.778208,-0.564565,105.421043,-9.710796,-149.431203
39209,NaN,-1.508121,20.218691,-2.979992,2.773921,4.262751,10.037275,-2.365099,-0.926586,-3.430151,0.212507,0.167611,-0.769627,-0.578292,104.063962,-7.657178,-149.448590
39210,NaN,-1.468443,19.262502,-3.251027,2.541828,2.975351,9.380819,-2.654393,-0.603102,-3.607755,0.201877,0.176929,-0.759400,-0.592667,102.533193,-5.560148,-149.308720
39211,NaN,-1.753311,18.466960,-2.965876,2.318116,2.372465,8.676066,-2.729879,-0.360169,-3.747705,0.191628,0.187346,-0.748120,-0.607039,100.946840,-3.397800,-149.078123
39212,NaN,-1.966814,17.894814,-2.565526,1.977287,1.928094,8.159142,-2.719669,-0.211582,-3.875859,0.181516,0.198582,-0.736255,-0.620923,99.383859,-1.184703,-148.805894
39213,NaN,-2.006554,17.472930,-1.838361,1.311564,1.727947,7.735635,-2.703607,-0.166573,-3.976625,0.171046,0.210248,-0.723817,-0.634530,97.831205,1.100457,-148.565273
39214,NaN,-2.022592,16.973148,-1.121968,0.642202,1.537498,7.234415,-2.676347,-0.189633,-4.055301,0.160204,0.222008,-0.711039,-0.647666,96.310924,3.425491,-148.387841
39215,NaN,-1.943700,16.532251,0.240234,-0.443069,1.888974,6.720053,-2.597658,-0.314332,-4.118831,0.148439,0.233539,-0.698058,-0.660409,94.823350,5.809662,-148.344952
39216,NaN,-2.598215,15.950634,0.161309,-0.142727,1.442901,6.282178,-2.492226,-0.383544,-4.211304,0.136005,0.245084,-0.685014,-0.672453,93.395704,8.237871,-148.392771
39217,NaN,-2.502473,15.575211,-0.189094,-0.366809,0.423785,5.951935,-2.263318,-0.389275,-4.219840,0.123071,0.256666,-0.672261,-0.683404,92.077596,10.681086,-148.509490
39218,NaN,-2.386464,15.664014,-0.226791,-0.848983,-0.310683,6.006472,-2.046477,-0.342849,-4.139681,0.110309,0.268111,-0.660014,-0.693058,90.882525,13.062958,-148.649029
39219,NaN,-2.617786,15.852456,-0.892582,-0.749036,-1.400215,6.199297,-1.923102,-0.275793,-4.117439,0.097532,0.279655,-0.647772,-0.701906,89.740316,15.439795,-148.807569
39220,NaN,-2.825499,15.765796,-1.597977,-0.590782,-2.486590,6.078258,-1.874035,-0.274684,-4.066582,0.084908,0.290905,-0.635507,-0.710138,88.615367,17.772949,-149.008417
39221,NaN,-2.915143,15.242774,-2.202704,-0.456409,-3.446063,5.470281,-1.854315,-0.319397,-4.003625,0.072207,0.301672,-0.623041,-0.718053,87.459835,20.075431,-149.294158
39222,NaN,-2.820894,14.521753,-2.741946,-0.411128,-4.338079,4.586426,-1.797741,-0.409552,-3.921268,0.059487,0.311722,-0.610700,-0.725490,86.296978,22.311651,-149.678709
39223,NaN,-2.667095,13.764904,-3.026894,-0.492699,-4.964316,3.634658,-1.708937,-0.517773,-3.818669,0.046561,0.320960,-0.598532,-0.732514,85.115573,24.486537,-150.189329
39224,NaN,-2.587678,13.067701,-3.192007,-0.553342,-5.396475,2.764911,-1.609565,-0.642420,-3.707006,0.033572,0.329281,-0.586738,-0.739044,83.926710,26.571197,-150.822440
39225,NaN,-2.587986,12.586668,-3.380744,-0.579240,-5.818503,2.117870,-1.499070,-0.771933,-3.572146,0.020374,0.336560,-0.575382,-0.745149,82.718073,28.563339,-151.605262
39226,NaN,-2.749384,12.430113,-3.741142,-0.481391,-6.380599,1.810502,-1.349254,-0.926665,-3.395382,0.007261,0.342698,-0.564659,-0.750777,81.501377,30.422930,-152.518977
39227,NaN,-2.913661,12.777608,-3.989887,-0.626406,-7.007765,1.941228,-1.206795,-1.134469,-3.191902,-0.006053,0.347315,-0.554674,-0.756090,80.249043,32.135141,-153.628364
39228,NaN,-2.818278,13.167990,-4.221952,-0.996734,-7.733882,1.948983,-1.151094,-1.350453,-3.009624,-0.019240,0.350555,-0.544995,-0.761395,78.899462,33.696449,-154.909660
39229,NaN,-2.666321,13.294193,-4.393171,-1.332821,-8.316246,1.684640,-1.181868,-1.556897,-2.840854,-0.032433,0.352376,-0.535385,-0.766904,77.403952,35.113973,-156.394008
39230,NaN,-2.501058,13.000327,-4.349378,-1.587276,-8.530513,1.090204,-1.270381,-1.727474,-2.700549,-0.045234,0.353148,-0.525421,-0.772770,75.728234,36.394282,-158.026765
39231,NaN,-2.273704,12.280991,-4.216645,-1.716870,-8.469586,0.140923,-1.350057,-1.873050,-2.579483,-0.057911,0.352905,-0.515222,-0.778878,73.889489,37.547167,-159.825600
39232,NaN,-2.032432,11.539930,-4.005114,-1.848440,-8.287514,-0.800031,-1.343634,-1.973846,-2.454060,-0.070239,0.351889,-0.505037,-0.784970,71.953729,38.564214,-161.727031
39233,NaN,-1.651745,11.052329,-3.669520,-2.235904,-8.101249,-1.584302,-1.283917,-2.031143,-2.336406,-0.082445,0.350183,-0.495187,-0.790800,69.980263,39.457171,-163.722081
39234,NaN,-1.320988,10.765823,-3.363173,-2.644372,-7.978806,-2.177594,-1.249944,-2.033671,-2.244437,-0.094221,0.348177,-0.485435,-0.796397,67.974429,40.244403,-165.744365
39235,NaN,-1.134632,10.623504,-3.425266,-2.832521,-8.172033,-2.666764,-1.197967,-1.964049,-2.149653,-0.105603,0.346072,-0.476004,-0.801562,65.993099,40.944803,-167.757541
39236,NaN,-0.898302,10.728806,-3.552062,-3.143287,-8.526235,-3.034326,-1.102166,-1.854794,-2.029168,-0.116296,0.344019,-0.467070,-0.806208,64.089247,41.555005,-169.696719
39237,NaN,-0.544537,10.921237,-3.503092,-3.659571,-8.768039,-3.365736,-1.072682,-1.706979,-1.918225,-0.126288,0.342197,-0.458460,-0.810412,62.253453,42.100733,-171.546271
39238,NaN,-0.218004,10.680653,-3.527562,-3.884217,-8.807166,-3.989663,-1.145318,-1.471764,-1.857575,-0.135284,0.341189,-0.449698,-0.814285,60.459356,42.634870,-173.244100
39239,NaN,-0.069919,10.142090,-3.745265,-3.717531,-8.796697,-4.744516,-1.153311,-1.173543,-1.806038,-0.143410,0.341219,-0.441142,-0.817555,58.776249,43.193127,-174.761703
39240,NaN,0.010268,9.760040,-3.826399,-3.623707,-8.731136,-5.281520,-1.038627,-0.853020,-1.720718,-0.150611,0.342255,-0.433349,-0.819992,57.295023,43.774841,-176.058570
39241,NaN,0.152608,9.584707,-3.778577,-3.729835,-8.659630,-5.657767,-0.877286,-0.520695,-1.653847,-0.157109,0.344343,-0.426555,-0.821459,56.050101,44.407683,-177.139955
39242,NaN,0.317310,9.603374,-3.602862,-4.002678,-8.582459,-5.860030,-0.744555,-0.163521,-1.576338,-0.162710,0.347606,-0.420664,-0.822032,55.042087,45.103247,-177.974723
39243,NaN,0.501161,9.695017,-3.452344,-4.310175,-8.557683,-6.024589,-0.601925,0.199675,-1.496396,-0.167479,0.352047,-0.415788,-0.821665,54.292275,45.873267,-178.557201
39244,NaN,0.665764,9.823370,-3.289662,-4.621242,-8.537100,-6.135153,-0.489023,0.541912,-1.418853,-0.171382,0.357621,-0.411748,-0.820487,53.776953,46.717285,-178.891234
39245,NaN,0.651115,9.708575,-3.004089,-4.715431,-8.266572,-6.188844,-0.463811,0.844646,-1.350104,-0.174426,0.364246,-0.408192,-0.818707,53.441194,47.630876,-179.000351
39246,NaN,0.613220,9.196082,-2.804012,-4.512547,-7.823197,-6.460055,-0.453102,1.099404,-1.258782,-0.176570,0.371696,-0.405013,-0.816474,53.266215,48.589157,-178.895202
39247,NaN,0.840292,8.577457,-2.696137,-4.364721,-7.387897,-6.999204,-0.386995,1.320073,-1.129558,-0.177854,0.379693,-0.402537,-0.813735,53.303221,49.563441,-178.566219
39248,NaN,1.554795,8.087576,-2.540229,-4.610118,-6.999135,-7.803302,-0.270616,1.519096,-0.941166,-0.178172,0.387992,-0.401008,-0.810500,53.600180,50.518614,-177.984824
39249,NaN,2.007480,7.849870,-2.168759,-4.923045,-6.592484,-8.182803,-0.095188,1.696083,-0.738059,-0.177637,0.396405,-0.400742,-0.806668,54.213815,51.435672,-177.138198
39250,NaN,1.688966,7.949140,-1.656738,-5.026247,-6.259270,-7.728337,0.069331,1.851289,-0.526300,-0.176248,0.404846,-0.401627,-0.802329,55.134327,52.298808,-176.026558
39251,NaN,1.008746,8.203105,-1.176790,-5.002561,-6.019040,-6.907714,0.119054,1.914594,-0.279288,-0.173822,0.412952,-0.403273,-0.797889,56.280958,53.051457,-174.684581
39252,NaN,0.330742,8.206967,-0.857531,-4.758494,-5.735133,-6.254033,0.063764,1.893374,-0.018693,-0.170271,0.420469,-0.405138,-0.793774,57.531743,53.656721,-173.179169
39253,NaN,-0.131652,8.003474,-0.878107,-4.337841,-5.590498,-5.969075,-0.003632,1.867098,0.241762,-0.165574,0.427362,-0.407269,-0.789986,58.884255,54.104439,-171.515885
39254,NaN,-0.398170,7.821373,-1.140372,-3.905276,-5.652857,-5.885018,-0.019140,1.878178,0.492844,-0.159823,0.433773,-0.409803,-0.786358,60.362116,54.409164,-169.689438
39255,NaN,-0.587387,7.647747,-1.609215,-3.394498,-5.876907,-5.893333,-0.023110,1.901974,0.735974,-0.153034,0.439724,-0.412882,-0.782784,61.981903,54.566460,-167.698282
39256,NaN,-0.660641,7.582015,-2.090444,-2.989654,-6.178212,-5.916036,0.002688,1.951839,0.984660,-0.145217,0.445304,-0.416546,-0.779170,63.744973,54.578841,-165.544387
39257,NaN,-0.622699,7.757818,-2.552419,-2.784170,-6.613739,-5.864108,0.096736,2.023704,1.268210,-0.136328,0.450426,-0.421272,-0.775282,65.716998,54.417263,-163.206582
39258,NaN,-0.732903,8.324424,-2.721324,-2.878093,-7.017330,-5.373166,0.225728,2.061879,1.603080,-0.126338,0.454852,-0.427145,-0.771165,67.857329,54.043309,-160.736056
39259,NaN,-0.926484,9.296177,-2.684579,-3.265236,-7.456403,-4.500475,0.380731,2.055250,1.955416,-0.115322,0.458293,-0.434406,-0.766786,70.133995,53.419215,-158.200293
39260,NaN,-1.214841,10.439288,-2.536574,-3.739851,-7.842816,-3.379579,0.501226,2.007768,2.313980,-0.103294,0.460625,-0.442753,-0.762315,72.432209,52.537385,-155.689698
39261,NaN,-1.554425,11.604487,-2.413225,-4.148821,-8.183085,-2.149986,0.570093,1.953030,2.664232,-0.090183,0.461780,-0.452126,-0.757765,74.698623,51.388058,-153.249007
39262,NaN,-1.796535,12.529105,-2.221434,-4.475434,-8.291322,-1.074861,0.596041,1.896890,2.996599,-0.075974,0.461857,-0.462103,-0.753245,76.845335,49.995835,-150.924512
39263,NaN,-2.161171,13.268315,-1.889212,-4.674025,-8.076629,0.045747,0.630132,1.832470,3.358235,-0.060606,0.460630,-0.472977,-0.748625,78.879477,48.332017,-148.739415
39264,NaN,-2.668706,14.054899,-1.274549,-4.942113,-7.537951,1.368265,0.718463,1.683091,3.767664,-0.044236,0.457712,-0.484767,-0.744005,80.740302,46.383078,-146.778434
39265,NaN,-3.425123,14.918589,-0.701433,-5.016412,-6.856907,2.937542,0.853016,1.439348,4.194333,-0.027180,0.452524,-0.497916,-0.739299,82.427452,44.120339,-145.127469
39266,NaN,-3.796662,15.968496,-0.267215,-5.236273,-6.396756,4.367963,1.009507,1.165717,4.585737,-0.009674,0.445161,-0.512054,-0.734533,83.915611,41.596323,-143.799825
39267,NaN,-3.611348,16.845934,-0.187100,-5.397543,-6.238202,5.311786,1.090598,0.962680,4.917658,0.008324,0.435817,-0.527081,-0.729506,85.250459,38.835585,-142.743090
39268,NaN,-3.341594,17.344190,-0.310600,-5.238248,-6.029357,5.942238,1.099000,0.857746,5.163338,0.026950,0.425247,-0.542135,-0.724244,86.423792,35.926233,-141.858620
39269,NaN,-3.456033,17.383675,-0.362942,-4.634291,-5.324722,6.446442,1.086108,0.806761,5.360551,0.046127,0.413522,-0.557347,-0.718496,87.493520,32.875116,-141.114387
39270,NaN,-3.707625,17.364259,-0.397143,-3.889571,-4.473720,6.926334,1.118029,0.706032,5.503392,0.065466,0.400836,-0.572375,-0.712343,88.453320,29.743833,-140.512886
39271,NaN,-3.903613,17.196456,-0.237374,-3.220042,-3.409202,7.185369,1.155171,0.557145,5.667750,0.084823,0.386724,-0.587589,-0.705683,89.336253,26.495490,-140.090968
39272,NaN,-4.030850,17.212350,-0.003052,-2.686213,-2.358688,7.497505,1.246246,0.384523,5.761062,0.103766,0.371542,-0.602726,-0.698506,90.164809,23.201371,-139.834176
39273,NaN,-4.110490,17.514703,0.074826,-2.149588,-1.485617,7.984576,1.358796,0.198400,5.812464,0.122017,0.355174,-0.618050,-0.690636,90.991091,19.862640,-139.759376
39274,NaN,-4.048240,17.671114,0.261824,-1.715832,-0.556315,8.225446,1.353211,-0.018227,5.807206,0.139491,0.337864,-0.632793,-0.682615,91.742972,16.542341,-139.855461
39275,NaN,-4.100278,17.528443,0.245907,-0.980246,0.334226,8.158210,1.316274,-0.216511,5.740673,0.156055,0.319669,-0.646982,-0.674443,92.446391,13.253960,-140.117123
39276,NaN,-3.974855,17.243926,-0.141916,-0.127592,0.798381,7.863099,1.325999,-0.391206,5.601578,0.171432,0.301165,-0.660465,-0.666105,93.133959,10.065018,-140.506545
39277,NaN,-3.525106,16.880087,-0.451146,0.406234,1.070862,7.397152,1.304475,-0.536359,5.466976,0.185780,0.282267,-0.673348,-0.657582,93.820657,6.952021,-141.017424
39278,NaN,-3.077452,16.264480,-0.661321,0.861090,1.353700,6.673704,1.263239,-0.583657,5.300119,0.199329,0.263609,-0.685295,-0.648960,94.497981,3.953355,-141.574853
39279,NaN,-2.862678,15.619497,-0.725619,1.347858,1.813726,5.920296,1.222359,-0.561940,5.127179,0.212310,0.245300,-0.696433,-0.640104,95.186513,1.049474,-142.151662
39280,NaN,-2.932336,15.063203,-0.730526,1.955864,2.417387,5.231028,1.195524,-0.504235,4.956105,0.224823,0.227656,-0.706671,-0.631065,95.881404,-1.743218,-142.714063
39281,NaN,-3.141944,14.599443,-0.766061,2.638038,3.022887,4.590835,1.206784,-0.468286,4.771995,0.236719,0.210541,-0.716326,-0.621702,96.617849,-4.436195,-143.290285
39282,NaN,-3.202303,14.323434,-0.761675,3.122518,3.535642,4.105132,1.256350,-0.401627,4.559879,0.248012,0.194431,-0.725332,-0.612029,97.399034,-6.995337,-143.841047
39283,NaN,-2.972516,14.275948,-0.671936,3.284964,3.951483,3.849275,1.300465,-0.271485,4.339978,0.258929,0.179386,-0.733763,-0.601970,98.228088,-9.440032,-144.346439
39284,NaN,-2.857138,14.335584,-0.456205,3.436365,4.532126,3.659469,1.257071,-0.054239,4.108537,0.269858,0.165779,-0.741161,-0.591924,99.026767,-11.756842,-144.737663
39285,NaN,-2.901930,14.167156,-0.345004,3.731748,5.036798,3.222855,1.157598,0.241921,3.821491,0.281014,0.153861,-0.747341,-0.582099,99.751281,-13.939813,-144.967934
39286,NaN,-2.942846,13.913321,-0.231890,3.969761,5.470230,2.700862,1.062758,0.579134,3.524323,0.292521,0.143889,-0.752231,-0.572605,100.373749,-15.980086,-144.995551
39287,NaN,-3.118042,13.559986,-0.133899,4.263427,5.890242,2.049957,0.961976,0.873987,3.254674,0.304355,0.135546,-0.755985,-0.563455,100.889864,-17.904280,-144.843707
39288,NaN,-3.500889,13.141508,0.110206,4.565203,6.466079,1.246280,0.895006,1.104276,2.972390,0.316209,0.128813,-0.758767,-0.554700,101.309486,-19.691350,-144.534711
39289,NaN,-3.791674,12.912970,0.305123,4.796925,6.977953,0.651508,0.878498,1.220026,2.703530,0.327701,0.123339,-0.760969,-0.546192,101.681009,-21.346466,-144.134548
39290,NaN,-3.945812,12.650680,0.420837,4.920756,7.311994,0.091665,0.892018,1.244644,2.475522,0.338567,0.118817,-0.762841,-0.537893,102.033498,-22.875168,-143.696251
39291,NaN,-3.756299,12.407968,0.489573,4.784960,7.406786,-0.297355,0.931511,1.240833,2.277071,0.348807,0.115070,-0.764564,-0.529654,102.392642,-24.297567,-143.240127
39292,NaN,-3.706723,12.156323,0.630962,4.672977,7.603348,-0.743020,0.934241,1.266873,2.062315,0.358501,0.112211,-0.765980,-0.521690,102.724355,-25.602808,-142.742445
39293,NaN,-3.901732,11.769649,0.662670,4.752879,7.769264,-1.372913,0.882171,1.321508,1.851337,0.367837,0.110185,-0.766928,-0.514176,102.990277,-26.801376,-142.183054
39294,NaN,-4.164868,11.181329,0.826803,4.719400,7.944916,-2.219760,0.818880,1.351057,1.670096,0.376793,0.108805,-0.767446,-0.507164,103.188035,-27.902782,-141.578456
39295,NaN,-4.512840,10.591516,1.010623,4.698946,8.147508,-3.096938,0.801949,1.358145,1.502099,0.385318,0.108036,-0.767725,-0.500457,103.351992,-28.914361,-140.942509
39296,NaN,-4.654385,10.126765,1.107856,4.596728,8.209753,-3.737441,0.821478,1.319999,1.355022,0.393270,0.107767,-0.767956,-0.493932,103.516596,-29.839264,-140.305618
39297,NaN,-4.987626,9.787147,1.389749,4.499350,8.542358,-4.392630,0.813000,1.248647,1.232672,0.400614,0.107765,-0.768165,-0.487666,103.680196,-30.688331,-139.692730
39298,NaN,-5.519257,9.513088,1.830628,4.412984,9.100098,-5.119773,0.767811,1.109465,1.103727,0.407096,0.107819,-0.768408,-0.481869,103.845256,-31.447851,-139.147784
39299,NaN,-6.141388,9.212505,2.373680,4.288050,9.735404,-5.932782,0.722309,0.896370,0.979158,0.412456,0.107740,-0.768856,-0.476585,104.040342,-32.109832,-138.720536
39300,NaN,-6.631487,8.906694,2.839068,4.127363,10.217211,-6.660238,0.685979,0.622095,0.868146,0.416498,0.107352,-0.769686,-0.471792,104.297836,-32.673414,-138.455647
39301,NaN,-6.919927,8.517273,3.158209,3.934997,10.423669,-7.309616,0.646357,0.311938,0.754663,0.419081,0.106587,-0.770980,-0.467547,104.631932,-33.129789,-138.378322
39302,NaN,-6.996326,8.061430,3.241528,3.784996,10.305467,-7.834522,0.624345,0.020766,0.611612,0.420214,0.105640,-0.772742,-0.463822,105.047467,-33.465628,-138.472045
39303,NaN,-6.811126,7.684765,3.173448,3.619004,9.974328,-8.100094,0.607704,-0.235799,0.458986,0.419994,0.104655,-0.774905,-0.460624,105.533519,-33.676063,-138.711860
39304,NaN,-6.446737,7.394436,3.062154,3.405510,9.555611,-8.167249,0.587721,-0.434694,0.292985,0.418634,0.103808,-0.777345,-0.457935,106.067063,-33.763824,-139.054923
39305,NaN,-6.133292,7.239885,2.752351,3.410474,9.110145,-8.085700,0.532527,-0.600599,0.100185,0.416196,0.103215,-0.779889,-0.455962,106.608539,-33.714077,-139.472007
39306,NaN,-5.708170,7.021031,2.363428,3.392940,8.513780,-7.950602,0.470200,-0.738600,-0.093044,0.412817,0.102927,-0.782468,-0.454678,107.143233,-33.534263,-139.939605
39307,NaN,-5.177725,6.881449,2.097462,3.232556,7.978668,-7.702252,0.435443,-0.866012,-0.284183,0.408499,0.103029,-0.785108,-0.454003,107.676962,-33.221799,-140.448362
39308,NaN,-4.740441,7.144634,2.029755,3.062322,7.844576,-7.219959,0.448982,-0.980236,-0.470402,0.403305,0.103621,-0.787899,-0.453676,108.233475,-32.786320,-140.986093
39309,NaN,-4.454520,7.916366,2.091318,2.984876,8.159224,-6.435904,0.466812,-1.086499,-0.662465,0.397213,0.104765,-0.790806,-0.453731,108.804265,-32.219693,-141.543216
39310,NaN,-4.217695,8.942113,2.146163,2.973468,8.635475,-5.460316,0.420023,-1.154870,-0.829456,0.390495,0.106311,-0.793621,-0.454287,109.343473,-31.548365,-142.096385
39311,NaN,-3.931544,9.759397,2.295607,2.802336,9.017631,-4.635680,0.269164,-1.203539,-0.986063,0.383263,0.108072,-0.796051,-0.455778,109.779922,-30.775783,-142.634942
39312,NaN,-3.636357,10.165999,2.330040,2.620106,9.074662,-4.086925,0.056444,-1.183541,-1.157092,0.375831,0.110139,-0.797820,-0.458371,110.059372,-29.915508,-143.111459
39313,NaN,-3.522229,10.286008,2.265039,2.575619,8.981870,-3.810262,-0.158049,-1.124890,-1.344770,0.368270,0.112682,-0.798815,-0.462141,110.164153,-28.960716,-143.502632
39314,NaN,-3.479253,10.309795,2.115382,2.615853,8.798724,-3.599042,-0.322517,-1.058764,-1.553061,0.360577,0.115893,-0.799133,-0.466840,110.127906,-27.910456,-143.801229
39315,NaN,-3.468877,10.423756,1.854992,2.756811,8.586500,-3.270708,-0.464861,-1.003789,-1.778857,0.352589,0.119853,-0.798803,-0.472472,109.964240,-26.746546,-144.019165
39316,NaN,-3.414006,10.696499,1.561436,2.891410,8.387242,-2.755920,-0.571796,-0.990088,-2.007315,0.344170,0.124568,-0.797967,-0.478831,109.712982,-25.466244,-144.178260
39317,NaN,-3.578474,11.617170,1.526049,3.072631,8.774882,-1.834802,-0.641605,-1.040648,-2.235696,0.334959,0.129919,-0.796783,-0.485861,109.410446,-24.049965,-144.328025
39318,NaN,-3.561531,13.052556,1.245282,3.297547,9.099727,-0.277723,-0.643990,-1.147075,-2.478971,0.324709,0.135969,-0.795475,-0.493250,109.112959,-22.486384,-144.492950
39319,NaN,-3.100414,14.846113,0.728664,3.303449,9.108676,1.877245,-0.695564,-1.231407,-2.719387,0.313454,0.142633,-0.793837,-0.501224,108.782339,-20.773828,-144.670970
39320,NaN,-2.368639,16.173286,0.063773,3.061471,8.538545,3.784677,-0.912915,-1.197555,-2.957479,0.301853,0.149970,-0.791232,-0.510241,108.305799,-18.943143,-144.789317
39321,NaN,-1.858974,16.831580,-0.705946,2.930417,7.595580,5.051574,-1.214110,-1.098777,-3.231894,0.290033,0.158130,-0.787255,-0.520678,107.622466,-16.977186,-144.822503
39322,NaN,-1.925385,17.057817,-1.484316,3.177553,6.678948,5.748073,-1.455285,-0.993025,-3.479448,0.278116,0.167148,-0.782030,-0.532110,106.781711,-14.898591,-144.774424
39323,NaN,-2.101942,17.098515,-2.457254,3.587542,5.531488,6.290272,-1.573880,-0.973859,-3.663631,0.265719,0.176676,-0.775992,-0.544073,105.870575,-12.717329,-144.724610
39324,NaN,-2.074035,17.305879,-3.048901,3.568938,4.562064,6.905418,-1.563174,-1.033559,-3.765609,0.252740,0.186404,-0.769640,-0.555905,104.980572,-10.474075,-144.721553
39325,NaN,-2.124887,17.865964,-3.135132,3.269209,4.085033,7.683340,-1.554474,-1.127193,-3.823167,0.239062,0.195996,-0.763024,-0.567652,104.106265,-8.181284,-144.804091
39326,NaN,-2.249045,18.490368,-2.974328,2.845085,3.802569,8.440765,-1.622548,-1.239858,-3.857261,0.224868,0.205249,-0.755964,-0.579504,103.203632,-5.860077,-144.974135
39327,NaN,-2.306802,18.833024,-2.489987,2.174706,3.605633,8.853186,-1.769165,-1.344784,-3.859502,0.210252,0.213915,-0.748224,-0.591773,102.216030,-3.523267,-145.247505
39328,NaN,-2.234967,18.880163,-1.890255,1.359611,3.327615,8.950202,-1.936518,-1.415412,-3.868721,0.195476,0.222149,-0.739676,-0.604416,101.126914,-1.182519,-145.593968
39329,NaN,-2.059491,18.629754,-1.417777,0.576292,2.822897,8.760357,-2.087424,-1.406357,-3.869088,0.180735,0.230118,-0.730271,-0.617321,99.935245,1.154191,-145.988933
39330,NaN,-1.967003,18.122453,-1.065883,-0.016373,2.244966,8.307187,-2.227630,-1.324246,-3.882775,0.166376,0.238169,-0.719951,-0.630289,98.649301,3.478052,-146.379442
39331,NaN,-2.009719,17.441304,-1.185735,-0.194854,1.369853,7.727964,-2.251719,-1.156354,-3.916746,0.152388,0.246691,-0.708983,-0.642857,97.335544,5.802127,-146.733380
39332,NaN,-2.525668,17.373649,0.116516,-0.807829,2.018440,7.607323,-2.257826,-1.207622,-3.849137,0.138424,0.254702,-0.697735,-0.655082,95.995471,8.078764,-147.168719
39333,NaN,-4.116798,16.976048,-1.738550,1.195800,0.587245,7.689512,-2.146379,-1.169495,-3.938017,0.124019,0.263057,-0.686339,-0.666603,94.695729,10.397120,-147.640924
39334,NaN,-4.056396,16.973802,-2.352134,1.080230,-0.668159,7.749532,-1.993188,-1.202184,-3.836958,0.109639,0.270946,-0.675248,-0.677206,93.451451,12.644720,-148.183909
39335,NaN,-3.481509,16.439816,-2.881624,0.615270,-2.062402,7.099188,-2.075495,-1.291473,-3.759798,0.095212,0.278064,-0.663689,-0.687845,92.111006,14.841657,-148.846116
39336,NaN,-2.691365,15.044407,-4.358745,0.687631,-4.233018,5.488962,-2.132116,-1.322589,-3.858686,0.080433,0.285260,-0.651472,-0.698385,90.693973,17.076162,-149.579229
39337,NaN,-1.864735,13.789640,-5.074211,0.344293,-5.658601,3.869535,-1.981685,-1.288824,-3.881978,0.065353,0.292519,-0.639408,-0.708038,89.321320,19.308565,-150.367514
39338,NaN,-1.235120,13.069351,-4.816799,-0.432834,-6.102650,2.760067,-1.730431,-1.250861,-3.829107,0.050254,0.299722,-0.627963,-0.716452,88.050222,21.491168,-151.187443
39339,NaN,-1.093610,12.797820,-4.047249,-1.174529,-5.873436,2.247854,-1.494684,-1.268894,-3.742776,0.034952,0.306461,-0.617235,-0.723796,86.859211,23.608459,-152.089571
39340,NaN,-1.388533,12.660344,-3.329629,-1.564018,-5.481607,2.052392,-1.350696,-1.357722,-3.653490,0.019541,0.312544,-0.606881,-0.730500,85.672214,25.652298,-153.095634
39341,NaN,-1.460725,12.459336,-2.883472,-1.967535,-5.373617,1.716147,-1.258634,-1.487745,-3.540427,0.003896,0.317616,-0.596865,-0.736788,84.447360,27.605509,-154.257053
39342,NaN,-1.436564,12.239992,-2.735209,-2.278439,-5.528291,1.304372,-1.190638,-1.603658,-3.417184,-0.011650,0.321840,-0.586991,-0.742781,83.158640,29.458382,-155.539822
39343,NaN,-1.457793,12.123196,-2.937631,-2.414920,-5.973828,0.966435,-1.129515,-1.673314,-3.275269,-0.027076,0.325186,-0.577430,-0.748395,81.823348,31.198460,-156.942122
39344,NaN,-1.625166,12.116855,-3.620609,-2.252308,-6.809575,0.728044,-1.056047,-1.698970,-3.099498,-0.041920,0.327882,-0.568136,-0.753630,80.450858,32.808663,-158.401838
39345,NaN,-1.909161,12.538263,-4.705664,-2.014151,-8.102229,0.830385,-0.966591,-1.745530,-2.872908,-0.056316,0.329531,-0.559488,-0.758426,79.066985,34.254241,-159.954380
39346,NaN,-1.892305,12.957456,-5.121054,-2.313799,-8.894076,0.828051,-0.966021,-1.798640,-2.668846,-0.069932,0.330416,-0.550867,-0.763204,77.597968,35.548750,-161.565340
39347,NaN,-1.627671,12.657560,-5.154669,-2.623990,-9.126413,0.149253,-1.112432,-1.781430,-2.551346,-0.082930,0.330907,-0.541872,-0.768113,76.008003,36.742741,-163.229134
39348,NaN,-1.684286,11.606781,-5.098949,-2.315142,-8.878709,-0.904922,-1.230566,-1.697424,-2.429863,-0.094878,0.331451,-0.532377,-0.773119,74.319333,37.844712,-164.862775
39349,NaN,-1.943990,10.538569,-4.687387,-1.941580,-8.225688,-1.727521,-1.234174,-1.598821,-2.292601,-0.106114,0.331863,-0.523120,-0.777787,72.636419,38.848120,-166.474939
39350,NaN,-2.077867,9.776337,-4.299914,-1.766445,-7.716019,-2.348229,-1.150361,-1.563505,-2.142726,-0.116681,0.331972,-0.514232,-0.782142,70.970721,39.739677,-168.074247
39351,NaN,-1.916924,9.384099,-4.087331,-1.910564,-7.538011,-2.887092,-1.043760,-1.529279,-1.966559,-0.126705,0.331591,-0.506052,-0.786069,69.367377,40.507400,-169.664849
39352,NaN,-1.337072,9.369939,-4.137628,-2.443358,-7.785580,-3.479203,-0.942368,-1.469889,-1.753635,-0.135809,0.330830,-0.498496,-0.789689,67.836514,41.140421,-171.190251
39353,NaN,-0.612038,9.630600,-4.007442,-3.289301,-7.977059,-3.919857,-0.844329,-1.331580,-1.571190,-0.144059,0.330015,-0.491722,-0.792809,66.434898,41.678602,-172.605137
39354,NaN,-0.068579,9.904639,-3.903830,-3.981191,-8.148316,-4.236123,-0.800862,-1.120356,-1.424586,-0.151197,0.329642,-0.485391,-0.795532,65.152703,42.164449,-173.846927
39355,NaN,0.119161,9.995388,-4.027317,-4.206156,-8.381554,-4.502671,-0.812028,-0.871745,-1.266826,-0.157147,0.329816,-0.479448,-0.797907,63.993583,42.610622,-174.895451
39356,NaN,0.218970,9.941016,-4.211576,-4.239586,-8.582576,-4.815463,-0.813396,-0.642784,-1.089166,-0.161752,0.330496,-0.473913,-0.800009,62.966809,43.008977,-175.729916
39357,NaN,0.501260,9.797878,-4.325664,-4.360665,-8.679268,-5.272380,-0.782128,-0.412941,-0.923403,-0.165194,0.331665,-0.468941,-0.801751,62.095237,43.373919,-176.357931
39358,NaN,0.837380,9.626435,-4.353641,-4.516081,-8.678568,-5.737146,-0.732993,-0.135748,-0.780631,-0.167488,0.333554,-0.464615,-0.803008,61.411289,43.735401,-176.750254
39359,NaN,0.945710,9.405294,-4.323300,-4.480659,-8.584868,-6.035402,-0.681432,0.179620,-0.656517,-0.168629,0.336373,-0.460958,-0.803701,60.936234,44.118842,-176.881633
39360,NaN,0.911791,9.125716,-4.201596,-4.327284,-8.372798,-6.216316,-0.625304,0.509065,-0.532576,-0.168608,0.340172,-0.457998,-0.803798,60.683565,44.531701,-176.739595
39361,NaN,0.692114,8.824497,-4.028815,-4.036656,-8.093400,-6.237198,-0.537961,0.821848,-0.414479,-0.167530,0.344879,-0.455849,-0.803240,60.670809,44.973324,-176.329329
39362,NaN,0.425384,8.742723,-3.725741,-3.889374,-7.808546,-6.018412,-0.388013,1.095209,-0.294739,-0.165611,0.350270,-0.454717,-0.801946,60.919263,45.431134,-175.674864
39363,NaN,0.164400,8.898680,-3.279030,-3.948404,-7.518150,-5.587408,-0.239618,1.285866,-0.174310,-0.163016,0.356019,-0.454538,-0.800044,61.397241,45.877754,-174.823887
39364,NaN,0.059463,9.018722,-2.819466,-4.106902,-7.198802,-5.273883,-0.173512,1.408609,-0.042188,-0.159737,0.361885,-0.454930,-0.797849,62.026056,46.285813,-173.821764
39365,NaN,0.226773,9.067144,-2.316677,-4.432165,-6.821388,-5.180634,-0.122576,1.488615,0.104612,-0.155756,0.367679,-0.455841,-0.795463,62.785252,46.631291,-172.686837
39366,NaN,0.374681,9.149389,-1.909703,-4.723260,-6.541380,-5.079867,-0.046412,1.565768,0.249360,-0.151172,0.373366,-0.457344,-0.792832,63.681351,46.912157,-171.429256
39367,NaN,0.412905,9.236845,-1.629260,-4.884996,-6.358630,-4.929186,-0.020790,1.627971,0.401851,-0.145857,0.378910,-0.459261,-0.790084,64.683176,47.114394,-170.052685
39368,NaN,0.395736,9.133904,-1.492814,-4.827701,-6.187421,-4.891109,-0.049010,1.693550,0.563951,-0.139709,0.384329,-0.461376,-0.787340,65.753936,47.232286,-168.563137
39369,NaN,0.466233,8.910495,-1.464764,-4.699295,-6.053227,-5.013296,-0.062900,1.765071,0.751497,-0.132594,0.389577,-0.463820,-0.784550,66.912246,47.246871,-166.945593
39370,NaN,0.522640,8.817496,-1.710162,-4.491113,-6.212630,-5.103331,-0.046358,1.850225,0.957582,-0.124517,0.394629,-0.466727,-0.781620,68.172381,47.149454,-165.200631
39371,NaN,0.464701,8.648902,-1.888559,-4.182331,-6.251374,-5.120888,-0.057051,1.930459,1.147396,-0.115447,0.399514,-0.469978,-0.778577,69.508650,46.938303,-163.339356
39372,NaN,0.189671,8.436414,-2.076668,-3.691361,-6.220741,-4.996473,-0.029405,2.042389,1.301729,-0.105581,0.404399,-0.473630,-0.775235,70.935357,46.637240,-161.367510
39373,NaN,-0.088120,8.343928,-2.430077,-3.168931,-6.364074,-4.813884,0.063538,2.165051,1.470704,-0.094909,0.409249,-0.477989,-0.771385,72.494692,46.228705,-159.274945
39374,NaN,-0.531777,8.580356,-2.726474,-2.736073,-6.557543,-4.258604,0.223152,2.245916,1.695563,-0.083517,0.413720,-0.483359,-0.766958,74.188057,45.671825,-157.105815
39375,NaN,-1.073412,9.343461,-2.746478,-2.658869,-6.718188,-3.195538,0.441447,2.254510,1.945785,-0.071544,0.417441,-0.490001,-0.761921,75.999385,44.928848,-154.922843
39376,NaN,-1.584971,10.583273,-2.587252,-2.935044,-6.911377,-1.761474,0.671400,2.211629,2.208887,-0.059172,0.420171,-0.497918,-0.756328,77.879711,43.987425,-152.796715
39377,NaN,-2.145812,12.191080,-2.427998,-3.339991,-7.176972,0.007972,0.837302,2.123475,2.471613,-0.046320,0.421753,-0.506872,-0.750373,79.756022,42.835902,-150.774396
39378,NaN,-2.650339,13.904133,-2.177347,-3.845233,-7.329165,1.873616,0.937236,2.007496,2.723217,-0.033053,0.422114,-0.516537,-0.744256,81.554447,41.488334,-148.904888
39379,NaN,-2.907068,15.611715,-1.798730,-4.528911,-7.356232,3.632097,1.003486,1.898522,2.963309,-0.019262,0.421304,-0.526790,-0.737987,83.258540,39.950566,-147.184457
39380,NaN,-2.992059,16.893777,-1.017176,-5.300190,-6.850286,5.031102,0.911764,1.692842,3.212267,-0.004935,0.418943,-0.537011,-0.732176,84.725766,38.227117,-145.696381
39381,NaN,-3.494072,17.119523,-0.590411,-5.035410,-5.937169,5.839700,0.737239,1.434485,3.394970,0.009778,0.415003,-0.546801,-0.727108,85.901175,36.356687,-144.464799
39382,NaN,-3.722507,16.390568,-0.572796,-4.236636,-5.072250,5.651043,0.619515,1.139336,3.559487,0.024479,0.409387,-0.556305,-0.722722,86.815466,34.368397,-143.509559
39383,NaN,-3.548566,15.368237,-0.637785,-3.525946,-4.372327,4.938613,0.680150,0.857560,3.768374,0.039065,0.402027,-0.566303,-0.718435,87.604774,32.236549,-142.794300
39384,NaN,-3.302249,14.979670,-0.863188,-3.038192,-4.074548,4.684706,0.892191,0.629172,3.983800,0.053288,0.393117,-0.577292,-0.713690,88.386869,29.973662,-142.282451
39385,NaN,-3.380341,15.427226,-0.854349,-2.790143,-3.664866,5.316769,1.123104,0.414521,4.176307,0.067149,0.382768,-0.589302,-0.708310,89.196803,27.586971,-141.951539
