// General information: 
//  MT Manager version: 2019.0.1 
//  XDA version: 2019.0.1 build 2740 rev 84096 built on 2019-01-30
// Device information: 
//  DeviceId: 00B4381A
//  ProductCode: MTW2-3A7G6
//  Firmware Version: 4.3.4
//  Hardware Version: 1.1.0
// Device settings: 
//  Filter Profile: human(46.1)
//  Option Flags: Orientation Smoother Disabled, AHS Disabled, ICC Disabled
// Coordinate system: ENU
PacketCounter,SampleTimeFine,Acc_X,Acc_Y,Acc_Z,FreeAcc_E,FreeAcc_N,FreeAcc_U,Gyr_X,Gyr_Y,Gyr_Z,Quat_q0,Quat_q1,Quat_q2,Quat_q3,Roll,Pitch,Yaw
40473,NaN,-9.530849,0.596411,5.506509,-0.934372,-0.610623,1.154003,0.074432,0.268957,0.419425,0.818147,0.248056,0.427446,-0.293928,16.818362,57.698523,-30.211414
40474,NaN,-9.378055,0.001589,5.055671,-1.543765,-0.821705,0.696789,0.146932,0.116903,0.456529,0.818361,0.249823,0.427125,-0.292297,17.326031,57.685908,-29.717888
40475,NaN,-9.879563,0.179399,4.872379,-1.787334,-0.487618,1.047578,0.363795,0.049050,0.445432,0.818436,0.252327,0.426215,-0.291263,17.923602,57.634035,-29.262128
40476,NaN,-9.944275,0.980664,5.054457,-1.209294,-0.071746,1.319694,0.477549,-0.100622,0.435843,0.818656,0.255082,0.424540,-0.290691,18.539133,57.501419,-28.864563
40477,NaN,-8.393412,1.440099,5.326298,-0.075262,-0.368736,0.224770,0.470006,-0.294862,0.570231,0.819490,0.257777,0.421902,-0.289803,19.197035,57.235107,-28.407710
40478,NaN,-6.853320,1.267494,5.320871,0.468589,-0.912192,-1.104407,0.384577,-0.291572,0.607609,0.820461,0.260231,0.419349,-0.288567,19.835508,56.961742,-27.917284
40479,NaN,-7.163752,0.894417,5.140869,-0.090636,-1.000345,-1.007082,0.356732,-0.157868,0.492558,0.821020,0.262488,0.417526,-0.287573,20.389412,56.779007,-27.504385
40480,NaN,-8.242152,1.050379,4.577732,-0.853240,-0.275635,-0.368764,0.482716,-0.036893,0.453429,0.821088,0.265383,0.416069,-0.286834,21.022233,56.667901,-27.085879
40481,NaN,-8.652292,1.921936,4.359375,-0.614330,0.534057,0.030944,0.670422,-0.065048,0.497468,0.821025,0.269063,0.414160,-0.286346,21.778997,56.528686,-26.643768
40482,NaN,-8.203877,3.116870,4.422009,0.413678,1.149308,-0.061790,0.817909,-0.084982,0.543521,0.820846,0.273442,0.411890,-0.285987,22.652037,56.366544,-26.166134
40483,NaN,-7.601664,4.094462,4.466043,1.362122,1.577973,-0.317981,0.793808,-0.016754,0.565711,0.820578,0.277830,0.409893,-0.285395,23.539751,56.230461,-25.650319
40484,NaN,-7.235621,4.182756,4.310282,1.482800,1.589368,-0.663760,0.625625,0.131512,0.575767,0.820230,0.281783,0.408722,-0.284197,24.391783,56.166176,-25.064000
40485,NaN,-7.072684,3.527810,4.185948,1.012407,1.126099,-0.998099,0.483273,0.288176,0.582019,0.819764,0.285360,0.408377,-0.282462,25.216644,56.176098,-24.409542
40486,NaN,-6.875044,2.795741,4.446098,0.709787,0.335058,-1.196791,0.455213,0.386139,0.615139,0.819163,0.289045,0.408423,-0.280384,26.092757,56.223971,-23.676759
40487,NaN,-7.464015,2.368881,5.302291,0.525177,-0.500235,-0.383439,0.485339,0.481370,0.626416,0.818332,0.292985,0.408786,-0.278183,27.029864,56.310210,-22.889814
40488,NaN,-8.974108,2.174780,4.809668,-0.648541,-0.046680,0.578348,0.523916,0.530522,0.552496,0.817216,0.297014,0.409402,-0.276280,27.960876,56.434917,-22.139846
40489,NaN,-9.492413,2.271499,4.477913,-1.037669,0.269257,0.872220,0.522279,0.396733,0.642565,0.816491,0.301009,0.409326,-0.274204,28.904859,56.459797,-21.371623
40490,NaN,-9.194209,2.449092,4.928180,-0.575329,-0.084728,0.886819,0.549032,0.250381,0.741316,0.816135,0.305129,0.408464,-0.271989,29.880551,56.377737,-20.585698
40491,NaN,-8.361511,2.620137,4.960501,-0.061853,-0.241880,0.253264,0.586281,0.195690,0.790155,0.815888,0.309398,0.407240,-0.269732,30.880824,56.246316,-19.792659
40492,NaN,-8.253129,2.838880,5.585152,0.403581,-0.655529,0.520456,0.536696,0.255336,0.784881,0.815561,0.313547,0.406328,-0.267292,31.873271,56.138680,-18.975993
40493,NaN,-8.505399,2.723559,5.098454,-0.099155,-0.419896,0.461883,0.506143,0.318395,0.795396,0.815157,0.317649,0.405684,-0.264647,32.874646,56.049725,-18.124171
40494,NaN,-8.397515,2.546498,4.623876,-0.446700,-0.297944,0.091550,0.540363,0.303291,0.846067,0.814767,0.321986,0.404846,-0.261877,33.923771,55.929762,-17.239722
40495,NaN,-8.623534,2.756089,4.581225,-0.500067,-0.183099,0.319655,0.614191,0.233950,0.887110,0.814437,0.326584,0.403548,-0.259199,34.998451,55.754008,-16.371472
40496,NaN,-7.967478,3.132880,4.612459,0.061786,-0.156146,-0.089461,0.720878,0.113219,0.937259,0.814207,0.331573,0.401528,-0.256715,36.103523,55.496570,-15.540720
40497,NaN,-6.516064,3.299859,4.398154,0.793553,-0.197177,-1.326096,0.813589,0.116177,1.052695,0.813941,0.337139,0.399191,-0.253937,37.320262,55.191063,-14.633417
40498,NaN,-6.012138,3.344312,3.077975,0.410771,0.659890,-2.316086,0.912608,0.357561,1.016313,0.812933,0.343349,0.397756,-0.251081,38.680020,54.996250,-13.620722
40499,NaN,-6.751384,3.791404,2.228322,-0.140282,1.587016,-1.914467,0.994737,0.611489,0.938293,0.811147,0.350017,0.397359,-0.248261,40.153693,54.927439,-12.522281
40500,NaN,-8.500775,4.610527,3.599034,0.045728,1.143577,0.442132,1.008735,0.663816,0.914581,0.809149,0.356761,0.397180,-0.245454,41.648312,54.874345,-11.409684
40501,NaN,-10.139954,5.273459,4.332781,-0.133115,1.021174,2.366719,0.991355,0.535005,0.936064,0.807426,0.363283,0.396438,-0.242746,43.066392,54.741866,-10.375275
40502,NaN,-9.558198,5.055529,3.718528,-0.312736,1.156815,1.558626,0.921010,0.159511,1.117394,0.806745,0.369421,0.393917,-0.239832,44.332039,54.368415,-9.477281
40503,NaN,-8.804422,4.927222,4.746703,0.394862,0.072176,1.330151,0.880161,-0.004149,1.319868,0.806664,0.375562,0.390388,-0.236313,45.569694,53.835243,-8.578159
40504,NaN,-9.312261,4.692415,5.638817,0.215823,-0.855178,2.009011,0.758316,0.015417,1.332959,0.806734,0.381252,0.387034,-0.232448,46.728973,53.293602,-7.685190
40505,NaN,-9.445365,3.805689,5.430928,-0.680699,-1.328536,1.631193,0.667170,-0.057811,1.316087,0.807061,0.386420,0.383499,-0.228604,47.755125,52.720390,-6.885178
40506,NaN,-8.394184,2.732972,5.274710,-0.961917,-2.021171,0.224311,0.701374,-0.174151,1.434663,0.807627,0.391812,0.379206,-0.224556,48.770367,52.043771,-6.118854
40507,NaN,-7.250052,2.190742,4.996550,-0.869755,-2.287945,-1.075710,0.959016,-0.190493,1.494042,0.807735,0.398292,0.374413,-0.220777,49.917161,51.326637,-5.363223
40508,NaN,-6.790458,2.688715,3.583683,-0.979890,-0.984387,-1.797014,1.347127,-0.015736,1.470238,0.806637,0.406470,0.369913,-0.217448,51.340651,50.673104,-4.532935
40509,NaN,-6.148113,4.130793,2.446342,-0.213683,0.618152,-2.039834,1.635658,0.104198,1.557779,0.804743,0.416035,0.365364,-0.214038,52.991144,50.008773,-3.611517
40510,NaN,-5.569834,5.788849,1.691551,0.828295,2.001078,-1.894253,1.817583,0.218201,1.686136,0.802277,0.426653,0.360759,-0.210170,54.822460,49.305431,-2.583538
40511,NaN,-5.766530,7.283372,0.815368,1.223735,3.380029,-1.208115,1.866657,0.413891,1.700308,0.799249,0.437612,0.356801,-0.205887,56.744374,48.637407,-1.459384
40512,NaN,-7.333132,8.473010,1.976423,1.300534,2.842497,1.127855,1.632921,0.564924,1.725969,0.796356,0.447789,0.353573,-0.200717,58.582324,47.978944,-0.259572
40513,NaN,-9.385434,8.375110,5.189043,0.948033,-0.188116,3.759835,1.195319,0.466192,1.798283,0.794588,0.456181,0.350182,-0.194682,60.094187,47.233010,0.853068
40514,NaN,-9.077078,6.062652,5.515741,-0.349744,-1.851198,2.271098,0.862640,0.246397,1.899527,0.793964,0.463173,0.345970,-0.188138,61.288681,46.357260,1.804947
40515,NaN,-6.837983,3.354165,4.603907,-0.979506,-2.517519,-1.333057,0.751083,0.211181,2.039404,0.793708,0.469865,0.341359,-0.180909,62.397205,45.388493,2.742883
40516,NaN,-7.391200,3.010862,5.552578,-1.349054,-3.673061,-0.912636,1.100173,0.511786,1.949124,0.791931,0.478014,0.337796,-0.173903,63.795681,44.529627,3.820873
40517,NaN,-8.395155,4.180256,4.912605,-1.728751,-2.780505,0.255152,1.484119,0.495748,1.911693,0.789129,0.487518,0.333879,-0.167712,65.349290,43.667438,4.825635
40518,NaN,-7.085453,5.323858,3.724291,-0.683549,-1.320649,-0.315273,1.717984,0.325613,1.956932,0.785940,0.497819,0.328928,-0.162115,66.922565,42.722105,5.676683
40519,NaN,-4.863119,6.373104,2.342653,0.930596,0.344468,-1.520204,1.846214,0.488412,2.007294,0.782075,0.508722,0.324333,-0.156104,68.609626,41.769212,6.607450
40520,NaN,-4.165203,7.540732,1.884512,1.847368,1.113749,-1.262563,1.836302,0.816631,1.972335,0.777511,0.519713,0.321050,-0.149341,70.398368,40.879289,7.713253
40521,NaN,-5.955403,8.357007,1.514667,0.734398,1.369989,0.442941,1.666024,1.068229,1.825957,0.772742,0.529873,0.319193,-0.142196,72.134241,40.090709,8.910944
40522,NaN,-7.215270,8.276088,1.961674,-0.224889,0.530500,1.325692,1.383673,0.991448,1.823647,0.768699,0.538818,0.317191,-0.134784,73.636220,39.264247,10.011667
40523,NaN,-6.569598,7.583674,1.762981,-0.306129,0.303299,0.365179,1.326518,0.773026,1.901872,0.765104,0.547419,0.314132,-0.127553,74.976754,38.340737,10.931656
40524,NaN,-5.522063,7.356822,1.218290,0.070075,0.671820,-0.558517,1.439545,0.639750,1.880703,0.761269,0.556271,0.310499,-0.120923,76.289637,37.392956,11.716365
40525,NaN,-5.055882,7.761011,1.099345,0.491947,0.805084,-0.533174,1.489486,0.585861,1.818835,0.757240,0.565085,0.306760,-0.114740,77.567227,36.459732,12.415483
40526,NaN,-4.676762,8.185284,0.998417,0.865832,0.911104,-0.416743,1.512780,0.549725,1.768891,0.753051,0.573825,0.302965,-0.108865,78.813069,35.537416,13.049551
40527,NaN,-5.169775,8.732373,2.551669,1.158250,-0.653354,0.566078,1.460252,0.587643,1.664194,0.748806,0.582136,0.299601,-0.103182,80.007526,34.667873,13.664122
40528,NaN,-5.203943,7.995431,2.041108,0.486974,-0.607135,-0.088265,1.335786,0.777791,1.618366,0.744507,0.589952,0.297108,-0.096916,81.180074,33.831291,14.376285
40529,NaN,-4.769562,7.149152,1.123944,0.026712,-0.085751,-1.146023,1.309345,0.944004,1.611495,0.739955,0.597648,0.295228,-0.090135,82.372648,33.000622,15.171993
40530,NaN,-4.683179,7.666655,0.824283,0.171133,0.164096,-0.794419,1.517120,1.021876,1.533237,0.734518,0.605967,0.293737,-0.083703,83.686724,32.205161,15.985689
40531,NaN,-4.756979,8.823481,0.950205,0.632443,0.108085,0.235660,1.575029,0.963435,1.446532,0.728866,0.614246,0.292228,-0.077842,84.983209,31.440819,16.725067
40532,NaN,-5.376443,9.388142,0.035057,0.012736,0.731424,0.981067,1.348645,0.853356,1.370762,0.723936,0.621487,0.290603,-0.072253,86.091615,30.701428,17.363127
40533,NaN,-5.748826,9.343734,-1.296893,-0.838255,1.682321,1.073078,1.145638,0.690729,1.309703,0.719793,0.627769,0.288623,-0.067088,87.008465,29.982106,17.870200
40534,NaN,-4.974617,9.361339,-0.154697,0.099256,0.639177,0.769564,1.035469,0.605820,1.318837,0.716048,0.633602,0.286322,-0.061993,87.823534,29.248525,18.306108
40535,NaN,-4.763977,8.970251,0.370275,0.183841,-0.030795,0.349040,0.934398,0.620980,1.307540,0.712554,0.639001,0.284121,-0.056741,88.571536,28.516902,18.736597
40536,NaN,-5.258543,8.546821,0.430146,-0.483143,-0.445193,0.209868,0.867480,0.438230,1.293049,0.709469,0.644057,0.281315,-0.052024,89.216008,27.786712,19.035598
40537,NaN,-5.429523,8.544271,1.386309,-0.400191,-1.526434,0.282556,0.896127,0.173976,1.246938,0.706618,0.649029,0.277695,-0.048360,89.787986,27.079269,19.152569
40538,NaN,-4.552541,8.463930,0.655267,-0.029959,-0.711425,-0.206216,0.894991,0.016376,1.270214,0.703942,0.653963,0.273426,-0.045120,90.310749,26.357204,19.160583
40539,NaN,-3.858204,8.592596,-0.237859,0.234040,0.241594,-0.396731,0.920297,0.043669,1.237163,0.701109,0.658895,0.269340,-0.041941,90.850117,25.654461,19.178236
40540,NaN,-3.200448,9.012145,-0.983175,0.646668,1.079291,-0.281502,0.889836,0.159617,1.223623,0.698164,0.663702,0.265695,-0.038382,91.402336,24.957465,19.262487
40541,NaN,-3.462364,9.351106,-1.216587,0.406988,1.141720,0.159289,0.835663,0.315080,1.148828,0.695151,0.668201,0.262837,-0.034494,91.958708,24.300364,19.437786
40542,NaN,-4.243814,9.471036,-0.784324,-0.159357,0.383314,0.586898,0.783381,0.438664,1.160549,0.692103,0.672531,0.260364,-0.030082,92.513413,23.631895,19.682724
40543,NaN,-2.833452,9.240661,-0.703834,0.905033,0.601792,-0.183012,0.661808,0.458591,1.273944,0.689428,0.676545,0.257582,-0.025050,92.994429,22.896252,19.928476
40544,NaN,-3.748677,9.064905,-1.402918,-0.269543,0.847963,0.056447,0.617197,0.606224,1.194247,0.686655,0.680293,0.255571,-0.019735,93.481829,22.199270,20.260731
40545,NaN,-5.423285,9.468331,-0.223557,-1.279991,-0.894968,0.988693,0.732041,0.444654,1.187855,0.683670,0.684367,0.253001,-0.015136,93.989823,21.509439,20.485300
40546,NaN,-3.803406,9.072232,0.372322,0.082596,-1.067167,-0.026854,0.543990,0.167899,1.334601,0.681644,0.687934,0.248984,-0.010745,94.323074,20.745628,20.527474
40547,NaN,-3.316259,8.666963,-0.405856,0.011510,-0.286561,-0.528568,0.548155,0.116632,1.296156,0.679641,0.691420,0.244913,-0.006666,94.644569,20.006251,20.535178
40548,NaN,-4.741808,9.473569,-1.233492,-1.332045,-0.029704,0.769271,0.581328,-0.096355,1.290813,0.677740,0.694981,0.240122,-0.003381,94.941916,19.279702,20.409960
40549,NaN,-4.200968,9.886031,-1.150068,-0.805904,-0.005430,0.960093,0.520602,-0.221681,1.461194,0.676176,0.698490,0.234305,0.000117,95.176079,18.463388,20.196951
40550,NaN,-2.420185,9.726999,-0.742910,0.725451,0.099105,0.211555,0.504394,-0.244281,1.587511,0.674640,0.702056,0.227952,0.003984,95.398490,17.576420,19.961134
40551,NaN,-2.522126,9.687604,-0.442138,0.582571,-0.311219,0.185701,0.494018,-0.121333,1.587524,0.672964,0.705526,0.222001,0.008292,95.637722,16.684159,19.796029
40552,NaN,-3.702959,10.066429,-1.009393,-0.685823,-0.254009,0.935619,0.531919,-0.077141,1.667079,0.671042,0.709169,0.215900,0.012983,95.907833,15.744134,19.649121
40553,NaN,-3.572168,9.799429,-0.893564,-0.764684,-0.409765,0.619584,0.333598,-0.215495,1.745675,0.669927,0.712175,0.209030,0.017659,96.041547,14.768680,19.412866
40554,NaN,-3.398038,9.065218,-1.250786,-1.072718,-0.076784,-0.110608,0.306632,-0.301667,1.769841,0.668931,0.715076,0.201763,0.022137,96.152208,13.784583,19.123377
40555,NaN,-4.048447,9.801763,-1.345757,-1.670253,-0.289172,0.741879,0.499510,-0.322031,1.909316,0.667200,0.718689,0.193937,0.026809,96.371663,12.724011,18.811429
40556,NaN,-3.115326,10.445788,-0.336024,-0.536873,-1.071091,1.026735,0.499639,-0.438111,2.022671,0.665484,0.722363,0.185292,0.031442,96.582149,11.606678,18.421590
40557,NaN,-2.818995,10.184814,0.357484,-0.322153,-1.721102,0.614894,0.413189,-0.582516,2.169728,0.664123,0.725809,0.175606,0.036115,96.730871,10.417678,17.936276
40558,NaN,-3.310910,9.930631,0.576947,-0.990195,-2.155953,0.399010,0.558927,-0.798856,2.277806,0.662298,0.729783,0.164804,0.040233,96.951976,9.182265,17.316419
40559,NaN,-3.610860,9.932684,0.802504,-1.441766,-2.556221,0.371690,0.764307,-1.036485,2.429190,0.659790,0.734469,0.152685,0.043804,97.279696,7.882137,16.545611
40560,NaN,-3.527694,9.801554,1.663511,-1.405794,-3.449385,0.056497,0.954997,-1.415990,2.492832,0.656707,0.739779,0.139082,0.046042,97.707479,6.577704,15.546203
40561,NaN,-4.099169,10.165579,1.649703,-2.172165,-3.732573,0.395393,1.249203,-1.827811,2.529927,0.652666,0.745966,0.124035,0.046654,98.297742,5.296043,14.300424
40562,NaN,-3.196794,10.898138,1.192578,-1.603455,-3.288122,1.004819,1.517588,-2.242021,2.648000,0.647624,0.752981,0.107206,0.045934,99.051841,3.995788,12.796087
40563,NaN,-2.342603,11.579263,1.740145,-0.904854,-3.891051,1.440002,1.630007,-2.529125,2.762766,0.642064,0.760169,0.089018,0.044417,99.889636,2.681411,11.103692
40564,NaN,-2.257126,12.113204,3.148114,-0.902468,-5.512848,1.611402,1.674461,-2.947337,2.905964,0.636168,0.767335,0.068894,0.041740,100.786476,1.352291,9.141917
40565,NaN,-2.720089,12.354223,3.580235,-1.726876,-6.220871,1.638948,1.681506,-3.429184,2.948946,0.630096,0.774191,0.047060,0.037317,101.722574,0.087297,6.885952
40566,NaN,-2.514301,12.452747,3.853753,-1.977495,-6.624489,1.519762,1.693394,-3.942511,2.962775,0.623662,0.780728,0.023505,0.030935,102.721796,-1.087811,4.318508
40567,NaN,-2.401177,13.002370,4.440941,-2.349983,-7.428839,1.754927,1.709935,-4.312495,2.868077,0.616831,0.786766,-0.000819,0.022781,103.778212,-2.112242,1.537588
40568,NaN,-3.491236,13.936157,3.933286,-4.038241,-7.262807,2.548176,1.722224,-4.665728,2.732893,0.609435,0.792315,-0.025728,0.012813,104.903543,-2.961384,-1.443210
40569,NaN,-4.588524,14.624764,1.609218,-5.640502,-5.151497,3.572246,1.521453,-4.854073,2.519541,0.602404,0.796602,-0.050322,0.001405,105.947595,-3.604355,-4.510221
40570,NaN,-5.256897,15.348122,0.698744,-6.712125,-4.319496,4.328140,1.205589,-4.843397,2.311870,0.596095,0.799420,-0.074057,-0.010657,106.848975,-4.085815,-7.553098
40571,NaN,-5.483285,15.595035,-1.786470,-6.979960,-1.827348,5.167213,0.703153,-4.400945,1.967906,0.591621,0.800295,-0.094977,-0.022170,107.450005,-4.410202,-10.298775
40572,NaN,-4.424485,15.566661,-2.453964,-6.000872,-1.184506,5.369553,0.083444,-3.919127,1.708513,0.589434,0.799151,-0.113363,-0.032788,107.697426,-4.659537,-12.742484
40573,NaN,-1.524927,14.566495,-2.359830,-3.168372,-1.437307,4.608444,-0.671647,-3.144803,1.469237,0.590526,0.795677,-0.128290,-0.041456,107.470936,-4.907388,-14.717202
40574,NaN,3.917527,12.578615,-4.024007,2.663325,-0.608097,3.689062,-1.130877,-2.171116,1.366867,0.593810,0.790972,-0.139862,-0.046813,106.955900,-5.281421,-16.142661
40575,NaN,8.048669,11.220857,-4.611274,6.903191,-0.785148,2.981086,-1.398350,-1.170532,1.399367,0.598853,0.785495,-0.148454,-0.048315,106.232603,-5.848685,-17.014222
40576,NaN,7.221768,11.155390,-6.420080,6.504854,1.262840,3.374563,-1.418060,-0.327240,1.225854,0.604400,0.780265,-0.153870,-0.047012,105.466618,-6.467197,-17.388547
40577,NaN,4.034600,11.646734,-6.449771,3.349770,2.312846,3.489567,-1.544020,-0.029886,0.823142,0.610610,0.774911,-0.156734,-0.045865,104.592019,-6.910810,-17.524165
40578,NaN,1.871607,10.980068,-6.668290,1.483298,3.508404,2.597699,-1.733766,-0.025216,0.433818,0.617335,0.769282,-0.158060,-0.046028,103.614215,-7.142418,-17.599468
40579,NaN,1.690747,8.953703,-6.920807,1.795393,4.365903,0.610251,-1.635251,-0.045422,0.179540,0.623640,0.764043,-0.158446,-0.046973,102.678461,-7.229722,-17.644931
40580,NaN,2.719766,7.425906,-7.104866,3.144151,4.625139,-0.771606,-1.315587,0.066008,-0.053680,0.628645,0.760025,-0.157696,-0.047962,101.925581,-7.201802,-17.601428
40581,NaN,3.878934,7.016495,-6.836770,4.275364,4.189807,-1.141782,-0.944249,0.317677,-0.150791,0.632458,0.757236,-0.155839,-0.048006,101.356671,-7.147257,-17.401259
40582,NaN,4.628225,7.325616,-6.348570,4.811181,3.549703,-0.888519,-0.687644,0.653111,-0.134742,0.635484,0.755357,-0.153071,-0.046528,100.921219,-7.137882,-17.016672
40583,NaN,5.014433,7.689554,-6.101779,5.041518,3.259970,-0.568243,-0.682700,1.083903,-0.119052,0.638859,0.753517,-0.148968,-0.043362,100.450236,-7.180207,-16.386593
40584,NaN,5.563181,7.344488,-6.077830,5.584137,3.279177,-0.874448,-0.773028,1.624477,-0.033240,0.642902,0.751437,-0.143454,-0.037956,99.896769,-7.319952,-15.460268
40585,NaN,5.323552,6.601384,-6.033039,5.403088,3.588056,-1.673629,-0.875145,2.168879,0.111884,0.647721,0.748911,-0.136689,-0.030095,99.236338,-7.584938,-14.233466
40586,NaN,3.827948,5.913336,-5.881226,3.946090,4.088765,-2.607436,-0.890686,2.579481,0.183930,0.652742,0.746261,-0.128851,-0.020482,98.535967,-7.911476,-12.776957
40587,NaN,2.315957,5.522568,-5.780038,2.401422,4.532034,-3.258178,-0.769849,2.703682,0.285619,0.657310,0.743781,-0.120972,-0.009974,97.881328,-8.290693,-11.250762
40588,NaN,1.929705,5.611283,-5.725923,1.857965,4.671405,-3.276684,-0.582307,2.568055,0.429769,0.660948,0.741712,-0.114063,0.000601,97.340872,-8.723789,-9.809934
40589,NaN,2.483643,5.825420,-5.581720,2.193141,4.527764,-3.034322,-0.478297,2.361407,0.529516,0.663998,0.739787,-0.108191,0.010816,96.864011,-9.188355,-8.488231
40590,NaN,3.402624,5.883901,-5.403799,2.913142,4.325988,-2.870373,-0.301767,2.294593,0.604845,0.666233,0.738324,-0.102791,0.021110,96.487333,-9.679545,-7.206317
40591,NaN,3.251222,6.061707,-5.124586,2.560445,4.160761,-2.762455,-0.215589,2.253931,0.588180,0.668053,0.737043,-0.097450,0.031259,96.150175,-10.153275,-5.941031
40592,NaN,2.597543,5.964815,-5.017837,1.790861,4.218713,-2.993733,-0.143117,2.181175,0.569651,0.669471,0.735942,-0.092251,0.041090,95.853338,-10.602705,-4.713197
40593,NaN,2.543672,5.902664,-4.848550,1.603120,4.130404,-3.090483,-0.048178,2.094184,0.631729,0.670410,0.735049,-0.087555,0.050867,95.609570,-11.079756,-3.535081
40594,NaN,2.569974,5.990194,-4.578030,1.465441,3.911312,-3.030512,0.058562,2.097251,0.657468,0.670865,0.734423,-0.082891,0.060763,95.417453,-11.564340,-2.353245
40595,NaN,2.754827,6.053336,-4.508091,1.495537,3.881110,-2.938578,0.174573,2.171164,0.643241,0.670844,0.734075,-0.077901,0.070942,95.272506,-12.044593,-1.124181
40596,NaN,3.004637,6.154180,-4.560485,1.576021,3.968628,-2.779629,0.283370,2.262976,0.660460,0.670366,0.733956,-0.072597,0.081529,95.167682,-12.533586,0.160973
40597,NaN,3.331141,6.405234,-4.592189,1.685761,4.023143,-2.451849,0.465657,2.376701,0.684750,0.669141,0.734287,-0.066941,0.092690,95.142407,-13.044554,1.513840
40598,NaN,3.662715,6.792638,-4.533185,1.761713,3.975096,-1.989794,0.637459,2.504770,0.648772,0.667242,0.735019,-0.060610,0.104222,95.184520,-13.538110,2.946993
40599,NaN,3.698988,7.189420,-4.305202,1.553436,3.743090,-1.598152,0.729611,2.714057,0.597674,0.664950,0.735833,-0.053362,0.116381,95.239217,-14.018856,4.507205
40600,NaN,3.423891,7.609615,-4.077549,1.043433,3.474508,-1.263282,0.773446,2.845180,0.539040,0.662439,0.736563,-0.045397,0.128794,95.284095,-14.470085,6.151665
40601,NaN,2.650124,7.975838,-4.100052,0.044044,3.374762,-1.091769,0.794912,2.835133,0.491560,0.659708,0.737232,-0.037300,0.141011,95.332087,-14.899824,7.794079
40602,NaN,2.228647,8.140760,-3.621366,-0.475101,2.802951,-1.079472,0.872159,2.734490,0.519013,0.656532,0.738046,-0.029540,0.152908,95.424564,-15.336926,9.379877
40603,NaN,2.435993,8.363129,-3.350006,-0.422792,2.495234,-0.829829,1.022177,2.677774,0.590606,0.652573,0.739246,-0.022146,0.164843,95.603767,-15.820390,10.928410
40604,NaN,3.127859,8.768623,-3.370980,-0.019407,2.528539,-0.239827,1.176776,2.750273,0.658435,0.647876,0.740699,-0.014597,0.177226,95.843451,-16.347101,12.519984
40605,NaN,3.175339,9.241760,-3.283352,-0.226683,2.316615,0.229863,1.214878,2.899563,0.669084,0.642849,0.741980,-0.006606,0.190175,96.068777,-16.900218,14.199498
40606,NaN,2.102527,9.705118,-3.161515,-1.454924,1.786701,0.350656,1.164932,2.962773,0.650425,0.637891,0.742827,0.001651,0.203228,96.233653,-17.446819,15.923198
40607,NaN,1.391341,10.007329,-3.200670,-2.337207,1.467311,0.420016,1.174501,2.844907,0.747299,0.632602,0.743656,0.009141,0.216119,96.414158,-18.051453,17.571089
40608,NaN,1.496791,10.027102,-2.789571,-2.243272,0.974841,0.413713,1.235131,2.637133,0.897256,0.626815,0.744705,0.015520,0.228638,96.648893,-18.728253,19.090404
40609,NaN,2.148584,10.149556,-2.561044,-1.738298,0.797377,0.700558,1.360320,2.503040,0.967813,0.620315,0.746160,0.021317,0.240831,96.969592,-19.448042,20.523869
40610,NaN,2.884077,10.371750,-2.225966,-1.142569,0.539228,1.107332,1.466695,2.414954,1.008872,0.613272,0.747862,0.026848,0.252744,97.347849,-20.188165,21.905659
40611,NaN,2.769900,10.533461,-1.879245,-1.258961,0.000384,1.167748,1.431175,2.414657,1.013305,0.606184,0.749313,0.032275,0.264629,97.693153,-20.943790,23.285536
40612,NaN,2.459948,10.368961,-1.674947,-1.493928,-0.394568,0.863558,1.336352,2.357094,0.992597,0.599393,0.750363,0.037508,0.276183,97.973739,-21.685414,24.637598
40613,NaN,2.366429,9.916143,-1.389519,-1.409678,-0.693336,0.355427,1.329495,2.259659,1.052404,0.592407,0.751409,0.042173,0.287505,98.261498,-22.463878,25.924936
40614,NaN,2.627851,9.526478,-1.095174,-1.027460,-0.862470,0.039072,1.387179,2.132091,1.142076,0.585020,0.752655,0.046233,0.298535,98.593639,-23.284344,27.131567
40615,NaN,2.600146,9.408515,-0.744374,-0.915824,-1.274342,-0.149858,1.477361,2.045073,1.165732,0.577133,0.754178,0.050042,0.309237,98.987546,-24.121870,28.280990
40616,NaN,2.234750,9.638528,-0.596318,-1.254647,-1.777959,-0.142452,1.549610,2.020877,1.125285,0.568963,0.755768,0.054068,0.319645,99.407516,-24.937515,29.423344
40617,NaN,1.963820,10.051138,-0.424570,-1.533666,-2.341664,0.047547,1.577600,1.998704,1.119208,0.560564,0.757344,0.058058,0.329890,99.837888,-25.759157,30.550598
40618,NaN,1.670536,10.299565,-0.213558,-1.742729,-2.898491,0.060337,1.481746,1.998993,1.099423,0.552483,0.758482,0.061985,0.340038,100.193201,-26.572784,31.684537
40619,NaN,1.645714,10.150499,-0.110124,-1.685749,-3.087199,-0.149427,1.348562,1.992421,1.080087,0.544818,0.759138,0.065705,0.350094,100.460575,-27.383498,32.817239
40620,NaN,1.613930,9.864570,0.109252,-1.521261,-3.296457,-0.499045,1.265759,1.977258,1.076940,0.537410,0.759447,0.069263,0.360046,100.665181,-28.191866,33.947632
40621,NaN,1.260590,9.533743,0.276736,-1.599229,-3.587864,-1.030536,1.227210,1.947345,1.036080,0.530126,0.759582,0.072798,0.369732,100.840597,-28.979652,35.067316
40622,NaN,0.527166,9.298409,0.522269,-1.902395,-4.159438,-1.683134,1.190108,1.852379,0.993897,0.523034,0.759649,0.076179,0.378900,101.003648,-29.733996,36.138599
40623,NaN,-0.028219,9.093569,0.859454,-1.996615,-4.717323,-2.250188,1.194616,1.687906,0.971547,0.515945,0.759936,0.079203,0.387331,101.208625,-30.461893,37.109667
40624,NaN,-0.276323,8.905537,1.236131,-1.831632,-5.143438,-2.664143,1.206177,1.497533,0.969039,0.508841,0.760517,0.081767,0.394980,101.469655,-31.169064,37.961599
40625,NaN,-0.621009,8.976646,1.596927,-1.794631,-5.719926,-2.915137,1.232343,1.307947,0.914549,0.501763,0.761438,0.084099,0.401713,101.798169,-31.827491,38.697482
40626,NaN,-0.980251,9.108802,1.878697,-1.818629,-6.272198,-3.118570,1.220681,1.151130,0.842243,0.494897,0.762538,0.086282,0.407637,102.161901,-32.430531,39.340606
40627,NaN,-1.170197,9.320019,1.894212,-1.927364,-6.586371,-3.125120,1.193500,1.022545,0.769642,0.488303,0.763737,0.088371,0.412863,102.545039,-32.979208,39.908688
40628,NaN,-1.336863,9.582317,1.857927,-2.066258,-6.878235,-3.068885,1.130892,0.909519,0.673804,0.482156,0.764922,0.090404,0.417429,102.922386,-33.464709,40.414212
40629,NaN,-1.657869,9.704969,1.907772,-2.199597,-7.233382,-3.223814,1.023944,0.795500,0.544095,0.476729,0.765978,0.092453,0.421260,103.265319,-33.862482,40.864032
40630,NaN,-1.876630,9.637283,2.065404,-2.137400,-7.491902,-3.490755,0.919731,0.628890,0.413228,0.472017,0.767051,0.094360,0.424181,103.599381,-34.170537,41.220226
40631,NaN,-1.701949,9.340721,2.257049,-1.747916,-7.419433,-3.718749,0.847526,0.419429,0.298356,0.467939,0.768306,0.096093,0.426035,103.957109,-34.382823,41.456026
40632,NaN,-1.399296,9.010450,2.465542,-1.263209,-7.254941,-3.897055,0.830531,0.220535,0.177992,0.464238,0.769884,0.097749,0.426856,104.372522,-34.506689,41.574140
40633,NaN,-1.244280,8.804946,2.485982,-1.041133,-7.108909,-4.013174,0.843404,0.077158,0.038660,0.460888,0.771695,0.099682,0.426771,104.832062,-34.526616,41.623302
40634,NaN,-1.381503,8.840589,2.548299,-1.022130,-7.276363,-4.105880,0.864897,-0.061066,-0.123967,0.457821,0.773775,0.101920,0.425775,105.344515,-34.442992,41.604679
40635,NaN,-1.489106,9.041290,2.625894,-1.004519,-7.523233,-4.046488,0.869171,-0.195291,-0.274437,0.455170,0.776030,0.104498,0.423885,105.887464,-34.247270,41.530861
40636,NaN,-1.742742,9.444940,2.672102,-1.138998,-7.941825,-3.895450,0.870177,-0.336015,-0.420133,0.452833,0.778519,0.107262,0.421125,106.472138,-33.956501,41.388641
40637,NaN,-2.158448,10.048454,2.874729,-1.289191,-8.654070,-3.702139,0.868375,-0.512496,-0.571703,0.450968,0.781234,0.110280,0.417301,107.092790,-33.542371,41.171182
40638,NaN,-2.817369,11.086785,3.432853,-1.403232,-9.961624,-3.375679,0.876211,-0.750598,-0.738734,0.449469,0.784375,0.113354,0.412170,107.787059,-33.003737,40.832393
40639,NaN,-3.156099,12.377718,3.889389,-1.426348,-11.167098,-2.632379,0.819196,-1.003533,-0.893603,0.448713,0.787733,0.116427,0.405683,108.500811,-32.320575,40.381330
40640,NaN,-2.725906,13.397268,4.150189,-1.041405,-11.664973,-1.628286,0.614885,-1.193471,-1.040270,0.449057,0.790923,0.119145,0.398236,109.142741,-31.529868,39.845693
40641,NaN,-1.801221,13.606291,3.962182,-0.516826,-11.126104,-0.867527,0.243357,-1.225155,-1.245862,0.451367,0.793103,0.121953,0.390363,109.532451,-30.604230,39.358836
40642,NaN,-0.714701,12.956542,3.458953,0.028324,-9.784794,-0.614743,-0.115877,-1.135250,-1.465204,0.455336,0.794153,0.125025,0.382568,109.664138,-29.589260,38.976527
40643,NaN,0.090367,12.164452,3.138318,0.545314,-8.596448,-0.667631,-0.409737,-0.957587,-1.690067,0.460868,0.793909,0.128929,0.375083,109.527222,-28.471732,38.768622
40644,NaN,0.411531,11.528840,2.781298,0.688369,-7.713554,-0.821435,-0.600715,-0.740536,-1.924656,0.467289,0.792651,0.133782,0.368033,109.207480,-27.284757,38.729928
40645,NaN,0.199561,11.258459,2.597368,0.545014,-7.406073,-0.959038,-0.734776,-0.541405,-2.163724,0.474621,0.790368,0.139899,0.361223,108.721135,-25.989123,38.864781
40646,NaN,-0.245026,11.077870,2.235211,0.105900,-7.144311,-1.053879,-0.890921,-0.397267,-2.381685,0.482657,0.787264,0.146800,0.354552,108.115138,-24.616573,39.103117
40647,NaN,-0.605015,10.841420,2.017062,-0.162536,-6.882647,-1.177505,-1.003972,-0.320396,-2.579442,0.491489,0.783366,0.154558,0.347691,107.406279,-23.129537,39.417188
40648,NaN,-0.785971,10.613629,1.902505,-0.229831,-6.584506,-1.241246,-1.073604,-0.286886,-2.775451,0.500661,0.779018,0.162892,0.340494,106.670491,-21.555020,39.751189
40649,NaN,-0.970232,10.612350,1.695327,-0.372962,-6.314993,-1.071412,-1.072604,-0.275124,-2.963691,0.510172,0.774204,0.172074,0.332751,105.920895,-19.856113,40.110538
40650,NaN,-1.338156,11.048944,1.456211,-0.684724,-6.304374,-0.551737,-1.056603,-0.307207,-3.128984,0.519638,0.769245,0.181671,0.324398,105.214731,-18.075934,40.439985
40651,NaN,-1.754187,11.697166,1.333248,-0.936792,-6.445472,0.149393,-1.084616,-0.402107,-3.256146,0.529512,0.763908,0.191539,0.315238,104.501876,-16.187529,40.718487
40652,NaN,-1.841796,12.419398,0.918373,-1.121808,-6.164051,1.105498,-1.050179,-0.494619,-3.368472,0.539197,0.758584,0.201457,0.305339,103.852676,-14.240979,40.923443
40653,NaN,-1.666872,13.540651,0.533191,-1.053172,-5.805204,2.499197,-0.948691,-0.541480,-3.454803,0.548666,0.753136,0.211795,0.294779,103.257914,-12.216581,41.100136
40654,NaN,-1.829192,14.975178,0.288841,-1.078478,-5.775200,4.084913,-1.025164,-0.577618,-3.546261,0.558245,0.747312,0.222062,0.283860,102.650593,-10.156321,41.235379
40655,NaN,-1.810821,15.845868,-0.162131,-1.066291,-5.205872,5.224837,-1.251280,-0.593314,-3.632164,0.568772,0.740362,0.232333,0.272734,101.902510,-8.022044,41.355837
40656,NaN,-1.711497,16.049350,-0.592009,-0.989687,-4.348835,5.709378,-1.534521,-0.606168,-3.668818,0.580020,0.732437,0.242094,0.261733,101.020174,-5.886969,41.433283
40657,NaN,-1.730706,15.757278,-0.916190,-0.969390,-3.483038,5.647566,-1.767662,-0.626904,-3.688301,0.592100,0.723371,0.251588,0.250709,99.990773,-3.714277,41.472817
40658,NaN,-1.901527,15.230797,-1.372528,-1.190847,-2.583457,5.331615,-1.881924,-0.642463,-3.675465,0.604168,0.713848,0.260607,0.239764,98.919566,-1.570658,41.455002
40659,NaN,-2.150549,14.712824,-1.840727,-1.498192,-1.745721,4.991242,-1.888255,-0.670940,-3.610527,0.616124,0.703943,0.269312,0.228750,97.824272,0.561818,41.381509
40660,NaN,-2.250617,14.513721,-1.841518,-1.374114,-1.231163,4.873058,-1.817866,-0.759883,-3.502992,0.627403,0.694377,0.277206,0.217631,96.784038,2.613799,41.203915
40661,NaN,-2.552598,14.779743,-1.440666,-1.089355,-1.194718,5.166954,-1.651712,-0.917638,-3.394899,0.638124,0.685201,0.284422,0.205916,95.803927,4.634875,40.897903
40662,NaN,-2.702074,15.730906,-1.174675,-0.671459,-0.978198,6.146795,-1.441841,-1.010067,-3.324662,0.647785,0.676816,0.291091,0.193805,94.944889,6.591432,40.497183
40663,NaN,-2.528762,16.721782,-1.017603,-0.041380,-0.416228,7.123696,-1.464390,-1.060231,-3.248407,0.657454,0.668093,0.297330,0.181661,94.030288,8.524293,40.035483
40664,NaN,-2.195811,16.954749,-0.928061,0.547196,0.317459,7.296146,-1.749188,-1.047449,-3.189698,0.667609,0.658457,0.302934,0.170186,92.952881,10.390806,39.539795
40665,NaN,-1.851404,16.287866,-0.814100,0.973152,1.004558,6.539543,-2.063516,-0.969695,-3.166904,0.678567,0.647305,0.308449,0.159382,91.658892,12.255298,39.048635
40666,NaN,-1.935064,15.165988,-0.810507,0.876926,1.419100,5.405563,-2.255175,-0.897074,-3.158277,0.689607,0.635395,0.313800,0.149150,90.259516,14.078926,38.550442
40667,NaN,-2.164350,14.011062,-1.351942,0.294324,2.099599,4.269249,-2.235915,-0.814575,-3.135367,0.700312,0.623081,0.319351,0.139097,88.833987,15.899595,38.051251
40668,NaN,-1.988632,13.262363,-1.762563,0.164256,2.895312,3.397908,-2.101563,-0.762557,-3.062252,0.710057,0.611276,0.324730,0.129269,87.487005,17.644851,37.534504
40669,NaN,-1.693903,12.901338,-2.144523,0.216702,3.753653,2.826802,-1.961052,-0.675688,-2.997489,0.719077,0.599614,0.330287,0.119591,86.186441,19.365114,37.023786
40670,NaN,-1.560068,12.642583,-2.550038,0.150745,4.506495,2.370196,-1.873202,-0.560986,-2.952315,0.727249,0.588270,0.335976,0.110307,84.952722,21.032345,36.540945
40671,NaN,-1.760466,12.500808,-2.980351,-0.157168,5.093016,2.115111,-1.750460,-0.472846,-2.888342,0.734777,0.577065,0.341842,0.101205,83.760680,22.677987,36.070309
40672,NaN,-2.143621,12.741121,-3.238409,-0.395821,5.532753,2.296634,-1.518892,-0.463812,-2.788698,0.741246,0.566904,0.347396,0.092141,82.699475,24.238810,35.574869
40673,NaN,-2.088153,13.303393,-3.095438,0.040291,6.001464,2.632734,-1.323522,-0.478960,-2.710698,0.747077,0.557291,0.352748,0.082893,81.700916,25.764277,35.036093
40674,NaN,-1.872246,13.692002,-2.930387,0.574258,6.471018,2.731027,-1.299014,-0.482019,-2.654630,0.752541,0.547919,0.357789,0.073851,80.709717,27.230568,34.468556
40675,NaN,-1.782388,13.405301,-2.783262,0.808265,6.633349,2.268574,-1.396657,-0.469652,-2.598000,0.758156,0.537984,0.362667,0.065150,79.619359,28.673512,33.873123
40676,NaN,-1.751037,12.567145,-2.649630,0.805360,6.520904,1.360353,-1.468183,-0.453443,-2.534856,0.763648,0.527936,0.367269,0.056911,78.484236,30.055413,33.260913
40677,NaN,-1.668449,11.622223,-2.585164,0.738999,6.393857,0.341395,-1.423252,-0.454896,-2.472797,0.768925,0.517904,0.371689,0.048750,77.326925,31.406550,32.610557
40678,NaN,-1.627247,10.866400,-2.461935,0.719727,6.228733,-0.460439,-1.302181,-0.468520,-2.397908,0.773657,0.508531,0.375762,0.040667,76.224998,32.687818,31.928088
40679,NaN,-1.508236,10.462019,-2.404877,0.817271,6.273759,-1.010574,-1.164326,-0.485008,-2.334838,0.777986,0.499574,0.379617,0.032464,75.150399,33.933992,31.200718
40680,NaN,-1.501533,10.155576,-2.251957,0.921106,6.211145,-1.384817,-1.052579,-0.502442,-2.250377,0.781851,0.491275,0.383098,0.024383,74.125666,35.106136,30.445538
40681,NaN,-1.515063,9.875521,-2.189966,0.957190,6.200979,-1.735327,-0.969447,-0.537026,-2.170963,0.785508,0.483249,0.386240,0.016314,73.093897,36.229526,29.639958
40682,NaN,-1.607375,9.605760,-2.122404,0.938295,6.138396,-2.015631,-0.892556,-0.572727,-2.073109,0.788866,0.475778,0.388915,0.008444,72.087213,37.269731,28.801608
40683,NaN,-1.655523,9.372469,-2.161427,0.891282,6.176942,-2.309168,-0.794914,-0.617069,-1.977092,0.792024,0.468701,0.391174,0.000609,71.083007,38.248026,27.913946
40684,NaN,-1.800432,9.326644,-2.252003,0.810424,6.304907,-2.404093,-0.672915,-0.660677,-1.862606,0.794835,0.462394,0.392911,-0.007067,70.131283,39.133863,26.998130
40685,NaN,-1.845708,9.449110,-2.302087,0.887702,6.524888,-2.421702,-0.532656,-0.703899,-1.739199,0.797374,0.456733,0.394175,-0.014668,69.217392,39.941794,26.047912
40686,NaN,-1.730242,9.727456,-2.326575,1.153933,6.858960,-2.420102,-0.443733,-0.721085,-1.639089,0.799634,0.451685,0.395070,-0.022042,68.351464,40.672534,25.092534
40687,NaN,-1.551872,9.831383,-2.317528,1.414978,7.078208,-2.578774,-0.450567,-0.699528,-1.548443,0.801848,0.446665,0.395838,-0.029025,67.470634,41.355855,24.147253
40688,NaN,-1.425221,9.584686,-2.349085,1.466387,7.090148,-2.957550,-0.497399,-0.632714,-1.456878,0.803951,0.441704,0.396623,-0.035362,66.601713,41.987652,23.259444
40689,NaN,-1.237083,9.072390,-2.374595,1.440854,6.942103,-3.551165,-0.529818,-0.541582,-1.372388,0.805937,0.436693,0.397586,-0.041120,65.743077,42.591926,22.435715
40690,NaN,-1.136876,8.612828,-2.378227,1.377106,6.765447,-4.028210,-0.467158,-0.444653,-1.270398,0.807538,0.432207,0.398662,-0.046349,64.981522,43.151877,21.700459
40691,NaN,-1.039517,8.360811,-2.422988,1.365534,6.729477,-4.362634,-0.348843,-0.344572,-1.145716,0.808699,0.428391,0.399842,-0.051115,64.340887,43.669574,21.058074
40692,NaN,-0.844980,8.387063,-2.471205,1.530994,6.878252,-4.567815,-0.211434,-0.258714,-0.985859,0.809386,0.425517,0.400963,-0.055301,63.856632,44.117385,20.525179
40693,NaN,-0.574593,8.599666,-2.406761,1.892169,7.066301,-4.658704,-0.080480,-0.163828,-0.813980,0.809649,0.423491,0.402068,-0.058867,63.522352,44.501466,20.109517
40694,NaN,-0.338710,8.879666,-2.343142,2.255016,7.275329,-4.670925,0.011113,-0.047593,-0.642110,0.809507,0.422253,0.403236,-0.061658,63.344422,44.822726,19.838284
40695,NaN,-0.270300,9.069508,-2.227043,2.490991,7.338724,-4.594765,0.051806,0.080381,-0.464482,0.809080,0.421545,0.404537,-0.063552,63.293860,45.087499,19.719480
40696,NaN,-0.300793,9.052214,-2.072815,2.581710,7.211971,-4.554186,0.052656,0.208425,-0.284556,0.808435,0.421272,0.405969,-0.064439,63.360110,45.291185,19.761374
40697,NaN,-0.398248,8.904199,-1.866707,2.590656,6.941395,-4.518022,0.111198,0.341850,-0.105065,0.807456,0.421630,0.407542,-0.064442,63.574383,45.437488,19.965682
40698,NaN,-0.556802,8.842234,-1.716139,2.556655,6.741931,-4.385894,0.193334,0.459827,0.096981,0.806119,0.422778,0.409136,-0.063543,63.952713,45.508538,20.332059
40699,NaN,-0.821871,8.836879,-1.529738,2.492592,6.514019,-4.115287,0.275101,0.551489,0.315780,0.804485,0.424733,0.410603,-0.061733,64.482479,45.486741,20.844697
40700,NaN,-1.087164,8.926260,-1.309292,2.484366,6.305829,-3.759727,0.357932,0.622233,0.543844,0.802586,0.427500,0.411843,-0.059027,65.151985,45.360947,21.487757
40701,NaN,-1.352770,9.160200,-1.222825,2.451326,6.266836,-3.335685,0.481461,0.679948,0.782920,0.800351,0.431279,0.412746,-0.055481,65.977261,45.116185,22.250661
40702,NaN,-1.563924,9.652614,-1.153323,2.549010,6.389947,-2.768635,0.607967,0.719366,1.051402,0.797806,0.436093,0.413186,-0.051044,66.945063,44.733104,23.118842
40703,NaN,-1.829594,10.298756,-1.007616,2.710618,6.503879,-2.016735,0.689004,0.741318,1.318749,0.795052,0.441794,0.413070,-0.045641,68.015627,44.199054,24.070945
40704,NaN,-1.950383,10.809295,-0.904019,2.861108,6.576148,-1.444468,0.712573,0.755754,1.564671,0.792219,0.448034,0.412446,-0.039291,69.129018,43.527439,25.079295
40705,NaN,-2.060765,11.264317,-0.884050,2.918259,6.652058,-0.916478,0.701770,0.786138,1.794003,0.789301,0.454710,0.411369,-0.031913,70.269213,42.719523,26.144499
40706,NaN,-2.122349,11.430714,-0.887009,2.844176,6.569868,-0.609733,0.644409,0.805646,2.013476,0.786429,0.461517,0.409851,-0.023527,71.382036,41.786338,27.240853
40707,NaN,-2.184601,11.173103,-0.860220,2.587022,6.209272,-0.587890,0.547197,0.810126,2.211875,0.783671,0.468341,0.407821,-0.014118,72.437777,40.724134,28.349732
40708,NaN,-2.201623,10.565818,-0.798269,2.226999,5.643566,-0.851358,0.468787,0.803114,2.379375,0.781019,0.475071,0.405341,-0.003937,73.418572,39.560963,29.444484
40709,NaN,-2.182753,9.854481,-0.692589,1.878007,5.006812,-1.224681,0.460348,0.801102,2.531241,0.778237,0.482061,0.402388,0.006887,74.374585,38.291839,30.527326
40710,NaN,-2.134241,9.281513,-0.553534,1.632871,4.438982,-1.528295,0.509317,0.789894,2.668520,0.775230,0.489360,0.399021,0.018081,75.315081,36.939440,31.579561
40711,NaN,-2.071869,9.014439,-0.508406,1.459154,4.104817,-1.637946,0.635826,0.790566,2.797659,0.771711,0.497377,0.395227,0.029563,76.300660,35.492327,32.609927
40712,NaN,-2.000621,9.270622,-0.454881,1.485027,4.019723,-1.340192,0.817369,0.807762,2.906837,0.767538,0.506119,0.391204,0.041102,77.349111,33.981321,33.616718
40713,NaN,-1.866673,9.876687,-0.454660,1.628806,4.139705,-0.788211,0.955317,0.827227,3.013793,0.762728,0.515544,0.386866,0.052865,78.448638,32.387178,34.601850
40714,NaN,-1.843602,10.598933,-0.469423,1.705359,4.232716,-0.059647,1.018192,0.869653,3.091130,0.757476,0.525127,0.382447,0.064851,79.545067,30.749021,35.569502
40715,NaN,-1.804799,11.353831,-0.584621,1.713798,4.373619,0.695886,1.065133,0.929621,3.153987,0.751708,0.534920,0.377941,0.077174,80.648500,29.054324,36.531937
40716,NaN,-1.789454,12.206948,-0.863255,1.604231,4.614836,1.548258,1.135615,1.007317,3.208661,0.745391,0.544802,0.373545,0.089704,81.760720,27.331135,37.495194
40717,NaN,-1.703821,13.141468,-1.090704,1.571250,4.823366,2.477072,1.189277,1.077118,3.271241,0.738486,0.554882,0.369082,0.102582,82.883804,25.548882,38.456289
40718,NaN,-1.677268,13.961755,-1.107777,1.575688,4.741017,3.377800,1.197293,1.134715,3.329389,0.731215,0.564793,0.364608,0.115731,83.971661,23.733695,39.404566
40719,NaN,-1.717675,14.571719,-1.095453,1.470226,4.468840,4.127497,1.161845,1.200337,3.388120,0.723585,0.574538,0.359994,0.129363,85.016660,21.859013,40.347227
40720,NaN,-1.876924,14.916370,-0.864946,1.343605,3.841229,4.684978,1.137182,1.240340,3.456898,0.715697,0.583990,0.355246,0.143297,86.003696,19.945608,41.269356
40721,NaN,-2.349298,15.123841,-0.548842,1.010483,2.876130,5.194965,1.134177,1.262434,3.524599,0.707405,0.593411,0.350169,0.157553,86.957483,17.964975,42.161405
40722,NaN,-2.822884,15.363862,-0.247730,0.669958,1.891780,5.679910,1.160537,1.240223,3.577440,0.698814,0.602710,0.344816,0.171760,87.873000,15.954998,42.998206
40723,NaN,-3.322087,15.429723,0.051062,0.275141,0.815317,5.946240,1.146373,1.167994,3.616283,0.690023,0.611945,0.338866,0.185906,88.737681,13.893755,43.751068
40724,NaN,-3.595578,15.279192,0.270545,-0.048065,-0.100202,5.884839,1.098442,1.062359,3.630572,0.681334,0.620804,0.332410,0.199723,89.519291,11.828770,44.406031
40725,NaN,-3.652182,14.950513,0.467195,-0.256081,-0.867223,5.557031,1.048546,0.945945,3.621566,0.672681,0.629445,0.325326,0.213218,90.237031,9.744957,44.959058
40726,NaN,-3.532204,14.425817,0.532337,-0.443047,-1.400931,4.975121,0.990115,0.828811,3.586386,0.664252,0.637635,0.317858,0.226179,90.880265,7.691308,45.417600
40727,NaN,-3.432894,13.848805,0.567238,-0.654272,-1.886129,4.325466,0.933626,0.731936,3.538990,0.655912,0.645527,0.309959,0.238744,91.471777,5.645877,45.794352
40728,NaN,-3.293775,13.200215,0.605114,-0.816461,-2.292250,3.585811,0.901199,0.658962,3.468811,0.647714,0.652989,0.301985,0.250752,92.020194,3.653579,46.110777
40729,NaN,-3.159676,12.787138,0.625624,-0.951515,-2.637868,3.071575,0.909950,0.602919,3.382502,0.639409,0.660282,0.293944,0.262260,92.566060,1.694408,46.375027
40730,NaN,-3.059732,12.502491,0.558281,-1.142634,-2.909674,2.685229,0.905609,0.562349,3.285937,0.631170,0.667196,0.286076,0.273194,93.094319,-0.196114,46.602567
40731,NaN,-2.819803,12.275274,0.436304,-1.259044,-3.018111,2.357573,0.884558,0.550110,3.183343,0.622916,0.673786,0.278322,0.283768,93.608655,-2.043322,46.806881
40732,NaN,-2.603177,11.934008,0.339379,-1.360288,-3.119930,1.922523,0.821612,0.575418,3.075916,0.614883,0.679745,0.270922,0.294050,94.075069,-3.818007,47.016797
40733,NaN,-2.449710,11.495944,0.236457,-1.495001,-3.219466,1.394583,0.740485,0.634733,2.951545,0.607017,0.685087,0.263866,0.304237,94.491185,-5.538549,47.250187
40734,NaN,-2.340452,11.121055,0.209100,-1.583177,-3.369255,0.926575,0.708052,0.719790,2.813678,0.599276,0.689802,0.257503,0.314219,94.872254,-7.173120,47.530221
40735,NaN,-2.343109,10.849864,0.193874,-1.719967,-3.596266,0.548188,0.691289,0.800632,2.696677,0.591489,0.694091,0.251634,0.324128,95.234232,-8.758543,47.850495
40736,NaN,-2.365800,10.673611,0.248859,-1.802293,-3.875142,0.252732,0.661178,0.869114,2.583824,0.583837,0.697845,0.246329,0.333869,95.559854,-10.273399,48.210901
40737,NaN,-2.620716,10.484395,0.410358,-1.940451,-4.371104,-0.113164,0.623504,0.909744,2.459803,0.576314,0.701181,0.241402,0.343412,95.853857,-11.732389,48.592935
40738,NaN,-2.698660,10.359696,0.451148,-2.037893,-4.650613,-0.377503,0.630118,0.948650,2.321704,0.568907,0.704137,0.237104,0.352587,96.133027,-13.106259,49.003199
40739,NaN,-2.769097,10.374628,0.438844,-2.164038,-4.911614,-0.502415,0.643456,0.995539,2.192117,0.561492,0.706817,0.233325,0.361519,96.406248,-14.420462,49.442404
40740,NaN,-2.639316,10.433621,0.275460,-2.271675,-4.931640,-0.516663,0.612006,1.064754,2.046868,0.554329,0.708973,0.230218,0.370238,96.636499,-15.649073,49.931097
40741,NaN,-2.633588,10.267282,0.105732,-2.438430,-4.965790,-0.770834,0.514992,1.145665,1.902755,0.547572,0.710477,0.227587,0.378934,96.788180,-16.810501,50.474343
40742,NaN,-2.658739,9.811018,0.020485,-2.523335,-4.965861,-1.310024,0.421338,1.216276,1.765545,0.541297,0.711318,0.225479,0.387536,96.857591,-17.891851,51.072401
40743,NaN,-2.739599,9.359477,-0.011853,-2.587500,-5.015999,-1.859865,0.386414,1.275988,1.643259,0.535222,0.711752,0.223834,0.396037,96.883781,-18.914552,51.715961
40744,NaN,-2.907215,9.137556,0.099472,-2.593594,-5.269857,-2.232691,0.421733,1.286073,1.530346,0.529207,0.712033,0.222703,0.404167,96.911675,-19.867667,52.378883
40745,NaN,-3.153073,9.041066,0.322289,-2.549850,-5.675827,-2.527920,0.443445,1.261507,1.430478,0.523268,0.712258,0.221855,0.411898,96.945082,-20.767414,53.036218
40746,NaN,-3.360643,9.013763,0.630770,-2.405332,-6.111815,-2.755915,0.439220,1.210578,1.327117,0.517590,0.712379,0.221242,0.419128,96.972318,-21.600367,53.674848
40747,NaN,-3.586704,9.004896,0.881042,-2.306213,-6.522799,-2.967123,0.456246,1.152313,1.208334,0.512107,0.712491,0.220901,0.425801,97.011092,-22.365162,54.288742
40748,NaN,-3.584465,9.123083,0.844863,-2.324218,-6.645343,-2.940365,0.501247,1.092731,1.094690,0.506752,0.712657,0.220911,0.431881,97.077139,-23.058553,54.877988
40749,NaN,-3.460996,9.135261,0.790590,-2.276191,-6.622008,-2.955339,0.490701,1.044689,1.002679,0.501648,0.712759,0.221083,0.437546,97.139547,-23.698138,55.446222
40750,NaN,-3.492155,9.054761,0.871910,-2.181639,-6.740750,-3.123458,0.457729,1.007113,0.893214,0.496922,0.712696,0.221474,0.442811,97.182211,-24.271983,56.002078
40751,NaN,-3.764746,8.996387,0.968987,-2.195353,-7.048258,-3.366850,0.446681,0.913420,0.804095,0.492516,0.712681,0.221919,0.447511,97.234303,-24.788342,56.508389
40752,NaN,-4.211652,9.036407,1.227965,-2.163537,-7.601777,-3.613186,0.467888,0.749186,0.735281,0.488350,0.712984,0.222241,0.451418,97.335339,-25.254783,56.918369
40753,NaN,-4.606743,9.154157,1.526964,-2.076162,-8.160313,-3.775272,0.487789,0.509697,0.670691,0.484523,0.713776,0.222262,0.454270,97.506684,-25.665229,57.183866
40754,NaN,-4.837620,9.239333,1.782376,-1.943749,-8.551288,-3.893111,0.513368,0.235117,0.600969,0.481046,0.715169,0.221905,0.455944,97.765078,-26.018525,57.280462
40755,NaN,-4.821388,9.316395,1.901110,-1.815301,-8.677419,-3.891386,0.512791,-0.023302,0.519114,0.478061,0.717034,0.221243,0.456477,98.090803,-26.300801,57.220528
40756,NaN,-4.597816,9.278413,1.909043,-1.677758,-8.535803,-3.879882,0.483481,-0.234024,0.413769,0.475626,0.719199,0.220357,0.456043,98.457380,-26.510221,57.033441
40757,NaN,-4.307199,9.111481,1.848441,-1.559154,-8.243671,-3.930634,0.422795,-0.383291,0.290032,0.473885,0.721393,0.219461,0.454821,98.824952,-26.628931,56.764151
40758,NaN,-4.240617,8.856202,1.723630,-1.601354,-8.038365,-4.137626,0.356603,-0.488260,0.145032,0.472788,0.723526,0.218646,0.452964,99.181136,-26.661329,56.439699
40759,NaN,-4.235400,8.641371,1.536345,-1.736085,-7.854734,-4.311649,0.308335,-0.601249,0.002065,0.472354,0.725606,0.218021,0.450383,99.531525,-26.591972,56.061487
40760,NaN,-4.259642,8.450138,1.406952,-1.841843,-7.722385,-4.474028,0.287820,-0.741992,-0.142922,0.472422,0.727816,0.217489,0.446990,99.905242,-26.433588,55.607974
40761,NaN,-4.161636,8.404855,1.416710,-1.782774,-7.625962,-4.461588,0.316191,-0.905418,-0.280914,0.472920,0.730256,0.217194,0.442606,100.327049,-26.167675,55.072876
40762,NaN,-4.114129,8.838039,1.542239,-1.696016,-7.839860,-4.061551,0.398670,-1.082630,-0.412853,0.473530,0.733153,0.217074,0.437189,100.838194,-25.815312,54.442264
40763,NaN,-4.072394,9.615150,1.870974,-1.465005,-8.312311,-3.386554,0.433408,-1.258650,-0.540499,0.474529,0.736302,0.217145,0.430732,101.397793,-25.354305,53.727797
40764,NaN,-3.973772,10.245203,2.082650,-1.284067,-8.610148,-2.790666,0.348406,-1.392423,-0.695574,0.476224,0.739370,0.217200,0.423518,101.931866,-24.796765,52.953682
40765,NaN,-3.635193,10.450368,2.215232,-1.000299,-8.484489,-2.440817,0.168691,-1.458450,-0.873792,0.479082,0.741851,0.217443,0.415760,102.351739,-24.111749,52.176704
40766,NaN,-3.295575,10.113536,2.151559,-0.837506,-7.997782,-2.525240,-0.053644,-1.464752,-1.050531,0.483020,0.743616,0.217764,0.407805,102.630395,-23.336629,51.423544
40767,NaN,-3.265877,9.574924,2.152376,-0.785946,-7.664770,-2.912671,-0.216040,-1.466292,-1.253071,0.488028,0.744642,0.218575,0.399452,102.783915,-22.430126,50.710966
40768,NaN,-3.345264,9.114983,1.957353,-0.965280,-7.329112,-3.220598,-0.303565,-1.504585,-1.461531,0.493675,0.745289,0.219779,0.390546,102.879903,-21.416243,50.005081
40769,NaN,-3.343900,9.030973,1.673990,-1.183165,-7.029589,-3.124991,-0.307315,-1.593068,-1.649655,0.499845,0.745726,0.221528,0.380754,102.958733,-20.268295,49.285306
40770,NaN,-3.248057,9.525966,1.388309,-1.355927,-6.877373,-2.458657,-0.243124,-1.698148,-1.831799,0.506060,0.746285,0.223685,0.370036,103.079878,-19.020591,48.529544
40771,NaN,-3.179543,10.715889,1.042259,-1.582575,-6.940402,-1.132343,-0.163883,-1.804758,-1.990138,0.512421,0.746854,0.226374,0.358315,103.229114,-17.651143,47.748447
40772,NaN,-3.064428,12.293610,0.592716,-1.815887,-6.996752,0.609250,-0.163488,-1.895465,-2.132030,0.518923,0.747363,0.229213,0.345874,103.378013,-16.206498,46.937292
40773,NaN,-2.790894,13.761873,-0.036802,-2.012766,-6.707704,2.358009,-0.273385,-1.950026,-2.272702,0.526153,0.747265,0.232302,0.332857,103.432264,-14.655869,46.129326
40774,NaN,-2.672625,14.796500,-0.484116,-2.119805,-6.408351,3.631286,-0.492298,-1.984835,-2.404236,0.534212,0.746409,0.235263,0.319598,103.350725,-13.046453,45.318267
40775,NaN,-2.904290,15.518133,-1.088036,-2.547226,-6.056133,4.583455,-0.715386,-2.047821,-2.534297,0.543375,0.744603,0.238231,0.305869,103.108916,-11.338460,44.495821
40776,NaN,-3.043574,16.133354,-1.863787,-3.005449,-5.414007,5.505811,-0.827982,-2.140538,-2.628103,0.552920,0.742406,0.240944,0.291649,102.799304,-9.590098,43.623398
40777,NaN,-2.970397,16.878503,-2.450857,-3.132424,-4.707204,6.549425,-0.897591,-2.268651,-2.642715,0.562863,0.739836,0.243290,0.276835,102.420629,-7.801788,42.680139
40778,NaN,-2.856142,17.696911,-2.730688,-2.979500,-4.138429,7.587356,-1.044589,-2.385843,-2.653356,0.573180,0.736866,0.244947,0.261713,101.951545,-6.021262,41.657115
40779,NaN,-2.765054,18.019761,-3.003164,-2.845554,-3.396569,8.123556,-1.300544,-2.470261,-2.681926,0.584514,0.732848,0.246156,0.246342,101.294015,-4.203473,40.580866
40780,NaN,-2.661839,17.771862,-3.196676,-2.692708,-2.544102,8.058630,-1.560203,-2.527462,-2.698128,0.596522,0.727956,0.246727,0.231014,100.471640,-2.405997,39.448333
40781,NaN,-2.436703,17.254809,-3.148401,-2.322869,-1.728092,7.656155,-1.753253,-2.576653,-2.689494,0.609177,0.722122,0.246905,0.215595,99.488766,-0.604782,38.264804
40782,NaN,-2.180782,16.724566,-2.879087,-1.808708,-1.093031,7.165412,-1.860971,-2.596822,-2.680102,0.621831,0.715812,0.246652,0.200253,98.422888,1.149644,37.033483
40783,NaN,-1.902059,16.332591,-2.466824,-1.187335,-0.603709,6.759882,-1.958345,-2.590108,-2.677208,0.634689,0.708742,0.246311,0.184896,97.245964,2.898947,35.774199
40784,NaN,-1.623381,15.926695,-2.136275,-0.629981,-0.094520,6.324919,-2.053339,-2.557183,-2.671359,0.647414,0.701167,0.245746,0.169790,95.991893,4.594109,34.491626
40785,NaN,-1.342126,15.515690,-1.766702,-0.058424,0.349108,5.855926,-2.123022,-2.464452,-2.671810,0.660117,0.692828,0.245416,0.154938,94.644084,6.275844,33.223077
40786,NaN,-1.023508,15.012804,-1.347098,0.544268,0.715071,5.267540,-2.169355,-2.331626,-2.664405,0.672386,0.684083,0.245251,0.140640,93.254595,7.896668,31.984873
40787,NaN,-0.910270,14.532473,-0.952916,0.951761,0.946161,4.716763,-2.193473,-2.152125,-2.665329,0.684364,0.674688,0.245666,0.126847,91.807705,9.502195,30.806646
40788,NaN,-1.174663,14.184307,-0.628421,1.008843,1.004541,4.361952,-2.191910,-1.960524,-2.669846,0.695696,0.665047,0.246557,0.113709,90.359334,11.058638,29.693163
40789,NaN,-1.665526,13.831520,-0.840421,0.600594,1.400625,4.059862,-2.138289,-1.718924,-2.672535,0.706412,0.655043,0.248320,0.101183,88.913113,12.607697,28.675230
40790,NaN,-1.850600,13.692357,-1.087596,0.478159,1.971788,3.896858,-2.052970,-1.460351,-2.659948,0.716148,0.645147,0.250822,0.089479,87.532849,14.110727,27.765294
40791,NaN,-1.794581,13.687082,-1.251848,0.638037,2.586266,3.789104,-2.000782,-1.169908,-2.664762,0.725237,0.634937,0.254401,0.078531,86.173470,15.621309,26.982865
40792,NaN,-1.756655,13.527937,-1.511641,0.708049,3.228089,3.507799,-2.027243,-0.876225,-2.673988,0.733700,0.624462,0.258904,0.068561,84.835346,17.114892,26.333966
40793,NaN,-1.896952,13.194494,-1.797178,0.571263,3.764525,3.087215,-2.016362,-0.651179,-2.667459,0.741725,0.613620,0.264213,0.059216,83.497192,18.619071,25.776155
40794,NaN,-1.974444,12.859638,-2.031914,0.500265,4.245316,2.641573,-1.960180,-0.484316,-2.633625,0.749028,0.602959,0.269904,0.050485,82.216956,20.087272,25.283041
40795,NaN,-1.950065,12.686271,-2.084554,0.631028,4.621993,2.324615,-1.890202,-0.372980,-2.582027,0.755853,0.592291,0.275868,0.042109,80.958487,21.539998,24.819483
40796,NaN,-2.078505,12.587080,-2.066906,0.674893,4.870442,2.138744,-1.837567,-0.303767,-2.520664,0.762125,0.581890,0.281786,0.034152,79.741742,22.939979,24.369836
40797,NaN,-2.362246,12.519700,-2.037163,0.596204,5.051008,2.044468,-1.825220,-0.303247,-2.455609,0.768250,0.571345,0.287511,0.026356,78.492819,24.308141,23.886751
40798,NaN,-2.686181,12.344147,-2.022277,0.435707,5.183653,1.875370,-1.849945,-0.382702,-2.377577,0.774283,0.560835,0.292575,0.018724,77.204716,25.598963,23.331018
40799,NaN,-2.861851,12.005895,-2.205854,0.243951,5.475532,1.463164,-1.860309,-0.505024,-2.313224,0.780415,0.550127,0.296973,0.010950,75.836349,26.838464,22.665158
40800,NaN,-2.789530,11.711029,-2.254128,0.319300,5.731502,1.006175,-1.831826,-0.643169,-2.238978,0.786419,0.539658,0.300506,0.003100,74.436117,27.988967,21.889846
40801,NaN,-2.654641,11.522552,-2.365186,0.438302,6.085628,0.587947,-1.797437,-0.761997,-2.157927,0.792402,0.529207,0.303340,-0.004859,72.978788,29.070033,21.009501
40802,NaN,-2.486783,11.391155,-2.546540,0.558924,6.509679,0.173765,-1.778132,-0.842238,-2.096895,0.798226,0.518935,0.305579,-0.012762,71.495708,30.071941,20.055957
40803,NaN,-2.264038,11.403681,-2.674931,0.791476,6.954108,-0.151964,-1.748766,-0.860684,-2.039294,0.803897,0.508648,0.307577,-0.020576,69.981233,31.027671,19.058723
40804,NaN,-2.144544,11.648232,-2.771761,1.031095,7.437146,-0.242978,-1.719541,-0.853600,-1.989367,0.809276,0.498570,0.309366,-0.028160,68.472694,31.924733,18.044427
40805,NaN,-1.918446,11.827011,-2.668012,1.426048,7.747925,-0.399746,-1.753490,-0.856814,-1.940947,0.814640,0.488232,0.311009,-0.035545,66.903783,32.781030,16.997658
40806,NaN,-1.770958,11.760511,-2.365756,1.753112,7.743881,-0.647959,-1.839097,-0.862989,-1.891180,0.820033,0.477629,0.312419,-0.042556,65.271167,33.575759,15.928332
40807,NaN,-1.756263,11.364725,-2.451600,1.658025,7.839210,-1.208004,-1.896080,-0.844421,-1.864448,0.825411,0.466659,0.313830,-0.049354,63.572558,34.342629,14.836704
40808,NaN,-1.548749,10.891730,-2.512544,1.687750,7.884194,-1.918107,-1.870011,-0.804794,-1.813734,0.830489,0.455884,0.315181,-0.055844,61.891123,35.059441,13.754142
40809,NaN,-1.240170,10.547987,-2.717061,1.769575,8.100004,-2.641061,-1.782484,-0.711630,-1.759779,0.835112,0.445429,0.316749,-0.062057,60.263343,35.755404,12.708710
40810,NaN,-0.921601,10.407267,-2.766986,2.002238,8.278516,-3.159266,-1.697484,-0.566073,-1.709014,0.839171,0.435455,0.318701,-0.067826,58.727794,36.438557,11.742449
40811,NaN,-0.706100,10.219257,-2.853470,2.110423,8.412755,-3.661226,-1.632060,-0.391351,-1.671979,0.842714,0.425754,0.321265,-0.073180,57.266492,37.141291,10.862184
40812,NaN,-0.595102,9.956327,-3.030642,2.054791,8.528116,-4.181354,-1.558979,-0.189916,-1.645302,0.845658,0.416475,0.324522,-0.078073,55.908017,37.872155,10.087663
40813,NaN,-0.509094,9.770919,-3.209209,2.002292,8.665896,-4.624392,-1.416540,0.017930,-1.596540,0.847892,0.407870,0.328486,-0.082570,54.690162,38.637909,9.427031
40814,NaN,-0.161833,9.775106,-3.291665,2.269006,8.864663,-5.050300,-1.218213,0.248086,-1.534119,0.849272,0.400298,0.333157,-0.086629,53.671089,39.437537,8.907172
40815,NaN,0.249016,9.941212,-3.301900,2.679425,9.104073,-5.371235,-1.009549,0.507856,-1.424468,0.849773,0.393851,0.338611,-0.090056,52.879970,40.272398,8.567971
40816,NaN,0.466260,10.205932,-3.231333,3.018119,9.314159,-5.458882,-0.821680,0.769601,-1.328150,0.849436,0.388471,0.344856,-0.092855,52.315130,41.148312,8.414041
40817,NaN,0.266566,10.275885,-2.982206,3.051863,9.209632,-5.293178,-0.699444,0.999097,-1.217461,0.848447,0.383879,0.351794,-0.094949,51.937978,42.055864,8.439643
40818,NaN,-0.120864,10.157001,-2.683358,2.895018,8.914588,-5.066335,-0.588584,1.176199,-1.085453,0.846941,0.380045,0.359135,-0.096325,51.736159,42.964769,8.630635
40819,NaN,-0.412845,9.884388,-2.327990,2.776630,8.474357,-4.937620,-0.436360,1.309528,-0.913653,0.844917,0.377219,0.366627,-0.096984,51.742097,43.844769,8.990897
40820,NaN,-0.704952,9.757326,-1.976387,2.726287,8.126282,-4.700037,-0.277730,1.393635,-0.721612,0.842488,0.375414,0.374000,-0.096960,51.947571,44.666702,9.504230
40821,NaN,-0.868979,9.578417,-1.637354,2.741698,7.754122,-4.564951,-0.172065,1.456457,-0.542527,0.839762,0.374431,0.381233,-0.096245,52.325731,45.427575,10.163853
40822,NaN,-1.047147,9.230903,-1.352159,2.642736,7.291686,-4.522917,-0.124427,1.513841,-0.384658,0.836878,0.373918,0.388359,-0.094854,52.826153,46.133291,10.952694
40823,NaN,-1.307024,8.789026,-1.126495,2.410606,6.784866,-4.485508,-0.094686,1.568581,-0.208574,0.833843,0.373924,0.395348,-0.092660,53.463405,46.770166,11.891289
40824,NaN,-1.629264,8.343693,-1.045332,2.049651,6.356893,-4.450484,-0.041774,1.602038,-0.036222,0.830691,0.374434,0.402103,-0.089799,54.223864,47.332168,12.954207
40825,NaN,-1.721918,7.821711,-1.088595,1.729713,5.983305,-4.661257,0.006268,1.574751,0.132086,0.827503,0.375507,0.408381,-0.086357,55.092816,47.793528,14.110200
40826,NaN,-1.606646,7.269922,-1.272367,1.437964,5.713979,-5.086751,0.036716,1.531822,0.319465,0.824400,0.376986,0.414093,-0.082301,56.033043,48.142717,15.339123
40827,NaN,-1.506449,6.663820,-1.376828,1.150823,5.345446,-5.491455,0.096398,1.466685,0.514038,0.821322,0.379135,0.419114,-0.077655,57.070165,48.360398,16.637728
40828,NaN,-1.349905,6.261986,-1.501998,0.972168,5.142552,-5.825294,0.234514,1.386123,0.717474,0.818206,0.382152,0.423346,-0.072640,58.209424,48.442218,17.972968
40829,NaN,-1.153725,6.151108,-1.555505,0.989829,5.097345,-5.988623,0.424588,1.291019,0.942303,0.814927,0.386444,0.426654,-0.067249,59.496250,48.362115,19.350064
40830,NaN,-1.104647,6.455892,-1.467770,1.187562,5.204255,-5.743585,0.645972,1.200245,1.163713,0.811458,0.391969,0.429065,-0.061634,60.907730,48.129408,20.737412
40831,NaN,-1.062265,7.265651,-1.639431,1.434455,5.814067,-5.258227,0.924016,1.153691,1.357957,0.807496,0.399079,0.430772,-0.055873,62.508267,47.756024,22.160620
40832,NaN,-1.068093,8.613791,-1.892002,1.830523,6.798082,-4.395120,1.165040,1.125033,1.587415,0.803121,0.407513,0.431799,-0.049794,64.251333,47.236104,23.610816
40833,NaN,-1.069181,9.989184,-1.964880,2.348746,7.624989,-3.399769,1.269566,1.090810,1.838622,0.798515,0.416942,0.432075,-0.042950,66.075899,46.539768,25.092790
40834,NaN,-1.064840,11.074049,-1.970939,2.768338,8.166984,-2.513207,1.277164,1.078081,2.100220,0.793884,0.426794,0.431695,-0.035143,67.890307,45.678331,26.586133
40835,NaN,-1.184462,11.864544,-1.891599,3.012303,8.372160,-1.653540,1.264878,1.092588,2.366066,0.789092,0.437202,0.430702,-0.026162,69.714852,44.636160,28.114171
40836,NaN,-1.297402,12.433032,-1.775500,3.160289,8.366404,-0.900957,1.298324,1.123073,2.662875,0.784065,0.448173,0.429097,-0.016063,71.537864,43.415076,29.657556
40837,NaN,-1.587637,12.915871,-1.524890,3.216675,8.088256,-0.020753,1.350224,1.150118,2.992010,0.778619,0.460055,0.426708,-0.004658,73.388794,41.972346,31.220539
40838,NaN,-2.101117,13.220329,-1.238905,3.047373,7.526959,0.900117,1.401508,1.137871,3.310569,0.772887,0.472541,0.423426,0.007789,75.192912,40.327867,32.731915
40839,NaN,-2.668477,13.355771,-0.926678,2.758313,6.749626,1.727050,1.450769,1.086737,3.605797,0.766778,0.485797,0.419049,0.021218,76.950326,38.463789,34.162196
40840,NaN,-3.092033,13.290148,-0.757600,2.359740,5.965660,2.252831,1.523338,1.017274,3.888193,0.760338,0.499585,0.413585,0.035330,78.624573,36.414895,35.469623
40841,NaN,-3.244041,13.220490,-0.487916,2.178756,5.174731,2.596458,1.601306,0.942716,4.133014,0.753372,0.514085,0.406987,0.050084,80.246526,34.175595,36.655811
40842,NaN,-3.225030,13.365961,-0.284498,2.122982,4.577439,2.979308,1.718895,0.879751,4.352725,0.745841,0.529073,0.399447,0.065160,81.811952,31.796122,37.709965
40843,NaN,-3.162536,13.660838,-0.159049,2.072337,4.070057,3.444212,1.823641,0.825684,4.536368,0.737561,0.544664,0.390956,0.080611,83.352186,29.268074,38.646609
40844,NaN,-3.067439,13.969587,-0.004961,2.043658,3.518094,3.897190,1.870195,0.763138,4.693361,0.728824,0.560272,0.381638,0.096247,84.807223,26.643931,39.450436
40845,NaN,-3.068396,14.116986,0.090196,1.835602,2.849667,4.229218,1.883653,0.677550,4.826602,0.719575,0.575991,0.371316,0.112122,86.191835,23.904722,40.119491
40846,NaN,-3.184672,14.233722,0.261165,1.567700,2.018296,4.547939,1.927138,0.552864,4.944951,0.709951,0.591611,0.360038,0.127821,87.497461,21.098850,40.628516
40847,NaN,-3.479577,14.513058,0.525659,1.250201,1.006346,5.032581,1.998870,0.365672,5.041205,0.699780,0.607488,0.347518,0.143169,88.770719,18.205432,40.950591
40848,NaN,-3.776871,15.010585,0.650580,0.857175,0.096257,5.653438,2.083104,0.137475,5.097405,0.689280,0.623327,0.333906,0.157684,90.003479,15.291597,41.063719
40849,NaN,-3.867726,15.491538,0.738292,0.547306,-0.721158,6.143745,2.117138,-0.128154,5.107614,0.678483,0.639165,0.319034,0.171309,91.209994,12.352679,40.954936
40850,NaN,-3.776653,15.568969,0.827832,0.272137,-1.492888,6.155240,2.056361,-0.371123,5.068982,0.667886,0.654327,0.303251,0.183913,92.336257,9.462145,40.645561
40851,NaN,-3.759935,15.285556,0.960682,-0.097544,-2.351142,5.779353,1.977155,-0.579022,4.981909,0.657345,0.668921,0.286673,0.195605,93.420909,6.615051,40.163941
40852,NaN,-3.822400,14.959092,1.094083,-0.522070,-3.198168,5.320950,1.945397,-0.758207,4.860907,0.646919,0.682814,0.269763,0.206129,94.484609,3.872359,39.534800
40853,NaN,-4.019287,14.731800,1.220421,-1.032678,-4.073431,4.916879,1.937304,-0.941888,4.726251,0.636357,0.696328,0.252436,0.215529,95.578858,1.210243,38.755900
40854,NaN,-4.068816,14.703508,1.143480,-1.525054,-4.656383,4.678715,1.967283,-1.102114,4.562595,0.625753,0.709333,0.235122,0.223600,96.713429,-1.315453,37.847287
40855,NaN,-3.873505,14.808254,1.048593,-1.814905,-5.060970,4.555203,1.970194,-1.225376,4.376687,0.614991,0.721917,0.217853,0.230568,97.905431,-3.723840,36.827189
40856,NaN,-3.330152,14.782691,0.780424,-1.912452,-5.074616,4.356927,1.954524,-1.245601,4.170124,0.604286,0.733726,0.201203,0.236647,99.121797,-5.975298,35.763193
40857,NaN,-2.821677,14.711128,0.654424,-1.923898,-5.192603,4.119563,1.878599,-1.162461,3.964725,0.593589,0.744688,0.185280,0.242410,100.344955,-8.110300,34.710616
40858,NaN,-2.486631,14.506067,0.659597,-1.967510,-5.446150,3.732877,1.766931,-0.978080,3.734240,0.583231,0.754436,0.170617,0.248109,101.517110,-10.098880,33.742036
40859,NaN,-2.355410,14.123008,0.750033,-2.092273,-5.790293,3.134866,1.666714,-0.741216,3.508621,0.572985,0.763163,0.157226,0.254069,102.653048,-11.982677,32.885629
40860,NaN,-2.431088,13.794882,1.088167,-2.212377,-6.398238,2.497438,1.575592,-0.494462,3.284125,0.563066,0.770785,0.145297,0.260261,103.723334,-13.744152,32.162116
40861,NaN,-2.705236,13.492286,1.596917,-2.366932,-7.200537,1.782212,1.507087,-0.267732,3.039066,0.553299,0.777563,0.134751,0.266642,104.753904,-15.399465,31.561404
40862,NaN,-3.119129,13.197763,2.077656,-2.614518,-7.994302,1.025516,1.407500,-0.067203,2.796542,0.544048,0.783363,0.125599,0.273090,105.699522,-16.929461,31.084548
40863,NaN,-3.534964,12.703772,2.406257,-2.889270,-8.538682,0.107129,1.324402,0.089114,2.525284,0.535194,0.788430,0.117736,0.279434,106.586513,-18.336973,30.709569
40864,NaN,-3.501929,12.116008,2.464337,-2.890864,-8.558925,-0.674151,1.274357,0.238513,2.223563,0.526851,0.792779,0.111427,0.285506,107.406066,-19.589341,30.454137
40865,NaN,-3.177336,11.537104,2.422556,-2.669012,-8.326914,-1.292056,1.270385,0.384521,1.959853,0.518673,0.796681,0.106478,0.291445,108.197338,-20.727466,30.308117
40866,NaN,-3.084584,11.236975,2.632066,-2.489075,-8.487427,-1.783072,1.280242,0.486387,1.709845,0.510763,0.800183,0.102836,0.297074,108.955749,-21.738936,30.257018
40867,NaN,-3.239315,11.214360,2.806421,-2.535568,-8.841990,-2.097992,1.285388,0.507819,1.467852,0.503072,0.803484,0.100176,0.302153,109.706532,-22.628792,30.249853
40868,NaN,-3.382532,11.284574,3.322860,-2.361282,-9.472703,-2.429417,1.267084,0.454852,1.275969,0.495776,0.806616,0.098154,0.306501,110.441306,-23.398981,30.243670
40869,NaN,-3.830972,11.423322,4.049089,-2.296660,-10.412507,-2.894217,1.186492,0.382917,1.097078,0.489039,0.809529,0.096517,0.310142,111.139900,-24.062737,30.221996
40870,NaN,-4.506792,11.227247,4.605041,-2.450615,-11.134800,-3.682707,1.033988,0.275785,0.917783,0.483257,0.812079,0.095129,0.312955,111.758875,-24.604041,30.173023
40871,NaN,-5.167897,10.554162,4.759666,-2.760661,-11.279150,-4.722533,0.866502,0.116395,0.748490,0.478455,0.814371,0.093762,0.314785,112.309739,-25.022951,30.063177
40872,NaN,-5.487527,9.800090,4.673455,-2.940567,-11.019626,-5.579997,0.778133,-0.074092,0.586605,0.474364,0.816640,0.092471,0.315477,112.840644,-25.311106,29.878099
40873,NaN,-5.599237,9.349767,4.514217,-3.052986,-10.753232,-6.045151,0.726203,-0.256938,0.423370,0.470815,0.818983,0.091327,0.315054,113.372462,-25.470817,29.623531
40874,NaN,-5.576481,9.133806,4.264781,-3.154472,-10.474514,-6.200848,0.632967,-0.407597,0.251464,0.467981,0.821250,0.090386,0.313645,113.870612,-25.503367,29.323453
40875,NaN,-5.251851,8.998596,3.903073,-3.100682,-10.016364,-6.091300,0.517158,-0.522556,0.074440,0.465960,0.823325,0.089731,0.311392,114.309461,-25.412543,29.003463
40876,NaN,-4.790534,8.915573,3.608399,-2.904664,-9.567992,-5.879034,0.394904,-0.598928,-0.101826,0.464729,0.825152,0.089421,0.308471,114.677906,-25.211313,28.685787
40877,NaN,-4.354555,9.150569,3.519546,-2.644924,-9.447060,-5.472216,0.291140,-0.647951,-0.266702,0.464227,0.826713,0.089537,0.304994,114.974430,-24.907454,28.387833
40878,NaN,-4.010496,9.816507,3.540277,-2.442958,-9.677383,-4.776655,0.187972,-0.678043,-0.429545,0.464375,0.828010,0.090077,0.301068,115.201929,-24.513980,28.116475
40879,NaN,-3.530281,10.711822,3.461810,-2.206279,-9.895352,-3.779089,0.029319,-0.669770,-0.572456,0.465430,0.828822,0.091018,0.296893,115.312398,-24.042735,27.893477
40880,NaN,-2.967556,11.198159,3.285940,-1.895099,-9.765388,-3.026834,-0.242733,-0.595827,-0.717196,0.467736,0.828831,0.092294,0.292822,115.237963,-23.519537,27.748948
40881,NaN,-2.533816,11.020686,3.099626,-1.605763,-9.293894,-2.846531,-0.556640,-0.452807,-0.878425,0.471562,0.827766,0.094151,0.289082,114.926608,-22.941364,27.730547
40882,NaN,-2.479036,10.323534,2.859432,-1.592025,-8.645381,-3.208268,-0.848261,-0.282667,-1.064167,0.476702,0.825679,0.096711,0.285755,114.401849,-22.313820,27.847756
40883,NaN,-2.595147,9.587941,2.613357,-1.713885,-8.036048,-3.650284,-1.047359,-0.155321,-1.263205,0.482936,0.822749,0.100155,0.282534,113.712219,-21.602949,28.083952
40884,NaN,-2.683623,9.208624,2.251438,-1.911785,-7.511941,-3.731357,-1.154846,-0.098010,-1.463039,0.489751,0.819357,0.104351,0.279123,112.947793,-20.805106,28.385571
40885,NaN,-2.591216,9.340508,1.961942,-1.961251,-7.205991,-3.329444,-1.207277,-0.082095,-1.661317,0.497089,0.815580,0.109371,0.275263,112.132327,-19.892908,28.734301
40886,NaN,-2.461073,9.889856,1.708650,-1.981779,-7.087593,-2.558744,-1.261538,-0.097916,-1.857458,0.504781,0.811538,0.115008,0.270877,111.295430,-18.877521,29.097110
40887,NaN,-2.438180,10.604970,1.407743,-2.106447,-7.017224,-1.645232,-1.313101,-0.131018,-2.050993,0.512991,0.807129,0.121323,0.265827,110.422406,-17.736351,29.469783
40888,NaN,-2.455511,11.486574,1.023509,-2.293784,-6.928547,-0.552864,-1.355768,-0.186636,-2.235494,0.521473,0.802500,0.128102,0.260096,109.547950,-16.490176,29.823136
40889,NaN,-2.529262,12.429297,0.616088,-2.507573,-6.813918,0.605393,-1.373728,-0.292069,-2.395381,0.530310,0.797645,0.135267,0.253449,108.672212,-15.120906,30.131315
40890,NaN,-2.674007,13.511363,0.431458,-2.626985,-6.903454,1.820085,-1.377445,-0.440686,-2.519489,0.539209,0.792789,0.142433,0.245871,107.834740,-13.664977,30.350833
40891,NaN,-2.898898,14.649215,0.164895,-2.816229,-6.916073,3.119828,-1.418794,-0.608611,-2.639044,0.548529,0.787689,0.149611,0.237233,106.987518,-12.098839,30.478713
40892,NaN,-3.037652,15.784934,-0.090579,-2.884503,-6.816288,4.456007,-1.510228,-0.782412,-2.737484,0.558208,0.782351,0.156480,0.227696,106.125064,-10.461740,30.496390
40893,NaN,-3.201608,16.606978,-0.284717,-2.902722,-6.580267,5.496481,-1.694277,-0.955650,-2.786330,0.568762,0.776356,0.162882,0.217373,105.162984,-8.756463,30.402694
40894,NaN,-3.396011,16.972020,-0.457120,-2.923682,-6.161997,6.100891,-1.903105,-1.119007,-2.835939,0.580021,0.769751,0.168656,0.206431,104.107936,-7.016402,30.190810
40895,NaN,-3.523199,17.306250,-0.615291,-2.870156,-5.642222,6.685486,-2.064529,-1.259858,-2.890820,0.592003,0.762418,0.174090,0.194795,102.950188,-5.215743,29.878297
40896,NaN,-3.287351,17.692667,-0.834639,-2.518594,-4.849549,7.352184,-2.186327,-1.344857,-2.941066,0.604228,0.754578,0.179199,0.182779,101.733360,-3.398982,29.484307
40897,NaN,-2.832534,17.956868,-0.999089,-1.933276,-3.907050,7.862857,-2.353015,-1.349937,-2.980974,0.617012,0.745796,0.184303,0.170636,100.394495,-1.552086,29.055175
40898,NaN,-2.495998,17.916605,-1.019180,-1.390904,-3.053512,7.990928,-2.557350,-1.277014,-3.043479,0.630156,0.736057,0.189528,0.158754,98.940173,0.295669,28.626105
40899,NaN,-2.328750,17.617397,-1.085531,-1.034701,-2.175253,7.826017,-2.725196,-1.150196,-3.119352,0.643700,0.725166,0.195296,0.147118,97.360124,2.180842,28.228349
40900,NaN,-2.110899,17.119401,-1.368154,-0.757938,-1.072927,7.439227,-2.839530,-0.980493,-3.181584,0.657108,0.713497,0.201575,0.136009,95.720237,4.061685,27.876420
40901,NaN,-1.775226,16.553587,-1.419566,-0.283223,-0.137192,6.891917,-2.883598,-0.827790,-3.224156,0.670353,0.701065,0.208462,0.125213,94.029944,5.965087,27.559511
40902,NaN,-1.638942,16.239967,-1.377347,0.080752,0.568614,6.556402,-2.830174,-0.683978,-3.268481,0.682842,0.688462,0.215837,0.114726,92.379675,7.862508,27.269563
40903,NaN,-1.658570,16.166928,-1.386679,0.322092,1.228691,6.447337,-2.744706,-0.553429,-3.297912,0.694703,0.675586,0.223783,0.104371,90.755283,9.782093,26.999488
40904,NaN,-1.702536,16.103416,-1.433393,0.530017,1.884196,6.324296,-2.656607,-0.439511,-3.299308,0.705702,0.662773,0.231993,0.094319,89.191185,11.678005,26.740674
40905,NaN,-1.716124,16.157097,-1.239849,0.897820,2.340910,6.287271,-2.615773,-0.354218,-3.304865,0.716258,0.649624,0.240509,0.084371,87.624533,13.586570,26.475756
40906,NaN,-1.793419,15.976265,-1.138919,1.123543,2.805173,6.017176,-2.594585,-0.291259,-3.329142,0.726251,0.636336,0.249157,0.074546,86.073269,15.487544,26.193343
40907,NaN,-1.984326,15.498507,-1.541200,0.956469,3.594522,5.440007,-2.556225,-0.188751,-3.377136,0.735781,0.622670,0.258299,0.064724,84.519267,17.427586,25.910946
40908,NaN,-2.141196,15.279475,-1.875518,0.895545,4.341995,5.082802,-2.445210,-0.103457,-3.372289,0.744431,0.609247,0.267594,0.055080,83.034537,19.347421,25.625822
40909,NaN,-2.217171,15.265922,-2.284552,0.915349,5.209071,4.856270,-2.330874,-0.046148,-3.370438,0.752422,0.595846,0.277073,0.045375,81.583217,21.277066,25.316371
40910,NaN,-2.126574,14.994928,-2.715567,0.989163,6.055892,4.296211,-2.290105,-0.019238,-3.371374,0.759852,0.582470,0.286489,0.035737,80.146488,23.187828,24.970642
40911,NaN,-1.967670,14.440198,-2.965038,1.104241,6.646297,3.444797,-2.304112,-0.013650,-3.368781,0.767072,0.568678,0.295850,0.026067,78.653744,25.101832,24.566011
40912,NaN,-1.954344,13.603482,-3.223521,0.977437,7.028872,2.388928,-2.257970,-0.037780,-3.362766,0.773802,0.554961,0.304930,0.016335,77.157269,26.986481,24.090086
40913,NaN,-1.962981,12.923937,-3.231198,0.974492,7.182934,1.534377,-2.131533,-0.098331,-3.324826,0.780021,0.541460,0.313606,0.006323,75.660517,28.841687,23.513409
40914,NaN,-2.002463,12.466535,-3.110284,1.062378,7.248261,0.930346,-1.991251,-0.190716,-3.264550,0.785645,0.528510,0.321596,-0.003867,74.185968,30.624429,22.828153
40915,NaN,-2.054460,12.243314,-2.933606,1.238208,7.329443,0.553299,-1.871882,-0.309276,-3.199031,0.790914,0.515842,0.328872,-0.014358,72.680820,32.346045,22.007250
40916,NaN,-2.123761,12.154545,-2.771104,1.435481,7.451808,0.302425,-1.744982,-0.420075,-3.114424,0.795729,0.503734,0.335329,-0.024951,71.173920,33.972736,21.068777
40917,NaN,-2.259303,12.459162,-2.637149,1.716590,7.757092,0.392906,-1.599550,-0.526111,-3.017908,0.800157,0.492107,0.341034,-0.035710,69.650677,35.514462,20.008220
40918,NaN,-2.391112,12.888928,-2.505282,2.057409,8.128244,0.570009,-1.504880,-0.660158,-2.923624,0.804326,0.480941,0.345819,-0.046525,68.091160,36.945417,18.817906
40919,NaN,-2.270281,13.108622,-2.433348,2.477714,8.509362,0.402310,-1.531215,-0.761425,-2.852365,0.808553,0.469560,0.349964,-0.057280,66.409940,38.295816,17.502301
40920,NaN,-2.042130,12.655856,-2.446394,2.636894,8.601013,-0.358614,-1.606982,-0.827178,-2.789766,0.812838,0.457907,0.353590,-0.067746,64.608814,39.558558,16.091254
40921,NaN,-1.663546,11.939802,-2.519360,2.733216,8.583937,-1.415937,-1.621095,-0.836783,-2.724928,0.816992,0.446123,0.356962,-0.077960,62.727536,40.755226,14.613132
40922,NaN,-1.370475,11.279021,-2.513276,2.799724,8.464454,-2.335103,-1.580365,-0.820408,-2.628099,0.820830,0.434627,0.360050,-0.087762,60.834955,41.864136,13.108394
40923,NaN,-1.177852,10.661478,-2.525752,2.777233,8.321195,-3.144187,-1.548370,-0.788116,-2.556893,0.824381,0.423254,0.363032,-0.097261,58.916107,42.912898,11.574618
40924,NaN,-1.016286,10.010611,-2.631661,2.645740,8.182036,-3.963149,-1.497453,-0.724951,-2.485599,0.827541,0.412197,0.365996,-0.106378,57.012561,43.903902,10.044036
40925,NaN,-0.827727,9.509602,-2.683101,2.612802,8.059693,-4.662471,-1.394755,-0.636901,-2.389075,0.830209,0.401671,0.369006,-0.115096,55.167524,44.843023,8.543057
40926,NaN,-0.738124,9.242458,-2.777743,2.586489,8.076391,-5.147902,-1.260449,-0.534687,-2.282512,0.832317,0.391910,0.372065,-0.123377,53.424767,45.729977,7.098092
40927,NaN,-0.558363,9.205453,-2.806656,2.761710,8.179029,-5.523016,-1.115919,-0.397672,-2.158440,0.833826,0.382988,0.375312,-0.131129,51.814574,46.579721,5.744794
40928,NaN,-0.172628,9.269135,-2.847994,3.113605,8.350439,-5.987849,-0.990594,-0.229044,-2.054439,0.834728,0.374854,0.378916,-0.138333,50.345671,47.416576,4.503727
40929,NaN,0.195514,9.378083,-2.910657,3.452423,8.545675,-6.420429,-0.906160,-0.010044,-1.912739,0.835049,0.367447,0.383070,-0.144680,49.040335,48.252794,3.434221
40930,NaN,0.446679,9.224647,-3.032817,3.526823,8.582897,-6.917128,-0.865366,0.230848,-1.800558,0.834830,0.360559,0.387947,-0.150177,47.879494,49.115920,2.540388
40931,NaN,0.631972,8.910786,-3.062950,3.501806,8.427654,-7.385123,-0.819369,0.490886,-1.681038,0.834024,0.354271,0.393625,-0.154775,46.891463,50.018292,1.848698
40932,NaN,0.702824,8.481912,-2.984380,3.381476,8.101921,-7.747170,-0.743340,0.734013,-1.536228,0.832649,0.348725,0.399963,-0.158479,46.100928,50.949286,1.367824
40933,NaN,0.646305,7.937667,-2.902520,3.105993,7.682199,-8.028124,-0.624756,0.959223,-1.363031,0.830676,0.344200,0.406808,-0.161281,45.561259,51.894623,1.123751
40934,NaN,0.660317,7.603859,-2.850444,2.963469,7.426165,-8.247684,-0.436583,1.168445,-1.138869,0.828081,0.341023,0.413955,-0.163175,45.335816,52.832243,1.146918
40935,NaN,0.723267,7.645704,-2.638792,3.146085,7.319897,-8.242892,-0.167372,1.347837,-0.865997,0.824810,0.339693,0.421129,-0.164159,45.519149,53.729194,1.482761
40936,NaN,0.616132,8.071299,-2.334128,3.499604,7.414469,-7.875663,0.064640,1.492261,-0.564814,0.821047,0.340007,0.428172,-0.164154,46.091540,54.560235,2.135420
40937,NaN,0.381687,8.439645,-1.848630,3.860984,7.331460,-7.336154,0.157097,1.588248,-0.278127,0.817089,0.341424,0.435012,-0.162969,46.977111,55.302685,3.094249
40938,NaN,-0.116067,8.465545,-1.479589,3.814528,7.069227,-6.755981,0.150605,1.644055,-0.011570,0.813198,0.343364,0.441608,-0.160602,48.071504,55.946837,4.307922
40939,NaN,-0.689268,8.121962,-1.109216,3.520906,6.526303,-6.251490,0.131154,1.654860,0.262133,0.809465,0.345878,0.447752,-0.157014,49.372301,56.459348,5.769084
40940,NaN,-1.236482,7.649919,-0.944023,3.044907,6.020926,-5.886116,0.130388,1.620493,0.534690,0.805981,0.348882,0.453264,-0.152404,50.826430,56.823296,7.412945
40941,NaN,-1.625215,7.134530,-0.802663,2.615390,5.493499,-5.669285,0.160037,1.552921,0.800373,0.802725,0.352603,0.457970,-0.146856,52.440739,57.014938,9.216038
40942,NaN,-1.886220,6.777203,-0.825293,2.237828,5.187582,-5.540715,0.242721,1.462814,1.072873,0.799682,0.357113,0.461751,-0.140591,54.180762,57.026400,11.116873
40943,NaN,-1.855922,6.640873,-0.910393,2.094334,5.096047,-5.567995,0.384014,1.377046,1.345702,0.796686,0.362802,0.464544,-0.133657,56.087904,56.842893,13.115634
40944,NaN,-1.761252,6.845956,-0.912980,2.220037,5.184345,-5.454358,0.545185,1.273027,1.631324,0.793765,0.369612,0.466264,-0.126179,58.102047,56.458280,15.145173
40945,NaN,-1.589478,7.386109,-0.879219,2.584231,5.476947,-5.210896,0.704256,1.177545,1.919399,0.790835,0.377699,0.466895,-0.118040,60.226532,55.857086,17.202381
40946,NaN,-1.400536,8.208210,-1.035033,2.974703,6.083305,-4.858057,0.847000,1.094822,2.193497,0.787887,0.386802,0.466544,-0.109337,62.388296,55.059933,19.229765
40947,NaN,-1.271165,8.987255,-1.102979,3.348825,6.563391,-4.399262,0.906412,1.012131,2.460287,0.784998,0.396731,0.465210,-0.099809,64.537922,54.054152,21.215349
40948,NaN,-1.306089,9.731936,-1.154056,3.602919,6.946180,-3.770299,0.963629,0.955488,2.738036,0.782119,0.407332,0.462997,-0.089467,66.638808,52.856281,23.135002
40949,NaN,-1.299884,10.483043,-1.458516,3.691854,7.482671,-3.173375,1.096005,0.936550,3.028726,0.778918,0.419100,0.459911,-0.078252,68.769837,51.449351,25.021880
40950,NaN,-1.151072,11.508102,-1.509063,4.136301,7.998569,-2.400732,1.220792,0.910806,3.385262,0.775435,0.431942,0.455814,-0.066024,70.883902,49.813336,26.843139
40951,NaN,-1.267935,12.507587,-1.437420,4.451141,8.263471,-1.327765,1.317615,0.872691,3.758212,0.771630,0.445930,0.450524,-0.052564,72.964759,47.915229,28.585506
40952,NaN,-1.542457,13.303007,-1.364645,4.518092,8.270467,-0.201847,1.366184,0.829509,4.119096,0.767589,0.460607,0.444080,-0.037958,74.934150,45.783457,30.202800
40953,NaN,-1.837834,13.826385,-1.222808,4.426719,7.967803,0.813854,1.438467,0.804822,4.449867,0.763061,0.476152,0.436491,-0.022209,76.829200,43.415774,31.707713
40954,NaN,-2.094952,14.366071,-1.080096,4.310216,7.595290,1.833236,1.556067,0.827613,4.767643,0.757813,0.492451,0.427997,-0.005508,78.668545,40.852062,33.110362
40955,NaN,-2.477605,15.068695,-0.905379,4.143649,7.116025,3.077583,1.700273,0.871847,5.071291,0.751559,0.509713,0.418573,0.012223,80.495950,38.075838,34.429716
40956,NaN,-2.865704,15.867100,-0.584850,4.035774,6.438339,4.417882,1.805264,0.909870,5.339140,0.744401,0.527426,0.408342,0.030752,82.258805,35.134797,35.639925
40957,NaN,-3.270179,16.665365,-0.175584,3.893465,5.537617,5.761354,1.880014,0.935409,5.559390,0.736279,0.545521,0.397231,0.050068,83.958576,32.027028,36.738689
40958,NaN,-3.545288,17.371140,0.111381,3.650855,4.628087,6.905378,1.892661,0.925935,5.715097,0.727486,0.563375,0.385363,0.069782,85.534846,28.820359,37.696434
40959,NaN,-3.763670,17.794091,0.469481,3.327552,3.483847,7.728718,1.864716,0.894698,5.836112,0.718048,0.580941,0.372599,0.089917,86.992392,25.506583,38.516592
40960,NaN,-3.888264,18.034110,0.517709,2.768847,2.512471,8.257399,1.818082,0.845033,5.886473,0.708178,0.597794,0.359199,0.110007,88.314723,22.162185,39.194305
40961,NaN,-3.867365,18.029363,0.505493,2.178259,1.574201,8.433929,1.771954,0.772443,5.888368,0.697834,0.614047,0.345090,0.129946,89.532920,18.786624,39.733658
40962,NaN,-3.843134,17.878520,0.351433,1.460933,0.727890,8.401763,1.720502,0.682664,5.846022,0.687227,0.629427,0.330509,0.149345,90.643730,15.442248,40.135788
40963,NaN,-3.972097,17.739873,0.297113,0.702779,-0.267655,8.350558,1.679926,0.563985,5.762631,0.676308,0.644123,0.315370,0.168092,91.682486,12.124158,40.398095
40964,NaN,-3.954686,17.686740,0.265555,0.098107,-1.141899,8.273853,1.630272,0.403774,5.626348,0.665380,0.657914,0.299884,0.185713,92.643241,8.899873,40.508060
40965,NaN,-3.864774,17.515459,0.169232,-0.495956,-1.892609,8.015426,1.590513,0.233132,5.459400,0.654372,0.671007,0.284014,0.202195,93.562845,5.759443,40.469961
40966,NaN,-3.574679,17.370552,0.062697,-0.910413,-2.449995,7.726059,1.570302,0.089335,5.278598,0.643370,0.683320,0.268114,0.217400,94.457111,2.744699,40.307900
40967,NaN,-3.267658,17.222469,0.110191,-1.184067,-3.066005,7.404430,1.502556,0.038028,5.074630,0.632356,0.694767,0.252401,0.231773,95.325497,-0.162868,40.079401
40968,NaN,-3.049969,16.813286,0.042861,-1.578233,-3.564701,6.822556,1.369864,0.087753,4.838794,0.621657,0.704908,0.237417,0.245519,96.123010,-2.920615,39.851824
40969,NaN,-3.226304,16.008467,-0.185952,-2.340711,-4.059368,5.830433,1.216904,0.246306,4.578148,0.611194,0.713706,0.223443,0.259109,96.843992,-5.550391,39.692899
40970,NaN,-3.858316,15.076470,0.149369,-3.016128,-5.131202,4.565861,1.074442,0.375457,4.303103,0.601192,0.721161,0.210614,0.272281,97.477333,-8.017589,39.597477
40971,NaN,-5.095361,14.408015,0.841568,-3.848613,-6.787298,3.353524,0.993993,0.386554,4.009192,0.591531,0.727763,0.198605,0.284621,98.073361,-10.329614,39.502275
40972,NaN,-6.406587,13.875658,1.202864,-4.881048,-8.164541,2.208641,0.940244,0.272486,3.684884,0.582465,0.733710,0.187349,0.295475,98.649368,-12.435262,39.345906
40973,NaN,-6.129668,13.186350,1.090557,-4.949954,-8.079914,1.270310,0.966541,0.078939,3.393980,0.573664,0.739537,0.176516,0.304690,99.275869,-14.367354,39.077767
40974,NaN,-4.464661,12.444612,0.809363,-4.025366,-6.953217,0.717721,1.131605,-0.054110,3.151431,0.564623,0.745571,0.166453,0.312439,100.021673,-16.136343,38.731772
40975,NaN,-3.768317,12.411096,0.920827,-3.593688,-6.897596,0.607435,1.240192,-0.001800,2.787247,0.555513,0.751365,0.157976,0.319219,100.831120,-17.709102,38.426175
40976,NaN,-3.256188,12.425638,0.764452,-3.439797,-6.757334,0.583446,1.275948,0.062383,2.412330,0.546745,0.756672,0.151156,0.325069,101.646627,-19.065799,38.178768
40977,NaN,-3.259085,12.293860,0.764473,-3.516839,-6.963274,0.261114,1.263213,0.071519,2.119103,0.538363,0.761603,0.145385,0.330134,102.456650,-20.262560,37.949980
40978,NaN,-3.305868,11.820435,0.629257,-3.642267,-6.935061,-0.342736,1.250198,0.018487,1.862304,0.530458,0.766271,0.140447,0.334243,103.265664,-21.299235,37.706688
40979,NaN,-3.010139,11.179625,0.588980,-3.403250,-6.679197,-0.969994,1.298915,-0.001400,1.638972,0.522659,0.770872,0.136345,0.337630,104.108177,-22.210802,37.464887
40980,NaN,-2.931601,10.825587,0.699575,-3.240114,-6.743182,-1.427928,1.336080,0.034809,1.429647,0.515023,0.775269,0.133225,0.340529,104.957667,-23.002783,37.263022
40981,NaN,-3.215051,10.648000,0.991396,-3.226843,-7.191451,-1.902794,1.344470,0.079394,1.233107,0.507589,0.779424,0.130960,0.343075,105.798547,-23.694136,37.105470
40982,NaN,-3.517024,10.561972,1.495051,-3.081193,-7.817146,-2.359145,1.332893,0.108507,1.084903,0.500419,0.783329,0.129340,0.345322,106.619250,-24.302444,36.980950
40983,NaN,-3.924758,10.559622,2.098947,-2.942591,-8.589360,-2.821545,1.319451,0.140289,0.956656,0.493451,0.787014,0.128253,0.347369,107.421245,-24.846901,36.888354
40984,NaN,-4.355957,10.740082,2.770084,-2.788503,-9.488651,-3.165575,1.257462,0.158118,0.847630,0.486891,0.790389,0.127540,0.349223,108.177098,-25.331067,36.819924
40985,NaN,-4.843802,10.630151,3.368484,-2.677342,-10.204997,-3.771422,1.113617,0.157320,0.733727,0.481065,0.793303,0.127009,0.350878,108.844834,-25.753872,36.766718
40986,NaN,-5.085589,10.281441,3.770108,-2.487436,-10.507770,-4.410571,0.947302,0.180319,0.586013,0.476133,0.795650,0.126830,0.352353,109.399801,-26.099023,36.753358
40987,NaN,-5.047118,9.644743,3.777079,-2.324954,-10.222877,-5.032815,0.807413,0.229067,0.429440,0.471991,0.797454,0.127140,0.353732,109.847774,-26.369134,36.799776
40988,NaN,-5.058357,9.081153,3.675839,-2.280545,-9.911824,-5.555890,0.695915,0.288610,0.265311,0.468535,0.798773,0.128046,0.355022,110.201206,-26.562659,36.915689
40989,NaN,-5.085885,8.724239,3.418238,-2.379803,-9.603024,-5.840164,0.606372,0.317299,0.099549,0.465718,0.799706,0.129525,0.356090,110.477610,-26.672460,37.085567
40990,NaN,-4.955852,8.496622,3.139637,-2.398045,-9.256974,-5.918092,0.516898,0.291171,-0.047935,0.463521,0.800381,0.131368,0.356764,110.696519,-26.699496,37.271742
40991,NaN,-4.707500,8.372494,2.821183,-2.375434,-8.870101,-5.825624,0.462143,0.214582,-0.187333,0.461858,0.800956,0.133504,0.356838,110.888013,-26.634883,37.444917
40992,NaN,-4.485413,8.513052,2.662414,-2.293906,-8.737221,-5.560841,0.411291,0.119335,-0.316818,0.460670,0.801502,0.135835,0.356267,111.065353,-26.483955,37.589559
40993,NaN,-4.253740,8.890560,2.682618,-2.106590,-8.834860,-5.139349,0.371259,0.005247,-0.436185,0.459956,0.802057,0.138326,0.354980,111.234808,-26.243120,37.695674
40994,NaN,-4.119616,9.369522,2.816384,-1.918265,-9.104638,-4.702232,0.270245,-0.105080,-0.556337,0.459906,0.802500,0.140847,0.353049,111.366499,-25.918359,37.762792
40995,NaN,-4.060316,9.700793,2.901863,-1.801758,-9.292552,-4.389207,0.130487,-0.206067,-0.694022,0.460758,0.802674,0.143462,0.350479,111.426437,-25.495357,37.804509
40996,NaN,-3.765886,9.877202,2.775017,-1.650980,-9.117851,-4.017843,-0.011810,-0.266849,-0.844907,0.462448,0.802523,0.146269,0.347424,111.409512,-24.982953,37.843246
40997,NaN,-3.482816,9.952155,2.708767,-1.456960,-8.916479,-3.739337,-0.202697,-0.294759,-0.995860,0.465216,0.801828,0.149307,0.344026,111.271635,-24.379552,37.901646
40998,NaN,-3.238800,9.727616,2.599193,-1.297700,-8.533986,-3.700582,-0.421842,-0.281669,-1.184263,0.469119,0.800453,0.152724,0.340408,110.994083,-23.682558,38.005299
40999,NaN,-3.060955,9.381844,2.389644,-1.246076,-8.044869,-3.744381,-0.598360,-0.272250,-1.386425,0.474089,0.798427,0.156692,0.336454,110.593485,-22.873394,38.156659
41000,NaN,-2.838232,9.145608,2.201979,-1.151827,-7.587112,-3.676479,-0.723150,-0.255033,-1.588678,0.479804,0.795889,0.161259,0.332180,110.111216,-21.963236,38.351440
41001,NaN,-2.729868,9.401601,1.996816,-1.173811,-7.407012,-3.210809,-0.773552,-0.273578,-1.795705,0.486088,0.792994,0.166538,0.327329,109.589118,-20.930532,38.571432
41002,NaN,-2.674574,10.147706,1.753022,-1.268530,-7.436345,-2.310037,-0.788608,-0.318387,-1.979560,0.492665,0.789927,0.172364,0.321848,109.068038,-19.793954,38.788648
41003,NaN,-2.636271,11.051554,1.572765,-1.313191,-7.545062,-1.274410,-0.841494,-0.389964,-2.147344,0.499776,0.786566,0.178601,0.315656,108.521793,-18.544958,38.987217
41004,NaN,-3.014278,12.034583,1.395145,-1.640327,-7.885390,-0.274063,-0.947613,-0.521046,-2.309585,0.507547,0.782918,0.184922,0.308611,107.943038,-17.188768,39.124580
41005,NaN,-3.461050,12.809362,1.140516,-2.044652,-8.068509,0.582860,-1.036880,-0.753611,-2.435503,0.516044,0.779108,0.191009,0.300340,107.345450,-15.715284,39.139127
41006,NaN,-3.846144,13.617036,1.085024,-2.256811,-8.311797,1.465685,-1.063721,-1.087686,-2.508201,0.524912,0.775541,0.196403,0.290568,106.788671,-14.152645,38.959224
41007,NaN,-4.067681,14.854892,0.952750,-2.379403,-8.501875,2.842834,-1.049200,-1.460576,-2.537710,0.534073,0.772304,0.200945,0.279166,106.279140,-12.507243,38.562248
41008,NaN,-4.192633,16.232930,0.717845,-2.469149,-8.531795,4.424365,-1.112723,-1.834189,-2.514634,0.543623,0.769284,0.204223,0.266400,105.774335,-10.826374,37.937109
41009,NaN,-3.985107,17.278547,0.299265,-2.404731,-8.020967,5.819853,-1.312208,-2.146903,-2.480940,0.554120,0.765900,0.206233,0.252619,105.163352,-9.114461,37.120227
41010,NaN,-3.711523,17.848859,-0.093845,-2.275141,-7.254429,6.756398,-1.590633,-2.355366,-2.457989,0.565619,0.761822,0.207118,0.238336,104.395534,-7.402510,36.164658
41011,NaN,-3.455054,17.946410,-0.443409,-2.146855,-6.319977,7.205660,-1.882386,-2.472214,-2.456152,0.578204,0.756724,0.207279,0.223795,103.434428,-5.681793,35.122778
41012,NaN,-3.240595,17.909607,-0.754342,-2.034544,-5.357167,7.477502,-2.114988,-2.541090,-2.431156,0.591410,0.750799,0.206763,0.209247,102.322741,-3.993423,34.009743
41013,NaN,-3.122733,17.908421,-0.886480,-1.892532,-4.561776,7.703597,-2.267338,-2.564347,-2.412357,0.605005,0.744088,0.205895,0.194703,101.085727,-2.327833,32.850412
41014,NaN,-2.863881,17.936882,-0.922769,-1.573367,-3.752820,7.912634,-2.426811,-2.557645,-2.397385,0.618834,0.736626,0.204707,0.180338,99.733097,-0.706134,31.656400
41015,NaN,-2.563227,17.846237,-0.806667,-1.141882,-3.012333,7.943748,-2.588195,-2.488717,-2.403457,0.632973,0.728197,0.203550,0.166259,98.246019,0.890683,30.463178
41016,NaN,-2.234198,17.607831,-0.745962,-0.724476,-2.195112,7.799809,-2.747032,-2.389151,-2.409433,0.647228,0.718891,0.202466,0.152639,96.643976,2.442805,29.283440
41017,NaN,-1.950093,17.179304,-0.606369,-0.322373,-1.463165,7.421426,-2.874966,-2.241900,-2.426332,0.661562,0.708636,0.201756,0.139518,94.930533,3.968793,28.143073
41018,NaN,-1.632695,16.658560,-0.708411,-0.010990,-0.530941,6.931103,-2.990882,-2.044183,-2.463719,0.675750,0.697543,0.201623,0.127056,93.134783,5.465077,27.069252
41019,NaN,-1.345181,15.964909,-1.132273,0.122405,0.639936,6.234388,-3.052865,-1.772686,-2.527891,0.689661,0.685608,0.202524,0.115297,91.278579,6.964198,26.102771
41020,NaN,-0.931167,15.698972,-1.266941,0.563778,1.561420,5.876162,-2.952752,-1.501616,-2.583088,0.702610,0.673555,0.204485,0.104152,89.477642,8.455546,25.242912
41021,NaN,-0.817592,16.272957,-1.133010,0.980098,2.139044,6.348721,-2.815637,-1.255020,-2.587256,0.714605,0.661504,0.207337,0.093611,87.739739,9.932008,24.475728
41022,NaN,-0.960656,16.467539,-1.080843,1.096520,2.666834,6.463672,-2.911518,-1.045133,-2.650473,0.726381,0.648737,0.210991,0.083628,85.948961,11.420938,23.780313
41023,NaN,-0.914720,16.121065,-1.117917,1.271256,3.289373,5.982961,-2.970852,-0.814618,-2.736358,0.737886,0.635234,0.215670,0.074081,84.114727,12.953592,23.162399
41024,NaN,-0.904971,15.815131,-1.278098,1.371670,3.985703,5.509455,-2.936742,-0.549999,-2.824169,0.748668,0.621456,0.221503,0.065009,82.314512,14.528599,22.641147
41025,NaN,-1.002843,15.719250,-1.571943,1.362376,4.780743,5.214775,-2.908028,-0.280260,-2.900713,0.758812,0.607292,0.228517,0.056405,80.534724,16.158377,22.215460
41026,NaN,-1.117457,15.519563,-1.847129,1.327566,5.505748,4.795756,-2.918561,-0.022794,-2.987675,0.768349,0.592712,0.236651,0.048265,78.770003,17.845285,21.877800
41027,NaN,-1.072125,15.172612,-2.140056,1.389767,6.236228,4.154462,-2.938491,0.220260,-3.071538,0.777371,0.577581,0.245874,0.040502,77.001331,19.601930,21.613375
41028,NaN,-1.173631,14.654194,-2.450453,1.260145,6.831917,3.371857,-2.954529,0.428645,-3.145915,0.785804,0.562040,0.255988,0.033075,75.241087,21.415798,21.403211
41029,NaN,-1.376407,14.012555,-2.699708,1.018014,7.241228,2.517510,-2.921114,0.582936,-3.199256,0.793610,0.546223,0.266755,0.025794,73.495347,23.279704,21.211612
41030,NaN,-1.562895,13.483689,-2.899852,0.817781,7.594303,1.775818,-2.836922,0.679704,-3.228983,0.800654,0.530475,0.277859,0.018554,71.793605,25.166635,21.010522
41031,NaN,-1.689525,13.121292,-2.893842,0.791914,7.811598,1.220241,-2.713026,0.713300,-3.228204,0.806972,0.514934,0.288987,0.011208,70.132048,27.056308,20.763078
41032,NaN,-1.877251,12.953484,-2.869601,0.770070,8.044632,0.874720,-2.584648,0.693205,-3.201303,0.812605,0.499760,0.299833,0.003745,68.508753,28.917339,20.446397
41033,NaN,-2.040771,12.877153,-2.677430,0.874339,8.170300,0.657079,-2.464300,0.623169,-3.130115,0.817714,0.484940,0.310100,-0.003800,66.895886,30.719289,20.036712
41034,NaN,-2.193962,12.810850,-2.429630,1.016697,8.243231,0.474738,-2.345722,0.496212,-3.031708,0.822399,0.470599,0.319479,-0.011419,65.282854,32.427041,19.511004
41035,NaN,-2.393193,12.712389,-2.175815,1.111499,8.269495,0.308025,-2.270705,0.322663,-2.907781,0.826908,0.456560,0.327740,-0.019064,63.620719,34.016311,18.845119
41036,NaN,-2.532625,12.409259,-2.023074,1.123588,8.257440,-0.064199,-2.205433,0.125832,-2.779904,0.831319,0.442856,0.334774,-0.026719,61.899388,35.469787,18.031031
41037,NaN,-2.525489,12.040998,-1.908574,1.190806,8.247748,-0.563418,-2.121662,-0.077171,-2.632555,0.835661,0.429569,0.340532,-0.034352,60.122761,36.773373,17.071684
41038,NaN,-2.518903,11.716022,-1.865738,1.214709,8.287905,-1.042639,-2.054735,-0.257082,-2.477626,0.839956,0.416694,0.345096,-0.041820,58.297387,37.921571,15.993051
41039,NaN,-2.472559,11.385800,-1.927604,1.191426,8.381468,-1.579456,-2.001429,-0.416272,-2.340523,0.844236,0.404131,0.348611,-0.049130,56.418763,38.927042,14.806902
41040,NaN,-2.390215,11.109566,-2.039681,1.170293,8.523595,-2.114320,-1.932687,-0.531704,-2.200533,0.848414,0.391991,0.351255,-0.056186,54.521839,39.796889,13.552056
41041,NaN,-2.244154,10.841229,-2.135012,1.193391,8.639936,-2.668070,-1.872978,-0.602013,-2.052539,0.852460,0.380257,0.353222,-0.062848,52.626811,40.542529,12.268631
41042,NaN,-2.060850,10.598601,-2.352651,1.170365,8.833799,-3.278231,-1.832524,-0.646544,-1.908240,0.856388,0.368867,0.354641,-0.069035,50.741271,41.174212,10.981743
41043,NaN,-1.763463,10.291156,-2.596352,1.177368,8.981567,-4.007734,-1.793637,-0.639374,-1.772033,0.860125,0.357825,0.355766,-0.074683,48.890597,41.717055,9.728287
41044,NaN,-1.372152,9.848224,-2.854065,1.179192,9.012214,-4.873042,-1.738565,-0.582804,-1.642817,0.863574,0.347211,0.356822,-0.079760,47.106934,42.196288,8.540900
41045,NaN,-0.894026,9.477845,-3.112041,1.259107,9.063632,-5.741512,-1.654279,-0.469677,-1.520230,0.866598,0.337185,0.358073,-0.084247,45.434744,42.642689,7.456166
41046,NaN,-0.425289,9.038318,-3.204111,1.387995,8.914480,-6.535405,-1.520540,-0.313843,-1.404868,0.869067,0.327960,0.359702,-0.088205,43.916513,43.083650,6.495702
41047,NaN,-0.214324,8.697735,-3.171606,1.431196,8.708970,-7.009348,-1.352658,-0.120081,-1.287573,0.870871,0.319745,0.361874,-0.091621,42.594905,43.541611,5.687254
41048,NaN,-0.185264,8.455232,-3.014546,1.449022,8.470645,-7.212761,-1.156587,0.068494,-1.159024,0.872019,0.312661,0.364541,-0.094531,41.486047,44.018100,5.033208
41049,NaN,-0.246265,8.261296,-2.684014,1.520980,8.148640,-7.205233,-0.965380,0.239976,-1.007732,0.872568,0.306773,0.367609,-0.096846,40.601785,44.503106,4.546508
41050,NaN,-0.332060,8.048554,-2.391278,1.547460,7.828311,-7.180203,-0.781039,0.394762,-0.854280,0.872593,0.302009,0.371011,-0.098599,39.929971,44.994528,4.218858
41051,NaN,-0.504792,7.885648,-2.084443,1.542734,7.529514,-7.036139,-0.608417,0.542784,-0.696608,0.872124,0.298383,0.374724,-0.099745,39.478086,45.490643,4.060726
41052,NaN,-0.666363,7.664731,-1.827196,1.496171,7.209811,-6.929854,-0.460585,0.689139,-0.547403,0.871220,0.295717,0.378768,-0.100308,39.223001,45.997225,4.064151
41053,NaN,-0.922192,7.465992,-1.599697,1.377848,6.914907,-6.740871,-0.326169,0.817884,-0.396538,0.869919,0.294013,0.383073,-0.100262,39.168305,46.505630,4.234157
41054,NaN,-1.130897,7.131628,-1.408040,1.218902,6.527810,-6.646682,-0.218746,0.914740,-0.251894,0.868336,0.293062,0.387524,-0.099662,39.277038,47.005292,4.546750
41055,NaN,-1.307986,6.606136,-1.250657,0.985239,6.001375,-6.661686,-0.159604,0.977072,-0.120025,0.866580,0.292684,0.392014,-0.098493,39.519810,47.483016,4.988764
41056,NaN,-1.472396,6.054765,-1.281740,0.633334,5.558346,-6.783722,-0.055114,1.010590,0.022492,0.864664,0.293011,0.396379,-0.096876,39.906157,47.922626,5.545181
41057,NaN,-1.492230,5.622121,-1.256416,0.461584,5.180142,-6.920184,0.101680,1.014866,0.166211,0.862546,0.294334,0.400465,-0.094922,40.471870,48.306732,6.213538
41058,NaN,-1.491595,5.412501,-1.252859,0.380566,4.990537,-6.977334,0.306537,0.998488,0.313690,0.860216,0.296780,0.404155,-0.092782,41.223711,48.624472,6.974791
41059,NaN,-1.354297,5.559081,-1.226075,0.549203,5.079045,-6.959240,0.541413,0.973707,0.453593,0.857612,0.300540,0.407409,-0.090528,42.186702,48.869385,7.829747
41060,NaN,-1.237842,6.026455,-1.395741,0.708694,5.532366,-6.865028,0.766423,0.952534,0.605490,0.854759,0.305510,0.410225,-0.088129,43.344230,49.037203,8.773863
41061,NaN,-1.093977,6.744887,-1.595365,0.969415,6.196644,-6.666822,0.969849,0.933256,0.770679,0.851648,0.311708,0.412594,-0.085445,44.703697,49.116069,9.824165
41062,NaN,-0.968682,7.653810,-1.757629,1.321804,6.973240,-6.315019,1.166353,0.932526,0.950876,0.848263,0.319048,0.414567,-0.082415,46.253517,49.105215,10.981831
41063,NaN,-0.772487,8.691439,-1.966056,1.743841,7.866960,-5.930585,1.332456,0.954061,1.156247,0.844563,0.327545,0.416197,-0.078794,48.007629,48.992692,12.279687
41064,NaN,-0.744271,9.691220,-2.010091,2.147371,8.582136,-5.313118,1.425027,0.996962,1.381917,0.840630,0.336836,0.417557,-0.074356,49.914012,48.773779,13.717886
41065,NaN,-0.770835,10.506912,-2.039368,2.441560,9.106235,-4.688399,1.485868,1.051685,1.626245,0.836440,0.346918,0.418653,-0.068890,51.972646,48.430748,15.312939
41066,NaN,-0.875160,11.016552,-2.018137,2.579631,9.322026,-4.099416,1.519774,1.117009,1.885890,0.832024,0.357600,0.419494,-0.062311,54.142708,47.955352,17.047384
41067,NaN,-1.029405,11.343342,-1.941428,2.629573,9.321443,-3.512909,1.576137,1.192694,2.165198,0.827253,0.369110,0.420046,-0.054511,56.447912,47.324942,18.929792
41068,NaN,-1.301062,11.540545,-1.817727,2.565247,9.129543,-2.867151,1.680409,1.273358,2.459306,0.822022,0.381548,0.420265,-0.045581,58.878074,46.528521,20.929617
41069,NaN,-1.651221,11.787070,-1.674109,2.466113,8.885185,-2.104170,1.805885,1.356074,2.758225,0.816186,0.395097,0.420096,-0.035483,61.439092,45.544170,23.034070
41070,NaN,-1.996810,12.178299,-1.431444,2.473944,8.606738,-1.202693,1.956101,1.418433,3.063381,0.809713,0.409713,0.419412,-0.024352,64.085798,44.359758,25.184497
41071,NaN,-2.292863,12.727304,-1.159034,2.573046,8.343063,-0.203657,2.086079,1.464980,3.353538,0.802553,0.425363,0.418124,-0.012178,66.784480,42.960422,27.344921
41072,NaN,-2.571974,13.104575,-0.927615,2.564527,7.919607,0.669676,2.114702,1.467478,3.614002,0.794992,0.441411,0.416104,0.000957,69.405327,41.357447,29.434460
41073,NaN,-2.756579,13.244265,-0.728700,2.480029,7.336049,1.302179,2.132140,1.443227,3.848821,0.787005,0.457853,0.413242,0.014971,71.927631,39.549058,31.420343
41074,NaN,-2.843416,13.410571,-0.607908,2.394128,6.805976,1.858161,2.212354,1.395662,4.085859,0.778502,0.474783,0.409438,0.029599,74.350197,37.545456,33.262869
41075,NaN,-2.793228,13.862225,-0.494302,2.470208,6.431924,2.544251,2.333639,1.325732,4.310951,0.769308,0.492427,0.404576,0.044708,76.699105,35.342029,34.945430
41076,NaN,-2.701820,14.506472,-0.559831,2.491830,6.229761,3.339570,2.431881,1.257046,4.514618,0.759482,0.510483,0.398716,0.060164,78.945236,32.970634,36.452121
41077,NaN,-2.544716,15.174366,-0.609780,2.542254,5.974380,4.147792,2.475695,1.187920,4.681372,0.749052,0.528754,0.391874,0.075987,81.077900,30.445089,37.787377
41078,NaN,-2.422461,15.503223,-0.744209,2.375772,5.546817,4.688971,2.462037,1.119913,4.830556,0.738208,0.546833,0.384104,0.092117,83.060749,27.797796,38.949149
41079,NaN,-2.467111,15.650892,-0.886599,2.007478,4.910518,5.141013,2.466784,1.043915,4.979889,0.726812,0.564884,0.375324,0.108551,84.930200,25.020482,39.946709
41080,NaN,-2.782303,15.847222,-0.824709,1.575980,3.932442,5.728730,2.528215,0.912446,5.124590,0.714854,0.582978,0.365406,0.124894,86.705642,22.135864,40.746930
41081,NaN,-3.154483,16.365960,-0.673211,1.216120,2.864841,6.572680,2.664132,0.728759,5.270458,0.702087,0.601495,0.354151,0.140907,88.449556,19.134136,41.328944
41082,NaN,-3.536675,17.281933,-0.297432,1.050633,1.606859,7.722427,2.788420,0.489647,5.376359,0.688703,0.620202,0.341532,0.156185,90.154327,16.063145,41.660813
41083,NaN,-3.807134,18.145130,0.187401,0.967986,0.201119,8.699244,2.776393,0.221216,5.418514,0.675099,0.638629,0.327504,0.170690,91.776511,12.954713,41.737287
41084,NaN,-4.100718,18.500418,0.649464,0.697895,-1.340623,9.084673,2.689097,-0.051067,5.405792,0.661655,0.656332,0.312250,0.184230,93.290175,9.867617,41.566455
41085,NaN,-4.231574,18.549554,0.825878,0.270515,-2.592024,9.049357,2.628774,-0.290728,5.329094,0.648213,0.673396,0.296090,0.196694,94.752490,6.831670,41.181455
41086,NaN,-4.064348,18.393795,0.840042,-0.078349,-3.490614,8.714766,2.583514,-0.491549,5.217925,0.634812,0.689712,0.279381,0.207982,96.186284,3.888377,40.612687
41087,NaN,-3.896515,18.184695,0.797793,-0.458813,-4.289094,8.292672,2.546345,-0.643248,5.070046,0.621330,0.705330,0.262399,0.218188,97.626144,1.047620,39.896001
41088,NaN,-3.721643,18.043021,0.806913,-0.774075,-5.064879,7.899326,2.525579,-0.762131,4.901350,0.607813,0.720188,0.245440,0.227273,99.084356,-1.661474,39.055233
41089,NaN,-3.588380,17.958596,0.843162,-1.081065,-5.844382,7.527857,2.497944,-0.862430,4.723882,0.594217,0.734352,0.228572,0.235347,100.576028,-4.244472,38.104027
41090,NaN,-3.486785,17.972489,1.028278,-1.297687,-6.725571,7.194206,2.475411,-0.949057,4.536880,0.580644,0.747779,0.211971,0.242378,102.100861,-6.680357,37.054704
41091,NaN,-3.335964,17.802595,1.335406,-1.395413,-7.581817,6.629511,2.402955,-0.988851,4.351740,0.567180,0.760380,0.195693,0.248662,103.641214,-8.984563,35.935520
41092,NaN,-3.168103,17.505288,1.784837,-1.379135,-8.435239,5.888964,2.305221,-0.959937,4.165006,0.553984,0.771987,0.179989,0.254444,105.168625,-11.153176,34.791486
41093,NaN,-3.142585,17.073326,2.342173,-1.392831,-9.329808,4.946122,2.151240,-0.863578,3.947270,0.541226,0.782444,0.165075,0.260012,106.648220,-13.191385,33.669600
41094,NaN,-3.414738,16.343577,2.694736,-1.731644,-10.022335,3.698236,2.008358,-0.703200,3.748145,0.528924,0.791730,0.151128,0.265639,108.063927,-15.115034,32.612570
41095,NaN,-3.775739,15.582494,3.016537,-2.115610,-10.613514,2.394321,1.915594,-0.573016,3.530745,0.516916,0.800106,0.138177,0.271175,109.447442,-16.922970,31.611674
41096,NaN,-4.346418,15.104698,3.368786,-2.620705,-11.350521,1.262424,1.879128,-0.490462,3.303887,0.505134,0.807789,0.126263,0.276359,110.823667,-18.597621,30.650910
41097,NaN,-4.861368,14.944740,3.893150,-2.966806,-12.251842,0.345909,1.826364,-0.474147,3.060796,0.493692,0.814897,0.115240,0.280945,112.193976,-20.126665,29.701106
41098,NaN,-5.347549,14.851109,4.491681,-3.226791,-13.157677,-0.551722,1.731362,-0.509230,2.802987,0.482896,0.821414,0.105028,0.284710,113.531407,-21.487257,28.746835
41099,NaN,-5.240622,14.354449,4.885064,-3.060236,-13.374962,-1.499812,1.542069,-0.558883,2.550498,0.473122,0.827212,0.095427,0.287697,114.784255,-22.685711,27.786259
41100,NaN,-4.981832,13.496801,5.216803,-2.738396,-13.226263,-2.618925,1.354592,-0.559262,2.276416,0.464439,0.832256,0.086679,0.290056,115.929931,-23.721277,26.864590
41101,NaN,-5.111081,12.513255,5.271490,-2.839206,-12.905202,-3.822834,1.175188,-0.558782,1.957487,0.456880,0.836616,0.078979,0.291713,116.962660,-24.578208,26.003806
41102,NaN,-4.928093,11.461256,5.184773,-2.718681,-12.260673,-4.832063,1.081317,-0.616611,1.658982,0.450126,0.840621,0.072256,0.292442,117.937198,-25.253058,25.176329
41103,NaN,-4.507990,10.610254,4.970642,-2.470086,-11.515256,-5.465275,1.050025,-0.686115,1.370251,0.443905,0.844472,0.066534,0.292214,118.887749,-25.751158,24.380779
41104,NaN,-4.034295,10.116228,4.807161,-2.173268,-10.981239,-5.761899,0.992068,-0.722962,1.072145,0.438344,0.848084,0.061902,0.291164,119.783540,-26.077972,23.646263
41105,NaN,-3.726535,9.667063,4.452910,-2.100431,-10.390068,-5.965533,0.903988,-0.723770,0.776756,0.433567,0.851361,0.058391,0.289474,120.592300,-26.248217,22.999607
41106,NaN,-3.464603,9.359144,4.178048,-2.021821,-9.949729,-6.075399,0.830122,-0.724174,0.498592,0.429483,0.854363,0.055951,0.287188,121.321573,-26.274037,22.440728
41107,NaN,-3.116144,9.271610,4.056189,-1.804117,-9.718932,-6.016267,0.721636,-0.700879,0.240462,0.426225,0.856994,0.054511,0.284467,121.942946,-26.174365,21.981619
41108,NaN,-2.814146,9.416211,4.100661,-1.555181,-9.763020,-5.854851,0.602466,-0.655157,0.009699,0.423772,0.859229,0.053983,0.281477,122.450553,-25.973364,21.626563
41109,NaN,-2.397029,9.734818,4.277082,-1.150806,-9.967298,-5.554238,0.451340,-0.548532,-0.191382,0.422232,0.860916,0.054337,0.278552,122.811780,-25.704801,21.401208
41110,NaN,-2.061114,9.889242,4.354233,-0.829289,-10.017072,-5.343333,0.214816,-0.343809,-0.362874,0.421872,0.861771,0.055525,0.276211,122.965497,-25.417576,21.344943
41111,NaN,-2.039615,9.646168,4.453236,-0.696186,-9.918024,-5.547971,-0.090547,-0.110760,-0.538552,0.423025,0.861593,0.057548,0.274582,122.861939,-25.116954,21.474811
41112,NaN,-2.172104,9.033510,4.387547,-0.724667,-9.508024,-5.985850,-0.368277,0.110849,-0.702628,0.425508,0.860477,0.060355,0.273641,122.530370,-24.806798,21.775558
41113,NaN,-2.526789,8.488687,4.178654,-1.021645,-9.110400,-6.368921,-0.612638,0.296506,-0.848006,0.429204,0.858510,0.063859,0.273252,121.996121,-24.479145,22.222528
41114,NaN,-2.715454,8.186301,3.893474,-1.247393,-8.753496,-6.441136,-0.807802,0.416310,-0.986111,0.433844,0.855898,0.067932,0.273138,121.313359,-24.117673,22.772430
41115,NaN,-2.853393,8.063026,3.633724,-1.437335,-8.502513,-6.348911,-1.014264,0.487784,-1.140370,0.439563,0.852624,0.072548,0.273044,120.478373,-23.692571,23.405336
41116,NaN,-3.048826,8.159735,3.450356,-1.659915,-8.451105,-6.124507,-1.211476,0.486042,-1.306467,0.446284,0.848812,0.077580,0.272635,119.523176,-23.177801,24.077722
41117,NaN,-3.386280,8.542081,3.353239,-1.986618,-8.669307,-5.741883,-1.372201,0.383409,-1.466205,0.453940,0.844620,0.082850,0.271462,118.485038,-22.541150,24.731763
41118,NaN,-3.562778,9.261202,3.062607,-2.314666,-8.856651,-4.909570,-1.474365,0.205194,-1.618889,0.462219,0.840298,0.088197,0.269210,117.426761,-21.771146,25.314747
41119,NaN,-3.337600,10.271413,2.535130,-2.452504,-8.828958,-3.559892,-1.552411,0.031628,-1.764784,0.471081,0.835834,0.093657,0.265881,116.352997,-20.868507,25.826296
41120,NaN,-3.039981,11.415960,1.822026,-2.621674,-8.638189,-1.977751,-1.655799,-0.090669,-1.930019,0.480539,0.831108,0.099350,0.261670,115.249006,-19.844475,26.290881
41121,NaN,-2.833813,12.491085,0.984402,-2.899284,-8.268665,-0.419105,-1.804009,-0.178542,-2.118305,0.490863,0.825874,0.105422,0.256655,114.071110,-18.689189,26.731814
41122,NaN,-2.760966,13.465420,0.188481,-3.228758,-7.843317,1.004850,-1.966675,-0.264376,-2.280404,0.501962,0.820116,0.111703,0.250933,112.826135,-17.424371,27.133335
41123,NaN,-2.750733,14.241635,-0.501911,-3.513600,-7.336702,2.206121,-2.118431,-0.393937,-2.405222,0.513838,0.813840,0.117973,0.244374,111.518887,-16.052837,27.460707
41124,NaN,-2.941614,14.896817,-0.728807,-3.702172,-7.141928,3.085524,-2.276669,-0.574003,-2.465977,0.526347,0.807146,0.123781,0.236967,110.167032,-14.609497,27.663828
41125,NaN,-3.304806,15.498360,-0.879814,-3.983446,-6.985786,3.869371,-2.417812,-0.788960,-2.550939,0.539549,0.800001,0.129183,0.228465,108.766705,-13.070120,27.728553
41126,NaN,-3.001147,16.403927,-1.358918,-3.840903,-6.311872,5.197939,-2.377424,-0.917202,-2.635679,0.552539,0.792826,0.134559,0.219138,107.417405,-11.465559,27.697528
41127,NaN,-1.945152,17.999088,-1.218710,-2.707804,-5.954021,7.111168,-2.382159,-0.876100,-2.661940,0.565416,0.785270,0.140126,0.209810,106.060212,-9.849246,27.656802
41128,NaN,-1.218968,19.255051,-1.417231,-1.979207,-5.222799,8.707799,-2.731859,-0.568883,-2.770661,0.579306,0.776079,0.146546,0.201570,104.484734,-8.226092,27.761781
41129,NaN,-0.859429,19.128645,-1.649278,-1.566820,-4.075259,8.902044,-3.279613,-0.169570,-2.958017,0.595016,0.764382,0.154258,0.194628,102.566274,-6.544070,28.066960
41130,NaN,-0.998887,18.059481,-1.847176,-1.598761,-2.891828,8.063916,-3.659940,0.252601,-3.165000,0.611683,0.750612,0.163539,0.188894,100.425570,-4.790046,28.572188
41131,NaN,-1.409843,16.862414,-1.928388,-1.834960,-1.955744,7.003885,-3.778614,0.616931,-3.335225,0.628332,0.735490,0.174386,0.183963,98.215808,-2.949876,29.231857
41132,NaN,-1.582219,15.976124,-1.757316,-1.742889,-1.268888,6.191329,-3.699205,0.927000,-3.470479,0.644080,0.719776,0.186637,0.179583,96.075527,-1.037158,30.005721
41133,NaN,-1.846528,15.524815,-1.432912,-1.632273,-0.889599,5.775119,-3.526868,1.160514,-3.584358,0.658712,0.703777,0.200106,0.175368,94.054160,0.961733,30.848332
41134,NaN,-2.247257,15.413944,-1.154067,-1.621119,-0.619011,5.708764,-3.289739,1.315574,-3.713652,0.671982,0.687872,0.214591,0.170947,92.205787,3.050911,31.716314
41135,NaN,-2.563024,15.507770,-0.751353,-1.422108,-0.437231,5.851484,-3.060982,1.363610,-3.814354,0.684107,0.672091,0.229665,0.165966,90.512399,5.229318,32.549571
41136,NaN,-2.703835,15.626225,-0.194882,-0.953183,-0.296819,6.014045,-2.867670,1.324607,-3.888589,0.695208,0.656537,0.244844,0.160302,88.958587,7.466462,33.301129
41137,NaN,-2.959445,15.599366,-0.198017,-0.868393,0.237973,6.039200,-2.678218,1.278648,-3.962736,0.705412,0.641133,0.260132,0.153867,87.524758,9.770502,33.968738
41138,NaN,-2.914583,15.556438,-0.471124,-0.679893,1.135998,5.964642,-2.490259,1.214898,-3.984385,0.714647,0.626073,0.275226,0.146844,86.213909,12.093577,34.547649
41139,NaN,-2.849794,15.339243,-0.787987,-0.529197,2.022389,5.667141,-2.316490,1.143757,-3.971926,0.723052,0.611295,0.290022,0.139287,84.999861,14.424921,35.036620
41140,NaN,-2.893859,15.093417,-1.317855,-0.612372,2.969895,5.309827,-2.194195,1.014079,-3.962281,0.730829,0.596775,0.304219,0.131146,83.848047,16.746352,35.405695
41141,NaN,-3.007214,14.629689,-1.859462,-0.816746,3.787530,4.729782,-2.061533,0.816055,-3.918585,0.738133,0.582576,0.317515,0.122271,82.732479,19.042655,35.614178
41142,NaN,-3.161681,14.146907,-2.362520,-1.059864,4.483581,4.132124,-1.890649,0.555519,-3.842111,0.744912,0.569051,0.329551,0.112620,81.660613,21.272268,35.629183
41143,NaN,-3.244807,13.875991,-2.748774,-1.153421,5.142502,3.708607,-1.707146,0.244534,-3.728855,0.751314,0.556272,0.340087,0.102122,80.604466,23.416346,35.418448
41144,NaN,-3.347737,13.776634,-3.005250,-1.155374,5.715080,3.454271,-1.555783,-0.109746,-3.608355,0.757504,0.544267,0.348873,0.090824,79.527985,25.447286,34.955902
41145,NaN,-3.425634,13.806992,-3.091243,-1.001921,6.206946,3.316260,-1.420012,-0.481408,-3.465179,0.763732,0.532983,0.355647,0.078466,78.379881,27.361075,34.181282
41146,NaN,-3.612582,13.704864,-2.705257,-0.682290,6.219488,3.188123,-1.421411,-0.893252,-3.307040,0.770254,0.521959,0.360450,0.065907,77.085477,29.109148,33.153554
41147,NaN,-3.803660,12.507420,-3.225781,-1.252477,6.422657,1.954543,-1.499435,-1.228334,-3.298956,0.777374,0.510558,0.363698,0.052393,75.566779,30.794397,31.813798
41148,NaN,-3.413961,12.526146,-3.246294,-0.758684,7.023271,1.552877,-1.147622,-1.539891,-3.129563,0.783771,0.500749,0.365357,0.038311,74.102797,32.299447,30.260596
41149,NaN,-3.619650,14.061812,-3.047046,-0.078994,7.923680,2.729591,-0.886588,-1.863922,-2.869557,0.789846,0.492317,0.364968,0.023775,72.620516,33.581876,28.452852
41150,NaN,-3.301197,15.125804,-2.896899,0.830700,8.860699,3.181719,-0.984040,-2.157346,-2.733728,0.796379,0.483644,0.363016,0.009394,70.932609,34.688138,26.438640
41151,NaN,-2.890932,15.067564,-2.807712,1.394388,9.292746,2.635184,-1.224994,-2.356813,-2.629044,0.803609,0.474024,0.359850,-0.004736,68.968618,35.651042,24.234544
41152,NaN,-2.684832,14.157411,-2.955027,1.344041,9.338983,1.471288,-1.389000,-2.481277,-2.557038,0.811135,0.463724,0.355920,-0.018457,66.815455,36.478171,21.918509
41153,NaN,-2.533396,13.300072,-2.989620,1.311689,9.258449,0.423999,-1.363108,-2.559999,-2.460891,0.818469,0.453502,0.351305,-0.032082,64.596757,37.168693,19.509197
41154,NaN,-2.248398,13.084220,-2.996887,1.617090,9.510050,-0.212655,-1.300794,-2.605748,-2.350069,0.825453,0.443581,0.346127,-0.045384,62.371349,37.711503,17.064463
41155,NaN,-1.614740,13.036700,-3.176943,2.158711,10.024224,-1.009537,-1.281285,-2.555113,-2.255118,0.832051,0.433747,0.340826,-0.058241,60.151976,38.147913,14.638688
41156,NaN,-0.769323,12.840914,-3.419133,2.770546,10.470585,-2.076509,-1.358187,-2.383488,-2.155851,0.838281,0.423692,0.335937,-0.070122,57.948418,38.509059,12.330380
41157,NaN,-0.259509,12.150061,-3.734475,2.879309,10.534803,-3.304796,-1.493132,-2.109385,-2.111052,0.844109,0.413107,0.332053,-0.081019,55.753095,38.867127,10.176873
41158,NaN,0.206759,11.225680,-3.927667,2.896882,10.288040,-4.593596,-1.550349,-1.801329,-2.100277,0.849322,0.402324,0.329379,-0.091086,53.619253,39.256256,8.190418
41159,NaN,0.602698,10.418952,-4.425474,2.740986,10.270971,-5.877201,-1.443228,-1.469053,-2.070712,0.853585,0.392100,0.327940,-0.100526,51.650218,39.693643,6.383789
41160,NaN,1.147372,9.996661,-4.769190,2.923519,10.348591,-6.923483,-1.234018,-1.116694,-2.036470,0.856716,0.382928,0.327761,-0.109441,49.912413,40.196525,4.768592
41161,NaN,2.134089,9.865822,-4.863816,3.673254,10.417852,-7.937731,-1.008942,-0.719068,-1.950849,0.858672,0.375024,0.328961,-0.117574,48.448006,40.777612,3.393292
41162,NaN,3.054102,9.801560,-4.924475,4.390788,10.459896,-8.835023,-0.833841,-0.244824,-1.826709,0.859499,0.368306,0.331808,-0.124564,47.268337,41.462741,2.316360
41163,NaN,3.593335,9.562411,-4.659499,4.862353,10.111356,-9.391195,-0.662950,0.263883,-1.705335,0.859152,0.362818,0.336495,-0.130351,46.393240,42.282676,1.563821
41164,NaN,3.611448,9.250401,-4.363290,4.896685,9.675820,-9.589497,-0.455198,0.808834,-1.580155,0.857529,0.358745,0.343118,-0.134967,45.862642,43.259537,1.157191
41165,NaN,3.103973,9.061959,-3.789341,4.725837,9.131289,-9.181972,-0.232000,1.333948,-1.438719,0.854612,0.356213,0.351570,-0.138378,45.710267,44.386619,1.118359
41166,NaN,2.190366,9.012163,-2.949329,4.478127,8.497640,-8.247043,-0.023631,1.756103,-1.302677,0.850593,0.355044,0.361387,-0.140834,45.899090,45.626145,1.395504
41167,NaN,1.239551,8.905192,-2.251036,4.137376,7.919634,-7.349497,0.067653,2.074520,-1.154218,0.845819,0.354736,0.372197,-0.142206,46.362451,46.929423,1.972288
41168,NaN,0.484658,8.494564,-1.975389,3.583463,7.420166,-6.915366,0.071997,2.322696,-0.985689,0.840579,0.354855,0.383685,-0.142445,47.040913,48.256208,2.826602
41169,NaN,0.082617,7.791695,-1.951636,2.986128,6.892685,-6.966613,0.075554,2.515707,-0.808387,0.834936,0.355438,0.395624,-0.141516,47.954646,49.573796,3.972680
41170,NaN,0.074845,7.084775,-2.023573,2.581243,6.439704,-7.330377,0.138348,2.677454,-0.612961,0.828861,0.356688,0.407753,-0.139645,49.135871,50.855921,5.398279
41171,NaN,0.024225,6.533667,-2.112808,2.206065,6.102592,-7.566607,0.265845,2.804447,-0.405723,0.822268,0.358941,0.419891,-0.136852,50.655073,52.070697,7.137391
41172,NaN,-0.202273,6.369973,-2.127351,1.969004,5.963649,-7.425076,0.477909,2.854710,-0.175877,0.815189,0.362475,0.431571,-0.133510,52.524742,53.169483,9.137493
41173,NaN,-0.461423,6.681719,-2.002756,2.059555,6.038114,-6.954703,0.723936,2.793174,0.096837,0.807794,0.367514,0.442286,-0.129562,54.749349,54.074724,11.380281
41174,NaN,-0.439571,7.443278,-1.836225,2.594895,6.404600,-6.463972,0.924898,2.618500,0.387287,0.800454,0.373787,0.451507,-0.125289,57.190006,54.734399,13.722070
41175,NaN,-0.436137,8.433387,-1.674056,3.246910,6.905421,-5.826994,1.070975,2.409017,0.696352,0.793337,0.381169,0.459179,-0.120341,59.795268,55.115517,16.152716
41176,NaN,-0.561205,9.389659,-1.659151,3.721536,7.438025,-5.116218,1.138436,2.152237,0.980468,0.786727,0.389218,0.465124,-0.115024,62.389838,55.224092,18.511027
41177,NaN,-0.818541,10.241957,-1.587285,4.098879,7.800481,-4.295879,1.161358,1.876360,1.284877,0.780732,0.397865,0.469366,-0.108890,64.930248,55.039277,20.797720
41178,NaN,-1.040753,10.944063,-1.540099,4.389949,8.048542,-3.553950,1.188714,1.588668,1.600249,0.775426,0.407111,0.471702,-0.102335,67.318902,54.573795,22.879322
41179,NaN,-1.260751,11.557791,-1.535348,4.587642,8.228775,-2.829635,1.256879,1.312720,1.928232,0.770636,0.417212,0.472260,-0.094999,69.596774,53.818451,24.802618
41180,NaN,-1.468508,12.408221,-1.468189,4.943613,8.466861,-1.929872,1.363363,1.054114,2.268346,0.766281,0.428297,0.470899,-0.087340,71.722233,52.796927,26.471024
41181,NaN,-1.819562,13.264798,-1.293633,5.260398,8.527618,-0.838666,1.400663,0.824112,2.607437,0.762324,0.440157,0.467902,-0.078691,73.704002,51.504621,27.968842
41182,NaN,-2.320759,13.719325,-1.024729,5.298056,8.167112,0.180673,1.365760,0.563494,2.936322,0.759031,0.452412,0.462994,-0.069514,75.417977,49.973916,29.163429
41183,NaN,-3.012237,13.775950,-0.835904,4.906601,7.515258,1.094856,1.352376,0.264252,3.261590,0.756304,0.465176,0.456149,-0.059525,76.901965,48.189501,30.099876
41184,NaN,-3.382156,13.581439,-0.717647,4.471209,6.835562,1.574559,1.410486,-0.055873,3.563307,0.754051,0.478553,0.447156,-0.049457,78.155813,46.194367,30.698519
41185,NaN,-3.049092,13.417353,-0.573482,4.444185,6.370266,1.558063,1.512454,-0.318226,3.850286,0.751855,0.492751,0.436341,-0.038948,79.298237,43.988502,31.082679
41186,NaN,-2.392381,13.469544,-0.548907,4.640750,6.215538,1.468020,1.667875,-0.456790,4.093451,0.749331,0.507760,0.424119,-0.028384,80.402210,41.639081,31.291366
41187,NaN,-1.826565,13.743705,-0.506894,4.894571,6.093468,1.648609,1.827965,-0.463062,4.301408,0.745994,0.523605,0.411137,-0.017223,81.575228,39.157019,31.473698
41188,NaN,-1.371036,14.148239,-0.457224,5.132965,5.941404,2.043714,1.946797,-0.369362,4.478027,0.741795,0.539903,0.397762,-0.005552,82.803507,36.591827,31.646798
41189,NaN,-1.125916,14.456603,-0.644071,5.025476,5.803735,2.503698,2.001290,-0.200882,4.606059,0.736588,0.556394,0.384465,0.007124,84.103143,33.949131,31.897152
41190,NaN,-1.071060,14.546220,-0.639322,4.781923,5.311002,2.916357,2.013875,-0.001726,4.705361,0.730556,0.572695,0.371333,0.020508,85.419110,31.269916,32.185671
41191,NaN,-1.291694,14.604989,-0.579822,4.330150,4.602699,3.428406,2.060573,0.229775,4.786495,0.723386,0.588981,0.358603,0.034910,86.801917,28.534903,32.569243
41192,NaN,-1.331293,14.863422,-0.471234,4.088900,3.956870,3.988995,2.167976,0.465920,4.881328,0.715029,0.605303,0.346186,0.049972,88.248449,25.757928,33.002553
41193,NaN,-0.390213,15.370322,-0.405962,4.627026,3.834761,4.343227,2.279273,0.801796,4.956625,0.705133,0.621695,0.334514,0.066209,89.801425,22.919026,33.570044
41194,NaN,1.089950,16.109021,-0.116702,5.782432,3.824898,4.767292,2.364408,1.802284,4.741012,0.692899,0.637142,0.326809,0.084481,91.557462,20.196286,34.643860
41195,NaN,0.181394,18.639207,2.946011,7.201466,0.515055,7.621354,2.325435,3.396057,4.445154,0.677616,0.650823,0.325305,0.106969,93.535060,17.555414,36.595728
41196,NaN,-3.051596,20.295619,2.014544,4.289507,-1.169964,10.322797,1.699889,4.130456,4.430361,0.662638,0.661279,0.325659,0.132537,95.145428,14.850675,38.851642
41197,NaN,-6.800251,19.234275,1.245583,0.355214,-3.815353,10.261965,1.065552,3.900231,4.326606,0.649472,0.669060,0.324893,0.158080,96.247991,12.150942,40.900893
41198,NaN,-7.170550,17.105467,0.611245,-1.176649,-4.498027,8.151387,0.695855,3.237515,4.365970,0.638168,0.675624,0.321263,0.181836,96.949844,9.458524,42.483065
41199,NaN,-6.359913,15.342210,0.232525,-1.563174,-4.420655,6.119955,0.678609,2.492827,4.473787,0.627487,0.682561,0.314624,0.203426,97.507469,6.727344,43.593889
41200,NaN,-5.747715,14.965506,0.022697,-1.694844,-4.484472,5.483457,0.891496,1.799082,4.504344,0.616821,0.690428,0.305745,0.222173,98.087880,4.036414,44.267099
41201,NaN,-5.256030,15.448599,-0.090022,-1.713315,-4.716418,5.713580,1.068190,1.177398,4.442490,0.606153,0.699088,0.295120,0.238241,98.724596,1.413804,44.560651
41202,NaN,-4.450949,15.961077,-0.129898,-1.471212,-4.790185,5.980548,1.114435,0.690517,4.360335,0.595866,0.707918,0.283263,0.252106,99.369577,-1.109705,44.557839
41203,NaN,-4.037305,15.975152,0.050689,-1.425346,-5.225884,5.747599,1.018730,0.357176,4.271493,0.586175,0.716450,0.270381,0.264560,99.970899,-3.560750,44.341661
41204,NaN,-4.140618,15.535622,0.174311,-1.816980,-5.859507,5.048551,0.937680,0.158768,4.149214,0.576958,0.724458,0.257206,0.275907,100.542288,-5.910371,44.006199
41205,NaN,-4.128186,15.067101,0.312563,-2.090378,-6.352438,4.308205,0.934838,0.050214,4.005485,0.567840,0.732148,0.244007,0.286317,101.134956,-8.171592,43.587641
