// General information: 
//  MT Manager version: 2019.0.1 
//  XDA version: 2019.0.1 build 2740 rev 84096 built on 2019-01-30
// Device information: 
//  DeviceId: 00B43876
//  ProductCode: MTW2-3A7G6
//  Firmware Version: 4.3.4
//  Hardware Version: 1.1.0
// Device settings: 
//  Filter Profile: human(46.1)
//  Option Flags: Orientation Smoother Disabled, AHS Disabled, ICC Disabled
// Coordinate system: ENU
PacketCounter,SampleTimeFine,Acc_X,Acc_Y,Acc_Z,FreeAcc_E,FreeAcc_N,FreeAcc_U,Gyr_X,Gyr_Y,Gyr_Z,Quat_q0,Quat_q1,Quat_q2,Quat_q3,Roll,Pitch,Yaw
40473,NaN,-0.985155,10.434991,-0.856712,1.691784,3.526455,-0.050780,-0.212823,-0.382531,0.854482,-0.652134,-0.522627,-0.510314,-0.202883,94.318994,26.969877,63.559919
40474,NaN,-0.697100,10.141162,-1.078012,1.477509,3.685893,-0.393469,-0.098406,-0.398316,0.933570,-0.652453,-0.525157,-0.506374,-0.205183,94.125050,26.440284,63.253402
40475,NaN,-1.198039,9.874798,-1.474927,0.810956,3.306021,-0.350434,-0.003168,-0.377103,0.966093,-0.652419,-0.528000,-0.502567,-0.207344,93.997821,25.900723,62.965573
40476,NaN,-1.530001,9.491239,-1.621759,0.404201,2.895820,-0.511894,0.071273,-0.353756,1.016216,-0.652052,-0.531223,-0.498700,-0.209594,93.920125,25.320036,62.689357
40477,NaN,-1.272717,9.265563,-1.543536,0.485206,2.904151,-0.802543,0.170495,-0.362199,1.073324,-0.651369,-0.534853,-0.494808,-0.211697,93.901466,24.717920,62.410630
40478,NaN,-1.204622,9.280910,-1.319903,0.680318,2.765135,-0.800535,0.223230,-0.350512,1.117990,-0.650434,-0.538790,-0.490804,-0.213897,93.917028,24.078017,62.135329
40479,NaN,-1.226545,9.260613,-1.148997,0.782325,2.562851,-0.790360,0.218535,-0.348003,1.166341,-0.649441,-0.542753,-0.486725,-0.216207,93.934533,23.422240,61.864093
40480,NaN,-1.376172,9.419468,-1.049322,0.808317,2.340621,-0.561291,0.263900,-0.324028,1.215347,-0.648172,-0.546993,-0.482546,-0.218682,93.985184,22.725097,61.603176
40481,NaN,-1.435018,9.530450,-1.001154,0.814835,2.194510,-0.410028,0.259131,-0.303311,1.276804,-0.646785,-0.551260,-0.478313,-0.221354,94.041315,22.004772,61.356467
40482,NaN,-1.269003,9.498230,-0.943185,0.888282,2.176390,-0.475166,0.216003,-0.294941,1.330027,-0.645390,-0.555543,-0.473813,-0.224377,94.076099,21.240673,61.109788
40483,NaN,-1.108823,9.144922,-3.036269,-0.966850,3.156210,-0.692351,0.234008,-0.558556,1.389539,-0.644487,-0.560228,-0.468369,-0.226743,94.067202,20.466534,60.703851
40484,NaN,-2.418175,10.473003,-1.471785,0.029403,1.534906,0.926918,0.178257,-0.682539,1.375988,-0.643983,-0.564875,-0.462393,-0.228898,94.006474,19.691098,60.222181
40485,NaN,-0.120169,10.765823,3.286642,5.149767,0.916426,0.155119,-0.296006,-0.597014,1.333149,-0.644656,-0.567699,-0.456323,-0.232176,93.699497,18.949234,59.802334
40486,NaN,-0.192931,9.126446,0.156696,2.009452,1.961604,-1.125539,0.121203,-0.520858,1.442680,-0.643782,-0.572062,-0.450560,-0.235126,93.651103,18.126305,59.424981
40487,NaN,-2.041560,8.676148,-1.504767,-0.433150,1.099556,-0.851103,0.490027,-0.342857,1.355587,-0.641541,-0.577108,-0.446112,-0.237392,93.853271,17.361389,59.162043
40488,NaN,-4.005851,10.084949,-2.244699,-1.751865,0.069059,1.128818,0.604400,-0.334814,1.206761,-0.639070,-0.582216,-0.442144,-0.239005,94.126389,16.667461,58.904247
40489,NaN,-3.731309,10.517771,-0.428254,-0.033706,-0.707648,1.332993,0.258992,-0.267715,1.203491,-0.637456,-0.586039,-0.438055,-0.241487,94.215751,15.988179,58.688821
40490,NaN,-2.240617,9.328067,-0.412821,0.424496,0.157033,-0.221151,0.239222,-0.270752,1.253802,-0.635791,-0.589954,-0.433681,-0.244220,94.295149,15.266217,58.465663
40491,NaN,-1.988518,8.862721,-1.016154,-0.090642,0.494152,-0.686838,0.396074,-0.283597,1.246683,-0.633700,-0.594277,-0.429545,-0.246476,94.464971,14.563713,58.237809
40492,NaN,-2.240921,9.190428,-0.651403,0.108706,0.034679,-0.331347,0.287629,-0.352668,1.266460,-0.631997,-0.598420,-0.424893,-0.248876,94.565079,13.839250,57.963999
40493,NaN,-1.804794,8.997714,-0.576977,0.311381,0.216607,-0.625516,0.260708,-0.302739,1.222609,-0.630324,-0.602232,-0.420563,-0.251267,94.660104,13.152276,57.724537
40494,NaN,-1.985195,8.940760,-0.576936,0.164495,-0.045534,-0.637672,0.321086,-0.138845,1.177856,-0.628126,-0.605972,-0.416858,-0.253939,94.814274,12.469429,57.579038
40495,NaN,-2.899063,8.970137,-0.690501,-0.438683,-0.834084,-0.407601,0.308475,-0.027695,1.091023,-0.625851,-0.609267,-0.413819,-0.256627,94.976870,11.845284,57.504575
40496,NaN,-3.453453,8.889289,-0.382642,-0.527069,-1.567707,-0.412906,0.214718,-0.013570,1.016627,-0.623880,-0.612138,-0.410835,-0.259375,95.088852,11.249221,57.437566
40497,NaN,-3.572698,8.786229,-0.035376,-0.360559,-1.956289,-0.538777,0.162692,-0.032982,0.999714,-0.622143,-0.614760,-0.407847,-0.262048,95.169329,10.677756,57.362520
40498,NaN,-3.877240,8.868754,0.112292,-0.428555,-2.364522,-0.435850,0.126275,-0.017257,0.946007,-0.620513,-0.617179,-0.404935,-0.264730,95.231740,10.123116,57.295792
40499,NaN,-4.505418,8.966582,0.499289,-0.467807,-3.165010,-0.288461,0.075139,0.003254,0.876365,-0.619105,-0.619203,-0.402306,-0.267296,95.268017,9.620285,57.247334
40500,NaN,-4.949464,9.066706,0.594612,-0.651170,-3.650120,-0.153085,0.106767,-0.005696,0.813499,-0.617666,-0.621246,-0.399803,-0.269629,95.322141,9.141755,57.193924
40501,NaN,-5.252389,9.226891,0.440691,-0.952692,-3.869522,0.037998,0.089684,-0.046301,0.721275,-0.616500,-0.623049,-0.397507,-0.271524,95.364281,8.730121,57.124527
40502,NaN,-5.408004,9.208304,0.361572,-1.141142,-4.016037,0.022909,0.094482,-0.062473,0.631230,-0.615447,-0.624742,-0.395375,-0.273130,95.408177,8.360035,57.047969
40503,NaN,-7.365761,9.780243,0.104664,-2.344256,-5.512707,0.865923,0.181512,-0.043040,0.513748,-0.614258,-0.626399,-0.393853,-0.274209,95.505597,8.066725,56.991183
40504,NaN,-6.689542,10.098713,0.475023,-1.649631,-5.180678,1.022382,0.086609,-0.164360,0.399041,-0.613744,-0.627731,-0.392128,-0.274786,95.538959,7.836606,56.868556
40505,NaN,-6.490686,10.465395,0.100517,-1.823700,-4.818325,1.373075,0.078730,-0.211051,0.365322,-0.613404,-0.629004,-0.390410,-0.275082,95.565999,7.637348,56.722955
40506,NaN,-5.983809,10.155450,0.156278,-1.578868,-4.472686,0.979241,0.001098,-0.177019,0.271323,-0.613360,-0.629826,-0.388936,-0.275385,95.550778,7.482628,56.600604
40507,NaN,-5.591907,9.499942,0.167781,-1.483742,-4.204842,0.270179,-0.129686,-0.114665,0.239800,-0.613657,-0.630079,-0.387619,-0.276003,95.467300,7.349545,56.517660
40508,NaN,-5.597811,8.974974,-0.009994,-1.742847,-4.143802,-0.237874,-0.187747,-0.126565,0.167092,-0.614256,-0.630039,-0.386374,-0.276506,95.348550,7.252784,56.430834
40509,NaN,-4.670243,8.783544,-0.031899,-1.306952,-3.370626,-0.544811,-0.150119,-0.236575,0.062267,-0.615095,-0.630051,-0.385213,-0.276233,95.246042,7.227130,56.287776
40510,NaN,-3.782389,9.180265,-0.124490,-0.856245,-2.553406,-0.255169,-0.125829,-0.234218,-0.042899,-0.615999,-0.629936,-0.384391,-0.275625,95.156248,7.256831,56.150691
40511,NaN,-1.690673,9.852384,-0.665890,-0.053807,-0.473525,0.194516,-0.022397,-0.258698,-0.119354,-0.616727,-0.630020,-0.383908,-0.274477,95.126365,7.335570,56.004359
40512,NaN,0.409227,10.471940,-1.682369,0.374815,1.871794,0.628349,0.073047,-0.313380,-0.052133,-0.617168,-0.630603,-0.383146,-0.273206,95.144364,7.374979,55.822256
40513,NaN,0.111158,11.087785,-1.573131,0.390982,1.605387,1.264132,-0.105764,-0.232482,-0.002338,-0.617946,-0.630616,-0.382261,-0.272660,95.067657,7.385513,55.684918
40514,NaN,-0.492873,10.552473,-1.222511,0.246574,0.893836,0.781288,-0.261514,-0.164311,-0.015798,-0.619102,-0.630033,-0.381384,-0.272611,94.904907,7.395797,55.586550
40515,NaN,-0.349634,10.163626,-1.125332,0.327785,0.953185,0.369248,-0.309995,-0.144025,-0.033369,-0.620394,-0.629232,-0.380589,-0.272637,94.717872,7.419096,55.501582
40516,NaN,-0.150437,9.806136,-1.389237,0.149253,1.267849,0.009894,-0.338404,-0.118342,-0.040567,-0.621734,-0.628299,-0.379824,-0.272802,94.514692,7.440535,55.430684
40517,NaN,-1.168959,9.469540,-1.260488,-0.388632,0.363210,-0.203085,-0.310247,-0.024388,-0.048529,-0.622816,-0.627301,-0.379446,-0.273156,94.336452,7.466637,55.415152
40518,NaN,-2.822960,9.229590,-0.268474,-0.566946,-1.552384,-0.299796,-0.358627,0.073362,-0.028653,-0.623835,-0.626064,-0.379210,-0.273996,94.136117,7.472558,55.454010
40519,NaN,-3.897165,8.319296,0.461846,-0.722493,-2.888090,-1.109314,-0.480502,0.093383,-0.005128,-0.625163,-0.624452,-0.378827,-0.275175,93.868897,7.469029,55.504422
40520,NaN,-3.498352,7.495520,0.689793,-0.446903,-2.729032,-1.986470,-0.442522,-0.001510,-0.013061,-0.626561,-0.623076,-0.378194,-0.275983,93.614568,7.469944,55.499601
40521,NaN,-1.584246,7.838659,0.014076,0.100280,-0.739972,-1.850465,-0.118557,-0.231847,-0.020041,-0.627392,-0.623013,-0.377335,-0.275415,93.530394,7.486929,55.363000
40522,NaN,0.310934,9.928288,-0.996604,0.607470,1.536385,0.032680,0.191899,-0.436662,-0.005445,-0.627623,-0.624232,-0.376189,-0.273690,93.606558,7.499527,55.107036
40523,NaN,0.390620,12.121970,-1.516242,0.528265,2.048142,2.225574,0.189333,-0.424304,-0.002294,-0.627827,-0.625427,-0.375091,-0.271994,93.684142,7.513548,54.858797
40524,NaN,-1.658652,11.703102,-0.779109,-0.096884,-0.068565,2.032420,-0.198936,-0.266755,0.023136,-0.628915,-0.625239,-0.373851,-0.271622,93.549216,7.503332,54.699674
40525,NaN,-2.893558,9.750268,0.203088,-0.291606,-1.762119,0.201868,-0.493504,-0.132430,0.142262,-0.630505,-0.624157,-0.372287,-0.272569,93.256968,7.423707,54.614807
40526,NaN,-3.011573,8.379785,0.886391,-0.021393,-2.341737,-1.176040,-0.550101,0.060023,0.226946,-0.631797,-0.622789,-0.370959,-0.274510,92.944505,7.285668,54.638022
40527,NaN,-3.027162,8.607809,0.884733,-0.043677,-2.336824,-0.948258,-0.201759,-0.006162,0.287322,-0.632037,-0.622719,-0.369736,-0.275766,92.828498,7.118637,54.622543
40528,NaN,-1.111759,9.953860,-0.148394,0.340938,-0.103655,0.197821,-0.065870,-0.216698,0.330352,-0.632187,-0.623443,-0.367876,-0.276270,92.773161,6.929952,54.484145
40529,NaN,0.483408,10.759305,-1.415925,0.303423,1.958095,0.867898,0.043312,-0.335339,0.321877,-0.632218,-0.624660,-0.365840,-0.276155,92.774992,6.752243,54.278309
40530,NaN,-0.346455,10.539949,-0.954593,0.150271,0.979245,0.729618,-0.107327,-0.252317,0.324030,-0.632566,-0.625286,-0.363825,-0.276601,92.694591,6.567722,54.119839
40531,NaN,-2.186255,9.240307,-0.215417,-0.496083,-1.035933,-0.384539,-0.261268,-0.163071,0.324521,-0.633224,-0.625300,-0.361902,-0.277585,92.534472,6.383429,54.013817
40532,NaN,-1.973575,9.066001,0.412563,0.078802,-1.260061,-0.611411,-0.150451,-0.162799,0.349988,-0.633502,-0.625708,-0.360027,-0.278470,92.436147,6.181216,53.907194
40533,NaN,-0.960709,9.507759,0.182515,0.505355,-0.307341,-0.273095,0.084900,-0.211815,0.361699,-0.633108,-0.626947,-0.358310,-0.278793,92.472092,5.976543,53.772795
40534,NaN,-0.655858,9.547871,-0.502281,0.126694,0.314854,-0.235161,0.152707,-0.232688,0.301355,-0.632625,-0.628318,-0.356786,-0.278757,92.544007,5.804140,53.627246
40535,NaN,-0.460119,10.129287,-0.521103,0.279554,0.484018,0.325025,0.190271,-0.251428,0.258250,-0.632110,-0.629755,-0.355413,-0.278437,92.639086,5.660026,53.472345
40536,NaN,-0.421739,10.167524,-0.427299,0.374988,0.429641,0.356565,0.103648,-0.266613,0.306167,-0.631830,-0.631021,-0.353694,-0.278395,92.681819,5.486045,53.306776
40537,NaN,-0.745449,9.810194,-0.225178,0.295996,0.003509,0.023907,0.042807,-0.232105,0.333677,-0.631634,-0.632094,-0.351936,-0.278633,92.694160,5.298502,53.160793
40538,NaN,-0.975709,9.859681,0.207313,0.487668,-0.467244,0.074276,0.021105,-0.138072,0.361496,-0.631305,-0.633013,-0.350330,-0.279315,92.697241,5.089408,53.067597
40539,NaN,-1.355062,9.644207,-0.066840,-0.001188,-0.642791,-0.094762,-0.018371,-0.113112,0.405537,-0.630989,-0.633848,-0.348632,-0.280262,92.681359,4.857542,52.988127
40540,NaN,-0.653112,9.845630,-0.467230,0.094266,0.133192,0.064282,0.047845,-0.204776,0.420614,-0.630603,-0.635040,-0.346663,-0.280870,92.697084,4.616523,52.855174
40541,NaN,0.018466,10.057586,-0.652659,0.348372,0.752934,0.231861,0.033903,-0.242233,0.393798,-0.630355,-0.636194,-0.344665,-0.281276,92.706001,4.394880,52.701898
40542,NaN,0.211872,10.239097,-0.813029,0.335081,0.977691,0.408700,0.056582,-0.300491,0.349460,-0.630199,-0.637419,-0.342629,-0.281338,92.723855,4.197118,52.515913
40543,NaN,-0.023127,9.904067,-0.145778,0.672705,0.346740,0.063520,-0.044677,-0.212449,0.346750,-0.630211,-0.638195,-0.340759,-0.281822,92.690150,4.001610,52.381064
40544,NaN,-0.302730,9.678005,-0.417654,0.246662,0.260670,-0.127597,-0.002083,-0.184829,0.347069,-0.630041,-0.639064,-0.339008,-0.282345,92.680247,3.801790,52.261654
40545,NaN,-0.013434,10.179331,-0.514652,0.365020,0.535491,0.359026,-0.019407,-0.127961,0.311782,-0.629873,-0.639737,-0.337549,-0.282944,92.665139,3.623957,52.176378
40546,NaN,0.112435,9.834771,-0.977504,0.031434,0.889769,0.030998,-0.028559,-0.188027,0.290823,-0.629867,-0.640428,-0.335928,-0.283322,92.640848,3.456231,52.056778
40547,NaN,0.227770,9.751472,-0.725255,0.276877,0.803977,-0.068664,-0.022117,-0.230638,0.271112,-0.629935,-0.641165,-0.334270,-0.283467,92.621282,3.304315,51.913863
40548,NaN,-0.018513,9.991012,-0.663146,0.174194,0.557626,0.183266,-0.019518,-0.213384,0.245774,-0.630001,-0.641842,-0.332723,-0.283605,92.602233,3.162753,51.781018
40549,NaN,-0.216429,10.015560,-0.128793,0.453946,0.055339,0.195594,-0.069117,-0.166187,0.240359,-0.630152,-0.642285,-0.331299,-0.283937,92.558496,3.026650,51.676017
40550,NaN,-0.364993,9.540045,-0.438765,0.068006,0.110167,-0.256464,-0.037601,-0.196209,0.229962,-0.630267,-0.642852,-0.329829,-0.284110,92.530280,2.893455,51.553608
40551,NaN,-0.233588,9.931501,-0.041842,0.469081,-0.044947,0.110464,-0.021581,-0.198803,0.226092,-0.630336,-0.643464,-0.328413,-0.284211,92.513368,2.766234,51.430439
40552,NaN,-0.813909,9.537222,-0.092827,0.024549,-0.486136,-0.252735,-0.040568,-0.221911,0.236962,-0.630489,-0.644066,-0.326833,-0.284327,92.483299,2.629560,51.293271
40553,NaN,0.141020,9.918164,-0.206091,0.541561,0.315894,0.088789,0.021432,-0.244549,0.221506,-0.630498,-0.644868,-0.325347,-0.284196,92.490430,2.506026,51.144109
40554,NaN,0.709871,10.052933,-0.067423,1.000216,0.654387,0.194372,-0.027140,-0.158176,0.215207,-0.630532,-0.645383,-0.324056,-0.284425,92.470205,2.380192,51.044087
40555,NaN,0.186883,9.832899,-0.168163,0.564908,0.296186,0.002720,-0.057557,-0.113718,0.195835,-0.630617,-0.645705,-0.322952,-0.284761,92.435781,2.268057,50.970608
40556,NaN,-0.029604,9.681163,-0.442335,0.192743,0.287164,-0.127554,-0.005150,-0.146527,0.189161,-0.630596,-0.646229,-0.321811,-0.284911,92.428789,2.156551,50.877986
40557,NaN,0.053388,9.856608,0.004997,0.589907,0.055599,0.026240,-0.003102,-0.122121,0.173861,-0.630548,-0.646698,-0.320828,-0.285062,92.425689,2.057166,50.800289
40558,NaN,0.156923,9.685457,-0.505608,0.242448,0.443447,-0.125950,0.063777,-0.117302,0.158957,-0.630299,-0.647347,-0.319973,-0.285100,92.459108,1.962186,50.725138
40559,NaN,-0.059402,9.914531,0.123453,0.598663,-0.138566,0.083730,0.049087,-0.029315,0.158962,-0.629954,-0.647823,-0.319404,-0.285421,92.487955,1.869097,50.700892
40560,NaN,0.004716,9.582438,-0.191243,0.374466,0.094239,-0.236123,0.115470,-0.060010,0.135649,-0.629478,-0.648514,-0.318878,-0.285488,92.552256,1.786054,50.659025
40561,NaN,1.005279,10.064401,-0.238582,1.001049,0.878491,0.216560,0.144123,-0.038365,0.090137,-0.628936,-0.649191,-0.318639,-0.285410,92.635511,1.732645,50.631189
40562,NaN,0.619875,9.749647,-0.478739,0.560080,0.719401,-0.074217,0.143277,0.020916,0.052205,-0.628358,-0.649722,-0.318677,-0.285434,92.717239,1.695119,50.637652
40563,NaN,0.054397,9.853912,-0.449506,0.239012,0.249816,0.045560,0.166790,0.063845,0.026221,-0.627671,-0.650221,-0.318998,-0.285451,92.815286,1.675545,50.669943
40564,NaN,-0.036872,9.797814,-0.246873,0.345201,0.037448,-0.017848,0.182836,0.108677,0.020281,-0.626869,-0.650699,-0.319470,-0.285596,92.921180,1.653621,50.727425
40565,NaN,-0.289604,9.788270,-0.159083,0.266594,-0.228946,-0.025150,0.227574,0.152781,0.024459,-0.625842,-0.651258,-0.320163,-0.285799,93.055489,1.632274,50.810600
40566,NaN,-0.023231,9.846712,-0.495616,0.194769,0.170390,0.043117,0.277622,0.197234,0.025260,-0.624581,-0.651911,-0.321030,-0.286096,93.216997,1.604485,50.918540
40567,NaN,0.395152,9.931602,-0.646957,0.366286,0.567567,0.124870,0.315818,0.304450,0.024295,-0.623020,-0.652524,-0.322321,-0.286649,93.404197,1.577746,51.088386
40568,NaN,0.635779,10.052501,-0.711604,0.496143,0.769134,0.243433,0.358985,0.423256,0.012482,-0.621141,-0.653080,-0.324048,-0.287510,93.615761,1.548564,51.325905
40569,NaN,0.290034,9.941713,-0.766991,0.253013,0.511256,0.146457,0.346727,0.516958,0.003462,-0.619157,-0.653442,-0.326107,-0.288638,93.823784,1.524626,51.617871
40570,NaN,-0.203355,9.732744,-0.710723,0.000492,0.067812,-0.052151,0.372108,0.555783,0.003586,-0.617021,-0.653822,-0.328287,-0.289878,94.044660,1.493421,51.931285
40571,NaN,-0.359076,10.055660,-0.757591,-0.080756,-0.061447,0.277344,0.391615,0.558798,-0.000978,-0.614815,-0.654240,-0.330548,-0.291050,94.278736,1.468030,52.247151
40572,NaN,-0.178700,10.065229,-0.764514,0.052055,0.057144,0.282815,0.346715,0.530199,0.002471,-0.612793,-0.654563,-0.332609,-0.292238,94.484365,1.436224,52.545779
40573,NaN,-0.027874,9.856416,-0.887005,0.055300,0.231747,0.080726,0.334305,0.491259,0.008402,-0.610861,-0.654906,-0.334542,-0.293307,94.684303,1.406240,52.822427
40574,NaN,-0.062318,9.807766,-1.193238,-0.191051,0.366900,0.058927,0.295328,0.461022,-0.007744,-0.609127,-0.655145,-0.336344,-0.294318,94.859231,1.381565,53.081832
40575,NaN,0.207750,10.146279,-1.128687,0.069992,0.513083,0.385149,0.262669,0.465771,-0.021705,-0.607506,-0.655246,-0.338188,-0.295327,95.017583,1.368316,53.345215
40576,NaN,-0.174407,10.428703,-0.898904,0.063607,0.041846,0.655859,0.178199,0.506974,0.018654,-0.606030,-0.655097,-0.339865,-0.296762,95.125847,1.324875,53.629380
40577,NaN,-0.644518,10.526444,-0.899519,-0.197637,-0.359883,0.763793,0.151286,0.544586,0.084764,-0.604474,-0.654914,-0.341430,-0.298536,95.220854,1.245720,53.932181
40578,NaN,-1.076869,11.137167,-1.073086,-0.537098,-0.659906,1.395506,0.119675,0.628667,0.216028,-0.602678,-0.654731,-0.342737,-0.301061,95.295846,1.082482,54.275304
40579,NaN,-1.539362,11.328694,-1.167318,-0.874778,-1.030553,1.599766,0.059123,0.665839,0.345048,-0.600814,-0.654519,-0.343669,-0.304169,95.337283,0.847643,54.633236
40580,NaN,-1.530027,11.391436,-0.807748,-0.589830,-1.282844,1.622540,0.033367,0.646953,0.405954,-0.598966,-0.654356,-0.344273,-0.307464,95.360107,0.574946,54.976441
40581,NaN,-0.857193,12.007014,-0.759369,-0.134247,-0.843601,2.218512,0.100322,0.639373,0.482623,-0.596784,-0.654525,-0.344730,-0.310817,95.421570,0.262592,55.311524
40582,NaN,-0.319493,12.317796,-0.376640,0.480665,-0.698494,2.485794,0.053266,0.687274,0.578202,-0.594517,-0.654631,-0.344910,-0.314713,95.451893,-0.110675,55.668048
40583,NaN,-0.945135,12.711399,-0.041426,0.397418,-1.501203,2.838888,0.077944,0.776312,0.721015,-0.591774,-0.654902,-0.344945,-0.319250,95.495722,-0.566965,56.067749
40584,NaN,-2.089102,13.141686,0.482987,0.186376,-2.860979,3.190414,0.077392,0.819777,0.808422,-0.588805,-0.655229,-0.344786,-0.324203,95.533071,-1.079031,56.486834
40585,NaN,-3.140979,14.266391,1.741434,0.694830,-4.614939,4.138886,0.111960,0.761372,0.932502,-0.585596,-0.655946,-0.344117,-0.329235,95.589713,-1.655706,56.865675
40586,NaN,-3.515981,13.968334,0.881718,-0.286329,-4.568405,3.873063,0.154187,0.628374,1.020836,-0.582322,-0.657124,-0.342805,-0.334028,95.666171,-2.278044,57.163168
40587,NaN,-2.728645,15.388807,0.412202,-0.210569,-3.934181,5.316946,0.264172,0.594536,1.148410,-0.578497,-0.658880,-0.341167,-0.338856,95.806716,-2.969404,57.432944
40588,NaN,-2.504781,16.774333,0.736959,0.199923,-4.238958,6.624548,0.164037,0.709135,1.267426,-0.574593,-0.660307,-0.339267,-0.344580,95.879307,-3.736974,57.760570
40589,NaN,-4.872906,15.635959,0.962661,-1.002323,-6.422162,5.250596,0.028787,0.816307,1.323926,-0.570807,-0.661236,-0.337251,-0.351010,95.869547,-4.542023,58.145505
40590,NaN,-6.294524,13.288327,0.702404,-2.139109,-7.386109,2.739600,0.079638,0.753177,1.412816,-0.566791,-0.662503,-0.334823,-0.357395,95.882440,-5.393797,58.490551
40591,NaN,-5.093443,11.538962,0.455021,-1.842177,-6.175331,1.039330,0.226070,0.500313,1.522938,-0.562456,-0.664804,-0.331560,-0.362968,95.993939,-6.293953,58.682709
40592,NaN,-3.769502,10.824930,-0.136668,-1.746234,-4.806612,0.446501,0.247915,0.151008,1.663691,-0.558365,-0.667954,-0.326870,-0.367726,96.134733,-7.251348,58.665949
40593,NaN,-3.263543,10.214055,-1.009648,-2.323583,-3.989526,-0.082381,0.188833,-0.259834,1.738847,-0.554931,-0.671801,-0.320643,-0.371380,96.279722,-8.228282,58.404146
40594,NaN,-3.050213,9.815564,-1.332587,-2.585412,-3.706511,-0.485314,0.143564,-0.822844,1.758884,-0.552502,-0.676503,-0.312689,-0.373244,96.447776,-9.176641,57.815617
40595,NaN,-1.113543,8.803107,-1.302617,-1.638040,-2.021529,-1.230138,0.091511,-1.166313,1.720094,-0.550766,-0.681611,-0.303774,-0.373878,96.634066,-10.082223,57.024603
40596,NaN,0.073799,7.955118,-0.480990,-0.381717,-1.396768,-1.975417,-0.020953,-1.131978,1.592959,-0.549581,-0.686041,-0.295167,-0.374413,96.758232,-10.911276,56.260042
40597,NaN,-0.536015,7.050391,0.214565,-0.191133,-2.152682,-3.076968,-0.094754,-0.802210,1.422329,-0.548398,-0.689385,-0.287868,-0.375686,96.816566,-11.668731,55.692618
40598,NaN,-3.880150,6.764117,1.869232,-0.721647,-5.742092,-4.262040,-0.241620,-0.400044,1.113384,-0.547735,-0.691047,-0.282469,-0.377693,96.739285,-12.273029,55.382038
40599,NaN,-7.247064,5.086284,2.696588,-1.925728,-8.518889,-6.749761,-0.450139,-0.172426,0.749427,-0.548102,-0.691217,-0.278526,-0.379771,96.516423,-12.690704,55.226965
40600,NaN,-8.473331,3.675980,2.137662,-3.070406,-8.850737,-8.357803,-0.415099,-0.157868,0.371011,-0.549087,-0.690867,-0.276029,-0.380807,96.300520,-12.887987,55.110264
40601,NaN,-7.769652,4.040081,1.373713,-3.350661,-7.949978,-7.776092,-0.189456,-0.158853,0.001344,-0.549947,-0.690677,-0.275198,-0.380513,96.215065,-12.881413,55.013572
40602,NaN,-7.428734,5.394232,1.675595,-2.971601,-8.161357,-6.399014,-0.152949,-0.062166,-0.373967,-0.551318,-0.689823,-0.276049,-0.379459,96.125797,-12.658352,55.001385
40603,NaN,-7.468641,6.051815,2.523164,-2.313222,-8.794658,-5.803466,-0.361276,0.059557,-0.749726,-0.553889,-0.687699,-0.278082,-0.378083,95.903721,-12.237328,55.078455
40604,NaN,-7.457849,6.116813,2.704600,-2.142436,-8.862323,-5.663255,-0.427930,0.148790,-1.104039,-0.557288,-0.684640,-0.281513,-0.376097,95.622068,-11.608060,55.231199
40605,NaN,-6.988877,6.826401,2.819024,-1.775484,-8.648145,-4.768258,-0.425542,0.231771,-1.458001,-0.561133,-0.680972,-0.286312,-0.373407,95.338534,-10.791819,55.443546
40606,NaN,-6.124216,7.979769,2.788259,-1.303718,-8.075547,-3.328894,-0.716824,0.376274,-1.778753,-0.566396,-0.675622,-0.292120,-0.370671,94.866393,-9.785225,55.755588
40607,NaN,-6.046817,7.797653,3.055269,-0.979985,-7.998996,-3.351002,-0.806357,0.357922,-2.039199,-0.572331,-0.669681,-0.298481,-0.367251,94.358097,-8.639811,56.054172
40608,NaN,-5.218666,7.835947,2.402724,-1.001190,-6.821900,-2.966950,-0.598486,0.253209,-2.383981,-0.578366,-0.663825,-0.306124,-0.362102,93.974228,-7.275500,56.302493
40609,NaN,-4.895805,8.799714,2.952731,-0.278322,-6.827792,-1.848995,-0.191737,0.208991,-2.561074,-0.583263,-0.658943,-0.314827,-0.355644,93.841114,-5.822414,56.519779
40610,NaN,-3.947474,11.343450,3.034975,0.434097,-6.161508,0.925325,-0.602882,0.234485,-2.726228,-0.589753,-0.652331,-0.323453,-0.349335,93.467416,-4.258086,56.756401
40611,NaN,-3.387503,10.742335,2.559948,0.444082,-5.086371,0.548185,-0.980322,0.241077,-2.861865,-0.597483,-0.644342,-0.331719,-0.343220,92.893664,-2.631328,56.982135
40612,NaN,-2.976592,10.431215,2.635052,0.822690,-4.450957,0.391021,-0.906140,0.206967,-3.026716,-0.605266,-0.636087,-0.340557,-0.336256,92.359850,-0.889330,57.182106
40613,NaN,-2.742693,10.923939,2.486958,0.942170,-3.865569,1.013102,-0.950909,0.157536,-3.123031,-0.613184,-0.627569,-0.349292,-0.328873,91.816513,0.892708,57.333999
40614,NaN,-2.470388,11.096901,2.329227,1.070415,-3.199011,1.290356,-0.949172,0.091447,-3.189906,-0.621254,-0.618748,-0.358036,-0.320942,91.266525,2.733971,57.437152
40615,NaN,-2.207938,11.379232,2.254186,1.274606,-2.566041,1.642485,-0.890096,-0.001519,-3.271124,-0.629165,-0.610068,-0.366642,-0.312318,90.759875,4.604995,57.466033
40616,NaN,-1.870691,11.577125,2.268778,1.599645,-1.898055,1.870704,-0.862996,-0.108467,-3.315991,-0.637175,-0.601244,-0.375073,-0.303041,90.250824,6.521238,57.421396
40617,NaN,-1.781764,11.714321,2.025251,1.575790,-1.294988,2.033304,-0.846577,-0.223289,-3.364178,-0.645135,-0.592513,-0.383106,-0.293188,89.750008,8.445796,57.288957
40618,NaN,-1.627528,11.934297,1.533991,1.395030,-0.477760,2.238887,-0.747902,-0.346038,-3.415195,-0.653014,-0.583859,-0.391004,-0.282484,89.274758,10.416416,57.071261
40619,NaN,-0.810918,12.363305,0.786487,1.391184,1.064165,2.477314,-0.626835,-0.528644,-3.445294,-0.660638,-0.575760,-0.398358,-0.270868,88.848846,12.382178,56.725948
40620,NaN,0.723960,13.198324,0.136642,1.925150,3.229746,2.859488,-0.526048,-0.803301,-3.399030,-0.668345,-0.568132,-0.404759,-0.258285,88.415372,14.333036,56.204393
40621,NaN,2.790870,14.530853,0.206522,3.446531,5.541086,3.467932,-0.528697,-0.975341,-3.327112,-0.676012,-0.560832,-0.410175,-0.245422,87.943957,16.217559,55.559227
40622,NaN,5.144285,15.409140,0.701366,5.457962,7.731606,3.408793,-0.586502,-0.985692,-3.240803,-0.683644,-0.553216,-0.415179,-0.232828,87.398255,18.062861,54.887610
40623,NaN,7.101610,15.585693,0.800154,6.827454,9.591358,2.651568,-0.786318,-0.900185,-2.964973,-0.691051,-0.545378,-0.419303,-0.221802,86.742058,19.729957,54.247996
40624,NaN,8.504032,14.160433,-0.554791,6.409055,11.284817,0.419862,-0.992141,-0.764513,-2.580058,-0.698232,-0.537232,-0.422559,-0.212830,85.962514,21.186838,53.677399
40625,NaN,8.965539,12.143693,-3.240704,4.234856,12.703521,-2.129742,-1.028615,-0.639251,-2.147066,-0.704577,-0.529771,-0.424937,-0.205771,85.189536,22.381878,53.178566
40626,NaN,9.782790,11.295456,-5.989629,2.358610,14.725721,-3.750764,-0.890074,-0.415710,-1.814589,-0.709721,-0.523100,-0.427324,-0.200142,84.527662,23.401578,52.815151
40627,NaN,9.873143,11.106483,-7.026322,1.548184,15.418014,-4.327784,-0.711512,0.037526,-1.475395,-0.712955,-0.517394,-0.430558,-0.196516,84.092603,24.241591,52.743552
40628,NaN,9.311777,11.039966,-7.250609,1.008184,15.193272,-4.399204,-0.740813,0.276544,-1.046546,-0.715346,-0.512167,-0.433482,-0.195087,83.700771,24.856424,52.841436
40629,NaN,10.692599,9.845975,-7.088646,1.626009,15.676434,-6.189507,-0.627789,0.411877,-0.539972,-0.716581,-0.508370,-0.435689,-0.195566,83.434468,25.186964,53.058619
40630,NaN,12.220147,10.002258,-7.759603,1.821527,17.246978,-6.844372,-0.392365,0.653357,-0.126253,-0.716314,-0.506026,-0.437919,-0.197634,83.373401,25.300011,53.455254
40631,NaN,8.278381,12.324904,-4.173176,2.927114,13.353560,-2.673835,0.170657,0.967812,0.551581,-0.713208,-0.506908,-0.440119,-0.201679,83.746913,25.044833,54.099896
40632,NaN,13.213930,8.758365,-7.738765,1.882819,17.467978,-8.223171,-0.478710,0.691101,0.917682,-0.711987,-0.506522,-0.439706,-0.207771,83.675725,24.560174,54.591564
40633,NaN,10.105953,13.470541,-2.624609,5.097639,14.257260,-1.988778,0.869584,1.273694,1.271070,-0.705630,-0.511090,-0.441871,-0.213597,84.534554,23.907391,55.466277
40634,NaN,-7.073483,18.386568,2.813681,1.502150,0.135366,10.030067,0.239106,2.411538,1.311597,-0.698236,-0.512244,-0.447163,-0.223870,85.298104,23.272053,57.035075
40635,NaN,-21.983175,11.961718,6.487032,-3.477796,-15.948938,10.235586,-0.964783,2.971779,1.139684,-0.692691,-0.508055,-0.453446,-0.237583,85.488702,22.754641,58.932592
40636,NaN,-7.055481,5.730109,1.366594,-1.370908,-4.187618,-1.746504,0.330352,1.775476,1.288726,-0.686273,-0.510002,-0.456618,-0.245818,86.114195,22.085780,60.083060
40637,NaN,0.446336,13.919171,-8.017434,-5.001113,9.014741,2.513351,1.696379,1.117629,1.540263,-0.677448,-0.517953,-0.458543,-0.250056,87.360310,21.237990,60.821520
40638,NaN,-1.554904,16.987046,-1.850597,-0.009395,5.164601,6.549322,1.150943,0.951911,1.930139,-0.669835,-0.525075,-0.458110,-0.256424,88.238186,20.147078,61.444282
40639,NaN,-1.204996,13.272478,-3.304687,-1.638846,4.621878,3.012154,0.904281,0.378648,1.963553,-0.664035,-0.532112,-0.455324,-0.261903,88.844033,19.024880,61.701355
40640,NaN,-1.641862,13.844483,0.734023,1.811712,2.243805,3.846723,1.077655,0.300226,1.896787,-0.657966,-0.539619,-0.452592,-0.266555,89.521692,17.933019,61.893917
40641,NaN,-0.879491,9.857238,0.011289,0.963390,1.880467,-0.144620,0.690050,0.176044,1.775219,-0.653309,-0.545676,-0.449251,-0.271291,89.950669,16.913385,62.000995
40642,NaN,-1.327890,7.236891,-4.761110,-3.818736,2.907946,-2.480329,0.822678,0.141759,1.658303,-0.648473,-0.551910,-0.446216,-0.275261,90.442661,15.954808,62.077103
40643,NaN,-0.407480,9.743747,-4.954789,-3.211852,4.230486,-0.250243,1.234304,-0.033606,1.516193,-0.643023,-0.559343,-0.443571,-0.277312,91.141777,15.083525,62.041090
40644,NaN,-0.975079,12.376903,0.441061,1.680451,1.577560,2.394537,0.929635,0.016991,1.523887,-0.638242,-0.565712,-0.440568,-0.280210,91.670455,14.202001,62.024009
40645,NaN,-0.953244,9.968412,-1.546134,-0.394307,1.868734,0.138140,0.599846,0.043353,1.347830,-0.634542,-0.570547,-0.437692,-0.283299,92.014822,13.426494,62.020411
40646,NaN,-1.085246,9.958690,-1.429427,-0.362495,1.553545,0.179806,0.591952,0.056036,1.296392,-0.630871,-0.575216,-0.434930,-0.286294,92.354137,12.674250,62.019239
40647,NaN,0.257229,10.060985,-0.455340,1.115394,2.126470,-0.028547,0.577593,0.117279,1.212140,-0.627203,-0.579521,-0.432601,-0.289186,92.693827,11.974643,62.053041
40648,NaN,-0.161137,10.611455,-0.705584,0.772282,1.842822,0.633988,0.462635,0.295016,1.085407,-0.623634,-0.582932,-0.430971,-0.292465,92.986882,11.336006,62.188863
40649,NaN,-1.606789,10.040688,-0.233971,0.433054,0.165228,0.347833,0.290782,0.272330,0.970329,-0.620769,-0.585551,-0.429382,-0.295647,93.178924,10.769679,62.313532
40650,NaN,-1.048116,9.381462,-0.324616,0.509935,0.503070,-0.394517,0.445108,0.233236,0.852013,-0.617688,-0.588460,-0.428192,-0.298042,93.453042,10.265283,62.415379
40651,NaN,-0.422538,10.357343,0.076288,1.285771,0.894798,0.434476,0.481538,0.231011,0.722860,-0.614690,-0.591173,-0.427462,-0.299913,93.748651,9.840869,62.519488
40652,NaN,-0.125680,10.342504,-0.091111,1.281604,1.144813,0.387206,0.455093,0.279793,0.635974,-0.611777,-0.593556,-0.427047,-0.301747,94.031875,9.456992,62.651477
40653,NaN,-0.214852,10.184156,-0.382126,0.975560,1.109136,0.273287,0.426745,0.352313,0.546714,-0.608925,-0.595521,-0.427114,-0.303544,94.306541,9.127186,62.828753
40654,NaN,-0.288520,9.981699,-0.724356,0.625103,1.113798,0.117600,0.399533,0.370996,0.480099,-0.606199,-0.597246,-0.427342,-0.305285,94.564955,8.826780,63.016525
40655,NaN,-0.621165,9.808325,-1.053183,0.174713,0.894065,0.029472,0.365084,0.422460,0.433519,-0.603538,-0.598658,-0.427853,-0.307071,94.808890,8.556762,63.236369
40656,NaN,-0.709024,9.993362,-1.031906,0.192403,0.766691,0.227719,0.313329,0.466186,0.372888,-0.601014,-0.599733,-0.428546,-0.308950,95.024565,8.311152,63.481597
40657,NaN,-0.350159,10.345057,-0.945076,0.486502,1.026250,0.519105,0.226840,0.430994,0.342215,-0.598876,-0.600508,-0.429134,-0.310776,95.188477,8.091220,63.708783
40658,NaN,-0.531161,10.119114,-1.076744,0.260385,0.861969,0.337537,0.158306,0.431113,0.288162,-0.597013,-0.600980,-0.429727,-0.312623,95.311018,7.894240,63.936586
40659,NaN,-1.073667,9.802338,-1.206675,-0.134529,0.376040,0.113795,0.122054,0.406799,0.228323,-0.595410,-0.601226,-0.430416,-0.314256,95.412161,7.739574,64.154791
40660,NaN,-0.769735,9.700606,-1.237795,-0.042374,0.622389,-0.023041,0.136759,0.385048,0.171010,-0.593887,-0.601446,-0.431185,-0.315659,95.518320,7.611033,64.361633
40661,NaN,-0.714839,9.876104,-1.048986,0.181697,0.577006,0.126266,0.144525,0.392530,0.120732,-0.592410,-0.601543,-0.432186,-0.316877,95.631007,7.517712,64.576958
40662,NaN,-0.761939,9.843479,-0.830709,0.360635,0.415014,0.079854,0.144077,0.408996,0.086741,-0.590940,-0.601560,-0.433287,-0.318083,95.743003,7.435023,64.801818
40663,NaN,-0.819464,9.879381,-0.853149,0.332513,0.358716,0.125234,0.134924,0.427891,0.050164,-0.589523,-0.601414,-0.434585,-0.319217,95.852695,7.379050,65.041142
40664,NaN,-1.065472,9.735423,-1.160528,-0.056268,0.242769,0.046236,0.125964,0.454008,0.043676,-0.588073,-0.601206,-0.435915,-0.320467,95.957322,7.317384,65.294061
40665,NaN,-1.127839,9.828614,-1.291008,-0.173741,0.233763,0.160052,0.119142,0.447084,0.017501,-0.586707,-0.600906,-0.437338,-0.321594,96.059137,7.278001,65.546119
40666,NaN,-1.073116,9.808696,-1.429748,-0.268280,0.323710,0.148712,0.119756,0.477237,0.041601,-0.585221,-0.600631,-0.438728,-0.322918,96.161434,7.215268,65.812262
40667,NaN,-1.293034,9.814044,-1.300723,-0.229489,0.052674,0.168485,0.115396,0.507742,0.059199,-0.583660,-0.600305,-0.440192,-0.324353,96.264596,7.147479,66.096328
40668,NaN,-0.944396,9.842257,-1.169789,0.043321,0.295300,0.139257,0.131516,0.542312,0.084636,-0.581918,-0.600046,-0.441657,-0.325967,96.377227,7.055254,66.396805
40669,NaN,-1.082915,9.971065,-1.006299,0.165327,0.090181,0.265605,0.098087,0.568509,0.088543,-0.580218,-0.599627,-0.443175,-0.327704,96.473610,6.965818,66.713473
40670,NaN,-1.172200,10.056427,-1.026804,0.127946,0.004554,0.362955,-0.012794,0.537951,0.069321,-0.578936,-0.598912,-0.444431,-0.329575,96.502342,6.881780,67.012089
40671,NaN,-1.055028,9.865671,-1.212743,-0.028424,0.160168,0.181751,-0.073428,0.511894,0.082027,-0.577877,-0.598065,-0.445516,-0.331499,96.495678,6.799321,67.296494
40672,NaN,-0.939222,9.632021,-1.197047,-0.013451,0.228997,-0.063931,-0.064762,0.512664,0.126131,-0.576705,-0.597359,-0.446437,-0.333569,96.491485,6.684642,67.576801
40673,NaN,-1.045448,9.891464,-1.121276,0.050133,0.097858,0.196266,0.045018,0.511117,0.160655,-0.575156,-0.597022,-0.447476,-0.335448,96.550940,6.557365,67.855448
40674,NaN,-0.885620,10.226022,-0.748629,0.493182,0.102136,0.466544,-0.125621,0.495458,0.126138,-0.574196,-0.596161,-0.448239,-0.337599,96.509523,6.443696,68.125704
40675,NaN,-1.216136,9.346189,-1.144265,-0.130102,-0.125668,-0.320228,0.011219,0.498970,0.222004,-0.572664,-0.595876,-0.448999,-0.339689,96.547132,6.282253,68.393214
40676,NaN,-1.007446,9.874242,-0.948181,0.199429,-0.003802,0.156004,0.019648,0.477104,0.211684,-0.571160,-0.595646,-0.449693,-0.341700,96.585687,6.121020,68.647120
40677,NaN,-0.956452,9.923521,-0.902835,0.266152,0.003543,0.194075,0.067246,0.438936,0.180325,-0.569659,-0.595521,-0.450495,-0.343361,96.650588,5.986846,68.882627
40678,NaN,-0.743744,10.178504,-0.990743,0.299120,0.222321,0.434153,0.060178,0.408274,0.163550,-0.568266,-0.595409,-0.451200,-0.344935,96.707264,5.857182,69.099961
40679,NaN,-0.810141,9.967830,-1.200638,0.053664,0.202803,0.257637,0.087286,0.416094,0.150946,-0.566802,-0.595308,-0.452055,-0.346396,96.781444,5.740746,69.323985
40680,NaN,-0.498025,10.382229,-1.389927,0.049935,0.560021,0.658915,0.047014,0.457586,0.118349,-0.565409,-0.594964,-0.453007,-0.348015,96.832697,5.633004,69.572240
40681,NaN,-0.305918,10.381939,-1.107919,0.376150,0.619805,0.607488,0.004504,0.552888,0.099229,-0.563965,-0.594267,-0.454254,-0.349919,96.866538,5.536231,69.877704
40682,NaN,-0.495294,10.202956,-0.942439,0.435681,0.358607,0.430133,0.005143,0.670732,0.081627,-0.562268,-0.593340,-0.455836,-0.352158,96.904745,5.434353,70.250057
40683,NaN,-0.779986,10.186701,-0.563678,0.691259,-0.055156,0.395842,0.023957,0.771989,0.074425,-0.560299,-0.592244,-0.457797,-0.354591,96.960560,5.336095,70.682172
40684,NaN,-1.454873,9.954695,-0.500027,0.494915,-0.740038,0.220757,-0.070127,0.805394,0.147550,-0.558385,-0.591002,-0.459415,-0.357576,96.960603,5.186929,71.126579
40685,NaN,-2.426866,9.489226,-0.682644,-0.055331,-1.645448,-0.133306,-0.022287,0.748058,0.297234,-0.556193,-0.590310,-0.460555,-0.360656,96.984983,4.963317,71.529187
40686,NaN,-2.725047,9.745470,-0.855793,-0.272370,-1.909977,0.157766,0.085599,0.602641,0.506735,-0.553625,-0.590671,-0.460815,-0.363672,97.058602,4.624006,71.832262
40687,NaN,-2.669106,10.014530,-0.941005,-0.297382,-1.891171,0.416432,0.087868,0.534440,0.729423,-0.550798,-0.591647,-0.460268,-0.367054,97.129588,4.168932,72.081512
40688,NaN,-3.941409,10.348543,-1.017453,-0.723640,-3.161330,0.824206,0.071274,0.431940,0.981084,-0.547777,-0.593344,-0.458612,-0.370890,97.181077,3.572002,72.252402
40689,NaN,-4.079391,10.589433,-1.805798,-1.489644,-3.164595,1.132773,0.203624,0.286949,1.159300,-0.544351,-0.596047,-0.456301,-0.374433,97.303549,2.889827,72.328140
40690,NaN,-2.645998,11.421717,-1.441696,-0.618403,-2.050190,1.804007,0.207675,0.151328,1.332712,-0.540872,-0.599395,-0.453056,-0.378051,97.420928,2.113977,72.311479
40691,NaN,-1.714599,11.219513,-1.000775,0.020838,-1.456481,1.487523,0.115947,0.097153,1.464650,-0.537517,-0.602857,-0.449110,-0.382020,97.487198,1.272161,72.254028
40692,NaN,-1.070607,11.851884,-0.518552,0.711235,-1.174981,2.019172,0.101424,0.176282,1.566088,-0.533801,-0.606328,-0.444983,-0.386540,97.544061,0.362411,72.232188
40693,NaN,-1.046527,11.309848,-0.815445,0.323293,-1.224944,1.503889,0.084714,0.290750,1.622619,-0.529738,-0.609611,-0.440962,-0.391540,97.594059,-0.583620,72.271106
40694,NaN,-1.164790,12.069819,-0.564859,0.570750,-1.641779,2.201122,0.129872,0.416618,1.669980,-0.525130,-0.612833,-0.437154,-0.396951,97.665352,-1.570307,72.376229
40695,NaN,-1.980769,11.565916,-1.149309,-0.336543,-2.411758,1.723400,0.058065,0.467033,1.730664,-0.520470,-0.615847,-0.433149,-0.402773,97.695472,-2.591261,72.505215
40696,NaN,-1.422283,12.573403,-0.889739,0.139929,-2.252532,2.669575,0.117684,0.501583,1.822452,-0.515324,-0.619093,-0.429005,-0.408804,97.753917,-3.670707,72.645627
40697,NaN,-0.833406,12.310694,-0.804064,0.309882,-1.918018,2.398564,0.032632,0.622907,1.901952,-0.509967,-0.621982,-0.424742,-0.415531,97.759128,-4.801129,72.848972
40698,NaN,-1.117140,13.381705,-0.006559,1.029318,-2.785984,3.282754,0.039991,0.781647,2.039167,-0.503913,-0.624781,-0.420398,-0.423067,97.753804,-6.024812,73.132335
40699,NaN,-2.320894,11.453643,-0.906386,-0.415208,-3.667774,1.312228,0.197572,0.985551,2.053796,-0.496840,-0.627500,-0.416831,-0.430866,97.822363,-7.269702,73.531253
40700,NaN,-3.484628,15.730303,1.040063,1.480812,-6.249701,4.999635,0.091360,1.110059,2.228621,-0.489401,-0.629954,-0.412713,-0.439674,97.809714,-8.626009,73.988486
40701,NaN,-5.301896,13.680566,-0.856268,-1.058395,-7.440843,2.816810,0.055060,1.092032,2.335132,-0.481793,-0.632484,-0.408092,-0.448666,97.771341,-10.038895,74.429094
40702,NaN,-5.328785,14.568927,-0.881559,-1.030637,-7.974096,3.482556,0.413849,1.160672,2.545515,-0.472365,-0.636021,-0.403687,-0.457587,97.919124,-11.577613,74.894068
40703,NaN,-6.637134,15.679722,-0.247119,-0.639812,-10.000304,3.954265,0.497256,1.415595,2.820361,-0.461405,-0.639598,-0.399123,-0.467675,98.078885,-13.293186,75.482389
40704,NaN,-9.214569,17.383274,1.024144,0.151668,-13.581188,4.457158,0.556880,1.478732,3.139224,-0.449277,-0.643595,-0.393712,-0.478464,98.248209,-15.194819,76.081838
40705,NaN,-10.032922,18.075813,1.877356,0.897814,-15.206108,4.288400,0.444315,1.286801,3.553267,-0.436723,-0.648422,-0.386137,-0.489612,98.378541,-17.318357,76.531163
40706,NaN,-8.387482,17.229491,1.907916,1.250518,-13.923586,3.429996,0.524440,0.997040,3.862840,-0.423583,-0.654441,-0.376993,-0.500160,98.597164,-19.589215,76.781404
40707,NaN,-3.723138,15.989734,1.082897,1.355999,-9.588216,3.487525,0.653217,0.648608,4.055104,-0.409981,-0.661734,-0.366628,-0.509517,98.969727,-21.944530,76.790678
40708,NaN,-0.090137,17.540988,-0.028938,1.122243,-7.347118,6.074667,0.775418,0.285435,4.239232,-0.396040,-0.670189,-0.355092,-0.517599,99.508730,-24.363092,76.542425
40709,NaN,3.536549,17.144942,-0.865862,1.012059,-4.545415,7.083176,0.628797,0.119574,4.403437,-0.382215,-0.678806,-0.342091,-0.525460,100.045501,-26.863423,76.137928
40710,NaN,3.388449,19.299760,-3.757818,-1.740411,-6.018846,9.128427,0.809480,0.224896,4.270936,-0.367820,-0.686877,-0.330097,-0.532864,100.672882,-29.287485,75.784208
40711,NaN,-1.013068,18.733396,-1.787011,-0.874333,-10.489207,5.818028,0.200485,0.188643,4.214198,-0.355498,-0.693574,-0.316410,-0.540796,100.996320,-31.681607,75.376226
40712,NaN,-3.670966,14.634365,-2.440548,-2.419078,-10.855614,0.669281,0.296985,-0.131808,3.929656,-0.344037,-0.700509,-0.303331,-0.546733,101.493083,-33.867120,74.768323
40713,NaN,-4.760433,12.017312,-3.509655,-3.890052,-10.368540,-2.280022,0.679572,-0.419830,3.419860,-0.332877,-0.707932,-0.292420,-0.550014,102.331522,-35.736942,73.984368
40714,NaN,-6.675357,10.434063,-4.212793,-5.118934,-10.971466,-4.853605,0.617995,-0.588276,2.874213,-0.323672,-0.714667,-0.282993,-0.551726,103.194084,-37.258156,73.126253
40715,NaN,-8.994185,9.120738,-3.657783,-5.242344,-12.055383,-7.658226,0.495718,-0.835032,2.427518,-0.316343,-0.721174,-0.274290,-0.551906,104.099734,-38.498995,72.116418
40716,NaN,-9.200549,7.282157,-1.748270,-3.641246,-11.290288,-9.796366,-0.124934,-1.033164,2.347749,-0.311780,-0.726953,-0.263902,-0.551986,104.761698,-39.641135,70.950442
40717,NaN,-7.062089,4.646173,-0.347093,-1.995932,-8.153874,-10.865031,-0.750892,-1.094971,2.093838,-0.310135,-0.731538,-0.252471,-0.552201,105.108361,-40.640637,69.747760
40718,NaN,1.597247,3.191553,-4.903321,-4.226055,-0.155167,-5.465731,-0.917915,-1.182305,1.022514,-0.312233,-0.734602,-0.244446,-0.550560,105.274954,-41.013495,68.686389
40719,NaN,0.953189,6.408023,-3.612770,-3.111641,-3.038865,-3.803826,-0.011587,-0.582916,0.313274,-0.312107,-0.736594,-0.242331,-0.548902,105.595417,-41.099584,68.190705
40720,NaN,-3.657097,9.592435,0.434517,-0.510721,-9.224246,-5.314960,-0.870428,-0.365062,-0.307803,-0.316679,-0.735821,-0.240599,-0.548082,105.226735,-40.858656,67.990830
40721,NaN,-5.572285,5.553068,-0.783892,-2.342448,-7.527627,-9.222764,-1.723319,-0.318835,-0.523020,-0.324806,-0.733333,-0.237265,-0.548114,104.330506,-40.524312,67.853359
40722,NaN,-5.864562,3.329288,-1.503779,-3.177668,-6.045875,-10.855653,-1.647315,-0.319599,-0.968146,-0.333954,-0.730309,-0.235876,-0.547253,103.419522,-39.925005,67.800590
40723,NaN,-5.958892,3.475219,-1.331729,-3.103523,-6.231095,-10.761162,-1.667937,-0.311599,-1.400823,-0.344207,-0.726708,-0.235871,-0.545694,102.463914,-39.104940,67.802897
40724,NaN,-5.614018,3.446853,-0.777309,-2.532649,-6.086096,-10.551513,-1.917735,-0.278874,-1.749011,-0.356341,-0.721997,-0.236608,-0.543836,101.320374,-38.073346,67.872824
40725,NaN,-4.620996,3.008035,-0.933244,-2.424084,-5.028657,-10.141326,-2.034772,-0.179110,-2.082016,-0.369505,-0.716347,-0.238225,-0.541814,100.066607,-36.884421,68.019776
40726,NaN,-3.886481,3.228283,-0.967308,-2.294228,-4.586162,-9.407080,-1.889961,0.017514,-2.481611,-0.383026,-0.709713,-0.242118,-0.539424,98.801599,-35.464362,68.326336
40727,NaN,-3.388622,4.001082,-1.034474,-2.300212,-4.600124,-8.360983,-1.867529,0.161721,-2.882235,-0.397158,-0.702134,-0.247560,-0.536645,97.510292,-33.845286,68.718030
40728,NaN,-3.268252,4.536741,-1.505229,-2.791296,-4.591704,-7.655990,-1.924158,0.209211,-3.258132,-0.412421,-0.693534,-0.254331,-0.533137,96.182710,-31.986227,69.130037
40729,NaN,-3.342067,5.058867,-1.714585,-3.097047,-4.753368,-7.072051,-1.925584,0.206779,-3.641902,-0.428439,-0.684263,-0.262176,-0.528667,94.891533,-29.923391,69.498027
40730,NaN,-3.235504,5.972510,-1.825445,-3.294233,-4.929802,-6.029781,-1.876122,0.167066,-3.992199,-0.445182,-0.674337,-0.271297,-0.522954,93.666968,-27.628805,69.806295
40731,NaN,-3.088471,6.863418,-1.829217,-3.378654,-5.001043,-4.959213,-1.818467,0.094612,-4.304007,-0.462301,-0.664049,-0.281166,-0.516006,92.535092,-25.172147,70.011680
40732,NaN,-2.903394,7.449171,-1.881048,-3.460668,-4.798187,-4.116425,-1.721361,-0.008689,-4.586560,-0.479817,-0.653371,-0.291981,-0.507572,91.507039,-22.524036,70.111801
40733,NaN,-2.812081,8.147530,-2.077337,-3.707853,-4.585677,-3.193525,-1.569808,-0.109877,-4.844364,-0.497229,-0.642630,-0.303439,-0.497709,90.614766,-19.750665,70.095718
40734,NaN,-2.952992,9.114200,-2.249888,-4.013307,-4.569449,-2.076820,-1.395544,-0.183944,-5.060368,-0.514505,-0.631636,-0.315797,-0.486407,89.843457,-16.828357,70.000823
40735,NaN,-2.809687,9.756570,-2.543066,-4.278552,-4.058563,-1.166927,-1.191449,-0.325395,-5.255599,-0.531363,-0.620865,-0.328519,-0.473555,89.220948,-13.821754,69.778557
40736,NaN,-3.152691,10.457866,-3.200001,-5.015094,-3.773415,-0.319263,-0.987507,-0.465763,-5.468476,-0.548024,-0.610028,-0.341926,-0.458936,88.722744,-10.670481,69.451572
40737,NaN,-3.102591,11.658352,-3.354812,-5.144525,-3.272644,1.122591,-0.756998,-0.615515,-5.655704,-0.564126,-0.599478,-0.355584,-0.442660,88.360324,-7.443074,69.007752
40738,NaN,-2.700900,12.124725,-3.407942,-4.934087,-2.255286,1.868034,-0.562576,-0.716579,-5.849441,-0.579871,-0.588713,-0.369828,-0.424728,88.087543,-4.081832,68.494123
40739,NaN,-2.672277,13.412021,-3.141191,-4.533353,-1.649556,3.361420,-0.213516,-0.778977,-6.080554,-0.594570,-0.578260,-0.384812,-0.404996,87.990045,-0.618302,67.925152
40740,NaN,-3.116035,14.940826,-2.872686,-4.200346,-1.301753,5.079313,0.108251,-0.902955,-6.295257,-0.608521,-0.567897,-0.400481,-0.383158,88.036456,2.992998,67.285727
40741,NaN,-3.394795,16.794296,-3.202020,-4.216718,-0.348120,7.093334,0.479091,-1.090172,-6.498084,-0.621453,-0.558153,-0.416284,-0.359122,88.249182,6.690898,66.534927
40742,NaN,-3.865654,19.935995,-4.425801,-4.883628,1.239222,10.347079,0.893849,-1.451130,-6.725487,-0.633756,-0.549086,-0.432018,-0.331992,88.616845,10.544749,65.590014
40743,NaN,-2.424802,24.923951,-5.990288,-4.593980,5.473345,14.917937,1.309335,-1.800367,-7.036611,-0.645294,-0.540682,-0.447479,-0.301699,89.120779,14.552351,64.448725
40744,NaN,1.765676,29.020377,-6.325484,-1.600990,11.850283,17.425712,1.323021,-1.975595,-6.871434,-0.656142,-0.532082,-0.461486,-0.270919,89.526362,18.499635,63.221077
40745,NaN,9.488380,28.997365,-3.090226,5.773720,18.394276,14.027775,0.765141,-1.655146,-6.687659,-0.666588,-0.521114,-0.474575,-0.242648,89.601345,22.321159,62.174727
40746,NaN,19.316548,29.756990,2.854683,16.336191,25.054508,9.468257,0.392899,-0.466129,-6.180457,-0.673900,-0.507971,-0.489452,-0.219684,89.694022,25.880554,61.858163
40747,NaN,20.292990,25.814594,4.609213,17.944820,24.332531,3.792293,-0.710479,0.355380,-5.337816,-0.680454,-0.491969,-0.503216,-0.204258,89.379418,28.937443,62.055844
40748,NaN,15.239813,16.880153,-3.295989,6.971285,20.786752,-2.936734,-0.826936,0.478811,-4.400178,-0.685649,-0.477398,-0.514733,-0.192424,89.040397,31.474993,62.330535
40749,NaN,15.708051,18.238099,-11.947557,-0.296280,26.007463,-3.061914,-0.369815,0.757515,-3.769313,-0.688085,-0.465640,-0.525845,-0.182224,89.082395,33.638457,62.799438
40750,NaN,15.669534,16.355138,-12.694591,-1.627548,25.531376,-5.381882,-1.000617,1.090117,-2.835436,-0.690070,-0.453652,-0.535233,-0.177564,88.915422,35.281407,63.519515
40751,NaN,14.859658,10.490085,-11.364502,-2.381224,21.311774,-10.172897,-0.400389,0.744093,-1.853683,-0.690603,-0.446654,-0.541592,-0.173915,88.978654,36.348120,64.016978
40752,NaN,15.469061,12.381248,-7.356611,1.867352,21.042591,-9.158336,1.057658,0.381661,-0.812067,-0.687902,-0.447763,-0.545634,-0.169061,89.743608,36.818903,64.280616
40753,NaN,17.512951,16.804807,-3.116497,7.659901,23.044964,-6.801233,1.212036,0.112034,0.407244,-0.684530,-0.452967,-0.546092,-0.167400,90.484554,36.582480,64.355856
40754,NaN,16.490050,15.865217,-3.242070,7.059089,21.786623,-6.707901,0.345757,-0.170018,1.490076,-0.682938,-0.458379,-0.542394,-0.171152,90.607414,35.728017,64.222600
40755,NaN,15.555166,14.038989,-1.547904,7.824995,19.331858,-7.266261,-0.044558,-0.514479,2.143789,-0.682564,-0.464481,-0.535623,-0.177400,90.366395,34.499320,63.845324
40756,NaN,16.103655,14.522545,0.250223,9.797646,19.087722,-6.661853,-0.317727,-0.738236,2.822501,-0.682687,-0.471620,-0.526174,-0.186156,89.902385,32.876850,63.329244
40757,NaN,15.858033,12.743440,0.931072,9.908063,17.629710,-7.418436,-0.176371,-0.545910,2.935092,-0.681735,-0.479223,-0.517137,-0.195327,89.609506,31.190858,62.964757
40758,NaN,-6.131172,14.264717,5.309707,5.540069,-0.673311,5.617834,0.313681,0.147349,3.115040,-0.677454,-0.488224,-0.510360,-0.205489,89.846101,29.395998,63.068213
40759,NaN,-29.583124,6.773648,14.009797,2.266368,-26.435219,10.518360,-0.769801,0.185953,1.460768,-0.677338,-0.489164,-0.506586,-0.212844,89.466474,28.556706,63.191877
40760,NaN,-24.730269,5.753451,18.949773,8.274459,-25.464032,7.125198,-0.606809,-0.078187,1.513003,-0.677380,-0.491066,-0.501903,-0.219326,89.100993,27.681169,63.148792
40761,NaN,-8.698379,6.666140,6.107844,3.212331,-6.917628,0.148354,1.392330,-1.365183,2.065872,-0.675056,-0.502442,-0.493653,-0.219451,89.505989,26.485065,62.282741
40762,NaN,4.510888,14.309121,-2.125731,3.007438,10.069830,1.102668,2.684031,-1.634645,2.276794,-0.669731,-0.518851,-0.485217,-0.216376,90.587769,25.175738,61.236053
40763,NaN,10.269324,21.727981,-5.328459,4.644228,18.473665,5.777634,2.119898,-1.060044,2.291316,-0.664235,-0.532612,-0.477920,-0.216122,91.514365,23.871373,60.538350
40764,NaN,2.262744,24.729271,-2.143904,4.596568,10.917262,12.116420,0.983024,0.026583,3.027701,-0.658196,-0.543063,-0.470884,-0.223895,92.060037,22.128727,60.490965
40765,NaN,-2.078753,15.227704,-1.799911,0.709326,3.728074,5.188040,0.394452,0.316388,3.155356,-0.652764,-0.551394,-0.463708,-0.234175,92.329688,20.312388,60.607244
40766,NaN,-2.831449,6.047623,-5.280716,-4.667745,1.946781,-2.964702,0.218587,0.231138,3.214974,-0.647768,-0.559273,-0.455724,-0.244797,92.473808,18.456865,60.660484
40767,NaN,0.158216,5.574161,-7.350574,-5.210531,5.158864,-4.212664,1.119935,-0.001031,3.109155,-0.640744,-0.569937,-0.448305,-0.252272,93.088400,16.674785,60.565499
40768,NaN,6.107329,13.754124,-8.454808,-1.790008,12.235505,2.229800,1.643241,-0.240214,2.972523,-0.632741,-0.582143,-0.441006,-0.257415,93.962330,14.973997,60.308992
40769,NaN,2.897465,17.874360,-1.022584,3.792252,6.131308,6.828821,0.494768,0.324719,2.632674,-0.627137,-0.589070,-0.434937,-0.265567,94.266044,13.453408,60.385070
40770,NaN,0.100764,9.050488,-3.460548,-1.362936,3.237806,-0.782115,-0.159010,0.678171,2.347896,-0.622940,-0.592799,-0.429831,-0.275280,94.241955,12.072361,60.674986
40771,NaN,1.217382,8.732468,0.600180,2.518548,1.925843,-1.563855,0.234199,0.513057,2.197007,-0.618077,-0.597534,-0.425182,-0.283115,94.417011,10.792263,60.873402
40772,NaN,0.531825,10.412849,0.493848,2.289131,1.425778,0.270852,0.230923,0.525339,1.954882,-0.613443,-0.601696,-0.421196,-0.290248,94.589600,9.641177,61.083809
40773,NaN,-1.748270,10.110528,-0.833382,-0.068137,-0.092160,0.480901,0.119180,0.200936,1.719747,-0.610139,-0.605396,-0.416766,-0.295858,94.664514,8.647073,61.115858
40774,NaN,0.057820,9.087992,-1.132396,0.330369,1.375997,-0.764309,0.306129,-0.067225,1.505750,-0.607079,-0.609615,-0.412369,-0.299628,94.826063,7.779763,60.999820
40775,NaN,0.891683,10.660997,-1.197206,0.853877,2.114529,0.707912,0.326584,0.070266,1.366024,-0.603873,-0.613330,-0.408868,-0.303300,95.010747,6.993851,60.968934
40776,NaN,0.773505,10.407178,0.200731,1.935046,1.172357,0.376902,0.268562,0.132565,1.217704,-0.600891,-0.616482,-0.405858,-0.306854,95.168344,6.281456,60.977614
40777,NaN,0.801601,10.343739,-0.044615,1.696165,1.198563,0.352101,0.281169,0.134173,1.044005,-0.598137,-0.619258,-0.403439,-0.309821,95.332879,5.676114,60.995874
40778,NaN,0.299560,10.588924,-0.863089,0.750847,1.069783,0.734869,0.245860,0.137532,0.894501,-0.595677,-0.621641,-0.401382,-0.312450,95.478575,5.147736,61.020977
40779,NaN,0.415694,10.184158,-1.409201,0.258430,1.337008,0.386369,0.174723,0.189501,0.782853,-0.593521,-0.623458,-0.399753,-0.315009,95.585481,4.688188,61.082368
40780,NaN,0.111617,10.185220,-1.229509,0.242870,0.907310,0.403976,0.118972,0.228347,0.692305,-0.591569,-0.624893,-0.398382,-0.317562,95.662808,4.269994,61.168780
40781,NaN,-0.120264,10.053094,-0.932491,0.350388,0.493389,0.266111,0.097669,0.145845,0.596039,-0.590020,-0.626163,-0.397075,-0.319576,95.723566,3.919265,61.214497
40782,NaN,0.186911,10.003993,-1.148401,0.285564,0.809706,0.222064,0.104678,0.117802,0.511220,-0.588610,-0.627357,-0.395913,-0.321269,95.788049,3.610635,61.247188
40783,NaN,0.294675,9.958420,-1.268301,0.213734,0.913387,0.186583,0.115112,0.203216,0.428005,-0.587152,-0.628242,-0.395323,-0.322929,95.860846,3.352246,61.334617
40784,NaN,0.325819,9.782831,-1.232326,0.227907,0.878979,0.010951,0.111579,0.282341,0.370743,-0.585614,-0.628905,-0.395093,-0.324708,95.934669,3.114062,61.468775
40785,NaN,0.599607,9.980622,-0.756211,0.787256,0.852840,0.147081,0.107412,0.325281,0.316698,-0.584113,-0.629343,-0.395194,-0.326436,96.006314,2.911605,61.631802
40786,NaN,0.665658,9.855333,-0.442620,1.068830,0.728832,-0.009987,0.082370,0.356517,0.280633,-0.582661,-0.629614,-0.395413,-0.328238,96.064655,2.720098,61.813128
40787,NaN,0.587701,9.941570,-0.675848,0.831116,0.741420,0.106811,0.100162,0.342318,0.249502,-0.581253,-0.629864,-0.395759,-0.329835,96.131692,2.554524,61.989461
40788,NaN,0.243312,9.947606,-0.916764,0.451729,0.523949,0.156058,0.040188,0.352556,0.214251,-0.580046,-0.629880,-0.396102,-0.331512,96.164696,2.400825,62.172218
40789,NaN,0.535177,9.736160,-1.202904,0.304044,0.894567,-0.033452,0.052711,0.361913,0.214180,-0.578802,-0.629884,-0.396535,-0.333159,96.204122,2.253897,62.361612
40790,NaN,0.531264,10.044670,-1.039298,0.470801,0.786914,0.257906,0.012639,0.412602,0.180724,-0.577614,-0.629647,-0.397109,-0.334979,96.221709,2.115516,62.580502
40791,NaN,0.246214,9.880427,-1.257366,0.115738,0.618641,0.130565,-0.049658,0.455579,0.169320,-0.576575,-0.629103,-0.397778,-0.336991,96.203580,1.988239,62.825959
40792,NaN,-0.056768,9.964021,-1.261666,-0.031983,0.330707,0.225554,-0.042826,0.477503,0.156821,-0.575468,-0.628542,-0.398518,-0.339052,96.189612,1.859675,63.083349
40793,NaN,-0.042500,10.310370,-1.180742,0.067523,0.284001,0.561050,-0.120901,0.503876,0.145678,-0.574589,-0.627656,-0.399274,-0.341285,96.130503,1.743122,63.357866
40794,NaN,-0.267933,10.106635,-1.085079,0.007197,0.028507,0.355515,-0.147978,0.505330,0.172130,-0.573723,-0.626766,-0.399863,-0.343681,96.055541,1.604833,63.630411
40795,NaN,-0.242251,10.066672,-0.760334,0.279045,-0.107406,0.281133,-0.172779,0.476284,0.216828,-0.572932,-0.625911,-0.400223,-0.346131,95.964872,1.450111,63.885197
40796,NaN,-0.158131,9.825426,-0.591365,0.409338,-0.118251,0.022557,-0.277166,0.399879,0.293922,-0.572463,-0.625065,-0.399900,-0.348798,95.812677,1.249837,64.090940
40797,NaN,-0.258288,9.373600,-1.094643,-0.164179,0.003872,-0.373289,-0.214137,0.346811,0.297317,-0.571913,-0.624468,-0.399560,-0.351151,95.695083,1.057809,64.267928
40798,NaN,-0.472598,9.264425,-1.289399,-0.467266,-0.126321,-0.459555,-0.067566,0.337623,0.290735,-0.570913,-0.624315,-0.399432,-0.353191,95.660924,0.863888,64.439085
40799,NaN,-0.455965,10.337885,-1.398055,-0.474933,-0.126787,0.617679,-0.059830,0.406141,0.342723,-0.569676,-0.624138,-0.399386,-0.355546,95.630921,0.642960,64.647686
40800,NaN,-0.622640,10.375371,-1.044666,-0.252153,-0.465194,0.620298,-0.162021,0.460387,0.370775,-0.568576,-0.623648,-0.399186,-0.358379,95.541922,0.397106,64.884719
40801,NaN,-0.596567,10.291460,-0.802991,-0.061329,-0.577254,0.510958,-0.125501,0.469096,0.423456,-0.567264,-0.623321,-0.398944,-0.361285,95.472650,0.127178,65.125303
40802,NaN,-0.562356,10.537318,-0.800075,-0.054569,-0.600432,0.752712,-0.127458,0.483455,0.488966,-0.565787,-0.623109,-0.398496,-0.364447,95.401099,-0.186419,65.369753
40803,NaN,-0.629981,10.903579,-0.821685,-0.106018,-0.718976,1.115787,-0.119110,0.511747,0.552053,-0.564122,-0.622963,-0.397975,-0.367829,95.332767,-0.531400,65.628438
40804,NaN,-0.773493,10.631838,-0.334732,0.216321,-1.092967,0.794129,-0.159159,0.482233,0.612373,-0.562505,-0.622891,-0.397071,-0.371388,95.240081,-0.914394,65.866565
40805,NaN,-0.914432,10.602471,-0.302225,0.145220,-1.293043,0.753597,-0.148539,0.429536,0.694265,-0.560815,-0.623077,-0.395810,-0.374961,95.152474,-1.335484,66.072022
40806,NaN,-1.353785,10.925213,-0.610809,-0.333405,-1.659882,1.082224,-0.115796,0.366893,0.772320,-0.558976,-0.623635,-0.394153,-0.378509,95.082964,-1.802813,66.237385
40807,NaN,-1.009897,11.643763,-0.466813,-0.060029,-1.532751,1.783053,-0.090069,0.324045,0.873377,-0.556952,-0.624513,-0.392133,-0.382125,95.027953,-2.320295,66.374675
40808,NaN,-0.897906,11.961463,-0.201023,0.192502,-1.658379,2.067325,-0.138341,0.349630,1.017064,-0.554727,-0.625491,-0.389603,-0.386327,94.943337,-2.925676,66.519242
40809,NaN,-1.800992,11.929457,-0.077817,-0.119418,-2.646123,1.957770,-0.134628,0.356611,1.165180,-0.552186,-0.626715,-0.386653,-0.390920,94.859573,-3.610961,66.662372
40810,NaN,-1.831816,12.158473,-0.704356,-0.767572,-2.586154,2.203983,-0.163611,0.288627,1.361924,-0.549446,-0.628360,-0.382799,-0.395902,94.760282,-4.409416,66.757576
40811,NaN,-1.855317,12.604764,-1.240923,-1.340479,-2.607151,2.647827,-0.217554,0.292331,1.599990,-0.546377,-0.630254,-0.378104,-0.401609,94.629636,-5.339459,66.846165
40812,NaN,-1.948504,12.897244,-1.522528,-1.722208,-2.807615,2.899537,-0.076896,0.350080,1.699989,-0.542506,-0.632571,-0.373483,-0.407495,94.574651,-6.332920,66.964298
40813,NaN,-1.409046,13.898804,-1.152258,-1.246292,-2.807006,3.863979,-0.158485,0.495928,1.894964,-0.538186,-0.634668,-0.368467,-0.414470,94.461932,-7.440359,67.159818
40814,NaN,-1.569169,13.731372,-0.579830,-0.915914,-3.389106,3.567025,-0.336450,0.699609,2.113722,-0.533533,-0.636205,-0.362873,-0.422976,94.227217,-8.684256,67.466664
40815,NaN,-1.696039,13.913921,-0.052231,-0.606036,-3.996233,3.608604,-0.123649,0.913230,2.239672,-0.527485,-0.637989,-0.357871,-0.432039,94.087925,-10.004774,67.897602
40816,NaN,-1.839149,14.772181,0.865113,0.074668,-4.918531,4.263545,-0.071171,1.120306,2.435327,-0.520384,-0.639717,-0.352827,-0.442127,93.946090,-11.446998,68.445778
40817,NaN,-3.557225,15.077549,1.929089,0.338181,-7.248447,4.009072,-0.067642,1.291981,2.630973,-0.512440,-0.641286,-0.347560,-0.453166,93.771587,-13.003586,69.093995
40818,NaN,-6.667503,15.695811,2.188974,-0.580468,-10.657015,3.666165,0.125889,1.193853,2.742115,-0.503679,-0.643627,-0.342034,-0.463750,93.702627,-14.620453,69.687667
40819,NaN,-8.232845,17.939923,0.680026,-2.638850,-12.568347,5.191469,0.196658,0.999400,3.080296,-0.494118,-0.647018,-0.335024,-0.474315,93.690737,-16.421335,70.158886
40820,NaN,-9.189453,17.146907,-0.677957,-4.267146,-13.237622,3.804959,0.221548,0.932491,3.415027,-0.483656,-0.650995,-0.326724,-0.485318,93.691369,-18.411219,70.582301
40821,NaN,-10.720455,18.668802,-1.418944,-5.575954,-15.381367,4.248886,0.341862,0.925155,3.830349,-0.471632,-0.655736,-0.317235,-0.496927,93.753004,-20.638382,70.988540
40822,NaN,-11.993522,19.819760,-2.879980,-7.483812,-17.063821,4.247698,0.237125,0.870518,4.255691,-0.458789,-0.660744,-0.305836,-0.509309,93.754913,-23.104964,71.349816
40823,NaN,-10.724227,17.581524,-3.739744,-7.858174,-15.414425,1.963372,0.400318,0.816153,4.412829,-0.444852,-0.666192,-0.294048,-0.521373,93.851983,-25.661523,71.673997
40824,NaN,-6.424969,16.156316,-3.488002,-6.338053,-11.745340,1.861898,0.732229,0.646368,4.426124,-0.429817,-0.672485,-0.282580,-0.532137,94.176525,-28.215681,71.886454
40825,NaN,0.525917,16.866938,-3.238751,-4.305088,-6.959174,5.295027,0.865483,0.517984,4.532927,-0.413986,-0.679218,-0.270656,-0.542240,94.621303,-30.830663,71.993428
40826,NaN,3.641554,16.878877,-1.854843,-2.269850,-5.516132,6.495720,0.491367,0.748639,4.551292,-0.398863,-0.684195,-0.258024,-0.553362,94.771658,-33.461884,72.243208
40827,NaN,5.736409,16.319986,-1.552816,-1.585119,-4.357531,6.923715,0.260542,0.822263,4.477687,-0.384404,-0.688066,-0.244978,-0.564610,94.746876,-36.060337,72.551151
40828,NaN,4.937815,16.877005,-6.441041,-6.708658,-4.781111,7.003680,0.637657,0.319954,4.057251,-0.370294,-0.693225,-0.233404,-0.572577,95.129391,-38.388715,72.526084
40829,NaN,-0.010558,18.211574,-6.456211,-8.092842,-9.921239,4.657365,0.663674,0.046855,3.560358,-0.357668,-0.698389,-0.222991,-0.578448,95.649708,-40.424790,72.307970
40830,NaN,-5.111071,13.205487,-6.327475,-8.688912,-10.792769,-2.845126,0.155315,-0.147558,3.265663,-0.347810,-0.702657,-0.211771,-0.583484,95.984708,-42.273179,71.939538
40831,NaN,-8.243706,8.441857,-5.821738,-8.450610,-10.036997,-8.835115,0.211192,-0.271147,2.533005,-0.339919,-0.706467,-0.202979,-0.586650,96.400603,-43.701851,71.509338
40832,NaN,-8.173424,5.526553,-0.820620,-3.300545,-9.174618,-11.530143,-0.188075,-0.140364,2.256835,-0.334100,-0.708824,-0.194244,-0.590098,96.519270,-44.971681,71.189853
40833,NaN,0.229791,3.351819,-0.488470,-0.838800,-2.092884,-7.274577,-0.905264,-0.649928,1.817940,-0.332538,-0.710981,-0.184013,-0.591662,96.502043,-45.966920,70.488591
40834,NaN,5.600920,4.602345,-5.125678,-4.245460,1.676212,-2.197535,-0.027398,-0.278487,0.926283,-0.330166,-0.712622,-0.180217,-0.592184,96.721738,-46.469177,70.166866
40835,NaN,-3.196980,11.595787,1.535080,-0.844815,-10.780857,-4.326458,-0.452565,0.457684,0.193306,-0.330772,-0.710716,-0.178923,-0.594524,96.206074,-46.611320,70.522164
40836,NaN,-8.416300,4.706559,-1.292763,-3.842241,-8.485973,-12.620247,-1.578512,0.499085,-0.111104,-0.336274,-0.706517,-0.175492,-0.597458,95.000726,-46.568960,70.940909
40837,NaN,-10.074095,1.638327,-0.769139,-3.247085,-7.524010,-15.945274,-1.261971,0.395690,-0.496015,-0.341838,-0.702787,-0.174115,-0.599100,94.021855,-46.306172,71.296052
40838,NaN,-9.675487,2.101301,-0.606220,-3.088381,-7.673902,-15.287197,-0.859578,-0.031644,-1.062813,-0.348085,-0.700488,-0.175270,-0.597858,93.513205,-45.689670,71.323356
40839,NaN,-7.750065,1.905859,-0.601665,-2.665856,-6.309181,-13.953214,-0.876669,-0.420009,-1.487808,-0.355937,-0.698913,-0.177102,-0.594528,93.208021,-44.827344,71.048002
40840,NaN,-5.349436,2.078186,-0.464926,-2.068985,-4.888996,-12.041440,-0.765727,-0.598768,-1.925105,-0.364871,-0.697599,-0.180535,-0.589602,93.050657,-43.698895,70.649922
40841,NaN,-3.941631,3.420772,0.056605,-1.521844,-4.988608,-10.006850,-0.706370,-0.603072,-2.324979,-0.374685,-0.695963,-0.185427,-0.583835,92.908221,-42.353407,70.267774
40842,NaN,-3.378566,3.851671,-0.072639,-1.622782,-4.817552,-9.171413,-0.776331,-0.676926,-2.754637,-0.386042,-0.693866,-0.191518,-0.576924,92.743375,-40.749151,69.850821
40843,NaN,-2.908134,4.209935,-0.260635,-1.778355,-4.603509,-8.437381,-0.730107,-0.809501,-3.141765,-0.398341,-0.691715,-0.198701,-0.568658,92.645482,-38.932036,69.353067
40844,NaN,-2.353843,4.664141,-0.497497,-1.957008,-4.319158,-7.564549,-0.741339,-0.980463,-3.506710,-0.411809,-0.689431,-0.206795,-0.558869,92.591146,-36.890127,68.755412
40845,NaN,-2.120850,5.165148,-0.625015,-2.113441,-4.275556,-6.843507,-0.748649,-1.167648,-3.845360,-0.426238,-0.687060,-0.215488,-0.547572,92.576297,-34.661766,68.049760
40846,NaN,-2.272386,5.545776,-0.402697,-2.027925,-4.527822,-6.427121,-0.824615,-1.333988,-4.162599,-0.441829,-0.684303,-0.224694,-0.534817,92.541977,-32.235517,67.260115
40847,NaN,-2.230973,5.778045,-0.332490,-1.994811,-4.463221,-5.996035,-0.861165,-1.464475,-4.478635,-0.458253,-0.681117,-0.234391,-0.520716,92.487150,-29.637877,66.410026
40848,NaN,-2.509591,6.072931,-0.422698,-2.219566,-4.582940,-5.639168,-0.833358,-1.532709,-4.783540,-0.475224,-0.677369,-0.244984,-0.505289,92.421186,-26.852151,65.545657
40849,NaN,-2.569653,6.877006,-0.851731,-2.734367,-4.555560,-4.676610,-0.732696,-1.625857,-4.995762,-0.492135,-0.673406,-0.256077,-0.488623,92.389548,-23.955981,64.644494
40850,NaN,-2.641818,7.897749,-1.441760,-3.385614,-4.443215,-3.471585,-0.671274,-1.731238,-5.233514,-0.509240,-0.669015,-0.267758,-0.470531,92.365152,-20.908576,63.705619
40851,NaN,-2.559124,9.344777,-1.962839,-3.901029,-4.227013,-1.774398,-0.630827,-1.868957,-5.429145,-0.526398,-0.664287,-0.279537,-0.451096,92.337098,-17.759344,62.703381
40852,NaN,-2.307473,10.597662,-2.386460,-4.154273,-3.669604,-0.191356,-0.708304,-2.005069,-5.558643,-0.543890,-0.658867,-0.291058,-0.430538,92.228432,-14.520571,61.639446
40853,NaN,-2.027664,11.366712,-2.786766,-4.255376,-2.822842,0.909218,-0.766391,-2.120174,-5.694787,-0.561491,-0.652780,-0.302237,-0.408974,92.041165,-11.217453,60.515481
40854,NaN,-2.094541,12.637928,-3.168646,-4.460336,-2.233777,2.402178,-0.756243,-2.228684,-5.861840,-0.579066,-0.646010,-0.313471,-0.386121,91.803801,-7.806937,59.334833
40855,NaN,-2.105866,14.341815,-3.335351,-4.369270,-1.576025,4.315130,-0.729503,-2.362987,-6.041203,-0.596469,-0.638676,-0.324537,-0.361931,91.520616,-4.310502,58.071576
40856,NaN,-1.676324,15.473317,-3.279019,-3.721181,-0.412512,5.642895,-0.741180,-2.401575,-6.232268,-0.613706,-0.630312,-0.335804,-0.336612,91.152711,-0.697397,56.777122
40857,NaN,-1.672025,16.364809,-3.330287,-3.285409,0.593070,6.632312,-0.712612,-2.344991,-6.452996,-0.630374,-0.620891,-0.347514,-0.310414,90.719717,3.018592,55.490653
40858,NaN,-2.070151,17.948217,-3.511326,-3.029958,1.508273,8.274851,-0.527048,-2.246688,-6.678395,-0.645915,-0.610695,-0.360177,-0.283050,90.308916,6.867455,54.232041
40859,NaN,-2.211921,20.595780,-4.355203,-2.872448,3.340369,10.886177,-0.204409,-2.140260,-6.920152,-0.659756,-0.600230,-0.373836,-0.254348,90.003413,10.832932,52.998729
40860,NaN,-1.306109,24.238464,-5.822118,-2.123741,6.845257,14.092434,0.103078,-1.972951,-7.125190,-0.671771,-0.589318,-0.388626,-0.224495,89.801438,14.924063,51.830558
40861,NaN,1.038977,27.458001,-8.691471,-1.259988,12.541808,16.096765,0.215452,-1.779754,-7.193445,-0.682203,-0.577685,-0.403784,-0.194518,89.607421,19.037430,50.738834
40862,NaN,6.203533,30.901265,-10.359675,2.599328,19.759323,16.702201,0.221821,-1.268612,-7.111148,-0.690615,-0.564912,-0.419979,-0.165963,89.440274,23.115044,49.921596
40863,NaN,16.564362,32.122848,-5.765520,13.752935,25.775899,12.220530,-0.077848,-0.156726,-6.708027,-0.696341,-0.550397,-0.438048,-0.142427,89.334465,26.954277,49.773454
40864,NaN,23.066772,28.518804,-1.611814,20.221399,27.278492,4.136283,-0.688490,1.232722,-5.859978,-0.699404,-0.534022,-0.457792,-0.126811,89.303404,30.326299,50.529993
40865,NaN,18.976810,16.313764,-1.766927,13.953284,20.481684,-5.934901,-1.214214,1.996761,-4.854777,-0.700904,-0.517231,-0.476767,-0.117896,89.293265,33.118791,51.830766
40866,NaN,17.809030,16.588024,-7.978241,8.186293,23.990246,-6.158190,0.186623,2.525099,-4.025546,-0.696584,-0.506656,-0.495998,-0.109808,90.381622,35.432140,53.570484
40867,NaN,17.371477,20.315631,-6.671095,9.946627,24.937388,-3.638215,-0.305180,2.712847,-3.010600,-0.692144,-0.496559,-0.512770,-0.106925,91.366108,37.130456,55.526768
40868,NaN,14.735146,13.190007,-9.562076,3.398540,21.637359,-8.143158,-0.890440,1.879622,-1.570313,-0.690316,-0.488425,-0.522639,-0.108413,91.703145,38.000548,56.912248
40869,NaN,15.693996,10.112576,-10.907932,1.275805,21.537501,-11.245783,0.247637,1.252706,-0.501001,-0.686699,-0.487306,-0.528277,-0.109090,92.414949,38.258788,57.832775
40870,NaN,16.179679,16.713092,-3.922089,9.621706,21.282202,-6.499098,1.285928,1.017763,0.515392,-0.680562,-0.492547,-0.531176,-0.109931,93.598116,37.930462,58.550297
40871,NaN,13.529274,17.134021,-1.126570,10.977529,18.115647,-4.409830,-0.026307,0.632854,1.619756,-0.678036,-0.496419,-0.529275,-0.117063,93.813084,36.978167,58.926038
40872,NaN,7.515435,15.118986,-1.885406,7.025124,13.338263,-1.980594,0.090235,0.151204,2.650935,-0.675787,-0.503659,-0.523180,-0.126181,93.855880,35.451485,58.904131
40873,NaN,8.484480,15.078310,6.351064,14.169865,9.273432,-2.541957,-0.892809,-1.225367,3.062700,-0.679215,-0.509379,-0.510657,-0.135756,92.789746,33.737520,57.924838
40874,NaN,0.669892,9.946988,6.799053,9.201288,1.010833,-2.071865,-0.397973,-1.172124,3.072606,-0.681028,-0.516656,-0.498467,-0.144216,92.081751,32.000025,57.033381
40875,NaN,-12.189025,17.239069,24.831876,20.230619,-15.488422,10.514140,0.005574,-0.578918,2.275347,-0.680773,-0.522754,-0.490556,-0.150440,91.855082,30.705651,56.588679
40876,NaN,-7.395279,12.161567,10.635736,8.867171,-6.527713,4.132055,0.321629,-1.156880,2.478165,-0.680836,-0.530797,-0.480284,-0.155065,91.631892,29.299353,55.769320
40877,NaN,-4.542526,12.271099,0.062485,1.449542,1.268522,3.129325,1.752289,-1.390435,2.689363,-0.677338,-0.544242,-0.469666,-0.156294,92.174674,27.782894,54.800759
40878,NaN,3.605051,15.747421,-3.663725,3.664457,10.201735,2.712146,1.944840,-1.191100,2.771556,-0.672564,-0.558224,-0.459480,-0.157864,92.905432,26.219608,53.952022
40879,NaN,5.330211,18.026652,-5.416546,3.985624,12.787646,4.444362,1.865798,-0.704064,2.964117,-0.666529,-0.571799,-0.450207,-0.161549,93.736617,24.544757,53.393461
40880,NaN,2.129732,18.727609,-2.754233,4.532969,8.505036,6.616896,0.987079,0.037118,3.018413,-0.661092,-0.581832,-0.442381,-0.169494,94.259066,22.809909,53.280431
40881,NaN,-3.661964,10.794037,-3.947571,-2.052367,2.452496,1.817764,0.418643,0.249235,2.992046,-0.656712,-0.589580,-0.434772,-0.179158,94.503630,21.086993,53.288849
40882,NaN,-4.547393,4.736893,-6.437443,-6.304309,1.651916,-3.325622,0.425744,-0.068984,2.933270,-0.652893,-0.597404,-0.426171,-0.187663,94.684315,19.406418,53.098901
40883,NaN,1.043008,6.048091,-10.869714,-6.293779,8.773826,-3.549891,1.027106,-0.301368,2.855166,-0.647712,-0.607079,-0.417541,-0.193866,95.167991,17.788734,52.765348
40884,NaN,5.987828,14.815855,-8.003053,1.008494,12.135783,3.267725,1.016012,-0.297448,2.861367,-0.642379,-0.616615,-0.408769,-0.200105,95.653270,16.164396,52.422065
40885,NaN,2.097598,17.900860,1.744350,6.853561,3.187234,6.641325,-0.121320,0.330249,2.686719,-0.639330,-0.621355,-0.401356,-0.209975,95.594586,14.611263,52.457102
40886,NaN,1.643349,8.078784,-1.329422,1.735221,3.158663,-2.279871,-0.243832,0.694116,2.258468,-0.636254,-0.624393,-0.396210,-0.219847,95.524428,13.275826,52.731385
40887,NaN,0.613701,9.426140,1.256818,3.322438,0.779908,-0.915584,0.305578,0.511231,2.075475,-0.631966,-0.628903,-0.391638,-0.227420,95.739520,12.061038,52.906779
40888,NaN,1.919893,10.825194,2.181910,5.013766,1.217862,0.137572,0.242229,0.385671,1.752051,-0.628406,-0.632692,-0.387542,-0.233707,95.904764,11.030865,53.022743
40889,NaN,-0.065648,10.017055,-0.720569,1.334920,1.226063,0.065457,0.301344,0.282205,1.475874,-0.625159,-0.636175,-0.384068,-0.238639,96.091827,10.170386,53.092690
40890,NaN,-0.882032,9.410411,-1.888921,-0.236470,1.121950,-0.242645,0.341430,0.188939,1.311653,-0.622106,-0.639576,-0.380819,-0.242701,96.294219,9.402433,53.115087
40891,NaN,0.136856,9.878178,-1.202833,0.945621,1.418416,-0.007763,0.355051,0.265570,1.171469,-0.619027,-0.642601,-0.378291,-0.246506,96.510769,8.715877,53.188664
40892,NaN,0.728398,10.274168,0.195031,2.427375,0.943527,0.154442,0.388883,0.346483,1.043930,-0.615800,-0.645396,-0.376416,-0.250132,96.754766,8.089815,53.313595
40893,NaN,0.335009,10.343017,-0.395859,1.717936,0.887634,0.361144,0.471412,0.377115,0.872735,-0.612464,-0.648034,-0.375314,-0.253137,97.047118,7.564895,53.465709
40894,NaN,0.105386,10.526885,-1.168412,0.991264,1.077744,0.677627,0.432232,0.413782,0.749388,-0.609307,-0.650286,-0.374630,-0.255981,97.320254,7.100299,53.644129
40895,NaN,0.371447,10.085180,-1.464226,0.824599,1.370196,0.258798,0.388624,0.475235,0.650323,-0.606310,-0.652099,-0.374425,-0.258769,97.570817,6.693044,53.863675
40896,NaN,0.219221,10.458390,-1.683057,0.615658,1.305919,0.683680,0.337267,0.566003,0.546678,-0.603413,-0.653458,-0.374726,-0.261659,97.798047,6.330414,54.140366
40897,NaN,-0.363682,10.375765,-1.736673,0.205669,0.798540,0.681333,0.202126,0.635505,0.480605,-0.600923,-0.654157,-0.375303,-0.264796,97.949885,6.005285,54.461414
40898,NaN,-0.577910,9.845111,-1.830065,-0.098825,0.617195,0.198225,0.192982,0.683400,0.401736,-0.598448,-0.654632,-0.376230,-0.267895,98.099002,5.713972,54.814244
40899,NaN,-0.561599,9.796820,-1.598792,0.080198,0.439311,0.119559,0.263479,0.737976,0.370997,-0.595690,-0.655149,-0.377542,-0.270914,98.289040,5.440856,55.200505
40900,NaN,-0.598738,9.959968,-1.455331,0.201594,0.267895,0.265248,0.290554,0.743034,0.338813,-0.592847,-0.655692,-0.378972,-0.273826,98.494030,5.178142,55.590407
40901,NaN,-0.391445,10.021915,-1.209173,0.529895,0.242746,0.272657,0.283312,0.704766,0.336905,-0.590112,-0.656226,-0.380310,-0.276587,98.690297,4.924518,55.958465
40902,NaN,-0.153850,10.150217,-1.338587,0.577301,0.458246,0.399997,0.210548,0.678786,0.334329,-0.587639,-0.656588,-0.381441,-0.279418,98.842649,4.667576,56.310263
40903,NaN,-0.346143,10.033178,-1.545049,0.276100,0.367821,0.334231,0.176735,0.670084,0.333437,-0.585306,-0.656829,-0.382529,-0.282249,98.972926,4.416976,56.657255
40904,NaN,-0.356371,10.105796,-1.818544,0.047722,0.460859,0.451150,0.104660,0.695498,0.331277,-0.583137,-0.656831,-0.383559,-0.285319,99.062011,4.158862,57.017471
40905,NaN,-0.474672,10.071477,-2.096375,-0.267975,0.468841,0.471423,0.043883,0.732243,0.332436,-0.581105,-0.656572,-0.384632,-0.288598,99.115490,3.902111,57.398781
40906,NaN,-0.477561,9.825330,-2.241227,-0.451358,0.503964,0.253610,0.054258,0.770127,0.344420,-0.578920,-0.656323,-0.385753,-0.292038,99.175000,3.629122,57.799324
40907,NaN,-0.426130,9.685927,-2.205463,-0.438443,0.486857,0.108673,0.014474,0.810284,0.309047,-0.576848,-0.655798,-0.387071,-0.295551,99.210919,3.377765,58.226303
40908,NaN,-0.313705,9.661117,-1.877879,-0.130129,0.366550,0.026549,0.045174,0.828330,0.303023,-0.574621,-0.655332,-0.388470,-0.299068,99.263632,3.122355,58.662994
40909,NaN,-0.405538,9.840957,-1.517875,0.133745,0.052629,0.151850,-0.016038,0.810980,0.339895,-0.572579,-0.654754,-0.389629,-0.302720,99.278074,2.852911,59.086955
40910,NaN,-0.477900,9.736069,-1.451175,0.111373,-0.079670,0.041572,-0.057098,0.756435,0.355101,-0.570728,-0.654178,-0.390483,-0.306338,99.265844,2.574582,59.477787
40911,NaN,-0.806811,10.161915,-1.524677,-0.076057,-0.383036,0.487187,-0.099490,0.720426,0.365634,-0.569077,-0.653526,-0.391158,-0.309920,99.226117,2.299103,59.848044
40912,NaN,-1.157358,9.885192,-1.628105,-0.416992,-0.662274,0.241888,-0.182962,0.645644,0.431460,-0.567717,-0.652890,-0.391241,-0.313628,99.135192,1.988522,60.169477
40913,NaN,-1.083316,9.822427,-1.626393,-0.424602,-0.639660,0.172756,-0.127432,0.539684,0.497631,-0.566288,-0.652678,-0.390916,-0.317039,99.071869,1.655673,60.425994
40914,NaN,-0.262139,10.166282,-1.325811,0.255345,-0.137310,0.438922,-0.087238,0.466771,0.461955,-0.564904,-0.652635,-0.390533,-0.320054,99.029415,1.344927,60.644041
40915,NaN,0.020088,10.116497,-1.323068,0.355571,0.064983,0.383562,-0.058222,0.454042,0.504354,-0.563392,-0.652752,-0.390045,-0.323062,99.001873,1.016356,60.851916
40916,NaN,0.274741,10.077410,-1.452403,0.334048,0.303536,0.362537,0.041269,0.470917,0.460984,-0.561570,-0.653048,-0.389876,-0.325828,99.030576,0.706059,61.072553
40917,NaN,0.299147,10.472267,-1.181076,0.608204,0.121733,0.711941,-0.060816,0.557526,0.474316,-0.559900,-0.652916,-0.389762,-0.329087,98.999827,0.385196,61.341655
40918,NaN,-0.409361,9.982138,-1.131483,0.211131,-0.536217,0.225169,-0.053264,0.602295,0.464028,-0.558112,-0.652719,-0.389788,-0.332467,98.972115,0.061641,61.636526
40919,NaN,-0.494355,10.464456,-0.688277,0.596933,-0.902215,0.630127,0.009646,0.574895,0.482235,-0.556149,-0.652753,-0.389802,-0.335657,98.978681,-0.265069,61.914961
40920,NaN,-0.261376,10.601946,-0.623798,0.754931,-0.789225,0.754508,-0.028359,0.537720,0.530243,-0.554280,-0.652843,-0.389463,-0.338952,98.962018,-0.620068,62.167494
40921,NaN,-0.608334,10.839595,-0.735207,0.496972,-1.121582,0.999439,-0.012242,0.555671,0.597423,-0.552215,-0.653053,-0.389000,-0.342432,98.952875,-1.010168,62.424901
40922,NaN,-0.868013,11.044854,-0.812896,0.301561,-1.403033,1.202894,-0.018396,0.562934,0.698246,-0.549960,-0.653431,-0.388185,-0.346242,98.938293,-1.462209,62.676976
40923,NaN,-1.276659,11.263391,-1.006163,-0.064839,-1.781507,1.426860,0.021686,0.566693,0.811353,-0.547372,-0.654104,-0.387097,-0.350268,98.944912,-1.974304,62.921762
40924,NaN,-1.404723,12.199073,-1.372948,-0.374507,-1.930075,2.386037,0.024383,0.594624,0.950350,-0.544451,-0.654998,-0.385601,-0.354771,98.950337,-2.571613,63.169476
40925,NaN,-1.912421,12.177339,-1.436419,-0.714638,-2.475004,2.326923,-0.007370,0.612244,1.102299,-0.541322,-0.656032,-0.383608,-0.359774,98.935209,-3.252444,63.414325
40926,NaN,-2.150448,11.789713,-1.559333,-1.035447,-2.726399,1.915298,-0.016975,0.619368,1.280523,-0.537855,-0.657350,-0.380994,-0.365304,98.911867,-4.038414,63.647285
40927,NaN,-2.348578,11.968375,-1.828458,-1.413705,-2.969897,2.073401,-0.018613,0.650182,1.489490,-0.533932,-0.658956,-0.377772,-0.371459,98.884500,-4.941590,63.880222
40928,NaN,-2.773110,12.517331,-2.203694,-1.962601,-3.460090,2.572841,-0.014251,0.707450,1.719805,-0.529409,-0.660860,-0.373904,-0.378398,98.854118,-5.983412,64.125691
40929,NaN,-2.604009,13.144940,-2.176930,-1.902474,-3.645978,3.125255,0.002746,0.818382,1.931458,-0.524179,-0.662922,-0.369645,-0.386178,98.823898,-7.151379,64.417072
40930,NaN,-2.477886,13.529180,-1.764885,-1.554953,-4.030862,3.363786,-0.029011,1.026090,2.156665,-0.518162,-0.664838,-0.365058,-0.395262,98.755189,-8.467660,64.808754
40931,NaN,-3.386804,14.278575,-0.487247,-0.839274,-5.795273,3.651544,0.008268,1.221681,2.357003,-0.511192,-0.666716,-0.360345,-0.405368,98.683262,-9.911057,65.298381
40932,NaN,-3.745640,15.444992,0.152837,-0.453953,-6.948926,4.473423,-0.120752,1.337118,2.616837,-0.503812,-0.668373,-0.354714,-0.416688,98.514949,-11.512851,65.837073
40933,NaN,-4.716863,15.147867,0.773070,-0.422083,-8.332800,3.703040,-0.104762,1.504751,2.788451,-0.495611,-0.669863,-0.348897,-0.428863,98.321553,-13.221979,66.466845
40934,NaN,-6.994388,17.041288,1.508873,-0.629520,-11.527454,4.619922,0.267900,1.680804,2.951565,-0.485370,-0.672003,-0.343663,-0.441275,98.298400,-15.038599,67.193525
40935,NaN,-9.813273,16.890714,0.708214,-2.457070,-14.151257,3.445025,0.331453,1.570965,3.226993,-0.474348,-0.674806,-0.337283,-0.453731,98.311890,-17.000623,67.838334
40936,NaN,-11.851703,18.379496,-0.351511,-4.159758,-16.568411,3.844538,0.506350,1.242416,3.595251,-0.462294,-0.679150,-0.329156,-0.465506,98.471967,-19.145236,68.259203
40937,NaN,-10.736044,17.725621,-1.958787,-5.325101,-15.379710,3.161903,0.584512,1.062622,4.069142,-0.448974,-0.684600,-0.319056,-0.477440,98.715808,-21.543915,68.525617
40938,NaN,-9.610589,19.097938,-3.682751,-6.612582,-15.022078,4.371318,0.796455,0.991524,4.404683,-0.434032,-0.690886,-0.308003,-0.489312,99.102313,-24.126419,68.707063
40939,NaN,-6.445071,19.057925,-4.064717,-5.994706,-12.896252,4.983727,0.946707,0.884795,4.663339,-0.417852,-0.697782,-0.296017,-0.500873,99.616889,-26.847558,68.775559
40940,NaN,-1.538510,19.102818,-4.200375,-4.622705,-9.565402,6.679310,1.096370,0.481886,4.744892,-0.401308,-0.705696,-0.283118,-0.510675,100.354596,-29.572705,68.545771
40941,NaN,5.931390,18.479008,-2.127520,-0.405081,-4.635712,9.146475,0.864961,0.547972,4.845982,-0.384971,-0.712703,-0.269218,-0.520936,100.977399,-32.361674,68.301775
40942,NaN,6.606081,17.812394,-2.085989,-0.325543,-4.630308,8.725389,0.694057,0.785524,4.598965,-0.369359,-0.718001,-0.256071,-0.531485,101.424883,-35.033055,68.213709
40943,NaN,4.156802,18.298938,-7.986507,-6.853866,-6.096520,8.400095,1.005892,0.685240,4.274866,-0.353405,-0.723360,-0.244578,-0.540405,102.089923,-37.513193,68.066555
40944,NaN,-2.845754,18.009924,-5.513797,-6.640396,-12.348634,3.080282,0.805505,0.604915,3.795964,-0.339431,-0.727668,-0.234048,-0.548186,102.656785,-39.710420,67.899627
40945,NaN,-7.559482,13.232537,-4.954561,-7.367994,-13.040035,-4.116987,0.398027,0.388585,3.327511,-0.328343,-0.731095,-0.223638,-0.554687,103.067958,-41.620810,67.621039
40946,NaN,-10.228739,8.418736,-4.306932,-7.357812,-11.827690,-9.915965,0.399978,0.070565,2.620049,-0.319514,-0.734438,-0.215275,-0.558719,103.580721,-43.088168,67.202174
40947,NaN,-9.066773,5.762986,-1.874986,-4.605008,-9.703063,-11.703247,0.240138,-0.014487,2.124794,-0.312676,-0.737134,-0.208087,-0.561754,104.008585,-44.270573,66.784116
40948,NaN,1.513172,5.809103,1.051153,1.153373,-3.461243,-4.931234,-0.160997,0.133135,2.033192,-0.307416,-0.738602,-0.200355,-0.565526,104.128804,-45.415319,66.485006
40949,NaN,5.270675,2.941067,-6.618284,-5.035332,2.736757,-2.928864,-0.599273,0.070199,0.971423,-0.306788,-0.738470,-0.195157,-0.567853,103.889136,-45.967145,66.342245
40950,NaN,-1.681517,7.735000,-2.148216,-2.969712,-6.282523,-5.455751,0.565513,0.866024,0.149762,-0.303436,-0.737033,-0.197552,-0.570686,103.739096,-46.165187,67.002835
40951,NaN,-7.868333,9.029975,0.920683,-1.755717,-11.880609,-9.553365,-1.147286,0.920647,-0.039779,-0.306841,-0.732632,-0.195796,-0.575119,102.546085,-46.265052,67.746925
40952,NaN,-7.939035,2.343725,0.629834,-1.614854,-6.954889,-14.048207,-1.902851,0.867240,-0.246128,-0.313667,-0.726955,-0.192568,-0.579713,100.922570,-46.223661,68.487645
40953,NaN,-7.806190,-0.156529,1.009746,-0.968820,-5.178824,-15.662565,-1.307300,0.721840,-0.837500,-0.320120,-0.722006,-0.192928,-0.582245,99.668427,-45.827764,69.191645
40954,NaN,-6.782487,1.012787,1.522924,-0.298275,-5.544979,-14.115051,-0.788285,0.429824,-1.440401,-0.326749,-0.718094,-0.196539,-0.582193,98.839902,-45.048157,69.723161
40955,NaN,-4.835236,2.256084,1.102649,-0.345768,-5.088352,-11.729305,-0.708498,0.140799,-1.853760,-0.334515,-0.714696,-0.201333,-0.580323,98.205880,-44.012149,70.050553
40956,NaN,-3.192269,3.119770,0.785231,-0.346094,-4.518718,-9.836534,-0.798321,0.049042,-2.247723,-0.343834,-0.710919,-0.207143,-0.577463,97.559641,-42.735401,70.328113
40957,NaN,-2.567131,3.717398,0.839486,-0.214400,-4.491248,-8.866490,-0.896035,0.037432,-2.661246,-0.354612,-0.706472,-0.214039,-0.573878,96.859772,-41.227888,70.609123
40958,NaN,-2.437171,4.207403,1.142981,0.044652,-4.760923,-8.303400,-0.933513,0.001825,-3.063801,-0.366671,-0.701454,-0.222186,-0.569340,96.158827,-39.478785,70.868229
40959,NaN,-2.458968,3.926335,1.179662,0.094679,-4.559475,-8.379492,-0.750072,-0.047533,-3.512890,-0.379278,-0.696227,-0.232227,-0.563460,95.591255,-37.476440,71.092079
40960,NaN,-1.696643,4.845556,1.412514,0.417178,-4.525964,-7.039356,-0.783509,-0.154283,-3.847470,-0.392970,-0.690583,-0.243104,-0.556390,95.059827,-35.267996,71.233839
40961,NaN,-1.144812,5.060407,1.021965,0.168287,-3.991539,-6.348867,-0.880842,-0.168792,-4.103464,-0.407529,-0.684210,-0.254415,-0.548680,94.491790,-32.919679,71.349444
40962,NaN,-1.537229,5.090784,0.697993,-0.245430,-4.081035,-6.341874,-0.897351,-0.258023,-4.374839,-0.422848,-0.677360,-0.266358,-0.539849,93.957474,-30.403513,71.390466
40963,NaN,-2.049446,5.455884,0.575940,-0.531310,-4.483690,-6.083535,-0.843616,-0.409957,-4.617860,-0.438582,-0.670374,-0.278756,-0.529660,93.512065,-27.750743,71.315383
40964,NaN,-2.002329,6.350961,0.715895,-0.451474,-4.694129,-5.057790,-0.787541,-0.567329,-4.826878,-0.454685,-0.663222,-0.291548,-0.518072,93.144338,-24.965241,71.129977
40965,NaN,-2.097530,6.639171,0.626739,-0.559074,-4.622071,-4.598840,-0.608804,-0.677770,-5.131826,-0.470815,-0.655918,-0.305323,-0.504859,92.899699,-22.011323,70.872328
40966,NaN,-2.214820,8.227707,0.504573,-0.771845,-4.959667,-2.910265,-0.459096,-0.788253,-5.410710,-0.487029,-0.648319,-0.319964,-0.490008,92.749614,-18.886752,70.551724
40967,NaN,-2.171206,9.422111,0.301438,-0.935188,-4.829491,-1.484537,-0.436773,-0.900814,-5.600578,-0.503397,-0.640271,-0.334700,-0.473942,92.615573,-15.660014,70.165445
40968,NaN,-2.351325,10.132514,-0.028575,-1.225717,-4.585457,-0.558600,-0.449864,-1.008502,-5.771287,-0.520010,-0.631588,-0.349451,-0.456695,92.466263,-12.324660,69.719508
40969,NaN,-2.745026,10.865588,-0.455794,-1.646532,-4.400856,0.370004,-0.363581,-1.157859,-5.959843,-0.536537,-0.622613,-0.364241,-0.437960,92.357314,-8.887831,69.187866
40970,NaN,-2.989376,12.476683,-0.622888,-1.733650,-4.167286,2.210929,-0.247688,-1.348834,-6.118795,-0.552927,-0.613443,-0.378972,-0.417540,92.294610,-5.346954,68.551001
40971,NaN,-2.901245,14.165608,-0.444110,-1.292910,-3.541193,4.151448,-0.212478,-1.539654,-6.280529,-0.569309,-0.603880,-0.393308,-0.395633,92.220267,-1.719304,67.806471
40972,NaN,-2.838849,15.692255,-0.031725,-0.552456,-2.793961,5.875058,-0.178327,-1.693514,-6.502415,-0.585747,-0.593580,-0.407564,-0.372095,92.115593,2.047185,66.975647
40973,NaN,-3.390652,17.615505,0.112066,-0.175772,-2.271426,7.977815,-0.128791,-1.872428,-6.763554,-0.602159,-0.582570,-0.421633,-0.346760,91.977718,5.955499,66.036299
40974,NaN,-4.124265,20.838659,-0.270851,-0.098096,-1.264005,11.389690,0.102204,-2.152789,-6.969906,-0.618112,-0.571510,-0.435364,-0.319016,91.881409,9.995175,64.924934
40975,NaN,-3.037581,25.374183,-1.559956,0.366290,2.436151,15.665582,0.405649,-2.421547,-7.254068,-0.633335,-0.560449,-0.448905,-0.288562,91.846444,14.191697,63.641723
40976,NaN,1.918250,30.929945,-2.248575,3.656714,9.980992,19.375438,0.442205,-2.387548,-7.378981,-0.647652,-0.548288,-0.462328,-0.257254,91.735949,18.466956,62.351836
40977,NaN,9.324878,33.618733,-2.949922,7.939116,19.060773,18.453502,0.166480,-1.991054,-7.203343,-0.660609,-0.534385,-0.475487,-0.227906,91.447025,22.621519,61.252974
40978,NaN,15.996054,35.023346,-2.432446,12.640427,26.282804,15.432005,-0.481921,-1.056032,-6.687365,-0.671674,-0.517774,-0.489039,-0.203975,90.927965,26.469655,60.671428
40979,NaN,20.999957,31.391463,-4.618796,12.536165,31.192051,7.997998,-1.704028,-0.325654,-5.774424,-0.682467,-0.498059,-0.500903,-0.187811,89.863534,29.776384,60.481937
40980,NaN,22.455692,19.666448,-10.253587,5.231479,30.703029,-4.725845,-2.517855,0.295703,-4.780765,-0.692257,-0.477032,-0.511251,-0.178448,88.496320,32.519232,60.629460
40981,NaN,20.863451,13.705940,-13.296293,0.004340,28.276994,-10.290629,-1.060611,1.484874,-4.096434,-0.694476,-0.461474,-0.525055,-0.170475,88.412964,34.885396,61.571597
40982,NaN,19.249078,16.261939,-7.891565,4.281792,25.992816,-8.015984,-0.398777,2.547740,-3.095043,-0.691219,-0.449713,-0.540571,-0.166607,89.208140,36.687783,63.320782
40983,NaN,15.313524,14.994506,-5.340147,4.386403,21.483945,-7.160111,-0.121492,2.250401,-1.829777,-0.686867,-0.442454,-0.552275,-0.165652,90.112038,37.740891,64.927759
40984,NaN,17.093774,14.413463,-7.039331,2.979763,23.232529,-8.884757,-0.202871,1.407985,-0.387357,-0.683737,-0.439539,-0.557753,-0.167991,90.622337,37.954527,65.946655
40985,NaN,18.923860,13.950380,-8.204800,2.195982,24.799726,-10.246906,0.287945,0.754930,0.904482,-0.680233,-0.442432,-0.558548,-0.171933,91.114288,37.426880,66.478928
40986,NaN,15.011764,17.004396,-3.680766,5.812535,21.741660,-5.170444,0.315036,0.370233,1.781214,-0.676942,-0.448183,-0.556077,-0.177932,91.436538,36.396608,66.711480
40987,NaN,12.123461,14.993240,-0.590033,7.117448,17.178857,-4.681424,-0.983327,-0.499123,2.696272,-0.678068,-0.452777,-0.547382,-0.188651,90.647121,34.854305,66.320929
40988,NaN,5.937644,13.877330,-2.322639,3.138010,12.472860,-1.579268,0.243683,-0.414019,3.426475,-0.675311,-0.463356,-0.538325,-0.198652,90.613041,32.886667,66.005063
40989,NaN,-3.126443,12.003285,6.126105,7.180808,0.851171,1.980681,-0.574854,-0.329092,2.701746,-0.674784,-0.468998,-0.530302,-0.208537,90.158166,31.337038,65.766132
40990,NaN,-14.392908,8.233439,8.644332,4.556209,-10.983749,4.618588,-0.656421,0.320566,2.033948,-0.673306,-0.471870,-0.525849,-0.217900,89.891085,30.163768,65.975022
40991,NaN,-10.716806,8.930622,12.053030,9.004817,-9.359544,3.271219,-0.210050,0.156201,1.992054,-0.671190,-0.476236,-0.521390,-0.225512,89.822785,29.019654,66.077323
40992,NaN,-2.914637,9.623093,4.728496,5.141618,-0.105510,0.036342,1.003604,-0.280536,2.440953,-0.666719,-0.486289,-0.515671,-0.230418,90.309468,27.614198,65.888328
40993,NaN,-2.291291,13.684703,-3.258479,-1.098279,5.064035,3.464165,1.725262,-0.391557,2.497106,-0.660582,-0.498901,-0.510192,-0.233311,91.174608,26.183577,65.612170
40994,NaN,0.019774,18.325942,-3.785359,0.294855,8.570943,6.818468,1.507777,-0.411649,2.726965,-0.654605,-0.511302,-0.503674,-0.237435,91.905924,24.620882,65.300122
40995,NaN,2.911432,19.631149,-1.409055,3.831977,9.884309,7.022532,1.035055,-0.229027,3.127328,-0.648735,-0.522796,-0.496060,-0.244441,92.411701,22.832436,65.079338
40996,NaN,0.955668,14.924700,-1.432575,2.042707,6.193999,3.720779,0.612552,0.132512,3.140066,-0.642877,-0.532392,-0.488912,-0.253443,92.760329,21.023875,65.069125
40997,NaN,-2.858028,8.555713,-4.230859,-3.303131,1.900433,-0.607272,0.403862,0.142367,3.106663,-0.637438,-0.541067,-0.481522,-0.262784,92.989119,19.239243,65.057045
40998,NaN,-1.921225,6.373370,-8.065371,-6.830539,3.555599,-2.737387,0.985283,-0.276405,3.025834,-0.631370,-0.551838,-0.473632,-0.269295,93.468994,17.509270,64.783204
40999,NaN,4.370919,11.621972,-10.961927,-5.836068,11.348650,0.745243,1.684599,-0.741155,2.857150,-0.624538,-0.564868,-0.465580,-0.272235,94.274386,15.901926,64.221725
41000,NaN,3.530053,19.000222,0.738125,5.619006,6.533046,7.500182,0.643755,-0.105509,2.769418,-0.619114,-0.573466,-0.458204,-0.279077,94.595251,14.316485,64.028071
41001,NaN,0.839102,9.032886,-3.619280,-1.290692,3.967489,-0.981775,-0.287327,0.326463,2.401780,-0.615791,-0.577609,-0.451863,-0.288078,94.450165,12.927210,64.104556
41002,NaN,0.282147,8.228285,-1.082744,0.503168,2.020515,-1.774157,0.270980,0.278402,2.244971,-0.611084,-0.583133,-0.446541,-0.295183,94.619488,11.623894,64.159032
41003,NaN,2.240508,10.730275,0.927001,3.457413,3.031112,0.180949,0.074412,0.312144,1.998583,-0.607187,-0.587360,-0.441725,-0.302011,94.679627,10.465377,64.242384
41004,NaN,-0.508660,10.683648,-0.422974,0.989049,1.017157,0.796846,-0.036479,0.319685,1.744948,-0.603907,-0.590653,-0.437441,-0.308336,94.678080,9.445424,64.340718
41005,NaN,-1.277407,9.347942,-0.689340,0.157617,0.152114,-0.355349,0.033649,0.017369,1.541083,-0.601372,-0.594109,-0.432952,-0.312950,94.688467,8.561901,64.274097
41006,NaN,0.768322,9.980289,-0.662244,1.096001,1.893693,-0.022580,0.180550,-0.018653,1.351939,-0.598724,-0.597648,-0.429095,-0.316581,94.782900,7.782375,64.194523
41007,NaN,0.769062,10.530374,-0.159178,1.581454,1.593088,0.505514,0.206927,0.108070,1.197537,-0.595963,-0.600683,-0.426131,-0.320031,94.903013,7.090787,64.194662
41008,NaN,1.147404,10.177463,0.207423,1.994393,1.629279,0.102311,0.190765,0.100224,1.046421,-0.593470,-0.603366,-0.423528,-0.323058,95.014681,6.480060,64.195858
41009,NaN,0.858610,10.466492,-0.109819,1.600102,1.432740,0.467533,0.223269,0.137096,0.860322,-0.591107,-0.605651,-0.421667,-0.325541,95.147517,5.979455,64.226983
41010,NaN,0.450007,10.242834,-0.719645,0.834726,1.238920,0.356080,0.212342,0.186376,0.722803,-0.588866,-0.607548,-0.420313,-0.327810,95.277795,5.548876,64.291804
41011,NaN,0.826838,10.210377,-0.759253,0.946203,1.521190,0.301769,0.201360,0.256569,0.610365,-0.586707,-0.609028,-0.419513,-0.329953,95.405048,5.184355,64.402442
41012,NaN,0.713949,10.156145,-0.969159,0.693396,1.447824,0.287760,0.178001,0.389214,0.492102,-0.584510,-0.609989,-0.419389,-0.332226,95.525873,4.874034,64.594073
41013,NaN,0.428497,9.933613,-0.882392,0.616284,1.094069,0.089934,0.201413,0.529981,0.390905,-0.582127,-0.610542,-0.420049,-0.334552,95.665783,4.618894,64.871726
41014,NaN,0.105943,10.020574,-0.881345,0.491780,0.759243,0.206367,0.214324,0.625805,0.313338,-0.579607,-0.610825,-0.421212,-0.336941,95.816917,4.396047,65.207312
41015,NaN,0.059654,10.181989,-0.838987,0.533209,0.663888,0.368432,0.167414,0.670859,0.262849,-0.577232,-0.610758,-0.422604,-0.339388,95.941685,4.204258,65.571581
41016,NaN,-0.104494,10.051140,-1.150398,0.166815,0.605303,0.285106,0.096548,0.676575,0.248514,-0.575059,-0.610461,-0.423901,-0.341984,96.025188,4.013995,65.938959
41017,NaN,-0.084480,9.924734,-1.088551,0.209874,0.562662,0.153842,0.054462,0.657023,0.236546,-0.573088,-0.610020,-0.425130,-0.344543,96.082380,3.836924,66.296162
41018,NaN,-0.259259,9.845564,-1.144651,0.071803,0.393470,0.094508,0.034480,0.624192,0.221602,-0.571248,-0.609562,-0.426243,-0.347025,96.126068,3.664522,66.634736
41019,NaN,-0.306680,9.735760,-1.154563,0.021368,0.325559,-0.009342,-0.027967,0.580432,0.202066,-0.569738,-0.608932,-0.427207,-0.349420,96.131305,3.511312,66.949963
41020,NaN,-0.120053,9.845279,-1.112956,0.133552,0.457941,0.084535,-0.035111,0.547492,0.189828,-0.568320,-0.608328,-0.428069,-0.351719,96.130689,3.361677,67.246529
41021,NaN,-0.112165,10.030286,-1.035236,0.215409,0.416661,0.260588,-0.093097,0.526444,0.180307,-0.567152,-0.607551,-0.428823,-0.354022,96.095293,3.224243,67.532223
41022,NaN,-0.447125,9.956698,-1.367270,-0.245971,0.214396,0.242095,-0.160905,0.524129,0.199291,-0.566140,-0.606641,-0.429362,-0.356539,96.020290,3.071121,67.814994
41023,NaN,-0.738725,9.688987,-1.609853,-0.633586,0.011939,0.016460,-0.168495,0.523671,0.237615,-0.565096,-0.605767,-0.429794,-0.359151,95.939920,2.901859,68.095914
41024,NaN,-0.905962,10.018399,-1.545257,-0.623255,-0.192402,0.343656,-0.168818,0.520668,0.274836,-0.563971,-0.604992,-0.430073,-0.361882,95.858376,2.706825,68.372594
41025,NaN,-0.890129,10.033729,-1.526837,-0.627059,-0.214695,0.353915,-0.220446,0.502643,0.326076,-0.562960,-0.604189,-0.430075,-0.364785,95.745579,2.489229,68.636819
41026,NaN,-0.716282,9.960373,-1.287797,-0.383461,-0.172478,0.247311,-0.234984,0.495971,0.333293,-0.561971,-0.603385,-0.429980,-0.367740,95.623356,2.263487,68.896722
41027,NaN,-0.753882,10.013937,-1.023239,-0.179266,-0.332763,0.274496,-0.237142,0.443610,0.338080,-0.561104,-0.602657,-0.429741,-0.370527,95.497686,2.043438,69.127422
41028,NaN,-0.647196,9.882274,-1.043358,-0.208221,-0.255575,0.140099,-0.257837,0.364724,0.359015,-0.560409,-0.602075,-0.429151,-0.373200,95.357769,1.811470,69.311954
41029,NaN,-0.248771,9.966375,-1.047466,-0.101450,0.086164,0.210773,-0.269256,0.363961,0.429729,-0.559629,-0.601590,-0.428345,-0.376067,95.210341,1.544451,69.493351
41030,NaN,-0.173016,10.151103,-0.829916,0.103831,0.042976,0.373122,-0.265419,0.406956,0.441088,-0.558702,-0.601071,-0.427604,-0.379105,95.064884,1.264561,69.698893
41031,NaN,-0.478225,10.273840,-0.642318,0.147032,-0.349528,0.485324,-0.175471,0.444385,0.473828,-0.557373,-0.600778,-0.427059,-0.382128,94.970291,0.969186,69.925188
41032,NaN,-0.121308,10.780197,-0.324229,0.575875,-0.178060,0.956195,-0.172023,0.461014,0.534500,-0.555860,-0.600602,-0.426356,-0.385380,94.876509,0.634218,70.157999
41033,NaN,-0.219404,11.031564,-0.353722,0.497024,-0.318221,1.210922,-0.187728,0.499650,0.586221,-0.554220,-0.600392,-0.425592,-0.388898,94.772488,0.272777,70.411389
41034,NaN,-0.920524,10.510625,-0.353599,0.178757,-1.025786,0.692597,-0.226673,0.510072,0.651671,-0.552523,-0.600199,-0.424554,-0.392725,94.644360,-0.130407,70.667935
41035,NaN,-1.759779,10.126369,0.001683,0.167942,-1.987624,0.270013,-0.161548,0.396349,0.735474,-0.550711,-0.600561,-0.423094,-0.396277,94.552176,-0.571341,70.856893
41036,NaN,-1.133141,11.433504,0.146056,0.563582,-1.564009,1.556829,-0.153558,0.244345,0.795559,-0.549055,-0.601376,-0.421020,-0.399534,94.464129,-1.043613,70.956611
41037,NaN,-0.825994,11.668932,0.276932,0.753118,-1.412054,1.778728,-0.212295,0.212811,0.892050,-0.547452,-0.602269,-0.418467,-0.403056,94.342233,-1.565273,71.035350
41038,NaN,-1.400793,11.875714,0.177176,0.426402,-2.033037,1.964828,-0.214989,0.205367,1.015713,-0.545596,-0.603427,-0.415482,-0.406909,94.218009,-2.161057,71.105304
41039,NaN,-1.659748,12.472183,-0.047446,0.097786,-2.358253,2.546099,-0.236575,0.187148,1.157038,-0.543551,-0.604824,-0.411987,-0.411105,94.081579,-2.832728,71.160730
41040,NaN,-1.829231,12.303455,-0.223736,-0.209754,-2.586244,2.354324,-0.267074,0.153527,1.315188,-0.541309,-0.606520,-0.407820,-0.415693,93.927944,-3.596993,71.191969
41041,NaN,-1.810832,12.452116,-0.412282,-0.461395,-2.673955,2.481146,-0.272124,0.162765,1.481718,-0.538700,-0.608479,-0.403164,-0.420731,93.771276,-4.453035,71.224511
41042,NaN,-1.666976,13.099372,-0.750359,-0.805880,-2.671652,3.115736,-0.258750,0.237254,1.650361,-0.535501,-0.610628,-0.398177,-0.426412,93.617997,-5.411538,71.295626
41043,NaN,-1.462517,13.467289,-0.728085,-0.812763,-2.732738,3.450166,-0.275977,0.361218,1.808660,-0.531738,-0.612723,-0.392991,-0.432878,93.446934,-6.461362,71.435522
41044,NaN,-1.806864,13.410185,-0.434130,-0.755548,-3.371359,3.277125,-0.290247,0.514842,1.983822,-0.527276,-0.614741,-0.387588,-0.440283,93.254005,-7.619127,71.661470
41045,NaN,-2.050079,13.943987,-0.170337,-0.687425,-4.014129,3.680753,-0.240462,0.659169,2.172296,-0.521913,-0.616855,-0.382069,-0.448463,93.073542,-8.885488,71.969508
41046,NaN,-2.769084,14.607912,0.320174,-0.555975,-5.237341,4.094587,-0.277297,0.805749,2.382977,-0.515828,-0.618864,-0.376127,-0.457664,92.850365,-10.278319,72.361751
41047,NaN,-4.351271,14.997910,0.404906,-1.059785,-7.139653,4.040984,-0.206058,0.956067,2.534162,-0.508812,-0.620884,-0.370220,-0.467493,92.641520,-11.757676,72.844704
41048,NaN,-5.780843,15.928755,0.241114,-1.743721,-8.984869,4.449658,-0.233804,1.068039,2.799189,-0.500946,-0.622938,-0.363621,-0.478311,92.388562,-13.391691,73.395290
41049,NaN,-7.200712,17.290221,-0.037147,-2.545744,-10.972044,5.150867,-0.276374,1.111355,3.134715,-0.492210,-0.625230,-0.355905,-0.490049,92.088278,-15.214101,73.975878
41050,NaN,-9.654384,16.651872,-0.681005,-3.896020,-13.363675,3.497170,-0.314502,1.024118,3.398552,-0.482954,-0.627925,-0.346941,-0.502093,91.758490,-17.183913,74.514950
41051,NaN,-10.799438,15.570735,-1.743593,-5.191485,-14.268712,1.655953,0.353359,0.909323,3.440155,-0.471543,-0.632393,-0.339145,-0.512550,91.812804,-19.173128,74.994719
41052,NaN,-10.558336,17.422732,-2.315891,-5.765392,-14.989834,2.931081,0.442869,0.816979,3.847752,-0.458796,-0.637770,-0.329949,-0.523344,91.922364,-21.394501,75.413406
41053,NaN,-9.895511,17.724047,-2.260261,-5.586529,-15.049876,2.812796,0.251216,0.651401,4.125127,-0.446014,-0.643337,-0.318852,-0.534343,91.947338,-23.772138,75.727163
41054,NaN,-6.789971,15.319622,-3.474931,-5.959646,-11.570017,1.297724,0.252754,0.427465,4.343837,-0.432804,-0.649552,-0.306418,-0.544858,92.020804,-26.269243,75.898691
41055,NaN,-0.479287,16.317759,-3.026361,-4.282535,-7.191876,4.524303,0.574054,0.349175,4.419585,-0.418244,-0.656481,-0.294286,-0.554527,92.298632,-28.810057,76.012575
41056,NaN,2.834992,17.490599,-2.225115,-2.986354,-5.808667,6.806462,0.354823,0.428567,4.487188,-0.403898,-0.662491,-0.281355,-0.564633,92.424481,-31.389342,76.169987
41057,NaN,4.485053,17.633350,-1.325956,-1.958824,-5.457282,7.482790,-0.101754,0.647592,4.470860,-0.390585,-0.666607,-0.267474,-0.575792,92.198388,-33.966675,76.483505
41058,NaN,5.195907,16.733245,-5.745700,-6.241134,-4.171535,7.028072,0.080085,0.183020,4.237600,-0.377785,-0.671775,-0.253876,-0.584418,92.240599,-36.396783,76.492716
41059,NaN,1.044172,18.800308,-7.306881,-8.856576,-8.947854,5.979382,0.455699,-0.129264,3.682069,-0.365578,-0.677600,-0.242532,-0.590245,92.631326,-38.504223,76.282140
41060,NaN,-5.389096,15.222745,-6.043745,-8.525188,-12.319602,-1.278864,-0.070053,-0.446318,3.435733,-0.356161,-0.682877,-0.229836,-0.594982,92.884615,-40.457382,75.823946
41061,NaN,-8.213760,9.461812,-6.261580,-8.723790,-10.787354,-7.884691,-0.140433,-0.624013,2.952787,-0.348515,-0.687827,-0.218179,-0.598189,93.201302,-42.130643,75.224516
41062,NaN,-10.157436,4.977835,-2.674349,-5.144504,-9.941066,-12.944458,-0.354593,-0.624029,2.202804,-0.343805,-0.691456,-0.208452,-0.600195,93.401181,-43.368125,74.634328
41063,NaN,-7.842041,4.235048,-0.651181,-2.701782,-8.184669,-12.171985,-0.393921,-0.640125,1.808624,-0.340372,-0.694580,-0.199887,-0.601458,93.593218,-44.382856,74.033842
41064,NaN,5.435420,3.257786,-3.447928,-2.700616,2.275504,-3.521921,-1.039893,-1.117918,1.363475,-0.340988,-0.697521,-0.190128,-0.600868,93.686430,-45.119057,73.058625
41065,NaN,2.711113,7.452580,-3.311736,-3.714032,-2.551340,-2.494550,0.343071,-0.208772,0.401395,-0.338763,-0.699140,-0.189382,-0.600482,94.024048,-45.343211,72.862108
41066,NaN,-3.933342,9.366090,-0.480336,-2.650585,-9.049373,-6.003746,-0.972009,0.030571,-0.318892,-0.343089,-0.697115,-0.187644,-0.600924,93.444003,-45.159210,72.898287
41067,NaN,-6.023538,3.938035,-1.783438,-3.588297,-6.331220,-11.230908,-1.676328,0.293040,-0.482333,-0.350074,-0.692907,-0.184764,-0.602653,92.306893,-44.894423,73.150149
41068,NaN,-7.771290,2.411440,-0.715991,-2.693403,-6.751117,-13.539380,-1.374342,0.332414,-0.954384,-0.357398,-0.688616,-0.184526,-0.603344,91.320952,-44.350557,73.436545
41069,NaN,-8.071208,2.035653,-0.130724,-2.147653,-6.900668,-13.944573,-1.225458,0.094406,-1.479126,-0.365957,-0.684773,-0.186062,-0.602115,90.558169,-43.507000,73.526153
41070,NaN,-6.512955,1.990257,-0.575642,-2.283397,-5.710723,-12.793210,-1.030015,-0.126881,-1.860855,-0.375192,-0.681522,-0.189115,-0.599161,90.036773,-42.436633,73.429299
41071,NaN,-5.136008,3.282497,-0.831051,-2.530407,-5.521324,-10.789628,-0.873821,-0.283159,-2.251266,-0.385135,-0.678580,-0.193602,-0.594742,89.688445,-41.150126,73.203005
41072,NaN,-4.549236,4.119922,-0.978802,-2.757956,-5.566421,-9.629293,-0.919267,-0.495608,-2.606295,-0.396457,-0.675714,-0.198766,-0.588833,89.419139,-39.654846,72.810165
41073,NaN,-4.271709,4.536741,-0.985526,-2.842629,-5.567334,-8.963175,-0.956051,-0.774702,-2.984425,-0.409173,-0.673074,-0.204451,-0.581161,89.248480,-37.953170,72.210821
41074,NaN,-3.630406,5.122880,-0.632542,-2.531423,-5.458918,-7.912269,-0.924079,-1.033048,-3.357232,-0.423040,-0.670660,-0.210946,-0.571623,89.189953,-36.033130,71.432779
41075,NaN,-2.922070,5.684666,-0.535814,-2.422594,-5.139000,-6.836571,-0.914834,-1.204770,-3.710201,-0.437879,-0.668149,-0.218160,-0.560575,89.173779,-33.920391,70.549340
41076,NaN,-2.915139,5.892690,-0.735340,-2.690655,-5.017424,-6.444958,-0.899579,-1.325559,-4.019412,-0.453509,-0.665369,-0.226143,-0.548154,89.173274,-31.623418,69.602952
41077,NaN,-3.251548,6.123842,-1.121192,-3.231200,-5.075154,-6.189925,-0.867568,-1.438061,-4.322121,-0.469727,-0.662306,-0.234799,-0.534393,89.183738,-29.162048,68.602863
41078,NaN,-3.267661,6.767432,-1.472598,-3.707555,-5.018279,-5.373836,-0.790742,-1.558216,-4.596271,-0.486330,-0.659028,-0.244207,-0.519161,89.225617,-26.535530,67.548627
41079,NaN,-2.829938,7.176356,-1.989532,-4.104431,-4.341413,-4.544053,-0.696563,-1.709253,-4.833849,-0.503081,-0.655677,-0.254063,-0.502444,89.306245,-23.781634,66.423942
41080,NaN,-2.592308,7.933583,-2.585184,-4.650331,-3.831437,-3.486500,-0.640441,-1.853819,-5.078144,-0.520124,-0.652037,-0.264376,-0.484174,89.392485,-20.878129,65.237149
41081,NaN,-2.519210,9.113878,-2.945588,-5.053573,-3.565944,-2.079342,-0.637965,-2.006431,-5.292229,-0.537441,-0.648004,-0.274733,-0.464510,89.444633,-17.860609,63.982602
41082,NaN,-2.264664,10.102286,-3.002093,-5.013212,-3.074205,-0.780497,-0.682613,-2.130401,-5.491896,-0.555116,-0.643292,-0.285127,-0.443535,89.422083,-14.719566,62.675959
41083,NaN,-2.191429,10.831503,-3.102554,-4.988608,-2.535075,0.207072,-0.641815,-2.179048,-5.708751,-0.572671,-0.637930,-0.295854,-0.421382,89.355105,-11.465065,61.355101
41084,NaN,-2.682626,12.087604,-3.308265,-5.301603,-2.398457,1.603831,-0.521711,-2.200393,-5.924594,-0.589803,-0.631987,-0.307233,-0.397910,89.282436,-8.078744,60.032545
41085,NaN,-2.955085,13.395432,-3.520461,-5.424398,-1.910559,3.126339,-0.389457,-2.246571,-6.129990,-0.606353,-0.625583,-0.319009,-0.373116,89.209143,-4.586621,58.687882
41086,NaN,-2.967236,14.379002,-3.744762,-5.286602,-1.007116,4.348333,-0.267905,-2.277534,-6.343556,-0.622330,-0.618541,-0.331293,-0.346924,89.123079,-0.964055,57.326317
41087,NaN,-3.112082,16.134546,-3.753579,-4.918704,-0.185320,6.304314,-0.099089,-2.262137,-6.539318,-0.637345,-0.610984,-0.344076,-0.319535,89.046522,2.758669,55.967253
41088,NaN,-3.163031,18.177438,-4.157996,-4.624495,1.166959,8.485316,0.072636,-2.254441,-6.719070,-0.651352,-0.602866,-0.357344,-0.290858,88.978148,6.593140,54.602582
41089,NaN,-3.254651,20.902352,-5.316355,-4.659755,3.253522,11.240910,0.365641,-2.287790,-6.959079,-0.664013,-0.594573,-0.371128,-0.260450,88.980381,10.553582,53.202239
41090,NaN,-1.820824,25.142653,-6.984710,-3.643412,7.426787,14.996671,0.637438,-2.409375,-7.064817,-0.675337,-0.586289,-0.384724,-0.228413,89.022756,14.584333,51.713480
41091,NaN,1.864606,29.016026,-9.182489,-1.203977,13.884551,17.299287,0.670502,-2.290239,-7.104926,-0.685413,-0.577118,-0.398279,-0.196261,88.995155,18.629039,50.267696
41092,NaN,6.720443,30.576473,-10.314607,2.697877,19.990847,16.246772,0.501814,-1.748432,-6.989786,-0.693868,-0.566248,-0.412706,-0.166083,88.878109,22.621313,49.115520
41093,NaN,14.394143,30.353823,-6.660246,11.402210,24.069300,11.707950,0.289525,-0.882761,-6.561059,-0.699937,-0.554164,-0.428198,-0.140133,88.778567,26.366398,48.471813
41094,NaN,24.832009,29.682462,-1.900392,21.858680,28.522268,4.662849,0.240525,0.504176,-5.866584,-0.702001,-0.541851,-0.446206,-0.120379,89.036943,29.736989,48.723624
41095,NaN,20.683215,17.816912,-0.433715,17.026657,20.851212,-5.276561,-0.859824,1.523881,-4.936922,-0.703665,-0.526743,-0.464225,-0.109054,89.042968,32.576910,49.684384
41096,NaN,19.511691,15.471089,-9.795680,8.155169,25.407947,-7.843780,0.241076,1.958604,-3.886543,-0.700437,-0.517389,-0.481364,-0.099924,89.916693,34.815190,51.005744
41097,NaN,18.905966,20.426492,-9.157463,9.742546,27.053854,-4.187194,-0.204643,2.565009,-2.943059,-0.696135,-0.508234,-0.497733,-0.096723,90.861020,36.488644,52.824172
41098,NaN,15.314758,14.442881,-12.223551,2.901061,24.036374,-7.289412,-0.781417,1.949436,-1.563748,-0.693960,-0.500664,-0.508056,-0.098155,91.266737,37.362412,54.239275
41099,NaN,16.475989,10.224787,-11.243908,2.328880,22.231024,-11.481376,0.425962,1.314679,-0.604853,-0.689837,-0.499972,-0.514294,-0.098259,92.095708,37.683858,55.197052
41100,NaN,16.733661,15.994854,-6.143393,8.658277,22.165108,-7.105248,1.457871,1.284535,0.430336,-0.682629,-0.505493,-0.518319,-0.099196,93.489582,37.398385,56.106842
41101,NaN,14.685319,17.893425,-2.035666,11.754431,19.258854,-4.254474,0.255457,0.960718,1.599740,-0.678676,-0.510037,-0.517626,-0.106414,94.002541,36.445045,56.714509
41102,NaN,14.225563,13.800140,-1.956847,9.931255,17.005460,-6.845341,-0.286926,0.478818,2.343026,-0.676854,-0.514889,-0.513056,-0.116326,93.971178,35.081241,56.934432
41103,NaN,13.631064,14.964188,0.977113,12.369882,15.373434,-5.197316,-0.319355,0.325584,2.902645,-0.675085,-0.521035,-0.506412,-0.127790,93.836893,33.406575,57.018250
41104,NaN,0.945803,16.072383,9.254671,13.582197,2.022892,2.688412,-0.229188,0.312429,3.149075,-0.672772,-0.528031,-0.499013,-0.139813,93.746466,31.587030,57.085905
41105,NaN,-14.751152,8.696216,17.989808,10.652815,-17.399063,4.351609,-1.457902,-0.745509,2.601941,-0.676586,-0.530103,-0.488526,-0.150213,92.606370,30.119407,56.488769
41106,NaN,-18.147760,9.722965,29.639203,18.432677,-26.387017,6.505465,-0.098127,-1.102421,2.190664,-0.677828,-0.535965,-0.478834,-0.154947,92.165186,28.884286,55.700245
41107,NaN,-9.877195,9.338745,9.790830,5.735549,-9.452296,2.771625,0.913518,-2.161434,2.238017,-0.678735,-0.546048,-0.466124,-0.154527,91.997800,27.644908,54.238290
41108,NaN,-2.051067,12.418923,-1.871985,1.186702,3.891249,2.244661,2.493564,-2.604327,2.488055,-0.675907,-0.562230,-0.452259,-0.150028,92.638751,26.274373,52.496766
41109,NaN,9.200837,19.457349,-6.039168,6.488252,16.305577,4.032225,2.631972,-2.008389,2.520354,-0.671015,-0.578233,-0.440231,-0.146910,93.559203,24.891824,51.132407
41110,NaN,9.821435,22.951482,-4.611319,9.306419,16.188757,7.384454,1.870491,-0.784527,2.984279,-0.665024,-0.591604,-0.430220,-0.150532,94.378588,23.209972,50.507751
41111,NaN,0.577899,20.494711,-3.456777,3.951841,7.615199,9.125872,0.857642,0.355514,3.165582,-0.659250,-0.600941,-0.422592,-0.160238,94.893214,21.383017,50.564827
41112,NaN,-4.908371,7.937533,-6.378003,-5.446318,2.332123,-0.186455,-0.338790,0.443526,3.316133,-0.656566,-0.606439,-0.413700,-0.173218,94.735035,19.460080,50.660859
41113,NaN,-1.461824,1.845592,-9.247907,-7.357138,5.316652,-6.867847,0.311486,0.214455,3.222354,-0.652301,-0.613886,-0.404815,-0.183773,94.902884,17.607338,50.622581
41114,NaN,7.462376,10.927092,-11.419806,-1.275787,14.746864,-0.518842,1.564335,0.053746,3.179794,-0.644346,-0.625329,-0.396548,-0.191133,95.759669,15.782475,50.474048
41115,NaN,3.390768,18.754629,-1.256394,5.670202,5.863556,7.457394,0.171335,0.672047,2.756136,-0.639777,-0.630664,-0.390187,-0.201748,95.917892,14.169735,50.700462
41116,NaN,-0.530233,9.581204,-2.100370,0.241938,2.059433,-0.211281,-0.376812,0.961434,2.406422,-0.636582,-0.633184,-0.385201,-0.213218,95.801960,12.733186,51.115293
41117,NaN,1.787542,8.818169,1.851826,4.360188,1.043163,-1.795065,0.225410,0.729580,2.256492,-0.632009,-0.637450,-0.380560,-0.222253,95.992362,11.401597,51.400888
41118,NaN,1.286639,11.599444,2.461264,4.984592,0.356504,1.017057,0.292612,0.601168,1.934090,-0.627724,-0.641407,-0.376539,-0.229735,96.205542,10.254310,51.625760
41119,NaN,-1.704840,9.707012,-0.693260,0.273585,-0.251390,0.060149,0.197184,0.276863,1.620069,-0.624684,-0.644761,-0.372394,-0.235321,96.329135,9.311729,51.679188
41120,NaN,-0.282244,8.921515,-1.977100,-0.057283,1.483860,-0.791851,0.366516,-0.070180,1.419305,-0.621920,-0.648665,-0.367959,-0.238862,96.521008,8.499363,51.542601
41121,NaN,0.762959,10.365480,-2.086691,0.709965,2.306205,0.509879,0.328689,0.049761,1.259525,-0.619241,-0.651956,-0.364381,-0.242323,96.702506,7.776666,51.483521
41122,NaN,0.758170,10.089994,0.081407,2.274369,0.808745,0.013881,0.343191,0.146811,1.120129,-0.616459,-0.654922,-0.361532,-0.245662,96.902665,7.120709,51.487029
41123,NaN,0.990307,10.447800,-0.024366,2.363767,0.956556,0.367414,0.432106,0.102094,0.937377,-0.613695,-0.657839,-0.359271,-0.248093,97.150413,6.577978,51.475570
41124,NaN,0.828972,10.582566,-0.940503,1.560362,1.311772,0.647058,0.368960,0.150194,0.762790,-0.611233,-0.660199,-0.357615,-0.250286,97.367613,6.124843,51.501785
41125,NaN,0.626302,10.193593,-1.521080,0.904763,1.438033,0.372021,0.286723,0.247675,0.629213,-0.609047,-0.661911,-0.356620,-0.252503,97.542803,5.746462,51.592451
41126,NaN,0.503268,10.120328,-1.956584,0.463203,1.547158,0.380149,0.262009,0.374509,0.523301,-0.606820,-0.663215,-0.356294,-0.254891,97.712236,5.412110,51.762012
41127,NaN,0.076717,10.076024,-1.784193,0.310503,1.047313,0.361886,0.228278,0.485626,0.432487,-0.604639,-0.664080,-0.356591,-0.257396,97.866544,5.126406,52.001348
41128,NaN,0.056177,10.009712,-1.434797,0.545196,0.762920,0.255910,0.220209,0.587499,0.348874,-0.602379,-0.664657,-0.357428,-0.260030,98.021885,4.873288,52.304106
41129,NaN,0.078860,10.100199,-1.268761,0.695632,0.630302,0.323813,0.237398,0.688102,0.294760,-0.599968,-0.665024,-0.358795,-0.262769,98.189646,4.648038,52.668084
41130,NaN,-0.424671,10.093221,-1.328712,0.338481,0.222961,0.368398,0.190380,0.694533,0.265300,-0.597709,-0.665203,-0.360182,-0.265553,98.330596,4.431909,53.037043
41131,NaN,-0.317197,9.953662,-1.429729,0.296363,0.333282,0.238238,0.157806,0.636262,0.236654,-0.595715,-0.665277,-0.361472,-0.268082,98.448110,4.242136,53.375086
41132,NaN,-0.010990,9.945571,-1.331662,0.548254,0.484191,0.194946,0.139220,0.597578,0.212687,-0.593857,-0.665320,-0.362669,-0.270472,98.553402,4.062608,53.692347
41133,NaN,0.157480,9.952186,-1.363016,0.617365,0.608107,0.196189,0.109351,0.578827,0.184698,-0.592186,-0.665219,-0.363888,-0.272737,98.639063,3.905973,54.001393
41134,NaN,-0.045239,9.730416,-1.608059,0.260578,0.566843,0.030057,0.112576,0.581230,0.189872,-0.590466,-0.665149,-0.365069,-0.275047,98.726630,3.739858,54.310667
41135,NaN,-0.192150,10.084819,-1.774834,0.090767,0.503590,0.416126,0.069362,0.625370,0.168911,-0.588853,-0.664824,-0.366416,-0.277488,98.789393,3.587232,54.646944
41136,NaN,-0.542896,9.836290,-1.927123,-0.286362,0.287233,0.217096,-0.002554,0.652865,0.181275,-0.587385,-0.664286,-0.367670,-0.280216,98.811696,3.419173,54.997170
41137,NaN,-0.732395,9.797726,-2.165521,-0.608708,0.240747,0.226870,-0.000241,0.680845,0.218316,-0.585820,-0.663755,-0.368911,-0.283108,98.834160,3.233320,55.360265
41138,NaN,-0.963236,9.993165,-2.070265,-0.649500,-0.046775,0.417317,-0.001718,0.696775,0.251717,-0.584155,-0.663270,-0.370052,-0.286178,98.855607,3.021391,55.728918
41139,NaN,-0.928083,9.941804,-1.852584,-0.482653,-0.172701,0.329795,-0.091691,0.696680,0.281403,-0.582757,-0.662547,-0.370990,-0.289469,98.823201,2.798322,56.095230
41140,NaN,-1.009547,9.597098,-1.705838,-0.486904,-0.340609,-0.031066,-0.076969,0.662604,0.313801,-0.581300,-0.661987,-0.371709,-0.292737,98.797419,2.554640,56.439044
41141,NaN,-0.747642,9.911157,-1.604498,-0.237434,-0.228939,0.249890,-0.070703,0.600585,0.358442,-0.579885,-0.661591,-0.372132,-0.295887,98.771359,2.296709,56.744218
41142,NaN,-0.349863,9.931753,-1.600740,-0.040975,0.062648,0.253032,-0.042436,0.558845,0.366946,-0.578415,-0.661366,-0.372417,-0.298895,98.759835,2.032437,57.024653
41143,NaN,-0.510028,9.831307,-1.546085,-0.127214,-0.133139,0.150796,-0.094826,0.551851,0.404359,-0.577087,-0.661042,-0.372501,-0.302054,98.716076,1.752992,57.298317
41144,NaN,-0.795567,9.855137,-1.718890,-0.456270,-0.321081,0.207278,-0.133592,0.494271,0.451725,-0.575899,-0.660792,-0.372174,-0.305255,98.648278,1.446832,57.535118
41145,NaN,-0.338528,9.847674,-1.936915,-0.429532,0.142684,0.219155,-0.110425,0.436238,0.420088,-0.574802,-0.660614,-0.371842,-0.308100,98.591275,1.168969,57.742419
41146,NaN,0.153158,10.145812,-1.568879,0.147095,0.306331,0.449216,-0.064436,0.442487,0.407123,-0.573539,-0.660545,-0.371613,-0.310866,98.560275,0.893097,57.954199
41147,NaN,0.278643,10.779610,-1.198995,0.574529,0.137953,1.020866,-0.083988,0.501708,0.422337,-0.572218,-0.660332,-0.371494,-0.313879,98.516892,0.608684,58.198765
41148,NaN,0.196009,10.816931,-0.860573,0.781126,-0.151247,1.010977,-0.128995,0.593543,0.451509,-0.570806,-0.659909,-0.371442,-0.317383,98.447333,0.295323,58.492816
41149,NaN,-0.381078,11.099416,-0.595287,0.697732,-0.841573,1.255341,-0.147523,0.660066,0.483877,-0.569288,-0.659360,-0.371462,-0.321203,98.365087,-0.036670,58.822620
41150,NaN,-0.793858,10.687360,-0.359169,0.588343,-1.328420,0.811234,-0.200547,0.631133,0.547913,-0.567869,-0.658830,-0.371072,-0.325228,98.250867,-0.406787,59.130939
41151,NaN,-1.195699,10.489147,-0.380123,0.295928,-1.695803,0.610012,-0.147756,0.540783,0.628981,-0.566318,-0.658720,-0.370262,-0.329057,98.165072,-0.810167,59.382389
41152,NaN,-1.356697,11.260901,-0.943562,-0.223859,-1.681040,1.441742,-0.076489,0.464539,0.739220,-0.564467,-0.659142,-0.368960,-0.332832,98.119339,-1.274166,59.581798
41153,NaN,-1.197544,12.032038,-0.807151,0.005814,-1.765688,2.176342,-0.057836,0.483387,0.885175,-0.562279,-0.659826,-0.367277,-0.337016,98.082365,-1.817764,59.780819
41154,NaN,-1.557522,11.984730,-0.642264,-0.104015,-2.256310,2.077179,-0.107366,0.532448,1.064193,-0.559831,-0.660610,-0.365023,-0.341968,98.014493,-2.471000,59.993573
41155,NaN,-2.324528,11.773796,-1.311471,-1.160997,-2.691271,1.898531,-0.114679,0.555051,1.281616,-0.556985,-0.661690,-0.362109,-0.347580,97.939873,-3.244812,60.203094
41156,NaN,-2.825822,12.471786,-2.116005,-2.130511,-2.971043,2.622684,-0.075426,0.579830,1.516066,-0.553511,-0.663234,-0.358514,-0.353857,97.884871,-4.157393,60.408947
41157,NaN,-2.186320,13.385738,-2.351172,-2.052132,-2.614267,3.545274,-0.086005,0.679091,1.724426,-0.549497,-0.664884,-0.354478,-0.361010,97.816952,-5.191783,60.656482
41158,NaN,-1.923941,14.037406,-1.851252,-1.573956,-2.946855,4.080083,-0.132817,0.898396,1.940621,-0.544792,-0.666336,-0.350187,-0.369551,97.706330,-6.369088,61.014139
41159,NaN,-2.661005,13.336841,-1.588860,-1.887603,-3.845229,3.191938,-0.190384,1.093535,2.096089,-0.539592,-0.667447,-0.345777,-0.379201,97.542493,-7.645070,61.475484
41160,NaN,-2.594290,14.272755,-0.464377,-0.958029,-4.738615,3.872191,-0.059257,1.213829,2.264822,-0.533333,-0.668882,-0.341307,-0.389439,97.434290,-9.027961,61.997448
41161,NaN,-3.770490,14.271331,0.434716,-0.852266,-6.457130,3.440406,-0.251851,1.328358,2.507681,-0.526963,-0.669863,-0.335909,-0.400948,97.193455,-10.552483,62.574072
41162,NaN,-5.873410,15.392892,0.966621,-1.433425,-9.089222,3.887247,-0.018679,1.315032,2.656526,-0.519416,-0.671598,-0.330360,-0.412342,97.072529,-12.161468,63.139905
41163,NaN,-7.018825,17.140660,0.287139,-2.660461,-10.602928,5.141340,-0.074638,1.155330,2.980958,-0.511536,-0.673888,-0.323127,-0.424022,96.928105,-13.939919,63.596820
41164,NaN,-8.082010,16.333096,-1.260439,-4.672525,-11.095612,3.924177,0.003386,1.122911,3.243873,-0.502745,-0.676686,-0.314991,-0.436033,96.821188,-15.866342,64.023766
41165,NaN,-9.363258,15.346053,-1.543752,-5.551699,-12.233433,2.230692,0.560740,1.128494,3.324341,-0.491732,-0.680791,-0.307727,-0.447244,97.020245,-17.837627,64.450710
41166,NaN,-9.966755,18.491379,-1.866067,-6.222342,-14.162502,4.518956,0.580593,1.119897,3.822320,-0.479376,-0.685482,-0.298676,-0.459462,97.229646,-20.093247,64.832946
41167,NaN,-10.343776,18.303882,-3.281906,-7.760456,-14.463912,3.725971,0.607365,0.981646,4.214299,-0.466021,-0.690840,-0.287884,-0.471897,97.483600,-22.562516,65.095814
41168,NaN,-7.210546,17.440053,-3.926102,-7.211460,-11.862063,3.558333,0.725563,0.886392,4.408516,-0.451712,-0.696627,-0.276340,-0.484049,97.828196,-25.134912,65.274437
41169,NaN,-3.121197,16.845014,-4.294066,-6.084227,-8.741226,4.274699,1.004719,0.781105,4.408743,-0.436331,-0.702941,-0.265082,-0.495197,98.363973,-27.701241,65.367722
41170,NaN,3.389074,18.249095,-2.130472,-1.908435,-5.663311,7.886898,0.868571,0.728808,4.551365,-0.420922,-0.708891,-0.252743,-0.506379,98.852394,-30.342267,65.389553
41171,NaN,7.213224,18.304175,-1.140058,0.139889,-3.846626,9.513209,0.547031,1.032968,4.481232,-0.406205,-0.712926,-0.240328,-0.518630,99.055664,-32.973056,65.602409
41172,NaN,5.942622,18.606286,-5.122412,-4.315115,-4.501181,9.391464,0.719415,1.025746,4.276827,-0.391216,-0.716710,-0.228964,-0.529955,99.343285,-35.485655,65.826149
41173,NaN,-0.266367,19.031833,-4.535100,-6.068558,-10.270993,5.694654,0.556705,0.815509,3.852967,-0.377985,-0.719933,-0.218160,-0.539657,99.594061,-37.742402,65.943104
41174,NaN,-4.453731,15.039057,-5.407247,-7.968448,-11.034146,-0.327407,0.613265,0.535960,3.507507,-0.365668,-0.723376,-0.208165,-0.547432,99.981039,-39.773881,65.888626
41175,NaN,-8.333734,11.934414,-3.776041,-7.388159,-12.476754,-5.829238,0.239613,0.284130,3.119676,-0.355904,-0.726220,-0.198009,-0.553831,100.255308,-41.564454,65.680829
41176,NaN,-12.441758,6.371339,-4.180581,-8.470964,-11.441549,-13.004813,-0.240018,0.166337,2.696981,-0.349115,-0.727957,-0.187837,-0.559388,100.288276,-43.099512,65.430160
41177,NaN,-7.841777,2.817408,-0.847419,-3.501720,-6.849905,-13.123742,-0.022831,0.269063,2.268700,-0.342558,-0.729274,-0.179951,-0.564297,100.358252,-44.408280,65.312285
41178,NaN,-0.051965,4.741371,-1.490930,-2.029012,-2.940144,-6.356650,-0.052944,-0.005184,1.853070,-0.337521,-0.730856,-0.173042,-0.567438,100.528217,-45.448479,65.031254
41179,NaN,3.824439,4.712086,-4.615466,-3.873655,0.406929,-3.258221,-0.104418,0.449047,1.335412,-0.333698,-0.730568,-0.168598,-0.571393,100.356125,-46.249879,65.189851
41180,NaN,0.516647,8.244723,0.447189,-0.543817,-5.760246,-3.899477,0.089788,1.000859,0.525868,-0.331026,-0.728314,-0.168616,-0.575803,99.875400,-46.643688,65.926900
41181,NaN,-3.229229,5.509584,0.840713,-0.850718,-6.253222,-8.522844,-0.669615,1.136902,-0.159598,-0.332938,-0.723808,-0.169127,-0.580216,98.800642,-46.661532,66.879339
41182,NaN,-4.177593,3.430086,0.944328,-0.698976,-5.385188,-10.600383,-0.866600,1.253133,-0.636799,-0.336861,-0.718189,-0.171017,-0.584365,97.505692,-46.398302,67.982287
41183,NaN,-5.375778,3.203965,0.843335,-1.036438,-5.980526,-11.554531,-0.826654,1.340721,-1.059677,-0.341745,-0.711967,-0.174636,-0.588061,96.168410,-45.889440,69.182072
41184,NaN,-6.495186,2.688743,1.328415,-0.720836,-6.522115,-12.662694,-0.784744,1.236069,-1.368310,-0.347477,-0.705783,-0.179326,-0.590739,94.929280,-45.173428,70.291356
41185,NaN,-6.060629,2.372532,1.243645,-0.604820,-6.042573,-12.463515,-0.590385,0.923169,-1.718093,-0.353770,-0.700481,-0.185219,-0.591496,93.998344,-44.235863,71.136003
41186,NaN,-5.246949,2.902845,1.644625,-0.091829,-6.007529,-11.413105,-0.437569,0.565083,-2.115802,-0.361029,-0.696052,-0.192349,-0.590061,93.370808,-43.042358,71.685215
41187,NaN,-4.577716,3.201808,1.870892,0.237149,-5.832546,-10.606771,-0.445706,0.246932,-2.534423,-0.369771,-0.692051,-0.200263,-0.586711,92.918989,-41.602966,71.979217
41188,NaN,-4.634309,3.529011,1.677491,-0.022710,-6.047150,-10.229289,-0.444512,-0.069931,-2.937556,-0.379973,-0.688433,-0.209000,-0.581377,92.633550,-39.914960,72.029582
41189,NaN,-4.199246,3.801139,1.165446,-0.471353,-5.756925,-9.542041,-0.280789,-0.428880,-3.310844,-0.390940,-0.685618,-0.218715,-0.573810,92.605460,-38.011547,71.820855
41190,NaN,-3.385929,4.533250,0.741699,-0.799131,-5.431398,-8.256175,-0.107540,-0.728470,-3.685761,-0.402631,-0.683359,-0.229608,-0.564082,92.787048,-35.877038,71.419575
41191,NaN,-2.863750,5.504421,0.339807,-1.185392,-5.380791,-6.940053,-0.172608,-1.010147,-3.976186,-0.415492,-0.681180,-0.240602,-0.552694,93.012921,-33.575260,70.852244
