// General information: 
//  MT Manager version: 2019.0.1 
//  XDA version: 2019.0.1 build 2740 rev 84096 built on 2019-01-30
// Device information: 
//  DeviceId: 00B43876
//  ProductCode: MTW2-3A7G6
//  Firmware Version: 4.3.4
//  Hardware Version: 1.1.0
// Device settings: 
//  Filter Profile: human(46.1)
//  Option Flags: Orientation Smoother Disabled, AHS Disabled, ICC Disabled
// Coordinate system: ENU
PacketCounter,SampleTimeFine,Acc_X,Acc_Y,Acc_Z,FreeAcc_E,FreeAcc_N,FreeAcc_U,Gyr_X,Gyr_Y,Gyr_Z,Quat_q0,Quat_q1,Quat_q2,Quat_q3,Roll,Pitch,Yaw
50052,NaN,-0.980370,9.677434,-1.613970,0.008417,-0.020262,0.047245,-0.019845,0.017569,-0.034730,0.289918,0.409226,-0.643011,-0.578807,99.363016,5.790180,-119.967665
50053,NaN,-0.963107,9.664017,-1.612984,0.001655,-0.037702,0.032164,-0.022911,0.019597,-0.035833,0.289915,0.409332,-0.642873,-0.578888,99.352626,5.805905,-119.957296
50054,NaN,-0.986803,9.677423,-1.610110,0.008491,-0.019240,0.047247,-0.022035,0.021302,-0.039553,0.289904,0.409457,-0.642727,-0.578967,99.342922,5.823614,-119.945604
50055,NaN,-0.977122,9.697772,-1.609638,-0.000709,-0.031104,0.066154,-0.023051,0.021987,-0.043199,0.289887,0.409593,-0.642569,-0.579054,99.332666,5.843284,-119.933193
50056,NaN,-1.026414,9.671024,-1.579641,0.003073,0.023093,0.040076,-0.018457,0.026923,-0.043383,0.289876,0.409752,-0.642418,-0.579116,99.325383,5.862640,-119.917956
50057,NaN,-1.017104,9.691321,-1.579182,-0.006126,0.011231,0.058982,-0.027120,0.024703,-0.047956,0.289863,0.409905,-0.642235,-0.579217,99.313007,5.884752,-119.903563
50058,NaN,-1.037707,9.669302,-1.624427,0.046243,0.002144,0.046768,-0.019452,0.027621,-0.047040,0.289846,0.410076,-0.642071,-0.579285,99.305241,5.906118,-119.887594
50059,NaN,-1.053780,9.649487,-1.596640,0.033991,0.026010,0.024511,-0.027315,0.028284,-0.051646,0.289833,0.410251,-0.641875,-0.579385,99.293009,5.929989,-119.870828
50060,NaN,-1.011129,9.676897,-1.598133,0.008718,-0.016173,0.047253,-0.025885,0.021681,-0.046815,0.289811,0.410394,-0.641702,-0.579486,99.281214,5.951781,-119.858263
50061,NaN,-1.081030,9.663387,-1.566874,0.019348,0.055969,0.036235,-0.024848,0.021007,-0.043182,0.289795,0.410525,-0.641541,-0.579580,99.269896,5.971546,-119.846429
50062,NaN,-1.039391,9.690168,-1.592635,0.015613,0.002803,0.062328,-0.028929,0.023705,-0.043024,0.289796,0.410658,-0.641364,-0.579682,99.256448,5.991012,-119.833071
50063,NaN,-1.015663,9.643063,-1.590520,0.011271,-0.020230,0.013271,-0.027174,0.027119,-0.045551,0.289797,0.410810,-0.641182,-0.579774,99.244191,6.011559,-119.817550
50064,NaN,-1.072331,9.649914,-1.560585,0.012656,0.039543,0.021154,-0.028021,0.025433,-0.046759,0.289791,0.410961,-0.640998,-0.579874,99.231413,6.032986,-119.802873
50065,NaN,-1.029690,9.677445,-1.561855,-0.012621,-0.002622,0.043906,-0.027916,0.024269,-0.050462,0.289770,0.411120,-0.640808,-0.579982,99.218619,6.056579,-119.788527
50066,NaN,-1.045747,9.657625,-1.533551,-0.024871,0.021245,0.021641,-0.029875,0.024424,-0.046710,0.289765,0.411265,-0.640619,-0.580090,99.204729,6.078078,-119.774437
50067,NaN,-1.074867,9.668785,-1.603206,0.046612,0.006719,0.046764,-0.027653,0.020716,-0.046814,0.289743,0.411402,-0.640442,-0.580199,99.191846,6.099940,-119.762458
50068,NaN,-1.071904,9.635015,-1.599923,0.049077,0.001625,0.012781,-0.034556,0.021882,-0.049015,0.289732,0.411540,-0.640239,-0.580331,99.175151,6.122981,-119.749611
50069,NaN,-1.120132,9.660245,-1.643634,0.105849,0.016042,0.049620,-0.037063,0.015593,-0.046489,0.289714,0.411648,-0.640043,-0.580480,99.156569,6.145133,-119.740587
50070,NaN,-1.089248,9.668254,-1.618008,0.068267,-0.002760,0.050116,-0.038616,0.009830,-0.046456,0.289681,0.411737,-0.639851,-0.580645,99.136798,6.167834,-119.734846
50071,NaN,-1.084756,9.635309,-1.589453,0.049206,0.003145,0.012780,-0.040412,0.007617,-0.045176,0.289648,0.411812,-0.639659,-0.580819,99.115802,6.189974,-119.730496
50072,NaN,-1.090361,9.634841,-1.609887,0.070776,-0.007354,0.016134,-0.041741,-0.001726,-0.041476,0.289598,0.411847,-0.639485,-0.581011,99.093482,6.210908,-119.731801
50073,NaN,-1.133699,9.662148,-1.579848,0.062956,0.040073,0.042906,-0.039151,0.003363,-0.037876,0.289570,0.411889,-0.639318,-0.581179,99.072876,6.229306,-119.730552
50074,NaN,-1.096295,9.635951,-1.577601,0.049328,0.004665,0.012779,-0.044400,-0.005656,-0.036490,0.289528,0.411892,-0.639152,-0.581381,99.048740,6.247774,-119.734566
50075,NaN,-1.064675,9.644202,-1.551070,0.011750,-0.014119,0.013281,-0.045018,-0.010923,-0.034035,0.289477,0.411872,-0.638996,-0.581591,99.023846,6.265285,-119.741813
50076,NaN,-1.088959,9.657673,-1.545883,0.018624,0.004348,0.028342,-0.040957,-0.012371,-0.040352,0.289395,0.411873,-0.638842,-0.581801,99.001297,6.286537,-119.749313
50077,NaN,-1.037274,9.652632,-1.520551,-0.025794,-0.032385,0.013787,-0.042294,-0.006956,-0.039059,0.289337,0.411884,-0.638678,-0.582002,98.978255,6.306531,-119.753864
50078,NaN,-1.020794,9.639673,-1.517283,-0.032597,-0.049832,-0.001270,-0.043279,-0.006249,-0.042720,0.289272,0.411907,-0.638503,-0.582210,98.954776,6.328570,-119.757682
50079,NaN,-1.080707,9.645086,-1.534396,0.011921,-0.012079,0.013283,-0.040673,-0.001127,-0.044033,0.289215,0.411953,-0.638325,-0.582401,98.933073,6.350856,-119.758483
50080,NaN,-1.085012,9.645197,-1.530657,0.011959,-0.011570,0.013284,-0.036965,0.002140,-0.045394,0.289156,0.412018,-0.638151,-0.582575,98.913766,6.373663,-119.757303
50081,NaN,-1.150874,9.684809,-1.523891,0.032540,0.042820,0.058451,-0.044654,0.000376,-0.042668,0.289116,0.412058,-0.637962,-0.582773,98.889861,6.395042,-119.757387
50082,NaN,-1.101034,9.679139,-1.523399,0.009628,-0.004921,0.047264,-0.030703,-0.003037,-0.046901,0.289023,0.412122,-0.637810,-0.582940,98.873822,6.419158,-119.759037
50083,NaN,-1.116842,9.659212,-1.494108,-0.002579,0.018944,0.024980,-0.044397,-0.003201,-0.039022,0.288982,0.412140,-0.637634,-0.583140,98.849798,6.438789,-119.761497
50084,NaN,-1.141209,9.672471,-1.489444,0.004311,0.037415,0.040032,-0.031993,0.001142,-0.039459,0.288927,0.412191,-0.637488,-0.583292,98.833210,6.458323,-119.761443
50085,NaN,-1.144947,9.672525,-1.486220,0.004366,0.037929,0.040030,-0.034892,0.000775,-0.038132,0.288881,0.412232,-0.637336,-0.583452,98.814876,6.477099,-119.761730
50086,NaN,-1.151438,9.671566,-1.531668,0.047454,0.016390,0.046749,-0.032776,-0.001780,-0.034536,0.288832,0.412257,-0.637202,-0.583605,98.797604,6.494104,-119.763786
50087,NaN,-1.167791,9.651077,-1.527298,0.056778,0.029224,0.027820,-0.031918,-0.000085,-0.033331,0.288792,0.412284,-0.637070,-0.583750,98.780869,6.510237,-119.764997
50088,NaN,-1.077079,9.655129,-1.432115,-0.068362,-0.004683,0.007082,-0.033199,0.004122,-0.030801,0.288774,0.412314,-0.636933,-0.583886,98.763698,6.524610,-119.764034
50089,NaN,-1.135568,9.660360,-1.450181,-0.023809,0.033048,0.021611,-0.032269,0.004617,-0.028373,0.288763,0.412339,-0.636803,-0.584016,98.747016,6.537524,-119.763010
50090,NaN,-1.103297,9.668477,-1.425098,-0.061411,0.014312,0.022130,-0.029498,0.007397,-0.032156,0.288744,0.412388,-0.636670,-0.584136,98.732188,6.552379,-119.760063
50091,NaN,-1.176087,9.652502,-1.467032,0.013941,0.053323,0.021087,-0.021388,0.001938,-0.022630,0.288719,0.412402,-0.636588,-0.584228,98.721508,6.562275,-119.761075
50092,NaN,-1.195653,9.630535,-1.536646,0.087813,0.033047,0.012243,-0.026169,0.000530,-0.021239,0.288703,0.412401,-0.636497,-0.584336,98.708035,6.571548,-119.763006
50093,NaN,-1.149417,9.659339,-1.513140,0.040943,0.002000,0.031697,-0.025941,-0.003066,-0.017579,0.288686,0.412378,-0.636419,-0.584445,98.694368,6.579015,-119.767317
50094,NaN,-1.086339,9.621233,-1.465154,-0.022631,-0.029307,-0.020162,-0.020234,-0.001164,-0.016539,0.288667,0.412365,-0.636357,-0.584531,98.684134,6.585771,-119.770626
50095,NaN,-1.072005,9.642903,-1.415609,-0.074885,-0.019028,-0.007957,-0.021411,0.001893,-0.017710,0.288656,0.412364,-0.636285,-0.584616,98.673387,6.592882,-119.772101
50096,NaN,-1.065318,9.662216,-1.487959,-0.019578,-0.063938,0.021075,-0.020239,0.013674,-0.023831,0.288662,0.412418,-0.636187,-0.584681,98.664191,6.602480,-119.766326
50097,NaN,-1.123265,9.667248,-1.507471,0.024995,-0.026229,0.035590,-0.017061,0.010513,-0.026435,0.288644,0.412475,-0.636097,-0.584747,98.656589,6.613789,-119.762130
50098,NaN,-1.166811,9.693354,-1.503652,0.038773,0.010211,0.065669,-0.022946,0.010957,-0.024994,0.288644,0.412522,-0.635992,-0.584829,98.645678,6.624282,-119.757805
50099,NaN,-1.169258,9.693404,-1.501430,0.038828,0.010724,0.065668,-0.026215,0.016586,-0.029772,0.288655,0.412594,-0.635860,-0.584916,98.633266,6.636961,-119.749860
50100,NaN,-1.085857,9.731039,-1.407175,-0.088751,-0.017418,0.078934,-0.023992,0.012881,-0.029882,0.288648,0.412660,-0.635739,-0.585004,98.621926,6.650059,-119.744010
50101,NaN,-1.205452,9.686684,-1.446079,0.012064,0.064106,0.055030,-0.025310,0.018346,-0.033499,0.288652,0.412751,-0.635599,-0.585090,98.610188,6.664701,-119.734745
50102,NaN,-1.183898,9.727509,-1.470534,0.015058,0.028975,0.096271,-0.024120,0.015294,-0.032336,0.288646,0.412831,-0.635470,-0.585177,98.598969,6.678988,-119.727313
50103,NaN,-1.085981,9.750424,-1.474595,-0.033357,-0.061293,0.107982,-0.028198,0.017974,-0.032179,0.288658,0.412913,-0.635325,-0.585271,98.585542,6.692919,-119.718379
50104,NaN,-1.159887,9.681297,-1.442130,-0.010811,0.017422,0.043893,-0.029294,0.019834,-0.032133,0.288678,0.412998,-0.635174,-0.585364,98.571658,6.706702,-119.708385
50105,NaN,-1.228073,9.630721,-1.532597,0.110004,0.028575,0.015582,-0.030122,0.018153,-0.033358,0.288692,0.413081,-0.635020,-0.585466,98.557157,6.721289,-119.699254
50106,NaN,-1.120527,9.709364,-1.464180,-0.014652,-0.035150,0.070111,-0.034464,0.024374,-0.031934,0.288737,0.413172,-0.634848,-0.585566,98.540624,6.734582,-119.686698
50107,NaN,-1.171398,9.680736,-1.482321,0.032359,-0.003141,0.050631,-0.033147,0.020189,-0.034487,0.288760,0.413260,-0.634680,-0.585675,98.524540,6.749640,-119.676316
50108,NaN,-1.142167,9.688201,-1.505440,0.037740,-0.043940,0.057915,-0.041231,0.024339,-0.032955,0.288816,0.413344,-0.634486,-0.585798,98.504141,6.763520,-119.663699
50109,NaN,-1.059456,9.726037,-1.409360,-0.089851,-0.071989,0.071202,-0.044958,0.037140,-0.040137,0.288901,0.413482,-0.634248,-0.585917,98.482492,6.780354,-119.643173
50110,NaN,-1.209229,9.727881,-1.470362,0.036988,0.022048,0.099629,-0.043898,0.036503,-0.041425,0.288976,0.413625,-0.634011,-0.586036,98.461467,6.798013,-119.622895
50111,NaN,-1.173760,9.648505,-1.418618,-0.008036,0.015348,0.009915,-0.046155,0.041432,-0.042558,0.289070,0.413782,-0.633757,-0.586153,98.439459,6.815871,-119.599725
50112,NaN,-1.154200,9.689383,-1.465355,0.016436,-0.030825,0.054550,-0.047928,0.039203,-0.041301,0.289163,0.413926,-0.633504,-0.586279,98.416309,6.833241,-119.577933
50113,NaN,-1.226329,9.673677,-1.481769,0.070350,0.019123,0.050083,-0.043263,0.043057,-0.045136,0.289247,0.414100,-0.633252,-0.586387,98.396107,6.852443,-119.553630
50114,NaN,-1.231045,9.673556,-1.502042,0.091898,0.008569,0.053455,-0.051679,0.037074,-0.036295,0.289356,0.414216,-0.633001,-0.586521,98.370639,6.867180,-119.533484
50115,NaN,-1.273925,9.700044,-1.471138,0.084240,0.056083,0.080125,-0.051517,0.034673,-0.033867,0.289464,0.414318,-0.632760,-0.586657,98.345033,6.880713,-119.514928
50116,NaN,-1.284032,9.645497,-1.514267,0.138982,0.041039,0.033954,-0.053160,0.028730,-0.024006,0.289585,0.414369,-0.632542,-0.586795,98.318024,6.889194,-119.500579
50117,NaN,-1.306293,9.658937,-1.508545,0.145936,0.059514,0.048972,-0.051971,0.024383,-0.016686,0.289712,0.414386,-0.632350,-0.586929,98.291284,6.893855,-119.489343
50118,NaN,-1.241182,9.710205,-1.385649,0.003723,0.060588,0.073917,-0.055270,0.028663,-0.010380,0.289878,0.414390,-0.632154,-0.587054,98.262936,6.894633,-119.476182
50119,NaN,-1.230794,9.589294,-1.379851,0.020278,0.056276,-0.046940,-0.055887,0.022062,-0.001793,0.290049,0.414347,-0.631985,-0.587183,98.233646,6.891050,-119.467509
50120,NaN,-1.105333,9.601341,-1.308420,-0.099641,-0.018679,-0.060293,-0.055238,0.027385,-0.004239,0.290228,0.414328,-0.631804,-0.587302,98.205171,6.888466,-119.455588
50121,NaN,-1.012776,9.659072,-1.309200,-0.150575,-0.103165,-0.014521,-0.051479,0.030772,-0.010502,0.290392,0.414345,-0.631616,-0.587411,98.179089,6.889119,-119.441220
50122,NaN,-1.208230,9.543837,-1.464207,0.101908,-0.010172,-0.082423,-0.049060,0.023436,-0.006954,0.290538,0.414332,-0.631453,-0.587523,98.153906,6.888403,-119.431331
50123,NaN,-1.259589,9.603622,-1.481970,0.134865,0.020906,-0.015048,-0.048851,0.008813,-0.014531,0.290616,0.414300,-0.631297,-0.587675,98.127864,6.893136,-119.429180
50124,NaN,-1.184812,9.674811,-1.408590,0.026334,-0.012369,0.035613,-0.050365,0.003031,-0.014557,0.290678,0.414249,-0.631144,-0.587844,98.100606,6.898389,-119.430330
50125,NaN,-1.161566,9.628301,-1.477918,0.086354,-0.068776,-0.003229,-0.052979,-0.000893,-0.014532,0.290733,0.414183,-0.630990,-0.588029,98.071533,6.903907,-119.433729
50126,NaN,-1.218465,9.580070,-1.396230,0.056738,0.019723,-0.055216,-0.050892,-0.002174,-0.017085,0.290772,0.414124,-0.630838,-0.588214,98.043637,6.911012,-119.437648
50127,NaN,-1.119739,9.692466,-1.348472,-0.048904,-0.049109,0.036744,-0.052807,-0.001991,-0.018271,0.290813,0.414067,-0.630677,-0.588407,98.014621,6.918735,-119.441379
50128,NaN,-1.256746,9.573080,-1.408696,0.094547,0.039886,-0.055784,-0.051155,-0.012230,-0.014742,0.290827,0.413971,-0.630544,-0.588610,97.985861,6.925309,-119.451246
50129,NaN,-1.253381,9.627977,-1.404185,0.082911,0.033862,-0.002865,-0.050394,-0.022937,-0.013666,0.290810,0.413840,-0.630431,-0.588832,97.956737,6.932080,-119.467326
50130,NaN,-1.123511,9.694127,-1.308726,-0.070247,-0.036453,0.033371,-0.050575,-0.019288,-0.017331,0.290794,0.413732,-0.630304,-0.589051,97.927842,6.940673,-119.481023
50131,NaN,-1.187013,9.679300,-1.202327,-0.123696,0.068873,0.011944,-0.051739,-0.017528,-0.012343,0.290801,0.413612,-0.630181,-0.589264,97.898304,6.946251,-119.494124
50132,NaN,-1.232370,9.617031,-1.292809,-0.009781,0.061783,-0.031406,-0.039600,-0.024338,-0.014019,0.290756,0.413494,-0.630101,-0.589454,97.875311,6.953349,-119.510975
50133,NaN,-1.123012,9.661670,-1.343748,-0.024727,-0.062788,0.006179,-0.041592,-0.024261,-0.010262,0.290726,0.413362,-0.630022,-0.589646,97.851097,6.958262,-119.528095
50134,NaN,-1.234119,9.671949,-1.357911,0.043090,0.023024,0.031661,-0.042202,-0.015971,-0.008903,0.290728,0.413249,-0.629933,-0.589819,97.827141,6.961790,-119.540569
50135,NaN,-1.277754,9.698064,-1.375889,0.078474,0.048397,0.065049,-0.040409,-0.015040,-0.004005,0.290743,0.413126,-0.629857,-0.589979,97.804182,6.962419,-119.552912
50136,NaN,-1.195905,9.823393,-1.278654,-0.063259,0.019849,0.165278,-0.044394,-0.013573,-0.002641,0.290775,0.412998,-0.629770,-0.590146,97.779085,6.962203,-119.564505
50137,NaN,-1.191765,9.736042,-1.249666,-0.070591,0.032248,0.075005,-0.047074,-0.004002,0.001272,0.290855,0.412881,-0.629670,-0.590295,97.753023,6.958971,-119.570947
50138,NaN,-1.185185,9.702967,-1.269994,-0.046671,0.015939,0.044426,-0.043416,-0.000710,-0.000025,0.290933,0.412784,-0.629573,-0.590429,97.729353,6.956266,-119.575388
50139,NaN,-1.180011,9.669832,-1.315064,-0.001262,-0.011474,0.017233,-0.040449,-0.001527,-0.000125,0.291003,0.412688,-0.629485,-0.590555,97.707273,6.953631,-119.580304
50140,NaN,-1.195409,9.649641,-1.358778,0.051058,-0.020922,0.005041,-0.048010,-0.004562,0.003742,0.291089,0.412561,-0.629387,-0.590705,97.680663,6.949074,-119.587238
50141,NaN,-1.175737,9.637481,-1.379615,0.065669,-0.049483,-0.006568,-0.047999,-0.004556,0.003736,0.291176,0.412433,-0.629290,-0.590855,97.654012,6.944475,-119.594181
50142,NaN,-1.135304,9.612494,-1.401633,0.073338,-0.096025,-0.033171,-0.048332,0.000199,0.003812,0.291279,0.412319,-0.629185,-0.590996,97.627532,6.939496,-119.598402
50143,NaN,-1.128785,9.667565,-1.372720,0.040217,-0.090886,0.016374,-0.051478,0.004680,0.000255,0.291392,0.412224,-0.629056,-0.591143,97.599559,6.936165,-119.599790
50144,NaN,-1.171448,9.694014,-1.389810,0.075601,-0.065520,0.049754,-0.052909,0.011293,0.000392,0.291529,0.412147,-0.628914,-0.591281,97.571276,6.932295,-119.597397
50145,NaN,-1.242254,9.679107,-1.454109,0.172583,-0.037918,0.051972,-0.055647,0.008472,0.004119,0.291673,0.412045,-0.628776,-0.591427,97.541142,6.926483,-119.596906
50146,NaN,-1.228831,9.700811,-1.448965,0.163317,-0.049630,0.070942,-0.068195,0.022497,0.003442,0.291886,0.411969,-0.628578,-0.591586,97.504835,6.920033,-119.588334
50147,NaN,-1.202180,9.688692,-1.346167,0.070546,-0.022649,0.042396,-0.071254,0.025773,0.001092,0.292108,0.411905,-0.628362,-0.591750,97.466979,6.914649,-119.577707
50148,NaN,-1.180801,9.676840,-1.340741,0.063658,-0.040107,0.027407,-0.070961,0.020911,0.005928,0.292329,0.411813,-0.628164,-0.591916,97.428965,6.906924,-119.570215
50149,NaN,-1.176004,9.677538,-1.260856,-0.000698,-0.006245,0.017238,-0.073950,0.022972,0.004791,0.292559,0.411725,-0.627951,-0.592089,97.389337,6.899660,-119.561460
50150,NaN,-1.091406,9.714724,-1.184805,-0.106906,-0.044985,0.034005,-0.078096,0.028115,0.002499,0.292806,0.411654,-0.627714,-0.592268,97.347775,6.893372,-119.549581
50151,NaN,-1.180921,9.625342,-1.270954,0.032582,-0.009858,-0.032301,-0.078688,0.022800,0.004871,0.293045,0.411558,-0.627487,-0.592456,97.305419,6.886088,-119.540920
50152,NaN,-1.242534,9.664900,-1.260180,0.053463,0.044601,0.012657,-0.075567,0.020901,0.001033,0.293260,0.411474,-0.627265,-0.592643,97.264808,6.881163,-119.533060
50153,NaN,-1.161771,9.702515,-1.256995,0.011671,-0.027472,0.039605,-0.078704,0.022697,0.009775,0.293514,0.411362,-0.627049,-0.592824,97.222392,6.871111,-119.524804
50154,NaN,-1.266002,9.625581,-1.244421,0.072230,0.070066,-0.025297,-0.083607,0.023600,0.013598,0.293791,0.411235,-0.626824,-0.593013,97.177243,6.858877,-119.516254
50155,NaN,-1.243626,9.613900,-1.238239,0.065350,0.052606,-0.040284,-0.075372,0.015790,0.015701,0.294034,0.411089,-0.626639,-0.593189,97.136212,6.845961,-119.512365
50156,NaN,-1.263605,9.628195,-1.254137,0.093818,0.059981,-0.021912,-0.078990,0.011159,0.023090,0.294291,0.410902,-0.626466,-0.593374,97.092787,6.829231,-119.511604
50157,NaN,-1.304701,9.655776,-1.293120,0.150716,0.074214,0.014834,-0.074955,0.005751,0.035221,0.294559,0.410666,-0.626338,-0.593540,97.051148,6.805930,-119.514831
50158,NaN,-1.273909,9.698454,-1.262428,0.110655,0.061449,0.049389,-0.074537,-0.001576,0.042454,0.294824,0.410386,-0.626236,-0.593709,97.009246,6.779075,-119.522720
50159,NaN,-1.289943,9.712898,-1.253811,0.117675,0.079954,0.064364,-0.076373,-0.005322,0.054747,0.295118,0.410054,-0.626159,-0.593874,96.965893,6.745437,-119.533623
50160,NaN,-1.293173,9.692920,-1.172866,0.062668,0.126064,0.035195,-0.074568,-0.005787,0.065784,0.295439,0.409689,-0.626111,-0.594016,96.923528,6.705603,-119.545506
50161,NaN,-1.231938,9.689679,-1.168239,0.039499,0.078429,0.024213,-0.078858,-0.015894,0.080448,0.295782,0.409241,-0.626095,-0.594172,96.877861,6.658058,-119.564193
50162,NaN,-1.218976,9.745902,-1.160300,0.027848,0.072544,0.077144,-0.070460,-0.012548,0.084000,0.296127,0.408804,-0.626106,-0.594289,96.837294,6.608315,-119.581137
50163,NaN,-1.234963,9.705999,-1.128374,0.025116,0.108602,0.035782,-0.065304,-0.019833,0.096027,0.296475,0.408315,-0.626168,-0.594386,96.799054,6.552147,-119.603073
50164,NaN,-1.160916,9.668318,-1.076876,-0.038631,0.077452,-0.015940,-0.066952,-0.024642,0.104550,0.296837,0.407783,-0.626249,-0.594486,96.759599,6.491507,-119.628289
50165,NaN,-1.162390,9.705138,-1.142531,0.023443,0.050373,0.028204,-0.061014,-0.027664,0.110471,0.297194,0.407232,-0.626363,-0.594564,96.723257,6.427619,-119.655606
50166,NaN,-1.130877,9.694147,-1.137819,0.016526,0.032918,0.013229,-0.057359,-0.025877,0.120248,0.297579,0.406662,-0.626506,-0.594612,96.689173,6.358116,-119.682461
50167,NaN,-1.092286,9.649915,-1.158957,0.033453,-0.001465,-0.032299,-0.052740,-0.023505,0.127546,0.297983,0.406081,-0.626673,-0.594630,96.657783,6.284201,-119.708457
50168,NaN,-1.118614,9.677095,-1.102289,0.004512,0.057312,-0.009158,-0.050219,-0.017250,0.130052,0.298408,0.405515,-0.626844,-0.594623,96.628330,6.208504,-119.730972
50169,NaN,-1.063152,9.708689,-1.172370,0.043308,-0.017930,0.024038,-0.050418,-0.013818,0.136244,0.298864,0.404939,-0.627020,-0.594601,96.598882,6.128974,-119.751914
50170,NaN,-1.015217,9.717677,-1.144903,0.005589,-0.036423,0.024657,-0.046056,-0.005178,0.132612,0.299326,0.404407,-0.627190,-0.594552,96.572600,6.051000,-119.767615
50171,NaN,-0.987800,9.739625,-1.116350,-0.025145,-0.036921,0.040244,-0.045059,-0.004694,0.135009,0.299795,0.403870,-0.627366,-0.594495,96.546843,5.971556,-119.783173
50172,NaN,-0.959040,9.760990,-1.063282,-0.077349,-0.026270,0.052431,-0.048854,-0.002990,0.131388,0.300266,0.403343,-0.627520,-0.594452,96.519134,5.894107,-119.797481
50173,NaN,-0.987341,9.701605,-1.082352,-0.027824,-0.000333,-0.001128,-0.042048,-0.002864,0.127504,0.300712,0.402839,-0.627686,-0.594393,96.495309,5.818802,-119.811424
50174,NaN,-1.022168,9.675465,-1.076110,-0.002127,0.042546,-0.024141,-0.045624,-0.004690,0.122566,0.301145,0.402340,-0.627835,-0.594355,96.469440,5.746469,-119.826047
50175,NaN,-0.998440,9.698208,-1.096736,0.010044,0.019763,-0.001752,-0.035656,-0.010346,0.123391,0.301543,0.401835,-0.628022,-0.594297,96.448921,5.673976,-119.843937
50176,NaN,-0.943288,9.672173,-1.047185,-0.046764,0.006629,-0.038483,-0.037109,-0.015920,0.118316,0.301910,0.401328,-0.628204,-0.594261,96.427368,5.604772,-119.864653
50177,NaN,-0.994571,9.714063,-1.063790,-0.004324,0.049983,0.009803,-0.031072,-0.020070,0.120493,0.302259,0.400811,-0.628413,-0.594212,96.409002,5.534539,-119.887863
50178,NaN,-0.931834,9.710569,-1.112440,0.015321,-0.019927,0.005680,-0.030625,-0.025866,0.116602,0.302576,0.400289,-0.628625,-0.594178,96.390682,5.466929,-119.914112
50179,NaN,-0.885781,9.718485,-1.086802,-0.022396,-0.038384,0.006310,-0.026209,-0.018500,0.114212,0.302902,0.399803,-0.628834,-0.594119,96.375285,5.400159,-119.935974
50180,NaN,-0.943979,9.706197,-1.104968,0.031743,0.011312,0.001647,-0.027977,-0.019324,0.109281,0.303212,0.399327,-0.629028,-0.594074,96.358940,5.336288,-119.957966
50181,NaN,-0.933535,9.707536,-1.102072,0.031798,0.011855,0.001646,-0.027848,-0.020515,0.110437,0.303523,0.398844,-0.629227,-0.594029,96.342573,5.271783,-119.980697
50182,NaN,-0.963668,9.735655,-1.096336,0.045811,0.048374,0.031557,-0.026145,-0.015952,0.111717,0.303848,0.398373,-0.629426,-0.593968,96.327492,5.206300,-120.000875
50183,NaN,-1.029496,9.700855,-1.016989,0.023543,0.154860,-0.005742,-0.022700,-0.025361,0.119929,0.304161,0.397853,-0.629666,-0.593902,96.313827,5.136683,-120.026940
50184,NaN,-1.027507,9.737375,-1.062245,0.064125,0.138910,0.035012,-0.015858,-0.043931,0.126576,0.304421,0.397268,-0.629967,-0.593841,96.303186,5.064491,-120.064021
50185,NaN,-0.981085,9.745785,-1.062117,0.047851,0.109307,0.039048,-0.012446,-0.052374,0.143367,0.304698,0.396609,-0.630324,-0.593760,96.293983,4.983214,-120.106975
50186,NaN,-0.995873,9.707319,-1.084157,0.088040,0.122999,0.004456,-0.013573,-0.064168,0.149116,0.304957,0.395896,-0.630707,-0.593697,96.283636,4.899445,-120.157011
50187,NaN,-0.944672,9.714499,-1.035437,0.028877,0.115727,0.001679,-0.009302,-0.069711,0.165929,0.305239,0.395119,-0.631144,-0.593605,96.275408,4.806391,-120.211255
50188,NaN,-0.882978,9.743821,-1.060450,0.024674,0.062809,0.028129,-0.006082,-0.073093,0.173013,0.305525,0.394314,-0.631609,-0.593499,96.268968,4.709557,-120.267855
50189,NaN,-0.847734,9.732463,-1.085301,0.039176,0.034199,0.016587,-0.003362,-0.066967,0.180374,0.305847,0.393508,-0.632087,-0.593360,96.264383,4.608092,-120.321402
50190,NaN,-0.788849,9.706062,-1.063578,0.003788,0.009930,-0.016720,0.004507,-0.067810,0.184961,0.306164,0.392697,-0.632597,-0.593190,96.264391,4.504116,-120.375703
50191,NaN,-0.702315,9.719863,-1.043120,-0.050298,-0.038628,-0.012022,0.009338,-0.065317,0.187264,0.306486,0.391892,-0.633122,-0.592996,96.267317,4.398623,-120.428722
50192,NaN,-0.694065,9.756267,-1.091106,-0.009742,-0.054574,0.028749,0.010948,-0.055957,0.188620,0.306837,0.391113,-0.633639,-0.592775,96.271710,4.291826,-120.476478
50193,NaN,-0.734293,9.709399,-1.040835,-0.017510,0.022751,-0.020134,0.016640,-0.050726,0.195861,0.307216,0.390335,-0.634179,-0.592515,96.279594,4.180532,-120.521707
50194,NaN,-0.754458,9.826261,-1.036374,-0.017533,0.058846,0.096646,0.011569,-0.040098,0.199849,0.307649,0.389568,-0.634694,-0.592243,96.285127,4.066357,-120.561123
50195,NaN,-0.761281,9.875398,-1.034494,-0.012832,0.083251,0.145530,0.015775,-0.042906,0.204431,0.308079,0.388784,-0.635235,-0.591956,96.292968,3.949702,-120.602441
50196,NaN,-0.741030,9.788211,-1.013357,-0.020163,0.095417,0.055217,0.010459,-0.043624,0.216608,0.308552,0.387950,-0.635783,-0.591667,96.297817,3.826213,-120.644940
50197,NaN,-0.738711,9.714318,-0.966235,-0.041913,0.136750,-0.023571,0.016947,-0.052621,0.223359,0.309004,0.387078,-0.636377,-0.591364,96.306062,3.699399,-120.693009
50198,NaN,-0.802189,9.684960,-1.012155,0.043083,0.187337,-0.043889,0.025335,-0.080168,0.231922,0.309376,0.386110,-0.637054,-0.591073,96.318237,3.569505,-120.757354
50199,NaN,-0.794040,9.723806,-1.134310,0.147952,0.137842,0.007121,0.023935,-0.101826,0.239660,0.309705,0.385049,-0.637774,-0.590816,96.328923,3.436531,-120.834561
50200,NaN,-0.681702,9.811109,-1.139255,0.094188,0.059731,0.087211,0.020238,-0.117151,0.240327,0.309993,0.383936,-0.638507,-0.590598,96.337199,3.304214,-120.920564
50201,NaN,-0.551656,9.795888,-1.148055,0.047475,-0.035955,0.065480,0.019777,-0.118719,0.243750,0.310287,0.382805,-0.639247,-0.590378,96.345301,3.170004,-121.007686
50202,NaN,-0.416331,9.778183,-1.084029,-0.063555,-0.098084,0.033510,0.018687,-0.106046,0.247621,0.310634,0.381697,-0.639969,-0.590130,96.353409,3.032854,-121.087834
50203,NaN,-0.293113,9.796499,-1.116569,-0.091213,-0.199073,0.049160,0.022248,-0.074886,0.241022,0.311054,0.380706,-0.640640,-0.589820,96.364640,2.897444,-121.149809
50204,NaN,-0.286442,9.809860,-1.068561,-0.127042,-0.158137,0.057268,0.030719,-0.042704,0.242831,0.311566,0.379817,-0.641289,-0.589419,96.381818,2.759024,-121.193577
50205,NaN,-0.349319,9.812896,-1.041149,-0.108669,-0.068139,0.060632,0.034475,-0.016336,0.236111,0.312135,0.379033,-0.641893,-0.588964,96.401930,2.622710,-121.221925
50206,NaN,-0.387683,9.767804,-1.017073,-0.094964,-0.002020,0.015113,0.036673,0.000780,0.227952,0.312730,0.378328,-0.642461,-0.588482,96.423871,2.490008,-121.240043
50207,NaN,-0.428697,9.755731,-0.943587,-0.126441,0.092358,-0.003311,0.045468,-0.001864,0.222646,0.313284,0.377646,-0.643048,-0.587984,96.450794,2.360453,-121.259381
50208,NaN,-0.374619,9.883437,-0.947398,-0.159200,0.068331,0.121606,0.052514,-0.013684,0.211070,0.313752,0.376977,-0.643652,-0.587504,96.481599,2.238312,-121.284771
50209,NaN,-0.412686,9.927129,-0.947569,-0.138098,0.122906,0.166384,0.056835,-0.021171,0.210602,0.314187,0.376293,-0.644278,-0.587023,96.514725,2.116886,-121.314461
50210,NaN,-0.481255,9.932419,-0.970839,-0.076842,0.190512,0.176549,0.048973,-0.031288,0.214029,0.314613,0.375556,-0.644903,-0.586581,96.543236,1.994236,-121.350202
50211,NaN,-0.538032,9.804426,-1.120244,0.100930,0.178584,0.068055,0.052765,-0.041745,0.223146,0.315025,0.374765,-0.645571,-0.586131,96.573731,1.867047,-121.392554
50212,NaN,-0.401323,9.807620,-1.230622,0.130449,0.026017,0.079086,0.042031,-0.046177,0.231641,0.315466,0.373915,-0.646230,-0.585709,96.598115,1.735389,-121.438049
50213,NaN,-0.323868,9.887289,-1.285064,0.135847,-0.044259,0.161996,0.031915,-0.046488,0.234198,0.315933,0.373040,-0.646864,-0.585316,96.616755,1.602259,-121.483933
50214,NaN,-0.314938,9.990233,-1.284253,0.128832,-0.026021,0.263816,0.023637,-0.037612,0.243001,0.316469,0.372149,-0.647475,-0.584918,96.630922,1.463600,-121.525384
50215,NaN,-0.465737,10.001552,-1.272800,0.208514,0.130974,0.277272,0.004861,-0.024385,0.254644,0.317117,0.371228,-0.648030,-0.584538,96.634555,1.317392,-121.560092
50216,NaN,-0.456373,9.926812,-1.150908,0.122529,0.205866,0.188163,-0.004902,-0.023530,0.265635,0.317816,0.370258,-0.648575,-0.584168,96.632724,1.164927,-121.595043
50217,NaN,-0.278173,9.842864,-1.138672,0.042561,0.079531,0.099312,-0.007135,-0.021279,0.274016,0.318552,0.369263,-0.649124,-0.583788,96.629677,1.007487,-121.629257
50218,NaN,-0.088603,9.901256,-1.196462,0.001045,-0.086923,0.160609,-0.022343,-0.015440,0.270852,0.319324,0.368271,-0.649612,-0.583449,96.618112,0.851516,-121.659921
50219,NaN,-0.099236,9.742990,-1.268687,0.100461,-0.101382,0.012019,-0.027594,-0.015691,0.273223,0.320111,0.367260,-0.650089,-0.583124,96.603574,0.694146,-121.690843
50220,NaN,-0.120368,9.719546,-1.238191,0.104834,-0.047418,-0.014530,-0.037821,-0.015822,0.270937,0.320910,0.366240,-0.650530,-0.582834,96.583308,0.538134,-121.721643
50221,NaN,-0.172427,9.781199,-1.251681,0.154411,0.013945,0.048559,-0.039180,-0.018963,0.273099,0.321706,0.365201,-0.650975,-0.582550,96.562288,0.381029,-121.754313
50222,NaN,-0.077974,9.823278,-1.202043,0.076423,-0.017355,0.083856,-0.051921,-0.026391,0.274263,0.322504,0.364115,-0.651396,-0.582318,96.534080,0.223790,-121.791222
50223,NaN,-0.100883,9.834001,-1.143722,0.057067,0.053741,0.087800,-0.059033,-0.023959,0.277954,0.323334,0.363012,-0.651797,-0.582097,96.501857,0.064216,-121.826900
50224,NaN,-0.174755,9.945956,-1.152184,0.111351,0.139031,0.199721,-0.053857,-0.038081,0.272371,0.324091,0.361894,-0.652225,-0.581894,96.472745,-0.091228,-121.870175
50225,NaN,0.074328,9.922189,-1.237050,0.072390,-0.098507,0.185845,-0.057601,-0.038500,0.266295,0.324835,0.360788,-0.652631,-0.581711,96.441557,-0.243266,-121.913211
50226,NaN,0.050494,9.965790,-1.127971,0.007867,0.000951,0.216855,-0.067919,-0.037352,0.262866,0.325590,0.359678,-0.652997,-0.581565,96.404613,-0.393392,-121.955288
50227,NaN,0.093575,9.893311,-0.977486,-0.115909,0.057008,0.128394,-0.074745,-0.037913,0.253304,0.326328,0.358587,-0.653325,-0.581457,96.363816,-0.538125,-121.996970
50228,NaN,0.146666,9.808170,-0.926074,-0.161094,0.050187,0.038749,-0.073538,-0.037946,0.235176,0.327010,0.357556,-0.653624,-0.581373,96.323845,-0.672503,-122.037427
50229,NaN,0.315738,9.751981,-0.882828,-0.264938,-0.058974,-0.019501,-0.071525,-0.042283,0.214521,0.327614,0.356582,-0.653897,-0.581323,96.285086,-0.794932,-122.078958
50230,NaN,0.368276,9.657137,-1.028787,-0.145911,-0.173574,-0.096573,-0.067894,-0.046915,0.190256,0.328125,0.355680,-0.654145,-0.581309,96.248550,-0.903221,-122.121535
50231,NaN,0.560989,9.514237,-0.941923,-0.294980,-0.290153,-0.244437,-0.081318,-0.059585,0.166243,0.328549,0.354797,-0.654331,-0.581399,96.204448,-0.997134,-122.169757
50232,NaN,0.298696,9.679478,-0.932147,-0.163174,-0.042551,-0.085306,-0.084388,-0.069733,0.142028,0.328874,0.353959,-0.654481,-0.581558,96.158780,-1.076611,-122.222199
50233,NaN,0.403338,9.562605,-1.229826,0.053740,-0.290640,-0.167420,-0.078520,-0.069491,0.111972,0.329102,0.353229,-0.654594,-0.581745,96.116456,-1.139074,-122.272597
50234,NaN,0.298009,9.815521,-1.278154,0.141529,-0.204036,0.087074,-0.074666,-0.068315,0.096343,0.329281,0.352559,-0.654689,-0.581943,96.076401,-1.192690,-122.321333
50235,NaN,0.334539,9.762693,-1.176527,0.051188,-0.182487,0.024506,-0.090044,-0.048187,0.066497,0.329467,0.352021,-0.654653,-0.582205,96.027249,-1.230605,-122.356750
50236,NaN,0.287944,9.900678,-1.231857,0.122499,-0.161755,0.166422,-0.093493,-0.042305,0.057248,0.329650,0.351524,-0.654580,-0.582483,95.976103,-1.263584,-122.388231
50237,NaN,0.303989,9.895962,-1.076043,-0.005919,-0.093783,0.145802,-0.108571,-0.033390,0.044889,0.329854,0.351068,-0.654427,-0.582815,95.916157,-1.290129,-122.413862
50238,NaN,0.194676,9.865976,-0.983933,-0.011400,0.042795,0.104042,-0.115041,-0.032343,0.031973,0.330034,0.350647,-0.654230,-0.583187,95.852531,-1.309354,-122.438110
50239,NaN,0.308563,9.746438,-0.789748,-0.215558,0.037260,-0.031885,-0.130401,-0.054673,0.023170,0.330142,0.350164,-0.654010,-0.583663,95.780344,-1.322341,-122.474555
50240,NaN,-0.014293,9.940404,-1.381554,0.451436,0.004028,0.213115,-0.105788,-0.049739,0.008291,0.330180,0.349785,-0.653827,-0.584073,95.722226,-1.327124,-122.507319
50241,NaN,0.352268,9.801673,-1.063182,0.006031,-0.150549,0.051619,-0.110736,-0.037675,0.006511,0.330261,0.349438,-0.653606,-0.584482,95.661067,-1.331659,-122.533094
50242,NaN,0.125100,9.899554,-0.955928,0.040628,0.100036,0.133113,-0.115538,-0.031541,0.005682,0.330367,0.349105,-0.653360,-0.584897,95.597125,-1.336045,-122.555321
50243,NaN,0.571773,9.606075,-0.232865,-0.775705,0.082679,-0.218457,-0.146041,-0.053138,0.010401,0.330470,0.348641,-0.653068,-0.585441,95.515952,-1.342001,-122.590122
50244,NaN,-0.189828,9.868402,-1.446836,0.645427,0.088540,0.141724,-0.090869,-0.039579,-0.010949,0.330458,0.348379,-0.652877,-0.585817,95.466229,-1.336516,-122.616013
50245,NaN,0.503824,9.772527,-1.106448,-0.000355,-0.326124,0.029770,-0.103013,-0.031080,-0.007865,0.330504,0.348111,-0.652642,-0.586212,95.409390,-1.333323,-122.637225
50246,NaN,0.098633,9.964298,-0.487902,-0.304165,0.353532,0.153129,-0.137079,-0.011934,0.008244,0.330719,0.347790,-0.652304,-0.586658,95.332849,-1.340323,-122.648382
50247,NaN,0.388493,9.525406,-0.840951,-0.125099,-0.115993,-0.243864,-0.111106,-0.039719,-0.005710,0.330757,0.347476,-0.652063,-0.587090,95.271493,-1.337953,-122.674646
50248,NaN,0.201964,9.739001,-1.172588,0.247727,-0.128026,-0.005235,-0.099017,-0.062302,-0.014268,0.330675,0.347143,-0.651879,-0.587536,95.217397,-1.329495,-122.713354
50249,NaN,0.125191,9.961225,-1.194324,0.300102,-0.066053,0.215954,-0.092977,-0.026053,-0.015193,0.330698,0.346930,-0.651652,-0.587901,95.166231,-1.322473,-122.731330
50250,NaN,0.640730,9.506521,-0.662768,-0.387813,-0.251879,-0.272778,-0.126670,-0.040566,-0.016113,0.330730,0.346621,-0.651348,-0.588402,95.095996,-1.314152,-122.757552
50251,NaN,-0.173335,9.854576,-1.497554,0.738392,0.000190,0.129151,-0.091348,-0.018499,-0.032823,0.330723,0.346490,-0.651082,-0.588778,95.045639,-1.297488,-122.770337
50252,NaN,0.461607,9.934008,-1.022009,-0.002641,-0.280032,0.180493,-0.099944,0.002410,-0.030412,0.330805,0.346399,-0.650760,-0.589141,94.990138,-1.283213,-122.771323
50253,NaN,0.214089,9.789821,-0.974819,0.107695,-0.063690,0.027080,-0.110656,0.017797,-0.032972,0.330949,0.346343,-0.650377,-0.589516,94.928251,-1.268287,-122.763410
50254,NaN,0.216910,9.851054,-0.813575,-0.025292,0.016369,0.074239,-0.112870,0.018238,-0.038886,0.331080,0.346304,-0.649976,-0.589907,94.865138,-1.249952,-122.754972
50255,NaN,0.222240,9.813364,-0.732021,-0.087111,0.044750,0.029963,-0.109948,0.008955,-0.040650,0.331171,0.346248,-0.649596,-0.590308,94.803764,-1.230198,-122.751770
50256,NaN,0.164015,9.795210,-0.766992,-0.018429,0.064931,0.013642,-0.109205,-0.001114,-0.047169,0.331209,0.346185,-0.649223,-0.590734,94.742984,-1.206193,-122.754029
50257,NaN,0.117909,9.830164,-0.800056,0.038539,0.079057,0.050292,-0.104326,-0.010728,-0.047817,0.331205,0.346103,-0.648879,-0.591162,94.685061,-1.181413,-122.761773
50258,NaN,0.164771,9.851589,-0.768245,-0.008723,0.048836,0.070060,-0.106212,-0.022146,-0.051959,0.331155,0.345998,-0.648541,-0.591622,94.626234,-1.153699,-122.775872
50259,NaN,0.155457,9.855596,-0.806304,0.034081,0.026927,0.076962,-0.107749,-0.030134,-0.049975,0.331087,0.345860,-0.648215,-0.592098,94.566563,-1.126812,-122.794652
50260,NaN,0.166733,9.842640,-0.822437,0.048400,-0.001749,0.065541,-0.110883,-0.024216,-0.054394,0.331031,0.345748,-0.647862,-0.592581,94.505068,-1.097641,-122.809881
50261,NaN,0.210913,9.865789,-0.814270,0.022527,-0.043213,0.088773,-0.111967,-0.019838,-0.056561,0.330984,0.345655,-0.647494,-0.593063,94.442845,-1.067492,-122.822542
50262,NaN,0.210369,9.830902,-0.781490,0.003479,-0.037345,0.051399,-0.113196,-0.006000,-0.058218,0.330979,0.345606,-0.647097,-0.593528,94.379816,-1.036974,-122.827257
50263,NaN,0.206724,9.830243,-0.746090,-0.017877,-0.025478,0.047946,-0.113271,0.003493,-0.057744,0.331006,0.345583,-0.646684,-0.593975,94.316595,-1.007190,-122.826602
50264,NaN,0.134909,10.170838,-0.484597,-0.209926,0.184578,0.366744,-0.114916,0.008478,-0.053884,0.331064,0.345560,-0.646265,-0.594413,94.252437,-0.979778,-122.823295
50265,NaN,0.285975,9.504934,0.008640,-0.662121,0.276910,-0.330571,-0.145942,-0.011187,-0.049426,0.331125,0.345412,-0.645794,-0.594977,94.170646,-0.954128,-122.831450
50266,NaN,-0.183810,9.857418,-1.020534,0.444247,0.124985,0.088372,-0.092293,-0.039401,-0.053613,0.330989,0.345283,-0.645521,-0.595424,94.119898,-0.924880,-122.855588
50267,NaN,0.229316,9.956033,-0.868218,0.091918,-0.143965,0.182301,-0.092974,-0.022641,-0.059855,0.330890,0.345222,-0.645207,-0.595853,94.068545,-0.892819,-122.869916
50268,NaN,-0.030185,10.038822,-0.880990,0.243287,0.062372,0.261632,-0.078958,-0.004368,-0.054422,0.330841,0.345221,-0.644915,-0.596197,94.025107,-0.864565,-122.874046
50269,NaN,0.420673,9.630243,0.190016,-0.872624,0.232936,-0.213786,-0.130833,-0.036608,-0.045413,0.330806,0.345010,-0.644536,-0.596749,93.952176,-0.840228,-122.896992
50270,NaN,-0.311017,10.009801,-1.011212,0.518001,0.206906,0.237399,-0.073075,-0.005638,-0.066645,0.330706,0.345054,-0.644242,-0.597096,93.912105,-0.804946,-122.901425
50271,NaN,0.452776,10.073780,-0.868716,-0.016268,-0.362979,0.302089,-0.081049,0.003209,-0.057580,0.330677,0.345083,-0.643924,-0.597438,93.867354,-0.775241,-122.901176
50272,NaN,0.008876,9.802102,-0.818282,0.200374,0.015167,0.021461,-0.095682,0.038063,-0.056394,0.330787,0.345187,-0.643507,-0.597766,93.814003,-0.747503,-122.881073
50273,NaN,0.134036,9.821224,-0.671638,0.013184,-0.018675,0.032361,-0.087674,0.041023,-0.062430,0.330876,0.345333,-0.643099,-0.598072,93.765178,-0.716457,-122.859073
50274,NaN,0.040192,10.200589,0.285773,-0.751136,0.585545,0.347441,-0.124821,0.035719,-0.048721,0.331052,0.345358,-0.642612,-0.598484,93.695172,-0.692980,-122.840650
50275,NaN,0.196594,9.510632,-0.583747,-0.067939,-0.056617,-0.282541,-0.084296,0.012906,-0.065449,0.331036,0.345434,-0.642254,-0.598832,93.648494,-0.659130,-122.834681
50276,NaN,-0.172753,10.025757,-0.502953,0.043759,0.310638,0.222261,-0.087472,-0.015963,-0.068341,0.330922,0.345429,-0.641930,-0.599245,93.600226,-0.622526,-122.845147
50277,NaN,0.476181,9.528709,-0.812544,-0.021934,-0.433168,-0.247377,-0.082870,-0.021904,-0.072432,0.330770,0.345426,-0.641622,-0.599661,93.554580,-0.583429,-122.858891
50278,NaN,-0.188697,9.878618,-1.162508,0.618289,-0.058920,0.116480,-0.071106,-0.014886,-0.075898,0.330610,0.345475,-0.641332,-0.600032,93.515667,-0.542560,-122.868530
50279,NaN,0.105515,9.913322,-0.810092,0.163198,-0.123234,0.132136,-0.065938,0.010175,-0.073300,0.330528,0.345599,-0.641020,-0.600338,93.479536,-0.504107,-122.863951
50280,NaN,0.117039,9.892755,-0.363033,-0.214354,0.098487,0.084607,-0.092001,0.013321,-0.073729,0.330500,0.345691,-0.640624,-0.600724,93.428506,-0.465464,-122.857590
50281,NaN,-0.026337,10.224866,-0.511298,-0.023973,0.141262,0.423985,-0.084414,0.038727,-0.077144,0.330531,0.345882,-0.640202,-0.601046,93.381667,-0.425778,-122.836611
50282,NaN,0.177146,9.581451,-0.278874,-0.295478,0.060484,-0.230288,-0.119495,0.008444,-0.072303,0.330539,0.345909,-0.639733,-0.601525,93.314912,-0.387775,-122.833159
50283,NaN,-0.294245,9.933590,-0.813233,0.397593,0.169528,0.149105,-0.094193,-0.000932,-0.073499,0.330470,0.345953,-0.639353,-0.601941,93.262646,-0.348827,-122.835067
50284,NaN,-0.069840,9.896120,-0.334922,-0.119540,0.227780,0.086003,-0.098821,-0.027334,-0.070321,0.330334,0.345899,-0.639009,-0.602412,93.207859,-0.310792,-122.852221
50285,NaN,-0.028485,9.737837,-0.614201,0.103457,0.025940,-0.056041,-0.092429,-0.051965,-0.068487,0.330114,0.345776,-0.638727,-0.602902,93.156751,-0.273092,-122.883557
50286,NaN,-0.063941,9.949823,-0.658019,0.153737,0.028973,0.157848,-0.085355,-0.071339,-0.068741,0.329818,0.345608,-0.638498,-0.603403,93.109767,-0.234612,-122.926004
50287,NaN,-0.054859,9.994731,-0.375493,-0.085860,0.165893,0.187500,-0.100204,-0.054895,-0.062577,0.329619,0.345444,-0.638207,-0.603913,93.054171,-0.200258,-122.959264
50288,NaN,0.280253,9.792581,-0.758303,0.066302,-0.340088,0.007096,-0.106897,-0.048397,-0.064439,0.329447,0.345295,-0.637882,-0.604436,92.994750,-0.165013,-122.988788
50289,NaN,-0.102118,9.939732,-0.873646,0.369831,-0.088196,0.158641,-0.101578,-0.013180,-0.068243,0.329366,0.345272,-0.637508,-0.604887,92.938264,-0.128720,-122.998079
50290,NaN,-0.025823,9.903246,-0.751125,0.232249,-0.097197,0.115844,-0.105346,0.000298,-0.063687,0.329349,0.345270,-0.637109,-0.605318,92.879645,-0.095382,-122.999829
50291,NaN,-0.110551,9.901819,-0.635515,0.187069,0.026627,0.108321,-0.103427,0.010460,-0.058272,0.329377,0.345284,-0.636707,-0.605718,92.822070,-0.065488,-122.995950
50292,NaN,-0.093902,9.944154,-0.500160,0.068560,0.077811,0.143940,-0.104164,0.013445,-0.054484,0.329426,0.345295,-0.636305,-0.606107,92.764122,-0.037787,-122.990501
50293,NaN,-0.088768,10.023771,-0.236781,-0.151918,0.209612,0.210930,-0.106454,0.015350,-0.045931,0.329512,0.345279,-0.635907,-0.606487,92.704816,-0.015082,-122.984222
50294,NaN,-0.142876,10.006851,-0.445275,0.059250,0.132476,0.204033,-0.100860,0.020277,-0.043335,0.329611,0.345280,-0.635522,-0.606836,92.648763,0.006068,-122.975217
50295,NaN,-0.157590,9.983372,-0.387314,0.026024,0.167662,0.177996,-0.101215,0.018326,-0.035085,0.329730,0.345247,-0.635154,-0.607175,92.592463,0.022500,-122.967564
50296,NaN,-0.148194,9.904142,-0.114640,-0.197142,0.298488,0.086765,-0.114137,0.011240,-0.023337,0.329884,0.345135,-0.634778,-0.607549,92.528805,0.032455,-122.964288
50297,NaN,-0.270224,10.037415,-0.326229,0.049870,0.282341,0.229570,-0.103539,0.020300,-0.010921,0.330087,0.345028,-0.634440,-0.607852,92.471176,0.035022,-122.956143
50298,NaN,-0.129928,9.930187,-0.463146,0.099667,0.082154,0.128304,-0.088296,0.000259,-0.013876,0.330190,0.344895,-0.634177,-0.608147,92.422317,0.039839,-122.959406
50299,NaN,-0.208178,10.014838,-0.192073,-0.080484,0.292086,0.201573,-0.098742,0.008524,0.001320,0.330384,0.344721,-0.633894,-0.608435,92.367433,0.035696,-122.958300
50300,NaN,-0.035817,9.982603,-0.497314,0.090476,-0.023120,0.181923,-0.079502,0.017656,0.003994,0.330581,0.344598,-0.633659,-0.608641,92.323616,0.029871,-122.952031
50301,NaN,-0.175515,10.148290,-0.237307,-0.049192,0.235737,0.337038,-0.095683,0.026983,0.015773,0.330872,0.344439,-0.633380,-0.608864,92.270489,0.017031,-122.940683
50302,NaN,-0.206425,9.920476,-0.101025,-0.130312,0.327676,0.104183,-0.092081,0.026509,0.013245,0.331147,0.344293,-0.633108,-0.609080,92.219463,0.005724,-122.929544
50303,NaN,-0.020815,9.971145,-0.349515,-0.016147,0.035289,0.164527,-0.083578,0.031376,0.019435,0.331442,0.344156,-0.632864,-0.609250,92.173267,-0.009289,-122.915738
50304,NaN,0.050868,9.890383,-0.479345,0.064411,-0.098891,0.088732,-0.078055,0.039757,0.023540,0.331766,0.344041,-0.632631,-0.609381,92.130267,-0.026756,-122.897217
50305,NaN,-0.135395,9.816177,-0.314997,0.038119,0.143409,0.008355,-0.086552,0.045391,0.021680,0.332118,0.343934,-0.632358,-0.609533,92.082353,-0.043328,-122.875411
50306,NaN,-0.024918,9.734536,-0.398987,0.059378,0.001843,-0.070128,-0.079437,0.037450,0.029358,0.332454,0.343792,-0.632134,-0.609662,92.038552,-0.064048,-122.858303
50307,NaN,0.056353,9.836444,-0.585266,0.175898,-0.165811,0.038348,-0.055060,0.049397,0.027426,0.332782,0.343731,-0.631961,-0.609698,92.008664,-0.083959,-122.834295
50308,NaN,-0.002230,9.878130,-0.396830,0.055050,-0.013833,0.073247,-0.069033,0.059383,0.028381,0.333167,0.343675,-0.631730,-0.609758,91.970793,-0.104536,-122.804583
50309,NaN,-0.048871,9.826427,-0.441099,0.126131,-0.000035,0.022948,-0.063971,0.073953,0.026969,0.333585,0.343676,-0.631487,-0.609780,91.935754,-0.124636,-122.766480
50310,NaN,0.117727,9.760075,-0.455804,0.057259,-0.149587,-0.042579,-0.065684,0.078832,0.030940,0.334033,0.343677,-0.631238,-0.609792,91.899754,-0.147013,-122.725653
50311,NaN,-0.013979,9.867866,-0.451443,0.128687,-0.034001,0.064612,-0.052280,0.090252,0.029174,0.334490,0.343740,-0.631007,-0.609745,91.871360,-0.168638,-122.678234
50312,NaN,0.052634,9.843671,-0.330916,-0.001758,-0.024802,0.036654,-0.052933,0.091967,0.034088,0.334967,0.343792,-0.630780,-0.609688,91.842612,-0.193020,-122.629920
50313,NaN,-0.063454,9.843826,-0.291427,0.033882,0.095104,0.035139,-0.051350,0.100078,0.032245,0.335462,0.343877,-0.630541,-0.609616,91.814691,-0.216535,-122.576908
50314,NaN,-0.008051,9.892996,-0.211394,-0.058449,0.093905,0.081952,-0.044303,0.099078,0.042857,0.335974,0.343937,-0.630343,-0.609505,91.790829,-0.246021,-122.524657
50315,NaN,-0.060530,9.909522,-0.250064,0.008052,0.119901,0.099445,-0.042159,0.092766,0.044725,0.336468,0.343976,-0.630165,-0.609395,91.768142,-0.276508,-122.476035
50316,NaN,-0.021391,9.913693,-0.248464,-0.008503,0.090555,0.103724,-0.035558,0.097970,0.049814,0.336981,0.344025,-0.630007,-0.609246,91.749237,-0.309918,-122.424518
50317,NaN,-0.031160,9.894741,-0.245988,0.001001,0.103108,0.084623,-0.035168,0.096515,0.055672,0.337508,0.344052,-0.629863,-0.609089,91.730488,-0.346705,-122.373917
50318,NaN,0.024113,9.946408,-0.191160,-0.069988,0.090623,0.134927,-0.033216,0.099662,0.058256,0.338049,0.344084,-0.629723,-0.608915,91.712853,-0.384944,-122.321555
50319,NaN,0.105878,9.914801,-0.147860,-0.143543,0.047862,0.102626,-0.032543,0.113208,0.058029,0.338631,0.344158,-0.629562,-0.608717,91.695474,-0.423335,-122.261411
50320,NaN,0.064407,9.860513,-0.172036,-0.093813,0.072919,0.048821,-0.030492,0.115119,0.061712,0.339226,0.344231,-0.629410,-0.608502,91.679259,-0.463782,-122.200232
50321,NaN,0.076549,9.795182,-0.201580,-0.067840,0.049960,-0.015494,-0.030173,0.114916,0.066451,0.339834,0.344287,-0.629267,-0.608278,91.663145,-0.506990,-122.139227
50322,NaN,0.081516,9.797997,-0.222859,-0.046463,0.039250,-0.012006,-0.027411,0.115137,0.065202,0.340434,0.344354,-0.629130,-0.608046,91.648605,-0.549403,-122.078072
50323,NaN,0.055709,9.762842,-0.246528,-0.006173,0.052368,-0.046716,-0.028219,0.105386,0.062039,0.340996,0.344399,-0.629001,-0.607840,91.633574,-0.589896,-122.022431
50324,NaN,0.077828,9.753413,-0.295763,0.029377,0.012269,-0.054533,-0.015872,0.094232,0.065891,0.341512,0.344419,-0.628935,-0.607606,91.625683,-0.632334,-121.973240
50325,NaN,0.105445,9.707048,-0.325758,0.045881,-0.022634,-0.099737,-0.012854,0.082466,0.066168,0.341987,0.344407,-0.628899,-0.607383,91.619525,-0.674802,-121.930780
50326,NaN,0.197558,9.702431,-0.355122,0.026840,-0.111319,-0.102426,-0.016837,0.079994,0.057586,0.342435,0.344408,-0.628840,-0.607192,91.611108,-0.712242,-121.889599
50327,NaN,0.285484,9.731806,-0.380222,0.005512,-0.193850,-0.071204,-0.010636,0.080921,0.052804,0.342861,0.344437,-0.628790,-0.606987,91.606172,-0.747020,-121.847797
50328,NaN,0.295994,9.694780,-0.358835,-0.013523,-0.188042,-0.108585,-0.013550,0.089249,0.051011,0.343312,0.344492,-0.628713,-0.606780,91.599517,-0.780836,-121.801200
50329,NaN,0.336931,9.667237,-0.387789,-0.006501,-0.234861,-0.134663,-0.005969,0.095021,0.038195,0.343729,0.344618,-0.628628,-0.606561,91.597093,-0.807465,-121.751082
50330,NaN,0.329801,9.639678,-0.315439,-0.061039,-0.188323,-0.164243,-0.008183,0.098161,0.030018,0.344135,0.344775,-0.628516,-0.606357,91.593393,-0.829395,-121.699039
50331,NaN,0.299758,9.632988,-0.288868,-0.065719,-0.146410,-0.172045,0.000552,0.098250,0.020384,0.344498,0.344977,-0.628413,-0.606143,91.594636,-0.845871,-121.646785
50332,NaN,0.300300,9.635773,-0.313040,-0.044370,-0.157137,-0.168537,0.004942,0.098305,0.015559,0.344837,0.345203,-0.628315,-0.605922,91.598421,-0.859527,-121.594428
50333,NaN,0.301836,9.635704,-0.313686,-0.044344,-0.156516,-0.168527,0.014731,0.102205,0.009806,0.345155,0.345475,-0.628231,-0.605674,91.607726,-0.870016,-121.539741
50334,NaN,0.331990,9.676325,-0.336424,-0.041918,-0.191030,-0.126800,0.016117,0.108327,0.000634,0.345462,0.345797,-0.628123,-0.605427,91.617805,-0.875303,-121.481406
50335,NaN,0.260765,9.674427,-0.383175,0.034042,-0.153215,-0.128436,0.020460,0.109633,-0.005298,0.345748,0.346148,-0.628017,-0.605173,91.630313,-0.877282,-121.422223
50336,NaN,0.261994,9.671521,-0.360964,0.012724,-0.141252,-0.131927,0.026847,0.111567,-0.006392,0.346024,0.346521,-0.627924,-0.604899,91.646506,-0.878626,-121.361918
50337,NaN,0.302416,9.765141,-0.379338,0.003411,-0.181474,-0.037188,0.029075,0.118251,-0.017932,0.346284,0.346953,-0.627806,-0.604625,91.663872,-0.873545,-121.297591
50338,NaN,0.304949,9.756628,-0.309457,-0.060569,-0.146800,-0.047682,0.035296,0.132201,-0.020575,0.346568,0.347446,-0.627678,-0.604312,91.684732,-0.867151,-121.225230
50339,NaN,0.236788,9.743415,-0.261677,-0.069914,-0.063592,-0.063341,0.043047,0.141506,-0.031946,0.346833,0.348016,-0.627537,-0.603978,91.709916,-0.854486,-121.147341
50340,NaN,0.152519,9.711268,-0.215876,-0.069797,0.031492,-0.098125,0.043932,0.146870,-0.034023,0.347107,0.348611,-0.627386,-0.603635,91.735626,-0.840707,-121.066342
50341,NaN,0.176319,9.783200,-0.213448,-0.090975,0.014537,-0.026005,0.053022,0.141994,-0.039195,0.347334,0.349222,-0.627261,-0.603280,91.766558,-0.823972,-120.988035
50342,NaN,0.190166,9.796567,-0.168821,-0.143075,0.025998,-0.013900,0.059312,0.139443,-0.045406,0.347523,0.349856,-0.627148,-0.602921,91.801184,-0.803628,-120.911073
50343,NaN,0.155125,9.758625,-0.177594,-0.124113,0.050384,-0.052133,0.066640,0.132448,-0.049515,0.347665,0.350494,-0.627062,-0.602558,91.840047,-0.780904,-120.838026
50344,NaN,0.147691,9.789934,-0.156048,-0.147698,0.068553,-0.021750,0.074844,0.124756,-0.054858,0.347752,0.351141,-0.627004,-0.602191,91.883742,-0.754979,-120.769273
50345,NaN,0.208955,9.803059,-0.213899,-0.138331,-0.013389,-0.006054,0.075020,0.118796,-0.054114,0.347822,0.351766,-0.626959,-0.601833,91.927569,-0.729470,-120.703924
50346,NaN,0.211207,9.734820,-0.229013,-0.133762,-0.025136,-0.073835,0.076822,0.118705,-0.057764,0.347878,0.352406,-0.626912,-0.601475,91.972501,-0.701869,-120.638540
50347,NaN,0.168103,9.738887,-0.308387,-0.053110,-0.028663,-0.067656,0.085849,0.116335,-0.065129,0.347888,0.353077,-0.626883,-0.601106,92.022611,-0.670108,-120.574341
50348,NaN,0.194282,9.747978,-0.365735,-0.027116,-0.080693,-0.056288,0.079448,0.118206,-0.067501,0.347907,0.353751,-0.626827,-0.600757,92.069118,-0.637032,-120.508998
50349,NaN,0.215430,9.793761,-0.443415,0.017926,-0.137890,-0.007513,0.085816,0.119182,-0.072263,0.347904,0.354452,-0.626779,-0.600395,92.119264,-0.601355,-120.442966
50350,NaN,0.226855,9.781095,-0.478007,0.032055,-0.166696,-0.018763,0.082120,0.126006,-0.075518,0.347919,0.355178,-0.626703,-0.600037,92.167337,-0.563968,-120.372930
50351,NaN,0.203797,9.764413,-0.511558,0.062858,-0.165582,-0.034364,0.083952,0.130703,-0.078882,0.347935,0.355932,-0.626617,-0.599671,92.216436,-0.524866,-120.300096
50352,NaN,0.115805,9.705503,-0.547300,0.129265,-0.110839,-0.092568,0.083937,0.130999,-0.083740,0.347937,0.356701,-0.626522,-0.599312,92.265620,-0.483007,-120.226954
50353,NaN,0.174294,9.720912,-0.629514,0.159890,-0.204173,-0.073307,0.080365,0.130554,-0.085069,0.347940,0.357466,-0.626414,-0.598967,92.312768,-0.440483,-120.153999
50354,NaN,0.126726,9.755593,-0.681687,0.216922,-0.190184,-0.036742,0.090521,0.127301,-0.088866,0.347903,0.358252,-0.626335,-0.598602,92.365851,-0.395729,-120.082782
50355,NaN,0.070080,9.750914,-0.541790,0.112903,-0.073381,-0.047411,0.089634,0.119985,-0.094192,0.347828,0.359030,-0.626256,-0.598262,92.418462,-0.347861,-120.015583
50356,NaN,0.037311,9.823706,-0.444056,0.030297,0.003197,0.021073,0.091604,0.112635,-0.095887,0.347722,0.359795,-0.626192,-0.597931,92.472332,-0.298863,-119.952507
50357,NaN,0.090764,9.892496,-0.374171,-0.071536,-0.009467,0.087035,0.088865,0.109200,-0.100991,0.347594,0.360560,-0.626116,-0.597624,92.524646,-0.246958,-119.891224
50358,NaN,0.066454,9.870655,-0.360051,-0.083368,0.014380,0.064392,0.088779,0.113242,-0.109247,0.347454,0.361363,-0.626018,-0.597323,92.577010,-0.190444,-119.827371
50359,NaN,0.091414,9.869818,-0.320751,-0.142661,0.007846,0.061730,0.088746,0.116039,-0.116382,0.347301,0.362196,-0.625901,-0.597030,92.629364,-0.130021,-119.761678
50360,NaN,0.047118,9.860549,-0.280207,-0.168596,0.061134,0.050323,0.086922,0.116696,-0.122462,0.347135,0.363047,-0.625766,-0.596751,92.680793,-0.066152,-119.695395
50361,NaN,0.070979,9.840108,-0.389574,-0.097741,-0.019876,0.034879,0.081477,0.109521,-0.127815,0.346941,0.363883,-0.625617,-0.596511,92.729130,0.000874,-119.633018
50362,NaN,0.010313,9.793930,-0.523624,0.037263,-0.040626,-0.004920,0.086097,0.103848,-0.136588,0.346694,0.364737,-0.625475,-0.596281,92.780236,0.073065,-119.573587
50363,NaN,0.068375,9.775250,-0.609203,0.070097,-0.140192,-0.019490,0.086207,0.106439,-0.138945,0.346447,0.365607,-0.625324,-0.596050,92.831436,0.146437,-119.512543
50364,NaN,0.112677,9.732692,-0.647810,0.069767,-0.205168,-0.060218,0.092754,0.111047,-0.142334,0.346192,0.366512,-0.625178,-0.595795,92.886525,0.221600,-119.448696
50365,NaN,0.049079,9.712986,-0.706413,0.138566,-0.185591,-0.076679,0.092789,0.122199,-0.147870,0.345956,0.367466,-0.625002,-0.595529,92.941700,0.299505,-119.378235
50366,NaN,0.035508,9.712389,-0.715379,0.138558,-0.184996,-0.076667,0.092922,0.129606,-0.150005,0.345735,0.368450,-0.624809,-0.595252,92.997124,0.378382,-119.303395
50367,NaN,0.055878,9.716391,-0.724663,0.121862,-0.214300,-0.072271,0.093046,0.134732,-0.154682,0.345516,0.369463,-0.624599,-0.594972,93.052696,0.459669,-119.225405
50368,NaN,0.051695,9.769226,-0.728968,0.110099,-0.219296,-0.019240,0.093120,0.147169,-0.161416,0.345315,0.370534,-0.624353,-0.594680,93.108542,0.544386,-119.140009
50369,NaN,0.033501,9.796110,-0.661735,0.043911,-0.178295,0.004086,0.089600,0.154039,-0.164879,0.345132,0.371630,-0.624078,-0.594392,93.162487,0.630751,-119.050495
50370,NaN,-0.062750,9.755682,-0.550319,-0.019731,-0.049135,-0.041440,0.094358,0.172234,-0.167697,0.344987,0.372796,-0.623780,-0.594059,93.219475,0.718095,-118.950391
50371,NaN,-0.136811,9.798832,-0.554944,0.001941,0.005679,0.002796,0.095592,0.168160,-0.170456,0.344819,0.373960,-0.623486,-0.593733,93.277239,0.807015,-118.852444
50372,NaN,-0.201566,9.773670,-0.565835,0.028140,0.047999,-0.020737,0.092228,0.159383,-0.173499,0.344620,0.375101,-0.623191,-0.593438,93.333213,0.897902,-118.759323
50373,NaN,-0.192737,9.841610,-0.520863,-0.035694,0.053990,0.044367,0.099071,0.149496,-0.172806,0.344379,0.376222,-0.622933,-0.593139,93.393108,0.988597,-118.671791
50374,NaN,-0.243145,9.835718,-0.530872,-0.018976,0.084488,0.039965,0.097611,0.133044,-0.172523,0.344090,0.377290,-0.622699,-0.592874,93.452193,1.079636,-118.593579
50375,NaN,-0.225128,9.837798,-0.516350,-0.056976,0.066598,0.040833,0.097019,0.121954,-0.174380,0.343761,0.378330,-0.622478,-0.592634,93.510886,1.172009,-118.521554
50376,NaN,-0.178821,9.883221,-0.547445,-0.071368,0.002291,0.087040,0.098158,0.127472,-0.176678,0.343441,0.379394,-0.622246,-0.592383,93.570475,1.265460,-118.446190
50377,NaN,-0.278825,9.856333,-0.607653,0.014175,0.051693,0.066148,0.093800,0.125392,-0.179405,0.343113,0.380453,-0.621999,-0.592154,93.627613,1.360435,-118.371824
50378,NaN,-0.378261,9.825053,-0.619435,0.057114,0.123874,0.038191,0.099667,0.119753,-0.176055,0.342766,0.381495,-0.621784,-0.591911,93.688209,1.453658,-118.300701
50379,NaN,-0.337307,9.904352,-0.648271,0.040461,0.065831,0.118285,0.104617,0.112496,-0.173990,0.342393,0.382516,-0.621599,-0.591661,93.751594,1.545859,-118.233706
50380,NaN,-0.266099,9.907306,-0.756431,0.084977,-0.057007,0.126488,0.091848,0.110667,-0.169575,0.342051,0.383496,-0.621387,-0.591447,93.807793,1.635571,-118.167821
50381,NaN,-0.335861,9.911145,-0.716320,0.066350,0.014347,0.129751,0.093017,0.111369,-0.172078,0.341702,0.384487,-0.621172,-0.591231,93.864728,1.726586,-118.101350
50382,NaN,-0.380612,9.870404,-0.728820,0.085341,0.038552,0.091460,0.091356,0.114116,-0.170916,0.341367,0.385480,-0.620949,-0.591013,93.920922,1.816799,-118.033257
50383,NaN,-0.410682,9.849330,-0.739497,0.094851,0.050948,0.072312,0.085993,0.111198,-0.166402,0.341047,0.386440,-0.620723,-0.590808,93.974036,1.904448,-117.966925
50384,NaN,-0.338388,9.846891,-0.773175,0.075447,-0.037696,0.069945,0.088065,0.114784,-0.168777,0.340725,0.387422,-0.620492,-0.590593,94.028571,1.993284,-117.898358
50385,NaN,-0.246401,9.825076,-0.734527,-0.015080,-0.110194,0.042258,0.082741,0.114579,-0.171442,0.340406,0.388401,-0.620239,-0.590399,94.080111,2.083552,-117.829718
50386,NaN,-0.284850,9.743193,-0.651043,-0.079006,-0.046656,-0.044045,0.082857,0.120579,-0.167702,0.340116,0.389386,-0.619984,-0.590186,94.132004,2.171410,-117.757710
50387,NaN,-0.314897,9.725849,-0.709440,-0.026913,-0.057086,-0.056121,0.078624,0.116332,-0.177792,0.339790,0.390383,-0.619702,-0.590011,94.181455,2.265111,-117.687634
50388,NaN,-0.385202,9.734658,-0.741413,0.018358,-0.019963,-0.042279,0.078858,0.115205,-0.176744,0.339463,0.391373,-0.619424,-0.589835,94.231186,2.358234,-117.618156
50389,NaN,-0.435780,9.729220,-0.774026,0.056402,-0.000923,-0.043167,0.069920,0.112016,-0.183253,0.339125,0.392358,-0.619112,-0.589703,94.275793,2.455120,-117.550149
50390,NaN,-0.478557,9.779204,-0.826678,0.103969,0.001196,0.012505,0.068428,0.101527,-0.183774,0.338754,0.393310,-0.618812,-0.589597,94.319460,2.552736,-117.488032
50391,NaN,-0.549525,9.785608,-0.833995,0.127972,0.049719,0.022798,0.076162,0.090801,-0.179225,0.338349,0.394230,-0.618561,-0.589479,94.367323,2.648135,-117.432171
50392,NaN,-0.478508,9.780605,-0.816922,0.065941,-0.016099,0.013397,0.072739,0.084158,-0.179637,0.337927,0.395125,-0.618309,-0.589385,94.413201,2.744050,-117.380002
50393,NaN,-0.529256,9.772962,-0.825244,0.082703,0.014343,0.008965,0.075871,0.069858,-0.176493,0.337465,0.395973,-0.618097,-0.589304,94.460501,2.838726,-117.336075
50394,NaN,-0.545804,9.771412,-0.832794,0.082704,0.014919,0.008964,0.071439,0.061338,-0.173311,0.336994,0.396779,-0.617891,-0.589247,94.505144,2.931965,-117.297078
50395,NaN,-0.527988,9.777799,-0.863573,0.087248,-0.025784,0.016940,0.067893,0.056971,-0.171187,0.336523,0.397558,-0.617686,-0.589206,94.547629,3.024124,-117.260606
50396,NaN,-0.551129,9.806872,-0.819968,0.042419,0.003930,0.043731,0.075649,0.052560,-0.172473,0.336018,0.398341,-0.617509,-0.589151,94.594549,3.117226,-117.226517
50397,NaN,-0.675582,9.819942,-0.827748,0.090457,0.100384,0.064283,0.076818,0.039580,-0.166838,0.335487,0.399070,-0.617367,-0.589109,94.641713,3.207645,-117.200039
50398,NaN,-0.691628,9.818179,-0.835364,0.090465,0.100959,0.064277,0.073352,0.031618,-0.166025,0.334941,0.399768,-0.617229,-0.589091,94.686737,3.297985,-117.178072
50399,NaN,-0.713145,9.854954,-0.913908,0.152083,0.073569,0.108772,0.077219,0.019987,-0.157819,0.334375,0.400411,-0.617138,-0.589071,94.733545,3.384134,-117.163076
50400,NaN,-0.687790,9.825882,-0.922832,0.137578,0.037977,0.079342,0.074571,0.009860,-0.152142,0.333799,0.401003,-0.617068,-0.589069,94.778559,3.467548,-117.154067
50401,NaN,-0.587754,9.859643,-0.853389,0.013934,-0.028501,0.101205,0.072586,0.011041,-0.144887,0.333253,0.401572,-0.617003,-0.589058,94.822414,3.546718,-117.144671
50402,NaN,-0.427272,9.850103,-0.737124,-0.174069,-0.126353,0.071854,0.072375,0.036778,-0.150346,0.332769,0.402233,-0.616884,-0.589005,94.867162,3.627790,-117.120220
50403,NaN,-0.361692,9.790238,-0.673944,-0.266943,-0.163807,0.002386,0.074164,0.062471,-0.159459,0.332335,0.403001,-0.616709,-0.588909,94.913883,3.712752,-117.080564
50404,NaN,-0.430243,9.713943,-0.784111,-0.143780,-0.161875,-0.060061,0.066613,0.088078,-0.168810,0.331967,0.403860,-0.616449,-0.588800,94.957393,3.801793,-117.025720
50405,NaN,-0.376573,9.736569,-0.960193,-0.028376,-0.301009,-0.026313,0.071385,0.106785,-0.176890,0.331622,0.404806,-0.616155,-0.588652,95.004415,3.894437,-116.959701
50406,NaN,-0.486612,9.594344,-1.001303,0.059488,-0.229538,-0.156882,0.064889,0.118070,-0.179318,0.331318,0.405782,-0.615818,-0.588504,95.048339,3.987880,-116.887015
50407,NaN,-0.543255,9.622447,-1.055796,0.116573,-0.215682,-0.120361,0.063544,0.123769,-0.190378,0.331002,0.406806,-0.615444,-0.588366,95.091830,4.087260,-116.810436
50408,NaN,-0.614211,9.628480,-1.087330,0.161888,-0.178637,-0.106555,0.062086,0.119346,-0.191900,0.330669,0.407819,-0.615070,-0.588243,95.134510,4.187705,-116.736215
50409,NaN,-0.691998,9.669390,-1.141349,0.226247,-0.146707,-0.055336,0.059624,0.115573,-0.192198,0.330329,0.408817,-0.614693,-0.588136,95.175695,4.288431,-116.664063
50410,NaN,-0.757731,9.726289,-1.120695,0.217256,-0.092221,0.004393,0.055241,0.106983,-0.188967,0.329981,0.409772,-0.614323,-0.588053,95.214181,4.387737,-116.596905
50411,NaN,-0.815184,9.753478,-1.174656,0.274355,-0.078378,0.040902,0.050952,0.104722,-0.191718,0.329626,0.410721,-0.613938,-0.587992,95.250178,4.488660,-116.530834
50412,NaN,-0.762281,9.810487,-1.004762,0.080093,-0.062838,0.078010,0.053792,0.102449,-0.185688,0.329275,0.411650,-0.613577,-0.587916,95.287862,4.586246,-116.466296
50413,NaN,-0.922639,9.810134,-0.964303,0.102485,0.086284,0.086903,0.046559,0.095998,-0.183682,0.328926,0.412540,-0.613208,-0.587872,95.321141,4.682963,-116.405499
50414,NaN,-0.955299,9.872653,-0.917612,0.055460,0.122408,0.147523,0.047582,0.085305,-0.175395,0.328565,0.413376,-0.612877,-0.587833,95.354640,4.775515,-116.351190
50415,NaN,-1.013500,9.895403,-0.897993,0.048767,0.170592,0.173356,0.044144,0.075993,-0.173330,0.328189,0.414171,-0.612555,-0.587819,95.385734,4.867330,-116.302275
50416,NaN,-1.004692,9.931799,-0.851354,-0.012801,0.170563,0.204576,0.040482,0.067703,-0.167542,0.327811,0.414919,-0.612247,-0.587824,95.414448,4.956294,-116.258354
50417,NaN,-1.059395,9.867971,-0.860346,0.015800,0.206362,0.147057,0.043400,0.051862,-0.158026,0.327407,0.415594,-0.611992,-0.587837,95.444000,5.040638,-116.223980
50418,NaN,-1.055195,9.942162,-0.884973,0.015797,0.178347,0.222806,0.041295,0.044317,-0.147217,0.327015,0.416211,-0.611766,-0.587853,95.472031,5.119242,-116.194461
50419,NaN,-1.073874,9.887297,-0.916907,0.048867,0.172858,0.173317,0.041300,0.039293,-0.142453,0.326622,0.416799,-0.611558,-0.587872,95.499759,5.195359,-116.168050
50420,NaN,-1.049989,9.943593,-0.843814,-0.043491,0.172563,0.220152,0.035025,0.044238,-0.131476,0.326289,0.417357,-0.611346,-0.587882,95.524197,5.264965,-116.139366
50421,NaN,-1.022174,9.913542,-0.799510,-0.100556,0.159864,0.183646,0.036451,0.056063,-0.127558,0.326001,0.417939,-0.611126,-0.587856,95.550029,5.331636,-116.104102
50422,NaN,-0.959544,9.892748,-0.778432,-0.153183,0.105891,0.155184,0.035959,0.064314,-0.121294,0.325758,0.418526,-0.610905,-0.587804,95.576096,5.394298,-116.064419
50423,NaN,-0.908057,9.854009,-0.807266,-0.153747,0.040746,0.114671,0.031880,0.075611,-0.120011,0.325561,0.419135,-0.610655,-0.587738,95.600411,5.455543,-116.018315
50424,NaN,-0.995816,9.822450,-0.936951,-0.004255,0.055408,0.104316,0.032672,0.072234,-0.113931,0.325369,0.419718,-0.610426,-0.587667,95.625076,5.513528,-115.974447
50425,NaN,-1.016517,9.805283,-1.039612,0.090351,0.021869,0.099377,0.028914,0.075086,-0.114035,0.325194,0.420302,-0.610180,-0.587601,95.647730,5.571358,-115.928921
50426,NaN,-0.970395,9.802789,-1.114805,0.130039,-0.059859,0.099862,0.023203,0.073072,-0.110574,0.325035,0.420860,-0.609928,-0.587551,95.667091,5.627348,-115.884710
50427,NaN,-0.971667,9.769201,-1.143247,0.153558,-0.077134,0.069565,0.014734,0.075762,-0.110815,0.324901,0.421413,-0.609646,-0.587521,95.681734,5.683272,-115.838932
50428,NaN,-1.016370,9.757408,-1.098376,0.127865,-0.023853,0.057952,0.021116,0.078034,-0.106933,0.324771,0.421972,-0.609388,-0.587461,95.700252,5.736878,-115.792044
50429,NaN,-1.036560,9.739031,-1.175331,0.201197,-0.045971,0.049462,0.011832,0.079045,-0.108470,0.324660,0.422522,-0.609096,-0.587429,95.713499,5.791254,-115.744479
50430,NaN,-1.121831,9.753855,-1.154205,0.211362,0.032026,0.070767,0.009691,0.075246,-0.101217,0.324563,0.423036,-0.608820,-0.587399,95.725368,5.841737,-115.699480
50431,NaN,-1.202968,9.821700,-1.105769,0.188521,0.116145,0.141538,0.009772,0.065308,-0.096469,0.324449,0.423506,-0.608570,-0.587383,95.736647,5.890037,-115.660446
50432,NaN,-1.277563,9.852392,-0.985032,0.104144,0.228297,0.167749,-0.001884,0.048605,-0.082259,0.324351,0.423865,-0.608342,-0.587413,95.740277,5.931226,-115.631784
50433,NaN,-1.340453,9.853427,-0.938089,0.085804,0.299684,0.170783,0.001221,0.004220,-0.064327,0.324164,0.424043,-0.608234,-0.587500,95.742893,5.964696,-115.629601
50434,NaN,-1.389748,9.875414,-0.889305,0.057923,0.359359,0.192990,-0.001563,-0.013595,-0.056038,0.323953,0.424140,-0.608164,-0.587619,95.742869,5.994505,-115.638098
50435,NaN,-1.400838,9.958894,-0.811565,-0.019802,0.395381,0.269170,0.002705,-0.038774,-0.036502,0.323713,0.424110,-0.608189,-0.587747,95.743593,6.014578,-115.662163
50436,NaN,-1.277098,9.933374,-0.735127,-0.139117,0.316478,0.223437,0.001854,-0.052986,-0.030574,0.323450,0.424020,-0.608246,-0.587898,95.742995,6.032135,-115.694711
50437,NaN,-1.140755,9.927670,-0.632790,-0.289222,0.237355,0.193330,0.000440,-0.055167,-0.021985,0.323208,0.423894,-0.608321,-0.588044,95.741329,6.044871,-115.729013
50438,NaN,-1.092406,9.869955,-0.658254,-0.280317,0.183884,0.133682,0.004151,-0.053073,-0.021851,0.322965,0.423780,-0.608404,-0.588174,95.741968,6.057462,-115.762118
50439,NaN,-1.022425,9.800881,-0.708364,-0.257462,0.100840,0.062936,0.004167,-0.053063,-0.021860,0.322722,0.423665,-0.608487,-0.588304,95.742549,6.070006,-115.795223
50440,NaN,-0.915831,9.746220,-0.879258,-0.145227,-0.069399,0.014558,0.008259,-0.048147,-0.029107,0.322464,0.423595,-0.608559,-0.588423,95.745866,6.086453,-115.825088
50441,NaN,-0.801058,9.659255,-1.076428,-0.009521,-0.257528,-0.064088,0.010536,-0.042993,-0.037642,0.322192,0.423568,-0.608610,-0.588537,95.750787,6.107420,-115.851509
50442,NaN,-0.753439,9.603880,-1.151555,0.041833,-0.334007,-0.116557,0.004024,-0.020402,-0.051085,0.321962,0.423639,-0.608578,-0.588645,95.753487,6.134804,-115.864196
50443,NaN,-0.772050,9.534284,-1.278135,0.169397,-0.373875,-0.170915,0.007512,-0.003466,-0.055663,0.321763,0.423779,-0.608519,-0.588714,95.759191,6.163776,-115.866912
50444,NaN,-0.801690,9.494407,-1.329966,0.230969,-0.372923,-0.202127,-0.002662,0.018319,-0.070468,0.321609,0.424012,-0.608364,-0.588792,95.760562,6.199980,-115.856271
50445,NaN,-0.904587,9.523104,-1.331051,0.269773,-0.288325,-0.162632,-0.003545,0.024086,-0.074131,0.321463,0.424271,-0.608189,-0.588866,95.761755,6.237896,-115.842117
50446,NaN,-0.990368,9.532975,-1.210185,0.195032,-0.164403,-0.155673,-0.005729,0.014230,-0.078103,0.321280,0.424510,-0.608014,-0.588973,95.761181,6.278684,-115.833374
50447,NaN,-1.036829,9.609216,-1.157958,0.155414,-0.109995,-0.080439,-0.007464,0.004497,-0.074613,0.321081,0.424706,-0.607858,-0.589101,95.758918,6.318001,-115.830425
50448,NaN,-1.055933,9.635842,-1.033442,0.046970,-0.045617,-0.064448,-0.017487,-0.003671,-0.075055,0.320877,0.424864,-0.607684,-0.589277,95.750468,6.358080,-115.832129
50449,NaN,-1.116477,9.688595,-0.933131,-0.025567,0.043483,-0.015566,-0.006667,-0.014904,-0.074960,0.320617,0.425006,-0.607560,-0.589445,95.747431,6.398709,-115.840296
50450,NaN,-1.068175,9.733291,-0.830617,-0.146489,0.036841,0.013047,-0.007878,-0.009404,-0.073673,0.320379,0.425158,-0.607427,-0.589601,95.744107,6.438328,-115.845375
50451,NaN,-1.124185,9.841507,-0.752314,-0.209544,0.109217,0.118536,-0.004992,-0.010245,-0.073622,0.320134,0.425312,-0.607303,-0.589751,95.742311,6.477927,-115.850951
50452,NaN,-1.133797,9.788837,-0.803364,-0.155258,0.092065,0.072637,-0.004242,-0.011125,-0.069904,0.319894,0.425454,-0.607191,-0.589895,95.740924,6.515496,-115.857240
50453,NaN,-1.162605,9.751098,-0.903311,-0.051156,0.070011,0.048551,-0.000864,-0.009287,-0.064818,0.319668,0.425590,-0.607097,-0.590016,95.741489,6.550020,-115.862777
50454,NaN,-1.171860,9.697255,-0.930164,-0.018114,0.064326,-0.000922,-0.004856,-0.011651,-0.060012,0.319458,0.425699,-0.607005,-0.590146,95.739641,6.581981,-115.869939
50455,NaN,-1.208188,9.693001,-1.028557,0.083758,0.048664,0.008846,-0.000370,-0.020431,-0.051350,0.319237,0.425763,-0.606958,-0.590268,95.739660,6.609465,-115.882650
50456,NaN,-1.270021,9.644281,-1.080974,0.162248,0.079329,-0.026933,-0.003147,-0.029563,-0.046626,0.319008,0.425781,-0.606928,-0.590410,95.737509,6.634821,-115.900867
50457,NaN,-1.202044,9.719205,-1.147803,0.180446,-0.019420,0.045932,-0.004582,-0.031782,-0.038009,0.318800,0.425763,-0.606915,-0.590547,95.734260,6.655350,-115.920864
50458,NaN,-1.159294,9.749790,-1.168476,0.175257,-0.071825,0.073254,-0.008063,-0.030199,-0.029378,0.318631,0.425719,-0.606908,-0.590677,95.729124,6.670909,-115.940444
50459,NaN,-1.183736,9.760662,-1.143219,0.161383,-0.041685,0.084329,-0.002525,-0.017221,-0.021529,0.318512,0.425698,-0.606914,-0.590751,95.727904,6.681207,-115.953037
50460,NaN,-1.195258,9.792631,-1.116391,0.137943,-0.023209,0.114599,-0.014408,-0.005389,-0.020398,0.318457,0.425690,-0.606868,-0.590834,95.720723,6.690225,-115.958895
50461,NaN,-1.226049,9.839556,-1.137890,0.164322,-0.009634,0.166680,-0.011534,0.003579,-0.012691,0.318447,0.425689,-0.606832,-0.590876,95.715670,6.694295,-115.960059
50462,NaN,-1.239731,9.817303,-1.113880,0.152668,0.014079,0.143898,-0.011555,0.012111,-0.003828,0.318489,0.425687,-0.606802,-0.590887,95.711185,6.692868,-115.956824
50463,NaN,-1.284134,9.837097,-1.015131,0.082452,0.096853,0.158861,-0.014435,0.021494,0.004972,0.318591,0.425681,-0.606767,-0.590872,95.705549,6.685847,-115.948718
50464,NaN,-1.307723,9.842118,-0.867827,-0.037569,0.184553,0.152004,-0.011656,0.026608,0.016337,0.318736,0.425660,-0.606756,-0.590820,95.701839,6.672100,-115.938318
50465,NaN,-1.383568,9.853485,-0.770279,-0.090859,0.297113,0.162393,-0.019637,0.023126,0.024753,0.318913,0.425591,-0.606745,-0.590786,95.693196,6.653709,-115.930408
50466,NaN,-1.250860,9.834220,-0.766361,-0.146655,0.183852,0.127561,-0.015644,0.011663,0.028381,0.319057,0.425483,-0.606772,-0.590758,95.686121,6.633950,-115.929273
50467,NaN,-1.108864,9.782756,-0.788565,-0.179005,0.052639,0.062479,-0.011087,-0.003092,0.025746,0.319139,0.425347,-0.606830,-0.590752,95.680630,6.616483,-115.936464
50468,NaN,-1.032333,9.717741,-0.886419,-0.113887,-0.053610,-0.000955,-0.015630,-0.019247,0.019097,0.319162,0.425176,-0.606886,-0.590805,95.671579,6.603770,-115.952538
50469,NaN,-0.933462,9.692077,-0.932561,-0.110354,-0.160145,-0.033140,-0.011637,-0.026678,0.006632,0.319117,0.425027,-0.606940,-0.590882,95.664345,6.598534,-115.972172
50470,NaN,-0.921347,9.666515,-1.078917,0.019231,-0.235144,-0.045457,-0.012450,-0.025595,-0.009539,0.319029,0.424929,-0.606955,-0.590984,95.656887,6.602500,-115.990256
50471,NaN,-0.900921,9.656715,-1.126262,0.054349,-0.275737,-0.052909,-0.014519,-0.019034,-0.024398,0.318922,0.424892,-0.606921,-0.591102,95.648707,6.614520,-116.003739
50472,NaN,-0.878746,9.699941,-1.146047,0.056441,-0.310007,-0.010892,-0.018863,-0.005094,-0.037938,0.318825,0.424931,-0.606824,-0.591226,95.639112,6.633515,-116.008445
50473,NaN,-1.004328,9.686160,-1.147734,0.114562,-0.202115,-0.009949,-0.024662,-0.003196,-0.050509,0.318711,0.425004,-0.606680,-0.591383,95.626335,6.659528,-116.011362
50474,NaN,-1.040856,9.728973,-1.094872,0.077260,-0.153967,0.031365,-0.024765,-0.004281,-0.061740,0.318559,0.425108,-0.606514,-0.591561,95.613567,6.692044,-116.014263
50475,NaN,-1.102897,9.729586,-1.044680,0.059117,-0.082528,0.034255,-0.027874,-0.010937,-0.066948,0.318379,0.425203,-0.606338,-0.591770,95.598534,6.727862,-116.020712
50476,NaN,-1.088592,9.716849,-1.041579,0.051777,-0.100087,0.019626,-0.034737,-0.023551,-0.068651,0.318170,0.425255,-0.606158,-0.592030,95.578793,6.765392,-116.034307
50477,NaN,-1.196321,9.688875,-1.017500,0.081368,0.001211,0.002309,-0.034462,-0.027100,-0.069978,0.317946,0.425300,-0.605981,-0.592298,95.558897,6.803833,-116.049892
50478,NaN,-1.201558,9.738784,-0.937685,0.005947,0.031168,0.044589,-0.033712,-0.027988,-0.066259,0.317728,0.425333,-0.605816,-0.592560,95.539405,6.840234,-116.066196
50479,NaN,-1.220147,9.717290,-0.935473,0.015558,0.043353,0.025375,-0.035321,-0.024085,-0.058770,0.317548,0.425352,-0.605656,-0.592807,95.519127,6.872106,-116.080702
50480,NaN,-1.343892,9.755825,-0.908238,0.040746,0.157592,0.075718,-0.030723,-0.017940,-0.047318,0.317410,0.425362,-0.605524,-0.593008,95.501892,6.897142,-116.092312
50481,NaN,-1.300988,9.835712,-0.826291,-0.061152,0.146214,0.141781,-0.026079,-0.009228,-0.038294,0.317316,0.425378,-0.605411,-0.593163,95.487785,6.916512,-116.099434
50482,NaN,-1.319741,9.806263,-0.678557,-0.178842,0.227593,0.100998,-0.033048,-0.004861,-0.022209,0.317297,0.425347,-0.605305,-0.593303,95.469946,6.926507,-116.104929
50483,NaN,-1.337526,9.729409,-0.655616,-0.178642,0.256466,0.025123,-0.029669,-0.015635,-0.009890,0.317276,0.425252,-0.605252,-0.593437,95.453145,6.930022,-116.117305
50484,NaN,-1.248335,9.740451,-0.747880,-0.134990,0.133319,0.034040,-0.024231,-0.015050,-0.007236,0.317252,0.425159,-0.605220,-0.593549,95.439548,6.932031,-116.129482
50485,NaN,-1.207548,9.667286,-0.846347,-0.053034,0.056660,-0.033891,-0.024649,-0.019216,0.001380,0.317242,0.425027,-0.605211,-0.593657,95.425299,6.929306,-116.144533
50486,NaN,-1.228068,9.635139,-1.017204,0.114646,-0.000308,-0.047155,-0.025252,-0.028306,0.002407,0.317209,0.424865,-0.605217,-0.593785,95.410134,6.926526,-116.164854
50487,NaN,-1.115857,9.637056,-1.158376,0.193322,-0.164671,-0.045634,-0.027876,-0.032306,0.002240,0.317169,0.424686,-0.605222,-0.593930,95.393126,6.924008,-116.187472
50488,NaN,-1.026210,9.648493,-1.250214,0.236910,-0.287858,-0.036667,-0.034271,-0.028401,-0.002840,0.317139,0.424525,-0.605190,-0.594093,95.372824,6.924214,-116.207561
50489,NaN,-1.046579,9.665392,-1.319247,0.307936,-0.303842,-0.011239,-0.039836,-0.020255,-0.009047,0.317127,0.424397,-0.605116,-0.594266,95.349872,6.927474,-116.222643
50490,NaN,-1.056398,9.700589,-1.337369,0.326945,-0.308363,0.026214,-0.050254,-0.004880,-0.017715,0.317158,0.424326,-0.604968,-0.594451,95.322143,6.934893,-116.228414
50491,NaN,-1.110593,9.755998,-1.280974,0.297091,-0.242032,0.082108,-0.060746,0.006632,-0.022737,0.317231,0.424286,-0.604760,-0.594652,95.289161,6.944524,-116.227317
50492,NaN,-1.168925,9.755565,-1.202520,0.257811,-0.159033,0.081337,-0.072083,0.012621,-0.025425,0.317338,0.424255,-0.604503,-0.594879,95.250193,6.955412,-116.222628
50493,NaN,-1.200320,9.850153,-1.092371,0.166397,-0.092808,0.168458,-0.079528,0.015868,-0.028072,0.317463,0.424229,-0.604212,-0.595125,95.207127,6.967606,-116.215954
50494,NaN,-1.211233,9.930904,-0.957441,0.046391,-0.033122,0.237356,-0.083198,0.011206,-0.025819,0.317588,0.424177,-0.603924,-0.595388,95.161697,6.978798,-116.212072
50495,NaN,-1.382814,9.879467,-0.833587,0.025229,0.173762,0.196312,-0.091875,0.006028,-0.018744,0.317738,0.424074,-0.603632,-0.595678,95.110810,6.986184,-116.211557
50496,NaN,-1.398789,9.852767,-0.728406,-0.049968,0.232128,0.162673,-0.097211,-0.008410,-0.013055,0.317871,0.423903,-0.603359,-0.596005,95.055898,6.991096,-116.219627
50497,NaN,-1.412119,9.832250,-0.720071,-0.040323,0.244296,0.143436,-0.101943,-0.013751,-0.008374,0.318013,0.423693,-0.603091,-0.596350,94.997792,6.993558,-116.231024
50498,NaN,-1.382885,9.785873,-0.687691,-0.066665,0.231790,0.091373,-0.102190,-0.027949,0.004930,0.318152,0.423402,-0.602872,-0.596704,94.938547,6.989160,-116.251241
50499,NaN,-1.327374,9.784961,-0.700721,-0.069763,0.172978,0.084969,-0.100193,-0.036894,0.009706,0.318273,0.423071,-0.602684,-0.597064,94.879717,6.982412,-116.276847
50500,NaN,-1.275068,9.728151,-0.693111,-0.082297,0.130802,0.021906,-0.101345,-0.044019,0.018168,0.318401,0.422692,-0.602521,-0.597428,94.819758,6.971196,-116.306944
50501,NaN,-1.175733,9.704647,-0.731490,-0.078988,0.024208,-0.010098,-0.096882,-0.040236,0.019620,0.318535,0.422327,-0.602368,-0.597769,94.762546,6.958895,-116.334935
50502,NaN,-1.174613,9.659716,-0.847077,0.038835,-0.027949,-0.045135,-0.100230,-0.034830,0.024624,0.318707,0.421958,-0.602207,-0.598100,94.703843,6.943498,-116.360030
50503,NaN,-1.150984,9.606318,-1.011641,0.191673,-0.121356,-0.087562,-0.102319,-0.036173,0.029472,0.318895,0.421566,-0.602052,-0.598432,94.643759,6.925325,-116.386119
50504,NaN,-1.093333,9.606041,-1.025109,0.188515,-0.180194,-0.093931,-0.099369,-0.022096,0.032436,0.319127,0.421213,-0.601889,-0.598721,94.586409,6.904828,-116.404217
50505,NaN,-1.098358,9.642571,-1.036913,0.207548,-0.184691,-0.056482,-0.111749,-0.008306,0.041157,0.319452,0.420854,-0.601686,-0.599004,94.522807,6.878659,-116.414769
50506,NaN,-1.051478,9.623238,-1.075840,0.235168,-0.243504,-0.078462,-0.109978,0.004109,0.035324,0.319794,0.420553,-0.601456,-0.599265,94.461190,6.855296,-116.417873
50507,NaN,-1.090213,9.647550,-1.039713,0.228794,-0.195173,-0.052854,-0.116682,0.014888,0.045375,0.320212,0.420243,-0.601209,-0.599507,94.396344,6.825668,-116.415210
50508,NaN,-1.082399,9.703607,-1.023993,0.217020,-0.199682,0.000220,-0.125847,0.017180,0.042617,0.320648,0.419934,-0.600925,-0.599775,94.326502,6.797560,-116.411057
50509,NaN,-1.095546,9.622532,-0.920614,0.153656,-0.136241,-0.086502,-0.128914,0.017754,0.047466,0.321106,0.419606,-0.600640,-0.600044,94.254838,6.766622,-116.406764
50510,NaN,-1.021594,9.692235,-0.852353,0.065503,-0.176988,-0.031381,-0.135717,0.026302,0.047467,0.321604,0.419293,-0.600322,-0.600315,94.179941,6.735367,-116.397497
50511,NaN,-1.017863,9.689990,-0.790591,0.023149,-0.153292,-0.038592,-0.140227,0.027499,0.046049,0.322111,0.418980,-0.599984,-0.600599,94.102462,6.704846,-116.387456
50512,NaN,-1.080416,9.672168,-0.755799,0.035976,-0.081778,-0.051470,-0.140147,0.026264,0.047190,0.322617,0.418661,-0.599651,-0.600882,94.025027,6.673774,-116.378115
50513,NaN,-1.149827,9.693751,-0.790887,0.110212,-0.038441,-0.019692,-0.151072,0.011015,0.054932,0.323124,0.418254,-0.599325,-0.601219,93.940193,6.638860,-116.377833
50514,NaN,-1.154114,9.724755,-0.725374,0.065664,-0.008191,0.006916,-0.144165,-0.001327,0.058397,0.323589,0.417811,-0.599048,-0.601553,93.858574,6.602482,-116.384720
50515,NaN,-1.160224,9.707599,-0.737432,0.096497,-0.007632,-0.008708,-0.148086,-0.018566,0.060054,0.324016,0.417304,-0.598789,-0.601933,93.773488,6.565769,-116.401555
50516,NaN,-1.172736,9.771783,-0.668526,0.049765,0.029179,0.051724,-0.151516,-0.033219,0.066780,0.324425,0.416727,-0.598557,-0.602342,93.685551,6.525767,-116.427001
50517,NaN,-1.234063,9.752077,-0.607741,0.041457,0.112270,0.035201,-0.147263,-0.052145,0.072356,0.324787,0.416083,-0.598380,-0.602769,93.598732,6.483191,-116.463498
50518,NaN,-1.257436,9.797344,-0.564843,0.025528,0.149090,0.079998,-0.146564,-0.070516,0.075315,0.325099,0.415376,-0.598241,-0.603226,93.511235,6.439558,-116.510587
50519,NaN,-1.197620,9.786401,-0.451623,-0.083592,0.148184,0.055591,-0.145549,-0.080159,0.082339,0.325403,0.414619,-0.598134,-0.603688,93.423629,6.392133,-116.563416
50520,NaN,-1.230927,9.817356,-0.483597,-0.026351,0.161841,0.091990,-0.143423,-0.086491,0.084547,0.325689,0.413841,-0.598048,-0.604153,93.336967,6.343619,-116.619871
50521,NaN,-1.164589,9.869372,-0.462557,-0.062520,0.109626,0.135115,-0.144120,-0.093236,0.087869,0.325966,0.413030,-0.597978,-0.604628,93.249438,6.293301,-116.680254
50522,NaN,-1.166378,9.861873,-0.570589,0.053047,0.063854,0.133952,-0.151666,-0.094041,0.093668,0.326273,0.412187,-0.597897,-0.605117,93.157663,6.239640,-116.741187
50523,NaN,-1.199900,9.886332,-0.529154,0.046752,0.112258,0.159499,-0.138726,-0.094255,0.096498,0.326562,0.411355,-0.597861,-0.605563,93.073262,6.184231,-116.802257
50524,NaN,-1.106211,9.840786,-0.541891,0.038296,0.028777,0.104777,-0.145684,-0.088587,0.103844,0.326903,0.410507,-0.597809,-0.606005,92.985354,6.124400,-116.860185
50525,NaN,-1.130258,9.831928,-0.503768,0.034191,0.070619,0.096495,-0.144124,-0.077778,0.104280,0.327275,0.409692,-0.597744,-0.606420,92.898986,6.063871,-116.911821
50526,NaN,-1.065679,9.829634,-0.488518,0.009777,0.023411,0.086573,-0.141844,-0.069276,0.109615,0.327683,0.408891,-0.597683,-0.606800,92.814572,6.000014,-116.958607
50527,NaN,-1.087361,9.830758,-0.548081,0.090401,0.018897,0.092766,-0.141577,-0.058258,0.116245,0.328144,0.408103,-0.597618,-0.607146,92.730932,5.931945,-116.999153
50528,NaN,-1.031131,9.851676,-0.432680,-0.020928,0.024627,0.102195,-0.143888,-0.051175,0.122599,0.328649,0.407314,-0.597546,-0.607473,92.646512,5.860035,-117.035675
50529,NaN,-0.968855,9.797588,-0.448261,-0.012367,-0.029193,0.042835,-0.136135,-0.033139,0.122416,0.329192,0.406592,-0.597467,-0.607740,92.567560,5.787663,-117.061722
50530,NaN,-0.977644,9.809434,-0.409066,-0.026087,0.001109,0.053792,-0.140487,-0.027456,0.133596,0.329794,0.405847,-0.597388,-0.607990,92.486542,5.708756,-117.084665
50531,NaN,-1.145027,9.744901,-0.356125,0.026414,0.184748,0.003939,-0.127313,-0.025644,0.146461,0.330413,0.405090,-0.597372,-0.608174,92.413105,5.622365,-117.106785
50532,NaN,-1.185806,9.741045,-0.247003,-0.033778,0.279500,-0.000663,-0.116369,-0.040054,0.160894,0.331011,0.404264,-0.597441,-0.608331,92.345227,5.528074,-117.137416
50533,NaN,-1.110976,9.789918,-0.204646,-0.091155,0.238952,0.038871,-0.116308,-0.051697,0.171324,0.331606,0.403371,-0.597550,-0.608493,92.276701,5.427998,-117.174879
50534,NaN,-1.068399,9.830686,-0.163689,-0.131509,0.228075,0.073733,-0.110876,-0.062953,0.184425,0.332194,0.402413,-0.597720,-0.608639,92.210814,5.320680,-117.218975
50535,NaN,-1.082960,9.827776,-0.178368,-0.093225,0.246738,0.072665,-0.095487,-0.072462,0.199202,0.332769,0.401406,-0.597981,-0.608733,92.153230,5.205013,-117.268749
50536,NaN,-1.063594,9.824593,-0.119833,-0.135525,0.270540,0.065400,-0.091757,-0.080775,0.208635,0.333339,0.400353,-0.598286,-0.608816,92.097526,5.084124,-117.323370
50537,NaN,-1.077425,9.808078,-0.014888,-0.203101,0.347208,0.046198,-0.077068,-0.086676,0.217349,0.333888,0.399278,-0.598662,-0.608851,92.049976,4.958267,-117.381453
50538,NaN,-0.962643,9.866766,0.001282,-0.256386,0.265452,0.094054,-0.080087,-0.104665,0.222256,0.334404,0.398129,-0.599067,-0.608922,92.000018,4.829970,-117.449849
50539,NaN,-0.843581,9.851738,-0.114422,-0.189837,0.124022,0.073161,-0.068283,-0.103498,0.229975,0.334922,0.396979,-0.599520,-0.608942,91.956958,4.697120,-117.517616
50540,NaN,-0.880101,9.819474,-0.234387,-0.047653,0.119305,0.048095,-0.064844,-0.108700,0.224689,0.335401,0.395834,-0.599982,-0.608969,91.915868,4.567405,-117.588154
50541,NaN,-0.695609,9.801799,-0.203846,-0.142274,-0.011809,0.014839,-0.060140,-0.102355,0.223804,0.335888,0.394718,-0.600444,-0.608970,91.877858,4.437971,-117.654932
50542,NaN,-0.691707,9.743478,-0.327758,-0.014986,-0.052805,-0.039346,-0.052867,-0.098656,0.229027,0.336385,0.393610,-0.600931,-0.608932,91.844397,4.305494,-117.719587
50543,NaN,-0.527745,9.743523,-0.346325,-0.059856,-0.189008,-0.050754,-0.043104,-0.097688,0.219406,0.336837,0.392549,-0.601427,-0.608878,91.816669,4.178416,-117.783431
50544,NaN,-0.513567,9.693771,-0.372184,-0.026879,-0.195112,-0.100188,-0.047601,-0.063182,0.197709,0.337335,0.391650,-0.601807,-0.608805,91.788023,4.063166,-117.826995
50545,NaN,-0.434413,9.739777,-0.337669,-0.084325,-0.235578,-0.060592,-0.033864,-0.056909,0.197204,0.337823,0.390795,-0.602217,-0.608679,91.767524,3.948019,-117.866896
50546,NaN,-0.409078,9.707137,-0.338348,-0.082140,-0.241590,-0.094395,-0.030013,-0.035372,0.180045,0.338316,0.390063,-0.602568,-0.608527,91.750239,3.842360,-117.894085
50547,NaN,-0.371430,9.700469,-0.385614,-0.047234,-0.282343,-0.101673,-0.023743,-0.014274,0.171578,0.338834,0.389430,-0.602885,-0.608330,91.737341,3.741122,-117.908989
50548,NaN,-0.362715,9.734712,-0.379521,-0.049400,-0.275126,-0.067839,-0.018841,0.001751,0.152960,0.339333,0.388911,-0.603154,-0.608117,91.727960,3.650315,-117.914347
50549,NaN,-0.348155,9.650807,-0.412814,-0.014248,-0.287871,-0.151082,-0.012035,0.015185,0.133055,0.339800,0.388504,-0.603381,-0.607891,91.722926,3.570626,-117.911645
50550,NaN,-0.411215,9.755630,-0.375577,-0.017390,-0.208025,-0.043404,0.000018,0.036303,0.113805,0.340248,0.388240,-0.603571,-0.607621,91.725633,3.501641,-117.896486
50551,NaN,-0.394372,9.716608,-0.331387,-0.057520,-0.190809,-0.084476,0.002353,0.044882,0.093495,0.340656,0.388066,-0.603715,-0.607361,91.729909,3.444095,-117.876065
50552,NaN,-0.318579,9.730462,-0.330143,-0.091672,-0.249472,-0.075042,0.011057,0.058285,0.070024,0.341016,0.388020,-0.603816,-0.607088,91.739709,3.399797,-117.847547
50553,NaN,-0.380729,9.798662,-0.274491,-0.113775,-0.164601,-0.004831,0.009768,0.063626,0.050643,0.341335,0.388045,-0.603866,-0.606842,91.748879,3.366459,-117.815642
50554,NaN,-0.532386,9.782320,-0.254835,-0.059127,-0.015713,-0.012768,0.019498,0.063755,0.032589,0.341581,0.388142,-0.603911,-0.606597,91.763704,3.343489,-117.783346
50555,NaN,-0.665694,9.837036,-0.202752,-0.047030,0.128430,0.047983,0.023684,0.061938,0.017908,0.341770,0.388284,-0.603943,-0.606368,91.780798,3.328913,-117.751846
50556,NaN,-0.657205,9.893773,-0.223316,-0.037639,0.112557,0.104693,0.025884,0.054904,0.011443,0.341912,0.388429,-0.603981,-0.606156,91.798989,3.318193,-117.724263
50557,NaN,-0.683381,9.940827,-0.221050,-0.032304,0.137943,0.153046,0.029978,0.042694,0.005984,0.341994,0.388560,-0.604041,-0.605966,91.819051,3.310772,-117.703596
50558,NaN,-0.676657,9.901388,-0.179760,-0.072422,0.155173,0.111946,0.030355,0.033395,0.000559,0.342030,0.388681,-0.604108,-0.605802,91.839095,3.306661,-117.688160
50559,NaN,-0.601765,9.886913,-0.233433,-0.062089,0.066645,0.094853,0.037942,0.027929,-0.004379,0.342020,0.388812,-0.604198,-0.605634,91.863239,3.305433,-117.675776
50560,NaN,-0.622725,9.809941,-0.222353,-0.061792,0.095220,0.018858,0.043599,0.023742,-0.006864,0.341979,0.388948,-0.604307,-0.605461,91.890557,3.305742,-117.665741
50561,NaN,-0.637043,9.786768,-0.205126,-0.073276,0.118948,-0.004058,0.045598,0.012446,-0.004975,0.341906,0.389047,-0.604445,-0.605300,91.918577,3.305139,-117.662229
50562,NaN,-0.556840,9.817418,-0.181294,-0.138237,0.060465,0.021023,0.060320,0.016954,-0.010319,0.341801,0.389201,-0.604610,-0.605096,91.955253,3.307549,-117.656021
50563,NaN,-0.476610,9.763479,-0.192574,-0.168077,-0.011459,-0.037137,0.058664,0.013764,-0.013020,0.341682,0.389351,-0.604770,-0.604907,91.990811,3.311522,-117.651594
50564,NaN,-0.464279,9.698837,-0.230827,-0.142579,-0.035789,-0.101114,0.069818,0.018952,-0.020920,0.341532,0.389560,-0.604939,-0.604688,92.033008,3.319953,-117.644023
50565,NaN,-0.438460,9.659893,-0.315828,-0.084404,-0.094879,-0.138526,0.075527,0.017370,-0.025719,0.341353,0.389787,-0.605119,-0.604463,92.078365,3.331118,-117.637261
50566,NaN,-0.406498,9.674626,-0.394986,-0.038047,-0.158801,-0.122849,0.079254,0.027092,-0.032434,0.341175,0.390071,-0.605280,-0.604219,92.126257,3.345956,-117.624766
50567,NaN,-0.388946,9.666251,-0.452760,-0.003201,-0.199615,-0.130083,0.083005,0.038115,-0.040314,0.340999,0.390418,-0.605418,-0.603956,92.176618,3.365019,-117.605772
50568,NaN,-0.392061,9.673920,-0.533774,0.060252,-0.233936,-0.119133,0.083990,0.048819,-0.047097,0.340833,0.390820,-0.605527,-0.603679,92.227987,3.387750,-117.580465
50569,NaN,-0.464687,9.747097,-0.535040,0.080535,-0.172270,-0.041713,0.090428,0.063721,-0.054700,0.340677,0.391301,-0.605616,-0.603368,92.283509,3.414437,-117.546425
50570,NaN,-0.578312,9.756786,-0.519871,0.108581,-0.064545,-0.025777,0.089419,0.069240,-0.053264,0.340543,0.391792,-0.605695,-0.603045,92.338724,3.440176,-117.509218
50571,NaN,-0.611193,9.800308,-0.500215,0.092778,-0.027505,0.018916,0.095337,0.065444,-0.060648,0.340364,0.392304,-0.605783,-0.602725,92.397162,3.470161,-117.473995
50572,NaN,-0.672346,9.888153,-0.451775,0.061141,0.045996,0.108293,0.091914,0.060008,-0.062322,0.340170,0.392798,-0.605866,-0.602428,92.453541,3.501235,-117.441808
50573,NaN,-0.759737,9.940770,-0.456757,0.091100,0.119152,0.166402,0.092909,0.055526,-0.060098,0.339968,0.393274,-0.605965,-0.602133,92.510280,3.531081,-117.412224
50574,NaN,-0.846950,9.993298,-0.462069,0.121054,0.192310,0.224503,0.095800,0.045877,-0.056828,0.339739,0.393716,-0.606095,-0.601842,92.568413,3.559306,-117.388218
50575,NaN,-0.858809,10.028606,-0.492659,0.140083,0.187945,0.261947,0.093105,0.035561,-0.051330,0.339502,0.394105,-0.606244,-0.601571,92.624569,3.584593,-117.370250
50576,NaN,-0.850913,10.042877,-0.451685,0.088182,0.200384,0.273914,0.099467,0.030108,-0.045257,0.339253,0.394470,-0.606434,-0.601280,92.684241,3.606569,-117.355538
50577,NaN,-0.897801,10.056024,-0.338658,-0.002515,0.295518,0.284689,0.104940,0.019164,-0.037020,0.338986,0.394787,-0.606675,-0.600980,92.746577,3.624074,-117.347309
50578,NaN,-0.847767,10.044000,-0.300404,-0.069383,0.271693,0.267603,0.102122,0.013687,-0.031274,0.338724,0.395065,-0.606928,-0.600690,92.807160,3.638476,-117.342356
50579,NaN,-0.843718,10.007340,-0.290096,-0.088321,0.277273,0.230129,0.108427,0.004367,-0.021689,0.338450,0.395296,-0.607235,-0.600382,92.870934,3.647610,-117.343010
50580,NaN,-0.818756,9.957423,-0.281343,-0.114762,0.264707,0.178135,0.115971,-0.001376,-0.021720,0.338144,0.395522,-0.607573,-0.600063,92.938885,3.656974,-117.346940
50581,NaN,-0.806859,9.979693,-0.314863,-0.103223,0.242214,0.201058,0.116028,-0.013934,-0.014960,0.337819,0.395691,-0.607946,-0.599757,93.006333,3.662803,-117.358266
50582,NaN,-0.699314,9.971404,-0.374702,-0.110180,0.124048,0.188852,0.122682,-0.013859,-0.018447,0.337471,0.395881,-0.608332,-0.599436,93.077662,3.670688,-117.369433
50583,NaN,-0.510479,9.909758,-0.438781,-0.147116,-0.066687,0.118593,0.122756,-0.001228,-0.025294,0.337141,0.396130,-0.608683,-0.599101,93.149450,3.682061,-117.373138
50584,NaN,-0.477898,9.833167,-0.506830,-0.108021,-0.120937,0.043790,0.123723,0.016893,-0.034334,0.336836,0.396462,-0.608988,-0.598743,93.222539,3.698082,-117.366149
50585,NaN,-0.465267,9.684364,-0.606698,-0.026333,-0.170671,-0.099726,0.127640,0.031803,-0.045888,0.336535,0.396880,-0.609256,-0.598362,93.298392,3.720169,-117.350218
50586,NaN,-0.462441,9.651968,-0.646806,-0.003043,-0.188451,-0.129860,0.132637,0.038654,-0.056540,0.336212,0.397360,-0.609507,-0.597969,93.377457,3.748145,-117.329970
50587,NaN,-0.530761,9.686095,-0.608804,-0.022802,-0.110116,-0.093628,0.138218,0.032580,-0.073874,0.335808,0.397883,-0.609749,-0.597601,93.459484,3.786167,-117.312574
50588,NaN,-0.546090,9.808340,-0.635689,-0.017767,-0.112515,0.030729,0.137008,0.026152,-0.082852,0.335360,0.398413,-0.609981,-0.597264,93.540671,3.829568,-117.298487
50589,NaN,-0.731352,9.800487,-0.603616,0.023603,0.066012,0.033318,0.131283,0.013541,-0.090997,0.334860,0.398919,-0.610200,-0.596983,93.618066,3.878014,-117.291280
50590,NaN,-0.747698,9.834755,-0.637958,0.042603,0.061641,0.070775,0.130391,0.001277,-0.103881,0.334286,0.399427,-0.610411,-0.596750,93.694575,3.934309,-117.290560
50591,NaN,-0.724759,9.934405,-0.714454,0.074918,-0.000356,0.173428,0.121786,-0.004276,-0.113063,0.333684,0.399931,-0.610586,-0.596569,93.765902,3.996017,-117.292610
50592,NaN,-0.743119,9.970495,-0.772028,0.115044,-0.016390,0.214550,0.113971,0.001786,-0.125460,0.333079,0.400478,-0.610703,-0.596420,93.833093,4.064627,-117.290636
50593,NaN,-0.735666,9.953467,-0.759449,0.086434,-0.022280,0.196383,0.105884,0.003677,-0.129416,0.332485,0.401029,-0.610784,-0.596299,93.895687,4.135380,-117.287351
50594,NaN,-0.659034,9.867595,-0.799935,0.079692,-0.112670,0.108229,0.102372,0.028183,-0.144694,0.331926,0.401694,-0.610783,-0.596164,93.957405,4.213944,-117.269339
50595,NaN,-0.687609,9.837242,-0.714904,0.004856,-0.053980,0.074287,0.103012,0.035738,-0.139556,0.331404,0.402365,-0.610782,-0.596003,94.019764,4.289208,-117.247119
50596,NaN,-0.783459,9.792082,-0.632480,-0.035649,0.063855,0.030753,0.105917,0.044896,-0.144149,0.330890,0.403084,-0.610764,-0.595821,94.084297,4.366742,-117.219375
50597,NaN,-0.778646,9.864956,-0.636835,-0.057079,0.048320,0.103138,0.105891,0.047264,-0.141694,0.330391,0.403800,-0.610746,-0.595631,94.148893,4.442704,-117.190288
50598,NaN,-0.690294,9.889734,-0.692670,-0.066324,-0.063147,0.124854,0.105597,0.060612,-0.140095,0.329937,0.404552,-0.610708,-0.595411,94.214018,4.517202,-117.153526
50599,NaN,-0.712883,9.785471,-0.785224,0.020686,-0.088213,0.029669,0.103496,0.074247,-0.139788,0.329530,0.405339,-0.610642,-0.595169,94.278554,4.590865,-117.108874
50600,NaN,-0.671574,9.778370,-0.795033,-0.003995,-0.135352,0.019976,0.098581,0.088801,-0.139551,0.329178,0.406160,-0.610537,-0.594912,94.341071,4.663756,-117.055800
50601,NaN,-0.651768,9.648086,-0.887567,0.067971,-0.196751,-0.104197,0.088724,0.112960,-0.139170,0.328921,0.407035,-0.610363,-0.594635,94.399085,4.735279,-116.988816
50602,NaN,-0.621695,9.624305,-0.946456,0.095182,-0.255849,-0.125841,0.084983,0.122042,-0.140343,0.328694,0.407934,-0.610160,-0.594352,94.455547,4.807043,-116.916488
50603,NaN,-0.545779,9.625408,-0.952747,0.053309,-0.332560,-0.130713,0.075173,0.136206,-0.135387,0.328546,0.408844,-0.609914,-0.594061,94.507086,4.875235,-116.836194
50604,NaN,-0.662979,9.546213,-0.969064,0.116659,-0.238658,-0.198207,0.073997,0.144092,-0.131595,0.328435,0.409763,-0.609659,-0.593751,94.558489,4.940867,-116.751474
50605,NaN,-0.706444,9.540370,-1.026773,0.176097,-0.231919,-0.195662,0.064865,0.142695,-0.130822,0.328341,0.410661,-0.609380,-0.593469,94.604622,5.006014,-116.667535
50606,NaN,-0.775813,9.587888,-1.178547,0.325382,-0.247033,-0.130149,0.058627,0.132945,-0.127720,0.328238,0.411509,-0.609105,-0.593221,94.646848,5.069808,-116.589261
50607,NaN,-0.813058,9.637850,-1.255247,0.394131,-0.256656,-0.070838,0.050163,0.129292,-0.122028,0.328158,0.412315,-0.608821,-0.592997,94.684032,5.130436,-116.513305
50608,NaN,-0.859363,9.717784,-1.280247,0.418488,-0.236158,0.014924,0.038924,0.129102,-0.118803,0.328110,0.413092,-0.608511,-0.592801,94.714913,5.189217,-116.437555
50609,NaN,-0.916875,9.822558,-1.180138,0.335138,-0.150460,0.116112,0.020324,0.138155,-0.106916,0.328164,0.413828,-0.608155,-0.592624,94.735557,5.240718,-116.357156
50610,NaN,-1.003822,9.831669,-1.086902,0.282927,-0.037296,0.125587,0.014629,0.133568,-0.101136,0.328231,0.414524,-0.607801,-0.592463,94.752825,5.289140,-116.279625
50611,NaN,-1.089050,9.888074,-0.891565,0.134478,0.117998,0.173449,0.003067,0.124283,-0.089492,0.328330,0.415138,-0.607451,-0.592337,94.762905,5.331306,-116.207972
50612,NaN,-1.134569,9.868525,-0.748430,0.025009,0.218268,0.146575,-0.004735,0.102114,-0.073076,0.328425,0.415624,-0.607149,-0.592253,94.767389,5.365176,-116.149792
50613,NaN,-1.143662,9.860827,-0.651371,-0.059405,0.265614,0.131862,-0.009656,0.072856,-0.055473,0.328494,0.415960,-0.606917,-0.592217,94.767348,5.390354,-116.109243
50614,NaN,-1.138847,9.828672,-0.677222,-0.036126,0.247735,0.101732,-0.016365,0.045130,-0.040354,0.328537,0.416159,-0.606742,-0.592233,94.761995,5.408257,-116.085306
50615,NaN,-1.173439,9.823752,-0.726488,0.023348,0.254457,0.104245,-0.016008,0.023787,-0.022308,0.328568,0.416239,-0.606640,-0.592263,94.755536,5.416838,-116.074486
50616,NaN,-1.160210,9.848074,-0.771860,0.055926,0.220244,0.130893,-0.015016,0.008961,-0.002823,0.328610,0.416218,-0.606607,-0.592289,94.748834,5.415036,-116.073087
50617,NaN,-1.112702,9.879094,-0.790375,0.050193,0.168189,0.158696,-0.026909,-0.005619,0.013694,0.328681,0.416085,-0.606596,-0.592355,94.734376,5.404455,-116.080849
50618,NaN,-1.088064,9.870449,-0.836679,0.084895,0.127205,0.151563,-0.023178,-0.005116,0.027486,0.328787,0.415917,-0.606624,-0.592385,94.722103,5.386016,-116.088962
50619,NaN,-1.097156,9.850241,-0.836071,0.094604,0.139155,0.132245,-0.028034,-0.005827,0.044629,0.328952,0.415687,-0.606675,-0.592403,94.706857,5.357777,-116.098300
50620,NaN,-1.009851,9.798620,-0.809740,0.043349,0.078805,0.070649,-0.025564,-0.008318,0.050847,0.329122,0.415435,-0.606750,-0.592408,94.692951,5.326146,-116.109343
50621,NaN,-0.876159,9.775890,-0.779557,-0.034794,-0.022455,0.033208,-0.029105,-0.016532,0.051721,0.329277,0.415150,-0.606829,-0.592440,94.676505,5.294354,-116.125138
50622,NaN,-0.773034,9.655374,-0.733126,-0.102910,-0.084652,-0.099627,-0.027110,-0.020364,0.051684,0.329416,0.414857,-0.606921,-0.592474,94.661088,5.262801,-116.143109
50623,NaN,-0.663373,9.594382,-0.755576,-0.119513,-0.186568,-0.168309,-0.029364,-0.021427,0.044124,0.329535,0.414580,-0.606992,-0.592529,94.644287,5.235565,-116.161337
50624,NaN,-0.627120,9.555944,-0.852833,-0.040512,-0.257773,-0.201830,-0.019651,-0.018253,0.037145,0.329622,0.414349,-0.607072,-0.592560,94.633334,5.212205,-116.177403
50625,NaN,-0.642664,9.574445,-0.923662,0.030354,-0.274186,-0.176295,-0.018744,-0.018609,0.023540,0.329666,0.414160,-0.607128,-0.592611,94.622867,5.196588,-116.193047
50626,NaN,-0.660717,9.589284,-0.945795,0.058996,-0.267184,-0.158125,-0.020587,-0.010876,0.019963,0.329726,0.414003,-0.607157,-0.592657,94.611844,5.182690,-116.204075
50627,NaN,-0.676352,9.656450,-0.939533,0.054741,-0.253052,-0.090539,-0.015302,-0.014725,-0.002236,0.329699,0.413909,-0.607163,-0.592732,94.603664,5.181609,-116.216294
50628,NaN,-0.719631,9.680128,-0.912986,0.048735,-0.204466,-0.065272,-0.019655,-0.005784,-0.010826,0.329681,0.413862,-0.607123,-0.592816,94.593571,5.185055,-116.222976
50629,NaN,-0.807216,9.725431,-0.837292,0.015655,-0.096134,-0.018446,-0.016169,-0.004758,-0.021812,0.329628,0.413856,-0.607069,-0.592905,94.585492,5.194693,-116.228578
50630,NaN,-0.904087,9.804020,-0.759621,-0.019553,0.019005,0.062152,-0.013522,-0.006677,-0.032915,0.329530,0.413882,-0.607003,-0.593008,94.578958,5.210791,-116.234757
50631,NaN,-0.946298,9.739611,-0.740078,-0.011574,0.065375,0.000509,-0.010469,-0.009846,-0.035368,0.329409,0.413912,-0.606946,-0.593113,94.573932,5.228403,-116.242658
50632,NaN,-0.897328,9.731072,-0.688944,-0.078555,0.041705,-0.016479,-0.006236,-0.018509,-0.039170,0.329241,0.413934,-0.606909,-0.593229,94.570974,5.248613,-116.255339
50633,NaN,-0.876161,9.772326,-0.684212,-0.097897,0.019564,0.022159,-0.005114,-0.016536,-0.042794,0.329066,0.413975,-0.606863,-0.593344,94.568691,5.270771,-116.266738
50634,NaN,-0.866597,9.796412,-0.730645,-0.065378,-0.014655,0.048855,0.003939,-0.019875,-0.051223,0.328838,0.414047,-0.606833,-0.593451,94.571530,5.297927,-116.279653
50635,NaN,-0.899578,9.845696,-0.776970,-0.017725,-0.012558,0.104478,0.002219,-0.008246,-0.058404,0.328627,0.414172,-0.606763,-0.593552,94.573944,5.328622,-116.285581
50636,NaN,-0.862298,9.823519,-0.826776,0.009352,-0.071747,0.082938,0.011927,-0.005055,-0.065391,0.328384,0.414344,-0.606703,-0.593628,94.582199,5.363193,-116.289341
50637,NaN,-0.903253,9.812786,-0.805327,0.005532,-0.029943,0.074388,0.010965,0.006934,-0.070060,0.328167,0.414564,-0.606610,-0.593690,94.590484,5.399851,-116.286017
50638,NaN,-0.876822,9.820272,-0.804728,-0.011712,-0.058879,0.079255,0.010045,0.020222,-0.075935,0.327974,0.414839,-0.606481,-0.593736,94.599072,5.439284,-116.274780
50639,NaN,-0.860068,9.717379,-0.788464,-0.026409,-0.067023,-0.025775,0.013059,0.024541,-0.080678,0.327773,0.415147,-0.606343,-0.593772,94.609571,5.481195,-116.260853
50640,NaN,-0.888144,9.730945,-0.814128,0.002259,-0.060022,-0.007623,0.014336,0.030431,-0.087929,0.327567,0.415496,-0.606185,-0.593804,94.621251,5.527003,-116.243187
50641,NaN,-0.853997,9.706750,-0.840718,0.008237,-0.107508,-0.032836,0.017688,0.025025,-0.092942,0.327322,0.415850,-0.606034,-0.593845,94.634508,5.575889,-116.228393
50642,NaN,-0.896998,9.695631,-0.820124,0.004415,-0.065711,-0.041396,0.017366,0.033493,-0.091504,0.327107,0.416224,-0.605872,-0.593867,94.648144,5.623587,-116.208779
50643,NaN,-0.951063,9.667178,-0.850337,0.052486,-0.036041,-0.061899,0.019985,0.027741,-0.099041,0.326847,0.416607,-0.605711,-0.593905,94.662926,5.675824,-116.192115
50644,NaN,-0.940107,9.651774,-0.828344,0.023836,-0.041911,-0.080043,0.018913,0.025793,-0.095441,0.326594,0.416973,-0.605558,-0.593944,94.677066,5.726118,-116.176707
50645,NaN,-0.978621,9.696554,-0.828134,0.029316,-0.016364,-0.031812,0.021909,0.018771,-0.094303,0.326318,0.417318,-0.605427,-0.593987,94.692445,5.776061,-116.165385
50646,NaN,-1.018811,9.737641,-0.779428,-0.007389,0.032660,0.009024,0.022867,0.014283,-0.091930,0.326032,0.417645,-0.605311,-0.594033,94.708195,5.824883,-116.156720
50647,NaN,-1.058232,9.733484,-0.856472,0.073175,0.027509,0.015231,0.020869,0.006772,-0.086021,0.325745,0.417928,-0.605213,-0.594090,94.722259,5.870655,-116.152649
50648,NaN,-1.096017,9.778188,-0.856133,0.078652,0.053066,0.063454,0.019909,-0.001361,-0.081327,0.325450,0.418171,-0.605136,-0.594159,94.735358,5.914157,-116.153441
50649,NaN,-1.136381,9.770333,-0.884701,0.117048,0.071379,0.062264,0.029981,-0.000660,-0.078452,0.325144,0.418424,-0.605093,-0.594193,94.754172,5.955957,-116.153973
50650,NaN,-1.118892,9.811233,-0.882856,0.097673,0.049285,0.100923,0.014676,-0.010926,-0.068141,0.324869,0.418590,-0.605044,-0.594276,94.763637,5.992388,-116.160865
50651,NaN,-1.139243,9.785806,-0.837788,0.065241,0.084654,0.074189,0.021656,-0.017155,-0.058101,0.324592,0.418719,-0.605045,-0.594336,94.776590,6.023354,-116.171823
50652,NaN,-1.112130,9.791863,-0.813408,0.026899,0.067473,0.075374,0.018371,-0.020506,-0.049617,0.324335,0.418807,-0.605061,-0.594398,94.787494,6.049670,-116.185090
50653,NaN,-1.077551,9.713963,-0.843742,0.044666,0.024440,-0.002922,0.018219,-0.025699,-0.044794,0.324078,0.418864,-0.605094,-0.594464,94.797882,6.073452,-116.201583
50654,NaN,-1.026714,9.711446,-0.867942,0.040893,-0.034395,-0.008770,0.018295,-0.034460,-0.041300,0.323805,0.418885,-0.605149,-0.594542,94.807841,6.095694,-116.223256
50655,NaN,-0.972056,9.617779,-0.849836,0.008900,-0.072117,-0.108899,0.022064,-0.039833,-0.038822,0.323515,0.418888,-0.605229,-0.594616,94.819527,6.116752,-116.248146
50656,NaN,-0.954437,9.606628,-0.876285,0.022404,-0.101476,-0.119632,0.026228,-0.043569,-0.042512,0.323193,0.418899,-0.605320,-0.594691,94.833464,6.140134,-116.274983
50657,NaN,-0.914257,9.586668,-0.951829,0.070486,-0.172504,-0.137393,0.027177,-0.048068,-0.040120,0.322863,0.418890,-0.605425,-0.594770,94.847560,6.162343,-116.304531
50658,NaN,-0.973765,9.587881,-0.931088,0.074301,-0.112560,-0.131550,0.026346,-0.052308,-0.039033,0.322526,0.418864,-0.605538,-0.594857,94.860988,6.184173,-116.336546
50659,NaN,-0.964206,9.611753,-0.980093,0.106776,-0.146827,-0.104798,0.031221,-0.056980,-0.038996,0.322164,0.418831,-0.605672,-0.594939,94.876822,6.206188,-116.371258
50660,NaN,-1.029831,9.653134,-1.054782,0.192794,-0.127039,-0.050372,0.028803,-0.054464,-0.045259,0.321796,0.418821,-0.605782,-0.595033,94.891534,6.231693,-116.404196
50661,NaN,-1.039600,9.741713,-1.075430,0.199966,-0.135837,0.040223,0.031574,-0.046550,-0.048700,0.321436,0.418849,-0.605880,-0.595108,94.908244,6.258756,-116.432432
50662,NaN,-1.075431,9.784729,-1.051231,0.184389,-0.098502,0.084729,0.028322,-0.037246,-0.047334,0.321114,0.418896,-0.605956,-0.595171,94.923746,6.284617,-116.455367
50663,NaN,-1.137718,9.780502,-0.957606,0.125029,-0.003286,0.079430,0.028101,-0.033670,-0.046012,0.320809,0.418949,-0.606029,-0.595225,94.939240,6.309527,-116.476327
50664,NaN,-1.140675,9.830609,-0.907460,0.071087,0.016353,0.125128,0.029978,-0.031313,-0.047141,0.320502,0.419015,-0.606101,-0.595270,94.956048,6.334997,-116.495852
50665,NaN,-1.177613,9.870233,-0.834459,0.013403,0.077228,0.162203,0.025060,-0.029225,-0.044775,0.320220,0.419073,-0.606159,-0.595322,94.970057,6.358992,-116.514308
50666,NaN,-1.234670,9.923860,-0.785215,-0.015616,0.144525,0.217409,0.022940,-0.029297,-0.041121,0.319952,0.419116,-0.606220,-0.595374,94.982912,6.380937,-116.532965
50667,NaN,-1.237527,9.972485,-0.709878,-0.090595,0.175959,0.259387,0.015912,-0.026000,-0.036296,0.319724,0.419142,-0.606264,-0.595433,94.991826,6.399939,-116.549986
50668,NaN,-1.221301,9.956345,-0.662788,-0.140301,0.181897,0.237532,0.017393,-0.025280,-0.031246,0.319510,0.419158,-0.606322,-0.595478,95.001692,6.416056,-116.566826
50669,NaN,-1.233528,9.989141,-0.661971,-0.142355,0.189354,0.271291,0.013545,-0.022512,-0.031308,0.319312,0.419176,-0.606363,-0.595529,95.009437,6.432042,-116.582090
50670,NaN,-1.196816,9.911639,-0.691628,-0.124644,0.146244,0.193030,0.010364,-0.021985,-0.026419,0.319137,0.419176,-0.606405,-0.595580,95.015449,6.445246,-116.597279
50671,NaN,-1.188308,9.883081,-0.767386,-0.059287,0.104637,0.170388,0.007949,-0.019806,-0.020211,0.318992,0.419159,-0.606449,-0.595625,95.020092,6.454766,-116.611544
50672,NaN,-1.149954,9.807419,-0.821032,-0.020523,0.049735,0.095848,0.007701,-0.016243,-0.018880,0.318862,0.419149,-0.606490,-0.595660,95.024899,6.463382,-116.623815
50673,NaN,-1.206113,9.810464,-0.822772,0.004459,0.097924,0.105340,0.006302,-0.015971,-0.012686,0.318754,0.419118,-0.606539,-0.595690,95.028800,6.468418,-116.636257
50674,NaN,-1.142417,9.777140,-0.872386,0.023783,0.020433,0.069501,-0.000778,-0.013988,-0.006636,0.318685,0.419064,-0.606576,-0.595727,95.028823,6.469935,-116.647850
50675,NaN,-1.111588,9.734987,-0.923334,0.060442,-0.027614,0.028742,0.001558,-0.007724,-0.003896,0.318639,0.419024,-0.606616,-0.595739,95.030489,6.469539,-116.656000
50676,NaN,-1.121726,9.766524,-0.896867,0.037300,-0.008395,0.058795,-0.001250,-0.005571,-0.005179,0.318601,0.418990,-0.606641,-0.595758,95.030778,6.469802,-116.662832
50677,NaN,-1.122918,9.764798,-0.872295,0.016279,0.003937,0.055081,-0.002270,-0.003667,-0.005162,0.318572,0.418959,-0.606661,-0.595775,95.030520,6.469926,-116.668587
50678,NaN,-1.114463,9.731476,-0.874230,0.018406,-0.002400,0.021315,0.000570,-0.004522,-0.005091,0.318533,0.418931,-0.606690,-0.595786,95.031920,6.470086,-116.674821
50679,NaN,-1.048236,9.749272,-0.871050,-0.016230,-0.060737,0.031188,-0.003354,-0.004359,-0.002723,0.318511,0.418889,-0.606712,-0.595804,95.030983,6.468852,-116.681097
50680,NaN,-1.103770,9.750838,-0.847559,-0.012308,-0.000781,0.036950,-0.003289,-0.001763,-0.005145,0.318489,0.418863,-0.606726,-0.595821,95.030349,6.468904,-116.685743
50681,NaN,-1.095291,9.717515,-0.849552,-0.010167,-0.007124,0.003185,0.002390,-0.003472,-0.005003,0.318450,0.418840,-0.606759,-0.595824,95.032774,6.468926,-116.691394
50682,NaN,-1.082825,9.740260,-0.872076,0.001194,-0.029616,0.026256,-0.002586,-0.002704,-0.001406,0.318435,0.418801,-0.606784,-0.595834,95.032461,6.466891,-116.696770
50683,NaN,-1.103985,9.754084,-0.895759,0.029914,-0.022669,0.044387,-0.004727,-0.001177,-0.011412,0.318399,0.418793,-0.606779,-0.595864,95.030993,6.470457,-116.700779
50684,NaN,-1.030045,9.736877,-0.870238,-0.023718,-0.076113,0.016796,-0.000099,-0.002280,-0.010042,0.318354,0.418785,-0.606792,-0.595880,95.032182,6.473330,-116.705475
50685,NaN,-1.076696,9.706747,-0.873317,0.003393,-0.034853,-0.007502,-0.003641,-0.000484,-0.013853,0.318311,0.418788,-0.606784,-0.595909,95.031394,6.478253,-116.708962
50686,NaN,-1.029707,9.790976,-0.866046,-0.035482,-0.079345,0.069923,0.000380,0.003251,-0.019855,0.318253,0.418827,-0.606770,-0.595927,95.033271,6.486448,-116.709984
50687,NaN,-1.068372,9.727436,-0.871397,-0.006270,-0.045002,0.011858,-0.001054,0.003838,-0.026125,0.318181,0.418885,-0.606737,-0.595959,95.034315,6.498159,-116.710367
50688,NaN,-1.048625,9.718374,-0.920233,0.028228,-0.086196,0.004899,-0.002550,0.001830,-0.029973,0.318094,0.418946,-0.606695,-0.596005,95.034480,6.512199,-116.711693
50689,NaN,-1.085024,9.709093,-0.921591,0.045623,-0.056211,-0.000050,-0.001620,0.009981,-0.034715,0.318017,0.419046,-0.606633,-0.596039,95.035650,6.528504,-116.708112
50690,NaN,-1.098086,9.740307,-0.894891,0.022500,-0.036945,0.029991,-0.006015,0.006230,-0.036214,0.317932,0.419134,-0.606560,-0.596096,95.034152,6.545884,-116.706594
50691,NaN,-1.143800,9.764241,-0.893844,0.037809,-0.000039,0.058797,-0.005277,0.006589,-0.033688,0.317855,0.419216,-0.606494,-0.596147,95.033000,6.561773,-116.705014
50692,NaN,-1.190569,9.784780,-0.844183,0.011009,0.060458,0.080151,-0.004540,0.006948,-0.031162,0.317784,0.419293,-0.606436,-0.596190,95.032367,6.576233,-116.703339
50693,NaN,-1.183660,9.752923,-0.870176,0.034197,0.042296,0.050112,-0.005654,0.004955,-0.027511,0.317721,0.419350,-0.606384,-0.596236,95.030857,6.588679,-116.703011
50694,NaN,-1.207926,9.763083,-0.845151,0.020818,0.072826,0.060783,-0.002939,-0.001092,-0.022594,0.317648,0.419379,-0.606361,-0.596277,95.030560,6.598653,-116.706389
50695,NaN,-1.177277,9.770186,-0.818957,-0.017552,0.055758,0.062017,-0.003066,-0.006289,-0.017748,0.317575,0.419378,-0.606356,-0.596323,95.029734,6.606092,-116.713016
50696,NaN,-1.179008,9.770009,-0.818574,-0.017521,0.056320,0.062014,-0.003096,-0.007588,-0.016537,0.317500,0.419369,-0.606355,-0.596369,95.028881,6.612937,-116.720434
50697,NaN,-1.136961,9.749031,-0.867480,0.009331,-0.003076,0.040673,-0.002103,-0.010789,-0.015344,0.317418,0.419348,-0.606365,-0.596417,95.028293,6.619229,-116.729768
50698,NaN,-1.108199,9.703547,-0.869460,0.003804,-0.027631,-0.007479,-0.002926,-0.015042,-0.014240,0.317328,0.419311,-0.606382,-0.596475,95.027028,6.625137,-116.741586
50699,NaN,-1.062947,9.737015,-0.914320,0.018818,-0.091338,0.024314,-0.005035,-0.013836,-0.011781,0.317254,0.419266,-0.606395,-0.596533,95.024534,6.629548,-116.752851
50700,NaN,-1.055941,9.701948,-0.891724,-0.000115,-0.085918,-0.013167,0.000773,-0.010336,-0.016488,0.317163,0.419255,-0.606410,-0.596573,95.025713,6.636501,-116.761851
50701,NaN,-1.078300,9.715556,-0.915676,0.028613,-0.078991,0.004958,-0.001211,-0.003931,-0.018876,0.317090,0.419266,-0.606404,-0.596610,95.026108,6.644465,-116.767067
50702,NaN,-1.068076,9.736517,-0.913648,0.018899,-0.089670,0.024329,-0.003258,-0.000127,-0.018840,0.317032,0.419287,-0.606387,-0.596645,95.025668,6.652248,-116.770082
50703,NaN,-1.148090,9.698752,-0.942511,0.084490,-0.030871,-0.001258,-0.002138,0.001873,-0.022495,0.316967,0.419325,-0.606361,-0.596678,95.025938,6.661985,-116.771779
50704,NaN,-1.171936,9.708923,-0.917519,0.071129,-0.000332,0.009400,-0.005070,-0.001177,-0.018932,0.316909,0.419340,-0.606339,-0.596720,95.024391,6.669872,-116.775393
50705,NaN,-1.150242,9.749346,-0.889114,0.030657,-0.010427,0.044405,-0.004075,-0.004378,-0.017739,0.316844,0.419343,-0.606328,-0.596765,95.023105,6.677209,-116.780923
50706,NaN,-1.098191,9.744475,-0.863142,-0.015402,-0.045643,0.031271,-0.004042,-0.003076,-0.018952,0.316778,0.419353,-0.606312,-0.596808,95.022020,6.685203,-116.785627
50707,NaN,-1.175926,9.759339,-0.863503,0.017348,0.020678,0.055058,-0.005558,-0.006383,-0.021592,0.316698,0.419359,-0.606292,-0.596868,95.019771,6.694839,-116.792116
50708,NaN,-1.167611,9.729318,-0.913895,0.061535,-0.009350,0.028769,-0.000930,-0.007476,-0.020222,0.316608,0.419365,-0.606289,-0.596913,95.020179,6.703778,-116.799285
50709,NaN,-1.158552,9.746889,-0.862977,0.009766,0.003613,0.040673,-0.005975,-0.009328,-0.014196,0.316542,0.419339,-0.606288,-0.596968,95.017448,6.709340,-116.807840
50710,NaN,-1.147410,9.769653,-0.884716,0.021088,-0.018865,0.063779,-0.008784,-0.007179,-0.015479,0.316485,0.419320,-0.606272,-0.597029,95.013346,6.715557,-116.815078
50711,NaN,-1.215881,9.749635,-0.862559,0.034907,0.052306,0.050061,-0.005513,-0.005419,-0.010326,0.316441,0.419294,-0.606273,-0.597068,95.011119,6.718713,-116.821583
50712,NaN,-1.214024,9.803935,-0.858141,0.023116,0.048613,0.103184,-0.003728,-0.005666,-0.009025,0.316396,0.419267,-0.606283,-0.597100,95.009977,6.721171,-116.828277
50713,NaN,-1.181536,9.813037,-0.855704,0.005757,0.019777,0.108176,-0.014156,-0.008080,-0.005690,0.316377,0.419206,-0.606273,-0.597164,95.002590,6.721813,-116.836545
50714,NaN,-1.140309,9.787227,-0.831092,-0.030574,-0.004202,0.075683,-0.003238,-0.000458,-0.006366,0.316355,0.419188,-0.606282,-0.597180,95.002063,6.722492,-116.840381
50715,NaN,-1.207956,9.767269,-0.809014,-0.016734,0.066967,0.061949,-0.011034,0.002436,-0.004044,0.316365,0.419158,-0.606267,-0.597209,94.997163,6.721669,-116.842687
50716,NaN,-1.165380,9.744906,-0.833181,-0.011006,0.019339,0.036932,-0.006079,0.000390,-0.006437,0.316352,0.419138,-0.606266,-0.597232,94.995065,6.722346,-116.846032
50717,NaN,-1.111557,9.741953,-0.831444,-0.036046,-0.027676,0.027559,-0.006048,0.001691,-0.007649,0.316339,0.419125,-0.606261,-0.597254,94.992993,6.723618,-116.848586
50718,NaN,-1.101368,9.713880,-0.905956,0.029144,-0.069574,0.005028,-0.007801,0.003240,-0.010162,0.316326,0.419122,-0.606242,-0.597281,94.990122,6.726278,-116.850106
50719,NaN,-1.125251,9.674956,-0.957432,0.090736,-0.070272,-0.026244,-0.009344,-0.001366,-0.011593,0.316299,0.419106,-0.606223,-0.597326,94.985978,6.729953,-116.854219
50720,NaN,-1.090350,9.738436,-0.950930,0.061513,-0.103327,0.031895,-0.013180,0.002683,-0.012856,0.316288,0.419101,-0.606184,-0.597375,94.980004,6.734178,-116.855924
50721,NaN,-1.134610,9.760746,-0.924848,0.055876,-0.054577,0.056900,-0.010817,0.011547,-0.012529,0.316301,0.419125,-0.606138,-0.597399,94.975892,6.737745,-116.852569
50722,NaN,-1.194221,9.705792,-0.879891,0.050781,0.021421,0.005649,-0.020153,0.009833,-0.011640,0.316330,0.419126,-0.606069,-0.597452,94.966398,6.740919,-116.850226
50723,NaN,-1.212992,9.773967,-0.898359,0.067705,0.024115,0.076887,-0.014532,0.005537,-0.009076,0.316342,0.419115,-0.606029,-0.597494,94.959732,6.742814,-116.850499
50724,NaN,-1.127266,9.776796,-0.845311,-0.016851,-0.028600,0.065061,-0.021027,0.002976,-0.008118,0.316363,0.419084,-0.605976,-0.597559,94.949255,6.744318,-116.852274
50725,NaN,-1.163971,9.713372,-0.848756,0.012452,0.005537,0.006917,-0.021086,0.000373,-0.005696,0.316383,0.419038,-0.605931,-0.597626,94.938465,6.744539,-116.855683
50726,NaN,-1.218381,9.718122,-0.872202,0.058621,0.041817,0.020008,-0.020874,-0.005783,-0.004617,0.316387,0.418970,-0.605900,-0.597703,94.927464,6.744475,-116.862667
50727,NaN,-1.111853,9.659900,-0.896234,0.041276,-0.060395,-0.048069,-0.018365,-0.005681,-0.000782,0.316398,0.418895,-0.605883,-0.597767,94.917796,6.742186,-116.869800
50728,NaN,-1.130487,9.726450,-0.890016,0.037161,-0.045846,0.019427,-0.019359,-0.002477,-0.001974,0.316417,0.418831,-0.605856,-0.597829,94.907871,6.740450,-116.875014
50729,NaN,-1.079387,9.667580,-0.866932,0.002883,-0.076823,-0.046785,-0.013227,-0.000269,0.002045,0.316442,0.418771,-0.605852,-0.597861,94.901496,6.736280,-116.879174
50730,NaN,-1.142979,9.703806,-0.864373,0.025969,-0.021710,-0.003699,-0.018872,0.002729,0.000691,0.316484,0.418716,-0.605824,-0.597906,94.892187,6.732765,-116.881525
50731,NaN,-1.117614,9.749877,-0.907610,0.048535,-0.067207,0.042568,-0.018085,0.005684,0.000803,0.316534,0.418671,-0.605794,-0.597943,94.883437,6.729012,-116.882201
50732,NaN,-1.139979,9.758497,-0.857005,0.014217,-0.024773,0.049434,-0.016481,0.012897,-0.000183,0.316598,0.418652,-0.605755,-0.597960,94.876189,6.725500,-116.878664
50733,NaN,-1.195001,9.759717,-0.832476,0.018387,0.035182,0.055015,-0.014667,0.013951,-0.000092,0.316663,0.418639,-0.605720,-0.597971,94.869960,6.721856,-116.874543
50734,NaN,-1.153179,9.733987,-0.807496,-0.017980,0.011216,0.022552,-0.015150,0.008749,-0.002761,0.316705,0.418619,-0.605686,-0.597997,94.863210,6.720017,-116.873263
50735,NaN,-1.132872,9.720232,-0.782313,-0.046641,0.005436,0.004447,-0.011224,0.008607,-0.005131,0.316731,0.418610,-0.605659,-0.598016,94.858623,6.719510,-116.871968
50736,NaN,-1.099571,9.731196,-0.804074,-0.043053,-0.035212,0.013232,-0.011707,0.003404,-0.007801,0.316735,0.418594,-0.605634,-0.598052,94.853514,6.720809,-116.873514
50737,NaN,-1.090003,9.701567,-0.854089,0.001081,-0.065372,-0.013008,-0.007958,0.010725,-0.012457,0.316739,0.418620,-0.605598,-0.598068,94.850982,6.724381,-116.870643
50738,NaN,-1.113178,9.711686,-0.828861,-0.012207,-0.034773,-0.002404,-0.005812,0.010835,-0.016130,0.316727,0.418660,-0.605561,-0.598083,94.849799,6.730074,-116.867511
50739,NaN,-1.091522,9.704962,-0.901584,0.043171,-0.087966,-0.005498,-0.009432,0.008729,-0.016318,0.316717,0.418689,-0.605516,-0.598114,94.846311,6.735948,-116.865599
50740,NaN,-1.179391,9.749249,-0.851176,0.031977,0.009055,0.044402,-0.001097,0.013651,-0.018387,0.316697,0.418753,-0.605484,-0.598113,94.848033,6.742792,-116.860738
50741,NaN,-1.193850,9.726064,-0.828456,0.020779,0.032631,0.021256,-0.007249,0.010145,-0.021205,0.316672,0.418804,-0.605433,-0.598142,94.845919,6.751387,-116.857774
50742,NaN,-1.173885,9.715668,-0.852705,0.034118,0.003143,0.010660,-0.003417,0.006094,-0.019942,0.316630,0.418846,-0.605402,-0.598166,94.845812,6.759485,-116.857182
50743,NaN,-1.196925,9.727474,-0.852095,0.041869,0.021887,0.025006,-0.003478,0.003486,-0.017522,0.316587,0.418872,-0.605381,-0.598192,94.845388,6.766300,-116.858226
50744,NaN,-1.166548,9.732869,-0.801755,-0.017584,0.016816,0.022545,0.001347,-0.003771,-0.015068,0.316520,0.418877,-0.605390,-0.598214,94.847313,6.772093,-116.863543
50745,NaN,-1.154531,9.757538,-0.848400,0.014708,-0.017505,0.049449,-0.003909,0.000516,-0.010123,0.316491,0.418871,-0.605388,-0.598236,94.846398,6.774828,-116.866655
50746,NaN,-1.243209,9.751043,-0.850797,0.057400,0.059936,0.053689,-0.003941,-0.000788,-0.008913,0.316462,0.418858,-0.605390,-0.598258,94.845460,6.776962,-116.870557
50747,NaN,-1.232409,9.770402,-0.824040,0.026678,0.061202,0.069325,-0.006183,-0.004813,-0.001607,0.316448,0.418807,-0.605406,-0.598284,94.842832,6.775093,-116.877148
50748,NaN,-1.231799,9.772261,-0.847781,0.047717,0.049898,0.073079,-0.004468,-0.007673,0.002119,0.316432,0.418740,-0.605441,-0.598305,94.841062,6.771264,-116.885547
50749,NaN,-1.201557,9.725392,-0.825196,0.021110,0.037088,0.021240,-0.008997,-0.017954,0.006658,0.316409,0.418620,-0.605487,-0.598354,94.835884,6.765310,-116.900095
50750,NaN,-1.209501,9.760559,-0.846305,0.040089,0.032822,0.058733,-0.006284,-0.024017,0.011573,0.316376,0.418472,-0.605562,-0.598400,94.831914,6.756872,-116.918348
50751,NaN,-1.220360,9.739608,-0.847062,0.049910,0.044525,0.039332,-0.010023,-0.031340,0.016224,0.316343,0.418281,-0.605647,-0.598465,94.825194,6.746100,-116.941055
50752,NaN,-1.228115,9.773110,-0.843325,0.047889,0.052130,0.073066,-0.011948,-0.037606,0.020966,0.316308,0.418055,-0.605745,-0.598541,94.817016,6.732950,-116.967574
50753,NaN,-1.193524,9.780857,-0.815807,0.009451,0.035224,0.074368,-0.012059,-0.042816,0.025800,0.316273,0.417798,-0.605862,-0.598622,94.808313,6.717256,-116.997338
50754,NaN,-1.181463,9.749934,-0.840387,0.032538,0.016861,0.044390,-0.018530,-0.045368,0.026743,0.316246,0.417520,-0.605965,-0.598725,94.795825,6.701172,-117.028592
50755,NaN,-1.133869,9.780745,-0.834794,0.005318,-0.023052,0.068859,-0.015737,-0.048815,0.029224,0.316211,0.417229,-0.606087,-0.598823,94.784611,6.683799,-117.061961
50756,NaN,-1.132062,9.779381,-0.808185,-0.015649,-0.010614,0.065099,-0.019310,-0.049604,0.027819,0.316176,0.416934,-0.606197,-0.598936,94.771406,6.667290,-117.095694
50757,NaN,-1.152561,9.741214,-0.858052,0.045942,-0.011535,0.033817,-0.021157,-0.053250,0.030132,0.316141,0.416618,-0.606312,-0.599058,94.756807,6.649594,-117.131645
50758,NaN,-1.116269,9.752717,-0.878277,0.049468,-0.052182,0.042654,-0.021137,-0.053238,0.030121,0.316106,0.416302,-0.606426,-0.599180,94.742322,6.631927,-117.167566
50759,NaN,-1.134889,9.765309,-0.875001,0.057239,-0.033432,0.056986,-0.025280,-0.048231,0.032628,0.316102,0.415987,-0.606526,-0.599300,94.725704,6.612550,-117.200739
50760,NaN,-1.132631,9.764042,-0.847703,0.036276,-0.020992,0.053224,-0.024480,-0.045269,0.032737,0.316105,0.415682,-0.606623,-0.599411,94.709842,6.592993,-117.232190
50761,NaN,-1.108457,9.752594,-0.845139,0.028595,-0.038628,0.038897,-0.027595,-0.042163,0.035221,0.316133,0.415374,-0.606711,-0.599522,94.692308,6.571831,-117.261984
50762,NaN,-1.138455,9.745981,-0.867508,0.067127,-0.020629,0.037584,-0.031848,-0.040684,0.028873,0.316154,0.415082,-0.606771,-0.599652,94.672571,6.554247,-117.290603
50763,NaN,-1.123554,9.767760,-0.862179,0.057395,-0.031198,0.056993,-0.029638,-0.039645,0.036463,0.316196,0.414774,-0.606851,-0.599761,94.654047,6.532239,-117.318992
50764,NaN,-1.122109,9.762732,-0.785937,-0.005545,0.005020,0.045695,-0.027200,-0.041770,0.030218,0.316209,0.414483,-0.606930,-0.599877,94.636917,6.513919,-117.348284
50765,NaN,-1.140518,9.775392,-0.782189,0.002239,0.023777,0.060018,-0.029308,-0.041866,0.033882,0.316236,0.414176,-0.607009,-0.599994,94.618472,6.493470,-117.377813
50766,NaN,-1.113870,9.816363,-0.750724,-0.038278,0.013993,0.095068,-0.030294,-0.038653,0.032698,0.316271,0.413882,-0.607078,-0.600109,94.599780,6.473572,-117.405414
50767,NaN,-1.142797,9.813637,-0.821709,0.042256,0.008206,0.101283,-0.029521,-0.036999,0.034016,0.316315,0.413589,-0.607149,-0.600216,94.581550,6.452804,-117.432136
50768,NaN,-1.141606,9.806618,-0.721114,-0.041657,0.056333,0.086207,-0.028703,-0.032742,0.032928,0.316365,0.413314,-0.607214,-0.600313,94.564170,6.432487,-117.456336
50769,NaN,-1.137598,9.811055,-0.766500,0.000369,0.033118,0.093743,-0.030785,-0.031536,0.035390,0.316431,0.413031,-0.607276,-0.600411,94.545581,6.410670,-117.479966
50770,NaN,-1.067986,9.829645,-0.760648,-0.034645,-0.024932,0.103929,-0.029103,-0.019130,0.029619,0.316514,0.412806,-0.607311,-0.600486,94.528879,6.391611,-117.496178
50771,NaN,-1.110513,9.800131,-0.760476,-0.007283,0.016055,0.079422,-0.036069,-0.013267,0.032088,0.316637,0.412580,-0.607321,-0.600567,94.508465,6.370840,-117.509142
50772,NaN,-1.077330,9.755361,-0.760343,-0.012948,-0.008664,0.031376,-0.026744,-0.010288,0.029987,0.316743,0.412384,-0.607350,-0.600616,94.493689,6.351164,-117.520275
50773,NaN,-1.029629,9.783999,-0.729876,-0.061199,-0.036613,0.052119,-0.031307,-0.006560,0.026222,0.316859,0.412203,-0.607351,-0.600678,94.476467,6.333436,-117.529107
50774,NaN,-0.996320,9.743002,-0.778595,-0.024908,-0.085130,0.011624,-0.030169,-0.001947,0.020176,0.316967,0.412057,-0.607336,-0.600736,94.460313,6.318985,-117.534994
