// General information: 
//  MT Manager version: 2019.0.1 
//  XDA version: 2019.0.1 build 2740 rev 84096 built on 2019-01-30
// Device information: 
//  DeviceId: 00B4381A
//  ProductCode: MTW2-3A7G6
//  Firmware Version: 4.3.4
//  Hardware Version: 1.1.0
// Device settings: 
//  Filter Profile: human(46.1)
//  Option Flags: Orientation Smoother Disabled, AHS Disabled, ICC Disabled
// Coordinate system: ENU
PacketCounter,SampleTimeFine,Acc_X,Acc_Y,Acc_Z,FreeAcc_E,FreeAcc_N,FreeAcc_U,Gyr_X,Gyr_Y,Gyr_Z,Quat_q0,Quat_q1,Quat_q2,Quat_q3,Roll,Pitch,Yaw
01895,NaN,-7.843492,5.092550,4.486339,-1.163861,-0.095820,0.493489,0.563671,0.547460,0.338757,0.819886,0.433208,0.291366,-0.234998,51.576328,42.951498,-10.461428
01896,NaN,-7.757316,5.252541,4.580251,-0.988868,-0.187180,0.566639,0.557679,0.358945,0.384756,0.818568,0.436506,0.291338,-0.233519,52.175397,42.908129,-10.061421
01897,NaN,-7.562811,5.306584,4.596477,-0.836613,-0.269478,0.468877,0.535670,0.219686,0.418221,0.817530,0.439593,0.290689,-0.232172,52.712770,42.797953,-9.732883
01898,NaN,-7.304851,5.354431,4.606232,-0.651141,-0.347542,0.321561,0.516025,0.136229,0.429010,0.816657,0.442514,0.289694,-0.230932,53.205254,42.651949,-9.453248
01899,NaN,-6.962958,5.386136,4.654482,-0.406842,-0.469540,0.125678,0.490820,0.092506,0.421200,0.815886,0.445264,0.288564,-0.229782,53.660125,42.492863,-9.206914
01900,NaN,-6.653512,5.382010,4.642472,-0.222659,-0.549859,-0.094891,0.473428,0.122563,0.405887,0.815084,0.447952,0.287608,-0.228601,54.111096,42.349643,-8.951019
01901,NaN,-6.461662,5.303243,4.551738,-0.186155,-0.584987,-0.314339,0.467112,0.184092,0.369126,0.814158,0.450627,0.286988,-0.227419,54.571415,42.242539,-8.675085
01902,NaN,-6.453632,5.346581,4.512259,-0.185751,-0.585366,-0.314355,0.464395,0.270506,0.319334,0.813049,0.453313,0.286834,-0.226240,55.050760,42.185663,-8.368238
01903,NaN,-6.532892,5.327923,4.425784,-0.293198,-0.568807,-0.313045,0.448436,0.339533,0.285425,0.811831,0.455959,0.287052,-0.225017,55.539535,42.165311,-8.033326
01904,NaN,-6.688988,5.308694,4.334305,-0.453727,-0.542341,-0.262259,0.440880,0.380334,0.266220,0.810542,0.458589,0.287485,-0.223766,56.035778,42.165117,-7.680948
01905,NaN,-6.839006,5.254889,4.246063,-0.628819,-0.536393,-0.235032,0.426985,0.369021,0.259700,0.809285,0.461135,0.287899,-0.222544,56.517121,42.162162,-7.338702
01906,NaN,-6.915316,5.198245,4.161590,-0.750801,-0.540324,-0.257257,0.418527,0.343924,0.253764,0.808070,0.463606,0.288233,-0.221391,56.981115,42.152116,-7.015235
01907,NaN,-6.821008,5.065424,4.053296,-0.801902,-0.571837,-0.450872,0.414281,0.315241,0.253257,0.806899,0.466023,0.288454,-0.220298,57.429667,42.131475,-6.710849
01908,NaN,-6.723810,5.004077,3.956340,-0.803964,-0.576383,-0.597253,0.422039,0.291093,0.247745,0.805731,0.468434,0.288580,-0.219293,57.870416,42.104376,-6.424798
01909,NaN,-6.628970,4.890477,3.880544,-0.834811,-0.621321,-0.766392,0.435120,0.280900,0.236955,0.804529,0.470866,0.288673,-0.218372,58.310669,42.077794,-6.150285
01910,NaN,-6.589351,4.835426,3.800845,-0.870107,-0.630097,-0.863219,0.452813,0.282191,0.224683,0.803263,0.473350,0.288778,-0.217521,58.758155,42.056031,-5.880213
01911,NaN,-6.607836,4.788864,3.734606,-0.938610,-0.643089,-0.910485,0.478078,0.297744,0.220649,0.801904,0.475941,0.288926,-0.216685,59.225444,42.039243,-5.601831
01912,NaN,-6.693448,4.847603,3.622881,-1.002591,-0.565323,-0.862731,0.514235,0.305370,0.224179,0.800443,0.478687,0.289053,-0.215866,59.717724,42.021199,-5.317226
01913,NaN,-6.800297,4.934815,3.484317,-1.071779,-0.452773,-0.791440,0.543448,0.318307,0.234509,0.798897,0.481572,0.289174,-0.215014,60.234689,41.999898,-5.020363
01914,NaN,-6.895588,5.068753,3.485563,-1.068717,-0.448817,-0.644993,0.568461,0.319699,0.251620,0.797296,0.484579,0.289227,-0.214125,60.770804,41.968410,-4.716419
01915,NaN,-7.083973,5.213610,3.428563,-1.144194,-0.386649,-0.449974,0.603015,0.322143,0.262638,0.795611,0.487735,0.289224,-0.213233,61.329805,41.929960,-4.407358
01916,NaN,-7.281953,5.389528,3.433942,-1.193250,-0.371357,-0.205209,0.628666,0.313007,0.269840,0.793871,0.490987,0.289135,-0.212369,61.900702,41.883084,-4.102527
01917,NaN,-7.525090,5.558233,3.513082,-1.264124,-0.428388,0.090882,0.663292,0.298774,0.283837,0.792072,0.494374,0.288915,-0.211531,62.487270,41.823085,-3.803318
01918,NaN,-7.818604,5.746103,3.527918,-1.379902,-0.422292,0.410400,0.696998,0.274907,0.297960,0.790225,0.497883,0.288524,-0.210741,63.084790,41.747273,-3.516567
01919,NaN,-7.990578,5.953735,3.597939,-1.383018,-0.468778,0.680569,0.731165,0.243941,0.309910,0.788337,0.501501,0.287941,-0.210027,63.688953,41.655242,-3.248463
01920,NaN,-8.169874,6.161656,3.574055,-1.417690,-0.433700,0.924546,0.764412,0.214373,0.313232,0.786397,0.505217,0.287193,-0.209418,64.298149,41.551869,-3.001277
01921,NaN,-8.330843,6.413837,3.484482,-1.429500,-0.324885,1.166030,0.794400,0.175981,0.312466,0.784422,0.508998,0.286259,-0.208948,64.904917,41.437617,-2.782818
01922,NaN,-8.365583,6.755042,3.453504,-1.279549,-0.241947,1.405327,0.812767,0.134041,0.302384,0.782433,0.512784,0.285161,-0.208647,65.499457,41.316706,-2.598611
01923,NaN,-8.401782,6.974930,3.368982,-1.219238,-0.158805,1.548529,0.813319,0.109182,0.298508,0.780460,0.516530,0.283971,-0.208422,66.080232,41.190709,-2.434954
01924,NaN,-8.352907,7.285563,3.241565,-1.048130,-0.005038,1.687706,0.811468,0.086876,0.279603,0.778488,0.520210,0.282737,-0.208321,66.644618,41.068146,-2.294547
01925,NaN,-8.307089,7.552237,3.029333,-0.923110,0.209832,1.777141,0.797750,0.088103,0.265991,0.776522,0.523807,0.281555,-0.208247,67.197351,40.952171,-2.159228
01926,NaN,-8.298310,7.825635,2.876216,-0.805755,0.372108,1.917055,0.775009,0.096182,0.251020,0.774574,0.527296,0.280460,-0.208174,67.736865,40.844762,-2.024253
01927,NaN,-8.295050,8.022319,2.721633,-0.737481,0.507581,2.009777,0.739918,0.113381,0.241528,0.772672,0.530643,0.279490,-0.208040,68.260957,40.745324,-1.881475
01928,NaN,-8.280675,8.155195,2.478317,-0.715819,0.703457,2.028388,0.710360,0.136665,0.226014,0.770788,0.533872,0.278676,-0.207859,68.775161,40.657888,-1.727971
01929,NaN,-8.305522,8.190809,2.307935,-0.765665,0.799569,2.026720,0.673294,0.155195,0.221154,0.768962,0.536962,0.277983,-0.207593,69.274569,40.576020,-1.563977
01930,NaN,-8.372194,8.168406,2.095465,-0.889699,0.917874,2.001411,0.663688,0.169474,0.213230,0.767122,0.540013,0.277371,-0.207304,69.772998,40.499993,-1.393091
01931,NaN,-8.505118,8.248155,1.896388,-0.997123,1.059464,2.097316,0.657076,0.165645,0.218744,0.765302,0.543033,0.276734,-0.206992,70.265710,40.419335,-1.224595
01932,NaN,-8.548304,8.302666,1.699416,-1.052022,1.190318,2.119274,0.662203,0.131053,0.225282,0.763512,0.546042,0.275936,-0.206752,70.745834,40.327238,-1.080076
01933,NaN,-8.619164,8.435482,1.701749,-1.042528,1.159854,2.266664,0.670562,0.078349,0.238190,0.761776,0.549036,0.274892,-0.206617,71.207436,40.217632,-0.971048
01934,NaN,-8.626766,8.609977,1.636193,-0.976549,1.207906,2.386362,0.687172,0.000866,0.262668,0.760116,0.552042,0.273462,-0.206621,71.645976,40.079714,-0.912540
01935,NaN,-8.640866,8.825107,1.635237,-0.884150,1.208980,2.555711,0.721846,-0.095736,0.294166,0.758513,0.555113,0.271541,-0.206817,72.063743,39.907325,-0.916841
01936,NaN,-8.755919,9.172704,1.673283,-0.788483,1.214700,2.895846,0.750287,-0.196638,0.332217,0.756995,0.558232,0.269095,-0.207182,72.456621,39.696337,-0.985734
01937,NaN,-8.881274,9.492558,1.781538,-0.715633,1.146690,3.238445,0.771912,-0.318361,0.372381,0.755606,0.561347,0.266051,-0.207762,72.811654,39.443181,-1.133625
01938,NaN,-8.925728,9.758824,1.860102,-0.630440,1.095707,3.482601,0.777123,-0.466756,0.412169,0.754425,0.564370,0.262321,-0.208609,73.108491,39.143704,-1.379194
01939,NaN,-8.952561,9.966917,1.972779,-0.574619,1.003729,3.679584,0.785741,-0.626483,0.457992,0.753455,0.567302,0.257844,-0.209740,73.346075,38.793843,-1.728381
01940,NaN,-8.856725,10.231588,2.000621,-0.414448,1.014881,3.822819,0.795727,-0.794215,0.489003,0.752679,0.570117,0.252627,-0.211235,73.521895,38.400257,-2.188746
01941,NaN,-8.721584,10.483597,1.942457,-0.251986,1.112567,3.914764,0.793317,-0.941237,0.511950,0.752090,0.572772,0.246785,-0.213052,73.639030,37.971449,-2.745847
01942,NaN,-8.543000,10.747135,1.958010,-0.044395,1.147554,4.007512,0.770333,-1.060019,0.523300,0.751689,0.575202,0.240474,-0.215126,73.698853,37.517658,-3.380733
01943,NaN,-8.451414,11.041466,1.946727,0.105310,1.227272,4.173447,0.722486,-1.157055,0.527553,0.751507,0.577321,0.233828,-0.217397,73.697355,37.046459,-4.078188
01944,NaN,-8.378945,11.319989,2.052584,0.238007,1.199830,4.367044,0.664534,-1.246093,0.525715,0.751554,0.579094,0.226900,-0.219850,73.633339,36.561322,-4.832444
01945,NaN,-8.195483,11.506129,2.101974,0.396394,1.207927,4.412573,0.595922,-1.318793,0.505185,0.751815,0.580470,0.219823,-0.222501,73.506679,36.074959,-5.634681
01946,NaN,-7.961877,11.625802,2.179132,0.558762,1.179900,4.385691,0.513603,-1.397163,0.479569,0.752327,0.581388,0.212602,-0.225371,73.308207,35.587727,-6.488514
01947,NaN,-7.714764,11.660527,2.253851,0.685617,1.144331,4.286416,0.421957,-1.453019,0.432723,0.753066,0.581811,0.205399,-0.228470,73.040140,35.114378,-7.381883
01948,NaN,-7.300933,11.675186,2.258244,0.940670,1.161525,4.060967,0.342854,-1.466285,0.376005,0.753938,0.581829,0.198387,-0.231724,72.725490,34.665881,-8.287783
01949,NaN,-6.863812,11.610328,2.263194,1.179966,1.156914,3.763102,0.264631,-1.434730,0.322966,0.754900,0.581501,0.191729,-0.234997,72.381678,34.247791,-9.175949
01950,NaN,-6.490011,11.512274,2.220285,1.359750,1.195147,3.465277,0.196653,-1.367435,0.267366,0.755890,0.580911,0.185554,-0.238204,72.026372,33.867101,-10.024249
01951,NaN,-6.136674,11.379704,2.243975,1.516472,1.159711,3.169864,0.109586,-1.269548,0.205641,0.756934,0.580026,0.180026,-0.241271,71.657356,33.533300,-10.815291
01952,NaN,-5.703862,11.057596,2.162812,1.643263,1.166828,2.654067,0.036932,-1.139071,0.143121,0.757968,0.578944,0.175252,-0.244120,71.292424,33.252771,-11.529675
01953,NaN,-5.309843,10.753567,2.135882,1.762230,1.121402,2.188659,-0.016226,-0.981482,0.075181,0.758913,0.577778,0.171333,-0.246717,70.949487,33.034827,-12.152953
01954,NaN,-5.028968,10.451281,2.055944,1.802922,1.134515,1.772167,-0.036446,-0.794775,0.019723,0.759672,0.576706,0.168303,-0.248963,70.656867,32.878963,-12.665502
01955,NaN,-4.740465,10.154239,1.976774,1.863371,1.133358,1.355636,-0.045109,-0.609691,-0.032322,0.760226,0.575781,0.166135,-0.250862,70.419254,32.784745,-13.069299
01956,NaN,-4.632366,9.991735,1.863835,1.862947,1.214373,1.133643,-0.032342,-0.432059,-0.077569,0.760534,0.575084,0.164755,-0.252431,70.245728,32.747791,-13.368792
01957,NaN,-4.613978,9.843786,1.806960,1.801385,1.252298,0.987348,-0.035541,-0.273823,-0.095666,0.760695,0.574559,0.164033,-0.253610,70.123235,32.750833,-13.570880
01958,NaN,-4.614724,9.597216,1.829043,1.667255,1.190165,0.796336,-0.022732,-0.151768,-0.103321,0.760708,0.574230,0.163780,-0.254477,70.049268,32.781369,-13.696594
01959,NaN,-4.715167,9.400283,1.773366,1.484134,1.226752,0.677087,-0.005096,-0.079483,-0.093616,0.760623,0.574068,0.163752,-0.255115,70.011738,32.820852,-13.773823
01960,NaN,-4.645507,9.218805,1.731690,1.446716,1.215189,0.482757,0.015533,-0.044858,-0.071465,0.760479,0.574046,0.163765,-0.255585,70.000659,32.855033,-13.823751
01961,NaN,-4.591356,9.090286,1.679260,1.424626,1.224658,0.336422,0.047171,-0.022518,-0.038681,0.760266,0.574201,0.163729,-0.255893,70.019765,32.876050,-13.851722
01962,NaN,-4.518942,9.004939,1.714711,1.434240,1.152953,0.240354,0.070013,-0.025642,0.003865,0.760046,0.574472,0.163529,-0.256067,70.056086,32.873445,-13.871782
01963,NaN,-4.593156,8.991813,1.787682,1.359008,1.088410,0.292462,0.100684,-0.040490,0.055175,0.759814,0.574884,0.163086,-0.256113,70.111487,32.840404,-13.889433
01964,NaN,-4.691867,8.976885,1.814217,1.258532,1.072320,0.343871,0.121101,-0.073966,0.115030,0.759628,0.575377,0.162318,-0.256044,70.174266,32.768519,-13.914725
01965,NaN,-4.654690,8.979589,1.872666,1.270178,1.003091,0.345386,0.131492,-0.124097,0.185087,0.759541,0.575904,0.161144,-0.255862,70.234600,32.649233,-13.956036
01966,NaN,-4.683856,8.937306,1.934829,1.193861,0.937369,0.348684,0.135211,-0.192065,0.248384,0.759578,0.576405,0.159524,-0.255637,70.281302,32.482619,-14.026378
01967,NaN,-4.592312,8.870292,1.941119,1.197926,0.899764,0.251836,0.126757,-0.270491,0.309824,0.759776,0.576823,0.157440,-0.255398,70.304334,32.267801,-14.132715
01968,NaN,-4.560144,8.768940,1.934566,1.128352,0.885461,0.155983,0.105876,-0.359627,0.365793,0.760173,0.577087,0.154882,-0.255184,70.292244,32.005530,-14.282821
01969,NaN,-4.423426,8.677023,1.918798,1.145639,0.866415,0.009524,0.078863,-0.440390,0.413786,0.760764,0.577180,0.151911,-0.254999,70.244617,31.701724,-14.472645
01970,NaN,-4.281191,8.568867,1.869494,1.156943,0.880909,-0.162076,0.040523,-0.510811,0.458791,0.761570,0.577063,0.148590,-0.254814,70.158285,31.359764,-14.695693
01971,NaN,-4.036722,8.410016,1.893830,1.216992,0.796699,-0.405563,0.018852,-0.551172,0.500191,0.762511,0.576838,0.145021,-0.254568,70.053535,30.987336,-14.933204
01972,NaN,-3.785887,8.259419,1.807139,1.294284,0.819627,-0.676527,-0.004468,-0.549509,0.530307,0.763546,0.576537,0.141399,-0.254182,69.941431,30.598613,-15.161041
01973,NaN,-3.507872,8.035249,1.718962,1.355597,0.820984,-1.019891,-0.009065,-0.524488,0.546612,0.764585,0.576257,0.137830,-0.253655,69.839027,30.205686,-15.367781
01974,NaN,-3.312860,7.868964,1.570084,1.387903,0.906757,-1.291417,-0.003199,-0.446895,0.555693,0.765557,0.576093,0.134522,-0.252870,69.766765,29.822949,-15.522760
01975,NaN,-3.132171,7.788452,1.577601,1.444504,0.859129,-1.438061,0.024898,-0.348009,0.564087,0.766381,0.576163,0.131530,-0.251785,69.743489,29.455179,-15.613716
01976,NaN,-3.123010,7.808386,1.598522,1.411514,0.853386,-1.412776,0.063242,-0.241742,0.562530,0.767017,0.576505,0.128902,-0.250421,69.774336,29.109331,-15.639240
01977,NaN,-3.102338,7.768024,1.731974,1.345732,0.719597,-1.408081,0.095328,-0.154476,0.572823,0.767508,0.577083,0.126536,-0.248785,69.851004,28.775187,-15.609103
01978,NaN,-3.214972,7.689297,1.757068,1.156063,0.706110,-1.403566,0.146891,-0.069851,0.597331,0.767823,0.577973,0.124359,-0.246841,69.983784,28.444492,-15.522389
01979,NaN,-3.145735,7.670127,1.731932,1.155503,0.703951,-1.452358,0.191941,-0.014248,0.598031,0.767964,0.579101,0.122337,-0.244760,70.157917,28.124021,-15.402789
01980,NaN,-3.136464,7.663385,1.744986,1.107596,0.677911,-1.450673,0.212476,0.040203,0.591629,0.767999,0.580362,0.120516,-0.242555,70.357068,27.817255,-15.252868
01981,NaN,-3.122366,7.528286,1.719581,1.003102,0.657916,-1.569998,0.217880,0.072558,0.581775,0.767978,0.581675,0.118840,-0.240296,70.566427,27.521464,-15.087016
01982,NaN,-3.009435,7.361880,1.688598,0.970546,0.612906,-1.763618,0.218759,0.105257,0.576660,0.767922,0.583019,0.117303,-0.237959,70.783018,27.234170,-14.904013
01983,NaN,-2.804722,7.208229,1.586084,1.033755,0.616910,-2.009402,0.221991,0.151728,0.564439,0.767807,0.584420,0.115974,-0.235533,71.012005,26.961484,-14.697055
01984,NaN,-2.688167,7.082954,1.611570,1.027352,0.524656,-2.153656,0.207505,0.212835,0.537137,0.767661,0.585814,0.114976,-0.233023,71.244865,26.714277,-14.460332
01985,NaN,-2.530853,6.906268,1.689084,1.030527,0.363036,-2.345369,0.192086,0.273663,0.519787,0.767495,0.587207,0.114278,-0.230390,71.482666,26.486649,-14.191879
01986,NaN,-2.491723,6.813849,1.762996,0.977238,0.247475,-2.414782,0.191270,0.344606,0.500802,0.767264,0.588659,0.113910,-0.227619,71.735380,26.281253,-13.885775
01987,NaN,-2.507115,6.729301,1.818901,0.884984,0.161214,-2.459578,0.181390,0.381015,0.491263,0.767021,0.590107,0.113717,-0.224770,71.990147,26.086200,-13.561044
01988,NaN,-2.541118,6.593187,1.929625,0.749072,0.015305,-2.526440,0.177074,0.404272,0.483905,0.766763,0.591550,0.113641,-0.221875,72.245917,25.898086,-13.225121
01989,NaN,-2.551979,6.470544,1.941203,0.650302,-0.037911,-2.620722,0.160489,0.414531,0.495175,0.766551,0.592944,0.113586,-0.218895,72.494636,25.704119,-12.882299
01990,NaN,-2.488767,6.414566,1.844160,0.657522,0.012883,-2.719808,0.140172,0.416299,0.514210,0.766412,0.594264,0.113505,-0.215822,72.731576,25.498893,-12.536250
01991,NaN,-2.394556,6.374107,1.740900,0.698817,0.068977,-2.819786,0.115026,0.427687,0.545227,0.766364,0.595514,0.113398,-0.212581,72.958176,25.277180,-12.179067
01992,NaN,-2.307570,6.371923,1.684159,0.746613,0.092129,-2.870307,0.083649,0.446335,0.572463,0.766420,0.596667,0.113316,-0.209159,73.171319,25.042584,-11.807150
01993,NaN,-2.209608,6.329834,1.585037,0.787918,0.148238,-2.970275,0.058046,0.486723,0.610664,0.766557,0.597782,0.113298,-0.205452,73.381318,24.792255,-11.405581
01994,NaN,-2.110102,6.318382,1.472592,0.844208,0.224664,-3.046616,0.043129,0.539033,0.638613,0.766728,0.598896,0.113412,-0.201470,73.595224,24.533934,-10.969190
01995,NaN,-2.097315,6.403391,1.363273,0.863871,0.332567,-3.000665,0.049498,0.607931,0.670207,0.766855,0.600113,0.113685,-0.197161,73.830063,24.267547,-10.487685
01996,NaN,-2.201039,6.473567,1.214104,0.771203,0.493329,-2.928837,0.057720,0.676738,0.707815,0.766942,0.601436,0.114101,-0.192502,74.085787,23.989680,-9.960379
01997,NaN,-2.271109,6.529779,1.068111,0.697697,0.639108,-2.881499,0.077966,0.746381,0.738236,0.766935,0.602908,0.114667,-0.187522,74.369212,23.703393,-9.388549
01998,NaN,-2.346165,6.627742,0.961553,0.630731,0.751907,-2.784700,0.101620,0.810782,0.771957,0.766831,0.604529,0.115356,-0.182228,74.679662,23.405855,-8.775153
01999,NaN,-2.487203,6.721089,0.869024,0.496137,0.854586,-2.661627,0.129013,0.859246,0.801562,0.766617,0.606301,0.116110,-0.176683,75.015422,23.095785,-8.131063
02000,NaN,-2.624382,6.835587,0.808805,0.367511,0.923742,-2.513503,0.159787,0.895434,0.821953,0.766280,0.608209,0.116911,-0.170962,75.373462,22.776391,-7.465459
02001,NaN,-2.825307,7.063929,0.845983,0.218859,0.922507,-2.216780,0.184259,0.909859,0.840413,0.765846,0.610214,0.117684,-0.165134,75.745477,22.444651,-6.792202
02002,NaN,-2.986629,7.189999,0.818123,0.062103,0.952769,-2.042663,0.212015,0.910553,0.858812,0.765313,0.612310,0.118379,-0.159244,76.128929,22.098956,-6.119707
02003,NaN,-3.136764,7.315690,0.818413,-0.089347,0.948859,-1.867904,0.231661,0.886055,0.870951,0.764712,0.614448,0.118919,-0.153387,76.513889,21.738742,-5.464417
02004,NaN,-3.111397,7.435710,0.916531,-0.084256,0.828637,-1.743217,0.260274,0.860237,0.876586,0.764015,0.616651,0.119320,-0.147600,76.903907,21.368159,-4.828021
02005,NaN,-3.083200,7.586117,0.872719,-0.066277,0.850057,-1.621876,0.297925,0.859462,0.874112,0.763168,0.618975,0.119690,-0.141840,77.310262,20.994470,-4.196914
02006,NaN,-3.033642,7.742584,0.964129,-0.026467,0.735572,-1.473755,0.326969,0.874174,0.858819,0.762184,0.621383,0.120141,-0.136106,77.729782,20.627210,-3.563396
02007,NaN,-2.983523,7.983646,1.025777,0.043890,0.661912,-1.253975,0.371387,0.909493,0.848004,0.761000,0.623957,0.120722,-0.130323,78.176802,20.265473,-2.914737
02008,NaN,-2.933903,8.259545,1.033302,0.124038,0.642577,-1.011174,0.400498,0.953283,0.827785,0.759655,0.626627,0.121511,-0.124494,78.642793,19.915586,-2.246856
02009,NaN,-2.931998,8.466047,1.036804,0.134786,0.611555,-0.815317,0.409697,1.001195,0.803906,0.758201,0.629323,0.122543,-0.118604,79.117988,19.578974,-1.557797
02010,NaN,-2.895030,8.577095,1.054510,0.148531,0.544424,-0.716501,0.421599,1.059713,0.768309,0.756620,0.632045,0.123900,-0.112668,79.604630,19.263468,-0.842087
02011,NaN,-2.844749,8.675734,1.012723,0.170791,0.530498,-0.643430,0.422916,1.134670,0.744923,0.754937,0.634772,0.125603,-0.106578,80.101342,18.962619,-0.088495
02012,NaN,-2.825545,8.689533,0.946601,0.137532,0.524302,-0.642450,0.417723,1.200932,0.710872,0.753173,0.637457,0.127665,-0.100398,80.601274,18.681502,0.697207
02013,NaN,-2.692370,8.631002,0.909559,0.195027,0.478004,-0.740577,0.414942,1.272312,0.675576,0.751312,0.640114,0.130099,-0.094116,81.107826,18.419996,1.518082
02014,NaN,-2.648322,8.529274,0.792011,0.153513,0.503470,-0.862171,0.413588,1.346795,0.636088,0.749348,0.642735,0.132936,-0.087738,81.621372,18.180682,2.376278
02015,NaN,-2.600710,8.402291,0.670737,0.111346,0.528405,-1.008150,0.423451,1.424294,0.591270,0.747231,0.645361,0.136191,-0.081279,82.149930,17.965305,3.273314
02016,NaN,-2.458920,8.249997,0.555726,0.155922,0.548534,-1.205028,0.439190,1.512215,0.547032,0.744939,0.648005,0.139905,-0.074708,82.698019,17.774044,4.216256
02017,NaN,-2.446473,8.158898,0.455160,0.100528,0.554853,-1.301435,0.469429,1.603473,0.519864,0.742419,0.650733,0.144022,-0.067958,83.276069,17.595434,5.208526
02018,NaN,-2.416809,8.067302,0.402042,0.070121,0.512727,-1.397493,0.493530,1.697678,0.490220,0.739685,0.653506,0.148569,-0.061023,83.880038,17.430368,6.252277
02019,NaN,-2.404369,8.024392,0.314907,0.035633,0.505646,-1.445289,0.537387,1.783957,0.467189,0.736669,0.656396,0.153480,-0.053918,84.520920,17.272229,7.343130
02020,NaN,-2.470636,7.999353,0.363469,-0.044798,0.352679,-1.440196,0.570611,1.872745,0.458597,0.733405,0.659359,0.158727,-0.046575,85.192134,17.112032,8.483817
02021,NaN,-2.637983,7.996942,0.456258,-0.201459,0.136356,-1.383091,0.619613,1.944700,0.457103,0.729842,0.662451,0.164210,-0.039033,85.900431,16.942371,9.664139
02022,NaN,-2.849324,8.059287,0.625061,-0.360158,-0.166352,-1.250973,0.671158,2.009636,0.463104,0.725977,0.665670,0.169885,-0.031292,86.644599,16.757816,10.880212
02023,NaN,-3.035610,8.183189,0.869416,-0.453381,-0.545640,-1.070215,0.717924,2.061633,0.473072,0.721823,0.668999,0.175685,-0.023378,87.419950,16.553255,12.123566
02024,NaN,-3.185070,8.303875,0.996926,-0.528777,-0.817734,-0.916449,0.774008,2.114745,0.499319,0.717347,0.672470,0.181563,-0.015238,88.230274,16.318781,13.394919
02025,NaN,-3.309536,8.513438,1.134080,-0.548532,-1.097725,-0.690725,0.805439,2.139455,0.524317,0.712646,0.675991,0.187414,-0.006951,89.056458,16.052500,14.675939
02026,NaN,-3.434891,8.603463,1.187112,-0.615938,-1.316964,-0.587089,0.824383,2.151819,0.528287,0.707773,0.679486,0.193274,0.001374,89.887534,15.766674,15.958624
02027,NaN,-3.640447,8.779027,1.240452,-0.729402,-1.559294,-0.384142,0.820645,2.159348,0.520937,0.702804,0.682869,0.199154,0.009703,90.710079,15.466833,17.239362
02028,NaN,-3.778386,8.999217,1.224882,-0.784356,-1.722406,-0.159787,0.798624,2.142859,0.522558,0.697832,0.686079,0.204946,0.018002,91.508672,15.149257,18.504045
02029,NaN,-3.975386,9.209398,1.245047,-0.882642,-1.944605,0.066796,0.764164,2.113914,0.515973,0.692911,0.689075,0.210625,0.026212,92.274869,14.818948,19.744977
02030,NaN,-4.104926,9.362936,1.255690,-0.934185,-2.143231,0.218443,0.718503,2.059307,0.515996,0.688119,0.691827,0.216085,0.034277,92.997691,14.474940,20.947320
02031,NaN,-4.250819,9.462530,1.227863,-1.026379,-2.313917,0.321758,0.669658,1.982615,0.508791,0.683494,0.694337,0.221269,0.042103,93.673070,14.123036,22.098165
02032,NaN,-4.366387,9.519364,1.191656,-1.105338,-2.465762,0.375547,0.620166,1.891388,0.506063,0.679069,0.696614,0.226118,0.049651,94.298511,13.764093,23.189588
02033,NaN,-4.425762,9.512323,1.139426,-1.157393,-2.579677,0.354613,0.582966,1.797626,0.501850,0.674811,0.698715,0.230629,0.056897,94.881972,13.400324,24.220320
02034,NaN,-4.487640,9.453477,1.075617,-1.230372,-2.679945,0.285167,0.558099,1.695858,0.488799,0.670701,0.700682,0.234818,0.063765,95.429912,13.039746,25.186961
02035,NaN,-4.555354,9.418304,1.014325,-1.302749,-2.779778,0.240116,0.540121,1.585693,0.470202,0.666734,0.702546,0.238674,0.070202,95.946687,12.686960,26.085247
02036,NaN,-4.645491,9.380248,0.968840,-1.389533,-2.899193,0.195853,0.532193,1.469401,0.453151,0.662895,0.704353,0.242186,0.076178,96.437975,12.343724,26.912462
02037,NaN,-4.863965,9.366099,0.901388,-1.591840,-3.052975,0.204229,0.538314,1.335627,0.431414,0.659162,0.706164,0.245317,0.081599,96.911191,12.014690,27.659110
02038,NaN,-5.165311,9.440790,0.855456,-1.834782,-3.263883,0.312541,0.545228,1.165834,0.403631,0.655592,0.707994,0.247978,0.086315,97.363577,11.707948,28.305646
02039,NaN,-5.334409,9.511085,0.968490,-1.892863,-3.552106,0.368336,0.547889,0.986496,0.370478,0.652222,0.709843,0.250158,0.090282,97.793372,11.428492,28.847562
02040,NaN,-5.330371,9.643530,1.128188,-1.765183,-3.794230,0.442575,0.550739,0.818690,0.336942,0.649047,0.711711,0.251906,0.093537,98.203248,11.177793,29.292597
02041,NaN,-5.378894,9.796025,1.312210,-1.665749,-4.075261,0.542664,0.546199,0.668568,0.291462,0.646082,0.713561,0.253318,0.096115,98.592462,10.962236,29.652595
02042,NaN,-5.467084,9.844570,1.350138,-1.691500,-4.236657,0.570780,0.550343,0.515842,0.243243,0.643308,0.715423,0.254408,0.097983,98.966680,10.785152,29.927178
02043,NaN,-5.534585,9.962148,1.341890,-1.705945,-4.342948,0.670859,0.542168,0.343162,0.206378,0.640793,0.717286,0.255066,0.099126,99.317348,10.642853,30.104447
02044,NaN,-5.326546,10.217905,1.324366,-1.460235,-4.303620,0.858668,0.511840,0.189570,0.168179,0.638594,0.719073,0.255353,0.099632,99.634564,10.535703,30.196182
02045,NaN,-5.068618,10.488119,1.371933,-1.141030,-4.288077,1.044749,0.456632,0.077644,0.136215,0.636749,0.720693,0.255367,0.099704,99.908668,10.457011,30.226227
02046,NaN,-4.995441,10.682162,1.307753,-1.052025,-4.255523,1.212594,0.417780,-0.002192,0.116549,0.635151,0.722200,0.255177,0.099474,100.152575,10.397259,30.212085
02047,NaN,-4.901721,11.000215,1.373835,-0.856666,-4.327729,1.476944,0.372166,-0.072879,0.097547,0.633816,0.723569,0.254808,0.098987,100.363211,10.355546,30.159212
02048,NaN,-4.740508,11.450900,1.439309,-0.575005,-4.367832,1.860293,0.280557,-0.133361,0.079635,0.632895,0.724653,0.254266,0.098340,100.515648,10.330313,30.073405
02049,NaN,-4.751474,11.676808,1.404860,-0.547413,-4.378957,2.079455,0.147338,-0.216619,0.074879,0.632565,0.725347,0.253412,0.097546,100.583086,10.316772,29.940479
02050,NaN,-4.811659,11.757908,1.200771,-0.685061,-4.241940,2.203090,0.048698,-0.349626,0.087086,0.632752,0.725809,0.252043,0.096432,100.580403,10.310307,29.730017
02051,NaN,-4.926718,11.935278,0.904857,-0.897692,-4.044804,2.450094,-0.026305,-0.482240,0.106830,0.633369,0.726118,0.250147,0.094994,100.520485,10.306696,29.441653
02052,NaN,-5.067391,12.289280,0.649985,-1.080363,-3.893375,2.868069,-0.117061,-0.632963,0.128979,0.634485,0.726234,0.247647,0.093192,100.393038,10.305638,29.064520
02053,NaN,-5.285835,12.649064,0.370800,-1.350054,-3.737332,3.313074,-0.226638,-0.807656,0.131269,0.636207,0.726073,0.244532,0.090897,100.184408,10.320314,28.587199
02054,NaN,-5.635091,12.974201,0.023168,-1.780950,-3.553506,3.762461,-0.322697,-0.990605,0.128283,0.638487,0.725673,0.240794,0.088043,99.902149,10.352707,28.005016
02055,NaN,-5.671579,13.239209,-0.212401,-1.913452,-3.291034,4.079582,-0.413665,-1.160960,0.129094,0.641283,0.725031,0.236465,0.084681,99.549251,10.398254,27.324888
02056,NaN,-5.529800,13.150693,-0.322640,-1.921158,-3.014803,4.001874,-0.496515,-1.253685,0.088478,0.644476,0.724088,0.231937,0.080946,99.139614,10.470638,26.594695
02057,NaN,-5.520463,12.818303,-0.416381,-2.086425,-2.782566,3.709895,-0.555629,-1.300155,-0.005130,0.647948,0.722826,0.227567,0.076807,98.690878,10.595112,25.845649
02058,NaN,-5.348799,12.310138,-0.505047,-2.131635,-2.464858,3.217393,-0.594189,-1.360180,-0.118442,0.651634,0.721299,0.223382,0.072123,98.213677,10.782545,25.070107
02059,NaN,-4.960396,11.674483,-0.499853,-1.957778,-2.133383,2.547042,-0.628792,-1.408400,-0.242000,0.655509,0.719492,0.219463,0.066897,97.709353,11.037798,24.274739
02060,NaN,-4.564703,11.081626,-0.562440,-1.773361,-1.747380,1.924238,-0.626801,-1.415245,-0.388790,0.659388,0.717493,0.216034,0.061159,97.203523,11.369643,23.483247
02061,NaN,-4.234157,10.715028,-0.550409,-1.547098,-1.474344,1.521947,-0.627685,-1.410296,-0.528231,0.663269,0.715287,0.213111,0.054976,96.693357,11.774015,22.700737
02062,NaN,-3.809275,10.319280,-0.525714,-1.220140,-1.186768,1.067370,-0.632671,-1.358534,-0.678744,0.667106,0.712847,0.210878,0.048481,96.182330,12.253446,21.953094
02063,NaN,-3.714992,10.011999,-0.546137,-1.170945,-0.991638,0.769531,-0.633920,-1.258498,-0.832860,0.670838,0.710162,0.209517,0.041826,95.676798,12.808768,21.267639
02064,NaN,-3.681573,9.821508,-0.541986,-1.127365,-0.848344,0.594872,-0.628911,-1.173160,-0.942964,0.674436,0.707319,0.208817,0.035097,95.179230,13.415898,20.631506
02065,NaN,-3.550763,9.734455,-0.458214,-0.934659,-0.751316,0.489623,-0.630067,-1.107183,-1.011367,0.677941,0.704336,0.208571,0.028369,94.681969,14.053932,20.030788
02066,NaN,-3.332137,9.742269,-0.401546,-0.642543,-0.603610,0.453624,-0.649471,-1.078082,-1.037753,0.681439,0.701214,0.208496,0.021673,94.170427,14.700080,19.440747
02067,NaN,-3.152655,9.777606,-0.268509,-0.353745,-0.543305,0.443568,-0.678912,-1.062601,-1.037478,0.684982,0.697938,0.208459,0.015061,93.635261,15.340741,18.852248
02068,NaN,-3.078142,9.809505,-0.242466,-0.196575,-0.415468,0.460922,-0.720799,-1.048717,-1.015329,0.688605,0.694500,0.208372,0.008616,93.070353,15.962258,18.262871
02069,NaN,-3.016754,9.863831,-0.269959,-0.063379,-0.238481,0.502647,-0.759120,-1.029327,-0.984814,0.692299,0.690909,0.208234,0.002383,92.477402,16.560528,17.676065
02070,NaN,-2.944792,9.847349,-0.345318,0.042631,-0.014238,0.471158,-0.811302,-1.012752,-0.942890,0.696106,0.687141,0.207990,-0.003594,91.849714,17.127879,17.089630
02071,NaN,-2.914232,9.847123,-0.511511,0.085396,0.288159,0.464863,-0.875843,-0.972802,-0.885054,0.700055,0.683161,0.207679,-0.009165,91.183330,17.655632,16.518028
02072,NaN,-2.779712,9.783133,-0.609546,0.218025,0.550465,0.358631,-0.938548,-0.917989,-0.820101,0.704116,0.678995,0.207324,-0.014255,90.484409,18.138668,15.970509
02073,NaN,-2.684926,9.688811,-0.697237,0.301302,0.787734,0.229972,-0.991910,-0.826400,-0.754909,0.708232,0.674670,0.207065,-0.018749,89.764939,18.578244,15.470652
02074,NaN,-2.669226,9.525078,-0.799525,0.280572,1.008653,0.056123,-1.033228,-0.712619,-0.700807,0.712332,0.670235,0.207016,-0.022623,89.039070,18.980990,15.032784
02075,NaN,-2.685448,9.277493,-0.828859,0.219170,1.135509,-0.188152,-1.031820,-0.556034,-0.672576,0.716239,0.665814,0.207424,-0.025873,88.339668,19.364900,14.684104
02076,NaN,-2.900907,9.224575,-0.874790,0.029192,1.245633,-0.183594,-1.053681,-0.494912,-0.657505,0.720120,0.661313,0.207990,-0.028841,87.636921,19.736878,14.366983
02077,NaN,-2.998326,9.108492,-0.967052,-0.086370,1.418401,-0.280156,-1.044903,-0.391512,-0.651214,0.723839,0.656832,0.208901,-0.031453,86.956188,20.104871,14.107620
02078,NaN,-3.046400,8.958843,-1.063735,-0.169462,1.595430,-0.426652,-1.025761,-0.301085,-0.652559,0.727367,0.652412,0.210128,-0.033791,86.302901,20.473358,13.898073
02079,NaN,-3.067645,8.865960,-1.073656,-0.186873,1.695729,-0.525226,-0.996017,-0.221944,-0.665113,0.730689,0.648070,0.211675,-0.035947,85.679824,20.850426,13.731555
02080,NaN,-3.175190,8.721327,-1.138346,-0.312652,1.814311,-0.644877,-0.960566,-0.153043,-0.684021,0.733789,0.643833,0.213517,-0.037985,85.089841,21.239350,13.601471
02081,NaN,-3.276685,8.550019,-1.178755,-0.434087,1.898524,-0.788539,-0.911070,-0.103973,-0.695684,0.736655,0.639746,0.215564,-0.039959,84.535831,21.636682,13.496398
02082,NaN,-3.307973,8.423262,-1.163950,-0.461751,1.944641,-0.910262,-0.860203,-0.077052,-0.700615,0.739300,0.635832,0.217705,-0.041919,84.015386,22.036986,13.403170
02083,NaN,-3.344456,8.269800,-1.177340,-0.509852,2.005019,-1.055956,-0.812270,-0.073407,-0.712226,0.741768,0.632059,0.219883,-0.043961,83.520183,22.443790,13.307386
02084,NaN,-3.341490,8.100398,-1.161720,-0.519585,2.035930,-1.226886,-0.749978,-0.082840,-0.713860,0.744025,0.628501,0.222008,-0.046106,83.056849,22.849692,13.201629
02085,NaN,-3.373900,8.016605,-1.108556,-0.520887,2.034316,-1.299891,-0.681196,-0.110175,-0.707650,0.746082,0.625178,0.223994,-0.048390,82.623775,23.249782,13.075772
02086,NaN,-3.367380,8.023869,-1.043808,-0.451511,2.043964,-1.302161,-0.609677,-0.147974,-0.695692,0.747939,0.622116,0.225776,-0.050825,82.221120,23.638923,12.923886
02087,NaN,-3.409255,8.009896,-0.972480,-0.430726,2.028958,-1.302430,-0.539875,-0.210399,-0.671411,0.749644,0.619310,0.227229,-0.053443,81.840880,24.008812,12.732102
02088,NaN,-3.399795,7.948823,-0.996154,-0.408218,2.100673,-1.377358,-0.479491,-0.282770,-0.638828,0.751236,0.616740,0.228287,-0.056229,81.476163,24.352622,12.495094
02089,NaN,-3.331685,7.883076,-1.002846,-0.332769,2.162678,-1.478397,-0.417369,-0.351194,-0.595360,0.752715,0.614420,0.228935,-0.059133,81.128157,24.664975,12.216726
02090,NaN,-3.298102,7.848784,-0.957411,-0.265093,2.171580,-1.529504,-0.361950,-0.425925,-0.547900,0.754110,0.612334,0.229133,-0.062150,80.792369,24.941786,11.893726
02091,NaN,-3.230026,7.755672,-0.959321,-0.205024,2.213593,-1.654165,-0.305793,-0.477159,-0.489173,0.755401,0.610499,0.228941,-0.065168,80.475024,25.179381,11.542434
02092,NaN,-3.138240,7.687888,-0.889973,-0.099840,2.192707,-1.755017,-0.252094,-0.518894,-0.422936,0.756585,0.608924,0.228365,-0.068121,80.178679,25.373403,11.170056
02093,NaN,-3.058754,7.672839,-0.851693,0.001950,2.206738,-1.807443,-0.195394,-0.553173,-0.362802,0.757648,0.607610,0.227457,-0.071017,79.906378,25.528846,10.781295
02094,NaN,-2.921819,7.568567,-0.780557,0.124992,2.170582,-1.957604,-0.139427,-0.564207,-0.304033,0.758564,0.606567,0.226303,-0.073786,79.665017,25.648028,10.391002
02095,NaN,-2.817059,7.560983,-0.734161,0.246351,2.170044,-2.010546,-0.080862,-0.557823,-0.241170,0.759312,0.605811,0.224961,-0.076363,79.460789,25.731492,10.011139
02096,NaN,-2.763457,7.560452,-0.712008,0.314770,2.179255,-2.037354,-0.022327,-0.534632,-0.168190,0.759876,0.605365,0.223459,-0.078657,79.299828,25.774803,9.653796
02097,NaN,-2.695142,7.673287,-0.692376,0.435306,2.214590,-1.968671,0.044164,-0.497678,-0.088095,0.760225,0.605269,0.221831,-0.080609,79.190691,25.776615,9.328922
02098,NaN,-2.754147,7.835671,-0.671999,0.456875,2.236047,-1.798575,0.089177,-0.459182,0.001855,0.760426,0.605459,0.220054,-0.082152,79.122857,25.731114,9.038882
02099,NaN,-2.822413,7.977630,-0.572415,0.474160,2.169598,-1.627074,0.132780,-0.431045,0.093967,0.760498,0.605921,0.218089,-0.083308,79.092636,25.636982,8.777728
02100,NaN,-2.856008,8.116575,-0.529827,0.500002,2.156490,-1.481072,0.164722,-0.415870,0.190470,0.760491,0.606615,0.215872,-0.084084,79.090618,25.489764,8.537891
02101,NaN,-2.808005,8.269177,-0.523638,0.588231,2.187299,-1.362360,0.201552,-0.387797,0.276704,0.760375,0.607549,0.213485,-0.084487,79.122270,25.297473,8.326210
02102,NaN,-2.698019,8.466260,-0.479351,0.750644,2.194346,-1.221533,0.233106,-0.344293,0.358294,0.760145,0.608705,0.210999,-0.084480,79.188569,25.063773,8.151450
02103,NaN,-2.580100,8.682970,-0.542450,0.897929,2.303806,-1.081639,0.257563,-0.277300,0.422581,0.759791,0.610045,0.208562,-0.084051,79.290213,24.801609,8.025874
02104,NaN,-2.359468,8.938986,-0.605041,1.147610,2.428340,-0.945636,0.284959,-0.176052,0.475754,0.759264,0.611582,0.206333,-0.083138,79.436776,24.520135,7.968830
02105,NaN,-2.168593,9.294638,-0.727364,1.390781,2.622465,-0.712672,0.310341,-0.038435,0.523102,0.758530,0.613316,0.204470,-0.081651,79.635172,24.226748,8.001560
02106,NaN,-1.978424,9.665037,-0.819529,1.639933,2.782678,-0.455033,0.328210,0.140952,0.553338,0.757563,0.615217,0.203184,-0.079515,79.889686,23.934178,8.147063
02107,NaN,-1.984745,10.088484,-0.945101,1.717916,2.953423,-0.069201,0.342897,0.349382,0.586370,0.756342,0.617282,0.202578,-0.076628,80.204530,23.643186,8.422803
02108,NaN,-2.001645,10.352746,-0.965181,1.743479,2.975744,0.198415,0.351028,0.552393,0.606484,0.754886,0.619465,0.202671,-0.073044,80.572399,23.358518,8.823160
02109,NaN,-2.101624,10.591044,-0.876747,1.702366,2.866203,0.494680,0.384235,0.726546,0.642967,0.753145,0.621860,0.203291,-0.068817,81.000088,23.066825,9.331332
02110,NaN,-2.261858,11.018618,-0.808018,1.663353,2.793433,0.985823,0.442948,0.875026,0.704042,0.751069,0.624569,0.204254,-0.063954,81.495110,22.749565,9.932818
02111,NaN,-2.681497,11.412970,-0.648059,1.388796,2.564291,1.560993,0.500213,0.965491,0.776875,0.748713,0.627572,0.205302,-0.058591,82.041955,22.393511,10.591726
02112,NaN,-3.176361,11.772082,-0.395141,1.046596,2.203050,2.140423,0.525984,0.982365,0.849855,0.746247,0.630722,0.206167,-0.052926,82.603390,21.991330,11.261445
02113,NaN,-3.588819,11.734759,-0.211097,0.620937,1.826206,2.307804,0.538517,0.935152,0.916330,0.743769,0.633945,0.206633,-0.047172,83.156547,21.542048,11.901114
02114,NaN,-3.704048,11.382850,0.099253,0.391179,1.318237,2.078761,0.545186,0.842269,0.949009,0.741339,0.637171,0.206639,-0.041595,83.686209,21.062418,12.479692
02115,NaN,-3.584732,10.820778,0.317532,0.291494,0.914423,1.550310,0.547044,0.732113,0.929539,0.738977,0.640336,0.206288,-0.036442,84.186137,20.582419,12.983378
02116,NaN,-3.335381,10.208963,0.500718,0.299916,0.578289,0.919176,0.544929,0.634508,0.860903,0.736684,0.643376,0.205788,-0.031851,84.656554,20.132127,13.417721
02117,NaN,-3.077428,9.715194,0.589411,0.345433,0.370517,0.382676,0.565379,0.582012,0.767828,0.734337,0.646369,0.205385,-0.027792,85.121694,19.728972,13.810039
02118,NaN,-2.809917,9.383239,0.636295,0.454498,0.243090,-0.010683,0.587824,0.565738,0.655999,0.731900,0.649306,0.205274,-0.024218,85.590296,19.385924,14.182569
02119,NaN,-2.713136,9.253206,0.710368,0.489806,0.089163,-0.156651,0.611292,0.570921,0.552014,0.729347,0.652208,0.205511,-0.021031,86.069080,19.099614,14.549909
02120,NaN,-2.788421,9.382299,0.740337,0.443218,-0.022247,-0.006905,0.616699,0.573517,0.474197,0.726751,0.655032,0.206006,-0.018125,86.547482,18.855015,14.912654
02121,NaN,-2.800136,9.553774,0.832933,0.490447,-0.172169,0.164206,0.596091,0.536554,0.416157,0.724236,0.657706,0.206554,-0.015529,87.004420,18.639608,15.248471
02122,NaN,-2.786390,9.710880,0.878518,0.546322,-0.268627,0.309855,0.540585,0.459207,0.381015,0.721970,0.660122,0.206938,-0.013257,87.412176,18.439788,15.534438
02123,NaN,-2.609863,9.737221,0.923675,0.712715,-0.332735,0.279834,0.477942,0.363590,0.355542,0.719995,0.662272,0.207062,-0.011327,87.764585,18.250406,15.760356
02124,NaN,-2.290411,9.701636,0.975064,0.992344,-0.363455,0.147300,0.410992,0.284583,0.349167,0.718318,0.664160,0.206924,-0.009613,88.062254,18.061858,15.937156
02125,NaN,-1.956525,9.644784,0.967746,1.261011,-0.326229,-0.010156,0.335375,0.253307,0.337883,0.716916,0.665761,0.206713,-0.007964,88.310173,17.878337,16.093764
02126,NaN,-1.590303,9.517845,0.987316,1.546406,-0.304437,-0.241427,0.266540,0.272076,0.329257,0.715721,0.667099,0.206600,-0.006213,88.520955,17.699528,16.260600
02127,NaN,-1.295473,9.345362,0.950392,1.737973,-0.244215,-0.494050,0.211582,0.339949,0.319192,0.714632,0.668231,0.206763,-0.004214,88.712135,17.526759,16.467234
02128,NaN,-1.056806,9.105630,0.908358,1.859334,-0.194469,-0.792742,0.167293,0.452948,0.305554,0.713570,0.669186,0.207375,-0.001841,88.897089,17.362615,16.740783
02129,NaN,-0.912932,8.864779,0.875245,1.898720,-0.173983,-1.063497,0.141742,0.587772,0.292897,0.712445,0.670033,0.208508,0.000965,89.090726,17.206054,17.094246
02130,NaN,-0.981129,8.668813,0.832997,1.756588,-0.196697,-1.228955,0.125205,0.722058,0.286797,0.711229,0.670804,0.210138,0.004216,89.297116,17.053055,17.527327
02131,NaN,-1.272246,8.465409,0.824209,1.421443,-0.317005,-1.336838,0.112596,0.819507,0.286964,0.709938,0.671518,0.212109,0.007808,89.512214,16.898800,18.017790
02132,NaN,-1.564764,8.289229,0.776579,1.082253,-0.402741,-1.420469,0.117286,0.875907,0.303905,0.708558,0.672249,0.214220,0.011644,89.737900,16.733466,18.541085
02133,NaN,-1.808618,8.202869,0.735758,0.814163,-0.477671,-1.433644,0.129892,0.899520,0.327534,0.707092,0.673036,0.216330,0.015630,89.973261,16.552356,19.077309
02134,NaN,-1.933585,8.097687,0.675327,0.641609,-0.504002,-1.499953,0.141741,0.900582,0.355434,0.705568,0.673877,0.218347,0.019704,90.213257,16.353387,19.612878
02135,NaN,-1.957952,8.018347,0.632087,0.571431,-0.515443,-1.570440,0.162578,0.904098,0.377306,0.703949,0.674801,0.220298,0.023845,90.463718,16.139398,20.148952
02136,NaN,-2.072378,7.942603,0.584865,0.419377,-0.556023,-1.612897,0.197095,0.916852,0.389975,0.702182,0.675839,0.222251,0.028034,90.733404,15.916020,20.691001
02137,NaN,-2.127933,7.882535,0.581989,0.340533,-0.620856,-1.657961,0.214283,0.925613,0.396784,0.700327,0.676929,0.224207,0.032258,91.012001,15.685881,21.236415
02138,NaN,-2.127316,7.885580,0.502798,0.302441,-0.592224,-1.656815,0.233820,0.977149,0.390029,0.698330,0.678051,0.226365,0.036609,91.307255,15.456682,21.810803
02139,NaN,-2.183666,8.080994,0.679631,0.360600,-0.810262,-1.461280,0.254423,1.117279,0.331357,0.696093,0.679133,0.229206,0.041207,91.634178,15.255726,22.467360
02140,NaN,-2.702110,8.371740,0.755628,0.002394,-1.105123,-1.052733,0.275803,1.234484,0.309986,0.693627,0.680212,0.232525,0.046101,91.988804,15.061423,23.192056
02141,NaN,-3.260770,8.453033,0.674594,-0.500489,-1.299904,-0.834889,0.296778,1.096103,0.343017,0.691216,0.681409,0.235245,0.050614,92.331223,14.846648,23.832009
02142,NaN,-3.166773,8.656659,0.604437,-0.395006,-1.249559,-0.668631,0.297021,0.932561,0.379982,0.688966,0.682670,0.237269,0.054694,92.645879,14.611539,24.372335
02143,NaN,-2.866577,8.783750,0.666298,-0.079687,-1.239249,-0.632649,0.277209,0.904486,0.395440,0.686793,0.683871,0.239130,0.058756,92.942337,14.365312,24.893665
02144,NaN,-3.013261,9.014790,0.729886,-0.131640,-1.403292,-0.384429,0.278765,0.904226,0.381861,0.684602,0.685043,0.241033,0.062765,93.237058,14.124533,25.413452
02145,NaN,-3.479966,9.100465,0.674252,-0.547511,-1.602976,-0.194287,0.264758,0.817078,0.367115,0.682553,0.686160,0.242676,0.066441,93.508977,13.892386,25.880547
02146,NaN,-3.531482,9.169065,0.546988,-0.636065,-1.563831,-0.117745,0.234868,0.672120,0.356268,0.680773,0.687197,0.243848,0.069618,93.741331,13.669953,26.261246
02147,NaN,-3.360098,9.135382,0.496634,-0.525791,-1.496614,-0.196263,0.190227,0.568632,0.340710,0.679268,0.688090,0.244702,0.072440,93.932299,13.458804,26.580453
02148,NaN,-3.282668,9.048241,0.314654,-0.567902,-1.346874,-0.293820,0.166879,0.537220,0.303624,0.677889,0.688862,0.245567,0.075055,94.104669,13.269343,26.881829
02149,NaN,-3.347865,8.992407,0.308536,-0.646633,-1.411502,-0.338713,0.142722,0.542971,0.223773,0.676609,0.689445,0.246713,0.077449,94.263686,13.124247,27.189200
02150,NaN,-3.370448,9.019456,0.319924,-0.654030,-1.465472,-0.313350,0.122087,0.581714,0.136580,0.675380,0.689830,0.248282,0.079705,94.416171,13.026650,27.522656
02151,NaN,-3.466216,8.859556,0.363453,-0.746496,-1.584796,-0.454826,0.118171,0.625579,0.060930,0.674134,0.690083,0.250256,0.081862,94.572389,12.969283,27.884909
02152,NaN,-3.525489,8.700165,0.328521,-0.834266,-1.616193,-0.597391,0.130581,0.662384,-0.022799,0.672825,0.690251,0.252646,0.083847,94.741256,12.957155,28.272535
02153,NaN,-3.636108,8.586149,0.384222,-0.905232,-1.749563,-0.690719,0.159841,0.690656,-0.112954,0.671411,0.690382,0.255450,0.085588,94.931582,12.993861,28.681156
02154,NaN,-3.808289,8.459008,0.434780,-1.024957,-1.907390,-0.781738,0.182093,0.693845,-0.189001,0.669938,0.690481,0.258534,0.087055,95.136521,13.072524,29.095809
02155,NaN,-3.958583,8.411471,0.509936,-1.087966,-2.074124,-0.801729,0.215667,0.659936,-0.243242,0.668409,0.690627,0.261703,0.088179,95.357468,13.182381,29.493967
02156,NaN,-3.965275,8.342361,0.602911,-1.021416,-2.187487,-0.876621,0.237520,0.590469,-0.272197,0.666898,0.690831,0.264747,0.088937,95.583080,13.311063,29.853681
02157,NaN,-4.041303,8.385768,0.707316,-0.978928,-2.338680,-0.827945,0.257837,0.500284,-0.280488,0.665434,0.691122,0.267524,0.089327,95.809000,13.448260,30.161755
02158,NaN,-4.082848,8.484518,0.789240,-0.905139,-2.450322,-0.732155,0.277775,0.380800,-0.258343,0.664044,0.691558,0.269834,0.089351,96.030724,13.578685,30.399160
02159,NaN,-4.050471,8.655353,0.939002,-0.721894,-2.580868,-0.592003,0.287373,0.245660,-0.224885,0.662785,0.692125,0.271582,0.089005,96.239173,13.697567,30.555890
02160,NaN,-3.990174,8.879341,1.047031,-0.526843,-2.657281,-0.404093,0.279154,0.102911,-0.190079,0.661729,0.692775,0.272732,0.088291,96.423147,13.805016,30.627134
02161,NaN,-3.998092,9.034386,1.096539,-0.441190,-2.714722,-0.260575,0.257449,-0.039725,-0.160083,0.660930,0.693452,0.273297,0.087211,96.574071,13.904611,30.613136
02162,NaN,-3.873541,9.164567,1.130802,-0.265035,-2.689635,-0.170700,0.227615,-0.173018,-0.142961,0.660404,0.694112,0.273346,0.085766,96.689121,14.003137,30.519996
02163,NaN,-3.531096,9.270003,1.220105,0.107912,-2.601576,-0.163315,0.185478,-0.243304,-0.127635,0.660115,0.694680,0.273093,0.084186,96.769245,14.098047,30.384753
02164,NaN,-3.127382,9.462570,1.296813,0.547409,-2.468931,-0.086065,0.141851,-0.208617,-0.133653,0.659929,0.695082,0.272955,0.082765,96.829643,14.193957,30.270295
02165,NaN,-2.933117,9.651630,1.273489,0.764699,-2.350586,0.049811,0.098263,-0.098862,-0.143616,0.659750,0.695276,0.273197,0.081752,96.880431,14.288402,30.221059
02166,NaN,-3.071069,9.799500,1.046320,0.598781,-2.217514,0.251134,0.093648,0.001128,-0.143821,0.659448,0.695417,0.273766,0.081093,96.943534,14.375850,30.230559
02167,NaN,-3.408003,10.200820,0.767770,0.314146,-2.135317,0.751515,0.141863,0.028905,-0.126238,0.658935,0.695725,0.274386,0.080522,97.037485,14.451637,30.255286
02168,NaN,-3.579418,10.951091,0.371541,0.209317,-1.869472,1.559995,0.172254,0.019879,-0.075439,0.658304,0.696210,0.274810,0.080045,97.147225,14.498849,30.271091
02169,NaN,-3.644250,11.821751,0.176059,0.317859,-1.729689,2.433637,0.146157,0.006169,0.003323,0.657755,0.696717,0.274905,0.079815,97.237928,14.502561,30.273156
02170,NaN,-3.882198,12.898100,0.128997,0.397577,-1.802917,3.530494,0.087282,-0.043377,0.104343,0.657434,0.697194,0.274461,0.079826,97.286375,14.452128,30.238527
02171,NaN,-4.144114,13.816528,0.061884,0.383276,-1.872600,4.484876,0.010369,-0.135663,0.242354,0.657457,0.697638,0.273202,0.080074,97.274073,14.330305,30.139462
02172,NaN,-4.156710,14.044563,0.082117,0.399943,-1.905436,4.704329,-0.071698,-0.242554,0.401426,0.657842,0.698075,0.271002,0.080585,97.197451,14.125370,29.965984
02173,NaN,-4.503162,13.689197,-0.023937,-0.102703,-1.996506,4.458827,-0.064192,-0.317389,0.485540,0.658268,0.698670,0.268265,0.081100,97.113031,13.878075,29.743011
02174,NaN,-5.345447,13.403205,-0.002616,-0.949812,-2.433125,4.378756,-0.042046,-0.427541,0.462268,0.658763,0.699351,0.265252,0.081123,97.028169,13.651107,29.457779
02175,NaN,-5.961208,12.799430,-0.141902,-1.763781,-2.604043,3.952818,-0.075581,-0.635840,0.390671,0.659678,0.699897,0.261788,0.080225,96.896996,13.479206,29.056564
02176,NaN,-5.861933,11.746585,-0.175478,-2.033835,-2.506909,2.913418,-0.107967,-0.870136,0.309493,0.661029,0.700317,0.257816,0.078281,96.718737,13.367947,28.524611
02177,NaN,-5.410205,10.952669,-0.260794,-1.944231,-2.183032,2.051260,-0.081784,-1.025476,0.191778,0.662524,0.700709,0.253749,0.075368,96.536231,13.332820,27.910425
02178,NaN,-5.099037,10.549991,-0.371200,-1.865236,-1.894596,1.605341,-0.044062,-1.126238,0.057538,0.664040,0.701080,0.249822,0.071607,96.364637,13.378267,27.246154
02179,NaN,-4.845725,10.289180,-0.413728,-1.750332,-1.687619,1.305198,-0.027553,-1.208426,-0.097201,0.665639,0.701310,0.246166,0.067021,96.191558,13.515617,26.543455
02180,NaN,-4.629716,10.065193,-0.484713,-1.652811,-1.465756,1.054542,-0.037144,-1.295552,-0.240997,0.667394,0.701339,0.242708,0.061661,96.001649,13.737458,25.797592
02181,NaN,-4.396584,10.018465,-0.551533,-1.479183,-1.232398,0.971395,-0.065790,-1.397285,-0.336669,0.669377,0.701147,0.239228,0.055655,95.777832,14.017818,24.996301
02182,NaN,-4.237109,10.186746,-0.569449,-1.285709,-1.065680,1.107832,-0.104545,-1.518343,-0.390583,0.671611,0.700761,0.235505,0.049088,95.511550,14.331785,24.124563
02183,NaN,-3.998046,10.489813,-0.688786,-1.018256,-0.765897,1.361870,-0.149161,-1.609369,-0.426077,0.674080,0.700152,0.231577,0.042132,95.200217,14.667268,23.198382
02184,NaN,-3.931426,10.790085,-0.740238,-0.871546,-0.588238,1.646954,-0.208141,-1.692055,-0.447082,0.676798,0.699294,0.227411,0.034882,94.837688,15.012943,22.220886
02185,NaN,-4.028606,10.981779,-0.780462,-0.893933,-0.469598,1.867096,-0.291268,-1.818446,-0.450260,0.679902,0.698105,0.222799,0.027269,94.400120,15.360332,21.164789
02186,NaN,-4.069139,11.115147,-0.770320,-0.866077,-0.361658,2.011664,-0.375411,-1.977412,-0.436428,0.683400,0.696607,0.217560,0.019241,93.882676,15.697217,20.009013
02187,NaN,-4.047713,11.186911,-0.799257,-0.817172,-0.180912,2.081316,-0.484874,-2.130901,-0.389546,0.687371,0.694713,0.211602,0.010954,93.268334,16.002431,18.755120
02188,NaN,-3.760259,11.097477,-0.872502,-0.588383,0.129423,1.921441,-0.580202,-2.218049,-0.353932,0.691667,0.692452,0.205185,0.002588,92.578186,16.275392,17.442801
02189,NaN,-3.604959,11.008716,-0.915562,-0.470602,0.371876,1.791787,-0.661850,-2.227971,-0.325028,0.696169,0.689835,0.198608,-0.005631,91.831131,16.516837,16.118781
02190,NaN,-3.345142,10.874393,-0.998733,-0.278314,0.676875,1.584768,-0.742138,-2.195795,-0.315876,0.700813,0.686863,0.192082,-0.013624,91.038212,16.734839,14.808956
02191,NaN,-3.180160,10.773822,-0.993630,-0.137374,0.870230,1.429976,-0.824019,-2.125943,-0.324964,0.705583,0.683499,0.185816,-0.021331,90.203391,16.940370,13.536496
02192,NaN,-2.937520,10.570802,-1.005736,0.046468,1.086701,1.150752,-0.909278,-2.013305,-0.358100,0.710438,0.679735,0.180041,-0.028686,89.334970,17.146414,12.326969
02193,NaN,-2.712073,10.418333,-1.027376,0.232619,1.303791,0.920266,-0.976451,-1.840600,-0.402207,0.715282,0.675629,0.175022,-0.035548,88.451889,17.362490,11.216029
02194,NaN,-2.462571,10.274453,-0.989818,0.462539,1.457138,0.688222,-1.026265,-1.605670,-0.469929,0.719996,0.671265,0.171059,-0.041811,87.577710,17.605158,10.239961
02195,NaN,-2.367680,10.092113,-0.954959,0.541240,1.571751,0.463658,-1.068865,-1.342744,-0.529640,0.724558,0.666684,0.168240,-0.047366,86.719862,17.875884,9.414962
02196,NaN,-2.300751,10.007243,-0.958386,0.619655,1.721123,0.336633,-1.094791,-1.090545,-0.592265,0.728919,0.661974,0.166533,-0.052282,85.888850,18.179624,8.733728
02197,NaN,-2.235010,9.855880,-1.060901,0.665364,1.953151,0.137177,-1.123121,-0.838908,-0.660738,0.733106,0.657121,0.165970,-0.056588,85.081697,18.524971,8.194891
02198,NaN,-2.127306,9.661704,-1.071906,0.757369,2.086922,-0.112566,-1.144362,-0.588194,-0.724087,0.737089,0.652177,0.166528,-0.060281,84.305552,18.912202,7.797401
02199,NaN,-2.111379,9.474609,-1.143700,0.757904,2.260246,-0.333795,-1.155608,-0.344987,-0.790270,0.740852,0.647169,0.168195,-0.063413,83.563832,19.347234,7.535938
02200,NaN,-2.175873,9.304987,-1.117664,0.706995,2.321571,-0.502731,-1.157879,-0.122945,-0.847356,0.744374,0.642148,0.170858,-0.066032,82.861250,19.826241,7.397955
02201,NaN,-2.338484,9.166075,-1.181212,0.560970,2.456822,-0.618747,-1.166550,0.054880,-0.902679,0.747720,0.637066,0.174357,-0.068275,82.184805,20.348682,7.356538
02202,NaN,-2.468697,9.041939,-1.284159,0.444218,2.630995,-0.736383,-1.172178,0.191491,-0.945513,0.750903,0.631943,0.178493,-0.070234,81.531237,20.905670,7.387622
02203,NaN,-2.550013,8.825075,-1.355255,0.347076,2.755768,-0.952372,-1.168472,0.291285,-0.972017,0.753936,0.626803,0.183078,-0.071978,80.897864,21.487006,7.470177
02204,NaN,-2.571067,8.563540,-1.512530,0.270797,2.953144,-1.243162,-1.155259,0.377788,-0.983892,0.756795,0.621701,0.188008,-0.073502,80.290404,22.083638,7.597801
02205,NaN,-2.616955,8.277551,-1.579016,0.174867,3.043313,-1.532214,-1.124130,0.436161,-0.984707,0.759459,0.616695,0.193141,-0.074873,79.712479,22.688025,7.754758
02206,NaN,-2.622493,7.998988,-1.620356,0.117854,3.104088,-1.822899,-1.076817,0.476329,-0.970250,0.761896,0.611866,0.198351,-0.076106,79.171931,23.289580,7.932283
02207,NaN,-2.710545,7.765686,-1.663820,-0.003889,3.155886,-2.037029,-1.014756,0.486643,-0.946796,0.764102,0.607262,0.203495,-0.077276,78.669614,23.880823,8.113707
02208,NaN,-2.793041,7.566008,-1.622877,-0.094150,3.124949,-2.203186,-0.933525,0.468227,-0.907646,0.766053,0.602974,0.208406,-0.078431,78.211616,24.449072,8.284171
02209,NaN,-2.894521,7.370090,-1.538195,-0.193072,3.040606,-2.344121,-0.826633,0.414526,-0.853711,0.767728,0.599101,0.212900,-0.079650,77.803312,24.982123,8.424529
02210,NaN,-2.937809,7.273933,-1.457969,-0.205485,2.985872,-2.416171,-0.707859,0.319250,-0.786455,0.769147,0.595701,0.216771,-0.081018,77.442004,25.466416,8.511755
02211,NaN,-3.045977,7.244256,-1.334781,-0.242409,2.892863,-2.389000,-0.573321,0.193218,-0.698742,0.770318,0.592844,0.219836,-0.082570,77.128278,25.886503,8.530219
02212,NaN,-3.079549,7.279945,-1.254025,-0.200005,2.863279,-2.341732,-0.451802,0.031396,-0.608315,0.771330,0.590479,0.221955,-0.084384,76.845121,26.235059,8.458775
02213,NaN,-3.150009,7.332942,-1.207832,-0.195317,2.863265,-2.268365,-0.342985,-0.146704,-0.506571,0.772252,0.588563,0.223040,-0.086452,76.580244,26.503363,8.289371
02214,NaN,-3.110852,7.414028,-1.192196,-0.094212,2.911639,-2.224548,-0.239289,-0.314050,-0.404159,0.773092,0.587086,0.223128,-0.088731,76.333858,26.691242,8.029433
02215,NaN,-3.018733,7.489397,-1.056413,0.074954,2.847522,-2.183421,-0.158181,-0.447002,-0.295412,0.773884,0.585979,0.222348,-0.091070,76.102898,26.799726,7.702062
02216,NaN,-2.830301,7.575788,-0.904576,0.330635,2.778073,-2.171068,-0.088968,-0.527397,-0.192238,0.774604,0.585214,0.220919,-0.093322,75.895645,26.838353,7.339958
02217,NaN,-2.613784,7.613255,-0.735903,0.588676,2.674066,-2.207566,-0.018249,-0.551325,-0.104695,0.775177,0.584803,0.219108,-0.095382,75.728286,26.824146,6.976583
02218,NaN,-2.430868,7.660678,-0.572256,0.813730,2.565374,-2.218000,0.050778,-0.526346,-0.028367,0.775552,0.584752,0.217134,-0.097148,75.613179,26.770098,6.640994
02219,NaN,-2.434226,7.776666,-0.484568,0.879275,2.521334,-2.098638,0.120050,-0.482194,0.034964,0.775701,0.585056,0.215112,-0.098614,75.555283,26.686925,6.343291
02220,NaN,-2.357508,7.891675,-0.370618,1.016655,2.452484,-2.007211,0.179456,-0.416923,0.099527,0.775634,0.585687,0.213124,-0.099701,75.554652,26.576950,6.096678
02221,NaN,-2.281287,8.078581,-0.334557,1.161652,2.471719,-1.867826,0.215633,-0.355467,0.149524,0.775415,0.586542,0.211208,-0.100454,75.596127,26.448205,5.896426
02222,NaN,-2.328427,8.250129,-0.249784,1.196751,2.423227,-1.673626,0.234947,-0.279741,0.200022,0.775083,0.587558,0.209427,-0.100807,75.673288,26.302259,5.751128
02223,NaN,-2.333754,8.477526,-0.210452,1.277199,2.433229,-1.457615,0.249042,-0.200439,0.256122,0.774649,0.588727,0.207780,-0.100725,75.784793,26.136643,5.663754
02224,NaN,-2.350106,8.639657,-0.047533,1.341346,2.301539,-1.264439,0.243866,-0.117474,0.308288,0.774170,0.589968,0.206303,-0.100191,75.919194,25.953766,5.635470
02225,NaN,-2.409031,8.787809,0.093406,1.351902,2.179696,-1.068609,0.238555,-0.027604,0.355608,0.773631,0.591282,0.205036,-0.099202,76.078282,25.757108,5.669613
02226,NaN,-2.434181,8.872775,0.216749,1.358732,2.057479,-0.945962,0.220026,0.038346,0.409138,0.773104,0.592606,0.203874,-0.097792,76.247025,25.539618,5.751817
02227,NaN,-2.370998,8.903380,0.270209,1.404684,1.993053,-0.923411,0.210834,0.120270,0.457587,0.772538,0.593985,0.202887,-0.095942,76.435169,25.305943,5.890976
02228,NaN,-2.351508,8.919486,0.302363,1.397022,1.938669,-0.898210,0.210675,0.208888,0.519332,0.771908,0.595459,0.202059,-0.093589,76.648710,25.049305,6.092511
02229,NaN,-2.187725,9.060200,0.284874,1.553118,1.976561,-0.832973,0.214449,0.317293,0.564713,0.771168,0.597043,0.201509,-0.090741,76.894402,24.780703,6.365812
02230,NaN,-1.973152,9.245378,0.150530,1.743872,2.141314,-0.770213,0.204484,0.450634,0.611142,0.770337,0.598684,0.201337,-0.087304,77.168643,24.502338,6.725541
02231,NaN,-1.792102,9.445941,-0.016464,1.897020,2.335490,-0.681200,0.209216,0.620068,0.672640,0.769331,0.600472,0.201627,-0.083127,77.490064,24.208967,7.195418
02232,NaN,-1.676550,9.758739,-0.231323,2.012899,2.594007,-0.468379,0.210047,0.827446,0.749750,0.768128,0.602407,0.202478,-0.078029,77.863740,23.895425,7.799558
02233,NaN,-1.767923,10.199814,-0.334555,1.998312,2.746613,-0.028224,0.214240,1.037152,0.839883,0.766701,0.604513,0.203852,-0.071954,78.292231,23.551982,8.539926
02234,NaN,-1.853718,10.432160,-0.473597,1.890775,2.869441,0.221292,0.211403,1.225455,0.924453,0.765086,0.606725,0.205684,-0.064979,78.761907,23.177547,9.400895
02235,NaN,-2.121913,10.571291,-0.505788,1.597257,2.826936,0.481311,0.218137,1.392720,1.003782,0.763248,0.609065,0.207897,-0.057195,79.272156,22.769538,10.367532
02236,NaN,-2.510223,10.667096,-0.533909,1.171943,2.731541,0.748412,0.243096,1.516178,1.070924,0.761168,0.611549,0.210356,-0.048802,79.818251,22.328810,11.409841
02237,NaN,-2.844699,10.681619,-0.420387,0.800576,2.469374,0.940239,0.264992,1.613573,1.114764,0.758854,0.614138,0.213022,-0.039960,80.391303,21.862965,12.508150
02238,NaN,-3.098808,10.543554,-0.279682,0.463969,2.143009,0.959391,0.293323,1.672656,1.127036,0.756322,0.616789,0.215852,-0.030919,80.981666,21.385931,13.634774
02239,NaN,-3.299228,10.331903,-0.163090,0.156326,1.820792,0.879275,0.328741,1.708749,1.108505,0.753554,0.619504,0.218843,-0.021869,81.588693,20.910940,14.772594
02240,NaN,-3.362519,10.029955,-0.129365,-0.065913,1.580781,0.647629,0.361607,1.741495,1.060097,0.750569,0.622220,0.222085,-0.012936,82.207203,20.455399,15.917010
02241,NaN,-3.443445,9.806492,-0.105738,-0.269731,1.360403,0.488311,0.395148,1.770996,1.005405,0.747357,0.624945,0.225577,-0.004150,82.839388,20.020739,17.066310
02242,NaN,-3.525989,9.662835,-0.073066,-0.435540,1.145320,0.400301,0.424933,1.804592,0.944403,0.743938,0.627637,0.229365,0.004477,83.482156,19.611835,18.223172
02243,NaN,-3.626393,9.543815,-0.044704,-0.600167,0.930170,0.336697,0.452550,1.821107,0.902030,0.740328,0.630324,0.233319,0.012970,84.134001,19.215043,19.379394
02244,NaN,-3.796057,9.501505,0.066748,-0.764951,0.627816,0.371226,0.479757,1.800364,0.869371,0.736587,0.632999,0.237280,0.021240,84.785613,18.824127,20.513557
02245,NaN,-3.988752,9.607069,0.225914,-0.883232,0.296323,0.550094,0.514443,1.734085,0.871531,0.732731,0.635755,0.240965,0.029268,85.435663,18.415785,21.600464
02246,NaN,-4.254575,9.694270,0.445965,-1.040950,-0.127483,0.731384,0.544806,1.608418,0.891056,0.728864,0.638594,0.244113,0.036926,86.068681,17.980250,22.605115
02247,NaN,-4.418870,9.771107,0.629396,-1.122962,-0.488656,0.859490,0.578910,1.423590,0.919645,0.725039,0.641581,0.246477,0.044055,86.679018,17.510539,23.492289
02248,NaN,-4.521839,9.888008,0.943115,-1.087089,-0.938060,1.006076,0.606504,1.186541,0.942838,0.721366,0.644693,0.247900,0.050469,87.252736,17.012470,24.230700
02249,NaN,-4.473231,10.013152,1.070404,-0.998935,-1.153831,1.100051,0.622500,0.911036,0.968467,0.717927,0.647934,0.248232,0.056066,87.781096,16.485361,24.798007
02250,NaN,-4.240360,10.035106,1.176146,-0.791272,-1.282751,1.040618,0.615969,0.660667,0.961135,0.714794,0.651172,0.247679,0.060830,88.256060,15.953531,25.209508
02251,NaN,-3.717615,9.949561,1.207192,-0.391854,-1.228149,0.799030,0.602504,0.517747,0.925938,0.711857,0.654344,0.246712,0.065018,88.696093,15.435814,25.529886
02252,NaN,-2.961056,9.877896,1.345360,0.264785,-1.155461,0.519033,0.570700,0.535685,0.855319,0.709006,0.657278,0.246025,0.069049,89.115494,14.957179,25.855354
02253,NaN,-2.370232,9.665868,1.358011,0.701772,-1.042981,0.152758,0.562917,0.705976,0.743122,0.705980,0.659974,0.246295,0.073251,89.553338,14.540903,26.276491
02254,NaN,-2.016024,9.525301,1.312084,0.940370,-0.957943,-0.080542,0.573414,0.995488,0.596730,0.702595,0.662388,0.248068,0.077873,90.034936,14.206560,26.864439
02255,NaN,-1.757124,9.362897,1.275978,1.115231,-0.916642,-0.310325,0.590758,1.381805,0.446789,0.698691,0.664499,0.251685,0.083225,90.579135,13.951102,27.677104
02256,NaN,-1.892892,9.347211,1.209104,0.989170,-1.004324,-0.303350,0.606825,1.801752,0.289027,0.694222,0.666235,0.257285,0.089393,91.187561,13.775149,28.735641
02257,NaN,-2.376120,9.414853,1.158308,0.616406,-1.265883,-0.135720,0.584891,2.159202,0.148423,0.689348,0.667488,0.264551,0.096284,91.831513,13.662308,30.004317
02258,NaN,-3.109983,9.435194,1.076084,0.033352,-1.643036,0.043824,0.545140,2.377274,0.036340,0.684284,0.668253,0.272892,0.103553,92.480368,13.595847,31.402185
02259,NaN,-3.946662,9.412640,1.106186,-0.561943,-2.196063,0.200176,0.460679,2.412181,-0.016693,0.679374,0.668545,0.281441,0.110860,93.085027,13.543089,32.820834
02260,NaN,-4.521863,9.339698,1.096289,-0.956795,-2.599076,0.247470,0.362469,2.282132,-0.036679,0.674895,0.668445,0.289524,0.117785,93.613531,13.493301,34.162868
02261,NaN,-5.029335,9.153916,1.067650,-1.328928,-2.963633,0.171185,0.276614,2.029701,-0.023902,0.670976,0.668149,0.296624,0.124022,94.057343,13.434053,35.355120
02262,NaN,-5.163237,9.012113,1.001483,-1.422881,-3.080857,0.054579,0.199716,1.704613,0.015100,0.667717,0.667790,0.302433,0.129404,94.410316,13.358970,36.354049
02263,NaN,-5.117936,8.831041,0.987164,-1.374226,-3.126098,-0.143482,0.115527,1.362067,0.060892,0.665183,0.667404,0.306870,0.133916,94.667164,13.267447,37.148933
02264,NaN,-4.960911,8.595469,0.975055,-1.270609,-3.093647,-0.418109,0.045523,1.035717,0.101155,0.663336,0.667037,0.310032,0.137575,94.837738,13.166190,37.749862
02265,NaN,-4.845172,8.373744,0.921409,-1.238708,-3.036296,-0.664427,0.020621,0.723170,0.133253,0.662018,0.666843,0.312025,0.140334,94.951342,13.059917,38.165394
02266,NaN,-4.562965,8.175042,0.738310,-1.166386,-2.764254,-0.913506,0.028119,0.468330,0.171337,0.661042,0.666901,0.313051,0.142356,95.033944,12.944441,38.429389
02267,NaN,-4.349500,8.091956,0.651400,-1.073386,-2.594606,-1.041254,0.034615,0.248081,0.180539,0.660378,0.667152,0.313321,0.143663,95.091156,12.834141,38.563639
02268,NaN,-4.265838,8.131814,0.544942,-1.070019,-2.472668,-1.017138,0.027659,0.055222,0.165782,0.660051,0.667492,0.312999,0.144289,95.118985,12.742393,38.585714
02269,NaN,-3.950456,8.090659,0.496002,-0.877817,-2.254802,-1.126136,0.027322,-0.087506,0.152860,0.659956,0.667915,0.312248,0.144396,95.128631,12.665032,38.524899
02270,NaN,-3.606544,8.151475,0.431810,-0.650597,-1.997810,-1.139416,0.052708,-0.163457,0.132418,0.659910,0.668441,0.311333,0.144142,95.143151,12.603528,38.420777
02271,NaN,-3.428996,8.255390,0.353935,-0.546592,-1.827694,-1.072235,0.075605,-0.190621,0.101095,0.659850,0.669015,0.310449,0.143658,95.167988,12.561140,38.302402
02272,NaN,-3.210751,8.395065,0.360068,-0.348814,-1.697228,-0.985829,0.090606,-0.173974,0.061338,0.659744,0.669562,0.309765,0.143075,95.203849,12.540828,38.195882
02273,NaN,-2.919565,8.469914,0.323450,-0.130257,-1.493923,-0.974184,0.114440,-0.110106,0.024685,0.659483,0.670086,0.309429,0.142548,95.262067,12.538056,38.128630
02274,NaN,-2.918534,8.664937,0.243168,-0.127178,-1.425307,-0.778839,0.141510,-0.018345,-0.016664,0.659020,0.670568,0.309555,0.142150,95.347772,12.554216,38.117262
02275,NaN,-3.045781,8.888283,0.188373,-0.195075,-1.453731,-0.530315,0.154055,0.030597,-0.054378,0.658465,0.670999,0.309976,0.141772,95.447444,12.589195,38.136597
02276,NaN,-3.079488,8.983930,0.221350,-0.164168,-1.502787,-0.434100,0.146034,0.050530,-0.078888,0.657923,0.671350,0.310540,0.141393,95.545293,12.637101,38.169033
02277,NaN,-3.075125,8.909412,0.211834,-0.167043,-1.503218,-0.507243,0.135503,0.042335,-0.104971,0.657446,0.671631,0.311157,0.140916,95.636483,12.700261,38.198258
02278,NaN,-3.019565,8.767002,0.172179,-0.164001,-1.450154,-0.654201,0.120208,0.026230,-0.125433,0.657061,0.671840,0.311778,0.140342,95.717106,12.775981,38.219364
02279,NaN,-3.028781,8.615524,0.177335,-0.185911,-1.470133,-0.799567,0.112514,0.017073,-0.142569,0.656727,0.672004,0.312422,0.139692,95.792407,12.861996,38.236243
02280,NaN,-3.004731,8.368674,0.160385,-0.218127,-1.456089,-1.042224,0.101694,0.004426,-0.162222,0.656462,0.672109,0.313081,0.138953,95.860174,12.959900,38.247011
02281,NaN,-2.966965,8.153592,0.213581,-0.190833,-1.486355,-1.263777,0.103834,-0.015914,-0.170878,0.656227,0.672220,0.313705,0.138113,95.926597,13.064000,38.246536
02282,NaN,-2.944135,7.983690,0.240268,-0.180166,-1.501729,-1.435499,0.117561,-0.027549,-0.179926,0.655970,0.672370,0.314330,0.137182,95.999549,13.173871,38.239926
02283,NaN,-2.898944,7.914468,0.222692,-0.153706,-1.463245,-1.510426,0.147197,-0.042387,-0.187856,0.655641,0.672613,0.314953,0.136129,96.087520,13.289295,38.225293
02284,NaN,-3.061590,7.933925,0.248239,-0.238334,-1.579878,-1.456296,0.158234,-0.070563,-0.181830,0.655314,0.672921,0.315470,0.134983,96.178041,13.402902,38.193946
02285,NaN,-3.108296,8.031513,0.361268,-0.164079,-1.692722,-1.362542,0.177498,-0.123249,-0.154037,0.654986,0.673368,0.315734,0.133720,96.271826,13.504186,38.130162
02286,NaN,-3.206049,8.339738,0.411110,-0.115701,-1.775598,-1.047253,0.195811,-0.172598,-0.120054,0.654649,0.673962,0.315732,0.132373,96.368915,13.589148,38.035395
02287,NaN,-3.301299,8.525699,0.475786,-0.089177,-1.878086,-0.852926,0.217309,-0.218415,-0.083553,0.654288,0.674711,0.315472,0.130957,96.471108,13.656666,37.911525
02288,NaN,-3.407519,8.784621,0.534682,-0.058302,-1.980507,-0.585509,0.225271,-0.264350,-0.056007,0.653950,0.675559,0.314972,0.129463,96.571183,13.711462,37.758964
02289,NaN,-3.464091,9.097951,0.523000,-0.018888,-1.994945,-0.269837,0.227617,-0.309612,-0.035427,0.653663,0.676472,0.314257,0.127879,96.665551,13.758089,37.578576
02290,NaN,-3.523864,9.435643,0.510279,0.022051,-2.009434,0.070179,0.210586,-0.339991,-0.022183,0.653468,0.677369,0.313384,0.126262,96.745886,13.799176,37.379488
02291,NaN,-3.597826,9.676282,0.568474,0.066504,-2.092464,0.312288,0.175746,-0.360752,-0.030119,0.653428,0.678147,0.312448,0.124603,96.802947,13.846775,37.168830
02292,NaN,-3.654340,9.760923,0.518712,0.020178,-2.082407,0.412871,0.145851,-0.376739,-0.043605,0.653517,0.678816,0.311484,0.122892,96.841064,13.902942,36.949714
02293,NaN,-3.530145,9.954079,0.455135,0.135268,-1.946462,0.577006,0.116247,-0.371940,-0.073739,0.653719,0.679332,0.310620,0.121143,96.862677,13.976455,36.735531
02294,NaN,-3.400798,10.188314,0.280517,0.205386,-1.712518,0.792545,0.093087,-0.329679,-0.109992,0.653949,0.679691,0.310000,0.119456,96.877816,14.067339,36.548605
02295,NaN,-3.318547,10.467741,0.161402,0.287717,-1.546823,1.056394,0.085594,-0.268736,-0.143421,0.654133,0.679932,0.309690,0.117877,96.897067,14.173572,36.399768
02296,NaN,-3.334321,10.898373,-0.006291,0.312089,-1.390212,1.494927,0.084112,-0.194361,-0.169228,0.654216,0.680086,0.309708,0.116470,96.926933,14.288951,36.296358
02297,NaN,-3.326647,11.465309,-0.101662,0.436248,-1.273126,2.049818,0.073585,-0.114031,-0.158319,0.654208,0.680171,0.309946,0.115386,96.961424,14.393114,36.239363
02298,NaN,-3.508651,12.041996,-0.220225,0.401911,-1.247575,2.663322,0.062610,-0.061403,-0.116242,0.654126,0.680258,0.310205,0.114637,96.997142,14.469220,36.210270
02299,NaN,-3.831459,12.565013,-0.338273,0.238827,-1.308700,3.260351,0.048899,-0.047680,-0.045068,0.654033,0.680397,0.310260,0.114188,97.025005,14.504424,36.184147
02300,NaN,-4.271133,12.940419,-0.444915,-0.058966,-1.457011,3.743441,0.035252,-0.096299,0.048407,0.654003,0.680670,0.309829,0.113901,97.036914,14.489376,36.122693
02301,NaN,-4.742169,13.222819,-0.414595,-0.344244,-1.742119,4.128241,0.012998,-0.187186,0.150362,0.654137,0.681074,0.308743,0.113671,97.020177,14.423273,36.000510
02302,NaN,-5.198217,13.035808,-0.379523,-0.760215,-2.041855,4.056363,-0.034045,-0.331514,0.229762,0.654602,0.681532,0.306884,0.113283,96.955007,14.321438,35.787963
02303,NaN,-5.626165,12.238587,-0.268603,-1.292076,-2.404943,3.380320,-0.060695,-0.546378,0.268081,0.655467,0.682072,0.304178,0.112327,96.842418,14.212901,35.446875
02304,NaN,-5.671127,11.203249,-0.356010,-1.702337,-2.384059,2.402845,-0.066832,-0.771960,0.253826,0.656689,0.682695,0.300770,0.110565,96.695656,14.126334,34.974784
02305,NaN,-5.652278,10.252459,-0.470894,-2.049190,-2.285158,1.494898,-0.054847,-0.938178,0.166087,0.658163,0.683296,0.297120,0.107924,96.533055,14.100186,34.411514
02306,NaN,-5.291974,9.456597,-0.387501,-1.962586,-2.146195,0.633565,-0.040169,-1.044481,0.036854,0.659791,0.683801,0.293559,0.104473,96.366528,14.152139,33.794426
02307,NaN,-4.900828,8.979710,-0.398430,-1.801979,-1.894765,0.085521,-0.000263,-1.131689,-0.095045,0.661466,0.684262,0.290178,0.100224,96.210352,14.283879,33.134294
02308,NaN,-4.652237,8.939902,-0.488544,-1.666370,-1.632725,0.003675,0.044901,-1.196774,-0.226478,0.663118,0.684697,0.287039,0.095252,96.071470,14.491955,32.443306
02309,NaN,-4.621077,9.236080,-0.479406,-1.553460,-1.550299,0.290399,0.063734,-1.256546,-0.325766,0.664818,0.685045,0.284044,0.089711,95.931922,14.759545,31.722055
02310,NaN,-4.766208,9.642158,-0.499493,-1.563477,-1.520487,0.731536,0.046344,-1.333691,-0.359690,0.666666,0.685299,0.280884,0.083818,95.768450,15.048146,30.955650
02311,NaN,-4.842166,9.993868,-0.424016,-1.485622,-1.530455,1.093909,0.010622,-1.475306,-0.328624,0.668794,0.685492,0.277120,0.077584,95.556850,15.325684,30.101815
02312,NaN,-4.931991,10.539302,-0.412361,-1.404674,-1.472080,1.651633,-0.022695,-1.655194,-0.269295,0.671212,0.685690,0.272515,0.070978,95.293612,15.574643,29.135886
02313,NaN,-5.079521,11.268201,-0.494685,-1.373867,-1.334560,2.408159,-0.058859,-1.869022,-0.199745,0.673976,0.685874,0.266926,0.063911,94.968798,15.791225,28.037144
02314,NaN,-5.325530,11.791042,-0.774238,-1.581398,-1.053881,3.008251,-0.120989,-2.123802,-0.136559,0.677196,0.685953,0.260209,0.056265,94.562904,15.975973,26.781493
02315,NaN,-5.470847,12.218334,-1.002797,-1.713184,-0.744513,3.481368,-0.235170,-2.397292,-0.099795,0.681073,0.685672,0.252379,0.047941,94.040477,16.142866,25.359002
02316,NaN,-5.366477,12.435745,-1.158194,-1.661506,-0.374224,3.673768,-0.381950,-2.646034,-0.071900,0.685642,0.684884,0.243525,0.039042,93.389009,16.287847,23.784480
02317,NaN,-4.929712,12.438386,-1.223132,-1.340074,0.051970,3.555536,-0.531442,-2.811017,-0.081619,0.690802,0.683463,0.234069,0.029715,92.618413,16.425783,22.109005
02318,NaN,-4.419575,12.412562,-1.395614,-0.986582,0.604304,3.386164,-0.661312,-2.866068,-0.124498,0.696323,0.681417,0.224494,0.020202,91.760882,16.565406,20.398572
02319,NaN,-3.991632,12.276890,-1.442004,-0.669917,0.996009,3.121368,-0.766425,-2.804563,-0.219433,0.702001,0.678735,0.215405,0.010676,90.847300,16.734436,18.722779
02320,NaN,-3.518564,12.081361,-1.395338,-0.276171,1.293680,2.778300,-0.851291,-2.630416,-0.350122,0.707636,0.675478,0.207315,0.001378,89.910148,16.950542,17.147451
02321,NaN,-3.077261,11.781657,-1.349940,0.081802,1.552799,2.339594,-0.931693,-2.368995,-0.510270,0.713151,0.671635,0.200659,-0.007526,88.963135,17.236185,15.722238
02322,NaN,-2.682640,11.449675,-1.305095,0.408347,1.772776,1.878427,-0.992283,-2.030978,-0.678206,0.718408,0.667328,0.195738,-0.015828,88.032836,17.599608,14.490119
02323,NaN,-2.426838,11.055421,-1.150836,0.634224,1.823100,1.399241,-1.021625,-1.669121,-0.843692,0.723311,0.662688,0.192652,-0.023489,87.138760,18.048770,13.462636
02324,NaN,-2.279001,10.739263,-1.075977,0.773908,1.913170,1.023426,-1.021594,-1.309556,-0.994804,0.727768,0.657885,0.191340,-0.030500,86.300986,18.580285,12.636758
02325,NaN,-2.150123,10.470808,-1.017139,0.916747,2.003539,0.696265,-1.013654,-0.977146,-1.138942,0.731801,0.652957,0.191700,-0.036950,85.518207,19.197559,11.994697
02326,NaN,-2.037077,10.128717,-1.019691,1.015994,2.123338,0.298539,-0.998732,-0.680922,-1.261502,0.735415,0.647978,0.193521,-0.042889,84.792507,19.890143,11.514770
02327,NaN,-2.229588,9.816744,-0.948924,0.863457,2.104456,0.039377,-0.975247,-0.454180,-1.343693,0.738666,0.642997,0.196427,-0.048418,84.115607,20.637415,11.156523
02328,NaN,-2.511813,9.576901,-0.917520,0.644223,2.110594,-0.117534,-0.969390,-0.328453,-1.394414,0.741701,0.637979,0.199939,-0.053729,83.461119,21.416566,10.860677
02329,NaN,-2.561287,9.306475,-0.918530,0.619132,2.178397,-0.384894,-0.978989,-0.272981,-1.406554,0.744658,0.632872,0.203687,-0.058899,82.804428,22.203990,10.586609
02330,NaN,-2.515026,8.990761,-0.928033,0.657467,2.255117,-0.729716,-0.993672,-0.254932,-1.405477,0.747581,0.627677,0.207484,-0.063984,82.136859,22.988388,10.312507
02331,NaN,-2.401812,8.677023,-0.958775,0.743201,2.355952,-1.102131,-1.010432,-0.244204,-1.382216,0.750502,0.622393,0.211242,-0.068929,81.454124,23.758148,10.035320
02332,NaN,-2.362579,8.379977,-0.926477,0.772679,2.379163,-1.421927,-1.018174,-0.245044,-1.354171,0.753397,0.617070,0.214892,-0.073756,80.760676,24.508137,9.748765
02333,NaN,-2.287027,8.073856,-0.919838,0.815384,2.421931,-1.767097,-1.010513,-0.239493,-1.303503,0.756231,0.611781,0.218392,-0.078380,80.066198,25.227449,9.459167
02334,NaN,-2.183362,7.782778,-0.936431,0.872783,2.483992,-2.113191,-0.987389,-0.226897,-1.251690,0.758946,0.606607,0.221754,-0.082787,79.383703,25.914989,9.172238
02335,NaN,-2.086466,7.549266,-0.986464,0.928858,2.580408,-2.410298,-0.953716,-0.208238,-1.190115,0.761520,0.601594,0.224976,-0.086938,78.720528,26.567401,8.893713
02336,NaN,-2.085131,7.296857,-1.016792,0.888459,2.628990,-2.676596,-0.904792,-0.188693,-1.127242,0.763906,0.596817,0.228045,-0.090839,78.088173,27.183346,8.625968
02337,NaN,-2.093653,7.083335,-1.012500,0.855752,2.643442,-2.894506,-0.844426,-0.172435,-1.058330,0.766089,0.592323,0.230936,-0.094495,77.492313,27.760565,8.368899
02338,NaN,-2.180264,6.933777,-0.984700,0.780379,2.633931,-3.011719,-0.767714,-0.176571,-0.982319,0.768050,0.588188,0.233536,-0.097954,76.939019,28.291983,8.112416
02339,NaN,-2.330509,6.864812,-0.979940,0.672791,2.654179,-3.028934,-0.683158,-0.201901,-0.887624,0.769813,0.584450,0.235713,-0.101221,76.427597,28.765554,7.847152
02340,NaN,-2.462806,6.835512,-0.898846,0.611507,2.610396,-3.000273,-0.596552,-0.266728,-0.781090,0.771428,0.581126,0.237276,-0.104365,75.949776,29.168537,7.551651
02341,NaN,-2.692599,6.940442,-0.785289,0.527364,2.562031,-2.798844,-0.515540,-0.361457,-0.668093,0.772962,0.578182,0.238099,-0.107443,75.493495,29.493630,7.209254
02342,NaN,-2.708315,7.029351,-0.749049,0.596990,2.604640,-2.729825,-0.453733,-0.483411,-0.551966,0.774509,0.575540,0.238076,-0.110495,75.040732,29.733868,6.804752
02343,NaN,-2.561658,7.116631,-0.716991,0.798460,2.665254,-2.742948,-0.405103,-0.578425,-0.443311,0.776075,0.573152,0.237342,-0.113457,74.592204,29.897301,6.355482
02344,NaN,-2.333035,7.119953,-0.642432,1.036530,2.661917,-2.856459,-0.352041,-0.621073,-0.342801,0.777584,0.571057,0.236119,-0.116210,74.167707,29.995410,5.894964
02345,NaN,-2.073595,7.204975,-0.606943,1.322384,2.716554,-2.924194,-0.301851,-0.591323,-0.244819,0.778959,0.569282,0.234702,-0.118557,73.789339,30.041707,5.470165
02346,NaN,-1.916204,7.313595,-0.550648,1.529899,2.742743,-2.913382,-0.259131,-0.503827,-0.149551,0.780159,0.567831,0.233324,-0.120331,73.471771,30.047285,5.118256
02347,NaN,-1.895364,7.526302,-0.519116,1.655096,2.808855,-2.750248,-0.216648,-0.376995,-0.051975,0.781143,0.566733,0.232138,-0.121414,73.228305,30.018777,4.865353
02348,NaN,-1.919455,7.699119,-0.537365,1.705912,2.900270,-2.606595,-0.189398,-0.245649,0.040379,0.781952,0.565925,0.231185,-0.121794,73.050974,29.960504,4.713488
02349,NaN,-2.032614,7.863534,-0.503498,1.681310,2.929029,-2.409030,-0.170771,-0.109479,0.123083,0.782598,0.565370,0.230518,-0.121487,72.935886,29.879441,4.664094
02350,NaN,-2.158637,7.993817,-0.482197,1.620944,2.953385,-2.233548,-0.157506,0.015052,0.200732,0.783110,0.565029,0.230111,-0.120539,72.874801,29.776722,4.708456
02351,NaN,-2.278858,8.073417,-0.389371,1.553002,2.889879,-2.082125,-0.145750,0.122506,0.266254,0.783501,0.564876,0.229932,-0.119045,72.860828,29.656220,4.833496
02352,NaN,-2.398150,8.199310,-0.268911,1.507641,2.811457,-1.883326,-0.124012,0.213857,0.332055,0.783765,0.564934,0.229911,-0.117059,72.893129,29.515150,5.028464
02353,NaN,-2.511117,8.249609,-0.175757,1.423214,2.728606,-1.755285,-0.099879,0.302419,0.393294,0.783888,0.565210,0.230048,-0.114609,72.972493,29.355090,5.290727
02354,NaN,-2.556774,8.408976,-0.058030,1.446209,2.659043,-1.561071,-0.072418,0.382691,0.461183,0.783877,0.565709,0.230292,-0.111698,73.096821,29.171015,5.615437
02355,NaN,-2.490709,8.655166,-0.049059,1.573289,2.724705,-1.373582,-0.045823,0.472886,0.521310,0.783708,0.566432,0.230700,-0.108325,73.268787,28.967903,6.007254
02356,NaN,-2.335357,8.918279,-0.149677,1.752221,2.902122,-1.238358,-0.014831,0.581547,0.597497,0.783360,0.567408,0.231299,-0.104380,73.495306,28.739857,6.479553
02357,NaN,-2.152859,9.368489,-0.288365,2.015430,3.175703,-0.961750,0.006275,0.720229,0.678845,0.782814,0.568630,0.232193,-0.099744,73.780902,28.487219,7.051705
02358,NaN,-2.020626,9.952405,-0.515628,2.254504,3.566705,-0.560964,0.020670,0.894158,0.772628,0.782053,0.570079,0.233489,-0.094262,74.129614,28.208115,7.746221
02359,NaN,-1.961047,10.456450,-0.626152,2.408835,3.807158,-0.154668,0.019870,1.091484,0.860851,0.781068,0.571707,0.235293,-0.087866,74.539412,27.906247,8.575901
02360,NaN,-2.098201,10.710950,-0.602995,2.309860,3.807134,0.170283,0.008493,1.286705,0.936748,0.779882,0.573425,0.237637,-0.080599,74.997959,27.586846,9.535121
02361,NaN,-2.458333,10.672134,-0.595928,1.885735,3.679692,0.345835,0.011088,1.463130,0.995408,0.778442,0.575264,0.240479,-0.072591,75.506987,27.252726,10.608543
02362,NaN,-2.866962,10.328636,-0.450673,1.340918,3.295779,0.308662,0.044393,1.612130,1.030810,0.776679,0.577271,0.243771,-0.064055,76.069834,26.911795,11.773346
02363,NaN,-3.088114,9.850741,-0.282031,0.928110,2.861380,0.066730,0.077190,1.690698,1.022370,0.774645,0.579377,0.247354,-0.055354,76.665037,26.574733,12.978826
02364,NaN,-3.216661,9.411636,-0.179585,0.607332,2.509174,-0.205814,0.126062,1.730975,0.988492,0.772340,0.581573,0.251159,-0.046727,77.286108,26.251356,14.196631
02365,NaN,-3.244321,9.135715,-0.208803,0.406067,2.345428,-0.412507,0.193360,1.746666,0.936431,0.769723,0.583923,0.255128,-0.038331,77.939341,25.945816,15.410089
02366,NaN,-3.314509,9.079870,-0.205010,0.268893,2.205151,-0.403340,0.257321,1.760648,0.897681,0.766827,0.586402,0.259234,-0.030125,78.620366,25.652098,16.619776
02367,NaN,-3.459841,9.175225,-0.288425,0.094314,2.162515,-0.244422,0.321132,1.767898,0.890432,0.763648,0.589072,0.263346,-0.022000,79.332541,25.348793,17.826396
02368,NaN,-3.634606,9.276886,-0.334375,-0.088970,2.066580,-0.060634,0.368591,1.745131,0.921426,0.760295,0.591889,0.267255,-0.013890,80.056371,25.013300,19.014523
02369,NaN,-3.780381,9.437050,-0.208317,-0.162217,1.826964,0.188648,0.417945,1.692357,0.983485,0.756786,0.594928,0.270743,-0.005759,80.788927,24.622732,20.168367
02370,NaN,-3.760746,9.648457,0.009994,-0.040859,1.560438,0.424377,0.467222,1.618687,1.050042,0.753166,0.598169,0.273733,0.002334,81.520101,24.175995,21.273095
02371,NaN,-3.691721,9.861576,0.196246,0.108525,1.332202,0.633812,0.542494,1.528285,1.114415,0.749361,0.601739,0.276157,0.010300,82.263179,23.671094,22.317248
02372,NaN,-3.611510,10.056516,0.373019,0.256368,1.104385,0.818774,0.621848,1.434588,1.165554,0.745382,0.605609,0.278060,0.018061,83.015106,23.119290,23.295706
02373,NaN,-3.573856,10.283167,0.428727,0.324380,0.970029,1.034022,0.688102,1.344176,1.190529,0.741247,0.609727,0.279524,0.025553,83.772240,22.534002,24.208289
02374,NaN,-3.476074,10.483543,0.450719,0.419003,0.874846,1.198553,0.736471,1.276696,1.195818,0.736999,0.613970,0.280709,0.032783,84.526266,21.932255,25.067074
02375,NaN,-3.418544,10.566989,0.467207,0.442787,0.736567,1.269949,0.753975,1.234622,1.179519,0.732685,0.618223,0.281760,0.039802,85.269399,21.325705,25.887188
02376,NaN,-3.354935,10.538419,0.592216,0.492249,0.481384,1.241187,0.736303,1.202908,1.149856,0.728424,0.622308,0.282766,0.046630,85.980912,20.726718,26.674629
02377,NaN,-3.316980,10.462086,0.649339,0.480371,0.270779,1.167884,0.720704,1.187995,1.106095,0.724174,0.626242,0.283820,0.053278,86.670052,20.141551,27.440475
02378,NaN,-3.267831,10.316315,0.703218,0.463507,0.060912,1.021473,0.696427,1.198810,1.061710,0.719951,0.629960,0.285032,0.059822,87.334576,19.575385,28.201124
02379,NaN,-3.347555,10.188064,0.758988,0.351673,-0.196870,0.930429,0.660261,1.215817,1.023169,0.715765,0.633454,0.286385,0.066335,87.973032,19.021796,28.961731
02380,NaN,-3.373764,9.932607,0.743742,0.221043,-0.385103,0.694134,0.612212,1.234460,0.987071,0.711674,0.636658,0.287891,0.072835,88.575965,18.483246,29.723996
02381,NaN,-3.369850,9.633753,0.799132,0.144523,-0.618337,0.404897,0.566540,1.247413,0.956629,0.707661,0.639621,0.289494,0.079336,89.147364,17.953079,30.485540
02382,NaN,-3.283985,9.262985,0.774838,0.082391,-0.743605,0.017207,0.527245,1.272496,0.917011,0.703714,0.642318,0.291287,0.085821,89.690218,17.440582,31.254201
02383,NaN,-3.113032,8.914541,0.746186,0.098939,-0.806935,-0.375803,0.501811,1.308908,0.873083,0.699757,0.644817,0.293308,0.092307,90.217891,16.944594,32.037519
02384,NaN,-2.928590,8.592975,0.739609,0.151416,-0.865599,-0.746832,0.501495,1.379630,0.824366,0.695682,0.647152,0.295723,0.098837,90.747804,16.471149,32.856569
02385,NaN,-2.795767,8.335622,0.670154,0.151087,-0.880009,-1.040580,0.516463,1.476831,0.778941,0.691376,0.649390,0.298599,0.105502,91.295815,16.013497,33.727422
02386,NaN,-2.620462,8.234825,0.704457,0.287236,-0.930859,-1.197261,0.535676,1.623668,0.713526,0.686777,0.651453,0.302190,0.112373,91.869249,15.584702,34.680180
02387,NaN,-2.630288,8.243189,0.761102,0.324781,-1.083477,-1.200628,0.537825,1.834750,0.655930,0.681811,0.653269,0.306657,0.119728,92.470307,15.173030,35.752942
02388,NaN,-2.913570,8.246203,0.708002,0.096880,-1.304929,-1.136472,0.583198,2.006109,0.600911,0.676401,0.654969,0.311891,0.127364,93.113718,14.778749,36.922171
02389,NaN,-3.433000,8.329953,0.692540,-0.256840,-1.700840,-0.941781,0.622673,2.099076,0.571092,0.670644,0.656628,0.317514,0.135135,93.785447,14.383468,38.140405
02390,NaN,-3.991136,8.512794,0.678169,-0.599139,-2.131089,-0.650017,0.631764,2.076341,0.560186,0.664824,0.658220,0.323072,0.142755,94.448195,13.983562,39.338848
02391,NaN,-4.649819,8.606331,0.571724,-1.083435,-2.578581,-0.421637,0.622632,1.909167,0.566384,0.659215,0.659846,0.328000,0.149852,95.073339,13.573177,40.431744
02392,NaN,-5.264301,8.743470,0.540247,-1.473928,-3.066378,-0.175466,0.592160,1.621325,0.593292,0.654102,0.661556,0.331846,0.156115,95.631558,13.153748,41.348238
02393,NaN,-5.164251,8.918186,0.541225,-1.318777,-3.118565,-0.064333,0.523613,1.340790,0.628124,0.649600,0.663281,0.334574,0.161675,96.106244,12.721173,42.092914
02394,NaN,-4.892254,8.954534,0.667743,-1.004857,-3.148039,-0.135769,0.459911,1.120729,0.634901,0.645645,0.664942,0.336502,0.166617,96.509262,12.294758,42.704284
02395,NaN,-4.739749,9.006301,0.608026,-0.905479,-3.101194,-0.142619,0.411053,0.976713,0.610224,0.642081,0.666505,0.337986,0.171082,96.862599,11.886521,43.229502
02396,NaN,-4.565866,9.083877,0.578360,-0.770031,-3.049889,-0.127492,0.361063,0.902251,0.549315,0.638846,0.667837,0.339387,0.175176,97.174596,11.516700,43.712823
02397,NaN,-4.456324,9.169262,0.515767,-0.701258,-3.007570,-0.083227,0.308174,0.890015,0.470741,0.635853,0.668865,0.340948,0.179069,97.453200,11.188611,44.192188
02398,NaN,-4.507608,9.196723,0.387338,-0.800646,-3.020754,-0.051446,0.255137,0.906172,0.372409,0.633087,0.669517,0.342839,0.182783,97.701254,10.914373,44.686597
02399,NaN,-4.641442,9.207768,0.248065,-0.964170,-3.077002,-0.015260,0.206907,0.922512,0.270470,0.630527,0.669817,0.345065,0.186312,97.922984,10.693517,45.196820
02400,NaN,-4.736185,9.181755,0.231730,-1.020031,-3.188357,-0.036012,0.148739,0.924982,0.181952,0.628230,0.669756,0.347539,0.189661,98.110633,10.522118,45.714684
02401,NaN,-4.738269,9.060250,0.141394,-1.081038,-3.177318,-0.153750,0.115172,0.917182,0.101335,0.626117,0.669447,0.350213,0.192790,98.278273,10.394454,46.233815
02402,NaN,-4.896065,8.911935,0.024026,-1.270067,-3.251861,-0.262466,0.093701,0.875154,0.026141,0.624214,0.668962,0.352986,0.195571,98.429074,10.312540,46.734691
02403,NaN,-4.922970,8.763566,0.017465,-1.290164,-3.304818,-0.407928,0.090150,0.805621,-0.039514,0.622496,0.668409,0.355746,0.197922,98.571305,10.271611,47.200744
02404,NaN,-4.962406,8.631585,-0.036248,-1.346890,-3.327812,-0.526008,0.100074,0.716729,-0.080290,0.620936,0.667889,0.358375,0.199825,98.710313,10.261155,47.619168
02405,NaN,-4.999091,8.476161,-0.059958,-1.386282,-3.365725,-0.669943,0.119912,0.601348,-0.112397,0.619540,0.667483,0.360766,0.201207,98.849476,10.277331,47.973935
02406,NaN,-5.073371,8.414978,-0.062703,-1.414197,-3.438286,-0.716919,0.154960,0.467160,-0.142492,0.618297,0.667258,0.362877,0.201981,98.995502,10.322237,48.254388
02407,NaN,-5.288079,8.455069,-0.086084,-1.527122,-3.592929,-0.635648,0.190036,0.280700,-0.146647,0.617274,0.667321,0.364456,0.202057,99.142723,10.385207,48.428079
02408,NaN,-5.321318,8.647856,-0.059306,-1.453765,-3.638811,-0.445141,0.217163,0.058950,-0.142206,0.616560,0.667696,0.365365,0.201355,99.282572,10.465998,48.474100
02409,NaN,-5.265356,8.730389,-0.017294,-1.344579,-3.626257,-0.379432,0.229331,-0.160192,-0.127841,0.616190,0.668354,0.365561,0.199944,99.406188,10.558767,48.392921
02410,NaN,-5.103016,8.752050,0.008007,-1.200211,-3.521234,-0.389333,0.259463,-0.363749,-0.102597,0.616063,0.669352,0.365075,0.197873,99.525049,10.656801,48.192490
02411,NaN,-5.026236,8.859191,0.011982,-1.112655,-3.459551,-0.297334,0.282327,-0.547927,-0.077988,0.616168,0.670641,0.363960,0.195219,99.636396,10.758939,47.883902
02412,NaN,-5.052330,9.000264,0.002415,-1.100420,-3.460286,-0.151099,0.301172,-0.731977,-0.045437,0.616504,0.672220,0.362181,0.192011,99.737745,10.860952,47.466387
02413,NaN,-5.027017,9.293380,-0.048048,-1.051588,-3.388898,0.139681,0.307473,-0.911082,-0.017079,0.617106,0.674025,0.359756,0.188272,99.821689,10.965333,46.943115
02414,NaN,-5.020383,9.560621,-0.086202,-1.019438,-3.336745,0.407096,0.307391,-1.097919,0.019846,0.617990,0.676056,0.356618,0.184013,99.883664,11.067556,46.308635
02415,NaN,-4.983319,9.925276,-0.181599,-0.988412,-3.216472,0.772906,0.290579,-1.284783,0.053259,0.619213,0.678236,0.352762,0.179247,99.913038,11.170328,45.563237
02416,NaN,-4.802214,10.309668,-0.290026,-0.867589,-2.980692,1.132505,0.252414,-1.450613,0.082335,0.620798,0.680469,0.348241,0.174069,99.900501,11.272638,44.719184
02417,NaN,-4.505663,10.706851,-0.437775,-0.691080,-2.633430,1.488487,0.198606,-1.564046,0.111089,0.622706,0.682639,0.343206,0.168675,99.841678,11.370004,43.806659
02418,NaN,-4.176247,11.062500,-0.562283,-0.483979,-2.281838,1.793124,0.149751,-1.597822,0.133266,0.624776,0.684684,0.337924,0.163311,99.749617,11.456301,42.871983
02419,NaN,-3.987962,11.402756,-0.640382,-0.347209,-2.060727,2.102404,0.101152,-1.576330,0.130775,0.626943,0.686506,0.332659,0.158081,99.630138,11.541008,41.949556
02420,NaN,-3.924690,11.724307,-0.720342,-0.304334,-1.921241,2.418316,0.064825,-1.499581,0.136332,0.629060,0.688127,0.327564,0.153186,99.497933,11.612516,41.070349
02421,NaN,-4.011807,12.155061,-0.736999,-0.303346,-1.927802,2.859116,0.062013,-1.407667,0.148562,0.630999,0.689646,0.322699,0.148639,99.372845,11.667365,40.242695
02422,NaN,-4.382305,12.695307,-0.729843,-0.474828,-2.132395,3.458909,0.047581,-1.336016,0.168143,0.632821,0.691071,0.317964,0.144420,99.247523,11.701908,39.454259
02423,NaN,-4.895261,12.925989,-0.631773,-0.788020,-2.489397,3.775009,0.010596,-1.329665,0.154581,0.634749,0.692314,0.313258,0.140229,99.100641,11.742609,38.670613
02424,NaN,-5.261739,12.688462,-0.457019,-1.074379,-2.801329,3.599604,-0.042601,-1.413595,0.099496,0.636994,0.693335,0.308420,0.135652,98.914389,11.818880,37.843172
02425,NaN,-5.375079,12.013657,-0.522088,-1.421925,-2.748783,2.990186,-0.097885,-1.557992,0.023845,0.639677,0.694115,0.303334,0.130408,98.678115,11.948682,36.938405
02426,NaN,-5.005476,11.339713,-0.535928,-1.356750,-2.434950,2.276996,-0.143660,-1.721557,-0.089097,0.642789,0.694644,0.298062,0.124299,98.396027,12.151355,35.947507
02427,NaN,-4.467398,10.779094,-0.653132,-1.168806,-1.932908,1.653344,-0.181219,-1.813224,-0.243327,0.646221,0.694815,0.292990,0.117418,98.078144,12.445106,34.914410
02428,NaN,-4.191792,10.506536,-0.697903,-1.052893,-1.636261,1.352370,-0.179129,-1.843967,-0.406031,0.649722,0.694721,0.288353,0.109896,97.754900,12.826797,33.873543
02429,NaN,-3.754399,10.600211,-0.557844,-0.592328,-1.405322,1.342776,-0.178672,-1.766567,-0.550157,0.653140,0.694306,0.284449,0.102159,97.435179,13.280033,32.885117
02430,NaN,-3.808773,10.759390,-0.426442,-0.504998,-1.432385,1.507435,-0.222482,-1.622905,-0.651350,0.656494,0.693484,0.281314,0.094649,97.103935,13.773632,31.983636
02431,NaN,-3.999990,10.942451,-0.274115,-0.507757,-1.540743,1.727645,-0.251576,-1.578307,-0.708917,0.659873,0.692399,0.278494,0.087133,96.753120,14.292964,31.107429
02432,NaN,-4.243801,11.149943,-0.285195,-0.626242,-1.525509,2.006434,-0.252302,-1.580258,-0.717803,0.663200,0.691258,0.275672,0.079581,96.394020,14.810907,30.225360
02433,NaN,-4.432109,11.440994,-0.297617,-0.674782,-1.467524,2.353575,-0.266280,-1.659913,-0.718493,0.666642,0.690034,0.272566,0.071758,96.004121,15.329922,29.290706
02434,NaN,-4.458246,11.687076,-0.361023,-0.624313,-1.274716,2.620231,-0.331275,-1.789788,-0.702980,0.670410,0.688610,0.268920,0.063627,95.547721,15.839565,28.272058
02435,NaN,-4.455827,11.767776,-0.401729,-0.586958,-1.080595,2.716555,-0.406041,-1.882163,-0.710697,0.674505,0.686874,0.264945,0.055240,95.021160,16.351423,27.191806
02436,NaN,-4.560793,11.899337,-0.498992,-0.650693,-0.865862,2.894330,-0.480473,-1.967976,-0.721803,0.678887,0.684831,0.260664,0.046619,94.427487,16.862132,26.053064
02437,NaN,-4.419142,11.938678,-0.664208,-0.556866,-0.472288,2.913891,-0.586296,-2.079681,-0.711525,0.683702,0.682372,0.255917,0.037778,93.739528,17.360667,24.838009
02438,NaN,-3.980387,11.884377,-0.769702,-0.207481,-0.009900,2.742305,-0.736377,-2.144260,-0.699801,0.689006,0.679347,0.250841,0.028948,92.942497,17.838187,23.574027
02439,NaN,-3.575434,11.734130,-0.819693,0.108649,0.380645,2.474916,-0.888641,-2.101861,-0.708067,0.694688,0.675671,0.245887,0.020416,92.051317,18.302914,22.325005
02440,NaN,-3.340335,11.576086,-0.865271,0.279144,0.700034,2.243043,-1.018097,-1.968952,-0.739899,0.700540,0.671412,0.241448,0.012384,91.100281,18.763294,21.145942
02441,NaN,-3.192084,11.352207,-0.887023,0.366803,0.958072,1.968338,-1.122687,-1.801387,-0.792254,0.706461,0.666610,0.237740,0.004850,90.107971,19.234873,20.057176
02442,NaN,-2.912909,11.120992,-0.941501,0.563660,1.282250,1.636428,-1.212228,-1.614170,-0.865329,0.712361,0.661331,0.234898,-0.002206,89.091348,19.729708,19.070315
02443,NaN,-2.634364,10.748057,-1.024335,0.714823,1.603413,1.161113,-1.284051,-1.370854,-0.952638,0.718140,0.655607,0.233191,-0.008690,88.069546,20.262507,18.217791
02444,NaN,-2.398376,10.321864,-1.123870,0.812799,1.901013,0.640940,-1.316646,-1.068809,-1.037820,0.723585,0.649624,0.232819,-0.014445,87.082609,20.836132,17.535112
02445,NaN,-2.273230,9.916214,-1.174121,0.839758,2.102413,0.174757,-1.322872,-0.751423,-1.135833,0.728614,0.643454,0.233897,-0.019519,86.148020,21.466756,17.030272
02446,NaN,-2.305580,9.590266,-1.205237,0.762993,2.236562,-0.161040,-1.309223,-0.459992,-1.231984,0.733176,0.637204,0.236320,-0.024016,85.277698,22.156300,16.687728
02447,NaN,-2.545552,9.271177,-1.230181,0.510481,2.295889,-0.409838,-1.281121,-0.255686,-1.317352,0.737342,0.630916,0.239743,-0.028211,84.459629,22.901160,16.453638
02448,NaN,-2.872971,9.043562,-1.246841,0.218433,2.330780,-0.533042,-1.246950,-0.145468,-1.370817,0.741188,0.624661,0.243712,-0.032289,83.680531,23.679040,16.272221
02449,NaN,-3.020345,8.799283,-1.303206,0.067987,2.436880,-0.740595,-1.217927,-0.099470,-1.389150,0.744829,0.618436,0.247887,-0.036328,82.920412,24.468931,16.105284
02450,NaN,-2.970924,8.549779,-1.378700,0.078200,2.598678,-1.034045,-1.186830,-0.084111,-1.372740,0.748287,0.612307,0.252038,-0.040290,82.176832,25.247765,15.937196
02451,NaN,-2.913579,8.323215,-1.405344,0.113746,2.711272,-1.305398,-1.158901,-0.078770,-1.357103,0.751602,0.606245,0.256139,-0.044213,81.442732,26.016887,15.761362
02452,NaN,-2.848530,8.101920,-1.440051,0.149195,2.823705,-1.576689,-1.118529,-0.075612,-1.324096,0.754733,0.600340,0.260119,-0.048046,80.727953,26.764794,15.579148
02453,NaN,-2.857179,7.906191,-1.488611,0.120246,2.927573,-1.793921,-1.070125,-0.083386,-1.283921,0.757689,0.594616,0.263922,-0.051815,80.032219,27.487880,15.384510
02454,NaN,-2.877361,7.772908,-1.477475,0.120456,2.981549,-1.940285,-1.020072,-0.097252,-1.227828,0.760473,0.589121,0.267472,-0.055471,79.357887,28.175120,15.176832
02455,NaN,-2.945539,7.663538,-1.436810,0.094635,2.996871,-2.035861,-0.965350,-0.132698,-1.163840,0.763118,0.583867,0.270670,-0.059061,78.699925,28.820938,14.943773
02456,NaN,-2.991432,7.593507,-1.532422,0.052038,3.149167,-2.129117,-0.918269,-0.179725,-1.092716,0.765666,0.578849,0.273449,-0.062575,78.052702,29.418425,14.680372
02457,NaN,-3.052800,7.441469,-1.550892,-0.016083,3.194897,-2.270028,-0.862618,-0.245999,-1.011693,0.768133,0.574101,0.275712,-0.066046,77.414357,29.960412,14.376231
02458,NaN,-3.114701,7.400483,-1.576979,-0.046397,3.278381,-2.315717,-0.804607,-0.317953,-0.929844,0.770525,0.569646,0.277430,-0.069483,76.785981,30.443983,14.029429
02459,NaN,-3.071170,7.371277,-1.555939,0.028012,3.340433,-2.394554,-0.752409,-0.380072,-0.838904,0.772857,0.565471,0.278624,-0.072820,76.167523,30.865772,13.648731
02460,NaN,-2.922860,7.255760,-1.540164,0.145807,3.392422,-2.599448,-0.698472,-0.427501,-0.762543,0.775105,0.561578,0.279387,-0.076066,75.565188,31.234495,13.243079
02461,NaN,-2.790368,7.087366,-1.570240,0.206334,3.455627,-2.848630,-0.638995,-0.448366,-0.683030,0.777222,0.558001,0.279818,-0.079145,74.991641,31.552960,12.831523
02462,NaN,-2.692536,6.951481,-1.492051,0.285181,3.415489,-3.026545,-0.559505,-0.442391,-0.616534,0.779116,0.554816,0.280045,-0.082056,74.467634,31.831767,12.430794
02463,NaN,-2.619205,6.890651,-1.435656,0.365825,3.409104,-3.130901,-0.476500,-0.414823,-0.551287,0.780751,0.552046,0.280162,-0.084753,74.003466,32.076293,12.056062
02464,NaN,-2.610679,6.932698,-1.374252,0.437178,3.416885,-3.111938,-0.387529,-0.382087,-0.479020,0.782114,0.549730,0.280162,-0.087199,73.605870,32.283532,11.713103
02465,NaN,-2.596469,7.075005,-1.357156,0.540420,3.496808,-3.021566,-0.300828,-0.351323,-0.405863,0.783217,0.547864,0.280044,-0.089395,73.274439,32.454049,11.402195
02466,NaN,-2.595485,7.193491,-1.300893,0.632779,3.523232,-2.930719,-0.226290,-0.321369,-0.320130,0.784108,0.546417,0.279769,-0.091277,73.003365,32.580868,11.125920
02467,NaN,-2.580484,7.368967,-1.229277,0.763349,3.553370,-2.793963,-0.162854,-0.278653,-0.221254,0.784804,0.545378,0.279364,-0.092743,72.793997,32.659957,10.896533
02468,NaN,-2.639228,7.469581,-1.158564,0.793555,3.536939,-2.673868,-0.099411,-0.243027,-0.114284,0.785327,0.544748,0.278774,-0.093780,72.644094,32.685781,10.711219
02469,NaN,-2.698266,7.614208,-1.059206,0.846955,3.504966,-2.506759,-0.042091,-0.212356,-0.010535,0.785695,0.544507,0.277997,-0.094406,72.550086,32.659908,10.567276
02470,NaN,-2.700070,7.701141,-0.965876,0.913480,3.458551,-2.414387,0.011077,-0.180814,0.086300,0.785923,0.544619,0.277053,-0.094639,72.507474,32.586292,10.463302
02471,NaN,-2.650531,7.796379,-0.910117,1.008087,3.450590,-2.348484,0.064840,-0.143536,0.174896,0.785989,0.545088,0.275989,-0.094497,72.519806,32.470653,10.402210
02472,NaN,-2.592498,8.000927,-0.746913,1.189247,3.381530,-2.167777,0.125457,-0.093598,0.255249,0.785863,0.545922,0.274873,-0.093987,72.591858,32.319710,10.389285
02473,NaN,-2.513700,8.200567,-0.720331,1.334974,3.430506,-2.032183,0.168345,-0.050974,0.335943,0.785590,0.547063,0.273683,-0.093100,72.713215,32.131814,10.420525
02474,NaN,-2.347951,8.453698,-0.639801,1.589319,3.457552,-1.881326,0.218309,-0.012567,0.408740,0.785165,0.548507,0.272420,-0.091892,72.882169,31.910639,10.489887
02475,NaN,-2.188505,8.895180,-0.718628,1.863338,3.693127,-1.607886,0.253106,0.046617,0.499677,0.784593,0.550245,0.271122,-0.090209,73.101500,31.649089,10.614934
02476,NaN,-1.938199,9.379367,-0.894242,2.191479,4.040109,-1.362634,0.265140,0.157247,0.593195,0.783880,0.552191,0.269993,-0.087873,73.371285,31.354339,10.826935
02477,NaN,-1.814555,9.768777,-0.932375,2.405563,4.198604,-1.084835,0.263237,0.321355,0.696318,0.782977,0.554346,0.269218,-0.084673,73.704410,31.028147,11.162158
02478,NaN,-1.914322,10.091267,-0.884799,2.418033,4.209902,-0.718168,0.248115,0.509751,0.794853,0.781897,0.556631,0.268910,-0.080545,74.094655,30.676324,11.632079
02479,NaN,-2.176627,10.226792,-0.701522,2.246018,3.990812,-0.386924,0.226199,0.693759,0.892865,0.780638,0.559035,0.269047,-0.075486,74.538295,30.295271,12.233463
02480,NaN,-2.462548,10.116192,-0.488483,1.952565,3.639312,-0.242844,0.232463,0.860496,0.979504,0.779150,0.561606,0.269583,-0.069633,75.037638,29.887872,12.949578
02481,NaN,-2.725939,9.994302,-0.181490,1.705401,3.188735,-0.103303,0.272685,0.985588,1.016764,0.777346,0.564419,0.270471,-0.063329,75.597020,29.471288,13.745269
02482,NaN,-2.974190,9.969586,0.035920,1.484237,2.845137,0.083812,0.312473,1.036641,1.030938,0.775334,0.567374,0.271494,-0.056882,76.184694,29.048058,14.566792
02483,NaN,-3.156293,10.064504,0.159944,1.338202,2.630941,0.314901,0.366508,1.030118,1.015706,0.773119,0.570503,0.272499,-0.050576,76.793445,28.623763,15.374250
02484,NaN,-3.222729,10.200383,0.136679,1.255328,2.582150,0.493025,0.411010,1.020037,1.015078,0.770759,0.573751,0.273446,-0.044365,77.412652,28.192201,16.165866
02485,NaN,-3.191387,10.319910,0.133149,1.255767,2.526392,0.615262,0.435520,1.025670,1.021624,0.768267,0.577091,0.274369,-0.038137,78.041377,27.748680,16.954210
02486,NaN,-2.945262,10.421845,0.137014,1.434074,2.511656,0.624828,0.440278,1.061161,1.019378,0.765680,0.580399,0.275423,-0.031827,78.670901,27.304336,17.755139
02487,NaN,-2.829185,10.499711,0.223584,1.526008,2.380787,0.689688,0.428757,1.130438,1.010504,0.762970,0.583649,0.276748,-0.025324,79.306598,26.863113,18.590822
02488,NaN,-2.752965,10.501820,0.334205,1.568801,2.193327,0.708978,0.432289,1.202200,1.015111,0.760116,0.586869,0.278321,-0.018604,79.952323,26.420045,19.462646
02489,NaN,-2.896378,10.488133,0.484724,1.439754,1.896445,0.815294,0.446313,1.236744,1.026095,0.757109,0.590142,0.279964,-0.011751,80.608950,25.963417,20.349121
02490,NaN,-2.949540,10.425831,0.688317,1.396167,1.559619,0.840400,0.470803,1.245629,1.042698,0.753978,0.593470,0.281580,-0.004852,81.269361,25.490963,21.232702
02491,NaN,-2.992756,10.355319,0.851144,1.346276,1.256717,0.841905,0.490690,1.229830,1.046631,0.750743,0.596857,0.283094,0.001998,81.929197,25.003729,22.097874
02492,NaN,-2.949082,10.195760,0.990841,1.335486,0.978842,0.717708,0.504262,1.214849,1.039601,0.747450,0.600221,0.284563,0.008748,82.579056,24.512514,22.942760
02493,NaN,-2.940017,10.045111,1.034749,1.263114,0.779993,0.599490,0.502162,1.199154,1.014280,0.744121,0.603523,0.286019,0.015368,83.215260,24.023723,23.767146
02494,NaN,-2.957454,9.786173,1.064702,1.133414,0.559483,0.387822,0.492736,1.191709,0.991290,0.740798,0.606695,0.287506,0.021883,83.830738,23.541648,24.575670
02495,NaN,-2.949866,9.599667,1.051178,1.033680,0.410605,0.223349,0.484443,1.194258,0.966932,0.737436,0.609784,0.289047,0.028337,84.434595,23.063310,25.376204
02496,NaN,-3.011043,9.387970,1.069690,0.888873,0.204849,0.062100,0.467223,1.206328,0.945044,0.734080,0.612715,0.290688,0.034759,85.018994,22.592953,26.174188
02497,NaN,-2.999773,9.180105,1.078556,0.806050,0.041220,-0.128484,0.455513,1.227350,0.925361,0.730670,0.615553,0.292435,0.041200,85.594815,22.124811,26.976724
02498,NaN,-3.017756,9.041983,1.096921,0.729581,-0.122512,-0.246119,0.460554,1.250946,0.917910,0.727180,0.618331,0.294285,0.047665,86.167256,21.657077,27.785261
02499,NaN,-3.116829,8.857816,1.094477,0.567367,-0.313792,-0.381249,0.464378,1.287007,0.906283,0.723565,0.621079,0.296270,0.054202,86.743338,21.187074,28.608197
02500,NaN,-3.178739,8.768473,1.068624,0.456781,-0.447695,-0.446666,0.475511,1.328669,0.902698,0.719820,0.623787,0.298413,0.060823,87.323346,20.715355,29.448451
02501,NaN,-3.250998,8.627294,1.043200,0.326715,-0.600766,-0.559648,0.491041,1.364381,0.907520,0.715906,0.626523,0.300639,0.067558,87.912962,20.230962,30.303123
02502,NaN,-3.324704,8.512427,1.038339,0.217994,-0.768626,-0.650057,0.515042,1.401299,0.907576,0.711822,0.629264,0.302996,0.074356,88.512134,19.741698,31.171958
02503,NaN,-3.305863,8.480892,0.990374,0.188607,-0.841639,-0.697316,0.542697,1.452684,0.904052,0.707505,0.632051,0.305521,0.081267,89.129921,19.243585,32.063949
02504,NaN,-3.290752,8.425446,0.913357,0.138265,-0.898737,-0.767062,0.575807,1.524941,0.893522,0.702933,0.634837,0.308335,0.088300,89.768664,18.745542,32.990943
02505,NaN,-3.393290,8.414670,0.843031,0.014526,-1.018595,-0.757704,0.601958,1.614566,0.881121,0.698068,0.637618,0.311474,0.095538,90.431099,18.241732,33.963467
02506,NaN,-3.500389,8.377222,0.815900,-0.088016,-1.187079,-0.775103,0.627549,1.725612,0.840664,0.692914,0.640291,0.315125,0.102928,91.116188,17.752293,34.994038
02507,NaN,-3.510475,8.466431,0.794975,-0.068807,-1.291502,-0.704355,0.604916,1.887523,0.785564,0.687518,0.642664,0.319454,0.110682,91.808651,17.277424,36.113747
02508,NaN,-3.583384,8.563644,0.858018,-0.035304,-1.498557,-0.611361,0.567670,2.121438,0.691041,0.681849,0.644532,0.324845,0.118896,92.508621,16.841557,37.366771
02509,NaN,-4.130985,8.601840,0.979389,-0.322727,-2.040353,-0.445357,0.537556,2.327355,0.586596,0.675895,0.645931,0.331197,0.127463,93.217855,16.441993,38.737441
02510,NaN,-4.750391,8.632905,0.933577,-0.739462,-2.509988,-0.267229,0.525760,2.385140,0.528266,0.669831,0.647041,0.337887,0.136006,93.917826,16.060476,40.136766
02511,NaN,-5.267754,8.717443,0.935107,-1.017654,-2.964183,-0.076513,0.499267,2.308672,0.473264,0.663906,0.647939,0.344417,0.144155,94.581347,15.694886,41.485578
02512,NaN,-5.521243,8.889045,0.965679,-1.051141,-3.267955,0.119337,0.448634,2.194827,0.424759,0.658297,0.648563,0.350656,0.151829,95.187350,15.350983,42.762868
02513,NaN,-5.610359,8.972300,0.998252,-0.985748,-3.471012,0.184974,0.381055,2.061564,0.384568,0.653081,0.648930,0.356480,0.159050,95.726917,15.022358,43.957868
02514,NaN,-5.924300,8.904414,0.882365,-1.217016,-3.723843,0.178038,0.349594,1.868718,0.372365,0.648263,0.649245,0.361665,0.165634,96.210676,14.704516,45.035173
02515,NaN,-6.314746,8.891291,0.630640,-1.586760,-3.925295,0.257147,0.352308,1.531475,0.383799,0.643976,0.649829,0.365681,0.171153,96.639971,14.391103,45.908994
02516,NaN,-6.362936,8.891340,0.254985,-1.825382,-3.797079,0.279737,0.348208,1.132119,0.426423,0.640372,0.650774,0.368262,0.175500,97.002255,14.077185,46.542114
02517,NaN,-6.011527,9.022916,0.028830,-1.684839,-3.469252,0.320293,0.294559,0.769117,0.436616,0.637574,0.651874,0.369579,0.178801,97.279148,13.777798,46.959053
02518,NaN,-5.584486,9.040768,-0.142310,-1.505436,-3.116580,0.235320,0.213683,0.517900,0.406970,0.635528,0.652865,0.370124,0.181325,97.472534,13.514188,47.229731
02519,NaN,-5.207419,8.977037,-0.158879,-1.282581,-2.896551,0.071361,0.144395,0.393228,0.357492,0.633971,0.653661,0.370358,0.183421,97.609389,13.285450,47.430236
02520,NaN,-4.944702,8.813315,-0.171909,-1.160579,-2.756034,-0.158085,0.122150,0.353897,0.298367,0.632616,0.654299,0.370648,0.185232,97.727922,13.094708,47.611892
02521,NaN,-4.848710,8.688799,-0.221117,-1.161090,-2.701186,-0.304299,0.150809,0.348273,0.241940,0.631221,0.654932,0.371120,0.186800,97.862918,12.934415,47.794080
02522,NaN,-4.839793,8.652044,-0.173054,-1.121987,-2.765198,-0.357206,0.170364,0.316701,0.170029,0.629890,0.655513,0.371753,0.187992,98.005349,12.818625,47.963357
02523,NaN,-4.829734,8.563775,-0.121818,-1.087326,-2.828869,-0.458835,0.189509,0.286223,0.088978,0.628623,0.656036,0.372566,0.188800,98.156307,12.749431,48.121115
02524,NaN,-4.886295,8.388004,-0.059259,-1.104357,-2.948948,-0.629985,0.230082,0.225619,0.017452,0.627406,0.656602,0.373466,0.189101,98.323551,12.726759,48.249557
02525,NaN,-4.915772,8.285884,-0.053731,-1.122981,-3.001424,-0.726771,0.282521,0.115202,-0.017227,0.626250,0.657376,0.374177,0.188838,98.507578,12.731424,48.316640
02526,NaN,-4.945915,8.304466,-0.080549,-1.134677,-3.020811,-0.701163,0.320272,-0.029430,-0.031372,0.625256,0.658371,0.374522,0.187979,98.694746,12.757478,48.301088
02527,NaN,-4.843229,8.301273,-0.036799,-1.018074,-2.989503,-0.735479,0.347114,-0.183672,-0.032209,0.624458,0.659595,0.374407,0.186563,98.877677,12.796590,48.196051
02528,NaN,-4.722232,8.353184,0.030309,-0.862888,-2.954636,-0.724144,0.361987,-0.332008,-0.014208,0.623872,0.661030,0.373786,0.184681,99.049449,12.840036,48.003469
02529,NaN,-4.545758,8.541045,0.108744,-0.632530,-2.878983,-0.596585,0.372186,-0.454087,0.016804,0.623445,0.662666,0.372684,0.182475,99.210616,12.876840,47.737181
02530,NaN,-4.489645,8.763950,0.245207,-0.435153,-2.929829,-0.418509,0.366086,-0.543598,0.051777,0.623169,0.664420,0.371182,0.180087,99.355770,12.903578,47.415801
02531,NaN,-4.560580,9.104359,0.260688,-0.380427,-2.983223,-0.080686,0.347934,-0.618986,0.082172,0.623057,0.666235,0.369320,0.177578,99.479942,12.920390,47.047747
02532,NaN,-4.791589,9.451134,0.371867,-0.371993,-3.216292,0.283777,0.291841,-0.724336,0.129946,0.623276,0.668046,0.366919,0.174965,99.557276,12.921369,46.614061
02533,NaN,-4.796495,9.726425,0.360296,-0.331499,-3.200266,0.550123,0.188082,-0.891192,0.163768,0.624106,0.669729,0.363785,0.172090,99.552614,12.919019,46.080286
02534,NaN,-4.379991,9.845927,0.310911,-0.087775,-2.860367,0.581238,0.073969,-1.041970,0.199384,0.625547,0.671234,0.359956,0.169021,99.462498,12.910738,45.455719
02535,NaN,-3.928805,9.810694,0.157581,0.062647,-2.423907,0.474712,-0.005219,-1.156289,0.202172,0.627438,0.672570,0.355680,0.165717,99.311853,12.910103,44.764548
02536,NaN,-3.603480,9.928745,0.027649,0.187099,-2.081146,0.541028,-0.046372,-1.216844,0.175287,0.629574,0.673756,0.351260,0.162190,99.130568,12.928464,44.040821
02537,NaN,-3.373538,10.209562,-0.035008,0.338720,-1.843197,0.775269,-0.085335,-1.219227,0.140888,0.631851,0.674734,0.346901,0.158611,98.926530,12.964055,43.318673
02538,NaN,-3.192031,10.631873,-0.083796,0.507648,-1.641306,1.154583,-0.119533,-1.137519,0.119157,0.634095,0.675479,0.342836,0.155290,98.713964,13.002291,42.645797
02539,NaN,-3.048567,11.015453,-0.226217,0.583132,-1.397599,1.518316,-0.126765,-0.986272,0.119781,0.636088,0.676063,0.339231,0.152492,98.516060,13.024821,42.060504
02540,NaN,-3.067772,11.402915,-0.297575,0.593285,-1.318552,1.910604,-0.094068,-0.811484,0.123595,0.637654,0.676612,0.336189,0.150237,98.360170,13.028755,41.576543
02541,NaN,-3.271682,12.006975,-0.389953,0.515858,-1.341869,2.554876,-0.047018,-0.646401,0.155837,0.638755,0.677228,0.333592,0.148563,98.251662,12.999662,41.185826
02542,NaN,-3.689061,12.551421,-0.488599,0.262331,-1.506919,3.189096,-0.015440,-0.524305,0.182378,0.639515,0.677896,0.331318,0.147332,98.177699,12.944912,40.864140
02543,NaN,-4.342671,12.869317,-0.465305,-0.152282,-1.929505,3.639017,0.007353,-0.465364,0.223458,0.640070,0.678652,0.329106,0.146395,98.123297,12.861770,40.573375
02544,NaN,-4.955622,12.575742,-0.454077,-0.709690,-2.337960,3.489336,-0.004995,-0.492276,0.232024,0.640696,0.679402,0.326769,0.145411,98.059453,12.775601,40.266535
02545,NaN,-5.333643,11.825240,-0.458349,-1.225040,-2.591469,2.847390,-0.028310,-0.598397,0.211403,0.641589,0.680110,0.324141,0.144039,97.968542,12.709374,39.899766
02546,NaN,-5.391199,10.870253,-0.577552,-1.623344,-2.548074,1.953064,-0.014432,-0.750810,0.162430,0.642704,0.680889,0.321197,0.141966,97.868210,12.682203,39.448579
02547,NaN,-5.284118,10.217654,-0.612413,-1.762178,-2.445497,1.305383,0.027915,-0.931206,0.063374,0.644029,0.681755,0.318036,0.138890,97.769746,12.724925,38.900284
02548,NaN,-5.127880,9.912158,-0.698154,-1.794156,-2.251410,0.992192,0.087694,-1.079212,-0.059635,0.645448,0.682708,0.314850,0.134815,97.688787,12.847687,38.275386
02549,NaN,-5.260680,9.934871,-0.674397,-1.886749,-2.298155,1.049614,0.115455,-1.215995,-0.181181,0.647055,0.683622,0.311647,0.129831,97.605081,13.049592,37.579628
02550,NaN,-5.266316,10.042425,-0.739271,-1.904744,-2.181748,1.175598,0.129599,-1.394216,-0.262457,0.648908,0.684548,0.308139,0.123949,97.505320,13.309435,36.785296
02551,NaN,-5.457476,10.290900,-0.786467,-2.016736,-2.166698,1.480793,0.103803,-1.598456,-0.321946,0.651170,0.685375,0.304140,0.117204,97.358736,13.617315,35.874591
02552,NaN,-5.680511,10.533205,-0.806076,-2.143772,-2.171054,1.787145,0.069155,-1.835846,-0.323080,0.653854,0.686183,0.299326,0.109689,97.154983,13.939550,34.822957
02553,NaN,-5.793064,10.793518,-0.838686,-2.195053,-2.079510,2.087690,0.030481,-2.128972,-0.284053,0.657031,0.687004,0.293371,0.101338,96.878912,14.256785,33.593707
02554,NaN,-5.907846,11.175718,-0.937501,-2.261799,-1.905980,2.513210,-0.008757,-2.457061,-0.217242,0.660692,0.687878,0.286047,0.092128,96.525266,14.550435,32.163738
02555,NaN,-5.969845,11.620813,-1.034717,-2.278427,-1.675355,2.983880,-0.061480,-2.837562,-0.155557,0.664943,0.688708,0.277182,0.081867,96.074425,14.824273,30.501706
02556,NaN,-5.872596,11.973371,-1.182569,-2.219437,-1.294679,3.326627,-0.150153,-3.208668,-0.114416,0.669833,0.689304,0.266838,0.070574,95.508347,15.080722,28.613882
02557,NaN,-5.606172,12.218083,-1.240692,-2.003073,-0.892214,3.507862,-0.261223,-3.518667,-0.107262,0.675336,0.689439,0.255321,0.058360,94.819650,15.330337,26.537193
02558,NaN,-5.192542,12.423119,-1.254182,-1.641830,-0.454473,3.602301,-0.403748,-3.728929,-0.137312,0.681374,0.688898,0.243065,0.045487,94.007615,15.578884,24.331710
02559,NaN,-4.651091,12.486520,-1.110193,-1.129048,-0.116679,3.509641,-0.574755,-3.814288,-0.206078,0.687882,0.687448,0.230635,0.032272,93.071886,15.838618,22.071485
02560,NaN,-3.852485,12.428743,-1.019967,-0.420120,0.334000,3.228118,-0.709011,-3.718142,-0.306867,0.694495,0.685164,0.218769,0.019189,92.065048,16.115368,19.864113
02561,NaN,-3.093031,12.319414,-0.990304,0.250167,0.781621,2.900993,-0.832312,-3.454740,-0.432971,0.701027,0.682043,0.208169,0.006693,91.017530,16.423425,17.807669
02562,NaN,-2.400486,12.077986,-0.905500,0.871141,1.104265,2.454255,-0.968183,-3.013690,-0.614424,0.707356,0.678056,0.199663,-0.004789,89.955061,16.795671,16.006882
02563,NaN,-1.857108,11.688828,-0.844262,1.332794,1.359540,1.898934,-1.082923,-2.448614,-0.804696,0.713354,0.673320,0.193762,-0.014918,88.908509,17.249378,14.532541
02564,NaN,-1.510000,11.343335,-0.837944,1.630295,1.593862,1.432388,-1.172994,-1.819325,-0.995885,0.718901,0.668023,0.190718,-0.023516,87.908805,17.796284,13.420943
02565,NaN,-1.364718,10.959734,-0.825247,1.745744,1.755432,0.982055,-1.269523,-1.182245,-1.183940,0.724059,0.662179,0.190584,-0.030571,86.954793,18.449886,12.674296
02566,NaN,-1.415543,10.532281,-0.796955,1.678955,1.843665,0.548111,-1.344445,-0.602628,-1.359880,0.728802,0.655926,0.193118,-0.036265,86.057029,19.211929,12.257504
02567,NaN,-1.768999,10.184644,-0.832618,1.348846,1.933296,0.286265,-1.376652,-0.138145,-1.518259,0.733105,0.649409,0.197852,-0.040981,85.221252,20.079305,12.100590
02568,NaN,-2.379935,9.910497,-0.873847,0.812394,1.978262,0.190733,-1.387200,0.177667,-1.651909,0.737013,0.642724,0.204156,-0.045144,84.438612,21.036406,12.115084
02569,NaN,-2.585649,9.581629,-0.900292,0.637804,2.068554,-0.085692,-1.405498,0.380052,-1.729982,0.740673,0.635849,0.211437,-0.048922,83.683084,22.050647,12.234576
02570,NaN,-2.551956,9.227946,-0.995000,0.651079,2.252058,-0.476813,-1.390671,0.551244,-1.774316,0.743990,0.628951,0.219460,-0.052327,82.973580,23.102302,12.443515
02571,NaN,-2.632297,8.949014,-1.137275,0.567270,2.457123,-0.760338,-1.356972,0.674925,-1.803173,0.746961,0.622084,0.227996,-0.055483,82.310803,24.182139,12.714455
02572,NaN,-2.762597,8.670609,-1.245826,0.440270,2.604445,-1.015877,-1.324174,0.757374,-1.811317,0.749624,0.615275,0.236823,-0.058440,81.689292,25.275416,13.025475
02573,NaN,-2.862429,8.403622,-1.381143,0.328420,2.771092,-1.272618,-1.276482,0.801971,-1.800822,0.751992,0.608578,0.245740,-0.061270,81.107860,26.369873,13.355322
02574,NaN,-3.032163,8.169159,-1.440526,0.181877,2.845109,-1.453591,-1.222318,0.807391,-1.775356,0.754089,0.602041,0.254548,-0.064045,80.562710,27.452891,13.682549
02575,NaN,-3.227606,7.952353,-1.545724,-0.000340,2.949381,-1.606229,-1.165151,0.754835,-1.731005,0.756002,0.595678,0.262975,-0.066877,80.037646,28.508799,13.972492
02576,NaN,-3.386963,7.730089,-1.586290,-0.140754,2.988924,-1.763650,-1.107222,0.650425,-1.668461,0.757809,0.589517,0.270769,-0.069850,79.518005,29.520783,14.194469
02577,NaN,-3.491114,7.473041,-1.511305,-0.218846,2.914705,-1.953082,-1.047699,0.494285,-1.587987,0.759604,0.583571,0.277688,-0.073054,78.985268,30.472807,14.316150
02578,NaN,-3.567758,7.305189,-1.430208,-0.240701,2.862500,-2.074019,-0.974857,0.297497,-1.487962,0.761426,0.577919,0.283514,-0.076545,78.432097,31.347228,14.312834
02579,NaN,-3.555202,7.100859,-1.370698,-0.220259,2.834320,-2.272304,-0.905943,0.068966,-1.380837,0.763358,0.572550,0.288114,-0.080381,77.841308,32.134836,14.163317
02580,NaN,-3.443043,7.008440,-1.322308,-0.081411,2.870544,-2.432069,-0.829898,-0.157685,-1.255646,0.765400,0.567526,0.291441,-0.084492,77.215827,32.822729,13.870815
02581,NaN,-3.268528,6.884252,-1.335855,0.061759,2.961144,-2.665131,-0.760102,-0.346080,-1.126537,0.767532,0.562847,0.293638,-0.088742,76.563904,33.411500,13.461626
02582,NaN,-2.986745,6.793124,-1.243900,0.333953,2.979556,-2.911644,-0.678372,-0.470947,-0.994652,0.769641,0.558595,0.294932,-0.092951,75.915345,33.905731,12.979945
02583,NaN,-2.671009,6.658373,-1.229866,0.576289,3.048419,-3.228220,-0.596888,-0.519929,-0.873586,0.771620,0.554791,0.295652,-0.096949,75.298800,34.321472,12.477290
02584,NaN,-2.439769,6.584905,-1.195920,0.778612,3.093000,-3.443203,-0.514059,-0.505593,-0.762540,0.773379,0.551460,0.296069,-0.100598,74.739106,34.673448,11.996594
02585,NaN,-2.342394,6.528458,-1.103624,0.895460,3.055948,-3.552930,-0.435434,-0.441270,-0.658550,0.774857,0.548609,0.296402,-0.103780,74.255334,34.974269,11.573082
02586,NaN,-2.358877,6.522046,-1.028195,0.934378,3.025090,-3.556962,-0.357259,-0.375809,-0.565539,0.776061,0.546220,0.296687,-0.106537,73.847191,35.231407,11.206949
02587,NaN,-2.422148,6.531157,-1.012666,0.918725,3.039474,-3.530515,-0.278692,-0.299902,-0.466521,0.776977,0.544321,0.296951,-0.108817,73.522884,35.444310,10.908893
02588,NaN,-2.508090,6.679191,-0.935281,0.970337,3.040536,-3.363629,-0.210561,-0.242434,-0.361394,0.777678,0.542865,0.297112,-0.110634,73.269535,35.607754,10.668301
02589,NaN,-2.636292,6.908331,-0.835283,1.031420,3.040086,-3.099509,-0.147492,-0.195331,-0.246483,0.778192,0.541855,0.297109,-0.111966,73.084598,35.715037,10.482363
02590,NaN,-2.853448,7.157443,-0.792520,1.006204,3.080872,-2.777418,-0.089023,-0.160253,-0.122128,0.778569,0.541269,0.296871,-0.112809,72.960238,35.759834,10.344623
02591,NaN,-2.980412,7.377042,-0.688022,1.052193,3.061226,-2.512088,-0.035622,-0.137393,0.010031,0.778835,0.541109,0.296334,-0.113152,72.892904,35.735584,10.250309
02592,NaN,-3.146433,7.526606,-0.635188,1.006219,3.049950,-2.286823,0.005962,-0.129966,0.136739,0.779055,0.541293,0.295460,-0.113045,72.866302,35.643463,10.186693
02593,NaN,-3.209701,7.618155,-0.586007,1.003915,3.028445,-2.163994,0.044267,-0.116124,0.249680,0.779206,0.541811,0.294311,-0.112514,72.882643,35.491386,10.156771
02594,NaN,-3.120954,7.734102,-0.434236,1.162391,2.938939,-2.082444,0.087812,-0.090115,0.354756,0.779266,0.542655,0.292954,-0.111570,72.944884,35.286603,10.165115
02595,NaN,-3.094717,7.853102,-0.326707,1.251131,2.875446,-1.969118,0.128625,-0.058080,0.427215,0.779197,0.543794,0.291500,-0.110313,73.053215,35.046900,10.210340
02596,NaN,-2.987343,8.007184,-0.190381,1.427173,2.804557,-1.864547,0.180088,-0.007602,0.498800,0.778957,0.545248,0.290020,-0.108717,73.215978,34.776827,10.302044
02597,NaN,-2.713385,8.311189,-0.218597,1.751452,2.958287,-1.771119,0.221539,0.051871,0.558957,0.778535,0.546994,0.288580,-0.106780,73.432974,34.482535,10.445081
02598,NaN,-2.501785,8.726945,-0.361496,2.036194,3.244208,-1.573884,0.233983,0.138879,0.618603,0.777987,0.548901,0.287308,-0.104394,73.692331,34.169820,10.654687
02599,NaN,-2.273765,9.065283,-0.535881,2.279683,3.526967,-1.446107,0.221161,0.285914,0.688534,0.777279,0.550944,0.286416,-0.101307,74.006493,33.840244,10.973790
02600,NaN,-2.092670,9.382574,-0.668330,2.480084,3.752443,-1.290573,0.195829,0.493577,0.765934,0.776379,0.553079,0.286129,-0.097314,74.384379,33.499761,11.440206
02601,NaN,-2.207579,9.538906,-0.660925,2.400240,3.736631,-1.061877,0.157199,0.738708,0.835836,0.775237,0.555287,0.286606,-0.092308,74.833972,33.153912,12.077815
02602,NaN,-2.459503,9.495488,-0.541577,2.146019,3.512685,-0.892961,0.138037,0.979081,0.923037,0.773826,0.557617,0.287776,-0.086272,75.357894,32.791928,12.882104
02603,NaN,-2.694057,9.306728,-0.283328,1.885521,3.099179,-0.824233,0.143856,1.184811,0.992186,0.772079,0.560148,0.289525,-0.079390,75.959003,32.412601,13.827264
02604,NaN,-2.891893,9.173650,-0.126582,1.648065,2.792918,-0.756346,0.182857,1.312596,1.030357,0.770016,0.562880,0.291632,-0.072063,76.617410,32.022208,14.852383
02605,NaN,-3.031332,9.227594,-0.003516,1.532638,2.583395,-0.576164,0.225101,1.386409,1.055684,0.767666,0.565818,0.293908,-0.064477,77.319441,31.615108,15.921132
02606,NaN,-3.081812,9.270946,0.024348,1.452129,2.466967,-0.471772,0.266328,1.425125,1.072602,0.765100,0.568885,0.296255,-0.056782,78.044292,31.193842,17.005695
02607,NaN,-3.125239,9.427366,0.064584,1.430427,2.371329,-0.274566,0.302742,1.450021,1.100043,0.762325,0.572116,0.298576,-0.048949,78.790608,30.746076,18.100112
02608,NaN,-3.056727,9.635136,0.004165,1.478962,2.406152,-0.106969,0.327189,1.480690,1.137666,0.759391,0.575430,0.300883,-0.040929,79.546570,30.270300,19.205923
02609,NaN,-3.075364,9.818783,-0.031905,1.449908,2.379068,0.092029,0.334737,1.512329,1.192789,0.756314,0.578834,0.303113,-0.032603,80.308822,29.751625,20.326950
02610,NaN,-2.998892,9.899568,-0.032443,1.465872,2.308671,0.163042,0.339452,1.536478,1.249551,0.753137,0.582264,0.305249,-0.024010,81.065222,29.192680,21.454562
02611,NaN,-3.012302,9.927472,0.018308,1.405460,2.142422,0.240254,0.344715,1.545980,1.308403,0.749845,0.585771,0.307206,-0.015158,81.816405,28.585654,22.580278
02612,NaN,-3.100751,10.026340,0.103251,1.324449,1.937209,0.416860,0.359907,1.539051,1.354183,0.746457,0.589317,0.308980,-0.006191,82.554657,27.942033,23.688790
02613,NaN,-3.187147,10.045113,0.210721,1.224405,1.679125,0.521026,0.386434,1.514220,1.391720,0.742935,0.592981,0.310504,0.002818,83.286475,27.259891,24.769180
02614,NaN,-3.187818,10.010859,0.244267,1.141742,1.495707,0.526363,0.428806,1.489939,1.424256,0.739259,0.596762,0.311821,0.011794,84.014259,26.548508,25.818842
02615,NaN,-3.268398,9.987488,0.361802,1.040494,1.204108,0.580972,0.475370,1.469807,1.453174,0.735375,0.600722,0.312931,0.020760,84.747631,25.804435,26.841574
02616,NaN,-3.405744,9.906213,0.415447,0.847426,0.921828,0.595681,0.529037,1.441786,1.472743,0.731305,0.604819,0.313863,0.029611,85.482051,25.039333,27.829691
02617,NaN,-3.427422,9.808921,0.383846,0.704058,0.750505,0.533702,0.571670,1.413492,1.479256,0.727051,0.609044,0.314628,0.038347,86.217342,24.254565,28.783966
02618,NaN,-3.500673,9.682066,0.473405,0.575640,0.442681,0.467932,0.608688,1.377822,1.484049,0.722675,0.613324,0.315236,0.046913,86.943092,23.458240,29.698485
02619,NaN,-3.519909,9.539336,0.482854,0.449917,0.222646,0.354274,0.634116,1.345014,1.482227,0.718177,0.617659,0.315686,0.055343,87.660002,22.648074,30.576643
02620,NaN,-3.710949,9.428637,0.448402,0.179863,-0.031811,0.328087,0.643795,1.298890,1.469364,0.713664,0.621928,0.315994,0.063546,88.351235,21.838028,31.409442
02621,NaN,-3.919986,9.341947,0.465869,-0.065534,-0.336940,0.323128,0.651088,1.255792,1.455933,0.709109,0.626176,0.316143,0.071567,89.023063,21.022376,32.200882
02622,NaN,-3.987266,9.253774,0.505865,-0.182544,-0.591243,0.257118,0.652739,1.208920,1.443880,0.704573,0.630339,0.316149,0.079371,89.667487,20.208545,32.948737
02623,NaN,-4.034133,9.129310,0.511018,-0.308440,-0.811066,0.143424,0.661343,1.183847,1.418914,0.699974,0.634465,0.316101,0.087005,90.299621,19.397621,33.668107
02624,NaN,-4.134506,8.990095,0.606634,-0.423116,-1.133119,0.026953,0.679463,1.175948,1.380542,0.695297,0.638514,0.316141,0.094424,90.924450,18.605006,34.369634
02625,NaN,-4.141542,9.029756,0.763717,-0.371597,-1.424355,0.041392,0.702015,1.201467,1.317254,0.690458,0.642493,0.316438,0.101679,91.556664,17.837479,35.075226
02626,NaN,-3.879334,9.087753,0.907537,-0.100163,-1.550761,-0.012532,0.720368,1.308734,1.216458,0.685393,0.646239,0.317425,0.108874,92.204738,17.121837,35.835027
02627,NaN,-3.795332,9.006798,0.920583,-0.062701,-1.683181,-0.141320,0.747615,1.490905,1.088091,0.679940,0.649735,0.319419,0.116181,92.890935,16.463065,36.695754
02628,NaN,-3.831020,9.075334,0.871104,-0.095008,-1.810008,-0.091063,0.773768,1.709022,0.931548,0.674090,0.652854,0.322661,0.123594,93.615609,15.880227,37.680319
02629,NaN,-3.779907,9.309717,0.851770,0.020139,-1.890766,0.092188,0.752589,1.976398,0.752226,0.667893,0.655390,0.327322,0.131312,94.362900,15.373593,38.820542
02630,NaN,-3.649955,9.506487,0.778640,0.172871,-1.878703,0.224263,0.660217,2.313792,0.552830,0.661501,0.656958,0.333674,0.139585,95.098867,14.954232,40.160695
02631,NaN,-4.179788,9.570804,0.810903,-0.105624,-2.365389,0.391232,0.554813,2.662183,0.336594,0.654898,0.657481,0.341741,0.148458,95.820974,14.619282,41.710549
