// General information: 
//  MT Manager version: 2019.0.1 
//  XDA version: 2019.0.1 build 2740 rev 84096 built on 2019-01-30
// Device information: 
//  DeviceId: 00B43876
//  ProductCode: MTW2-3A7G6
//  Firmware Version: 4.3.4
//  Hardware Version: 1.1.0
// Device settings: 
//  Filter Profile: human(46.1)
//  Option Flags: Orientation Smoother Disabled, AHS Disabled, ICC Disabled
// Coordinate system: ENU
PacketCounter,SampleTimeFine,Acc_X,Acc_Y,Acc_Z,FreeAcc_E,FreeAcc_N,FreeAcc_U,Gyr_X,Gyr_Y,Gyr_Z,Quat_q0,Quat_q1,Quat_q2,Quat_q3,Roll,Pitch,Yaw
06903,NaN,-1.968796,9.659351,-1.228086,-0.021024,-0.121037,0.120707,-0.010332,-0.003608,0.001210,0.605207,0.619641,0.424451,0.263839,97.499940,10.765537,59.374319
06904,NaN,-2.002990,9.733472,-1.203709,-0.003642,-0.155473,0.196168,-0.016415,-0.018192,-0.001370,0.605294,0.619643,0.424347,0.263803,97.489699,10.765018,59.359851
06905,NaN,-1.873810,9.662343,-1.456004,-0.167271,0.080560,0.135052,-0.012639,-0.026262,0.002081,0.605382,0.619673,0.424213,0.263745,97.480725,10.763195,59.340440
06906,NaN,-2.100077,9.771495,-1.779094,-0.529721,0.070104,0.324970,0.001891,0.022452,-0.019202,0.605350,0.619638,0.424311,0.263742,97.485616,10.769771,59.350829
06907,NaN,-2.050017,9.489055,-1.624880,-0.432468,0.005541,0.020822,-0.015927,0.070665,-0.023068,0.605279,0.619476,0.424544,0.263912,97.485339,10.775411,59.389151
06908,NaN,-1.958964,9.478488,-1.559115,-0.332332,0.047493,-0.014861,-0.010436,0.132135,-0.044483,0.605085,0.619205,0.425036,0.264199,97.495394,10.788155,59.464891
06909,NaN,-1.900046,9.454011,-1.497278,-0.253246,0.063015,-0.057574,-0.010319,0.164673,-0.047363,0.604826,0.618885,0.425635,0.264578,97.509012,10.800203,59.559677
06910,NaN,-1.820575,9.462234,-1.405940,-0.132029,0.083611,-0.076127,-0.010943,0.178479,-0.051761,0.604545,0.618535,0.426289,0.264987,97.523941,10.813574,59.662785
06911,NaN,-1.701505,9.517416,-1.353546,-0.014373,0.163177,-0.051458,-0.016210,0.177366,-0.053786,0.604282,0.618169,0.426938,0.265394,97.536249,10.828174,59.765147
06912,NaN,-1.693180,9.551646,-1.240571,0.094515,0.116420,-0.034276,-0.030110,0.183962,-0.059568,0.604057,0.617737,0.427606,0.265837,97.540961,10.845528,59.872039
06913,NaN,-1.836806,9.638079,-1.159026,0.111901,-0.037427,0.066373,-0.037294,0.165136,-0.045644,0.603878,0.617335,0.428165,0.266276,97.539163,10.856817,59.966760
06914,NaN,-1.934007,9.699824,-1.240702,0.007976,-0.069058,0.155335,-0.049662,0.120613,-0.050118,0.603836,0.616947,0.428586,0.266594,97.525683,10.873572,60.036298
06915,NaN,-2.031046,9.815505,-1.180619,0.034056,-0.168289,0.278579,-0.053045,0.104258,-0.030586,0.603814,0.616612,0.428893,0.266925,97.508180,10.880737,60.094734
06916,NaN,-2.213846,9.958659,-1.130044,0.014331,-0.333092,0.446057,-0.065787,0.075826,-0.025033,0.603884,0.616288,0.429079,0.267214,97.480229,10.886635,60.136447
06917,NaN,-2.240184,9.927343,-1.112228,0.005492,-0.364289,0.418387,-0.078230,0.043895,-0.010315,0.604044,0.615999,0.429108,0.267475,97.441115,10.886945,60.158504
06918,NaN,-2.100172,9.876875,-1.144040,0.030142,-0.230152,0.346954,-0.085587,0.019229,-0.002032,0.604265,0.615740,0.429026,0.267702,97.395308,10.884017,60.165732
06919,NaN,-2.146299,9.848749,-1.111849,0.021333,-0.285299,0.324315,-0.092026,-0.006545,0.009364,0.604546,0.615521,0.428823,0.267896,97.342876,10.876664,60.157098
06920,NaN,-2.114365,9.742122,-1.124882,-0.004891,-0.258659,0.216166,-0.094053,-0.032724,0.019246,0.604876,0.615352,0.428508,0.268046,97.286250,10.865446,60.132686
06921,NaN,-2.074564,9.704165,-1.138068,-0.013617,-0.218112,0.173407,-0.092294,-0.049146,0.014072,0.605247,0.615197,0.428161,0.268117,97.228781,10.859185,60.098525
06922,NaN,-2.065269,9.635173,-1.097292,0.002263,-0.234176,0.099482,-0.092497,-0.061839,0.015434,0.605639,0.615063,0.427770,0.268162,97.169935,10.852176,60.057563
06923,NaN,-1.991523,9.523457,-1.133836,-0.023859,-0.159606,-0.018713,-0.084577,-0.061522,0.009324,0.606018,0.614939,0.427410,0.268165,97.115683,10.849323,60.016644
06924,NaN,-1.896524,9.530727,-1.156298,-0.002790,-0.062006,-0.026742,-0.083539,-0.066762,-0.000877,0.606415,0.614803,0.427067,0.268126,97.061661,10.851859,59.974022
06925,NaN,-1.998687,9.508352,-1.172686,-0.078401,-0.137330,-0.027306,-0.077472,-0.064213,-0.013240,0.606805,0.614657,0.426778,0.268038,97.011737,10.861684,59.933250
06926,NaN,-2.059717,9.533123,-1.071805,-0.024109,-0.232691,-0.003666,-0.075770,-0.061754,-0.028337,0.607204,0.614480,0.426544,0.267914,96.963065,10.879415,59.895469
06927,NaN,-2.079248,9.552565,-0.994156,0.030332,-0.280141,0.009924,-0.081937,-0.059609,-0.037246,0.607633,0.614263,0.426336,0.267771,96.911375,10.903063,59.858516
06928,NaN,-2.000248,9.560234,-1.089904,-0.015363,-0.154995,0.013944,-0.070569,-0.055429,-0.043187,0.608022,0.614060,0.426174,0.267610,96.866537,10.928742,59.825401
06929,NaN,-2.075594,9.689595,-1.134901,-0.068387,-0.174405,0.159736,-0.052490,-0.059374,-0.052297,0.608384,0.613896,0.426052,0.267356,96.831453,10.961508,59.789354
06930,NaN,-2.038861,9.788591,-1.224690,-0.109012,-0.078976,0.259810,-0.044815,-0.065488,-0.047457,0.608721,0.613776,0.425907,0.267097,96.800275,10.990260,59.750665
06931,NaN,-1.969957,9.866630,-1.354128,-0.170467,0.061945,0.337775,-0.029418,-0.078693,-0.046337,0.609043,0.613724,0.425739,0.266750,96.776562,11.020732,59.702815
06932,NaN,-1.815923,9.987202,-1.390230,-0.102006,0.230374,0.429921,-0.027343,-0.100782,-0.038687,0.609389,0.613723,0.425482,0.266372,96.751319,11.046843,59.643030
06933,NaN,-1.744097,10.065073,-1.363880,-0.029880,0.292289,0.488837,-0.026620,-0.119869,-0.035387,0.609777,0.613756,0.425158,0.265924,96.724366,11.074151,59.570286
06934,NaN,-1.690828,10.092944,-1.310704,0.045641,0.318820,0.499472,-0.022867,-0.133222,-0.033143,0.610171,0.613823,0.424792,0.265453,96.697937,11.099226,59.491276
06935,NaN,-1.626070,10.067454,-1.327090,0.058063,0.385632,0.463831,-0.017454,-0.135205,-0.035751,0.610554,0.613903,0.424434,0.264956,96.674434,11.125917,59.411283
06936,NaN,-1.645722,10.016552,-1.338341,0.028216,0.375771,0.419070,-0.015892,-0.133888,-0.038625,0.610934,0.613980,0.424091,0.264451,96.651919,11.154091,59.332222
06937,NaN,-1.695238,9.933931,-1.296003,0.022961,0.309435,0.343107,-0.008501,-0.136924,-0.047188,0.611309,0.614065,0.423775,0.263895,96.633419,11.187339,59.251968
06938,NaN,-1.695278,9.793695,-1.305218,-0.011964,0.305458,0.207322,-0.005471,-0.127579,-0.039116,0.611644,0.614163,0.423466,0.263386,96.617502,11.215324,59.176565
06939,NaN,-1.701591,9.706395,-1.287543,-0.017133,0.286932,0.121328,-0.007320,-0.121728,-0.036174,0.611967,0.614255,0.423163,0.262907,96.601167,11.241251,59.104353
06940,NaN,-1.641897,9.594529,-1.248828,0.023533,0.309997,-0.003828,-0.010582,-0.112879,-0.037611,0.612284,0.614321,0.422888,0.262458,96.583894,11.267370,59.037350
06941,NaN,-1.571019,9.464223,-1.237469,0.043200,0.354476,-0.146073,-0.008525,-0.102420,-0.032697,0.612565,0.614390,0.422632,0.262052,96.568949,11.290006,58.976085
06942,NaN,-1.533467,9.337790,-1.286552,-0.003945,0.402698,-0.271257,-0.007482,-0.095629,-0.027813,0.612823,0.614463,0.422383,0.261679,96.555229,11.309384,58.918416
06943,NaN,-1.485677,9.297076,-1.236942,0.054150,0.415550,-0.325998,-0.000614,-0.090067,-0.023812,0.613042,0.614559,0.422147,0.261321,96.546066,11.326122,58.863712
06944,NaN,-1.422634,9.237505,-1.257020,0.057883,0.475584,-0.394303,-0.000133,-0.091459,-0.018264,0.613255,0.614669,0.421891,0.260975,96.536872,11.339772,58.807814
06945,NaN,-1.355479,9.212291,-1.277592,0.070366,0.542444,-0.429901,0.007696,-0.087498,-0.015420,0.613432,0.614804,0.421648,0.260633,96.532630,11.351544,58.754035
06946,NaN,-1.314674,9.259459,-1.358764,0.033500,0.626699,-0.383036,0.012609,-0.081366,-0.009737,0.613573,0.614958,0.421413,0.260317,96.531755,11.359672,58.703423
06947,NaN,-1.228464,9.284407,-1.407816,0.042461,0.728622,-0.370305,0.017464,-0.082657,-0.001532,0.613691,0.615146,0.421155,0.260012,96.533471,11.363212,58.651529
06948,NaN,-1.173312,9.364884,-1.376185,0.114431,0.766270,-0.306304,0.024839,-0.071068,0.005407,0.613754,0.615356,0.420921,0.259748,96.540576,11.362052,58.605889
06949,NaN,-1.110120,9.392554,-1.372567,0.156683,0.818507,-0.292085,0.030731,-0.060305,0.019553,0.613756,0.615600,0.420684,0.259549,96.552183,11.352131,58.565570
06950,NaN,-1.083719,9.424394,-1.387464,0.165459,0.848729,-0.264337,0.038573,-0.050109,0.031984,0.613697,0.615880,0.420450,0.259402,96.569217,11.334490,58.530326
06951,NaN,-1.124494,9.498452,-1.480531,0.082694,0.867497,-0.173307,0.042068,-0.033778,0.051372,0.613568,0.616191,0.420210,0.259358,96.589954,11.304725,58.503276
06952,NaN,-1.065339,9.527197,-1.593347,0.024890,0.973177,-0.143485,0.048533,-0.010743,0.078108,0.613335,0.616548,0.419968,0.259453,96.616595,11.258265,58.487774
06953,NaN,-1.042476,9.577897,-1.583358,0.054683,0.981943,-0.098642,0.053067,0.009751,0.101762,0.613015,0.616942,0.419721,0.259674,96.647937,11.196952,58.482564
06954,NaN,-1.111135,9.622059,-1.540113,0.063092,0.892663,-0.045920,0.060023,0.023510,0.132380,0.612604,0.617402,0.419430,0.260017,96.684318,11.117345,58.483206
06955,NaN,-1.015900,9.648521,-1.511267,0.138779,0.942969,-0.040202,0.064191,0.047367,0.167606,0.612084,0.617919,0.419109,0.260533,96.725365,11.016040,58.495244
06956,NaN,-1.022171,9.617546,-1.505892,0.129950,0.911772,-0.067869,0.067501,0.074994,0.200373,0.611453,0.618477,0.418775,0.261227,96.770791,10.894278,58.520944
06957,NaN,-1.046062,9.589402,-1.489181,0.121044,0.856662,-0.090549,0.077630,0.092371,0.233798,0.610708,0.619113,0.418404,0.262055,96.823497,10.752233,58.554304
06958,NaN,-0.923430,9.579247,-1.474463,0.188087,0.924069,-0.122518,0.081466,0.104987,0.265244,0.609884,0.619808,0.417978,0.263010,96.879133,10.591474,58.592607
06959,NaN,-0.861125,9.541704,-1.465529,0.212841,0.938755,-0.168685,0.087730,0.109891,0.295253,0.608988,0.620578,0.417481,0.264057,96.938454,10.413183,58.631482
06960,NaN,-0.742111,9.566309,-1.523627,0.221921,1.040643,-0.155868,0.092085,0.081384,0.317273,0.608109,0.621442,0.416833,0.265074,96.996772,10.224398,58.652089
06961,NaN,-0.535984,9.580317,-1.432497,0.398043,1.132986,-0.185663,0.108792,0.061637,0.341805,0.607183,0.622433,0.416070,0.266068,97.062356,10.022923,58.659346
06962,NaN,-0.626999,9.510473,-1.396991,0.359060,0.996963,-0.238198,0.107270,0.060173,0.347849,0.606256,0.623430,0.415280,0.267078,97.126669,9.818209,58.665064
06963,NaN,-0.879770,9.480515,-1.407097,0.207053,0.751487,-0.219650,0.126155,0.051476,0.360842,0.605267,0.624523,0.414447,0.268061,97.200850,9.606603,58.664594
06964,NaN,-0.972529,9.394587,-1.472878,0.080343,0.664674,-0.277223,0.139351,0.048841,0.371618,0.604227,0.625678,0.413589,0.269039,97.282049,9.389184,58.661502
06965,NaN,-0.980198,9.419414,-1.520122,0.034500,0.646512,-0.243068,0.150050,0.041285,0.385499,0.603147,0.626902,0.412676,0.270012,97.368591,9.164301,58.652735
06966,NaN,-0.756296,9.463197,-1.518017,0.152762,0.797243,-0.233053,0.159819,0.017126,0.394187,0.602072,0.628202,0.411675,0.270914,97.458302,8.936414,58.629050
06967,NaN,-0.421824,9.490162,-1.420593,0.404867,0.988064,-0.267067,0.168710,0.012308,0.406214,0.600959,0.629559,0.410632,0.271819,97.552708,8.701950,58.601354
06968,NaN,-0.267044,9.487973,-1.481911,0.426467,1.109485,-0.279796,0.166730,0.022064,0.407362,0.599829,0.630894,0.409610,0.272759,97.646733,8.466283,58.578776
06969,NaN,-0.385750,9.495646,-1.428585,0.404701,0.939198,-0.257012,0.168680,0.031089,0.409409,0.598667,0.632225,0.408608,0.273730,97.742771,8.228638,58.560863
06970,NaN,-0.497388,9.518065,-1.517489,0.270686,0.850760,-0.202978,0.177599,0.042372,0.410646,0.597451,0.633566,0.407647,0.274719,97.844706,7.989606,58.548893
06971,NaN,-0.588064,9.610427,-1.494294,0.254129,0.722251,-0.099158,0.175109,0.059619,0.418462,0.596192,0.634889,0.406707,0.275791,97.946606,7.744626,58.545787
06972,NaN,-0.650047,9.681896,-1.468146,0.249995,0.613329,-0.020943,0.177975,0.068967,0.439403,0.594874,0.636246,0.405730,0.276947,98.050457,7.487201,58.545880
06973,NaN,-0.545904,9.723902,-1.495972,0.280032,0.669752,0.013961,0.178282,0.083295,0.463929,0.593487,0.637630,0.404716,0.278220,98.155349,7.214520,58.551723
06974,NaN,-0.425463,9.816908,-1.468261,0.373175,0.709543,0.090118,0.179190,0.109767,0.482686,0.592015,0.639013,0.403719,0.279628,98.262209,6.929214,58.570611
06975,NaN,-0.321188,9.875611,-1.511306,0.390901,0.770283,0.145652,0.164655,0.131673,0.493630,0.590524,0.640341,0.402728,0.281167,98.362088,6.635654,58.600588
06976,NaN,-0.239398,10.008130,-1.573374,0.392597,0.822588,0.280104,0.150261,0.155712,0.500795,0.589017,0.641602,0.401763,0.282830,98.454853,6.336171,58.643134
06977,NaN,-0.434621,9.932891,-1.595454,0.244189,0.613918,0.235194,0.128839,0.182742,0.512438,0.587503,0.642780,0.400805,0.284656,98.536756,6.027522,58.699636
06978,NaN,-0.605100,9.875736,-1.530062,0.183508,0.379943,0.190267,0.123810,0.190434,0.529799,0.585961,0.643962,0.399805,0.286564,98.615583,5.708517,58.758536
06979,NaN,-0.713957,9.845154,-1.416996,0.198463,0.172705,0.156022,0.116538,0.207502,0.543498,0.584382,0.645120,0.398796,0.288581,98.690826,5.379979,58.825522
06980,NaN,-0.768895,9.731996,-1.378622,0.163005,0.049589,0.045011,0.114429,0.199615,0.570275,0.582784,0.646330,0.397672,0.290651,98.763673,5.037100,58.885198
06981,NaN,-0.717396,9.685382,-1.332228,0.199865,0.012092,-0.011886,0.113400,0.177927,0.592846,0.581191,0.647608,0.396405,0.292716,98.834450,4.683041,58.930123
06982,NaN,-0.687643,9.553363,-1.340112,0.164896,-0.015380,-0.142746,0.123895,0.155027,0.609751,0.579581,0.648976,0.395029,0.294732,98.909652,4.321606,58.960049
06983,NaN,-0.761978,9.463433,-1.348408,0.083679,-0.132212,-0.224644,0.130253,0.123204,0.625499,0.577983,0.650435,0.393515,0.296676,98.986996,3.953826,58.970033
06984,NaN,-0.795219,9.294017,-1.347445,0.018629,-0.216584,-0.390418,0.143986,0.083636,0.634406,0.576399,0.652001,0.391873,0.298485,99.070454,3.584778,58.956234
06985,NaN,-0.760817,9.181068,-1.300351,0.037990,-0.267509,-0.512771,0.158479,0.061183,0.641042,0.574795,0.653650,0.390162,0.300210,99.161607,3.213811,58.928568
06986,NaN,-0.841536,9.112091,-1.327110,-0.055585,-0.379901,-0.574080,0.175059,0.047975,0.649978,0.573144,0.655375,0.388405,0.301881,99.261843,2.839273,58.891973
06987,NaN,-0.939661,9.032171,-1.327478,-0.136982,-0.520562,-0.651072,0.185424,0.035799,0.658265,0.571461,0.657157,0.386597,0.303512,99.367996,2.461026,58.847070
06988,NaN,-0.835673,8.950698,-1.376581,-0.154075,-0.462761,-0.731382,0.202565,0.024385,0.657067,0.569741,0.658994,0.384781,0.305065,99.483862,2.084834,58.795086
06989,NaN,-0.837153,8.844474,-1.394051,-0.201532,-0.509717,-0.836710,0.217932,0.023379,0.660765,0.567958,0.660877,0.382969,0.306593,99.608939,1.706549,58.741417
06990,NaN,-0.749895,8.818777,-1.451204,-0.222331,-0.464743,-0.858725,0.228928,0.022336,0.658085,0.566140,0.662779,0.381175,0.308084,99.740518,1.330208,58.686566
06991,NaN,-0.778358,8.696767,-1.556705,-0.357518,-0.486211,-0.964048,0.238197,0.009379,0.643724,0.564329,0.664692,0.379402,0.309470,99.877748,0.963171,58.624938
06992,NaN,-0.921763,8.662559,-1.654200,-0.530406,-0.614137,-0.982785,0.252222,-0.015579,0.627245,0.562539,0.666643,0.377630,0.310697,100.023099,0.608256,58.549946
06993,NaN,-0.806009,8.610908,-1.635786,-0.472067,-0.577432,-1.042474,0.256044,-0.026875,0.607412,0.560780,0.668579,0.375894,0.311819,100.171177,0.265671,58.469681
06994,NaN,-1.113869,8.511440,-1.560203,-0.593277,-0.924986,-1.157531,0.262525,-0.014864,0.588557,0.559003,0.670470,0.374262,0.312913,100.323334,-0.067110,58.397204
06995,NaN,0.222683,8.544411,-2.384195,-0.583257,0.582593,-0.977467,0.275406,-0.076166,0.530268,0.557381,0.672378,0.372669,0.313612,100.483499,-0.360672,58.295313
06996,NaN,-2.077158,10.558554,-2.105547,-1.249818,-1.760338,0.937665,0.241923,-0.151163,0.211834,0.556508,0.673712,0.371883,0.313231,100.624782,-0.466561,58.183815
06997,NaN,-5.802916,8.291931,-0.797137,-2.460507,-5.386425,-1.566615,0.166273,-0.098759,0.105253,0.555957,0.674555,0.371483,0.312870,100.722655,-0.517921,58.112918
06998,NaN,-3.612783,9.461688,-1.594688,-1.785057,-3.250334,-0.254045,0.220606,-0.141063,0.096448,0.555316,0.675596,0.371079,0.312241,100.851802,-0.559496,58.019048
06999,NaN,-5.608676,9.583976,-1.001408,-2.317617,-5.268454,-0.263620,0.140690,-0.134656,-0.108600,0.555251,0.676025,0.371261,0.311211,100.935020,-0.486294,57.950910
07000,NaN,-5.590293,9.509223,-0.540661,-1.923448,-5.477654,-0.417761,0.158858,-0.175801,-0.131758,0.555237,0.676523,0.371434,0.309944,101.028588,-0.395400,57.862269
07001,NaN,-0.449242,10.548529,-1.366524,0.306191,-0.804670,0.798598,0.212756,-0.290710,-0.038099,0.555107,0.677522,0.371054,0.308446,101.153510,-0.344304,57.698867
07002,NaN,0.944497,10.558753,-2.189772,0.393192,0.801065,0.975180,0.158968,-0.368847,-0.066261,0.555346,0.678437,0.370468,0.306705,101.247549,-0.268401,57.494784
07003,NaN,1.090176,10.131116,-2.113696,0.486560,0.934526,0.540360,0.066891,-0.335174,-0.086103,0.555862,0.679005,0.369901,0.305192,101.288559,-0.184850,57.311932
07004,NaN,0.643967,9.013480,-1.692064,0.424876,0.466554,-0.640862,-0.006466,-0.290246,-0.117353,0.556592,0.679241,0.369451,0.303880,101.287089,-0.088744,57.157860
07005,NaN,-1.338094,8.945535,-3.212789,-1.904256,-0.367981,-0.411971,0.032236,-0.341731,-0.117788,0.557283,0.679660,0.368917,0.302319,101.307640,0.013425,56.974926
07006,NaN,-2.275179,13.194349,-2.363561,-1.017519,-2.042810,3.590493,-0.081180,-0.339964,-0.010593,0.558194,0.679956,0.367852,0.301272,101.262878,0.055113,56.780945
07007,NaN,-1.815817,13.456552,-1.209548,0.207346,-2.294604,3.623485,-0.133012,-0.266720,0.070915,0.559021,0.680145,0.366634,0.300794,101.188499,0.042666,56.618989
07008,NaN,-1.089059,11.098083,-0.217722,1.014718,-1.969307,1.118600,-0.140146,-0.234186,0.098616,0.559770,0.680315,0.365402,0.300518,101.110000,0.010784,56.472273
07009,NaN,0.607443,9.115284,-0.796273,1.144411,-0.029973,-0.714289,-0.117129,-0.246403,0.066557,0.560510,0.680507,0.364279,0.300067,101.044817,-0.001843,56.322252
07010,NaN,1.539134,8.957269,-1.983335,0.660315,1.408823,-0.641296,-0.079332,-0.316598,0.076829,0.561232,0.680927,0.362979,0.299338,101.001254,-0.012768,56.131646
07011,NaN,1.275295,9.671027,-2.061098,0.560461,1.157382,0.074153,-0.083542,-0.335458,0.066686,0.562017,0.681343,0.361654,0.298521,100.955370,-0.016028,55.931544
07012,NaN,-0.004355,10.041386,-1.428228,0.411088,-0.287606,0.317345,-0.087993,-0.293978,0.057235,0.562754,0.681666,0.360469,0.297827,100.906873,-0.018693,55.755810
07013,NaN,0.070513,10.932445,-1.154492,0.806912,-0.470754,1.141008,-0.056544,-0.260854,0.064685,0.563312,0.682040,0.359399,0.297210,100.876471,-0.029217,55.597905
07014,NaN,0.112747,10.608615,-1.184357,0.750229,-0.385530,0.829053,-0.036814,-0.190660,0.050359,0.563697,0.682338,0.358604,0.296756,100.857315,-0.039371,55.481052
07015,NaN,0.421177,10.135094,-1.327285,0.732902,-0.002389,0.391334,-0.012541,-0.135009,0.033878,0.563923,0.682592,0.358058,0.296401,100.852105,-0.046241,55.397292
07016,NaN,0.343348,9.886743,-1.547704,0.472149,0.082066,0.188878,0.008480,-0.119929,0.010714,0.564085,0.682841,0.357664,0.295994,100.858886,-0.041742,55.324519
07017,NaN,0.222385,9.816578,-1.748470,0.233403,0.101871,0.157616,0.033763,-0.103217,-0.010959,0.564162,0.683098,0.357429,0.295539,100.880172,-0.026803,55.263491
07018,NaN,0.103560,9.928696,-1.714187,0.216440,-0.026845,0.261071,0.047587,-0.087543,-0.033636,0.564198,0.683329,0.357335,0.295048,100.909316,-0.000808,55.213745
07019,NaN,0.051334,10.042207,-1.620588,0.287525,-0.133374,0.354633,0.058452,-0.072061,-0.054179,0.564199,0.683532,0.357372,0.294532,100.944696,0.035120,55.174954
07020,NaN,0.045403,9.963848,-1.675391,0.237003,-0.097377,0.287887,0.065804,-0.052307,-0.067793,0.564159,0.683702,0.357521,0.294033,100.984240,0.076548,55.148782
07021,NaN,0.127431,9.975070,-1.834319,0.167856,0.060581,0.328868,0.062699,-0.046863,-0.084631,0.564145,0.683824,0.357739,0.293510,101.022022,0.126898,55.127541
07022,NaN,0.109622,9.872762,-1.985803,0.029874,0.146172,0.257297,0.050863,-0.037242,-0.095405,0.564169,0.683880,0.358003,0.293010,101.052992,0.182235,55.112923
07023,NaN,-0.104768,9.766509,-2.060584,-0.160594,0.029215,0.168046,0.030293,-0.023436,-0.100097,0.564246,0.683849,0.358292,0.292581,101.072221,0.238725,55.106608
07024,NaN,-0.130223,9.764295,-2.134122,-0.227155,0.056670,0.180214,0.009278,-0.014520,-0.101809,0.564382,0.683742,0.358581,0.292216,101.079398,0.295172,55.105509
07025,NaN,-0.130220,9.796999,-2.137012,-0.218351,0.062794,0.212947,-0.010383,-0.018293,-0.101350,0.564590,0.683586,0.358829,0.291874,101.075330,0.351804,55.102237
07026,NaN,-0.160127,9.804623,-2.122419,-0.218524,0.038365,0.217851,-0.034882,-0.019224,-0.097549,0.564878,0.683369,0.359025,0.291584,101.057182,0.406372,55.098015
07027,NaN,-0.253394,9.642347,-2.204088,-0.362311,0.034722,0.074910,-0.063508,-0.014222,-0.088784,0.565242,0.683079,0.359164,0.291386,101.022679,0.455490,55.095617
07028,NaN,-0.102072,9.709456,-2.124554,-0.201786,0.117718,0.124269,-0.078888,0.000095,-0.085595,0.565628,0.682730,0.359310,0.291274,100.979390,0.501218,55.100892
07029,NaN,-0.032732,9.823708,-2.010022,-0.054383,0.109349,0.213856,-0.098359,0.022714,-0.077628,0.566028,0.682308,0.359464,0.291297,100.925097,0.540038,55.117983
07030,NaN,-0.138301,9.565499,-2.006634,-0.157913,0.057884,-0.039450,-0.108858,0.036524,-0.077994,0.566439,0.681834,0.359643,0.291385,100.864835,0.577554,55.142846
07031,NaN,-0.154443,9.607611,-1.986699,-0.149319,0.040083,-0.001821,-0.109383,0.043310,-0.073444,0.566833,0.681358,0.359825,0.291509,100.804365,0.611835,55.170998
07032,NaN,-0.021503,9.746299,-1.783713,0.107016,0.032157,0.094882,-0.109777,0.056767,-0.076464,0.567209,0.680854,0.360055,0.291671,100.743729,0.646374,55.207014
07033,NaN,-0.042463,9.723650,-1.686778,0.164631,-0.026915,0.054863,-0.099446,0.068699,-0.073093,0.567522,0.680369,0.360322,0.291865,100.689150,0.677811,55.249352
07034,NaN,-0.283579,9.596554,-1.692560,-0.001773,-0.200165,-0.065947,-0.087790,0.081637,-0.073085,0.567772,0.679897,0.360642,0.292082,100.641317,0.707878,55.298948
07035,NaN,-0.008186,9.763231,-1.713745,0.161574,0.030796,0.098448,-0.066849,0.084066,-0.076766,0.567952,0.679475,0.361013,0.292258,100.605571,0.739829,55.350279
07036,NaN,-0.098323,9.445754,-1.709797,0.061765,-0.007575,-0.213132,-0.058499,0.093405,-0.085852,0.568100,0.679045,0.361452,0.292425,100.574681,0.775913,55.407809
07037,NaN,-0.082403,9.727085,-1.730819,0.098154,-0.001025,0.067043,-0.047218,0.103397,-0.090063,0.568197,0.678625,0.361951,0.292594,100.550415,0.813376,55.471392
07038,NaN,-0.064732,9.688961,-1.664858,0.156180,-0.012268,0.017235,-0.035860,0.118126,-0.094651,0.568235,0.678208,0.362523,0.292779,100.532787,0.851874,55.543741
07039,NaN,0.027441,9.654742,-1.723142,0.157330,0.106799,-0.007186,-0.029419,0.130456,-0.102591,0.568241,0.677776,0.363167,0.292971,100.519056,0.893601,55.623858
07040,NaN,-0.146273,9.697315,-1.820227,-0.010505,0.020884,0.055037,-0.026540,0.147010,-0.103579,0.568208,0.677325,0.363865,0.293212,100.507144,0.934145,55.713397
07041,NaN,-0.202359,9.591618,-1.739985,0.008434,-0.053655,-0.062576,-0.026545,0.165238,-0.109687,0.568150,0.676836,0.364636,0.293496,100.495513,0.976271,55.813836
07042,NaN,-0.043524,9.778655,-1.716047,0.149670,0.055294,0.114212,-0.024734,0.173324,-0.116440,0.568080,0.676327,0.365454,0.293785,100.485050,1.021351,55.919530
07043,NaN,-0.202867,9.807918,-1.683705,0.093837,-0.088962,0.139928,-0.037686,0.177470,-0.119382,0.568051,0.675770,0.366275,0.294103,100.467335,1.067707,56.027857
07044,NaN,-0.260211,9.753974,-1.877179,-0.102264,-0.016249,0.123147,-0.041766,0.161590,-0.122569,0.568068,0.675217,0.367055,0.294365,100.447173,1.117522,56.127553
07045,NaN,-0.293162,9.720376,-1.942432,-0.177561,0.004705,0.102611,-0.053590,0.150184,-0.127556,0.568154,0.674638,0.367801,0.294596,100.420243,1.171396,56.221319
07046,NaN,-0.149864,9.879715,-1.868911,-0.011913,0.081006,0.243025,-0.077350,0.151440,-0.129648,0.568319,0.673985,0.368523,0.294869,100.379772,1.226350,56.315980
07047,NaN,0.033373,9.908768,-1.947665,0.028676,0.287267,0.281610,-0.097576,0.141363,-0.138158,0.568583,0.673273,0.369215,0.295121,100.327739,1.287239,56.405793
07048,NaN,-0.129185,9.679373,-2.012473,-0.154242,0.220722,0.070858,-0.124297,0.134780,-0.144691,0.568959,0.672482,0.369870,0.295381,100.260386,1.352553,56.492503
07049,NaN,-0.259485,9.575854,-1.943038,-0.190290,0.098213,-0.040593,-0.139237,0.137072,-0.146242,0.569381,0.671642,0.370514,0.295671,100.184646,1.418639,56.580584
07050,NaN,-0.246245,9.725597,-1.770024,-0.022553,0.020009,0.075685,-0.154286,0.162740,-0.147206,0.569808,0.670717,0.371212,0.296073,100.100710,1.482779,56.683155
07051,NaN,-0.294857,9.752563,-1.533800,0.142951,-0.134449,0.062202,-0.149032,0.174919,-0.140452,0.570183,0.669801,0.371929,0.296524,100.020099,1.542060,56.791833
07052,NaN,-0.380570,9.631115,-1.530183,0.074193,-0.183104,-0.055351,-0.141851,0.171910,-0.140929,0.570539,0.668908,0.372649,0.296950,99.943625,1.602035,56.898781
07053,NaN,-0.452647,9.681109,-1.597718,-0.017425,-0.194728,0.007864,-0.135793,0.153948,-0.139415,0.570905,0.668061,0.373322,0.297308,99.870479,1.663089,56.995363
07054,NaN,-0.422881,9.684481,-1.667123,-0.062359,-0.117064,0.022438,-0.133601,0.146657,-0.135970,0.571272,0.667236,0.373964,0.297648,99.798517,1.723011,57.087414
07055,NaN,-0.435406,9.646154,-1.736980,-0.137398,-0.072121,-0.002954,-0.132087,0.131609,-0.133759,0.571658,0.666442,0.374558,0.297940,99.727289,1.783286,57.170678
07056,NaN,-0.355602,9.768438,-1.683630,-0.035213,-0.026644,0.106056,-0.129588,0.115109,-0.132091,0.572064,0.665681,0.375103,0.298177,99.657241,1.844289,57.244386
07057,NaN,-0.238896,9.881584,-1.611323,0.100631,0.040638,0.201669,-0.134218,0.125255,-0.125185,0.572454,0.664904,0.375646,0.298476,99.584817,1.900537,57.323093
07058,NaN,-0.396406,9.733407,-1.472832,0.100866,-0.142646,0.037949,-0.138669,0.150480,-0.107883,0.572786,0.664109,0.376197,0.298916,99.510294,1.944686,57.414346
07059,NaN,-0.534101,9.656578,-1.595106,-0.092678,-0.176281,-0.012716,-0.121329,0.158371,-0.092655,0.573022,0.663379,0.376745,0.299393,99.445907,1.979621,57.508572
07060,NaN,-0.715414,9.722353,-1.620388,-0.206701,-0.309723,0.062684,-0.115663,0.144232,-0.069826,0.573231,0.662729,0.377186,0.299878,99.384425,2.003055,57.592623
07061,NaN,-0.715777,9.666172,-1.677431,-0.269435,-0.269057,0.016657,-0.100973,0.136659,-0.042005,0.573363,0.662185,0.377534,0.300390,99.331178,2.011581,57.669774
07062,NaN,-0.671297,9.637219,-1.676396,-0.256609,-0.226035,-0.013708,-0.099851,0.167956,-0.014969,0.573392,0.661647,0.377883,0.301080,99.279068,2.001961,57.762118
07063,NaN,-0.583596,9.738514,-1.723700,-0.241731,-0.130804,0.090586,-0.088456,0.191710,0.003179,0.573310,0.661140,0.378258,0.301879,99.233909,1.980004,57.866235
07064,NaN,-0.821204,9.416699,-1.620173,-0.340281,-0.370755,-0.235616,-0.077516,0.224674,0.053652,0.573053,0.660708,0.378576,0.302910,99.195389,1.926516,57.984388
07065,NaN,-0.659324,9.702184,-1.547894,-0.160736,-0.294781,0.028568,-0.065106,0.246456,0.094544,0.572651,0.660356,0.378840,0.304107,99.164168,1.848023,58.111155
07066,NaN,-0.524412,9.439367,-1.499210,-0.099395,-0.201617,-0.243271,-0.037433,0.260389,0.123193,0.572086,0.660115,0.379091,0.305379,99.148736,1.752062,58.243221
07067,NaN,-0.280634,9.971535,-1.423467,0.162806,-0.077759,0.262230,-0.021142,0.247200,0.122142,0.571493,0.659938,0.379331,0.306572,99.142240,1.657971,58.367928
07068,NaN,0.044511,10.090420,-1.234745,0.496613,0.083209,0.340617,-0.097007,0.254558,0.109767,0.571154,0.659507,0.379516,0.307898,99.092188,1.570225,58.497966
07069,NaN,-0.139752,9.999794,-1.329398,0.293452,-0.028617,0.271744,-0.050232,0.265871,0.118651,0.570624,0.659208,0.379776,0.309197,99.068917,1.476558,58.633652
07070,NaN,-0.311814,10.090252,-1.295495,0.233279,-0.209834,0.360328,-0.061264,0.258320,0.126330,0.570133,0.658903,0.379970,0.310514,99.038940,1.379245,58.764411
07071,NaN,-0.373101,10.196762,-1.491692,0.038282,-0.180305,0.497710,-0.058846,0.266435,0.144494,0.569588,0.658625,0.380131,0.311903,99.010214,1.271035,58.898173
07072,NaN,-0.576675,10.171305,-1.510658,-0.102499,-0.357239,0.479636,-0.096184,0.302367,0.158981,0.569074,0.658210,0.380287,0.313523,98.960203,1.151459,59.051048
07073,NaN,-0.535050,10.509494,-1.493524,-0.036468,-0.366560,0.809488,-0.094584,0.293353,0.176616,0.568542,0.657845,0.380361,0.315158,98.910681,1.022885,59.197345
07074,NaN,-0.517268,10.186609,-1.635027,-0.214058,-0.275853,0.511357,-0.114311,0.317276,0.214726,0.567968,0.657457,0.380345,0.317018,98.849640,0.870714,59.353935
07075,NaN,-0.743196,10.209884,-1.630614,-0.346644,-0.494075,0.535675,-0.134693,0.326951,0.256520,0.567373,0.657072,0.380186,0.319065,98.776526,0.694268,59.512503
07076,NaN,-0.706902,10.390948,-1.715110,-0.402804,-0.455661,0.725013,-0.139344,0.317950,0.289336,0.566756,0.656748,0.379883,0.321183,98.700126,0.500175,59.663343
07077,NaN,-0.609570,10.107245,-1.746220,-0.450324,-0.362527,0.446109,-0.178290,0.330059,0.344800,0.566152,0.656395,0.379368,0.323570,98.600905,0.273915,59.816552
07078,NaN,-0.498791,10.722769,-1.742870,-0.347576,-0.341676,1.051309,-0.178217,0.325382,0.380527,0.565494,0.656113,0.378720,0.326041,98.501050,0.028016,59.964461
07079,NaN,-0.280227,10.768681,-1.586458,-0.141040,-0.265931,1.071659,-0.226442,0.366861,0.427236,0.564836,0.655711,0.377955,0.328868,98.372885,-0.247478,60.132436
07080,NaN,-0.284961,10.954438,-1.568441,-0.152653,-0.329770,1.251152,-0.218682,0.428503,0.472228,0.563955,0.655307,0.377225,0.332006,98.248059,-0.553284,60.332250
07081,NaN,-0.403138,11.250663,-1.631247,-0.281377,-0.467783,1.549641,-0.237026,0.490861,0.512816,0.562943,0.654817,0.376503,0.335494,98.111229,-0.886658,60.564826
07082,NaN,-0.558799,11.454888,-1.609576,-0.370353,-0.677461,1.742437,-0.236308,0.524510,0.525142,0.561836,0.654285,0.375830,0.339120,97.973057,-1.229240,60.816333
07083,NaN,-0.534132,12.003855,-1.694475,-0.428089,-0.715675,2.293223,-0.214827,0.552579,0.580871,0.560503,0.653861,0.375085,0.342948,97.845344,-1.604990,61.080201
07084,NaN,-0.549614,12.662742,-1.562731,-0.315709,-0.914885,2.921195,-0.249617,0.664402,0.657157,0.558931,0.653277,0.374336,0.347415,97.693957,-2.032154,61.402645
07085,NaN,-2.179384,13.047702,-2.013160,-1.520743,-2.245607,3.290312,-0.307724,0.834193,0.696863,0.557147,0.652292,0.373822,0.352646,97.503065,-2.493665,61.819938
07086,NaN,-2.610594,13.400008,-1.473408,-1.295006,-2.998972,3.524258,-0.368154,0.910767,0.811833,0.555194,0.651195,0.373025,0.358547,97.272126,-3.024708,62.274175
07087,NaN,-2.023032,12.616915,-2.038513,-1.676196,-2.239820,2.820863,-0.398740,0.976899,0.936019,0.552971,0.650097,0.371936,0.365049,97.017385,-3.628986,62.759686
07088,NaN,-3.108229,11.899389,-2.441164,-2.676109,-3.055392,2.049725,-0.405428,0.950319,1.057689,0.550567,0.649222,0.370346,0.371795,96.754807,-4.298605,63.224747
07089,NaN,-2.628065,11.124081,-2.664048,-2.802042,-2.558959,1.293492,-0.381280,0.884983,1.163095,0.547979,0.648693,0.368259,0.378552,96.503798,-5.021596,63.648922
07090,NaN,-1.739219,10.704238,-3.403675,-3.187350,-1.519442,0.991034,-0.333371,0.810051,1.252705,0.545172,0.648565,0.365745,0.385203,96.278941,-5.789278,64.028015
07091,NaN,-1.161467,10.544064,-3.684027,-3.289351,-0.993343,0.877937,-0.307383,0.689838,1.312130,0.542356,0.648810,0.362741,0.391555,96.071372,-6.581710,64.337957
07092,NaN,-0.475294,10.076564,-3.893982,-3.296157,-0.351530,0.479825,-0.257854,0.527763,1.340166,0.539587,0.649522,0.359281,0.397347,95.898956,-7.379668,64.556334
07093,NaN,0.652583,9.927385,-4.227322,-3.208790,0.694250,0.486286,-0.203746,0.371801,1.357041,0.536861,0.650686,0.355437,0.402558,95.766595,-8.177290,64.686499
07094,NaN,1.443880,9.843039,-4.556910,-3.255485,1.426705,0.536232,-0.137258,0.283693,1.352831,0.534057,0.652166,0.351484,0.407335,95.677675,-8.967523,64.767961
07095,NaN,1.435748,10.232528,-4.640494,-3.400406,1.255997,0.918488,-0.103473,0.205185,1.326061,0.531310,0.653819,0.347463,0.411703,95.614136,-9.737658,64.806777
07096,NaN,0.989185,9.902726,-3.723673,-2.831789,0.425519,0.419937,-0.128063,0.121065,1.307654,0.528804,0.655518,0.343211,0.415775,95.544000,-10.492866,64.798961
07097,NaN,0.758111,9.584218,-2.808792,-2.167460,-0.198420,-0.036045,-0.144639,0.093863,1.259866,0.526476,0.657121,0.338996,0.419639,95.467010,-11.219026,64.778926
07098,NaN,0.071976,8.697677,-2.117116,-1.889322,-0.992923,-1.118975,-0.164336,0.119909,1.150694,0.524378,0.658407,0.335153,0.423322,95.374262,-11.884660,64.781201
07099,NaN,-1.506027,7.883037,-1.775406,-2.283769,-2.419812,-2.296653,-0.158419,0.159579,0.994801,0.522508,0.659344,0.331931,0.426701,95.278257,-12.463134,64.816158
07100,NaN,-2.711724,7.104987,-1.343606,-2.421417,-3.533618,-3.386997,-0.117094,0.141617,0.818938,0.520895,0.660120,0.329321,0.429486,95.205357,-12.940607,64.851070
07101,NaN,-3.690832,6.619615,-0.739867,-2.294974,-4.563208,-4.164768,-0.066551,0.069642,0.617794,0.519658,0.660843,0.327294,0.431417,95.168492,-13.299151,64.854949
07102,NaN,-3.691264,6.137618,-0.225196,-1.833533,-4.677767,-4.703570,0.039195,-0.069608,0.412604,0.518739,0.661799,0.325806,0.432182,95.208314,-13.533789,64.788156
07103,NaN,-4.130988,6.340422,-0.610151,-2.377327,-4.971531,-4.590573,0.131090,-0.241555,0.167617,0.518324,0.662965,0.324883,0.431588,95.321932,-13.619044,64.633226
07104,NaN,-5.900485,5.816630,-1.137890,-3.590952,-6.176069,-5.464711,0.237530,-0.430422,-0.102752,0.518444,0.664371,0.324593,0.429496,95.518790,-13.539932,64.382380
07105,NaN,-6.314021,5.674837,-1.251283,-3.873835,-6.436438,-5.665178,0.323023,-0.664632,-0.352586,0.519191,0.666089,0.324708,0.425830,95.792641,-13.303555,64.009149
07106,NaN,-5.994155,5.784245,-1.005689,-3.525692,-6.252343,-5.468018,0.370494,-0.841701,-0.581313,0.520541,0.667920,0.325215,0.420898,96.111399,-12.925029,63.548093
07107,NaN,-5.486172,6.067835,-0.727645,-3.060221,-5.951456,-5.052346,0.394225,-0.949036,-0.833561,0.522500,0.669604,0.326328,0.414891,96.449979,-12.392823,63.043558
07108,NaN,-5.255790,6.360489,-0.645718,-2.877967,-5.800491,-4.658380,0.413881,-0.969574,-1.090096,0.524930,0.670929,0.328266,0.408098,96.792270,-11.711063,62.548913
07109,NaN,-5.144462,6.715896,-0.538524,-2.709586,-5.764908,-4.219696,0.407952,-0.956255,-1.323348,0.527803,0.671785,0.330993,0.400715,97.119292,-10.893915,62.083802
07110,NaN,-4.943849,7.141941,-0.406590,-2.459603,-5.662356,-3.688902,0.387581,-0.930081,-1.540495,0.531093,0.672124,0.334446,0.392855,97.420664,-9.953598,61.655852
07111,NaN,-4.519538,7.657072,-0.343445,-2.141559,-5.334055,-3.020454,0.356097,-0.875675,-1.733421,0.534731,0.671887,0.338606,0.384677,97.688391,-8.904773,61.279902
07112,NaN,-4.339267,8.108104,-0.353463,-1.981788,-5.146888,-2.445538,0.304261,-0.802603,-1.919426,0.538719,0.670988,0.343446,0.376301,97.910038,-7.755419,60.966235
07113,NaN,-3.975977,8.522272,-0.372677,-1.722478,-4.764028,-1.881092,0.253798,-0.725391,-2.087085,0.542999,0.669440,0.348926,0.367768,98.088739,-6.514970,60.715041
07114,NaN,-3.611643,9.009556,-0.441050,-1.478565,-4.342399,-1.247407,0.199736,-0.632029,-2.225228,0.547478,0.667247,0.354973,0.359226,98.223689,-5.204132,60.532497
07115,NaN,-2.931612,9.504438,-0.616235,-1.148673,-3.566416,-0.578785,0.152308,-0.519456,-2.359434,0.552083,0.664389,0.361646,0.350719,98.321236,-3.824985,60.428054
07116,NaN,-2.268659,10.096031,-1.029069,-0.999964,-2.668924,0.187657,0.097409,-0.398070,-2.476324,0.556770,0.660856,0.368886,0.342346,98.380200,-2.390665,60.404398
07117,NaN,-1.802327,10.538723,-1.230268,-0.760699,-1.990498,0.736219,0.038068,-0.289168,-2.571480,0.561527,0.656686,0.376588,0.334114,98.402705,-0.910313,60.451426
07118,NaN,-1.510214,11.053750,-1.283802,-0.457525,-1.508232,1.305885,-0.014605,-0.203724,-2.675481,0.566369,0.651919,0.384712,0.325919,98.395939,0.620646,60.555844
07119,NaN,-1.275717,11.238212,-1.292184,-0.175088,-1.046475,1.521363,-0.042615,-0.106404,-2.750447,0.571137,0.646648,0.393246,0.317816,98.377624,2.187204,60.721338
07120,NaN,-1.151336,11.501044,-1.288157,0.081311,-0.672108,1.797298,-0.062317,-0.031144,-2.814050,0.575808,0.640952,0.402087,0.309760,98.354886,3.782387,60.934538
07121,NaN,-1.189339,11.649607,-1.400776,0.147236,-0.364369,1.974019,-0.061590,0.044180,-2.837897,0.580251,0.634965,0.411148,0.301805,98.342261,5.386113,61.192408
07122,NaN,-1.011545,11.764038,-1.433090,0.382388,0.099697,2.074454,-0.071775,0.124134,-2.837909,0.584442,0.628702,0.420337,0.294072,98.335745,6.982022,61.496336
07123,NaN,-1.097636,11.868336,-1.419770,0.529740,0.316154,2.174306,-0.070080,0.195936,-2.834858,0.588357,0.622215,0.429651,0.286503,98.344445,8.571450,61.842112
07124,NaN,-1.325698,11.367234,-1.418878,0.483691,0.371552,1.702701,0.021509,0.261045,-2.827816,0.591717,0.615798,0.439173,0.278912,98.421307,10.149973,62.227383
07125,NaN,-0.971193,12.109300,-1.501226,0.892354,1.066302,2.348297,0.022392,0.273855,-2.771435,0.594853,0.609365,0.448479,0.271461,98.510501,11.696118,62.619388
07126,NaN,-0.481985,11.862784,-1.694295,1.048474,1.838664,1.991552,0.071266,0.238372,-2.730210,0.597748,0.603105,0.457530,0.263872,98.633666,13.220012,62.992342
07127,NaN,0.183209,12.492933,-1.808565,1.539430,2.831907,2.393031,-0.015584,0.181189,-2.619429,0.600785,0.596802,0.465885,0.256585,98.707538,14.686643,63.327040
07128,NaN,0.107316,10.882759,-1.727944,1.315112,2.737338,0.779869,0.134280,0.129063,-2.672707,0.603456,0.590792,0.474348,0.248596,98.870022,16.186157,63.641387
07129,NaN,0.209279,12.318280,-1.359362,2.202639,3.159119,1.968271,0.248485,0.025739,-2.667162,0.605923,0.585159,0.482544,0.239996,99.090361,17.691866,63.901732
07130,NaN,0.323230,11.709747,-1.419996,2.182953,3.417631,1.268206,0.165976,-0.049435,-2.526055,0.608538,0.579610,0.489914,0.231769,99.253453,19.122669,64.111118
07131,NaN,0.604268,11.797634,-1.427852,2.454586,3.912782,1.153007,0.219209,-0.086706,-2.392761,0.610845,0.574503,0.496777,0.223667,99.442228,20.482008,64.291388
07132,NaN,1.287795,11.590691,-1.414749,2.809409,4.644016,0.605508,0.219899,-0.077227,-2.204314,0.612833,0.569781,0.503057,0.216144,99.632457,21.732357,64.464555
07133,NaN,1.915702,11.405316,-1.589800,2.964239,5.388769,0.109437,0.227303,-0.093979,-1.987875,0.614542,0.565579,0.508626,0.209186,99.820272,22.862511,64.610786
07134,NaN,2.934077,11.357623,-1.790587,3.275542,6.472417,-0.421965,0.241543,-0.123175,-1.734459,0.615963,0.562048,0.513354,0.202877,100.002617,23.851120,64.716925
07135,NaN,2.290549,12.016211,-2.504096,2.718029,6.600754,0.431631,0.303123,-0.149088,-1.423527,0.616924,0.559492,0.517162,0.197276,100.203136,24.667445,64.777168
07136,NaN,4.902574,11.204876,-1.487312,4.410765,8.101716,-1.645528,0.280570,-0.217585,-0.996969,0.617678,0.558016,0.519517,0.192854,100.354195,25.249291,64.749762
07137,NaN,5.874724,11.260649,-1.761340,4.626043,9.089455,-2.041074,0.235138,-0.165287,-0.515862,0.617949,0.557588,0.520642,0.190174,100.470211,25.555350,64.701299
07138,NaN,7.489143,10.984718,-1.550581,5.373521,10.221401,-3.044844,0.228693,-0.160754,0.022407,0.617710,0.558536,0.520269,0.189191,100.556717,25.557098,64.593759
07139,NaN,7.562765,11.466028,-1.240647,5.864391,10.237353,-2.670608,0.234668,-0.176868,0.571089,0.616973,0.560940,0.518318,0.189836,100.615459,25.252136,64.412448
07140,NaN,7.113098,12.000436,-0.066236,6.897803,9.361100,-2.105632,0.220852,-0.347989,1.170995,0.616134,0.565005,0.514128,0.191888,100.593398,24.626925,64.055608
07141,NaN,4.627317,12.422503,0.829671,6.821002,6.851560,-0.705311,0.231945,-0.696275,1.705561,0.615607,0.570777,0.507335,0.194559,100.470182,23.736934,63.425427
07142,NaN,-6.545220,11.535921,0.468082,1.561975,-2.534313,3.120596,0.187560,-0.818975,1.638579,0.615530,0.576313,0.500267,0.196772,100.305844,22.895640,62.734024
07143,NaN,-11.267177,8.745881,1.422719,-0.719081,-7.754337,2.221131,0.148074,-0.769193,1.437314,0.615593,0.581131,0.493856,0.198590,100.150424,22.161222,62.101772
07144,NaN,-4.459541,10.128987,2.383495,3.358301,-2.471134,0.712417,0.233133,-0.562953,1.410968,0.614887,0.585904,0.488208,0.200707,100.100469,21.419625,61.602340
07145,NaN,0.804243,12.314869,1.508944,5.592956,2.645633,0.971364,0.243004,-0.271995,1.587431,0.613226,0.590809,0.482918,0.204179,100.119969,20.549403,61.262635
07146,NaN,-0.497339,12.212240,-0.302436,3.400273,2.327893,1.697882,0.243726,0.093461,1.651215,0.610573,0.595456,0.478527,0.208912,100.218196,19.606273,61.136546
07147,NaN,-2.842869,11.398357,-1.968602,0.625892,0.924557,2.046081,0.338237,0.113107,1.545159,0.607662,0.600078,0.474578,0.213139,100.379589,18.721406,61.032124
07148,NaN,-2.142946,10.932196,-3.361609,-0.405290,1.982366,1.646337,0.473371,-0.153798,1.480906,0.605010,0.605205,0.470126,0.216037,100.571590,17.900635,60.774021
07149,NaN,0.994267,11.174842,-4.665834,0.031906,5.168621,1.183580,0.619532,-0.584175,1.441173,0.602929,0.611105,0.464619,0.217154,100.774981,17.148945,60.264391
07150,NaN,2.799947,13.722507,-1.565549,4.232152,5.245534,2.563403,0.508620,-0.520147,1.382802,0.601062,0.616426,0.459331,0.218535,100.933721,16.424540,59.798523
07151,NaN,0.649736,11.426754,-1.087221,2.868519,2.714518,0.984363,0.215877,-0.246737,1.217039,0.599620,0.620156,0.455034,0.220921,100.979822,15.764495,59.511824
07152,NaN,-1.575512,8.960706,-2.527113,-0.174339,1.212405,-0.449906,0.242960,-0.098804,1.096409,0.597869,0.623508,0.451566,0.223335,101.071154,15.156322,59.325230
07153,NaN,-1.137015,9.175525,-3.168054,-0.448385,1.858182,-0.228067,0.310797,-0.044342,1.042634,0.595825,0.626860,0.448492,0.225597,101.212763,14.572763,59.175721
07154,NaN,-1.146711,9.507481,-2.517398,0.148829,1.441048,-0.017540,0.215509,0.088111,0.952031,0.593868,0.629559,0.445976,0.228213,101.322505,14.025559,59.112545
07155,NaN,-1.395965,9.262259,-1.943004,0.393269,0.810019,-0.288927,0.167679,0.235560,0.855390,0.591831,0.631718,0.444137,0.231107,101.428206,13.516114,59.144982
07156,NaN,-0.980424,9.934408,-1.838514,0.852362,1.081331,0.244021,0.192895,0.374328,0.784682,0.589475,0.633622,0.442953,0.234170,101.568051,13.030431,59.264569
07157,NaN,-1.431029,10.214796,-1.460228,0.993718,0.441506,0.547775,0.161360,0.478255,0.723659,0.587048,0.635163,0.442222,0.237447,101.703438,12.566706,59.449779
07158,NaN,-2.017034,9.602757,-1.183390,0.738496,-0.327605,0.037621,0.207764,0.479523,0.673684,0.584520,0.636717,0.441701,0.240475,101.865056,12.130395,59.640138
07159,NaN,-2.186008,9.498226,-1.163384,0.632435,-0.564341,-0.033655,0.285593,0.406912,0.635141,0.581940,0.638489,0.441176,0.242983,102.061943,11.723724,59.791889
07160,NaN,-2.166534,9.526551,-1.236435,0.586276,-0.582159,0.000300,0.327120,0.345701,0.610299,0.579384,0.640392,0.440596,0.245127,102.274848,11.337839,59.910002
07161,NaN,-2.086453,9.654073,-1.699485,0.279085,-0.338497,0.199790,0.354735,0.324048,0.604630,0.576786,0.642379,0.439998,0.247122,102.500237,10.957344,60.014814
07162,NaN,-2.039969,9.486550,-2.153856,-0.119971,-0.147404,0.125048,0.354659,0.337865,0.623616,0.574125,0.644380,0.439373,0.249212,102.725585,10.564107,60.123409
07163,NaN,-1.560780,9.495013,-2.796501,-0.415851,0.516738,0.185874,0.328015,0.406456,0.628203,0.571384,0.646219,0.438889,0.251590,102.941527,10.159170,60.268683
07164,NaN,-1.565706,9.352809,-3.155781,-0.762065,0.611875,0.133655,0.269032,0.482545,0.643396,0.568638,0.647816,0.438491,0.254383,103.129455,9.735418,60.453445
07165,NaN,-2.033325,9.128813,-2.980140,-0.918073,0.032428,-0.039950,0.221862,0.486989,0.666311,0.565995,0.649312,0.437964,0.257354,103.288667,9.297749,60.636143
07166,NaN,-2.402859,9.289495,-2.403350,-0.587890,-0.655191,0.039679,0.213192,0.371631,0.699806,0.563580,0.650993,0.436983,0.260060,103.430305,8.856212,60.747830
07167,NaN,-2.137423,9.570984,-2.089868,-0.138281,-0.658735,0.191625,0.212841,0.228343,0.733019,0.561426,0.652922,0.435483,0.262390,103.557947,8.415078,60.773100
07168,NaN,-1.750425,9.668034,-2.020811,0.113523,-0.436578,0.208017,0.215036,0.143841,0.758491,0.559407,0.655012,0.433658,0.264506,103.679210,7.971099,60.746356
07169,NaN,-1.367680,9.737709,-2.177794,0.166958,-0.104792,0.256917,0.210632,0.120589,0.763087,0.557438,0.657121,0.431740,0.266564,103.796213,7.527799,60.705021
07170,NaN,-1.027421,9.760595,-2.291373,0.222952,0.168467,0.261863,0.196477,0.151728,0.755728,0.555448,0.659122,0.429907,0.268730,103.907639,7.084387,60.681317
07171,NaN,-1.063986,9.595799,-2.579007,-0.099573,0.207230,0.177776,0.176652,0.164513,0.731941,0.553520,0.660989,0.428155,0.270910,104.009065,6.652494,60.667279
07172,NaN,-1.030584,9.502539,-2.575135,-0.126553,0.163937,0.084198,0.156438,0.152639,0.707341,0.551710,0.662754,0.426417,0.273023,104.098550,6.235934,60.649330
07173,NaN,-0.811257,9.665549,-2.647660,-0.058862,0.316730,0.236536,0.140708,0.137341,0.677635,0.550017,0.664425,0.424709,0.275033,104.178653,5.838060,60.626411
07174,NaN,-0.749608,9.712665,-2.582194,0.015868,0.270034,0.261634,0.117638,0.141736,0.647754,0.548426,0.665954,0.423075,0.277021,104.246274,5.456181,60.609668
07175,NaN,-0.670608,9.781785,-2.601002,0.033640,0.282167,0.327191,0.090889,0.169126,0.616902,0.546903,0.667300,0.421578,0.279069,104.300478,5.087590,60.612180
07176,NaN,-0.556089,9.739244,-2.595137,0.059126,0.320978,0.276416,0.057816,0.204739,0.584703,0.545455,0.668431,0.420234,0.281215,104.337751,4.731818,60.638815
07177,NaN,-0.594371,9.669540,-2.476528,0.097055,0.177232,0.184581,0.046299,0.214274,0.544178,0.544077,0.669426,0.419032,0.283304,104.369162,4.397173,60.676310
07178,NaN,-0.648324,9.717601,-2.447749,0.082551,0.061334,0.228863,0.024256,0.223625,0.518639,0.542785,0.670288,0.417907,0.285398,104.388337,4.075352,60.722486
07179,NaN,-0.623625,9.719985,-2.512984,0.015883,0.065534,0.246006,0.006415,0.219593,0.487807,0.541601,0.671039,0.416845,0.287431,104.397212,3.771205,60.770725
07180,NaN,-0.495398,9.721562,-2.530390,0.038454,0.138890,0.243955,-0.016364,0.238620,0.480494,0.540460,0.671680,0.415823,0.289553,104.393481,3.468405,60.830556
07181,NaN,-0.600924,9.625881,-2.626516,-0.144022,0.055110,0.181975,-0.035050,0.253271,0.466323,0.539368,0.672215,0.414858,0.291722,104.379353,3.171391,60.900583
07182,NaN,-0.566587,9.550576,-2.730223,-0.260828,0.097020,0.132712,-0.052481,0.263553,0.461437,0.538317,0.672673,0.413909,0.293947,104.355187,2.875652,60.977097
07183,NaN,-0.504423,9.544011,-2.636035,-0.182242,0.063623,0.099617,-0.063584,0.268874,0.462307,0.537287,0.673091,0.412953,0.296213,104.324441,2.578710,61.056569
07184,NaN,-0.579988,9.626231,-2.534020,-0.143252,-0.100549,0.156822,-0.071050,0.266013,0.464279,0.536281,0.673491,0.411968,0.298488,104.288896,2.281127,61.134323
07185,NaN,-0.482392,9.684534,-2.586294,-0.157866,-0.038216,0.221514,-0.082472,0.268316,0.477433,0.535285,0.673880,0.410924,0.300827,104.246423,1.975967,61.211686
07186,NaN,-0.515695,9.676120,-2.577587,-0.201446,-0.114452,0.211447,-0.094413,0.274330,0.487913,0.534297,0.674244,0.409840,0.303237,104.196719,1.664202,61.291145
07187,NaN,-0.473384,9.732909,-2.449293,-0.093847,-0.187557,0.232630,-0.101675,0.275919,0.502720,0.533303,0.674611,0.408697,0.305704,104.142433,1.344064,61.369681
07188,NaN,-0.423405,9.687827,-2.419068,-0.090391,-0.198609,0.179172,-0.115270,0.259018,0.524569,0.532352,0.675006,0.407410,0.308197,104.079622,1.014223,61.436085
07189,NaN,-0.298577,9.862958,-2.321218,0.053626,-0.198784,0.322027,-0.116893,0.254581,0.543131,0.531382,0.675436,0.406042,0.310725,104.015464,0.674763,61.497802
07190,NaN,-0.269065,9.841245,-2.297074,0.044358,-0.229492,0.293948,-0.126147,0.258888,0.558470,0.530405,0.675858,0.404616,0.313325,103.945599,0.326244,61.560181
07191,NaN,-0.184725,9.883269,-2.387486,-0.024684,-0.166794,0.355126,-0.140920,0.269718,0.574079,0.529426,0.676250,0.403138,0.316029,103.866934,-0.032357,61.626884
07192,NaN,-0.089828,9.795223,-2.296184,0.037128,-0.164891,0.247034,-0.146852,0.283006,0.585558,0.528417,0.676620,0.401643,0.318816,103.784386,-0.399079,61.699912
07193,NaN,-0.069427,9.830755,-2.280364,0.024007,-0.208984,0.277109,-0.149231,0.290922,0.602148,0.527367,0.676997,0.400104,0.321676,103.700010,-0.775992,61.775626
07194,NaN,-0.104444,9.900021,-2.294039,-0.035709,-0.294306,0.345838,-0.163258,0.287075,0.623397,0.526332,0.677377,0.398456,0.324603,103.607130,-1.164111,61.846913
07195,NaN,-0.016100,9.930894,-2.321902,-0.059603,-0.262239,0.382476,-0.166627,0.307123,0.654305,0.525212,0.677769,0.396745,0.327681,103.511676,-1.572003,61.925864
07196,NaN,0.039095,9.981234,-2.257371,-0.018255,-0.306774,0.416063,-0.173610,0.325445,0.680764,0.524028,0.678155,0.394976,0.330900,103.411382,-1.996965,62.012212
07197,NaN,0.062024,10.033914,-2.083995,0.100576,-0.432234,0.425908,-0.164708,0.338204,0.717562,0.522719,0.678605,0.393124,0.334236,103.315449,-2.443958,62.101551
07198,NaN,0.186999,10.076453,-2.064252,0.131166,-0.400632,0.466064,-0.164455,0.353110,0.743699,0.521327,0.679071,0.391215,0.337685,103.218655,-2.907358,62.196555
07199,NaN,0.312197,10.155375,-2.282603,-0.040253,-0.272367,0.597064,-0.160981,0.379637,0.772595,0.519814,0.679545,0.389277,0.341285,103.122442,-3.390153,62.303422
07200,NaN,0.468587,10.121362,-2.406084,-0.137699,-0.146000,0.599314,-0.156766,0.437177,0.801022,0.518115,0.679973,0.387390,0.345141,103.025832,-3.896119,62.439646
07201,NaN,0.109311,10.183485,-2.316242,-0.273295,-0.589257,0.611207,-0.156155,0.490104,0.838444,0.516235,0.680369,0.385506,0.349264,102.926497,-4.429523,62.601620
07202,NaN,0.132196,10.248958,-2.339213,-0.332527,-0.650644,0.675198,-0.160423,0.518167,0.870611,0.514246,0.680749,0.383567,0.353565,102.822115,-4.984221,62.776275
07203,NaN,-0.048230,10.449577,-1.844221,-0.012287,-1.143549,0.736640,-0.164518,0.541202,0.935317,0.512098,0.681183,0.381450,0.358108,102.713128,-5.577622,62.956814
07204,NaN,-0.105393,10.658984,-1.690697,0.063346,-1.389378,0.890022,-0.159115,0.529061,0.991288,0.509839,0.681738,0.379108,0.362732,102.606594,-6.200494,63.124777
07205,NaN,-0.307714,10.791847,-1.414792,0.167108,-1.808639,0.923229,-0.156701,0.502310,1.073691,0.507456,0.682480,0.376409,0.367458,102.502314,-6.865742,63.268707
07206,NaN,-0.068897,10.971287,-1.459066,0.188131,-1.721579,1.119011,-0.150649,0.477754,1.154753,0.504930,0.683410,0.373368,0.372281,102.402609,-7.573122,63.390099
07207,NaN,0.190621,11.058753,-1.311168,0.369935,-1.687199,1.190325,-0.144522,0.484709,1.237407,0.502195,0.684468,0.370058,0.377308,102.305546,-8.327308,63.506619
07208,NaN,0.105754,11.143259,-1.333014,0.244231,-1.898153,1.246051,-0.127418,0.524665,1.323509,0.499141,0.685619,0.366568,0.382639,102.214667,-9.134472,63.636663
07209,NaN,-0.134944,11.492837,-1.600432,-0.140869,-2.224108,1.575723,-0.107327,0.567086,1.425079,0.495718,0.686888,0.362854,0.388311,102.131197,-10.003323,63.779905
07210,NaN,-0.404014,11.933124,-1.973018,-0.630440,-2.580274,1.993960,-0.083048,0.624267,1.556267,0.491822,0.688300,0.358854,0.394435,102.056121,-10.952468,63.941338
07211,NaN,-0.931741,12.892461,-2.228115,-1.084266,-3.381135,2.814099,-0.066556,0.720334,1.722491,0.487330,0.689805,0.354523,0.401237,101.980412,-12.005839,64.139289
07212,NaN,-1.660854,14.204363,-2.202227,-1.357920,-4.620085,3.831936,-0.072538,0.901321,1.928037,0.482076,0.691229,0.349876,0.409135,101.879748,-13.195751,64.418747
07213,NaN,-3.284848,16.257963,-1.778964,-1.610933,-7.084236,5.203397,-0.134510,1.106862,2.166683,0.476126,0.692409,0.344729,0.418373,101.714901,-14.542690,64.792442
07214,NaN,-5.195559,18.433765,-1.907466,-2.513175,-9.727992,6.602719,-0.294765,1.321497,2.453878,0.469677,0.693135,0.338702,0.429242,101.423135,-16.074310,65.264844
07215,NaN,-6.551156,19.040602,-2.049434,-3.355927,-11.467278,6.523518,-0.451858,1.505913,2.821049,0.462567,0.693558,0.331423,0.441778,101.005079,-17.829551,65.816665
07216,NaN,-8.763522,18.566917,-2.750968,-5.111076,-13.421298,5.113884,-0.525522,1.541465,3.180724,0.454723,0.694128,0.322718,0.455265,100.527637,-19.787307,66.369229
07217,NaN,-8.700635,16.850712,-2.962398,-5.557503,-13.087059,3.080132,-0.455052,1.264904,3.514593,0.446171,0.695791,0.312281,0.468281,100.136231,-21.900096,66.741271
07218,NaN,-3.483424,15.129167,-3.016974,-3.944521,-8.357660,3.020340,-0.241420,0.804219,3.811614,0.436732,0.699218,0.300165,0.479854,99.970706,-24.133363,66.815555
07219,NaN,-0.273582,13.527433,-4.609541,-4.490810,-4.897630,2.841751,-0.023718,0.438705,3.915155,0.426669,0.703882,0.287301,0.489860,100.027792,-26.387674,66.654061
07220,NaN,-0.099473,14.044319,-6.891906,-6.761813,-4.723643,3.479808,0.073323,0.192638,3.867747,0.416565,0.709020,0.274201,0.498576,100.219977,-28.591096,66.332834
07221,NaN,-0.674416,11.868534,-6.534179,-6.744778,-4.607155,1.016785,-0.015012,0.087016,3.759979,0.407042,0.713829,0.260948,0.506627,100.407226,-30.720893,65.940703
07222,NaN,0.909361,10.744079,-6.374610,-6.147977,-3.152716,0.634655,-0.032953,0.085222,3.702278,0.397583,0.718284,0.247756,0.514406,100.602558,-32.817937,65.537453
07223,NaN,1.850590,10.201961,-7.082200,-6.598117,-2.222160,0.636119,-0.120531,0.034752,3.575310,0.388702,0.722296,0.234618,0.521683,100.779732,-34.835789,65.098514
07224,NaN,2.325951,9.391987,-7.526926,-6.933790,-1.532851,0.179240,-0.257610,-0.045077,3.347661,0.380879,0.725767,0.221713,0.528239,100.915385,-36.717147,64.617247
07225,NaN,4.755966,9.394753,-7.212701,-5.941418,-0.132293,1.482355,-0.417068,-0.040082,3.013807,0.374420,0.728364,0.209557,0.534211,100.950844,-38.409331,64.170278
07226,NaN,5.365747,9.077028,-6.160262,-4.851512,-0.074903,1.393760,-0.638572,-0.321975,2.690636,0.369840,0.730806,0.197406,0.538676,100.976346,-39.890146,63.553349
07227,NaN,3.303222,7.386797,-4.833111,-4.240738,-0.991164,-1.454056,-0.789089,-0.492773,2.294248,0.366988,0.732910,0.185956,0.541832,100.980564,-41.127871,62.853879
07228,NaN,1.070326,7.186908,-2.751072,-3.139741,-3.143580,-3.438996,-0.867724,-0.613808,2.023026,0.365213,0.734842,0.175031,0.544050,100.992730,-42.201127,62.090514
07229,NaN,4.090846,6.225884,-1.985992,-1.331244,-0.867026,-2.268445,-0.839789,-0.596853,1.870755,0.363696,0.736556,0.164758,0.545954,101.016009,-43.188962,61.349522
07230,NaN,8.256035,4.923673,-3.460498,-1.119347,3.121763,-0.149348,-0.863356,0.236376,1.299912,0.363100,0.735416,0.158016,0.549866,100.533017,-43.948358,61.335282
07231,NaN,0.762093,4.276234,-3.617362,-3.821674,-1.151829,-5.810217,-0.899603,1.244963,0.437619,0.364194,0.730711,0.156174,0.555909,99.384175,-44.319706,62.247748
07232,NaN,-0.691647,4.442310,-4.797569,-5.471780,-1.771052,-6.626489,-0.493709,1.160462,-0.059220,0.365226,0.726553,0.157106,0.560400,98.459723,-44.391853,63.168107
07233,NaN,-6.713842,3.574428,-2.989242,-5.574677,-5.682014,-11.663444,-0.645243,0.926054,-0.651326,0.368644,0.722282,0.159339,0.563046,97.533980,-44.097202,63.968021
07234,NaN,-8.158393,2.014743,-1.284592,-4.136218,-6.198548,-13.903892,-0.549713,0.343563,-0.982487,0.373093,0.719535,0.161947,0.562889,96.969010,-43.566291,64.331708
07235,NaN,-6.441331,2.188486,-0.206606,-2.636314,-5.610272,-12.622854,-0.326412,-0.230560,-1.167477,0.377718,0.718645,0.164783,0.560111,96.835867,-42.887357,64.256146
07236,NaN,-5.188475,2.550171,0.173499,-1.983399,-5.176058,-11.464249,-0.140910,-0.645420,-1.380192,0.382589,0.719057,0.168102,0.555270,97.009444,-42.060443,63.882300
07237,NaN,-3.848986,3.157589,0.177200,-1.685831,-4.682199,-10.038033,0.001600,-0.926538,-1.661931,0.387944,0.720232,0.172289,0.548709,97.377478,-41.050085,63.332071
07238,NaN,-3.501791,3.485305,-0.494134,-2.270065,-4.397034,-9.405289,0.099930,-1.092000,-1.995559,0.393954,0.721684,0.177597,0.540769,97.839590,-39.836565,62.710882
07239,NaN,-3.194325,3.843849,-0.942644,-2.647397,-4.216139,-8.772738,0.161106,-1.179949,-2.355714,0.400742,0.723066,0.184180,0.531656,98.327525,-38.405832,62.087226
07240,NaN,-3.600802,4.320372,-1.065368,-2.987142,-4.702467,-8.498203,0.209230,-1.220666,-2.698617,0.408219,0.724194,0.192003,0.521570,98.807495,-36.775256,61.500067
07241,NaN,-3.477191,4.768583,-0.903878,-2.850707,-4.891638,-7.918084,0.208121,-1.247540,-3.026105,0.416488,0.724898,0.200918,0.510581,99.245648,-34.951203,60.959345
07242,NaN,-2.957548,5.473115,-0.709376,-2.532994,-4.923619,-6.889796,0.197768,-1.182503,-3.331835,0.425380,0.724896,0.210980,0.499064,99.603184,-32.959528,60.525529
07243,NaN,-2.531295,6.067901,-0.659921,-2.327073,-4.851243,-5.977640,0.164164,-1.065672,-3.594567,0.434793,0.724013,0.222100,0.487269,99.859877,-30.826692,60.221678
07244,NaN,-2.167261,6.593788,-0.579327,-2.071282,-4.748307,-5.157814,0.143500,-0.927685,-3.851298,0.444583,0.722195,0.234305,0.475270,100.027582,-28.563897,60.052939
07245,NaN,-1.826846,7.189799,-0.714488,-1.983625,-4.550850,-4.254986,0.146964,-0.803534,-4.103956,0.454640,0.719493,0.247622,0.462943,100.137635,-26.168341,60.001210
07246,NaN,-1.708187,8.109222,-0.832592,-1.954595,-4.613694,-3.160400,0.142999,-0.715824,-4.322065,0.464890,0.715980,0.261787,0.450242,100.207710,-23.660930,60.033814
07247,NaN,-1.198951,8.963863,-0.724216,-1.488865,-4.348699,-1.991523,0.122884,-0.631578,-4.526971,0.475339,0.711602,0.276718,0.437152,100.239091,-21.044109,60.141854
07248,NaN,-1.080637,9.918701,-0.555574,-1.098398,-4.369826,-0.894362,0.104845,-0.548158,-4.714775,0.485881,0.706355,0.292313,0.423716,100.241252,-18.332388,60.319271
07249,NaN,-0.954010,10.929193,-0.258136,-0.534704,-4.362427,0.241342,0.088376,-0.446571,-4.865344,0.496378,0.700221,0.308496,0.410036,100.221149,-15.543503,60.569141
07250,NaN,-1.131694,11.860178,-0.159738,-0.237695,-4.397370,1.257423,0.067346,-0.370855,-4.976465,0.506749,0.693285,0.325011,0.396143,100.188146,-12.702106,60.870132
07251,NaN,-1.140764,12.690570,-0.185736,0.075760,-4.114318,2.246267,0.068226,-0.304219,-5.059380,0.516862,0.685642,0.341792,0.382004,100.162352,-9.817863,61.212966
07252,NaN,-1.159468,13.559545,-0.416278,0.255721,-3.667880,3.295307,0.072992,-0.298473,-5.123755,0.526726,0.677450,0.358583,0.367477,100.155293,-6.900477,61.561994
07253,NaN,-0.579479,14.817830,-0.241501,1.162316,-2.846918,4.694435,0.024948,-0.301782,-5.202368,0.536561,0.668538,0.375316,0.352557,100.138396,-3.935578,61.914195
07254,NaN,-0.666297,15.755410,-0.272583,1.586409,-2.339852,5.701874,-0.064813,-0.322847,-5.282460,0.546498,0.658818,0.391831,0.337293,100.088459,-0.925949,62.259732
07255,NaN,-0.682388,16.702060,-0.485629,1.925511,-1.579128,6.721889,-0.113389,-0.419673,-5.343312,0.556509,0.648536,0.407935,0.321384,100.028628,2.130849,62.553428
07256,NaN,-0.556916,17.607300,-1.052099,2.052097,-0.422876,7.707833,-0.165359,-0.605918,-5.364814,0.566692,0.637902,0.423200,0.304702,99.947746,5.215820,62.740931
07257,NaN,0.087625,18.742136,-1.961612,2.200038,1.458923,8.843883,-0.190284,-0.819676,-5.362737,0.576996,0.627053,0.437517,0.287156,99.848015,8.323800,62.802660
07258,NaN,1.460147,19.646599,-2.552132,2.946287,3.917231,9.436036,-0.163809,-0.987803,-5.307283,0.587075,0.616192,0.450880,0.268992,99.748293,11.414126,62.757685
07259,NaN,3.812831,20.037138,-2.741771,4.375502,7.013550,9.031633,-0.147415,-1.083394,-5.185668,0.596744,0.605333,0.463299,0.250644,99.639249,14.447674,62.638923
07260,NaN,7.491484,20.996028,-2.571199,6.833497,11.095529,8.453411,-0.149648,-0.967396,-5.011080,0.605520,0.594325,0.475209,0.233021,99.534706,17.368527,62.563607
07261,NaN,8.794575,21.204282,-2.247309,8.117277,12.873426,7.516483,-0.167066,-0.664402,-4.730587,0.612939,0.583207,0.486903,0.217031,99.463947,20.104631,62.635103
07262,NaN,9.477464,19.837420,-2.351292,8.211837,13.864723,5.324479,-0.089470,-0.428585,-4.283422,0.618749,0.572865,0.497837,0.202813,99.476072,22.563303,62.804188
07263,NaN,10.913337,18.097029,-1.812494,8.929635,14.832451,2.438691,-0.044628,-0.183349,-3.731661,0.623015,0.563548,0.507803,0.190796,99.560039,24.688971,63.072482
07264,NaN,12.383235,15.480531,-1.872377,8.713071,15.645058,-1.107539,-0.087580,0.032283,-3.125412,0.626087,0.555270,0.516532,0.181342,99.661553,26.448989,63.419593
07265,NaN,13.269640,13.876760,-3.025480,7.557221,16.655002,-3.233699,-0.040570,0.158061,-2.400932,0.627928,0.548783,0.523593,0.174336,99.803012,27.788744,63.776520
07266,NaN,16.202021,13.185648,-3.815292,7.750299,19.281876,-5.447299,-0.023688,0.371470,-1.558330,0.628362,0.544318,0.528966,0.170511,99.983872,28.629284,64.183890
07267,NaN,16.592543,13.266378,-3.576513,8.039988,19.579335,-5.799375,-0.063371,0.655875,-0.599247,0.627310,0.541995,0.532572,0.170562,100.183458,28.900295,64.669885
07268,NaN,15.680939,13.002916,-2.576514,8.339297,18.315012,-5.735879,-0.120998,0.759852,0.387136,0.625281,0.542023,0.533766,0.174148,100.327125,28.602065,65.108810
07269,NaN,13.623509,12.490362,-2.337876,7.497403,16.377048,-5.053469,-0.132819,0.578345,1.303433,0.622951,0.544597,0.531884,0.180127,100.353830,27.806170,65.322009
07270,NaN,11.289538,13.481039,-0.637691,8.383895,13.925084,-3.075517,-0.072870,0.140888,2.114960,0.620837,0.549868,0.526437,0.187273,100.241317,26.597028,65.163137
07271,NaN,3.838456,13.267839,1.176785,7.003900,6.730780,0.075958,-0.029467,-0.287184,2.581713,0.619207,0.556824,0.518345,0.194548,100.019652,25.167640,64.689438
07272,NaN,-15.434815,10.993155,1.994132,-0.691031,-10.390869,6.143429,-0.075040,-0.339426,2.140862,0.618178,0.562467,0.511199,0.200405,99.792500,23.990280,64.242235
07273,NaN,-14.244661,5.783891,1.652672,-2.434661,-10.947689,0.831930,0.121666,-0.389207,1.928485,0.616870,0.568165,0.504639,0.204939,99.685842,22.936790,63.794446
07274,NaN,-2.375806,8.232568,-2.350191,-0.356802,1.349021,-1.038075,0.616558,-0.539741,1.959260,0.614438,0.575561,0.497980,0.207872,99.835147,21.880401,63.254517
07275,NaN,2.035029,12.686408,-3.708017,1.727845,6.596719,1.690620,0.813577,-0.375410,2.215248,0.610687,0.583953,0.491232,0.211545,100.133461,20.665612,62.786653
07276,NaN,-0.157689,15.089847,-0.369027,4.348627,3.342427,4.250473,0.637501,0.060262,2.165850,0.606348,0.591148,0.485703,0.216745,100.430660,19.435990,62.582659
07277,NaN,-0.768179,14.391773,-1.350248,2.976599,2.890656,4.055044,0.482641,0.065745,1.858716,0.602719,0.597056,0.480879,0.221380,100.653625,18.379943,62.411494
07278,NaN,9.015674,13.481370,-8.015205,1.404716,14.090932,1.445016,0.954263,-0.442140,1.681797,0.599042,0.604465,0.475526,0.222813,101.061690,17.478906,61.954889
07279,NaN,9.892482,23.624634,-0.354109,11.434009,12.306754,9.523699,0.825679,-0.145021,1.795777,0.594859,0.611369,0.470530,0.225768,101.449244,16.483684,61.655391
07280,NaN,-3.083666,15.070410,0.898359,3.902768,-0.894916,5.066697,-0.181778,0.385418,1.573506,0.592711,0.614105,0.466614,0.232036,101.356740,15.553902,61.690838
07281,NaN,-0.707186,5.225990,-1.495443,-0.032739,0.842479,-4.396429,0.317035,0.368727,1.638578,0.588953,0.618447,0.462993,0.237267,101.544679,14.589289,61.707947
07282,NaN,-1.878277,8.703247,-3.922497,-1.615558,1.391953,-0.319997,0.421825,0.233615,1.451408,0.585366,0.622784,0.459648,0.241269,101.777848,13.745456,61.665495
07283,NaN,-1.485561,6.998960,-3.738125,-1.802733,1.336144,-2.058331,0.287074,0.121088,1.240231,0.582683,0.626345,0.456445,0.244601,101.924633,13.033250,61.580998
07284,NaN,-1.013751,8.935021,-3.014152,-0.446523,1.460349,-0.452432,0.337443,0.123775,1.142491,0.579933,0.629803,0.453601,0.247531,102.103821,12.375905,61.508143
07285,NaN,-1.212697,10.499239,-2.326617,0.453996,0.961324,0.957007,0.253248,0.257268,1.061258,0.577226,0.632646,0.451279,0.250830,102.253321,11.747943,61.520050
07286,NaN,-1.868602,9.552019,-2.028504,0.099787,0.064973,0.128760,0.212987,0.370831,1.032739,0.574408,0.635146,0.449311,0.254488,102.392817,11.122215,61.598709
07287,NaN,-1.639134,9.926442,-1.954670,0.344523,0.140737,0.429489,0.261034,0.429311,1.010535,0.571316,0.637640,0.447628,0.258153,102.565463,10.501265,61.711587
07288,NaN,-1.486259,9.819354,-1.625163,0.639441,-0.005070,0.230219,0.273393,0.467079,0.953369,0.568156,0.639972,0.446238,0.261738,102.748675,9.907385,61.851011
07289,NaN,-1.699758,9.699664,-1.302302,0.762801,-0.460260,0.080443,0.353759,0.469199,0.920658,0.564760,0.642438,0.445049,0.265050,102.977069,9.330819,61.993470
07290,NaN,-1.689837,9.895852,-1.768130,0.418496,-0.322208,0.367186,0.393521,0.417958,0.885617,0.561380,0.644986,0.443869,0.268002,103.222579,8.780085,62.108920
07291,NaN,-1.034787,9.910706,-2.073996,0.461032,0.294670,0.350683,0.406416,0.421203,0.841019,0.557996,0.647451,0.442846,0.270805,103.475191,8.253101,62.229587
07292,NaN,-1.208317,9.949625,-1.695622,0.708040,-0.139605,0.326771,0.407959,0.428951,0.790579,0.554644,0.649781,0.441999,0.273480,103.728814,7.752833,62.358955
07293,NaN,-1.137119,10.197059,-1.568658,0.913172,-0.232099,0.523911,0.371741,0.419001,0.744410,0.551481,0.651907,0.441215,0.276070,103.960403,7.278880,62.486846
07294,NaN,-0.707681,10.118480,-2.255577,0.504050,0.381670,0.558990,0.342096,0.414911,0.691738,0.548486,0.653827,0.440541,0.278560,104.174371,6.834476,62.617841
07295,NaN,-0.837475,9.774324,-2.908247,-0.206729,0.494852,0.405362,0.274450,0.418984,0.624018,0.545788,0.655396,0.439998,0.281023,104.349783,6.426463,62.759105
07296,NaN,-0.906965,9.714773,-3.230105,-0.536729,0.509491,0.438405,0.195591,0.415463,0.570690,0.543423,0.656627,0.439503,0.283497,104.479550,6.048372,62.904846
07297,NaN,-0.887590,9.740849,-3.247596,-0.550112,0.465394,0.468326,0.115848,0.422004,0.533370,0.541350,0.657542,0.439028,0.286064,104.563536,5.689570,63.058823
07298,NaN,-1.008333,9.783236,-3.012553,-0.411571,0.186830,0.463465,0.054257,0.409996,0.492364,0.539560,0.658210,0.438564,0.288611,104.611187,5.355264,63.211542
07299,NaN,-0.990819,9.838397,-2.758456,-0.194244,0.029005,0.451133,-0.006673,0.388381,0.469816,0.538044,0.658689,0.438023,0.291158,104.622257,5.036308,63.355256
07300,NaN,-0.800275,9.924968,-2.742429,-0.098023,0.137437,0.513860,-0.043457,0.390735,0.449951,0.536669,0.659016,0.437497,0.293736,104.611806,4.728223,63.503084
07301,NaN,-0.816339,9.935094,-2.653622,-0.055034,0.034222,0.502823,-0.083685,0.428604,0.446677,0.535343,0.659166,0.437019,0.296516,104.579245,4.416346,63.672508
07302,NaN,-0.997333,9.815188,-2.623628,-0.171670,-0.183031,0.392839,-0.115308,0.452123,0.449636,0.534061,0.659196,0.436544,0.299447,104.528575,4.099759,63.854730
07303,NaN,-0.942944,9.862351,-2.577449,-0.129963,-0.204016,0.421548,-0.144420,0.446717,0.461086,0.532862,0.659175,0.435968,0.302452,104.459924,3.777599,64.032567
07304,NaN,-0.909879,9.786545,-2.574533,-0.169003,-0.218246,0.343890,-0.169467,0.443091,0.473992,0.531730,0.659113,0.435298,0.305530,104.375681,3.449218,64.206898
07305,NaN,-0.984312,9.722974,-2.508072,-0.199142,-0.356643,0.268401,-0.200123,0.425711,0.490743,0.530704,0.659026,0.434474,0.308659,104.272216,3.114111,64.369672
07306,NaN,-0.716864,9.591476,-2.555327,-0.198323,-0.133693,0.136306,-0.204064,0.416682,0.506820,0.529681,0.658969,0.433562,0.311805,104.165175,2.771820,64.525714
07307,NaN,-0.877270,9.513203,-2.491054,-0.272742,-0.347438,0.050403,-0.217924,0.404071,0.527554,0.528691,0.658932,0.432521,0.314992,104.048841,2.419909,64.672472
07308,NaN,-0.580799,9.424456,-2.563918,-0.274416,-0.090192,-0.032729,-0.219501,0.382478,0.551124,0.527710,0.658968,0.431339,0.318169,103.930106,2.058350,64.804625
07309,NaN,-0.500594,9.403561,-2.405170,-0.150670,-0.130912,-0.095579,-0.217753,0.375064,0.560603,0.526716,0.659032,0.430102,0.321339,103.811397,1.692659,64.932076
07310,NaN,-0.386953,9.330937,-2.333714,-0.100567,-0.100571,-0.187629,-0.211726,0.341202,0.579094,0.525741,0.659198,0.428720,0.324428,103.694763,1.321705,65.038874
07311,NaN,-0.314613,9.310616,-2.412047,-0.186948,-0.049670,-0.191526,-0.199158,0.292160,0.593938,0.524797,0.659501,0.427175,0.327365,103.584087,0.949178,65.117081
07312,NaN,-0.206562,9.265603,-2.449117,-0.227151,0.018373,-0.229371,-0.199320,0.260299,0.602236,0.523903,0.659865,0.425514,0.330214,103.472552,0.576597,65.177132
07313,NaN,-0.029974,9.340926,-2.543640,-0.263396,0.160926,-0.136518,-0.191203,0.247994,0.615387,0.522980,0.660291,0.423785,0.333036,103.365241,0.198299,65.229291
07314,NaN,-0.088528,9.397268,-2.534854,-0.312092,0.047475,-0.084279,-0.192530,0.237354,0.633960,0.522048,0.660762,0.421961,0.335870,103.256800,-0.188713,65.273772
07315,NaN,-0.016597,9.568521,-2.420292,-0.190223,-0.004393,0.055344,-0.190188,0.239927,0.659009,0.521052,0.661280,0.420058,0.338770,103.149429,-0.590086,65.317145
07316,NaN,-0.082074,9.746976,-2.254830,-0.081365,-0.206109,0.189561,-0.190913,0.244380,0.685375,0.519999,0.661834,0.418073,0.341748,103.041308,-1.006532,65.360333
07317,NaN,-0.129920,9.872631,-2.004917,0.097289,-0.423330,0.252910,-0.193093,0.231688,0.710824,0.518927,0.662448,0.415961,0.344752,102.931852,-1.435599,65.393957
07318,NaN,-0.122429,10.030975,-1.862942,0.208127,-0.553191,0.373388,-0.188978,0.216306,0.728282,0.517837,0.663125,0.413752,0.347735,102.824761,-1.872259,65.417567
07319,NaN,0.151617,10.063432,-1.854349,0.285431,-0.374834,0.410411,-0.199047,0.211344,0.747918,0.516747,0.663815,0.411441,0.350768,102.711899,-2.319334,65.436764
07320,NaN,0.067505,10.078346,-1.923452,0.139895,-0.490867,0.435053,-0.197502,0.213893,0.768032,0.515604,0.664535,0.409066,0.353852,102.599762,-2.777818,65.455740
07321,NaN,-0.046930,10.122841,-2.034443,-0.051823,-0.623999,0.493640,-0.207256,0.236722,0.782673,0.514411,0.665208,0.406676,0.357064,102.481267,-3.247400,65.486613
07322,NaN,0.509255,10.274399,-2.068908,0.118954,-0.196584,0.677761,-0.199258,0.288071,0.804131,0.513039,0.665840,0.404354,0.360479,102.365436,-3.735145,65.544594
07323,NaN,0.456447,10.180943,-1.969412,0.113039,-0.343533,0.560691,-0.213132,0.338191,0.838251,0.511540,0.666403,0.402013,0.364169,102.239414,-4.248084,65.627594
07324,NaN,0.384823,10.129364,-1.969066,0.016147,-0.476687,0.502401,-0.219827,0.374071,0.856987,0.509946,0.666905,0.399681,0.368032,102.107297,-4.775566,65.729691
07325,NaN,0.283638,10.090953,-1.994424,-0.114772,-0.631214,0.457321,-0.221016,0.397195,0.893502,0.508230,0.667419,0.397274,0.372059,101.972666,-5.326123,65.841731
07326,NaN,0.233035,10.368928,-2.077332,-0.232736,-0.774725,0.733825,-0.263603,0.396669,0.937153,0.506563,0.667894,0.394631,0.376269,101.812926,-5.900714,65.949816
07327,NaN,0.184623,10.303921,-2.024842,-0.284192,-0.914747,0.646100,-0.266775,0.414005,0.995880,0.504746,0.668425,0.391817,0.380681,101.649751,-6.510035,66.062549
07328,NaN,0.259003,10.625431,-1.769172,-0.051671,-1.096382,0.906026,-0.278686,0.433248,1.060542,0.502793,0.668994,0.388801,0.385331,101.477893,-7.157463,66.180613
07329,NaN,-0.058630,10.925084,-1.609876,-0.073078,-1.603951,1.113113,-0.280937,0.432500,1.130074,0.500695,0.669670,0.385531,0.390144,101.304183,-7.843549,66.292461
07330,NaN,-0.103911,11.046415,-1.439750,-0.004253,-1.843568,1.173962,-0.292746,0.433080,1.222449,0.498435,0.670465,0.381915,0.395197,101.123445,-8.581225,66.396572
07331,NaN,-0.091794,11.112424,-1.145428,0.189510,-2.075631,1.162750,-0.275293,0.441439,1.325777,0.495873,0.671452,0.377989,0.400483,100.951960,-9.377614,66.496476
07332,NaN,-0.181178,11.420678,-0.934654,0.290130,-2.435334,1.381991,-0.264633,0.464800,1.433487,0.492988,0.672586,0.373760,0.406072,100.784475,-10.236828,66.600536
07333,NaN,-0.519386,11.806950,-1.129777,-0.076760,-2.912568,1.696360,-0.233773,0.517232,1.572518,0.489588,0.673905,0.369232,0.412096,100.629715,-11.179569,66.722338
07334,NaN,-0.999625,12.759277,-1.314376,-0.446746,-3.694186,2.502949,-0.216792,0.627484,1.736222,0.485551,0.675289,0.364428,0.418829,100.472738,-12.225793,66.893050
07335,NaN,-2.094582,14.318279,-1.172497,-0.722753,-5.356523,3.661483,-0.234797,0.782395,1.954035,0.480788,0.676633,0.359191,0.426605,100.286499,-13.410155,67.134184
07336,NaN,-3.979274,16.492529,-0.879726,-1.144342,-8.027673,5.115362,-0.315455,0.958057,2.212099,0.475370,0.677785,0.353284,0.435685,100.029163,-14.756997,67.456562
07337,NaN,-6.219111,18.882576,-1.433445,-2.517763,-10.897605,6.684720,-0.475415,1.095985,2.519839,0.469499,0.678683,0.346255,0.446170,99.656336,-16.289087,67.838313
07338,NaN,-7.924123,19.026150,-2.993407,-4.803368,-12.355234,6.249332,-0.586671,1.193662,2.905651,0.462869,0.679617,0.337818,0.457986,99.199101,-18.045958,68.254760
07339,NaN,-9.736157,18.252004,-5.201090,-7.764896,-13.433229,4.822469,-0.532105,1.156854,3.298330,0.455088,0.681231,0.327993,0.470361,98.773300,-20.018128,68.630778
07340,NaN,-8.757382,16.801912,-5.333181,-7.805101,-12.457359,3.274919,-0.366949,0.814905,3.752394,0.446079,0.684537,0.316117,0.482174,98.512954,-22.216406,68.774923
07341,NaN,-1.485302,16.426121,-3.659425,-4.030014,-7.047490,5.001711,-0.179992,0.313160,4.148534,0.436092,0.689818,0.302094,0.492660,98.488639,-24.595491,68.581041
07342,NaN,1.787113,14.888344,-6.008716,-5.367385,-3.449204,5.027206,0.044360,0.032401,4.178312,0.425488,0.696026,0.287773,0.501692,98.681653,-26.968012,68.200096
07343,NaN,-0.036941,14.098058,-8.396731,-8.391035,-4.377031,3.591301,0.102174,-0.038476,4.053009,0.414923,0.702057,0.273765,0.509910,98.945974,-29.261013,67.767403
07344,NaN,0.668889,12.310757,-9.024182,-8.843136,-3.152734,2.240427,0.082253,-0.037794,3.963389,0.404483,0.707640,0.259907,0.517771,99.220089,-31.502520,67.322388
07345,NaN,1.415892,11.321414,-8.457639,-8.164100,-2.589125,1.515987,-0.076876,-0.081407,3.890850,0.394699,0.712646,0.245710,0.525332,99.441243,-33.696185,66.833827
07346,NaN,2.229607,9.802047,-7.569489,-7.106997,-1.707513,0.429986,-0.198128,-0.116596,3.740737,0.385636,0.717061,0.231565,0.532434,99.624370,-35.801326,66.316718
07347,NaN,4.191899,9.105971,-6.629662,-5.660465,-0.417031,0.780697,-0.371280,-0.234630,3.430622,0.378034,0.720864,0.217774,0.538535,99.763067,-37.717537,65.732932
07348,NaN,5.889096,8.907330,-5.235162,-3.904255,0.221991,1.418032,-0.474533,-0.235074,2.989168,0.371889,0.723800,0.205230,0.543777,99.834349,-39.384793,65.185312
07349,NaN,3.527030,7.561157,-3.226103,-2.752257,-1.416967,-1.420253,-0.722428,-0.315694,2.477811,0.368044,0.725826,0.193679,0.547914,99.779442,-40.754181,64.630817
07350,NaN,1.809224,6.247078,-1.269107,-1.408628,-2.484218,-3.833324,-0.801779,-0.408846,2.109152,0.365526,0.727493,0.183041,0.551036,99.708437,-41.908051,64.045559
07351,NaN,4.330406,5.624481,-1.035659,-0.361380,-0.556658,-2.669998,-0.859377,-0.424887,1.844423,0.363924,0.728771,0.173163,0.553595,99.603147,-42.910245,63.474643
07352,NaN,7.038008,4.776641,-2.786635,-1.064670,2.295747,-1.227233,-0.967855,0.285118,1.349036,0.363435,0.727391,0.166058,0.557891,99.020230,-43.701946,63.518723
07353,NaN,-0.009173,3.472311,-2.506722,-2.930515,-1.509988,-7.079124,-0.972449,1.129078,0.569403,0.364418,0.722953,0.163306,0.563800,97.899408,-44.121145,64.334390
07354,NaN,-1.351457,4.170860,-3.706139,-4.621144,-2.447748,-7.443859,-0.586046,0.946224,0.119025,0.365400,0.719332,0.162923,0.567891,97.055410,-44.261961,65.066148
07355,NaN,-6.093846,3.188447,-2.732944,-4.966907,-5.200574,-11.560250,-0.752031,0.684542,-0.410118,0.368689,0.715699,0.163497,0.570186,96.225939,-44.075313,65.641251
07356,NaN,-6.304258,2.051756,-1.891680,-4.024054,-4.871829,-12.570222,-0.578614,0.184039,-0.677628,0.372515,0.713575,0.164588,0.570047,95.760171,-43.702940,65.837585
07357,NaN,-5.416372,2.633825,-1.019455,-3.070733,-4.983351,-11.559089,-0.407182,-0.329347,-0.929923,0.376868,0.713010,0.166116,0.567444,95.660600,-43.155338,65.646215
07358,NaN,-4.386040,3.220462,-0.591337,-2.504488,-4.831455,-10.397899,-0.293844,-0.745448,-1.184416,0.381864,0.713598,0.168074,0.562770,95.828319,-42.440134,65.154310
07359,NaN,-3.256241,3.682683,-0.400749,-2.097446,-4.426718,-9.238108,-0.217671,-1.052214,-1.451655,0.387578,0.714923,0.170612,0.556381,96.171084,-41.551124,64.458861
07360,NaN,-3.010940,3.962902,-0.771167,-2.441614,-4.275365,-8.752528,-0.157499,-1.250514,-1.735668,0.393992,0.716604,0.173922,0.548635,96.609241,-40.485793,63.656629
07361,NaN,-3.339465,4.076574,-1.316386,-3.100691,-4.324960,-8.725329,-0.099231,-1.390893,-2.036798,0.401100,0.718427,0.178181,0.539660,97.102380,-39.233014,62.801866
07362,NaN,-3.619632,4.535280,-1.721867,-3.674115,-4.589654,-8.374296,-0.038927,-1.491469,-2.351585,0.408854,0.720237,0.183491,0.529555,97.622163,-37.789879,61.934359
07363,NaN,-3.600616,4.575797,-1.887346,-3.838668,-4.468117,-8.150738,0.003643,-1.573232,-2.641198,0.417215,0.721930,0.189761,0.518400,98.145623,-36.168051,61.071223
07364,NaN,-3.189230,5.040171,-1.866963,-3.731765,-4.372875,-7.361478,0.055580,-1.600872,-2.910641,0.426000,0.723363,0.197021,0.506412,98.651843,-34.386835,60.253193
07365,NaN,-2.447150,5.745250,-1.783902,-3.426784,-4.162803,-6.192924,0.080791,-1.576482,-3.167237,0.435201,0.724321,0.205277,0.493781,99.107171,-32.455082,59.514500
07366,NaN,-1.815017,6.269468,-1.733030,-3.118037,-3.869339,-5.240510,0.089005,-1.485724,-3.411264,0.444731,0.724585,0.214557,0.480787,99.482941,-30.391236,58.895256
07367,NaN,-1.519282,6.880161,-1.689832,-2.927545,-3.815826,-4.393946,0.090781,-1.376157,-3.650065,0.454558,0.724069,0.224883,0.467472,99.779315,-28.197932,58.400244
07368,NaN,-1.372148,7.456453,-1.651697,-2.765037,-3.804167,-3.641450,0.084465,-1.275206,-3.884379,0.464652,0.722751,0.236170,0.453821,100.003936,-25.882384,58.016808
07369,NaN,-1.336599,8.299026,-1.592565,-2.617306,-3.953914,-2.692165,0.085447,-1.175457,-4.103361,0.474926,0.720634,0.248392,0.439811,100.172351,-23.450059,57.735667
07370,NaN,-1.321696,9.190360,-1.476456,-2.384967,-4.097530,-1.694967,0.055034,-1.073756,-4.290090,0.485363,0.717650,0.261332,0.425566,100.276420,-20.924296,57.548588
07371,NaN,-1.265559,9.829555,-1.254659,-1.983061,-4.088481,-0.917151,0.044455,-0.964880,-4.459829,0.495819,0.713824,0.275003,0.411087,100.336417,-18.311564,57.452014
07372,NaN,-1.651423,10.684965,-1.301994,-1.998020,-4.317719,-0.018079,0.047462,-0.859404,-4.619283,0.506174,0.709189,0.289351,0.396377,100.369408,-15.621950,57.438568
07373,NaN,-1.688892,11.781315,-1.287015,-1.722435,-4.291878,1.227857,0.050742,-0.787496,-4.743810,0.516383,0.703836,0.304178,0.381366,100.389988,-12.867276,57.481557
07374,NaN,-1.501215,12.886733,-1.256866,-1.248338,-3.988239,2.532469,0.041148,-0.754751,-4.848298,0.526462,0.697825,0.319248,0.366003,100.400876,-10.059410,57.554798
07375,NaN,-0.944566,13.894792,-1.310178,-0.586635,-3.201912,3.790135,0.029505,-0.681338,-4.962173,0.536358,0.691036,0.334703,0.350377,100.400872,-7.192587,57.681340
07376,NaN,-0.914725,14.806116,-1.595518,-0.344954,-2.610242,4.871401,-0.009090,-0.637976,-5.083599,0.546175,0.683425,0.350399,0.334429,100.381307,-4.264176,57.843835
07377,NaN,-0.732643,15.559942,-2.054923,-0.131093,-1.671662,5.807903,-0.059904,-0.609525,-5.219249,0.555984,0.674926,0.366329,0.318057,100.339867,-1.259722,58.034128
07378,NaN,-0.784572,16.409742,-2.444757,0.078060,-0.877612,6.771320,-0.123441,-0.636886,-5.339213,0.565848,0.665603,0.382215,0.301167,100.271880,1.812909,58.218270
07379,NaN,-0.700378,17.560204,-2.743818,0.539637,0.076211,7.963813,-0.152995,-0.638059,-5.433865,0.575545,0.655522,0.398099,0.283824,100.197439,4.941700,58.407852
07380,NaN,-0.411459,17.811714,-2.984435,1.032383,1.291976,8.173857,-0.151527,-0.647771,-5.474611,0.584875,0.644889,0.413779,0.266132,100.133512,8.092234,58.593211
07381,NaN,0.568771,18.363067,-3.505379,1.729665,3.272539,8.518325,-0.085350,-0.664064,-5.407123,0.593502,0.634121,0.428983,0.248232,100.114895,11.208882,58.761484
07382,NaN,2.784258,18.642858,-3.518414,3.407732,5.994470,8.077416,0.002451,-0.568354,-5.264372,0.601035,0.623351,0.443807,0.230707,100.164763,14.232911,58.973012
07383,NaN,5.572927,19.176139,-3.088932,5.751601,8.921347,7.379369,0.043861,-0.286395,-5.019683,0.607136,0.612501,0.458478,0.214536,100.288767,17.092240,59.331339
07384,NaN,6.699622,19.828088,-2.485793,7.378553,10.339623,7.003626,0.073235,0.040927,-4.628322,0.611619,0.601936,0.472699,0.200377,100.498015,19.693914,59.855430
07385,NaN,8.150227,19.577370,-2.526139,8.258227,12.108704,5.718100,0.230700,0.366206,-3.935573,0.613885,0.592879,0.485778,0.188837,100.867692,21.870414,60.518656
07386,NaN,12.612768,17.858026,-1.047898,11.077457,14.988674,1.662420,0.118290,0.683863,-3.209801,0.614822,0.584750,0.497406,0.180690,101.244542,23.597860,61.313475
07387,NaN,14.618122,15.800666,-0.343263,11.801518,16.039225,-1.632747,0.008927,0.771052,-2.468738,0.615060,0.577917,0.506935,0.175298,101.570997,24.896188,62.090775
07388,NaN,17.142025,14.220194,-1.376828,11.344657,18.410414,-4.308056,-0.056317,0.740148,-1.696991,0.614810,0.572799,0.514011,0.172344,101.828494,25.759963,62.763722
07389,NaN,17.349706,13.351931,-1.953563,10.505337,18.772143,-5.302347,-0.020430,0.686468,-0.886033,0.613861,0.569885,0.518606,0.171620,102.055429,26.173900,63.304018
07390,NaN,16.784016,13.552234,-2.009021,10.204793,18.477462,-4.929342,-0.021044,0.598179,0.035020,0.612340,0.569425,0.520290,0.173476,102.205468,26.079950,63.667876
07391,NaN,14.951635,13.063252,-2.281547,8.994341,17.001373,-4.385266,-0.005883,0.373202,0.979249,0.610530,0.571652,0.518602,0.177537,102.245717,25.484439,63.763452
07392,NaN,12.280778,12.426036,-1.605156,8.239390,14.223720,-3.681613,0.092827,-0.100812,1.832472,0.608876,0.576781,0.513085,0.182585,102.169109,24.468156,63.451647
07393,NaN,9.751588,12.167613,-0.288841,8.245876,11.230304,-2.805580,0.233375,-0.730086,2.552167,0.607692,0.584685,0.503639,0.187624,101.987725,23.123403,62.665716
07394,NaN,-0.014077,11.806743,-0.384571,3.887506,2.949551,0.944919,0.413254,-1.229164,2.735330,0.606944,0.593943,0.492205,0.191269,101.806843,21.732655,61.566168
07395,NaN,-15.248213,8.691543,-0.812870,-4.522858,-10.165586,3.785153,0.402380,-1.355696,2.260918,0.606868,0.602003,0.481685,0.193088,101.641166,20.619469,60.463862
07396,NaN,-9.203004,11.226149,1.558313,0.791588,-6.214551,3.374139,0.657247,-1.156580,2.282156,0.605419,0.610586,0.471867,0.194922,101.684856,19.470476,59.487230
07397,NaN,4.015987,15.429419,4.694638,10.923529,3.219293,2.292349,0.520686,-0.369825,2.564883,0.602148,0.618550,0.463350,0.200301,101.811511,18.072440,58.947728
07398,NaN,15.540402,13.195941,-10.831333,3.323482,20.629027,0.001884,0.869829,-0.048177,2.352146,0.597166,0.626646,0.456733,0.205192,102.214012,16.757697,58.621095
07399,NaN,28.922172,32.867721,-1.607478,23.966488,28.451689,13.325391,1.324116,0.161148,2.319856,0.590212,0.635705,0.451229,0.209573,102.915994,15.437597,58.409598
07400,NaN,-7.480383,25.598027,5.075357,8.497013,-6.462133,15.147364,-0.710241,1.435044,1.684739,0.587425,0.635892,0.449302,0.220683,102.666001,14.311959,59.013729
07401,NaN,-0.307085,-1.280856,0.062040,-0.496732,-0.397542,-10.967627,0.387509,1.589667,2.189599,0.580147,0.640167,0.447358,0.231271,103.036042,12.883146,59.635882
07402,NaN,-4.262372,9.811737,-4.910594,-3.121997,-0.370745,1.530210,1.001990,0.970265,1.904827,0.572524,0.646196,0.445171,0.237633,103.674007,11.690646,59.927110
07403,NaN,-3.337067,3.826368,-2.508744,-2.534058,-1.343848,-4.929768,0.731791,0.266713,1.639324,0.567590,0.651627,0.441454,0.241542,104.078957,10.739179,59.844361
07404,NaN,0.651312,10.065150,-5.348203,-1.010231,3.628084,0.964536,0.771326,0.234662,1.383699,0.562866,0.656595,0.438497,0.244511,104.510050,9.935576,59.773485
07405,NaN,-2.617005,9.345469,-5.373382,-2.884739,0.691535,0.876467,0.375615,0.355149,1.275153,0.559276,0.660029,0.435724,0.248429,104.728455,9.174365,59.781821
07406,NaN,-1.466846,9.506036,-2.199911,0.287726,-0.113961,0.049304,0.381519,0.081568,1.239870,0.556284,0.663710,0.432293,0.251316,104.927045,8.473556,59.639226
07407,NaN,-0.995897,10.386952,-1.702823,1.157019,-0.097676,0.695916,0.369246,-0.065488,1.115658,0.553782,0.667250,0.428830,0.253392,105.110858,7.863051,59.430943
07408,NaN,-1.326668,10.277090,-3.078729,-0.188632,0.225358,0.993317,0.332717,0.026791,1.052258,0.551269,0.670412,0.425777,0.255664,105.283755,7.275126,59.282113
07409,NaN,-0.561482,9.839070,-2.824242,0.249495,0.649439,0.415405,0.272792,0.138220,1.045255,0.548709,0.673233,0.422962,0.258416,105.431305,6.673847,59.194928
07410,NaN,-0.634786,10.251029,-2.621027,0.462376,0.360061,0.770881,0.222739,0.232784,0.971904,0.546199,0.675619,0.420580,0.261379,105.558046,6.099533,59.170227
07411,NaN,-0.769346,9.832005,-2.122024,0.647717,-0.090575,0.253825,0.195524,0.249898,0.910959,0.543809,0.677764,0.418401,0.264288,105.671208,5.555534,59.163294
07412,NaN,-0.654638,9.949131,-2.043438,0.773262,-0.129908,0.334918,0.210499,0.215721,0.845807,0.541516,0.679843,0.416364,0.266862,105.792128,5.053519,59.146477
07413,NaN,-0.584339,9.847038,-2.324762,0.526045,-0.002940,0.308222,0.205677,0.183302,0.786157,0.539374,0.681816,0.414424,0.269175,105.909576,4.588774,59.120070
07414,NaN,-0.431866,9.742627,-2.995444,0.005579,0.400330,0.381289,0.185078,0.185212,0.730478,0.537367,0.683603,0.412648,0.271377,106.016155,4.155168,59.102616
07415,NaN,-0.230996,9.495151,-3.298373,-0.229870,0.675259,0.216333,0.130085,0.220995,0.668512,0.535548,0.685058,0.411096,0.273650,106.093299,3.749335,59.114073
07416,NaN,-0.194955,9.445300,-3.579567,-0.480729,0.788516,0.247718,0.071072,0.296242,0.605743,0.533858,0.686113,0.409878,0.276125,106.139767,3.366777,59.176581
07417,NaN,-0.293355,9.519561,-3.448494,-0.433522,0.570839,0.291077,0.024490,0.357978,0.548562,0.532272,0.686835,0.408949,0.278757,106.161496,3.005114,59.282004
07418,NaN,-0.430445,9.577204,-3.258000,-0.363710,0.296746,0.301759,-0.025286,0.375063,0.511034,0.530871,0.687315,0.408124,0.281441,106.154844,2.662064,59.402739
07419,NaN,-0.451254,9.708350,-2.855518,-0.042798,0.014797,0.316841,-0.065027,0.354667,0.475190,0.529691,0.687640,0.407305,0.284043,106.124470,2.341345,59.518042
07420,NaN,-0.536805,9.741189,-2.630571,0.073964,-0.218376,0.289066,-0.084804,0.322642,0.455494,0.528671,0.687911,0.406441,0.286517,106.081605,2.037315,59.619003
07421,NaN,-0.495438,9.718058,-2.446579,0.207658,-0.311971,0.213838,-0.091119,0.276202,0.442876,0.527778,0.688202,0.405482,0.288812,106.033807,1.747008,59.696614
07422,NaN,-0.409199,9.767276,-2.570944,0.128507,-0.220665,0.292334,-0.095284,0.255959,0.433898,0.526952,0.688488,0.404495,0.291016,105.982989,1.465576,59.764718
07423,NaN,-0.301287,9.809517,-2.703748,0.050138,-0.105460,0.366399,-0.110527,0.262143,0.433101,0.526162,0.688719,0.403499,0.293273,105.923162,1.183031,59.836628
07424,NaN,-0.134124,9.641875,-2.803743,-0.024927,0.070009,0.229174,-0.117686,0.283817,0.440333,0.525340,0.688908,0.402524,0.295631,105.859105,0.893822,59.919637
07425,NaN,-0.114889,9.537226,-2.720813,-0.007617,0.021173,0.105678,-0.127509,0.299993,0.443265,0.524510,0.689049,0.401562,0.298074,105.789082,0.599940,60.011446
07426,NaN,-0.141899,9.449459,-2.749701,-0.102210,-0.014999,0.029181,-0.129696,0.306465,0.444706,0.523670,0.689172,0.400608,0.300542,105.717393,0.304997,60.106948
07427,NaN,-0.107671,9.413899,-2.805784,-0.177006,0.008244,0.009425,-0.141363,0.294514,0.455566,0.522872,0.689299,0.399562,0.303021,105.638473,0.005430,60.194571
07428,NaN,-0.106254,9.369742,-2.865176,-0.273764,0.006105,-0.017925,-0.149895,0.294750,0.453110,0.522104,0.689392,0.398512,0.305506,105.554235,-0.292084,60.283118
07429,NaN,0.010824,9.335685,-2.861590,-0.259113,0.073298,-0.051997,-0.162862,0.299404,0.459826,0.521355,0.689454,0.397425,0.308052,105.462062,-0.594473,60.373676
07430,NaN,0.094520,9.235919,-2.880662,-0.295876,0.131867,-0.142932,-0.170013,0.286759,0.469744,0.520639,0.689528,0.396260,0.310587,105.365443,-0.899674,60.456231
07431,NaN,0.241026,9.316023,-2.903672,-0.265994,0.220542,-0.057789,-0.176651,0.289840,0.490460,0.519900,0.689618,0.395014,0.313202,105.264569,-1.217222,60.537896
07432,NaN,0.372422,9.369223,-2.880700,-0.212698,0.276774,-0.009762,-0.176786,0.305830,0.500187,0.519112,0.689693,0.393776,0.315890,105.162988,-1.541831,60.627500
07433,NaN,0.373451,9.384748,-2.744138,-0.137317,0.170429,-0.030303,-0.185155,0.334233,0.520193,0.518259,0.689735,0.392522,0.318746,105.055681,-1.882149,60.730450
07434,NaN,0.258047,9.423618,-2.575016,-0.087312,-0.057292,-0.040756,-0.187398,0.344541,0.536361,0.517364,0.689779,0.391234,0.321676,104.946339,-2.232185,60.837362
07435,NaN,0.259804,9.456362,-2.455741,-0.024053,-0.159399,-0.040552,-0.192200,0.329301,0.546587,0.516491,0.689848,0.389857,0.324589,104.833967,-2.585981,60.935034
07436,NaN,0.409053,9.449479,-2.418425,0.033084,-0.089215,-0.050548,-0.181868,0.305727,0.565947,0.515593,0.690011,0.388368,0.327444,104.727652,-2.946321,61.017490
07437,NaN,0.484800,9.522985,-2.365560,0.083806,-0.105119,0.010740,-0.174621,0.296472,0.578508,0.514660,0.690225,0.386816,0.330285,104.625296,-3.312662,61.093676
07438,NaN,0.515024,9.499809,-2.335635,0.073982,-0.135335,-0.017654,-0.167385,0.298360,0.591668,0.513672,0.690471,0.385233,0.333145,104.526620,-3.685906,61.169672
07439,NaN,0.517157,9.615578,-2.306180,0.076778,-0.216197,0.086415,-0.152916,0.300029,0.608990,0.512595,0.690778,0.383612,0.336026,104.435776,-4.069391,61.244768
07440,NaN,0.613064,9.741938,-2.406534,0.014340,-0.161450,0.239473,-0.147460,0.306926,0.622419,0.511458,0.691104,0.381969,0.338949,104.347380,-4.460674,61.322412
07441,NaN,0.689141,9.803296,-2.500170,-0.066340,-0.118220,0.326916,-0.157954,0.332215,0.641139,0.510269,0.691387,0.380301,0.342025,104.251427,-4.866309,61.412170
07442,NaN,0.460070,9.931238,-2.318170,-0.045772,-0.481478,0.384402,-0.144969,0.376493,0.679548,0.508879,0.691690,0.378632,0.345319,104.160511,-5.298852,61.521905
07443,NaN,0.315892,10.277745,-2.302499,-0.092944,-0.745650,0.697693,-0.145515,0.393249,0.727395,0.507367,0.692042,0.376831,0.348791,104.068074,-5.760634,61.635062
07444,NaN,0.217958,10.279940,-2.252133,-0.150346,-0.922777,0.671681,-0.150376,0.406536,0.777854,0.505751,0.692440,0.374875,0.352437,103.971812,-6.251638,61.749452
07445,NaN,-0.038979,10.527089,-2.103635,-0.159666,-1.339660,0.837449,-0.129087,0.410917,0.855987,0.503903,0.693016,0.372688,0.356251,103.887546,-6.786971,61.856350
07446,NaN,-0.003730,10.834998,-1.891714,0.028688,-1.551489,1.076153,-0.129300,0.404532,0.934826,0.501916,0.693732,0.370204,0.360230,103.803833,-7.364677,61.949678
07447,NaN,0.077957,11.016159,-1.665827,0.225524,-1.711358,1.194401,-0.124216,0.400517,1.022068,0.499746,0.694611,0.367403,0.364397,103.723785,-7.990666,62.029723
07448,NaN,-0.130567,11.107637,-1.374841,0.325766,-2.142556,1.168602,-0.127898,0.404223,1.129510,0.497371,0.695646,0.364222,0.368837,103.642454,-8.676444,62.098144
07449,NaN,-0.352760,11.414399,-1.258793,0.291261,-2.575022,1.380172,-0.117652,0.390877,1.246088,0.494748,0.696917,0.360604,0.373490,103.569585,-9.425617,62.144210
07450,NaN,-0.256849,11.702074,-1.454324,0.118687,-2.612089,1.688623,-0.111789,0.391062,1.372525,0.491847,0.698397,0.356542,0.378426,103.502279,-10.244824,62.174189
07451,NaN,-0.292928,12.077471,-1.788343,-0.236754,-2.750869,2.083656,-0.105075,0.425335,1.492825,0.488605,0.700004,0.352136,0.383746,103.437496,-11.135902,62.208329
07452,NaN,-0.365229,12.542046,-2.255784,-0.729960,-2.916391,2.576131,-0.107245,0.530757,1.617108,0.484914,0.701575,0.347525,0.389715,103.362103,-12.109907,62.286808
07453,NaN,-0.963064,13.579128,-2.559728,-1.275131,-3.805875,3.444617,-0.118539,0.715014,1.777392,0.480590,0.702979,0.342748,0.396707,103.259994,-13.197692,62.450788
07454,NaN,-1.908018,14.951802,-2.569106,-1.711196,-5.272675,4.437197,-0.162175,0.964663,1.982498,0.475534,0.704060,0.337727,0.405101,103.101333,-14.431924,62.733891
07455,NaN,-3.307892,17.119999,-1.992310,-1.792723,-7.692088,5.859244,-0.267487,1.299537,2.226009,0.469721,0.704521,0.332382,0.415372,102.832031,-15.844241,63.184759
07456,NaN,-5.697116,19.296460,-1.974359,-2.850651,-10.846291,7.007413,-0.444764,1.657884,2.531271,0.463208,0.704187,0.326370,0.427833,102.397717,-17.469289,63.817302
07457,NaN,-8.891386,20.084814,-2.429928,-4.786429,-14.123349,6.495031,-0.576306,1.892856,2.946347,0.455762,0.703529,0.319069,0.442179,101.835511,-19.349653,64.557024
07458,NaN,-11.911352,19.122184,-3.095261,-6.876979,-16.558680,4.172256,-0.541156,1.777886,3.408432,0.447195,0.703700,0.309849,0.456964,101.303206,-21.469532,65.199457
07459,NaN,-10.621165,17.423669,-2.596124,-6.169131,-15.405328,2.340224,-0.330548,1.183383,3.913057,0.437480,0.706199,0.297883,0.470276,101.020719,-23.802214,65.445511
07460,NaN,-2.089538,15.968267,-2.176166,-2.794843,-8.294511,3.878023,-0.095112,0.481857,4.333358,0.426790,0.711174,0.283317,0.481469,101.065654,-26.294349,65.215108
07461,NaN,0.508837,14.037626,-5.917073,-5.506757,-4.535034,3.655939,0.179499,0.126771,4.269831,0.415586,0.717164,0.268752,0.490648,101.383112,-28.709639,64.754027
07462,NaN,-0.891886,12.812090,-8.109375,-8.227393,-4.756395,2.035089,0.174557,0.050043,4.149396,0.404608,0.722854,0.254324,0.499093,101.745108,-31.046927,64.232016
07463,NaN,1.015781,10.986073,-8.303824,-7.798010,-2.626450,1.275791,0.153970,0.070437,4.092262,0.393654,0.728069,0.239989,0.507305,102.118072,-33.350606,63.701005
07464,NaN,2.079421,10.008929,-7.696980,-6.948304,-1.830916,0.775088,-0.015587,0.080710,3.950320,0.383499,0.732459,0.225657,0.515277,102.412914,-35.574454,63.167580
07465,NaN,2.628547,8.828558,-6.832846,-6.015568,-1.312136,-0.136810,-0.179106,0.068621,3.573876,0.374796,0.735881,0.212186,0.522479,102.616046,-37.583136,62.657645
07466,NaN,5.589923,9.497057,-6.323940,-4.666609,-0.102306,2.004080,-0.348169,0.063002,3.170040,0.367661,0.738362,0.199681,0.528937,102.710212,-39.365453,62.188694
07467,NaN,5.139788,8.419205,-5.224417,-3.858667,-0.329239,0.655908,-0.680229,-0.042533,2.796837,0.362766,0.739967,0.187441,0.534523,102.642608,-40.924565,61.692004
07468,NaN,2.710608,6.299862,-4.127252,-3.598932,-1.059094,-2.742055,-0.799190,-0.236960,2.466162,0.359302,0.741427,0.175713,0.538807,102.581866,-42.276119,61.096631
07469,NaN,1.533625,5.340315,-2.355763,-2.340423,-1.862054,-4.571046,-0.692665,-0.463543,2.106189,0.356565,0.743262,0.165179,0.541423,102.675848,-43.396626,60.377566
07470,NaN,4.901995,5.249755,-1.908852,-0.764286,0.085518,-2.420759,-0.687207,-0.541283,1.860007,0.354490,0.745026,0.155410,0.543250,102.804993,-44.369981,59.625959
07471,NaN,8.567131,3.704253,-4.084466,-1.259037,4.114971,-0.577919,-0.767419,0.022580,1.408425,0.353478,0.744702,0.148099,0.546387,102.534513,-45.161103,59.388404
07472,NaN,3.334597,3.675897,-4.915060,-3.965603,1.221515,-4.193908,-0.843316,1.032013,0.408417,0.354707,0.740704,0.146072,0.551547,101.521569,-45.515518,60.135822
07473,NaN,-0.171232,3.681763,-5.504228,-5.784821,-0.700446,-6.662106,-0.465867,1.051767,-0.205249,0.356207,0.736843,0.147395,0.555386,100.635895,-45.517036,61.005909
07474,NaN,-4.224079,3.504943,-3.976989,-5.725604,-3.626808,-9.899735,-0.567100,0.985006,-0.802549,0.359768,0.732516,0.150505,0.557975,99.672740,-45.166356,61.905774
07475,NaN,-7.739353,2.353120,-2.009822,-4.842982,-5.761102,-13.394394,-0.673808,0.717111,-1.275120,0.365224,0.728349,0.154567,0.558773,98.773355,-44.512215,62.636751
07476,NaN,-6.240546,2.403876,-0.709434,-3.142365,-5.365324,-12.374809,-0.597086,0.337163,-1.451770,0.371160,0.725199,0.158774,0.557778,98.133171,-43.720419,63.067616
07477,NaN,-5.220219,2.778701,-0.492024,-2.681714,-5.069279,-11.337170,-0.445373,-0.012755,-1.590192,0.377191,0.723151,0.163255,0.555092,97.772343,-42.818143,63.224893
07478,NaN,-3.997264,3.596205,-0.618115,-2.556191,-4.770530,-9.806928,-0.261501,-0.345814,-1.733078,0.383192,0.722202,0.168115,0.550750,97.685184,-41.810163,63.134572
07479,NaN,-3.207836,4.418156,-0.578460,-2.410066,-4.775399,-8.575352,-0.150196,-0.658244,-1.967740,0.389671,0.722063,0.173523,0.544675,97.799421,-40.643160,62.833957
07480,NaN,-2.718196,4.666131,-0.794382,-2.483849,-4.482049,-7.933133,-0.052768,-0.939709,-2.237745,0.396721,0.722553,0.179591,0.536914,98.073045,-39.301570,62.363904
07481,NaN,-3.058883,5.083876,-1.070803,-2.924385,-4.813687,-7.662500,0.014956,-1.168337,-2.531752,0.404460,0.723404,0.186430,0.527581,98.448820,-37.770629,61.778011
07482,NaN,-3.034609,5.448152,-1.268072,-3.140435,-4.866145,-7.175587,0.041586,-1.326709,-2.854499,0.413006,0.724266,0.194134,0.516891,98.857157,-36.041913,61.140894
07483,NaN,-3.131164,5.692195,-1.285476,-3.206443,-4.977873,-6.847384,0.061495,-1.397095,-3.146237,0.422196,0.724871,0.202759,0.505174,99.253597,-34.136297,60.516367
07484,NaN,-2.907600,6.147611,-1.238066,-3.094138,-4.980028,-6.152012,0.082755,-1.381725,-3.383370,0.431753,0.725013,0.212255,0.492842,99.607807,-32.096738,59.958343
07485,NaN,-2.428729,6.332497,-1.415564,-3.009906,-4.518978,-5.509603,0.107688,-1.301063,-3.620645,0.441574,0.724503,0.222783,0.480079,99.904550,-29.926310,59.506358
07486,NaN,-1.868695,6.898799,-1.674812,-2.959457,-4.114899,-4.503035,0.158861,-1.185303,-3.846737,0.451445,0.723295,0.234411,0.467004,100.156224,-27.640152,59.176675
07487,NaN,-1.399670,7.693299,-1.843862,-2.833078,-3.863444,-3.364137,0.177996,-1.040810,-4.052269,0.461375,0.721247,0.247066,0.453756,100.348807,-25.249514,58.978080
07488,NaN,-1.248485,8.252518,-1.902850,-2.688512,-3.729140,-2.592064,0.191516,-0.924006,-4.259068,0.471362,0.718381,0.260641,0.440242,100.497524,-22.756171,58.886894
07489,NaN,-1.106859,9.116702,-1.828150,-2.398039,-3.727827,-1.565310,0.208161,-0.821409,-4.452741,0.481357,0.714720,0.275075,0.426386,100.618729,-20.161968,58.887493
07490,NaN,-1.108023,10.041071,-1.589805,-1.979208,-3.858341,-0.552288,0.210088,-0.704794,-4.639837,0.491319,0.710179,0.290303,0.412282,100.709974,-17.477143,58.983615
07491,NaN,-1.292122,11.015762,-1.190514,-1.453723,-4.145489,0.439698,0.199035,-0.575788,-4.785239,0.501163,0.704729,0.306190,0.398046,100.773455,-14.721905,59.173710
07492,NaN,-1.351543,11.883478,-0.886417,-0.897298,-4.167681,1.395598,0.201601,-0.466105,-4.901248,0.510755,0.698474,0.322570,0.383681,100.829334,-11.915806,59.440683
07493,NaN,-1.445632,12.752829,-0.749099,-0.447806,-4.056767,2.377186,0.205553,-0.365731,-5.006869,0.520067,0.691431,0.339398,0.369138,100.888102,-9.058801,59.776689
07494,NaN,-1.373578,13.742840,-0.823818,-0.033239,-3.640206,3.534114,0.188930,-0.297534,-5.101912,0.529154,0.683618,0.356469,0.354390,100.947186,-6.158631,60.162164
07495,NaN,-1.114586,14.728691,-0.884085,0.543204,-2.959451,4.673698,0.155461,-0.252879,-5.199150,0.538104,0.675005,0.373708,0.339346,101.003946,-3.206374,60.584255
07496,NaN,-1.212403,15.664475,-1.005233,0.934918,-2.439912,5.710544,0.074974,-0.233446,-5.304248,0.547088,0.665485,0.390945,0.324016,101.035531,-0.200111,61.029892
07497,NaN,-1.228824,16.621987,-1.335543,1.234575,-1.637382,6.779805,-0.015147,-0.294298,-5.402693,0.556266,0.655141,0.407931,0.308142,101.038833,2.870742,61.452918
07498,NaN,-0.856030,18.020533,-1.913371,1.635634,-0.270158,8.251181,-0.092074,-0.403688,-5.447349,0.565569,0.644183,0.424326,0.291732,101.016241,5.976075,61.819809
07499,NaN,-0.096940,19.067002,-2.823877,1.905550,1.743763,9.286219,-0.154752,-0.589420,-5.486770,0.575106,0.632743,0.439924,0.274509,100.964617,9.126774,62.085756
07500,NaN,2.113626,19.956638,-3.735058,2.837569,5.116180,9.741140,-0.128762,-0.766005,-5.481349,0.584497,0.621157,0.454685,0.256493,100.923183,12.291166,62.249784
07501,NaN,5.795001,20.993374,-3.407201,5.530346,9.202792,9.436075,-0.134841,-0.747148,-5.434013,0.593365,0.609157,0.469013,0.238477,100.888630,15.429514,62.419299
07502,NaN,8.482760,21.645619,-2.541293,8.061661,12.089488,8.508755,-0.199106,-0.465284,-5.251506,0.601116,0.596626,0.483195,0.221855,100.868324,18.432253,62.734871
07503,NaN,9.910825,21.103283,-2.936559,8.504056,14.227964,6.840591,-0.132711,-0.150717,-4.919723,0.607155,0.584352,0.497101,0.206850,100.954704,21.216163,63.207543
07504,NaN,9.097256,20.070784,-2.618802,8.337691,13.846677,5.390362,0.071262,0.231399,-4.313152,0.610691,0.573504,0.510330,0.194198,101.245647,23.613301,63.858414
07505,NaN,14.032721,17.292600,-1.535789,10.393407,17.119797,0.043746,0.143133,0.603578,-3.514591,0.612060,0.564321,0.522284,0.184781,101.665658,25.517473,64.666304
07506,NaN,15.774382,14.472400,-1.506223,10.007771,18.004043,-3.794238,0.019374,0.879945,-2.645310,0.612095,0.556635,0.532376,0.179091,102.072879,26.894721,65.559004
07507,NaN,18.919469,13.662900,-1.686932,10.567708,20.579895,-6.313455,0.096823,0.816631,-1.670560,0.611125,0.551756,0.539561,0.175970,102.469452,27.729214,66.297904
07508,NaN,20.922979,14.789869,-0.644332,12.432782,22.197282,-6.709812,-0.063970,0.810642,-0.686843,0.609713,0.549017,0.543838,0.176268,102.717515,28.009736,66.902974
07509,NaN,18.464216,14.309277,-0.317031,11.522356,19.969358,-6.039076,-0.187239,0.782908,0.379939,0.607760,0.548814,0.544981,0.180072,102.815802,27.696209,67.338692
07510,NaN,14.955206,13.732322,-1.442371,9.030291,17.443367,-4.475092,-0.230813,0.482341,1.441221,0.605767,0.551620,0.542237,0.186390,102.728070,26.827521,67.431797
07511,NaN,12.485398,14.401241,-0.194814,9.455449,14.923354,-2.658078,-0.199366,-0.028616,2.463023,0.604054,0.557711,0.535097,0.194290,102.454893,25.451058,67.066660
07512,NaN,-2.469418,15.313350,1.263621,5.661382,1.826916,4.567534,-0.349758,-0.124144,2.594829,0.602791,0.563700,0.527070,0.202690,102.076915,24.011073,66.637786
07513,NaN,-20.465716,9.497360,1.584318,-2.860759,-15.357648,6.542542,-0.386438,-0.079493,2.214875,0.601806,0.568450,0.520128,0.210142,101.723036,22.775568,66.299571
07514,NaN,-8.220339,8.140395,-0.704255,-0.967975,-4.551378,0.802320,0.368400,-0.419867,2.271672,0.599424,0.575899,0.512729,0.214802,101.730594,21.547706,65.755107
07515,NaN,2.334121,14.085023,-0.949775,4.749313,5.693665,2.424611,0.652330,-0.650821,2.677205,0.596279,0.585390,0.503685,0.219251,101.846387,20.119476,65.024770
07516,NaN,4.373302,14.393927,-1.508307,5.156752,7.418544,2.309425,0.501082,-0.764090,2.629329,0.593796,0.594317,0.494180,0.223560,101.873593,18.732763,64.237750
07517,NaN,5.550932,13.385118,-7.155394,0.547884,10.678230,2.305074,0.730546,-1.275535,2.302030,0.592147,0.603576,0.484289,0.224772,101.968599,17.590120,63.194049
07518,NaN,11.593873,21.071927,1.450680,12.946708,12.501106,6.206892,0.617244,-0.722385,2.155675,0.589569,0.611423,0.476273,0.227453,102.119941,16.466235,62.496802
07519,NaN,1.085213,14.286958,0.086363,4.988685,2.884524,3.305553,0.092562,-0.048502,1.964590,0.587134,0.616433,0.470169,0.232861,102.098438,15.368034,62.218637
07520,NaN,-0.512019,7.426387,-1.621892,0.664053,1.295668,-2.334540,0.371615,-0.043717,1.788544,0.583983,0.621783,0.464910,0.237083,102.248246,14.369289,61.965400
07521,NaN,-0.129903,9.015434,-3.122586,0.026721,2.430028,-0.585664,0.438267,-0.084857,1.577317,0.580924,0.626842,0.460225,0.240395,102.440321,13.493336,61.713061
07522,NaN,-0.268047,7.974799,-3.217504,-0.454263,2.136957,-1.491168,0.276702,0.009958,1.328128,0.578421,0.630705,0.456382,0.243630,102.562656,12.746897,61.545335
07523,NaN,-0.456382,10.059484,-2.754009,0.428873,1.806704,0.460413,0.315578,0.211554,1.164822,0.575508,0.634039,0.453659,0.246938,102.738173,12.065645,61.512463
07524,NaN,-0.496650,10.502911,-1.954796,1.173860,1.280361,0.740059,0.209281,0.510993,1.071001,0.572350,0.636458,0.451953,0.251149,102.890103,11.400093,61.660737
07525,NaN,-1.599258,9.730778,-2.282550,0.131259,0.324585,0.303233,0.241352,0.701066,1.047350,0.568664,0.638655,0.450883,0.255823,103.079481,10.721581,61.917862
07526,NaN,-1.871929,9.627000,-2.723819,-0.423122,0.182154,0.355351,0.210280,0.763477,0.979841,0.565004,0.640503,0.450153,0.260556,103.255745,10.073049,62.216591
07527,NaN,-2.021249,9.370516,-2.236843,-0.177993,-0.309906,0.024323,0.235737,0.644911,0.929726,0.561570,0.642444,0.449261,0.264708,103.432581,9.465994,62.452357
07528,NaN,-2.051970,9.550913,-1.822663,0.190623,-0.633938,0.102633,0.285277,0.454252,0.881287,0.558455,0.644644,0.448046,0.267985,103.619046,8.911977,62.584769
07529,NaN,-1.500174,9.746785,-2.159276,0.196811,-0.081591,0.280213,0.295673,0.351399,0.850402,0.555562,0.646929,0.446641,0.270823,103.801747,8.387507,62.661507
07530,NaN,-0.955592,9.665914,-2.783825,-0.121296,0.599858,0.272821,0.270154,0.346052,0.800843,0.552821,0.649023,0.445342,0.273548,103.969574,7.892302,62.740412
07531,NaN,-0.861191,9.342127,-2.470281,0.083018,0.445577,-0.121801,0.228868,0.337427,0.751963,0.550287,0.650895,0.444107,0.276204,104.113050,7.424084,62.819882
07532,NaN,-1.121500,9.365042,-2.594868,-0.148456,0.197408,-0.033441,0.210541,0.269578,0.677494,0.548059,0.652632,0.442901,0.278463,104.241932,7.007741,62.870699
07533,NaN,-1.082768,9.556592,-2.701806,-0.182046,0.210491,0.173442,0.191116,0.195838,0.611037,0.546140,0.654265,0.441671,0.280347,104.355345,6.637474,62.888823
07534,NaN,-0.772690,9.678908,-2.696377,-0.016341,0.416625,0.255808,0.157008,0.185976,0.570902,0.544409,0.655721,0.440499,0.282153,104.449164,6.292003,62.906512
07535,NaN,-0.636565,9.858538,-2.933208,-0.122498,0.583860,0.475339,0.100749,0.256491,0.523284,0.542765,0.656815,0.439586,0.284190,104.515423,5.961692,62.969910
07536,NaN,-0.630105,9.768110,-3.086802,-0.294031,0.606950,0.428711,0.030938,0.334485,0.483608,0.541234,0.657514,0.438917,0.286518,104.546369,5.643250,63.082203
07537,NaN,-0.783456,9.699358,-2.908726,-0.253021,0.339589,0.334847,-0.018363,0.363352,0.444899,0.539849,0.657950,0.438374,0.288950,104.550436,5.340972,63.216021
07538,NaN,-0.915319,9.745656,-2.590818,-0.053341,0.029049,0.312729,-0.050924,0.366434,0.421723,0.538597,0.658235,0.437871,0.291391,104.535702,5.052230,63.354864
07539,NaN,-0.998071,9.689213,-2.347830,0.077310,-0.194945,0.204555,-0.074374,0.325407,0.394398,0.537545,0.658455,0.437304,0.293680,104.505160,4.783504,63.474866
07540,NaN,-1.000502,9.698176,-2.194200,0.185142,-0.304559,0.174451,-0.080198,0.269209,0.382330,0.536652,0.658708,0.436619,0.295755,104.468431,4.530687,63.565433
07541,NaN,-0.771387,9.703029,-2.189044,0.267784,-0.137532,0.159522,-0.082680,0.222347,0.364017,0.535892,0.658983,0.435859,0.297638,104.428008,4.293733,63.632690
07542,NaN,-0.623548,9.655246,-2.355086,0.153885,0.037712,0.143907,-0.083855,0.213409,0.363324,0.535156,0.659261,0.435078,0.299483,104.386384,4.059543,63.695219
07543,NaN,-0.526685,9.583408,-2.499913,0.028715,0.159309,0.104082,-0.096336,0.230413,0.357869,0.534427,0.659468,0.434335,0.301403,104.337971,3.824981,63.768155
07544,NaN,-0.511431,9.565972,-2.611481,-0.091156,0.190516,0.114269,-0.105015,0.263398,0.356115,0.533657,0.659592,0.433675,0.303437,104.285598,3.587817,63.859873
07545,NaN,-0.604680,9.512666,-2.568638,-0.135812,0.057634,0.058099,-0.121996,0.298732,0.359210,0.532857,0.659623,0.433066,0.305637,104.224189,3.343029,63.971027
07546,NaN,-0.549823,9.517795,-2.526113,-0.102475,0.054215,0.049278,-0.132064,0.318158,0.367790,0.532034,0.659610,0.432468,0.307938,104.157181,3.091883,64.092023
07547,NaN,-0.674084,9.582961,-2.431809,-0.089328,-0.137232,0.095603,-0.141579,0.321276,0.386023,0.531202,0.659604,0.431796,0.310323,104.084057,2.829330,64.212485
07548,NaN,-0.907684,9.591856,-2.241110,-0.054315,-0.466760,0.068059,-0.143920,0.294494,0.419202,0.530383,0.659697,0.430941,0.312704,104.008218,2.553204,64.313733
07549,NaN,-0.669244,9.638852,-2.318700,-0.039843,-0.260083,0.120202,-0.143547,0.264082,0.444265,0.529582,0.659891,0.429915,0.315054,103.931157,2.266530,64.394937
07550,NaN,-0.498596,9.735671,-2.403685,-0.052337,-0.116861,0.226881,-0.159588,0.265886,0.475695,0.528780,0.660100,0.428767,0.317519,103.844475,1.963197,64.473208
07551,NaN,-0.520315,9.721355,-2.435003,-0.130057,-0.164998,0.220273,-0.171510,0.284811,0.505603,0.527921,0.660308,0.427543,0.320155,103.750654,1.639833,64.558395
07552,NaN,-0.558894,9.696737,-2.440164,-0.196695,-0.241226,0.197122,-0.182889,0.306514,0.536636,0.527002,0.660509,0.426256,0.322960,103.650132,1.297321,64.651981
07553,NaN,-0.474160,9.659785,-2.470617,-0.237093,-0.196271,0.164545,-0.189610,0.310637,0.549530,0.526067,0.660708,0.424918,0.325828,103.545118,0.946344,64.746734
07554,NaN,-0.394169,9.737715,-2.383870,-0.153109,-0.215806,0.216814,-0.197269,0.318930,0.577962,0.525090,0.660924,0.423494,0.328806,103.435239,0.579493,64.842948
07555,NaN,-0.449358,9.741973,-2.323568,-0.167412,-0.341938,0.205376,-0.200685,0.299402,0.595032,0.524129,0.661193,0.421948,0.331773,103.322601,0.205036,64.926726
07556,NaN,-0.276655,9.790788,-2.340276,-0.144789,-0.235446,0.253898,-0.206622,0.284658,0.626126,0.523163,0.661527,0.420249,0.334775,103.206096,-0.183788,64.998932
07557,NaN,-0.143876,9.840208,-2.176242,0.018660,-0.241356,0.263392,-0.208806,0.279046,0.639616,0.522184,0.661885,0.418478,0.337799,103.087777,-0.580096,65.067056
07558,NaN,-0.006342,9.784628,-2.291721,-0.085015,-0.118240,0.235662,-0.213751,0.283596,0.648395,0.521192,0.662231,0.416680,0.340862,102.966215,-0.980911,65.137410
07559,NaN,0.254368,9.933967,-2.235783,0.053965,0.023682,0.372752,-0.215791,0.294192,0.652090,0.520169,0.662554,0.414883,0.343975,102.842764,-1.385809,65.214085
07560,NaN,0.216581,9.950579,-2.229736,-0.004488,-0.071112,0.386679,-0.233737,0.326737,0.656957,0.519125,0.662772,0.413123,0.347235,102.708067,-1.796560,65.309250
07561,NaN,0.239094,9.859284,-2.266989,-0.098539,-0.082069,0.305857,-0.245946,0.357530,0.676259,0.518013,0.662937,0.411347,0.350672,102.565027,-2.222529,65.420248
07562,NaN,0.239605,9.916442,-2.431929,-0.289667,-0.083119,0.395942,-0.239405,0.385590,0.704631,0.516766,0.663115,0.409558,0.354251,102.424424,-2.666774,65.544512
07563,NaN,0.100399,10.009898,-2.347146,-0.311977,-0.319671,0.459463,-0.253127,0.415236,0.741915,0.515426,0.663271,0.407686,0.358051,102.274206,-3.135979,65.682002
07564,NaN,-0.167919,10.100848,-2.021474,-0.173551,-0.772938,0.459285,-0.236621,0.433723,0.800265,0.513880,0.663539,0.405693,0.362016,102.132107,-3.638972,65.824033
07565,NaN,-0.270212,10.564229,-1.517865,0.252514,-1.204443,0.792242,-0.243500,0.414888,0.885785,0.512226,0.663984,0.403342,0.366149,101.985997,-4.188011,65.946588
07566,NaN,-0.225161,10.924922,-1.153462,0.590022,-1.444419,1.063870,-0.241117,0.362772,0.989652,0.510468,0.664719,0.400510,0.370356,101.843266,-4.788064,66.028976
07567,NaN,-0.680255,11.058274,-1.269060,0.250507,-1.933209,1.167171,-0.242821,0.310086,1.085995,0.508624,0.665721,0.397204,0.374629,101.702049,-5.436484,66.071971
07568,NaN,-0.459599,11.382682,-1.402615,0.189619,-1.844682,1.514428,-0.241846,0.295120,1.180333,0.506613,0.666915,0.393537,0.379073,101.562804,-6.135317,66.097196
07569,NaN,-0.605300,11.688978,-1.115325,0.349832,-2.262659,1.719808,-0.235103,0.300639,1.303192,0.504313,0.668330,0.389466,0.383821,101.427998,-6.904327,66.113157
07570,NaN,-0.400650,12.221344,-0.843432,0.656980,-2.417475,2.185426,-0.251164,0.324552,1.406551,0.501799,0.669826,0.385064,0.388917,101.283454,-7.733427,66.132800
07571,NaN,-0.636730,12.608129,-0.884482,0.470627,-2.849166,2.508437,-0.262265,0.343816,1.535395,0.499003,0.671466,0.380231,0.394404,101.132244,-8.637586,66.151117
07572,NaN,-0.785802,13.151837,-1.192391,0.079692,-3.161693,3.032667,-0.279686,0.394812,1.669460,0.495870,0.673169,0.375018,0.400397,100.968309,-9.622129,66.186100
07573,NaN,-1.241101,14.168674,-1.485678,-0.391592,-3.899255,3.939959,-0.310694,0.500421,1.825964,0.492289,0.674820,0.369443,0.407163,100.777544,-10.706490,66.267515
07574,NaN,-2.369871,15.688627,-2.234764,-1.530519,-5.256539,5.245872,-0.347642,0.681064,2.022234,0.488047,0.676305,0.363540,0.415043,100.547212,-11.919757,66.435766
07575,NaN,-3.674506,17.917286,-2.850988,-2.607261,-7.092963,7.085086,-0.461063,0.992002,2.261778,0.483060,0.677209,0.357298,0.424710,100.212694,-13.299595,66.765237
07576,NaN,-5.264007,19.791211,-2.997323,-3.455763,-9.369903,8.315234,-0.646328,1.435509,2.532511,0.477242,0.677080,0.350751,0.436781,99.704924,-14.873473,67.337488
07577,NaN,-8.287918,19.855461,-3.884867,-5.666524,-12.240590,7.393075,-0.842431,1.795663,2.913682,0.470497,0.676182,0.343251,0.451209,99.014719,-16.690514,68.106072
07578,NaN,-10.393140,18.911069,-4.636833,-7.413587,-14.063029,5.496144,-0.933741,1.890627,3.337345,0.462776,0.675348,0.334216,0.466951,98.232209,-18.746070,68.925141
07579,NaN,-10.667983,16.478734,-4.616353,-7.751836,-13.956955,2.504822,-0.726495,1.583588,3.788455,0.453628,0.676182,0.323296,0.482161,97.602028,-21.023108,69.558636
07580,NaN,-3.337591,15.734170,-3.343468,-4.376910,-8.152135,3.760246,-0.380926,1.066542,4.241378,0.442844,0.679471,0.310355,0.495871,97.267855,-23.514533,69.869290
07581,NaN,2.016274,15.068122,-7.202426,-6.574835,-2.722527,5.428888,0.042863,0.695090,4.361748,0.430688,0.684473,0.297088,0.507684,97.259421,-26.045667,69.952077
07582,NaN,-0.665893,16.240457,-12.057915,-12.265330,-4.754419,5.565872,0.191309,0.520486,4.195564,0.418499,0.689673,0.284246,0.518087,97.378348,-28.470607,69.935856
07583,NaN,-1.096721,12.786754,-11.627950,-12.013009,-4.085320,1.972228,0.120279,0.325350,4.115965,0.406860,0.694814,0.270968,0.527518,97.520358,-30.834655,69.792088
07584,NaN,0.670810,11.523761,-9.620837,-9.650045,-2.992314,1.309833,0.104592,0.208145,4.044040,0.395448,0.699844,0.257540,0.536202,97.702545,-33.149737,69.564912
07585,NaN,1.533151,10.567024,-7.163976,-7.125200,-2.849977,0.503766,-0.011731,0.241874,3.821494,0.384847,0.703995,0.244553,0.544498,97.808556,-35.339227,69.368493
07586,NaN,2.205665,9.440869,-6.408551,-6.248729,-2.206305,-0.265919,-0.146037,0.138067,3.374938,0.375931,0.707394,0.232484,0.551563,97.865835,-37.268270,69.133600
07587,NaN,1.779088,8.464173,-4.697902,-4.763084,-2.634273,-1.612317,-0.453209,0.000308,2.894829,0.369496,0.709861,0.220959,0.557448,97.788784,-38.912563,68.841305
07588,NaN,0.046687,6.703519,-2.663524,-3.232337,-3.490551,-4.390572,-0.686126,-0.037600,2.452378,0.365087,0.711379,0.210233,0.562542,97.573909,-40.304814,68.564640
07589,NaN,-1.000895,5.835091,-0.621022,-1.558304,-4.326249,-6.032525,-0.713073,-0.138619,2.054281,0.361955,0.712616,0.200643,0.566489,97.372182,-41.462496,68.252194
07590,NaN,4.698254,4.388523,-0.374386,0.370652,0.443828,-3.398847,-0.800627,-0.015142,1.795724,0.359699,0.713006,0.191919,0.570445,97.042750,-42.484813,68.061652
07591,NaN,5.418508,4.316504,-0.075490,0.786927,0.821580,-2.978729,-0.676829,0.762410,1.098554,0.358222,0.710679,0.187427,0.575747,96.327117,-43.161806,68.547329
07592,NaN,0.615714,4.941333,-1.766046,-2.255612,-2.397260,-5.679891,-0.377832,0.785604,0.440385,0.357535,0.708174,0.186158,0.579659,95.719139,-43.462712,69.120761
07593,NaN,-5.736360,3.096003,-2.359701,-4.198591,-5.295539,-11.358108,-0.506697,0.424712,-0.055341,0.359077,0.706013,0.185633,0.581507,95.202855,-43.455376,69.452667
07594,NaN,-7.350257,1.360356,-1.725192,-3.738101,-5.415407,-13.756417,-0.329409,-0.110123,-0.501934,0.361778,0.705302,0.186227,0.580505,95.054640,-43.166104,69.396314
07595,NaN,-7.223643,1.278277,-0.824425,-2.868568,-5.550996,-13.743578,-0.120138,-0.692086,-0.838992,0.365262,0.706332,0.187573,0.576623,95.318928,-42.652389,68.910522
07596,NaN,-5.707078,1.521593,-0.258674,-2.028102,-4.851107,-12.515599,0.056563,-1.181492,-1.093899,0.369291,0.708822,0.189414,0.570366,95.914134,-41.965143,68.077225
07597,NaN,-3.554482,2.238985,-0.234653,-1.572586,-3.844176,-10.484453,0.152793,-1.424501,-1.348318,0.373913,0.711886,0.191980,0.562629,96.651709,-41.108503,67.100517
07598,NaN,-2.452044,2.711813,-0.773826,-1.858685,-3.199909,-9.292448,0.186803,-1.448487,-1.648898,0.379233,0.714713,0.195633,0.554161,97.370991,-40.072161,66.162454
07599,NaN,-2.747966,2.940916,-1.509514,-2.690391,-3.286910,-9.152343,0.211701,-1.446861,-1.972597,0.385317,0.717170,0.200502,0.544974,98.049567,-38.841270,65.289230
07600,NaN,-3.223601,3.324627,-2.047497,-3.413021,-3.646132,-8.980596,0.235743,-1.514267,-2.309383,0.392225,0.719395,0.206465,0.534792,98.711983,-37.408314,64.438173
07601,NaN,-3.679044,3.840623,-2.154930,-3.744402,-4.200060,-8.687635,0.236580,-1.644893,-2.654624,0.400112,0.721458,0.213386,0.523331,99.366600,-35.758210,63.571222
07602,NaN,-3.408118,4.457116,-1.966079,-3.544102,-4.365280,-7.882186,0.189402,-1.748469,-2.968777,0.408983,0.723166,0.221037,0.510790,99.968409,-33.915599,62.711095
07603,NaN,-2.709916,5.110175,-1.538897,-2.932934,-4.282965,-6.833442,0.146586,-1.780038,-3.252677,0.418648,0.724321,0.229485,0.497423,100.492898,-31.900221,61.904668
07604,NaN,-1.891175,5.839329,-1.237655,-2.345682,-4.053313,-5.656992,0.088243,-1.717531,-3.515443,0.428943,0.724634,0.238771,0.483634,100.901681,-29.740746,61.209279
07605,NaN,-1.239015,6.545379,-1.182165,-1.992469,-3.778659,-4.566696,0.043350,-1.584842,-3.754061,0.439659,0.723955,0.249019,0.469658,101.192388,-27.455254,60.658691
07606,NaN,-0.995128,7.145759,-1.284242,-1.902552,-3.638554,-3.743513,0.003704,-1.445732,-3.973708,0.450661,0.722278,0.260151,0.455566,101.379385,-25.062764,60.245140
07607,NaN,-1.020312,7.825061,-1.345840,-1.860841,-3.702279,-2.964023,-0.014275,-1.319583,-4.186574,0.461851,0.719659,0.272191,0.441246,101.492522,-22.561158,59.950271
07608,NaN,-1.091686,8.663113,-1.312336,-1.720048,-3.847216,-2.054419,-0.019415,-1.212485,-4.371027,0.473079,0.716184,0.284978,0.426689,101.555098,-19.970797,59.752266
07609,NaN,-0.959510,9.686426,-1.191718,-1.358153,-3.860027,-0.901669,-0.018084,-1.099475,-4.513578,0.484208,0.711889,0.298413,0.411955,101.581652,-17.310175,59.643736
07610,NaN,-0.971936,10.677199,-1.150572,-1.080414,-3.853867,0.198793,-0.016252,-1.010780,-4.654675,0.495210,0.706814,0.312386,0.396983,101.584498,-14.583623,59.606287
07611,NaN,-0.641457,11.868611,-1.209703,-0.652733,-3.479466,1.596873,-0.019142,-0.919421,-4.780515,0.506053,0.700940,0.326861,0.381778,101.568841,-11.793726,59.636417
07612,NaN,-0.454516,13.040274,-1.283860,-0.242816,-3.092358,2.924917,-0.060649,-0.834665,-4.914609,0.516842,0.694161,0.341726,0.366386,101.519336,-8.941474,59.728718
07613,NaN,-0.391741,13.743315,-1.415644,0.068549,-2.562001,3.767695,-0.101383,-0.757093,-5.014542,0.527506,0.686518,0.356865,0.350824,101.444639,-6.038541,59.872535
07614,NaN,-0.166248,14.901384,-1.713634,0.416586,-1.804474,5.071383,-0.147256,-0.681968,-5.127914,0.538036,0.677977,0.372259,0.335092,101.346691,-3.083543,60.066454
07615,NaN,-0.367433,15.785793,-2.089370,0.503396,-1.213858,6.058853,-0.195454,-0.657742,-5.241869,0.548518,0.668583,0.387787,0.318976,101.230923,-0.063509,60.280688
07616,NaN,-0.386100,16.883124,-2.404983,0.817723,-0.405776,7.218740,-0.212619,-0.700710,-5.324443,0.558873,0.658584,0.403153,0.302318,101.115900,3.004767,60.473876
07617,NaN,0.135104,18.131257,-2.904703,1.327033,1.079741,8.468141,-0.243201,-0.794245,-5.355683,0.569167,0.648089,0.418038,0.285086,100.989594,6.104647,60.611809
07618,NaN,1.037831,18.641932,-3.389699,1.923367,2.999232,8.823412,-0.222792,-0.893527,-5.394005,0.579226,0.637243,0.432467,0.267190,100.874461,9.233790,60.691821
07619,NaN,3.099276,19.479064,-3.811324,3.240021,5.939707,9.099916,-0.124432,-0.921585,-5.408134,0.588626,0.626201,0.446683,0.248730,100.816774,12.377268,60.753247
07620,NaN,6.304201,20.118530,-3.725655,5.471551,9.582475,8.531484,-0.142598,-0.723880,-5.279957,0.597042,0.614698,0.460715,0.231145,100.775320,15.424197,60.913028
07621,NaN,8.763202,20.918011,-2.936766,7.915062,12.200905,7.832695,-0.134202,-0.374236,-5.052837,0.603969,0.602915,0.474804,0.215119,100.799738,18.308687,61.254855
07622,NaN,9.418576,20.410404,-2.515977,8.723706,13.193805,6.353780,-0.096427,-0.051319,-4.615622,0.609184,0.591592,0.488300,0.201189,100.912061,20.909068,61.748511
07623,NaN,10.603961,18.836070,-1.545665,9.746766,13.933175,3.619898,-0.033447,0.240040,-4.047429,0.612647,0.581268,0.500846,0.189588,101.127417,23.158869,62.367925
07624,NaN,11.526682,16.885820,-0.505021,10.431692,14.107898,0.692437,0.011471,0.474855,-3.377973,0.614539,0.572340,0.512024,0.180555,101.422389,25.001409,63.070086
07625,NaN,12.645503,14.980219,-2.005065,8.956416,15.567319,-1.703612,0.033024,0.593721,-2.526377,0.615158,0.565414,0.521039,0.174372,101.741318,26.350300,63.757744
07626,NaN,16.938666,13.100399,-3.451832,8.655219,19.382519,-5.357520,0.016307,0.797794,-1.625266,0.614428,0.560541,0.528049,0.171570,102.072823,27.164845,64.469141
07627,NaN,17.768529,13.516669,-3.298697,9.116604,20.210532,-5.603060,-0.060417,0.796734,-0.652843,0.613049,0.557969,0.532239,0.171940,102.309189,27.432423,65.055540
07628,NaN,17.105410,14.319691,-2.074369,10.073327,19.382023,-4.831274,-0.207837,0.692483,0.341608,0.611490,0.557671,0.533194,0.175462,102.368228,27.154135,65.439914
07629,NaN,14.053272,13.205203,-1.799060,8.654575,16.417876,-4.276095,-0.256290,0.390353,1.342441,0.609972,0.560142,0.530374,0.181325,102.248836,26.352429,65.496405
07630,NaN,11.718104,14.207680,-0.247908,9.429955,13.941302,-2.333755,-0.135299,-0.129907,2.322969,0.608551,0.565999,0.523281,0.188382,102.001526,25.064475,65.100725
07631,NaN,2.415750,15.355240,1.663747,7.834780,5.420165,2.581188,-0.107750,-0.481158,2.869403,0.607346,0.573606,0.513505,0.196009,101.665984,23.508591,64.430324
07632,NaN,-17.477654,11.639774,2.070822,-1.246364,-12.543720,7.108333,-0.229072,-0.433462,2.379293,0.606740,0.579431,0.505071,0.202555,101.317679,22.219796,63.866940
07633,NaN,-10.990060,7.850056,0.384657,-1.589987,-7.484383,1.322866,0.307273,-0.656530,2.273136,0.605161,0.586760,0.496734,0.206754,101.246744,21.012890,63.191591
07634,NaN,0.665175,12.615771,0.247297,4.658455,3.121181,1.510239,0.705218,-0.797169,2.574716,0.602352,0.596086,0.487417,0.210424,101.377942,19.653549,62.400950
07635,NaN,7.602656,13.693870,-1.507174,6.547402,9.711577,0.694264,0.568973,-0.568313,2.597758,0.599251,0.604705,0.478481,0.215143,101.493281,18.256072,61.747058
