// General information: 
//  MT Manager version: 2019.0.1 
//  XDA version: 2019.0.1 build 2740 rev 84096 built on 2019-01-30
// Device information: 
//  DeviceId: 00B4381A
//  ProductCode: MTW2-3A7G6
//  Firmware Version: 4.3.4
//  Hardware Version: 1.1.0
// Device settings: 
//  Filter Profile: human(46.1)
//  Option Flags: Orientation Smoother Disabled, AHS Disabled, ICC Disabled
// Coordinate system: ENU
PacketCounter,SampleTimeFine,Acc_X,Acc_Y,Acc_Z,FreeAcc_E,FreeAcc_N,FreeAcc_U,Gyr_X,Gyr_Y,Gyr_Z,Quat_q0,Quat_q1,Quat_q2,Quat_q3,Roll,Pitch,Yaw
13410,NaN,-5.124149,7.570674,3.268264,0.017764,-0.491258,-0.116782,1.006722,0.514521,0.652010,-0.013285,0.318141,-0.461402,-0.828081,63.803890,32.625968,-161.188090
13411,NaN,-5.696208,7.960544,2.990118,0.489137,-0.644194,0.390357,1.012032,0.477898,0.678809,-0.011047,0.318482,-0.466733,-0.824989,64.653361,32.398257,-160.700217
13412,NaN,-6.417296,8.310684,2.813461,1.048299,-0.644097,0.987749,0.962765,0.309251,0.715151,-0.008977,0.318036,-0.471887,-0.822250,65.419952,32.105641,-160.310818
13413,NaN,-7.052829,8.177988,2.622327,1.716088,-0.412871,1.159178,0.892336,0.041842,0.731537,-0.007355,0.316440,-0.476753,-0.820072,66.056974,31.736969,-160.087060
13414,NaN,-6.848899,7.971330,2.636613,1.654933,-0.244400,0.892533,0.770539,-0.347346,0.759885,-0.006354,0.313178,-0.481130,-0.818775,66.498763,31.262477,-160.100195
13415,NaN,-5.643669,7.585351,2.902241,0.740503,-0.097957,0.048990,0.659395,-0.652141,0.827578,-0.005634,0.308496,-0.485134,-0.818195,66.788544,30.682856,-160.285754
13416,NaN,-3.744481,7.207505,3.502164,-0.899792,0.097017,-1.014140,0.587153,-0.759456,0.880489,-0.004847,0.303238,-0.488899,-0.817925,67.011170,30.052312,-160.525007
13417,NaN,-1.878733,7.158843,4.005917,-2.581882,0.057583,-1.802956,0.610858,-0.562485,0.862165,-0.003688,0.298816,-0.492722,-0.817264,67.306166,29.475860,-160.650859
13418,NaN,-0.868171,7.279747,4.873047,-3.815365,0.478075,-1.893797,0.634505,-0.149503,0.790065,-0.001842,0.296251,-0.496522,-0.815903,67.727226,29.029092,-160.547823
13419,NaN,-1.258973,7.118389,5.204160,-3.579157,1.022875,-1.720561,0.811790,0.365069,0.680950,0.000575,0.296043,-0.500878,-0.813314,68.385067,28.749123,-160.164255
13420,NaN,-2.977951,7.280943,4.403627,-1.832815,0.905521,-1.032496,1.098296,0.890578,0.625696,0.003657,0.298100,-0.506290,-0.809193,69.350354,28.603045,-159.478973
13421,NaN,-5.067768,7.767292,3.619917,0.084780,0.819648,0.108763,1.291444,1.204059,0.671749,0.007434,0.301286,-0.512510,-0.804055,70.519739,28.481933,-158.595462
13422,NaN,-6.773446,7.902229,2.956007,1.716299,0.952401,0.827144,1.410851,1.276103,0.757360,0.011556,0.304523,-0.519284,-0.798421,71.783111,28.311981,-157.653813
13423,NaN,-7.346689,7.864130,2.288303,2.481433,0.830827,0.873879,1.511710,1.095602,0.845412,0.015409,0.306779,-0.526553,-0.792711,73.053443,28.043814,-156.813202
13424,NaN,-6.815723,8.674385,1.704624,2.073096,0.027639,1.155541,1.581083,0.864624,0.928005,0.018871,0.307880,-0.534185,-0.787083,74.294927,27.677466,-156.110454
13425,NaN,-5.131423,8.926027,1.731885,0.610947,-0.446665,0.600220,1.534812,0.663252,1.026312,0.022253,0.307888,-0.541753,-0.781801,75.449958,27.213278,-155.528123
13426,NaN,-3.525545,9.360235,1.399370,-0.644444,-1.303474,0.181546,1.363882,0.523326,1.002587,0.025422,0.307371,-0.548582,-0.777132,76.455849,26.733599,-155.049110
13427,NaN,-3.138350,9.838211,0.913923,-0.845080,-1.874251,0.348295,1.235237,0.580321,0.911430,0.028592,0.307283,-0.554727,-0.772682,77.389791,26.304557,-154.558818
13428,NaN,-3.479247,10.215445,0.861122,-0.646953,-1.772649,0.847481,1.054845,0.607554,0.805697,0.031702,0.307552,-0.559972,-0.768660,78.214393,25.931811,-154.074861
13429,NaN,-3.779260,9.682830,0.958708,-0.288498,-1.238166,0.547892,0.818069,0.510502,0.697057,0.034488,0.307698,-0.564134,-0.765431,78.865632,25.602887,-153.671952
13430,NaN,-3.380569,9.368094,0.357312,-0.200427,-1.680025,0.008391,0.657738,0.541986,0.652176,0.037434,0.308056,-0.567587,-0.762591,79.426805,25.299364,-153.259728
13431,NaN,-4.020473,9.690336,0.570368,0.123335,-1.256265,0.617939,0.510498,0.669240,0.567331,0.040646,0.309101,-0.570312,-0.759966,79.930002,25.052656,-152.781910
13432,NaN,-5.304164,8.749705,1.842392,0.781573,0.762545,0.526217,0.377795,0.647298,0.583550,0.044059,0.309986,-0.572545,-0.757733,80.348606,24.791798,-152.319206
13433,NaN,-5.615786,7.803600,2.633901,0.900632,1.971763,-0.082790,0.486253,0.586249,0.705988,0.047594,0.310302,-0.575382,-0.755238,80.815505,24.452168,-151.885151
13434,NaN,-5.299122,7.602666,2.023555,1.034683,1.491216,-0.502440,0.644059,0.568960,0.816648,0.051248,0.310265,-0.578968,-0.752266,81.368067,24.045477,-151.455701
13435,NaN,-4.048489,8.810056,1.297617,0.091916,0.058532,-0.031173,0.749287,0.532736,0.906003,0.054971,0.309846,-0.583079,-0.748994,81.969953,23.580708,-151.046533
13436,NaN,-3.645330,9.111504,1.425395,-0.358640,0.020133,0.097363,0.823196,0.668826,0.995918,0.059308,0.309683,-0.587539,-0.745236,82.644249,23.071672,-150.552886
13437,NaN,-3.426535,9.260834,1.261070,-0.462719,-0.122581,0.130330,0.876011,0.727710,1.047897,0.063928,0.309582,-0.592228,-0.741174,83.357090,22.531241,-150.027619
13438,NaN,-2.877604,9.683620,0.639021,-0.657774,-0.879390,0.249807,0.824643,0.739648,1.004810,0.068498,0.309621,-0.596619,-0.737217,84.034033,22.010763,-149.507063
13439,NaN,-3.539362,9.568808,0.252431,0.135396,-0.723849,0.366167,0.723512,0.835027,0.925173,0.073214,0.310195,-0.600452,-0.733401,84.665885,21.535055,-148.941057
13440,NaN,-3.635720,9.512359,-0.204239,0.504245,-0.913103,0.319225,0.620072,0.787031,0.974979,0.078123,0.310393,-0.603967,-0.729915,85.221434,21.023625,-148.408971
13441,NaN,-3.152149,10.119410,-0.698479,0.273320,-1.595891,0.685096,0.473697,0.720284,0.957270,0.082992,0.310326,-0.606923,-0.726948,85.671808,20.514385,-147.925161
13442,NaN,-3.664598,10.609062,-1.034082,0.791946,-1.633880,1.311743,0.258285,0.650771,0.876640,0.087686,0.310155,-0.608975,-0.724752,85.976957,20.045904,-147.492410
13443,NaN,-3.851394,10.431033,-0.282762,0.628071,-0.794795,1.263991,-0.062830,0.424253,0.787143,0.091864,0.309283,-0.609812,-0.723902,86.046332,19.617643,-147.203930
13444,NaN,-3.214820,9.509865,0.178297,0.157260,-0.477600,0.214832,-0.277934,0.222770,0.691839,0.095411,0.307871,-0.609801,-0.724054,85.948032,19.236450,-147.042234
13445,NaN,-3.354781,9.229302,0.315688,0.321063,-0.207054,0.005049,-0.305431,0.128045,0.606047,0.098403,0.306358,-0.609600,-0.724465,85.813633,18.900113,-146.941058
13446,NaN,-3.407616,8.926926,1.199874,-0.007604,0.634871,-0.203414,-0.219325,0.020126,0.599815,0.100907,0.304516,-0.609744,-0.724776,85.706790,18.563551,-146.904756
13447,NaN,-4.528959,8.181306,2.378815,0.439989,2.386589,-0.473830,-0.012415,-0.054945,0.689582,0.103194,0.302225,-0.610809,-0.724516,85.705778,18.171951,-146.909315
13448,NaN,-4.219292,8.435899,2.012552,0.399561,1.910657,-0.367775,0.203654,-0.123798,0.812724,0.105387,0.299419,-0.612866,-0.723627,85.817050,17.707639,-146.950148
13449,NaN,-2.627269,8.953527,1.406483,-0.585494,0.527672,-0.409256,0.300255,-0.186255,0.852480,0.107387,0.296308,-0.615356,-0.722500,85.973233,17.217685,-147.027716
13450,NaN,-1.402610,9.170782,0.828837,-1.238207,-0.566468,-0.598410,0.360717,-0.162713,0.817415,0.109239,0.293419,-0.617985,-0.721157,86.167706,16.749381,-147.094020
13451,NaN,-2.418390,9.395541,0.530338,-0.260700,-0.257690,-0.103360,0.511966,-0.052494,0.763344,0.111015,0.291168,-0.621008,-0.719198,86.467126,16.315824,-147.098625
13452,NaN,-3.603622,9.418678,1.014365,0.456394,0.845472,0.277035,0.632093,-0.049585,0.832744,0.112870,0.288774,-0.624546,-0.716807,86.835607,15.843205,-147.101682
13453,NaN,-3.995129,9.208142,1.217740,0.744207,1.360679,0.178679,0.703895,-0.147221,0.950469,0.114736,0.285691,-0.628549,-0.714243,87.229995,15.299878,-147.162387
13454,NaN,-4.024912,9.115810,0.968353,0.973602,1.298051,0.066650,0.834724,-0.156922,1.080456,0.116843,0.282231,-0.633181,-0.711178,87.698072,14.682839,-147.229469
13455,NaN,-4.279382,9.698779,0.487112,1.389448,1.061729,0.654251,0.973367,-0.219947,1.221178,0.119050,0.278165,-0.638510,-0.707642,88.236671,13.984156,-147.336257
13456,NaN,-3.650853,9.809811,0.610521,0.854693,0.970058,0.592106,1.060581,-0.314305,1.403970,0.121471,0.273216,-0.644409,-0.703800,88.812475,13.180803,-147.502484
13457,NaN,-3.466454,9.630667,0.996285,0.604531,1.392288,0.358419,1.201010,-0.307420,1.580625,0.124335,0.267781,-0.650984,-0.699324,89.470706,12.277818,-147.671408
13458,NaN,-3.539295,9.465403,1.228072,0.652759,1.836608,0.178571,1.409658,-0.257572,1.746032,0.127644,0.262083,-0.658402,-0.693921,90.254840,11.282554,-147.821897
13459,NaN,-3.810260,9.284393,1.173053,1.022619,2.162546,0.003966,1.656633,-0.259246,1.879501,0.131069,0.256058,-0.666760,-0.687522,91.180142,10.212971,-147.988906
13460,NaN,-3.639641,9.740643,1.323994,0.819610,2.406254,0.356462,1.816876,-0.298422,2.073721,0.134803,0.249312,-0.675825,-0.680391,92.193090,9.035925,-148.199713
13461,NaN,-3.144839,9.986827,0.970350,0.660551,2.104386,0.468134,1.915422,-0.299413,2.367581,0.139381,0.241584,-0.685448,-0.672586,93.262767,7.694663,-148.440049
13462,NaN,-3.117321,10.801718,0.412049,0.940865,1.898278,1.235620,2.004778,-0.388918,2.601924,0.144298,0.232752,-0.695543,-0.664248,94.379158,6.227670,-148.765878
13463,NaN,-3.056457,11.664687,0.144683,1.069973,1.983370,2.033657,2.029289,-0.510631,2.749633,0.149211,0.222954,-0.705779,-0.655671,95.507993,4.689064,-149.196692
13464,NaN,-3.131878,12.467002,0.148954,1.221088,2.422079,2.752496,2.009434,-0.590222,2.832814,0.154093,0.212518,-0.715888,-0.646990,96.631801,3.116537,-149.707291
13465,NaN,-3.724828,12.271908,0.202117,1.929449,3.114116,2.478748,1.878472,-0.514878,2.857559,0.159417,0.202073,-0.725322,-0.638484,97.694882,1.534780,-150.205934
13466,NaN,-4.183007,12.685805,-0.302778,2.745888,3.294379,2.840816,1.832082,-0.523859,2.766014,0.164417,0.191835,-0.734313,-0.630040,98.744720,0.014910,-150.730928
13467,NaN,-4.747510,14.541575,-0.959253,3.632375,3.578371,4.640811,1.487103,-0.647905,2.446124,0.168242,0.182051,-0.741828,-0.623092,99.610303,-1.303257,-151.322089
13468,NaN,-3.954112,15.775220,-0.928361,3.084104,3.690523,5.750479,0.809464,-0.825745,2.175078,0.171151,0.172113,-0.747002,-0.618929,100.103544,-2.444337,-152.003071
13469,NaN,-4.625269,15.063262,-0.250284,3.642583,4.647789,4.798252,0.318461,-0.759399,1.941108,0.173980,0.162815,-0.750296,-0.616667,100.325024,-3.455201,-152.630292
13470,NaN,-4.683117,13.675019,-0.032353,3.866526,4.719394,3.291154,0.279266,-0.719279,1.764706,0.176434,0.154248,-0.753219,-0.614606,100.532511,-4.369228,-153.221093
13471,NaN,-3.415650,13.714802,-0.478178,3.139849,3.872527,3.421042,0.342309,-0.706536,1.646347,0.178503,0.146215,-0.756162,-0.612353,100.783249,-5.214483,-153.796223
13472,NaN,-1.549925,14.344117,-1.247549,1.988587,2.610499,4.291930,0.173653,-0.562880,1.345432,0.180310,0.139591,-0.758194,-0.610855,100.934982,-5.905012,-154.261426
13473,NaN,0.058296,14.097467,-1.704517,0.881304,1.534438,4.276844,-0.014363,-0.124861,0.888756,0.182501,0.135871,-0.758905,-0.610160,100.951236,-6.384254,-154.430044
13474,NaN,0.741963,13.439925,-1.821991,0.394674,1.017584,3.726521,-0.240432,0.229404,0.366778,0.184602,0.134996,-0.758244,-0.610544,100.810580,-6.609647,-154.341121
13475,NaN,0.963770,12.565432,-1.874084,0.237333,0.655561,2.909136,-0.399173,0.457789,-0.160741,0.186057,0.136679,-0.756520,-0.611865,100.556619,-6.560569,-154.065225
13476,NaN,1.114145,11.487556,-1.728036,0.007835,0.416041,1.849967,-0.535780,0.600774,-0.624443,0.186731,0.140415,-0.753921,-0.614019,100.211623,-6.264912,-153.660730
13477,NaN,1.182858,10.392726,-1.327180,-0.295505,0.409190,0.718849,-0.634744,0.673929,-1.029673,0.186493,0.145815,-0.750631,-0.616857,99.803624,-5.743815,-153.176110
13478,NaN,1.287783,9.362198,-0.990227,-0.619212,0.334760,-0.336800,-0.722893,0.720202,-1.362776,0.185460,0.152507,-0.746744,-0.620258,99.346055,-5.036749,-152.638148
13479,NaN,1.581147,8.739844,-0.597382,-1.141503,0.295794,-0.989475,-0.785660,0.752928,-1.605301,0.183824,0.160145,-0.742378,-0.624049,98.856225,-4.189606,-152.065774
13480,NaN,1.465596,8.232514,-0.615509,-1.110487,0.109762,-1.502833,-0.828613,0.802939,-1.733701,0.181994,0.168350,-0.737661,-0.628006,98.349355,-3.270511,-151.462326
13481,NaN,1.281813,7.794862,-0.513800,-1.071439,0.078422,-1.969817,-0.912728,0.823300,-1.797945,0.180083,0.176769,-0.732517,-0.632252,97.802965,-2.309736,-150.850905
13482,NaN,1.087318,7.557013,-0.202638,-1.122569,0.269165,-2.263046,-1.006395,0.753522,-1.759513,0.178104,0.184714,-0.727093,-0.636785,97.215596,-1.360956,-150.292237
13483,NaN,1.039487,7.270395,-0.034511,-1.219981,0.267762,-2.575383,-1.045507,0.533868,-1.626407,0.175762,0.191428,-0.721778,-0.641483,96.616259,-0.465675,-149.877526
13484,NaN,1.261403,6.960204,-0.143535,-1.398370,-0.093784,-2.877952,-1.040701,0.242884,-1.487495,0.172801,0.196686,-0.716807,-0.646253,96.026944,0.371776,-149.646882
13485,NaN,1.599470,6.828437,-0.148154,-1.727936,-0.394093,-3.025527,-1.030120,0.026629,-1.365185,0.169430,0.200808,-0.712113,-0.651049,95.444226,1.155452,-149.554872
13486,NaN,2.102013,6.681632,-0.279700,-2.126539,-0.877653,-3.190949,-1.011414,-0.039334,-1.258324,0.166147,0.204329,-0.707602,-0.655702,94.872964,1.881177,-149.514106
13487,NaN,2.368226,6.614566,-0.258827,-2.396412,-1.094222,-3.294479,-0.902345,0.012255,-1.105906,0.163420,0.207566,-0.703512,-0.659758,94.364378,2.518945,-149.457538
13488,NaN,2.471995,6.600333,-0.302901,-2.490871,-1.269035,-3.335696,-0.767199,0.097907,-0.939589,0.161401,0.210595,-0.699948,-0.663079,93.936504,3.057442,-149.364242
13489,NaN,2.565648,6.652843,-0.412626,-2.543759,-1.482864,-3.305534,-0.633685,0.214609,-0.836363,0.159983,0.213755,-0.696810,-0.665710,93.588455,3.534085,-149.211464
13490,NaN,2.425429,6.844824,-0.580391,-2.375733,-1.616336,-3.118352,-0.490517,0.346364,-0.753186,0.159147,0.217168,-0.694121,-0.667612,93.329129,3.958475,-148.988657
13491,NaN,2.363877,6.995630,-0.742446,-2.273318,-1.779397,-2.975770,-0.365664,0.459290,-0.689541,0.158774,0.220835,-0.691807,-0.668899,93.146444,4.344394,-148.704568
13492,NaN,2.385297,7.104959,-0.931792,-2.222079,-2.003147,-2.878148,-0.270254,0.579974,-0.647839,0.158851,0.224830,-0.689754,-0.669669,93.026451,4.702743,-148.353501
13493,NaN,2.432339,7.247557,-1.052558,-2.229543,-2.178305,-2.753287,-0.195368,0.697587,-0.640986,0.159269,0.229251,-0.687845,-0.670034,92.956371,5.054781,-147.935440
13494,NaN,2.571225,7.379328,-1.178762,-2.309609,-2.405319,-2.647837,-0.126578,0.817140,-0.650293,0.159984,0.234152,-0.686050,-0.670010,92.935407,5.408408,-147.448539
13495,NaN,2.435241,7.569945,-1.294526,-2.170644,-2.476123,-2.459649,-0.049052,0.952289,-0.680502,0.160966,0.239665,-0.684343,-0.669571,92.968809,5.775628,-146.882669
13496,NaN,2.040677,7.884796,-1.495589,-1.788127,-2.475137,-2.115463,0.021247,1.107142,-0.724233,0.162241,0.245891,-0.682674,-0.668709,93.056468,6.162265,-146.225668
13497,NaN,1.591251,8.109779,-1.711922,-1.347301,-2.446534,-1.848368,0.072591,1.263551,-0.748175,0.163899,0.252752,-0.680982,-0.667471,93.187472,6.556631,-145.476642
13498,NaN,1.158641,8.186797,-1.861867,-0.943883,-2.357164,-1.726563,0.122974,1.400930,-0.753618,0.165933,0.260117,-0.679303,-0.665848,93.362680,6.947467,-144.646668
13499,NaN,0.684572,8.306364,-1.914807,-0.572278,-2.150177,-1.555571,0.171992,1.515314,-0.709512,0.168429,0.267735,-0.677700,-0.663832,93.578977,7.306314,-143.750320
13500,NaN,0.361331,8.351350,-1.915729,-0.346102,-1.970655,-1.473484,0.215924,1.614677,-0.627828,0.171459,0.275424,-0.676222,-0.661413,93.833540,7.611098,-142.797570
13501,NaN,-0.033613,8.380746,-1.876743,-0.085981,-1.699701,-1.394625,0.240580,1.688211,-0.500346,0.175115,0.282923,-0.674883,-0.658652,94.111348,7.835634,-141.805534
13502,NaN,-0.280060,8.319132,-1.742284,0.012982,-1.425183,-1.428740,0.257151,1.712250,-0.355858,0.179288,0.290008,-0.673732,-0.655619,94.403539,7.971765,-140.804261
13503,NaN,-0.430364,8.152097,-1.587777,0.042356,-1.181222,-1.580691,0.274147,1.703125,-0.219260,0.183842,0.296594,-0.672789,-0.652372,94.705182,8.025030,-139.813633
13504,NaN,-0.580216,8.009147,-1.442817,0.073139,-0.936908,-1.708273,0.325901,1.646965,-0.097204,0.188513,0.302614,-0.672200,-0.648872,95.031915,8.006083,-138.861018
13505,NaN,-0.878630,7.962685,-1.303884,0.199112,-0.593531,-1.720449,0.389743,1.549095,0.006523,0.193084,0.308006,-0.672021,-0.645166,95.385424,7.927292,-137.970522
13506,NaN,-1.150972,8.011286,-1.266372,0.350890,-0.334421,-1.635040,0.436257,1.378017,0.115863,0.197349,0.312507,-0.672287,-0.641422,95.749908,7.790283,-137.185355
13507,NaN,-1.332620,8.079084,-1.230090,0.431561,-0.126970,-1.544805,0.499199,1.178811,0.224440,0.201186,0.316050,-0.673089,-0.637642,96.131487,7.598005,-136.522500
13508,NaN,-1.538930,8.117588,-1.207550,0.542119,0.094498,-1.480910,0.542171,0.929771,0.285097,0.204301,0.318628,-0.674351,-0.634025,96.516346,7.382658,-136.008138
13509,NaN,-1.567442,8.221188,-1.149789,0.488937,0.221587,-1.381894,0.585942,0.666317,0.330031,0.206597,0.320255,-0.676073,-0.630619,96.904253,7.155833,-135.649698
13510,NaN,-1.496877,8.461460,-1.143253,0.377293,0.244586,-1.155817,0.612835,0.421494,0.389146,0.208203,0.320932,-0.678215,-0.627439,97.288537,6.910450,-135.437432
13511,NaN,-1.382844,8.791467,-1.093883,0.192704,0.271301,-0.852354,0.602636,0.221831,0.439670,0.209304,0.320794,-0.680601,-0.624552,97.651583,6.649788,-135.344934
13512,NaN,-1.304590,8.965453,-1.041847,0.062434,0.324666,-0.699123,0.573800,0.066295,0.472710,0.210022,0.320025,-0.683104,-0.621967,97.987444,6.382021,-135.345518
13513,NaN,-1.229618,9.043827,-0.960180,-0.064815,0.399481,-0.644233,0.540564,-0.028009,0.505315,0.210570,0.318811,-0.685644,-0.619606,98.297628,6.103363,-135.404104
13514,NaN,-1.115890,9.106712,-0.860871,-0.224824,0.459630,-0.611800,0.516672,-0.070126,0.535028,0.211099,0.317336,-0.688194,-0.617352,98.591842,5.811778,-135.490633
13515,NaN,-1.091295,9.126018,-0.789187,-0.292134,0.562469,-0.609653,0.519247,-0.061221,0.566757,0.211752,0.315776,-0.690781,-0.615035,98.887709,5.501851,-135.576342
13516,NaN,-1.082446,9.121557,-0.703706,-0.352348,0.687873,-0.632712,0.535721,-0.007486,0.581516,0.212605,0.314344,-0.693377,-0.612549,99.196412,5.179234,-135.634433
13517,NaN,-1.149818,9.200273,-0.659593,-0.344414,0.843360,-0.562183,0.537135,0.073042,0.588850,0.213755,0.313129,-0.695889,-0.609916,99.509638,4.845259,-135.649241
13518,NaN,-1.142188,9.312743,-0.632900,-0.383524,0.939146,-0.463744,0.534661,0.178638,0.597439,0.215298,0.312199,-0.698285,-0.607105,99.826591,4.496391,-135.606866
13519,NaN,-1.222570,9.359651,-0.630835,-0.331267,1.077226,-0.419869,0.528428,0.287416,0.602966,0.217245,0.311567,-0.700540,-0.604132,100.143694,4.133361,-135.505441
13520,NaN,-1.478175,9.404714,-0.545287,-0.211113,1.398352,-0.382390,0.509156,0.384622,0.591417,0.219522,0.311243,-0.702601,-0.601073,100.453294,3.766345,-135.349943
13521,NaN,-1.662875,9.306823,-0.483712,-0.101556,1.640124,-0.489852,0.486763,0.455473,0.570122,0.222015,0.311176,-0.704469,-0.597999,100.751062,3.403076,-135.154215
13522,NaN,-1.852908,9.235758,-0.429474,0.009321,1.882304,-0.572922,0.511760,0.506384,0.567177,0.224635,0.311294,-0.706338,-0.594745,101.063949,3.034867,-134.931513
13523,NaN,-2.029669,9.327551,-0.348115,0.059707,2.152102,-0.506331,0.548805,0.519803,0.552743,0.227198,0.311537,-0.708262,-0.591347,101.396379,2.672154,-134.701766
13524,NaN,-2.153958,9.539586,-0.330469,0.091157,2.355137,-0.315482,0.561898,0.514948,0.508072,0.229585,0.311932,-0.710149,-0.587944,101.735528,2.333608,-134.471845
13525,NaN,-2.400909,9.760064,-0.347983,0.226465,2.624323,-0.106743,0.574071,0.517996,0.474910,0.231863,0.312462,-0.711997,-0.584523,102.079752,2.012174,-134.238306
13526,NaN,-2.603107,9.936448,-0.267458,0.266312,2.926661,0.033318,0.573123,0.497744,0.466537,0.234040,0.312955,-0.713842,-0.581131,102.422448,1.696253,-134.017136
13527,NaN,-2.588061,10.020864,-0.233585,0.201573,3.030092,0.084164,0.580694,0.462916,0.450545,0.236030,0.313408,-0.715707,-0.577780,102.766939,1.392703,-133.815288
13528,NaN,-2.645739,10.269639,-0.134533,0.110076,3.252887,0.281346,0.603991,0.414536,0.429829,0.237746,0.313815,-0.717655,-0.574429,103.123990,1.105304,-133.639788
13529,NaN,-2.823907,10.742912,-0.218452,0.187020,3.473981,0.738529,0.618940,0.331966,0.411260,0.239084,0.314066,-0.719696,-0.571173,103.487029,0.838612,-133.509577
13530,NaN,-2.955174,11.148868,-0.195779,0.167171,3.727962,1.102546,0.615231,0.243340,0.411011,0.240106,0.314054,-0.721827,-0.568054,103.847675,0.582679,-133.430510
13531,NaN,-3.007821,11.671086,-0.326850,0.181079,3.843876,1.613564,0.607315,0.145044,0.413246,0.240786,0.313743,-0.724039,-0.565115,104.201874,0.339412,-133.407820
13532,NaN,-2.913890,12.205538,-0.443668,0.083719,3.871279,2.131693,0.597860,0.069226,0.436179,0.241270,0.313116,-0.726349,-0.562285,104.551495,0.093321,-133.432150
13533,NaN,-2.803104,13.018524,-0.653376,-0.006786,3.879759,2.943210,0.556101,0.016862,0.470338,0.241720,0.312167,-0.728639,-0.559650,104.876036,-0.162991,-133.491691
13534,NaN,-2.826766,13.640484,-0.792839,-0.011177,4.005906,3.552711,0.472253,-0.017663,0.495103,0.242242,0.310922,-0.730775,-0.557327,105.154214,-0.428506,-133.575593
13535,NaN,-2.955990,14.133985,-0.915028,0.080430,4.195741,4.034093,0.366053,-0.058022,0.509907,0.242820,0.309383,-0.732669,-0.555443,105.370720,-0.694625,-133.684907
13536,NaN,-3.222673,14.402921,-0.999580,0.294243,4.463043,4.287773,0.281697,-0.111390,0.518937,0.243356,0.307554,-0.734410,-0.553922,105.541323,-0.958337,-133.826263
13537,NaN,-3.277757,14.422483,-1.079306,0.418739,4.520420,4.304910,0.126876,-0.158056,0.527320,0.243979,0.305378,-0.735775,-0.553041,105.622730,-1.217846,-133.994919
13538,NaN,-3.287869,13.996406,-1.099641,0.563350,4.477700,3.882243,0.001360,-0.204742,0.485120,0.244505,0.303068,-0.736791,-0.552726,105.635057,-1.448062,-134.183395
13539,NaN,-3.249758,13.322391,-1.080827,0.692790,4.353719,3.217283,-0.093701,-0.243489,0.397458,0.244785,0.300862,-0.737442,-0.552939,105.591940,-1.622416,-134.379288
13540,NaN,-3.360006,12.558888,-1.075781,0.944041,4.286592,2.471708,-0.162104,-0.301230,0.260228,0.244578,0.298911,-0.737777,-0.553642,105.512248,-1.713926,-134.586204
13541,NaN,-3.517534,11.763337,-0.987221,1.164327,4.281010,1.678219,-0.192831,-0.400873,0.096707,0.243592,0.297256,-0.737886,-0.554821,105.413954,-1.698442,-134.822582
13542,NaN,-3.578289,11.042050,-0.890733,1.286057,4.211154,0.963978,-0.198263,-0.544374,-0.062439,0.241645,0.295773,-0.737928,-0.556406,105.315862,-1.575447,-135.114576
13543,NaN,-3.536662,10.324544,-0.766513,1.305433,4.074876,0.256211,-0.199160,-0.733042,-0.215976,0.238568,0.294337,-0.737944,-0.558471,105.216221,-1.337597,-135.487408
13544,NaN,-3.591919,9.882727,-0.714574,1.388387,4.003475,-0.162559,-0.168027,-0.946769,-0.364197,0.234243,0.292872,-0.738084,-0.560882,105.136643,-0.988340,-135.957034
13545,NaN,-3.811215,9.723255,-0.700316,1.560250,4.064505,-0.294161,-0.128923,-1.196550,-0.495756,0.228556,0.291238,-0.738390,-0.563669,105.075380,-0.527344,-136.545054
13546,NaN,-3.887727,9.774861,-0.736816,1.623768,4.017627,-0.198821,-0.135283,-1.482334,-0.588106,0.221557,0.289107,-0.738848,-0.566951,105.008249,0.024347,-137.278455
13547,NaN,-4.001326,9.880817,-0.818807,1.736616,3.954184,-0.032147,-0.190949,-1.797466,-0.619333,0.213361,0.286124,-0.739376,-0.570906,104.898231,0.641226,-138.182032
13548,NaN,-3.790923,9.949198,-0.818524,1.569406,3.706949,0.077791,-0.294450,-2.151806,-0.601996,0.204037,0.281913,-0.739948,-0.575648,104.718009,1.295663,-139.286630
13549,NaN,-3.477730,9.875477,-0.996153,1.466241,3.223523,0.090300,-0.383986,-2.496282,-0.550700,0.193674,0.276399,-0.740558,-0.581092,104.465211,1.969803,-140.591987
13550,NaN,-2.863329,10.170931,-0.979483,0.937097,2.752486,0.392682,-0.496539,-2.717501,-0.563898,0.182582,0.270120,-0.740920,-0.587142,104.129895,2.673280,-142.022856
13551,NaN,-2.641431,10.436372,-1.256196,0.882313,2.288364,0.744563,-0.654953,-2.821738,-0.551944,0.171306,0.263301,-0.740753,-0.593811,103.679841,3.377282,-143.518605
13552,NaN,-1.951357,10.603146,-1.184250,0.258891,1.794827,0.880587,-0.813928,-2.784992,-0.588253,0.160239,0.256520,-0.739894,-0.600897,103.124491,4.080870,-144.996626
13553,NaN,-1.917347,10.869386,-1.248554,0.218020,1.584363,1.179033,-1.018051,-2.695051,-0.596483,0.149699,0.249832,-0.738155,-0.608524,102.434441,4.764164,-146.431685
13554,NaN,-1.603720,10.773688,-1.424046,0.071264,1.063555,1.120417,-1.173703,-2.580160,-0.582520,0.139796,0.243260,-0.735739,-0.616416,101.646548,5.404800,-147.814225
13555,NaN,-1.268437,10.786157,-1.536279,-0.154838,0.600071,1.138255,-1.254703,-2.355326,-0.556022,0.130866,0.237190,-0.732780,-0.624218,100.805455,5.988292,-149.082872
13556,NaN,-0.932279,10.851284,-1.579099,-0.431208,0.209130,1.181875,-1.347176,-2.013699,-0.550862,0.123298,0.232056,-0.729214,-0.631819,99.922509,6.512119,-150.168580
13557,NaN,-0.747376,10.693542,-1.656979,-0.523237,-0.153669,1.020393,-1.433895,-1.590676,-0.591803,0.117220,0.228331,-0.724939,-0.639208,99.004533,7.004533,-151.018700
13558,NaN,-0.723958,10.445802,-1.705717,-0.476269,-0.413644,0.777287,-1.469762,-1.126495,-0.671878,0.112603,0.226324,-0.720131,-0.646149,98.095535,7.486913,-151.605698
13559,NaN,-0.708869,10.260150,-1.877931,-0.382696,-0.767539,0.606596,-1.465889,-0.660836,-0.782776,0.109284,0.226212,-0.714860,-0.652579,97.216211,7.989787,-151.925350
13560,NaN,-1.062080,10.201183,-1.939573,-0.047299,-0.840708,0.591269,-1.469207,-0.232455,-0.918038,0.107057,0.227952,-0.709160,-0.658535,96.371193,8.533541,-151.997592
13561,NaN,-1.315068,9.980349,-2.052322,0.245726,-1.008607,0.408293,-1.473036,0.129825,-1.065262,0.105619,0.231397,-0.703005,-0.664142,95.551990,9.140693,-151.860068
13562,NaN,-1.380063,9.607370,-2.099527,0.366751,-1.196048,0.038540,-1.461816,0.466417,-1.202534,0.104892,0.236417,-0.696512,-0.669310,94.776078,9.808496,-151.529014
13563,NaN,-1.571160,9.256004,-2.158625,0.592796,-1.317641,-0.288399,-1.415725,0.763671,-1.343515,0.104657,0.242933,-0.689756,-0.673994,94.057362,10.550093,-151.027300
13564,NaN,-1.889836,8.996222,-2.220987,0.904593,-1.362453,-0.498192,-1.342564,0.985385,-1.474303,0.104651,0.250647,-0.682915,-0.678123,93.414649,11.361840,-150.399202
13565,NaN,-2.244792,8.871078,-2.280937,1.209082,-1.374383,-0.561456,-1.257394,1.116550,-1.571119,0.104637,0.259159,-0.676062,-0.681783,92.841428,12.233603,-149.698417
13566,NaN,-2.465947,8.773117,-2.347362,1.388152,-1.443051,-0.617708,-1.170334,1.178036,-1.635880,0.104490,0.268101,-0.669323,-0.684990,92.338958,13.145018,-148.965778
13567,NaN,-2.692051,8.722518,-2.342209,1.517990,-1.440265,-0.623822,-1.097389,1.172130,-1.656509,0.104134,0.277102,-0.662696,-0.687899,91.884797,14.076630,-148.241426
13568,NaN,-2.897254,8.641467,-2.449291,1.689705,-1.531537,-0.654854,-1.016696,1.101625,-1.660788,0.103411,0.285873,-0.656314,-0.690532,91.479862,15.014805,-147.562802
13569,NaN,-2.963765,8.520804,-2.651351,1.806737,-1.761695,-0.754626,-0.935336,0.991101,-1.637714,0.102268,0.294204,-0.650203,-0.692980,91.110816,15.948033,-146.954010
13570,NaN,-2.838539,8.601235,-2.703838,1.644163,-1.986947,-0.718913,-0.876284,0.856122,-1.584284,0.100782,0.301883,-0.644397,-0.695314,90.764020,16.853139,-146.429403
13571,NaN,-3.022167,8.653271,-2.834717,1.781598,-2.114260,-0.625595,-0.860496,0.658701,-1.521279,0.098836,0.308662,-0.638758,-0.697816,90.395087,17.728906,-146.027356
13572,NaN,-3.555383,8.680498,-2.840208,2.134447,-1.953746,-0.448710,-0.886912,0.327315,-1.437825,0.096165,0.313970,-0.633290,-0.700799,89.955666,18.557633,-145.829578
13573,NaN,-3.623269,8.490856,-2.871003,2.199225,-2.036563,-0.621416,-0.960696,-0.080464,-1.316255,0.092728,0.317417,-0.627885,-0.704563,89.391921,19.319520,-145.885428
13574,NaN,-3.284069,8.421242,-2.761200,1.848181,-2.251315,-0.821552,-1.008535,-0.462079,-1.201008,0.088578,0.319104,-0.622649,-0.708967,88.721791,20.008646,-146.180919
13575,NaN,-2.743817,8.290733,-2.723251,1.407656,-2.620144,-1.162120,-1.027015,-0.729053,-1.082502,0.084031,0.319457,-0.617593,-0.713768,87.976206,20.624541,-146.647952
13576,NaN,-2.437642,8.176094,-2.620450,1.117181,-2.806932,-1.414551,-0.987993,-0.917081,-0.934594,0.079373,0.318666,-0.612970,-0.718623,87.207495,21.142869,-147.236450
13577,NaN,-2.272127,8.108779,-2.525658,0.933816,-2.926901,-1.575360,-0.910359,-1.063393,-0.788102,0.074654,0.316920,-0.608858,-0.723381,86.442375,21.567799,-147.919412
13578,NaN,-1.929490,8.155711,-2.583546,0.666335,-3.274662,-1.704381,-0.817121,-1.149916,-0.643157,0.070053,0.314425,-0.605325,-0.727881,85.708306,21.895674,-148.656851
13579,NaN,-1.578133,8.370540,-2.637067,0.342654,-3.649178,-1.683991,-0.719595,-1.155268,-0.496415,0.065804,0.311493,-0.602329,-0.732012,85.024163,22.133328,-149.396347
13580,NaN,-1.287627,8.553790,-2.645537,0.053213,-3.931811,-1.666431,-0.646145,-1.073728,-0.370362,0.062154,0.308479,-0.599759,-0.735708,84.401892,22.293210,-150.081995
13581,NaN,-1.083367,8.692729,-2.645316,-0.156537,-4.140439,-1.653848,-0.585221,-0.944183,-0.269080,0.059159,0.305655,-0.597491,-0.738972,83.843229,22.398576,-150.684064
13582,NaN,-0.850595,8.784119,-2.624881,-0.382707,-4.317966,-1.689720,-0.531463,-0.776299,-0.189106,0.056887,0.303210,-0.595494,-0.741764,83.357314,22.461889,-151.178272
13583,NaN,-0.621512,8.951241,-2.621573,-0.614253,-4.517521,-1.651923,-0.475045,-0.564779,-0.128015,0.055375,0.301387,-0.593713,-0.744046,82.953089,22.503307,-151.538680
13584,NaN,-0.521802,9.072876,-2.571756,-0.747617,-4.596374,-1.595782,-0.421821,-0.318168,-0.081061,0.054699,0.300344,-0.592141,-0.745768,82.640012,22.531703,-151.743799
13585,NaN,-0.526879,9.194398,-2.534597,-0.784750,-4.631898,-1.495939,-0.375425,-0.080578,-0.055351,0.054744,0.300131,-0.590700,-0.746992,82.408979,22.564056,-151.801072
13586,NaN,-0.427875,9.347047,-2.613671,-0.851388,-4.813211,-1.416872,-0.323719,0.154774,-0.032125,0.055502,0.300733,-0.589433,-0.747695,82.265013,22.599277,-151.711623
13587,NaN,-0.305945,9.712553,-2.819632,-0.924783,-5.169309,-1.163956,-0.279504,0.369411,-0.017226,0.056873,0.302112,-0.588282,-0.747942,82.196775,22.644355,-151.489084
13588,NaN,-0.313711,10.241425,-3.115659,-0.883841,-5.588006,-0.719533,-0.247623,0.560871,0.000279,0.058832,0.304155,-0.587228,-0.747792,82.193854,22.692983,-151.147121
13589,NaN,-0.476419,10.613411,-3.221113,-0.765471,-5.724789,-0.331772,-0.270793,0.739732,0.043173,0.061505,0.306737,-0.586085,-0.747418,82.221289,22.732387,-150.691400
13590,NaN,-0.821061,10.600613,-3.161473,-0.475218,-5.516632,-0.201090,-0.288270,0.906054,0.110904,0.064950,0.309724,-0.584926,-0.746803,82.281263,22.744568,-150.127460
13591,NaN,-1.169124,10.400518,-2.967368,-0.200109,-5.125129,-0.219166,-0.271764,1.054332,0.197311,0.069119,0.313016,-0.583894,-0.745863,82.388505,22.719318,-149.465038
13592,NaN,-1.429804,9.960042,-2.732150,0.044471,-4.651527,-0.481426,-0.219431,1.178250,0.269414,0.073839,0.316560,-0.583112,-0.744525,82.557036,22.659881,-148.720775
13593,NaN,-1.571392,9.463139,-2.493008,0.199132,-4.199443,-0.837163,-0.110220,1.271836,0.333725,0.078892,0.320298,-0.582779,-0.742666,82.811280,22.569064,-147.914339
13594,NaN,-1.547220,9.131044,-2.327255,0.211635,-3.926103,-1.110590,0.050185,1.311138,0.377053,0.083964,0.324100,-0.583071,-0.740228,83.165977,22.451528,-147.081703
13595,NaN,-1.559789,9.108758,-2.217437,0.194054,-3.762591,-1.087771,0.248537,1.304897,0.412439,0.088819,0.327848,-0.584130,-0.737169,83.631896,22.308652,-146.251905
13596,NaN,-1.776807,9.198266,-2.051467,0.259438,-3.467645,-0.875066,0.449022,1.246300,0.447075,0.093302,0.331348,-0.585983,-0.733572,84.196412,22.134875,-145.458462
13597,NaN,-2.004029,9.470508,-1.881146,0.269275,-3.198557,-0.488466,0.643202,1.133498,0.513846,0.097369,0.334317,-0.588684,-0.729522,84.844634,21.909647,-144.733376
13598,NaN,-2.097604,9.885003,-1.724033,0.139536,-3.031025,-0.020977,0.809789,0.959669,0.607822,0.100988,0.336435,-0.592204,-0.725195,85.545121,21.613961,-144.114784
13599,NaN,-2.131929,10.213597,-1.482325,-0.068829,-2.784749,0.350914,0.923292,0.750721,0.726468,0.104219,0.337490,-0.596415,-0.720783,86.261273,21.235269,-143.624375
13600,NaN,-2.065134,10.343565,-1.120584,-0.374950,-2.430291,0.505308,1.018110,0.530209,0.856493,0.107100,0.337390,-0.601269,-0.716361,86.978365,20.768653,-143.271168
13601,NaN,-1.712646,10.412291,-0.680537,-0.922717,-2.146441,0.499992,1.088443,0.334564,0.988719,0.109738,0.336216,-0.606674,-0.711943,87.690780,20.217363,-143.040869
13602,NaN,-1.286336,10.305072,-0.355407,-1.404506,-1.945753,0.297438,1.137957,0.184665,1.093323,0.112207,0.334193,-0.612473,-0.707532,88.395157,19.600329,-142.908115
13603,NaN,-0.898915,10.182448,-0.055931,-1.832100,-1.739248,0.092339,1.141342,0.055198,1.157898,0.114493,0.331498,-0.618430,-0.703238,89.072813,18.943336,-142.861200
13604,NaN,-0.577891,10.008994,0.213131,-2.174839,-1.513374,-0.141235,1.109888,-0.035380,1.153249,0.116529,0.328456,-0.624275,-0.699155,89.710700,18.287863,-142.877494
13605,NaN,-0.425615,9.930884,0.391582,-2.357234,-1.291076,-0.235026,1.042328,-0.077853,1.111218,0.118389,0.325340,-0.629807,-0.695328,90.301043,17.656621,-142.926464
13606,NaN,-0.329323,9.811950,0.619659,-2.514703,-1.000773,-0.355421,0.946680,-0.067444,1.064433,0.120269,0.322330,-0.634884,-0.691781,90.836003,17.052670,-142.975461
13607,NaN,-0.202117,9.654926,0.760197,-2.631551,-0.805424,-0.524995,0.838674,0.006807,1.019902,0.122398,0.319639,-0.639447,-0.688445,91.322037,16.473622,-142.984817
13608,NaN,-0.043714,9.358886,0.952483,-2.768614,-0.581052,-0.840845,0.742037,0.147301,0.979262,0.124987,0.317489,-0.643494,-0.685196,91.773884,15.916015,-142.914810
13609,NaN,0.208490,9.069311,1.092066,-2.949637,-0.471080,-1.177564,0.680017,0.357075,0.935055,0.128193,0.316148,-0.647110,-0.681810,92.223165,15.378585,-142.723765
13610,NaN,0.475043,8.831407,1.125359,-3.094436,-0.477738,-1.465148,0.645562,0.661467,0.892721,0.132289,0.315948,-0.650315,-0.678061,92.696062,14.856873,-142.356246
13611,NaN,0.542759,8.603780,1.070959,-3.041928,-0.452157,-1.688140,0.650781,1.025158,0.845050,0.137394,0.317123,-0.653197,-0.673714,93.222805,14.347963,-141.777747
13612,NaN,0.267900,8.499625,0.921828,-2.705996,-0.318315,-1.704607,0.655000,1.375722,0.782630,0.143415,0.319667,-0.655704,-0.668803,93.795582,13.857744,-140.996692
13613,NaN,0.039389,8.395985,0.851772,-2.462322,-0.150230,-1.742148,0.657820,1.739991,0.720328,0.150409,0.323604,-0.657811,-0.663282,94.413732,13.379501,-140.005705
13614,NaN,0.028122,8.311918,0.819209,-2.417874,-0.091164,-1.818623,0.677929,2.129466,0.668762,0.158459,0.328983,-0.659524,-0.657031,95.085415,12.902247,-138.791401
13615,NaN,0.177475,8.344257,0.724498,-2.484914,-0.196213,-1.814601,0.732254,2.573891,0.588155,0.167600,0.336073,-0.660830,-0.649822,95.835122,12.431096,-137.321282
13616,NaN,0.142527,8.530693,0.621548,-2.455357,-0.201463,-1.620640,0.778735,3.077056,0.462628,0.177875,0.345181,-0.661502,-0.641581,96.661078,11.981379,-135.559270
13617,NaN,-0.563606,8.717483,0.443897,-1.924001,0.208986,-1.282560,0.793136,3.610814,0.342998,0.189459,0.356300,-0.661345,-0.632280,97.545126,11.535032,-133.488676
13618,NaN,-1.829787,8.958190,0.119412,-0.970134,0.961058,-0.771392,0.792238,3.936625,0.233717,0.201700,0.368682,-0.660430,-0.622273,98.449237,11.094300,-131.231196
13619,NaN,-3.099462,9.236007,-0.073529,-0.187164,1.882246,-0.255765,0.773928,4.036322,0.156155,0.213985,0.381453,-0.658945,-0.611960,99.336130,10.652872,-128.920068
13620,NaN,-4.496555,9.605096,-0.267562,0.582789,2.967592,0.355767,0.669383,3.849976,0.175452,0.225823,0.393331,-0.657107,-0.602084,100.123385,10.186708,-126.727939
13621,NaN,-5.473847,9.809610,-0.322050,0.986572,3.869405,0.691821,0.536234,3.382341,0.259421,0.236569,0.403237,-0.655342,-0.593264,100.766927,9.693855,-124.821676
13622,NaN,-5.963607,9.805537,-0.353188,1.139698,4.412390,0.726101,0.402904,2.785044,0.388848,0.245946,0.410695,-0.653984,-0.585787,101.258011,9.176108,-123.278071
13623,NaN,-6.043484,9.786069,-0.391430,1.105472,4.605881,0.675655,0.312998,2.168101,0.520215,0.253840,0.415734,-0.653285,-0.579612,101.625798,8.642551,-122.106632
13624,NaN,-5.908222,9.858038,-0.529760,1.056274,4.546174,0.703187,0.218463,1.614103,0.613882,0.260361,0.418704,-0.653142,-0.574721,101.880806,8.115611,-121.264838
13625,NaN,-5.541376,9.771016,-0.621274,0.930454,4.300761,0.541163,0.103323,1.180457,0.699619,0.265942,0.419970,-0.653372,-0.570968,102.026551,7.588731,-120.681732
13626,NaN,-5.174847,9.474908,-0.693547,0.873995,4.049114,0.181007,0.030104,0.836606,0.760177,0.270712,0.419946,-0.653952,-0.568073,102.099423,7.068433,-120.301833
13627,NaN,-4.882243,9.168375,-0.725752,0.843573,3.865949,-0.181267,0.006443,0.579264,0.778987,0.274739,0.419084,-0.654833,-0.565757,102.137368,6.568055,-120.070364
13628,NaN,-4.646054,8.936387,-0.704534,0.787644,3.746917,-0.470265,0.004655,0.405463,0.774435,0.278179,0.417736,-0.655927,-0.563803,102.161928,6.091193,-119.936754
13629,NaN,-4.488286,8.664245,-0.680311,0.779602,3.687297,-0.786490,0.029357,0.300866,0.754552,0.281165,0.416185,-0.657179,-0.562007,102.193276,5.638187,-119.859968
13630,NaN,-4.385461,8.384817,-0.646791,0.788854,3.673408,-1.104122,0.095802,0.252598,0.728449,0.283775,0.414671,-0.658625,-0.560119,102.260278,5.205446,-119.807598
13631,NaN,-4.322748,8.284232,-0.583923,0.744983,3.710891,-1.249424,0.189295,0.244388,0.700569,0.286082,0.413354,-0.660272,-0.557975,102.379730,4.789638,-119.757124
13632,NaN,-4.481378,8.463010,-0.517214,0.735745,3.952972,-1.106078,0.286101,0.242687,0.677141,0.288114,0.412241,-0.662138,-0.555536,102.554920,4.386613,-119.705839
13633,NaN,-4.870795,8.587208,-0.381425,0.788123,4.431068,-1.017561,0.368989,0.207108,0.664736,0.289818,0.411185,-0.664245,-0.552912,102.775147,3.995497,-119.674278
13634,NaN,-5.286617,8.739618,-0.253115,0.850023,4.932501,-0.905350,0.431834,0.118596,0.662024,0.291087,0.409976,-0.666643,-0.550250,103.028449,3.616413,-119.693628
13635,NaN,-5.626980,8.933006,-0.121041,0.864122,5.374280,-0.765810,0.480912,-0.030807,0.679528,0.291799,0.408366,-0.669411,-0.547704,103.303986,3.248163,-119.800383
13636,NaN,-5.790798,9.040296,-0.012440,0.836886,5.646297,-0.719897,0.512224,-0.218889,0.696301,0.291860,0.406219,-0.672568,-0.545395,103.593066,2.895151,-120.016247
13637,NaN,-5.817492,9.113937,0.015309,0.825369,5.754766,-0.696318,0.537983,-0.407750,0.705277,0.291248,0.403561,-0.676066,-0.543367,103.892111,2.565342,-120.340123
13638,NaN,-5.680077,9.263909,0.001295,0.756146,5.704843,-0.594999,0.557033,-0.597362,0.705473,0.289953,0.400400,-0.679883,-0.541633,104.200270,2.262129,-120.771370
13639,NaN,-5.533195,9.831458,-0.053688,0.625213,5.664083,-0.075981,0.567016,-0.788007,0.694985,0.287947,0.396765,-0.683949,-0.540257,104.511244,1.995912,-121.308319
13640,NaN,-5.508081,10.733471,-0.231208,0.587870,5.703250,0.804591,0.524507,-0.998013,0.708056,0.285336,0.392435,-0.688212,-0.539390,104.797439,1.753931,-121.965192
13641,NaN,-5.572223,11.729195,-0.405352,0.588346,5.834692,1.780305,0.448301,-1.253235,0.761398,0.282119,0.387112,-0.692690,-0.539197,105.037034,1.525182,-122.772009
13642,NaN,-5.735857,13.085552,-0.539222,0.553000,6.120519,3.096795,0.368260,-1.553174,0.853430,0.278254,0.380513,-0.697518,-0.539679,105.230927,1.291342,-123.759629
13643,NaN,-6.237108,14.437287,-0.708536,0.775877,6.673624,4.424499,0.272969,-1.868607,0.959478,0.273720,0.372534,-0.702646,-0.540910,105.368778,1.051886,-124.937854
13644,NaN,-6.969678,15.208183,-0.988457,1.413898,7.263777,5.223171,0.117802,-2.234201,1.068796,0.268459,0.362910,-0.707980,-0.543130,105.420767,0.807154,-126.335370
13645,NaN,-7.237228,15.086423,-1.166573,1.968822,7.362451,5.128892,-0.091097,-2.627873,1.155505,0.262362,0.351576,-0.713288,-0.546609,105.354086,0.577010,-127.962992
13646,NaN,-6.972583,14.357361,-1.477468,2.470228,6.813738,4.484073,-0.286756,-2.997146,1.200636,0.255363,0.338721,-0.718475,-0.551228,105.181718,0.371417,-129.801441
13647,NaN,-6.239352,13.727688,-1.931322,2.740432,5.781139,3.977547,-0.396325,-3.257557,1.156893,0.247410,0.325084,-0.723395,-0.556604,104.949124,0.225507,-131.776142
13648,NaN,-5.313329,13.338618,-2.264679,2.683617,4.696567,3.678565,-0.459961,-3.376402,1.046599,0.238759,0.311322,-0.727901,-0.562345,104.686151,0.146377,-133.800366
13649,NaN,-4.482927,13.309954,-2.549626,2.513711,3.768078,3.723582,-0.523396,-3.383215,0.847665,0.229536,0.298106,-0.731677,-0.568414,104.385137,0.172039,-135.798752
13650,NaN,-3.906994,13.518112,-2.657414,2.294786,3.178071,3.960324,-0.583741,-3.321147,0.598865,0.219865,0.285802,-0.734641,-0.574700,104.049647,0.312630,-137.728348
13651,NaN,-3.459821,13.712298,-2.689103,2.072280,2.718128,4.170964,-0.665576,-3.241136,0.346480,0.209806,0.274499,-0.736687,-0.581312,103.658105,0.573945,-139.579090
13652,NaN,-3.219599,13.648304,-2.599471,1.932407,2.429298,4.107076,-0.730117,-3.165978,0.120080,0.199409,0.264091,-0.737981,-0.588113,103.223457,0.934529,-141.360312
13653,NaN,-2.973732,13.672481,-2.659363,1.830505,2.023950,4.165889,-0.809461,-3.088515,-0.139441,0.188576,0.254736,-0.738404,-0.595237,102.728456,1.419162,-143.067380
13654,NaN,-2.917820,13.725366,-2.547456,1.738116,1.851203,4.220686,-0.900245,-3.029952,-0.432577,0.177167,0.246471,-0.737966,-0.602720,102.170151,2.041288,-144.710797
13655,NaN,-2.768103,13.693204,-2.616507,1.657302,1.436563,4.229931,-1.085975,-2.960485,-0.670242,0.165468,0.239080,-0.736397,-0.610886,101.485005,2.774240,-146.294121
13656,NaN,-2.494986,13.420735,-2.606547,1.441663,0.962486,3.975809,-1.242040,-2.879691,-0.857863,0.153650,0.232418,-0.733892,-0.619496,100.695790,3.579796,-147.822061
13657,NaN,-1.924410,13.182980,-2.518826,0.904883,0.399540,3.709606,-1.367459,-2.680189,-1.027855,0.142131,0.226858,-0.730432,-0.628334,99.817022,4.442054,-149.232429
13658,NaN,-1.708600,12.788173,-2.487822,0.701696,-0.030974,3.307692,-1.482997,-2.431506,-1.187830,0.131127,0.222508,-0.726098,-0.637243,98.866086,5.345530,-150.502448
13659,NaN,-1.370440,12.169922,-2.327915,0.352352,-0.414627,2.641243,-1.561852,-2.143560,-1.342782,0.120719,0.219552,-0.720956,-0.646101,97.861914,6.294509,-151.612361
13660,NaN,-1.127850,11.545108,-2.208547,0.097841,-0.754673,1.970897,-1.591121,-1.821796,-1.495033,0.110999,0.218104,-0.715234,-0.654638,96.847030,7.283395,-152.545870
13661,NaN,-0.831945,11.064762,-2.100685,-0.229680,-1.090738,1.424957,-1.599920,-1.467466,-1.659274,0.101984,0.218370,-0.708939,-0.662812,95.833192,8.330069,-153.284742
13662,NaN,-0.672715,10.694008,-2.020100,-0.449709,-1.358676,0.996585,-1.586641,-1.080769,-1.821034,0.093783,0.220443,-0.702215,-0.670451,94.849825,9.432218,-153.812076
13663,NaN,-0.617001,10.336517,-1.931034,-0.588780,-1.553177,0.588653,-1.558720,-0.701595,-1.979906,0.086321,0.224334,-0.695081,-0.677559,93.904177,10.602724,-154.132925
13664,NaN,-0.751367,9.986835,-1.883410,-0.545795,-1.683925,0.222706,-1.531633,-0.369132,-2.126947,0.079484,0.229821,-0.687638,-0.684119,93.006078,11.837500,-154.275101
13665,NaN,-1.086336,9.680308,-1.910293,-0.305338,-1.783404,-0.052663,-1.504338,-0.116065,-2.260687,0.073002,0.236615,-0.679882,-0.690250,92.145212,13.143008,-154.285651
13666,NaN,-1.192643,9.404002,-1.927699,-0.277058,-1.958781,-0.344088,-1.502366,0.070054,-2.361912,0.066798,0.244339,-0.671843,-0.696034,91.310970,14.499995,-154.204332
13667,NaN,-1.064611,9.098523,-1.913905,-0.455024,-2.189851,-0.725794,-1.515929,0.241425,-2.430505,0.060923,0.252847,-0.663453,-0.701560,90.488759,15.898638,-154.040842
13668,NaN,-0.980243,8.812733,-1.928317,-0.577685,-2.414355,-1.084823,-1.513285,0.411428,-2.482508,0.055424,0.262059,-0.654843,-0.706706,89.699224,17.326102,-153.794629
13669,NaN,-0.958294,8.511924,-2.076398,-0.572160,-2.714366,-1.447114,-1.496777,0.563667,-2.509933,0.050282,0.271858,-0.646042,-0.711474,88.944135,18.776172,-153.475741
13670,NaN,-0.923078,8.218033,-2.097300,-0.623093,-2.887814,-1.809255,-1.468765,0.700710,-2.515430,0.045525,0.282097,-0.637182,-0.715785,88.238525,20.232269,-153.089954
13671,NaN,-0.942949,7.983264,-2.180810,-0.603256,-3.086772,-2.100245,-1.444438,0.811224,-2.505290,0.041099,0.292651,-0.628227,-0.719720,87.571565,21.691833,-152.651931
13672,NaN,-1.024165,7.742771,-2.173758,-0.562007,-3.162072,-2.369118,-1.422080,0.878393,-2.486264,0.036923,0.303316,-0.619253,-0.723299,86.942172,23.144188,-152.184478
13673,NaN,-1.009288,7.520734,-2.274377,-0.542058,-3.361041,-2.660096,-1.376714,0.924867,-2.427566,0.033015,0.313918,-0.610361,-0.726516,86.354175,24.571633,-151.698458
13674,NaN,-1.006447,7.376100,-2.412714,-0.505505,-3.589942,-2.877618,-1.332754,0.927897,-2.350240,0.029332,0.324226,-0.601647,-0.729410,85.803370,25.956754,-151.216562
13675,NaN,-1.030734,7.306421,-2.638891,-0.415586,-3.889872,-3.022705,-1.296480,0.902741,-2.246809,0.025874,0.334082,-0.593094,-0.732093,85.271660,27.288198,-150.755527
13676,NaN,-1.132266,7.241627,-2.770949,-0.303550,-4.065918,-3.121237,-1.269652,0.798842,-2.108937,0.022575,0.343084,-0.584801,-0.734705,84.735764,28.537080,-150.361574
13677,NaN,-1.393178,7.136025,-2.926756,-0.032659,-4.170991,-3.177198,-1.250891,0.629009,-1.940059,0.019353,0.350925,-0.576773,-0.737435,84.161849,29.685875,-150.078026
13678,NaN,-1.636192,7.019903,-2.964139,0.173067,-4.172576,-3.232386,-1.245545,0.388312,-1.739348,0.016176,0.357247,-0.569087,-0.740441,83.520277,30.705788,-149.948934
13679,NaN,-1.788767,6.939482,-2.884179,0.241888,-4.122421,-3.284263,-1.211803,0.110211,-1.482388,0.013086,0.361781,-0.561927,-0.743762,82.805791,31.563970,-149.997928
13680,NaN,-1.869987,6.843455,-2.837579,0.291933,-4.118326,-3.383494,-1.162040,-0.160625,-1.214703,0.010151,0.364521,-0.555428,-0.747342,82.031416,32.246874,-150.216891
13681,NaN,-1.650981,6.859568,-2.800999,0.093235,-4.282906,-3.545950,-1.069142,-0.389555,-0.942251,0.007417,0.365639,-0.549732,-0.751031,81.231249,32.755635,-150.576148
13682,NaN,-1.432857,6.931726,-2.955843,-0.011209,-4.613022,-3.684226,-0.935385,-0.554345,-0.659034,0.005060,0.365339,-0.545054,-0.754598,80.458641,33.082969,-151.024809
13683,NaN,-1.275406,7.101691,-3.069154,-0.126135,-4.910001,-3.700749,-0.798019,-0.638675,-0.407940,0.003159,0.364035,-0.541320,-0.757919,79.742857,33.257160,-151.507822
13684,NaN,-1.078101,7.202453,-3.188093,-0.234605,-5.185017,-3.790914,-0.671683,-0.652156,-0.169104,0.001907,0.362019,-0.538501,-0.760891,79.110438,33.288845,-151.972129
13685,NaN,-0.783194,7.270083,-3.304007,-0.399702,-5.466708,-3.952731,-0.536151,-0.585454,0.021947,0.001307,0.359743,-0.536520,-0.763367,78.592679,33.218203,-152.367105
13686,NaN,-0.596064,7.302796,-3.252280,-0.561413,-5.538498,-4.044394,-0.392672,-0.444336,0.167317,0.001391,0.357605,-0.535353,-0.765189,78.222479,33.078083,-152.645772
13687,NaN,-0.551292,7.247301,-3.206113,-0.579069,-5.508020,-4.117706,-0.233632,-0.261969,0.266386,0.002051,0.355905,-0.534957,-0.766256,78.017711,32.904089,-152.787644
13688,NaN,-0.484263,7.317056,-3.033204,-0.729770,-5.423282,-4.065554,-0.093716,-0.087416,0.329352,0.003177,0.354699,-0.535215,-0.766631,77.962829,32.714018,-152.803050
13689,NaN,-0.414878,7.468006,-3.010061,-0.831366,-5.486730,-3.963905,0.028568,0.049329,0.358273,0.004558,0.353947,-0.535983,-0.766436,78.028720,32.525121,-152.723566
13690,NaN,-0.255841,7.964010,-3.084696,-1.076407,-5.802907,-3.634195,0.135257,0.166947,0.367621,0.006106,0.353615,-0.537178,-0.765741,78.198386,32.343640,-152.565068
13691,NaN,-0.087296,8.781463,-3.285353,-1.378661,-6.352083,-3.055070,0.233564,0.316324,0.376892,0.007912,0.353837,-0.538754,-0.764514,78.476781,32.174547,-152.307351
13692,NaN,-0.148415,9.642032,-3.373815,-1.582862,-6.724447,-2.286104,0.293963,0.487270,0.411701,0.010210,0.354612,-0.540615,-0.762812,78.851102,32.003102,-151.933260
13693,NaN,-0.295271,10.241828,-3.273576,-1.723354,-6.784747,-1.645972,0.315569,0.682992,0.489786,0.013293,0.355921,-0.542678,-0.760687,79.309763,31.807132,-151.421540
13694,NaN,-0.390125,10.418383,-3.029574,-1.815007,-6.559185,-1.353657,0.323969,0.896975,0.648466,0.017548,0.357602,-0.545026,-0.758129,79.853951,31.539657,-150.752304
13695,NaN,-0.514545,10.468232,-2.757042,-1.842517,-6.229372,-1.138091,0.396934,1.092581,0.839066,0.022926,0.359498,-0.547956,-0.754971,80.513353,31.177783,-149.937178
13696,NaN,-0.831132,10.635367,-2.600824,-1.695978,-5.934961,-0.731718,0.498964,1.229404,1.027946,0.029208,0.361380,-0.551557,-0.751223,81.277521,30.712766,-149.021024
13697,NaN,-1.207793,11.103529,-2.430255,-1.612775,-5.686810,-0.029562,0.585848,1.290796,1.221989,0.036230,0.362944,-0.555790,-0.747032,82.108976,30.131598,-148.057966
13698,NaN,-1.544033,11.564752,-2.287144,-1.530343,-5.439199,0.648095,0.639938,1.260251,1.400557,0.043732,0.363872,-0.560496,-0.742650,82.950659,29.434974,-147.116116
13699,NaN,-1.661901,11.865076,-2.119705,-1.554989,-5.182905,1.084561,0.689845,1.159279,1.570077,0.051487,0.363923,-0.565671,-0.738191,83.776905,28.622662,-146.245278
13700,NaN,-1.643902,12.063850,-1.860434,-1.689077,-4.862639,1.376449,0.720662,1.022366,1.698279,0.059264,0.363075,-0.571156,-0.733788,84.560596,27.719399,-145.475129
13701,NaN,-1.561185,12.211272,-1.537754,-1.884928,-4.494073,1.596171,0.751396,0.892359,1.787809,0.066940,0.361461,-0.576904,-0.729416,85.307355,26.748409,-144.803006
13702,NaN,-1.331490,12.246506,-1.215005,-2.148653,-4.156583,1.647086,0.793189,0.789713,1.866214,0.074519,0.359220,-0.582901,-0.725007,86.029903,25.721679,-144.212819
13703,NaN,-1.197493,12.325312,-1.051246,-2.259475,-3.901474,1.768316,0.860828,0.736932,1.914393,0.081993,0.356626,-0.589193,-0.720380,86.761644,24.657433,-143.673163
13704,NaN,-1.147434,12.395613,-0.986222,-2.246948,-3.667376,1.910609,0.913242,0.716732,1.943769,0.089404,0.353853,-0.595646,-0.715542,87.499549,23.571060,-143.165365
13705,NaN,-1.164335,12.411774,-0.932130,-2.163269,-3.382271,2.025842,0.926544,0.706740,1.946037,0.096767,0.350992,-0.602096,-0.710578,88.228180,22.475549,-142.682632
13706,NaN,-1.243410,12.435821,-0.874678,-2.038684,-3.060500,2.163607,0.896544,0.712733,1.921083,0.104091,0.348175,-0.608299,-0.705628,88.923536,21.390770,-142.215497
13707,NaN,-1.383507,12.233402,-0.676154,-1.895042,-2.541428,2.102496,0.854873,0.757119,1.881856,0.111481,0.345561,-0.614208,-0.700649,89.592251,20.321613,-141.738379
13708,NaN,-1.443398,11.925808,-0.445274,-1.809762,-2.030556,1.896409,0.839880,0.833539,1.839617,0.118960,0.343302,-0.619856,-0.695536,90.252314,19.273721,-141.231555
13709,NaN,-1.448216,11.579607,-0.215670,-1.766530,-1.557085,1.618904,0.850481,0.956906,1.785762,0.126613,0.341596,-0.625320,-0.690113,90.930679,18.248096,-140.665640
13710,NaN,-1.530970,11.351978,-0.010277,-1.697159,-1.091075,1.462787,0.864147,1.121095,1.700448,0.134436,0.340699,-0.630487,-0.684351,91.631013,17.265223,-140.016320
13711,NaN,-1.460988,11.010281,0.125190,-1.684707,-0.763921,1.139521,0.879218,1.362821,1.613353,0.142692,0.340860,-0.635334,-0.678089,92.368981,16.317132,-139.236769
13712,NaN,-1.367861,10.584728,0.251918,-1.683680,-0.461748,0.719153,0.925923,1.685644,1.519150,0.151542,0.342411,-0.639841,-0.671113,93.168317,15.406653,-138.279563
13713,NaN,-1.377040,10.307623,0.213770,-1.558559,-0.254484,0.467981,0.965800,2.079291,1.390397,0.161139,0.345657,-0.643875,-0.663310,94.034717,14.539582,-137.102378
13714,NaN,-1.662142,10.084167,0.137448,-1.246293,0.092524,0.331634,0.984747,2.450126,1.271097,0.171458,0.350476,-0.647322,-0.654784,94.943551,13.709254,-135.719778
13715,NaN,-2.217567,9.927809,0.057475,-0.783355,0.620688,0.310560,0.983019,2.747210,1.184863,0.182433,0.356451,-0.650226,-0.645653,95.870365,12.887792,-134.177003
13716,NaN,-2.852665,9.983501,0.061852,-0.402986,1.263561,0.485328,0.941097,2.921166,1.115606,0.193764,0.363096,-0.652528,-0.636259,96.769112,12.073881,-132.546834
13717,NaN,-3.267540,9.921043,0.132317,-0.216804,1.819693,0.471249,0.840554,3.053350,1.082489,0.205564,0.370059,-0.654159,-0.626798,97.600967,11.242428,-130.855372
13718,NaN,-4.099048,9.743849,0.112648,0.305015,2.637561,0.419789,0.709062,3.072641,1.048125,0.217493,0.376970,-0.655097,-0.617606,98.331690,10.409374,-129.166401
13719,NaN,-5.253604,9.391473,0.040394,1.074528,3.697325,0.235800,0.640685,2.887158,1.066709,0.228957,0.383062,-0.655904,-0.608795,98.978367,9.559060,-127.600755
13720,NaN,-6.063389,9.011886,-0.057087,1.635748,4.493484,-0.060242,0.613967,2.453836,1.138191,0.239206,0.387499,-0.657105,-0.600697,99.543215,8.694891,-126.302882
13721,NaN,-6.184085,8.926184,-0.043262,1.644889,4.799811,-0.211968,0.571943,1.953592,1.199867,0.248051,0.390105,-0.658801,-0.593524,100.021802,7.830435,-125.307683
13722,NaN,-5.988477,8.705427,-0.099322,1.581098,4.789262,-0.527414,0.509982,1.525442,1.228874,0.255650,0.391233,-0.660808,-0.587292,100.416640,6.988216,-124.567398
13723,NaN,-5.930969,8.512180,-0.123681,1.585400,4.884927,-0.797668,0.453511,1.229545,1.189476,0.262253,0.391504,-0.662902,-0.581815,100.749541,6.192528,-123.997588
13724,NaN,-6.020821,8.346611,-0.257551,1.763217,5.019887,-0.999491,0.439743,0.994514,1.114988,0.267860,0.391304,-0.665062,-0.576910,101.053334,5.463241,-123.557656
13725,NaN,-5.794818,8.189586,-0.275269,1.675314,4.942417,-1.240095,0.432495,0.848293,1.025195,0.272729,0.390941,-0.667192,-0.572397,101.341096,4.796701,-123.194672
13726,NaN,-5.422673,8.128206,-0.111192,1.339734,4.830649,-1.424947,0.440403,0.809336,0.924377,0.277144,0.390804,-0.669164,-0.568052,101.627944,4.191149,-122.845614
13727,NaN,-5.260849,8.014428,-0.045137,1.202341,4.825821,-1.616688,0.469425,0.848686,0.794059,0.281259,0.391233,-0.670887,-0.563685,101.930453,3.650972,-122.462670
13728,NaN,-5.375028,7.960592,-0.021967,1.223365,5.023827,-1.717876,0.497775,0.927720,0.653899,0.285171,0.392386,-0.672273,-0.559249,102.249100,3.179107,-122.021535
13729,NaN,-5.579838,7.917829,-0.021869,1.294188,5.281882,-1.796900,0.526740,1.013949,0.534682,0.288976,0.394202,-0.673361,-0.554692,102.584071,2.759886,-121.520365
13730,NaN,-5.803267,7.912883,-0.065474,1.388935,5.531825,-1.827410,0.544169,1.042764,0.417972,0.292504,0.396505,-0.674195,-0.550169,102.926858,2.400223,-120.990854
13731,NaN,-5.996404,7.822150,-0.047781,1.427050,5.775016,-1.954127,0.514094,1.011131,0.332691,0.295743,0.398948,-0.674800,-0.545914,103.248857,2.088701,-120.470211
13732,NaN,-6.171155,7.681735,-0.019219,1.455202,5.994586,-2.128996,0.479272,0.919499,0.250950,0.298507,0.401354,-0.675260,-0.542063,103.547000,1.832587,-119.991551
13733,NaN,-6.445080,7.596963,0.066218,1.474158,6.323599,-2.256525,0.466133,0.787473,0.197813,0.300700,0.403552,-0.675757,-0.538589,103.833366,1.621511,-119.580579
13734,NaN,-6.716165,7.717467,0.077511,1.512368,6.624605,-2.164219,0.451142,0.576644,0.147705,0.302071,0.405323,-0.676418,-0.535655,104.107083,1.465462,-119.281023
13735,NaN,-6.998547,7.847287,0.050248,1.596686,6.908335,-2.048194,0.413240,0.297664,0.116411,0.302486,0.406392,-0.677325,-0.533460,104.354265,1.365249,-119.132703
13736,NaN,-7.063800,7.877689,0.015009,1.622464,6.976808,-2.025059,0.349229,-0.019528,0.098151,0.301908,0.406577,-0.678503,-0.532147,104.560922,1.319433,-119.158275
13737,NaN,-6.865529,7.933145,-0.040483,1.552242,6.794981,-1.971088,0.292157,-0.316312,0.092447,0.300418,0.405907,-0.679958,-0.531644,104.730538,1.320946,-119.347601
13738,NaN,-6.373841,7.972819,-0.089356,1.353357,6.348416,-1.934509,0.247574,-0.584274,0.084528,0.298089,0.404478,-0.681681,-0.531838,104.871655,1.365492,-119.684378
13739,NaN,-6.064084,8.143459,-0.160900,1.241990,6.054587,-1.755747,0.220293,-0.797930,0.055042,0.294998,0.402541,-0.683572,-0.532603,104.993172,1.460290,-120.134834
13740,NaN,-5.981608,8.427401,-0.218874,1.212388,5.967911,-1.460285,0.190831,-1.001326,0.012570,0.291158,0.400149,-0.685593,-0.533920,105.094767,1.608103,-120.691588
13741,NaN,-5.768846,8.797197,-0.341396,1.154950,5.737004,-1.064006,0.185089,-1.223700,-0.001697,0.286511,0.397199,-0.687861,-0.535716,105.186880,1.800102,-121.368805
13742,NaN,-5.327206,9.439242,-0.533429,0.970170,5.300490,-0.393226,0.201135,-1.415835,0.018378,0.281221,0.393663,-0.690466,-0.537774,105.283146,2.008970,-122.155323
13743,NaN,-4.947506,10.543990,-0.883834,0.827559,4.885160,0.764873,0.221224,-1.598930,0.083881,0.275409,0.389423,-0.693459,-0.540014,105.382824,2.213206,-123.052475
13744,NaN,-4.619868,11.952839,-1.243886,0.640397,4.546767,2.215501,0.210064,-1.769467,0.216794,0.269376,0.384207,-0.696877,-0.542388,105.469900,2.369007,-124.064221
13745,NaN,-4.597646,13.460424,-1.558654,0.568918,4.505225,3.756748,0.141919,-1.925800,0.394238,0.263375,0.377835,-0.700584,-0.545029,105.509588,2.454658,-125.189150
13746,NaN,-5.017699,14.811201,-1.788347,0.751756,4.859597,5.139412,0.042972,-2.082505,0.572190,0.257480,0.370230,-0.704504,-0.548003,105.488205,2.463440,-126.428280
13747,NaN,-5.463679,15.392743,-2.039400,1.200146,5.118915,5.785447,-0.075358,-2.244736,0.752671,0.251683,0.361357,-0.708536,-0.551411,105.392904,2.399091,-127.784293
13748,NaN,-5.610409,15.020763,-2.330985,1.764851,4.972011,5.507066,-0.206273,-2.429947,0.883622,0.245800,0.351277,-0.712584,-0.555348,105.221468,2.284170,-129.262651
13749,NaN,-5.283989,14.328344,-2.714810,2.183814,4.323402,4.922574,-0.341949,-2.551815,0.912947,0.239746,0.340539,-0.716311,-0.559870,104.970415,2.169131,-130.811931
13750,NaN,-4.661541,13.896768,-3.058653,2.297466,3.485092,4.567092,-0.446736,-2.617247,0.863000,0.233464,0.329592,-0.719620,-0.564810,104.663094,2.080438,-132.389826
13751,NaN,-4.029870,13.905472,-3.272585,2.177490,2.771302,4.605611,-0.532537,-2.641362,0.733981,0.226813,0.318892,-0.722342,-0.570163,104.305971,2.061242,-133.961609
13752,NaN,-3.487544,13.954267,-3.497540,2.076292,2.104921,4.691545,-0.634398,-2.640473,0.511330,0.219664,0.308807,-0.724299,-0.576001,103.893006,2.151492,-135.502047
13753,NaN,-3.036997,14.067256,-3.540354,1.859794,1.613273,4.801704,-0.741515,-2.628942,0.220251,0.211827,0.299648,-0.725326,-0.582445,103.413441,2.393998,-136.997084
13754,NaN,-2.840934,14.067751,-3.343467,1.654791,1.428990,4.760134,-0.820614,-2.604646,-0.070501,0.203325,0.291459,-0.725547,-0.589314,102.885131,2.778675,-138.443410
13755,NaN,-2.945601,14.095001,-3.125213,1.629440,1.436951,4.760838,-0.901316,-2.665017,-0.363636,0.193804,0.284033,-0.725002,-0.596773,102.296052,3.324497,-139.890771
13756,NaN,-3.116147,14.215669,-2.752409,1.527142,1.582279,4.834121,-0.992671,-2.803579,-0.611265,0.183145,0.276925,-0.723832,-0.604845,101.638339,4.006037,-141.393576
13757,NaN,-3.565011,14.017845,-3.137235,2.148885,1.234731,4.778407,-1.095748,-3.159791,-0.714057,0.170965,0.268961,-0.722321,-0.613745,100.884482,4.770497,-143.094934
13758,NaN,-2.146223,13.953757,-3.194301,1.042766,0.008520,4.624110,-1.183415,-3.363328,-0.781793,0.157923,0.260442,-0.720421,-0.623076,100.049363,5.566907,-144.917018
13759,NaN,-2.198861,14.751374,-2.900725,0.737442,0.010740,5.362875,-1.336914,-3.195667,-0.965587,0.145044,0.252916,-0.717410,-0.632707,99.107202,6.426682,-146.640814
13760,NaN,-1.856527,14.510077,-3.076543,0.534621,-0.702280,5.109219,-1.545332,-3.027270,-1.080482,0.132639,0.246086,-0.713267,-0.642728,98.033326,7.303115,-148.276673
13761,NaN,-1.505344,14.094814,-2.893723,0.155347,-1.118486,4.610108,-1.643237,-2.810291,-1.155595,0.120831,0.240097,-0.708326,-0.652708,96.890096,8.178072,-149.802430
13762,NaN,-1.205347,13.790730,-2.878454,-0.124785,-1.621103,4.232527,-1.733168,-2.558156,-1.209184,0.109830,0.234980,-0.702698,-0.662523,95.694932,9.033080,-151.200605
13763,NaN,-0.835151,13.318900,-2.867519,-0.440428,-2.141738,3.660309,-1.834243,-2.272117,-1.286743,0.099652,0.230981,-0.696275,-0.672249,94.442185,9.891503,-152.450879
13764,NaN,-0.470130,12.817722,-2.834056,-0.761720,-2.607677,3.038646,-1.900061,-1.911048,-1.375916,0.090498,0.228401,-0.689205,-0.681645,93.170829,10.756426,-153.509959
13765,NaN,-0.063694,12.170635,-2.757619,-1.114296,-3.014039,2.245406,-1.948734,-1.477438,-1.516811,0.082380,0.227727,-0.681436,-0.690651,91.897664,11.670750,-154.334998
13766,NaN,0.135162,11.490608,-2.672546,-1.282205,-3.281304,1.446770,-1.949167,-0.975746,-1.697814,0.075344,0.229343,-0.673143,-0.699002,90.671771,12.661343,-154.886485
13767,NaN,0.146266,10.845494,-2.574082,-1.296123,-3.424064,0.716330,-1.905366,-0.468781,-1.885913,0.069280,0.233350,-0.664445,-0.706584,89.520912,13.750635,-155.162965
13768,NaN,0.001962,10.309477,-2.541946,-1.166711,-3.539547,0.129656,-1.831296,-0.012660,-2.082894,0.063949,0.239591,-0.655520,-0.713302,88.471006,14.949169,-155.194332
13769,NaN,-0.403119,9.839649,-2.470549,-0.841631,-3.492569,-0.316788,-1.742575,0.355660,-2.266753,0.059038,0.247740,-0.646419,-0.719223,87.520265,16.262229,-155.032861
13770,NaN,-0.865602,9.463897,-2.492148,-0.454540,-3.492341,-0.641181,-1.644747,0.597758,-2.444356,0.054149,0.257297,-0.637262,-0.724406,86.667000,17.683667,-154.752004
13771,NaN,-1.001921,9.151441,-2.440027,-0.402772,-3.546820,-0.983258,-1.572749,0.761645,-2.566900,0.049221,0.267808,-0.627992,-0.729028,85.882742,19.187384,-154.396827
13772,NaN,-0.959353,8.694807,-2.449924,-0.434996,-3.677315,-1.517785,-1.493913,0.872610,-2.654432,0.044216,0.278942,-0.618733,-0.733080,85.170984,20.747921,-153.995433
13773,NaN,-0.989693,8.340199,-2.489342,-0.410732,-3.801254,-1.931532,-1.403051,0.967446,-2.719514,0.039117,0.290583,-0.609517,-0.736560,84.533552,22.357083,-153.555577
13774,NaN,-0.950331,8.098015,-2.581794,-0.442967,-4.005920,-2.269543,-1.317491,1.042386,-2.751711,0.034005,0.302530,-0.600417,-0.739472,83.971448,23.990829,-153.083850
13775,NaN,-0.924883,7.850523,-2.688715,-0.443688,-4.197030,-2.608530,-1.234352,1.102235,-2.743799,0.028956,0.314618,-0.591453,-0.741863,83.478693,25.629859,-152.585195
13776,NaN,-0.815065,7.563257,-2.809425,-0.477095,-4.402929,-3.019777,-1.159448,1.134543,-2.710700,0.024010,0.326652,-0.582682,-0.743777,83.050593,27.253700,-152.070749
13777,NaN,-0.934012,7.317530,-2.949353,-0.318562,-4.523181,-3.289336,-1.084752,1.132166,-2.650034,0.019146,0.338437,-0.574130,-0.745298,82.675357,28.848006,-151.558965
13778,NaN,-1.264094,7.138334,-3.140792,0.014845,-4.602427,-3.391345,-0.990742,1.039908,-2.543612,0.014259,0.349497,-0.566004,-0.746517,82.340986,30.375801,-151.101316
13779,NaN,-1.920533,6.951367,-3.265451,0.562267,-4.472668,-3.304969,-0.900102,0.810600,-2.384249,0.009148,0.359196,-0.558387,-0.747729,81.994426,31.799315,-150.785312
13780,NaN,-2.485494,6.855577,-3.425923,1.020978,-4.438208,-3.166504,-0.830866,0.435899,-2.171714,0.003669,0.366839,-0.551351,-0.749285,81.567724,33.071664,-150.706623
13781,NaN,-2.887291,6.797192,-3.402067,1.242723,-4.338898,-3.049545,-0.806151,-0.056355,-1.949422,-0.002389,0.371986,-0.544744,-0.751581,80.976069,34.177480,-150.952429
13782,NaN,-3.118297,6.739180,-3.386374,1.350554,-4.328307,-3.026851,-0.794795,-0.638863,-1.696578,-0.009095,0.374210,-0.538597,-0.754850,80.166398,35.081525,-151.588437
13783,NaN,-3.651353,6.847920,-3.293369,1.575873,-4.225605,-2.690112,-0.814728,-1.260137,-1.388983,-0.016284,0.373230,-0.532858,-0.759273,79.097166,35.740965,-152.639606
13784,NaN,-3.599635,6.756966,-3.188230,1.477051,-4.270086,-2.858502,-0.864019,-1.889231,-1.039800,-0.023721,0.368884,-0.527477,-0.764937,77.751914,36.112379,-154.100728
13785,NaN,-2.913202,6.546399,-3.093026,0.991167,-4.489324,-3.506344,-0.841781,-2.402345,-0.686322,-0.031204,0.361592,-0.522685,-0.771413,76.229550,36.191992,-155.875451
13786,NaN,-1.888580,6.343298,-2.982682,0.244574,-4.768406,-4.344475,-0.739149,-2.676115,-0.380005,-0.038393,0.352352,-0.518709,-0.778020,74.688143,36.022531,-157.784452
13787,NaN,-0.850028,6.256043,-2.873455,-0.577556,-5.042041,-5.083978,-0.573514,-2.689083,-0.138449,-0.044967,0.342344,-0.515697,-0.784114,73.278306,35.679643,-159.642826
13788,NaN,-0.186551,6.219598,-2.758721,-1.155997,-5.167997,-5.536733,-0.369680,-2.499443,0.042065,-0.050679,0.332500,-0.513748,-0.789265,72.102387,35.235110,-161.317038
13789,NaN,0.337320,6.118363,-2.603842,-1.625895,-5.151101,-5.920310,-0.171029,-2.161337,0.176456,-0.055321,0.323556,-0.512821,-0.793263,71.208847,34.755032,-162.717320
13790,NaN,0.759444,6.167719,-2.391043,-2.106092,-5.099015,-6.084557,0.052562,-1.717005,0.271945,-0.058795,0.316028,-0.513008,-0.795922,70.638972,34.290732,-163.788606
13791,NaN,1.129977,6.453298,-2.415657,-2.535662,-5.324661,-6.074292,0.282649,-1.218910,0.342426,-0.061075,0.310223,-0.514342,-0.797173,70.405211,33.878200,-164.508755
13792,NaN,1.462814,7.028400,-2.604940,-2.982108,-5.800762,-5.840039,0.481411,-0.691369,0.400009,-0.062072,0.306294,-0.516698,-0.797091,70.487801,33.534110,-164.869879
13793,NaN,1.815940,7.692477,-2.907658,-3.426821,-6.407310,-5.554844,0.623638,-0.113023,0.474918,-0.061495,0.304432,-0.519913,-0.795758,70.870283,33.260866,-164.839143
13794,NaN,1.974917,8.055024,-3.119182,-3.612278,-6.749736,-5.351192,0.699367,0.517660,0.553630,-0.059077,0.304840,-0.523724,-0.793281,71.525940,33.060688,-164.386147
13795,NaN,1.737313,8.284317,-3.127655,-3.485097,-6.764229,-4.962039,0.750286,1.141946,0.644477,-0.054738,0.307461,-0.528050,-0.789705,72.440628,32.916466,-163.511705
13796,NaN,1.288246,8.651352,-3.133050,-3.222816,-6.773771,-4.330943,0.769395,1.702374,0.750287,-0.048528,0.311983,-0.532715,-0.785192,73.569882,32.795068,-162.256042
13797,NaN,0.769170,8.986006,-2.852429,-2.998174,-6.478103,-3.606283,0.760273,2.225125,0.868341,-0.040437,0.318205,-0.537601,-0.779805,74.888533,32.666926,-160.639847
13798,NaN,-0.046258,9.373178,-2.644301,-2.521637,-6.145659,-2.690855,0.783547,2.691799,0.953950,-0.030792,0.325952,-0.542692,-0.773494,76.384608,32.524810,-158.709546
13799,NaN,-0.980142,9.962637,-2.378907,-2.069382,-5.745633,-1.531641,0.834824,3.048989,1.035315,-0.019933,0.334769,-0.548054,-0.766270,78.037032,32.336769,-156.538124
13800,NaN,-1.817021,10.618851,-2.111812,-1.739851,-5.324347,-0.371254,0.871399,3.259300,1.129944,-0.008196,0.344030,-0.553553,-0.758390,79.774202,32.065737,-154.228922
13801,NaN,-2.509654,10.987703,-1.801695,-1.452775,-4.735766,0.469837,0.862157,3.320351,1.209045,0.004037,0.353191,-0.559000,-0.750173,81.514536,31.694787,-151.887818
13802,NaN,-3.076615,11.153595,-1.390749,-1.261333,-3.984833,1.065098,0.874277,3.258482,1.304972,0.016426,0.361738,-0.564456,-0.741798,83.213595,31.206889,-149.605577
13803,NaN,-3.454871,11.288038,-1.135467,-1.134466,-3.395199,1.493238,0.887565,3.098078,1.417206,0.028760,0.369255,-0.570023,-0.733415,84.838299,30.586975,-147.451446
13804,NaN,-3.644203,11.539942,-0.930876,-1.170031,-2.953029,1.901430,0.886200,2.843563,1.518347,0.040723,0.375446,-0.575617,-0.725291,86.336990,29.850179,-145.497069
13805,NaN,-3.915505,11.818944,-0.746218,-1.141615,-2.481533,2.357228,0.823553,2.531870,1.653345,0.052398,0.380000,-0.581174,-0.717698,87.662912,28.982739,-143.778593
13806,NaN,-4.203122,11.912548,-0.634747,-0.975356,-1.990024,2.639582,0.729627,2.155754,1.806900,0.063685,0.382655,-0.586627,-0.710906,88.774366,27.991722,-142.339979
13807,NaN,-4.317096,11.896812,-0.477320,-0.897673,-1.519704,2.728310,0.627115,1.742313,1.975083,0.074556,0.383230,-0.592081,-0.704994,89.669139,26.876167,-141.199423
13808,NaN,-4.140567,11.800858,-0.329995,-0.962427,-1.209169,2.601737,0.513443,1.343655,2.118914,0.084944,0.381873,-0.597428,-0.700026,90.349386,25.667460,-140.343489
13809,NaN,-3.685612,11.628184,-0.323206,-1.082039,-1.168862,2.285202,0.396283,1.038938,2.227258,0.095026,0.379007,-0.602634,-0.695813,90.857417,24.387413,-139.702811
13810,NaN,-3.269750,11.347099,-0.273298,-1.153262,-1.071435,1.893636,0.315860,0.884900,2.305191,0.105038,0.375283,-0.607662,-0.692009,91.256763,23.063024,-139.177931
13811,NaN,-3.203443,11.148912,-0.148147,-1.055204,-0.746112,1.715791,0.268621,0.856807,2.303103,0.115045,0.371374,-0.612471,-0.688277,91.608688,21.733704,-138.684267
13812,NaN,-3.214679,10.853221,0.114262,-0.972939,-0.259866,1.462052,0.254379,0.943655,2.266831,0.125187,0.367822,-0.616993,-0.684364,91.953601,20.424271,-138.150472
13813,NaN,-3.079799,10.451666,0.503869,-1.069525,0.241189,1.039474,0.309390,1.136688,2.182997,0.135533,0.365155,-0.621362,-0.679855,92.357422,19.151896,-137.510341
13814,NaN,-3.018367,10.108319,0.689601,-1.032772,0.612076,0.690581,0.477115,1.393208,2.054847,0.145898,0.363826,-0.625769,-0.674357,92.886835,17.944832,-136.728042
13815,NaN,-2.801025,9.978041,0.695400,-1.078024,0.704626,0.494017,0.632075,1.717411,1.866021,0.156350,0.364222,-0.630041,-0.667791,93.547002,16.824065,-135.763005
13816,NaN,-2.435816,9.995008,0.630733,-1.247823,0.611364,0.399911,0.714102,2.133853,1.597672,0.167025,0.366865,-0.633635,-0.660318,94.301826,15.832723,-134.559120
13817,NaN,-2.411097,9.657383,0.350144,-0.981236,0.631249,0.078567,0.779897,2.613515,1.294826,0.178081,0.372014,-0.636380,-0.651853,95.151979,14.971790,-133.076156
13818,NaN,-2.165583,9.798889,0.420823,-1.258809,0.662158,0.130129,0.788814,3.237608,0.968218,0.189977,0.380161,-0.637800,-0.642337,96.077772,14.243814,-131.226111
13819,NaN,-2.341517,10.067322,0.352058,-1.230619,0.867719,0.419019,0.685611,4.070725,0.597658,0.203485,0.391912,-0.637181,-0.631664,97.044868,13.638805,-128.880516
13820,NaN,-3.907540,9.882343,0.139749,-0.199392,2.093009,0.604788,0.560731,4.716499,0.320512,0.218299,0.406277,-0.634625,-0.620109,98.004383,13.108485,-126.152905
13821,NaN,-5.708385,9.597618,-0.000200,0.801938,3.643762,0.712066,0.510360,5.020057,0.145375,0.233524,0.421822,-0.630866,-0.607899,98.951656,12.603700,-123.248916
13822,NaN,-7.319850,9.670027,-0.126588,1.453340,5.100892,1.094212,0.454141,4.980709,0.021436,0.248200,0.437324,-0.626301,-0.595727,99.835853,12.131461,-120.369842
13823,NaN,-8.444549,9.648021,-0.131291,1.677824,6.275135,1.241947,0.293028,4.621012,0.014621,0.261957,0.451307,-0.621342,-0.584495,100.560142,11.656465,-117.709689
13824,NaN,-9.223798,9.157790,-0.283811,1.957158,7.127232,0.882388,0.114905,3.919401,0.108085,0.274071,0.462524,-0.616689,-0.575023,101.076128,11.179875,-115.472353
13825,NaN,-9.267000,8.591389,-0.504464,2.043780,7.290298,0.317054,-0.017354,3.019634,0.219251,0.283969,0.470475,-0.612971,-0.567699,101.397195,10.722210,-113.770094
13826,NaN,-8.750170,8.256630,-0.627640,1.849125,6.936037,-0.137952,-0.105166,2.190560,0.308542,0.291720,0.475606,-0.610269,-0.562380,101.565658,10.304925,-112.555911
13827,NaN,-7.977309,8.130010,-0.655815,1.503794,6.329950,-0.440720,-0.210610,1.606191,0.317178,0.297948,0.478857,-0.608095,-0.558697,101.606637,9.945461,-111.678379
13828,NaN,-7.355063,7.814701,-0.750726,1.378559,5.817912,-0.869475,-0.293187,1.242899,0.301336,0.303197,0.481003,-0.606151,-0.556137,101.560065,9.639134,-111.006618
13829,NaN,-7.077254,7.456305,-0.802774,1.378759,5.624641,-1.280949,-0.291579,0.992438,0.299152,0.307675,0.482437,-0.604571,-0.554152,101.487558,9.361568,-110.477580
13830,NaN,-6.994439,7.192500,-0.810671,1.397310,5.610137,-1.573446,-0.210890,0.738392,0.300572,0.311178,0.483284,-0.603588,-0.552528,101.435599,9.114520,-110.093181
13831,NaN,-6.789035,7.047224,-0.828671,1.363472,5.461201,-1.765505,-0.107748,0.493569,0.286193,0.313657,0.483646,-0.603234,-0.551195,101.419628,8.902283,-109.846551
13832,NaN,-6.509131,7.009564,-0.980811,1.408750,5.178684,-1.833882,-0.020113,0.283037,0.260949,0.315210,0.483645,-0.603381,-0.550147,101.435169,8.729406,-109.716685
13833,NaN,-6.412965,7.009610,-1.137462,1.517342,5.056540,-1.832487,0.044178,0.085867,0.243095,0.315967,0.483251,-0.603975,-0.549407,101.470538,8.588164,-109.696968
13834,NaN,-6.457578,7.091312,-1.131628,1.512222,5.111673,-1.759642,0.061559,-0.088274,0.228119,0.316110,0.482455,-0.604851,-0.549060,101.501481,8.475953,-109.774409
13835,NaN,-6.582255,7.198885,-0.923486,1.352150,5.306463,-1.687667,0.060965,-0.258669,0.221383,0.315722,0.481208,-0.605978,-0.549135,101.518038,8.386770,-109.947843
13836,NaN,-6.639361,7.353165,-0.662564,1.120038,5.451372,-1.589724,0.098383,-0.431391,0.244455,0.314781,0.479475,-0.607532,-0.549473,101.541789,8.304741,-110.221910
13837,NaN,-6.469818,7.492060,-0.536572,0.943584,5.337770,-1.512375,0.176682,-0.585581,0.258035,0.313218,0.477397,-0.609570,-0.549919,101.597785,8.233247,-110.585013
13838,NaN,-6.306852,7.832790,-0.402564,0.714564,5.222688,-1.239247,0.277002,-0.716671,0.251601,0.310994,0.475128,-0.612067,-0.550372,101.701316,8.180779,-111.021734
13839,NaN,-6.253735,8.225890,-0.408005,0.635690,5.155293,-0.870668,0.358570,-0.845641,0.230547,0.308115,0.472689,-0.614923,-0.550909,101.841542,8.156856,-111.529086
13840,NaN,-6.170424,8.687779,-0.578811,0.676037,4.990571,-0.403980,0.409231,-0.998182,0.194531,0.304542,0.470003,-0.618056,-0.551687,101.999458,8.171743,-112.118615
13841,NaN,-5.775581,9.171092,-0.758578,0.599795,4.529897,0.044387,0.406858,-1.140997,0.164612,0.300436,0.467000,-0.621302,-0.552841,102.144235,8.223248,-112.785313
13842,NaN,-5.370392,9.845999,-0.985750,0.507257,4.027239,0.688763,0.376293,-1.269553,0.145807,0.295943,0.463631,-0.624593,-0.554389,102.261060,8.301160,-113.522509
13843,NaN,-4.981319,10.739086,-1.241939,0.384711,3.514101,1.553355,0.315879,-1.366758,0.163843,0.291315,0.459831,-0.627865,-0.556307,102.333368,8.383620,-114.316874
13844,NaN,-4.865916,11.888531,-1.623334,0.413227,3.184077,2.730848,0.272009,-1.430668,0.228212,0.286758,0.455556,-0.631231,-0.558378,102.373721,8.437081,-115.155505
13845,NaN,-4.926295,13.126059,-1.936627,0.436565,3.040939,4.003037,0.207924,-1.472824,0.333825,0.282485,0.450720,-0.634673,-0.560574,102.370801,8.438741,-116.031058
13846,NaN,-5.258651,14.015522,-2.131318,0.582102,3.210925,4.951507,0.094451,-1.512386,0.442038,0.278636,0.445235,-0.638069,-0.563023,102.298781,8.382246,-116.942400
13847,NaN,-5.675957,14.109315,-2.200999,0.892297,3.536086,5.114893,0.000691,-1.613460,0.528467,0.274890,0.439037,-0.641480,-0.565849,102.163540,8.290109,-117.921186
13848,NaN,-6.216991,13.769267,-2.321767,1.443747,3.942879,4.884327,-0.041575,-1.783498,0.576125,0.270812,0.432105,-0.645070,-0.569062,101.992060,8.186945,-119.001587
13849,NaN,-6.611227,13.328251,-2.454123,1.986006,4.192883,4.534681,-0.032657,-2.043754,0.613475,0.265944,0.424289,-0.649039,-0.572714,101.805078,8.092685,-120.233151
13850,NaN,-6.789173,13.032627,-2.673773,2.476450,4.177839,4.311820,-0.007060,-2.413239,0.618978,0.259814,0.415364,-0.653511,-0.576968,101.606073,8.031737,-121.674246
13851,NaN,-6.737286,12.941507,-2.932198,2.838020,3.901271,4.265450,0.008360,-2.868328,0.565528,0.251950,0.405256,-0.658372,-0.582096,101.380043,8.050303,-123.366818
13852,NaN,-6.371047,12.986988,-2.994571,2.833916,3.429441,4.273598,0.003526,-3.354961,0.497369,0.242245,0.393838,-0.663543,-0.588150,101.112790,8.151506,-125.328326
13853,NaN,-5.896878,12.843796,-3.067487,2.806144,2.831222,4.088770,-0.037864,-3.899304,0.453479,0.230591,0.380794,-0.668924,-0.595285,100.771873,8.329494,-127.595525
13854,NaN,-5.229579,12.797096,-3.478847,2.858610,1.837358,4.031560,0.000993,-4.571039,0.364937,0.216263,0.365905,-0.674739,-0.603383,100.390271,8.610713,-130.238311
13855,NaN,-3.551279,13.400366,-3.532195,1.755650,0.308184,4.381553,0.003906,-4.807155,0.222081,0.200567,0.350602,-0.680165,-0.611741,99.974850,8.981637,-133.005329
13856,NaN,-3.066794,14.234230,-3.602107,1.299150,-0.312517,5.127313,-0.127071,-4.837363,0.050014,0.184370,0.335440,-0.684540,-0.620396,99.465458,9.427197,-135.778867
13857,NaN,-2.330622,14.019213,-3.527147,0.762652,-1.001778,4.775700,-0.308735,-4.789776,-0.066336,0.168158,0.320476,-0.687697,-0.629358,98.832999,9.910263,-138.522451
13858,NaN,-2.076500,13.559369,-3.197601,0.440148,-1.148059,4.218596,-0.396671,-4.686671,-0.143725,0.152118,0.305833,-0.689995,-0.638148,98.139130,10.393804,-141.209528
13859,NaN,-1.660754,13.228191,-3.103285,0.096892,-1.547065,3.787562,-0.457341,-4.554319,-0.206769,0.136329,0.291632,-0.691511,-0.646666,97.399454,10.872867,-143.825356
13860,NaN,-1.204541,12.915425,-2.991667,-0.314076,-1.918264,3.356497,-0.533943,-4.314908,-0.246861,0.121297,0.278131,-0.692231,-0.654787,96.622399,11.320789,-146.309758
13861,NaN,-0.980849,12.414491,-2.821341,-0.536696,-2.078467,2.774223,-0.663949,-4.025095,-0.324879,0.107126,0.265658,-0.691913,-0.662726,95.782480,11.763582,-148.630970
13862,NaN,-0.626258,11.791524,-2.699895,-0.818221,-2.322085,2.047205,-0.802846,-3.685959,-0.427380,0.093945,0.254473,-0.690565,-0.670475,94.887597,12.209469,-150.758954
13863,NaN,-0.274065,11.138155,-2.363486,-1.196301,-2.345396,1.268151,-0.923826,-3.276910,-0.553600,0.081863,0.244965,-0.688214,-0.677976,93.955120,12.678628,-152.652845
13864,NaN,-0.171882,10.571601,-2.073850,-1.351429,-2.269476,0.632872,-1.002147,-2.800903,-0.718730,0.070946,0.237530,-0.685035,-0.685035,93.025456,13.193007,-154.272483
13865,NaN,-0.104438,10.120228,-1.718726,-1.524425,-2.106055,0.118187,-1.026202,-2.263173,-0.886006,0.061302,0.232463,-0.681227,-0.691472,92.136960,13.766291,-155.583255
13866,NaN,-0.032981,9.838208,-1.451086,-1.700363,-2.016450,-0.224281,-1.013639,-1.697798,-1.059933,0.052968,0.229901,-0.677001,-0.697144,91.323430,14.408247,-156.568836
13867,NaN,-0.152436,9.804929,-1.212014,-1.757148,-1.890283,-0.275093,-1.007587,-1.135782,-1.252296,0.045845,0.229934,-0.672335,-0.702136,90.582139,15.143861,-157.231842
13868,NaN,-0.390756,9.709702,-1.163038,-1.627418,-1.890148,-0.349076,-0.981012,-0.627615,-1.427429,0.039789,0.232316,-0.667399,-0.706417,89.927530,15.968807,-157.603514
13869,NaN,-0.650535,9.529990,-1.222554,-1.425215,-1.972898,-0.495374,-0.955486,-0.199822,-1.579195,0.034584,0.236708,-0.662219,-0.710098,89.349115,16.879944,-157.731459
13870,NaN,-0.930964,9.340551,-1.305010,-1.200159,-2.064261,-0.641465,-0.964887,0.137556,-1.717105,0.030022,0.242724,-0.656739,-0.713357,88.822477,17.870355,-157.667658
13871,NaN,-0.945510,9.059203,-1.452291,-1.161201,-2.295596,-0.955408,-1.005844,0.408920,-1.827906,0.025996,0.250045,-0.650854,-0.716374,88.319879,18.930012,-157.451153
13872,NaN,-0.919339,8.639945,-1.591745,-1.113762,-2.506325,-1.416097,-1.066172,0.640825,-1.913866,0.022495,0.258433,-0.644550,-0.719209,87.832158,20.043698,-157.103409
13873,NaN,-0.942313,8.202340,-1.701459,-1.016675,-2.658277,-1.878029,-1.128780,0.827720,-1.981023,0.019427,0.267671,-0.637811,-0.721923,87.350314,21.204280,-156.651081
13874,NaN,-0.940506,7.801308,-1.832008,-0.928310,-2.832323,-2.315009,-1.184903,0.964236,-2.018597,0.016737,0.277471,-0.630720,-0.724515,86.874967,22.392589,-156.122170
13875,NaN,-0.946680,7.344343,-1.990357,-0.785713,-3.002720,-2.801158,-1.218039,1.053389,-2.021424,0.014355,0.287557,-0.623384,-0.726978,86.408541,23.590546,-155.544487
13876,NaN,-0.962258,6.943374,-2.274890,-0.578925,-3.276196,-3.236872,-1.232669,1.116492,-1.999026,0.012276,0.297751,-0.615928,-0.729264,85.960735,24.781272,-154.931073
13877,NaN,-1.063123,6.572586,-2.481863,-0.326938,-3.435214,-3.601413,-1.236384,1.135808,-1.951915,0.010427,0.307822,-0.608416,-0.731414,85.525388,25.951050,-154.307953
13878,NaN,-1.162116,6.354129,-2.630835,-0.142455,-3.564794,-3.819551,-1.227700,1.126693,-1.873881,0.008824,0.317571,-0.600967,-0.733423,85.105074,27.079144,-153.689815
13879,NaN,-1.590580,6.296940,-2.885901,0.305962,-3.688745,-3.745685,-1.203356,1.020132,-1.748189,0.007319,0.326507,-0.593716,-0.735419,84.678307,28.134841,-153.136771
13880,NaN,-2.601022,6.442619,-2.956449,1.044933,-3.472652,-3.189905,-1.175913,0.713057,-1.563863,0.005538,0.333726,-0.586811,-0.737732,84.184577,29.071540,-152.775684
13881,NaN,-3.302348,6.548400,-3.030485,1.552425,-3.378246,-2.802170,-1.211259,0.249254,-1.339739,0.003278,0.338546,-0.580103,-0.740849,83.529530,29.855871,-152.710238
13882,NaN,-4.003898,6.674913,-3.063487,2.037258,-3.274458,-2.389966,-1.226948,-0.353548,-1.050997,0.000369,0.340268,-0.573795,-0.744968,82.673294,30.434549,-153.029635
13883,NaN,-4.435586,6.650918,-3.059993,2.371709,-3.221095,-2.244970,-1.255939,-1.021417,-0.700274,-0.003104,0.338474,-0.567933,-0.750252,81.583818,30.757621,-153.770281
13884,NaN,-4.240380,6.455944,-3.090962,2.329249,-3.394673,-2.583405,-1.221970,-1.668718,-0.337081,-0.007107,0.333185,-0.562752,-0.756470,80.308530,30.802980,-154.908109
13885,NaN,-3.670316,6.343836,-3.168228,1.996805,-3.771020,-3.064138,-1.120729,-2.175657,0.008647,-0.011400,0.324964,-0.558440,-0.763160,78.944791,30.579350,-156.336391
13886,NaN,-2.703402,6.253583,-3.270434,1.347044,-4.287491,-3.737122,-0.986223,-2.462561,0.284808,-0.015652,0.314812,-0.554981,-0.769834,77.595209,30.137643,-157.902664
13887,NaN,-1.863467,6.423399,-3.257801,0.625236,-4.717056,-4.094019,-0.812831,-2.509812,0.483343,-0.019546,0.303863,-0.552403,-0.775974,76.367511,29.549438,-159.449455
13888,NaN,-1.096229,6.718606,-3.225798,-0.109769,-5.111924,-4.280709,-0.627153,-2.341308,0.583025,-0.022863,0.293217,-0.550617,-0.781231,75.331326,28.902341,-160.850283
13889,NaN,-0.673370,7.132247,-3.109102,-0.649679,-5.342005,-4.153221,-0.444906,-2.012414,0.617856,-0.025405,0.283706,-0.549564,-0.785394,74.526506,28.266048,-162.016790
13890,NaN,-0.495555,7.541314,-2.867871,-1.031007,-5.369285,-3.858748,-0.289259,-1.586448,0.613345,-0.027010,0.275828,-0.549111,-0.788458,73.952078,27.685637,-162.903258
13891,NaN,-0.288479,7.962801,-2.514471,-1.476115,-5.291320,-3.517057,-0.134626,-1.097369,0.592548,-0.027568,0.269903,-0.549285,-0.790366,73.617871,27.189150,-163.480007
13892,NaN,-0.027915,8.472428,-2.335418,-1.916182,-5.398777,-3.147979,-0.021063,-0.581711,0.580185,-0.026909,0.266021,-0.549936,-0.791252,73.496275,26.780642,-163.737169
13893,NaN,0.193913,9.018789,-2.401386,-2.229079,-5.714088,-2.775430,0.077886,-0.060707,0.587460,-0.024920,0.264169,-0.551065,-0.791152,73.579703,26.452763,-163.670938
13894,NaN,0.552239,9.413956,-2.453835,-2.601336,-5.982733,-2.574707,0.156322,0.463648,0.632834,-0.021410,0.264248,-0.552609,-0.790151,73.851077,26.183884,-163.277024
13895,NaN,0.972260,9.298916,-2.189626,-2.970668,-5.785881,-2.748150,0.198785,1.000312,0.674203,-0.016307,0.266323,-0.554436,-0.788293,74.294928,25.974057,-162.548303
13896,NaN,1.039262,8.858571,-1.947036,-2.918739,-5.391287,-3.048106,0.317436,1.507119,0.690033,-0.009896,0.270326,-0.556746,-0.785404,74.937492,25.826662,-161.510065
13897,NaN,1.014058,8.701688,-1.579394,-2.934329,-4.963705,-3.030893,0.488063,1.984114,0.710324,-0.002302,0.276112,-0.559746,-0.781307,75.806808,25.723830,-160.177057
13898,NaN,0.946566,8.801996,-1.410053,-2.917452,-4.782331,-2.814389,0.665493,2.448727,0.756847,0.006524,0.283540,-0.563406,-0.775975,76.898522,25.638292,-158.554409
13899,NaN,0.630098,9.242292,-1.334815,-2.759468,-4.702142,-2.205285,0.821291,2.870942,0.802339,0.016501,0.292421,-0.567629,-0.769425,78.195262,25.547474,-156.665843
13900,NaN,-0.008870,9.922224,-1.356655,-2.370036,-4.629633,-1.254743,0.947411,3.207494,0.859833,0.027459,0.302368,-0.572216,-0.761832,79.648654,25.422086,-154.566537
13901,NaN,-0.714708,10.689119,-1.203328,-2.053431,-4.340870,-0.161095,1.011978,3.389864,0.933202,0.039122,0.312708,-0.576981,-0.753509,81.186516,25.220999,-152.351347
13902,NaN,-1.289395,11.339951,-1.121145,-1.791617,-4.060406,0.761484,1.023411,3.397116,1.021217,0.051096,0.322723,-0.581704,-0.744889,82.718746,24.919224,-150.136392
13903,NaN,-1.881006,11.819342,-1.008253,-1.498397,-3.636622,1.535291,0.989242,3.237636,1.078194,0.062871,0.331856,-0.586271,-0.736346,84.176364,24.519487,-148.031684
13904,NaN,-2.427240,12.196370,-0.882592,-1.232726,-3.152511,2.185595,0.925411,2.968959,1.146151,0.074182,0.339690,-0.590597,-0.728219,85.503263,24.023676,-146.111289
13905,NaN,-2.919053,12.476103,-0.706175,-1.016984,-2.597115,2.712811,0.841194,2.627215,1.239675,0.084966,0.345878,-0.594785,-0.720680,86.676470,23.419586,-144.419544
13906,NaN,-3.388939,12.733254,-0.545826,-0.801457,-2.043691,3.190936,0.752063,2.225873,1.333204,0.095014,0.350242,-0.598831,-0.713936,87.672191,22.724855,-142.996698
13907,NaN,-3.719979,12.994270,-0.486601,-0.617463,-1.635531,3.598669,0.664286,1.825527,1.437989,0.104393,0.352752,-0.602871,-0.707965,88.503547,21.937916,-141.838297
13908,NaN,-3.863274,12.974289,-0.399485,-0.488132,-1.239422,3.664582,0.552912,1.458188,1.588376,0.113362,0.353415,-0.606861,-0.702828,89.162883,21.050470,-140.923057
13909,NaN,-3.794361,12.731569,-0.213768,-0.490022,-0.847590,3.437669,0.435053,1.123290,1.722761,0.122001,0.352373,-0.610825,-0.698457,89.667384,20.071461,-140.226378
13910,NaN,-3.222809,12.239565,0.035032,-0.813749,-0.677842,2.799537,0.347582,0.863745,1.818338,0.130303,0.350053,-0.614713,-0.694703,90.049634,19.036331,-139.700752
13911,NaN,-2.681737,11.834788,0.245548,-1.109905,-0.568595,2.260204,0.310825,0.678480,1.831850,0.138153,0.346976,-0.618588,-0.691282,90.366643,17.986674,-139.296308
13912,NaN,-2.512402,11.635558,0.336563,-1.116122,-0.386541,2.036897,0.286799,0.567026,1.775649,0.145474,0.343652,-0.622270,-0.688128,90.636978,16.972000,-138.967239
13913,NaN,-2.378013,11.376587,0.423572,-1.090280,-0.190726,1.764564,0.261711,0.537526,1.679049,0.152422,0.340464,-0.625701,-0.685091,90.884295,16.007169,-138.660955
13914,NaN,-2.066842,11.096329,0.502246,-1.195990,-0.128860,1.421319,0.240974,0.630285,1.582039,0.159331,0.337872,-0.628745,-0.682008,91.125039,15.100057,-138.304769
13915,NaN,-1.662527,10.713109,0.594047,-1.373813,-0.118139,0.956906,0.252993,0.869470,1.467955,0.166592,0.336422,-0.631432,-0.678499,91.405458,14.249267,-137.810758
13916,NaN,-1.540310,10.428871,0.572084,-1.316159,-0.041810,0.662305,0.302910,1.228276,1.328747,0.174395,0.336660,-0.633675,-0.674316,91.754114,13.474375,-137.109832
13917,NaN,-1.768702,10.186829,0.520975,-1.022524,0.232620,0.486346,0.370775,1.635479,1.181550,0.182883,0.338747,-0.635514,-0.669273,92.189152,12.766484,-136.173823
13918,NaN,-1.660429,10.090466,0.702921,-1.182504,0.425478,0.360225,0.405634,2.121505,1.003894,0.192219,0.343032,-0.636616,-0.663401,92.691176,12.145614,-134.957142
13919,NaN,-1.378334,9.962501,0.847034,-1.460008,0.454713,0.163761,0.421071,2.797742,0.766088,0.202879,0.350252,-0.636627,-0.656407,93.274031,11.624641,-133.346291
13920,NaN,-1.771111,9.514728,0.926359,-1.215903,0.928254,-0.211440,0.460876,3.569473,0.513473,0.215020,0.360773,-0.635341,-0.648037,93.953381,11.207689,-131.284737
13921,NaN,-2.895516,9.120085,0.895718,-0.495446,1.872965,-0.399595,0.572442,4.146573,0.284651,0.227992,0.373850,-0.633166,-0.638245,94.750098,10.865401,-128.885422
13922,NaN,-4.252083,9.035622,0.771616,0.278745,2.959207,-0.248262,0.659076,4.457577,0.086143,0.241023,0.388491,-0.630214,-0.627545,95.615785,10.591140,-126.302801
13923,NaN,-5.422191,8.961720,0.799305,0.713364,4.049911,-0.146611,0.661891,4.489205,-0.061411,0.253585,0.403479,-0.626649,-0.616612,96.477097,10.355916,-123.699491
13924,NaN,-6.344265,8.510243,0.737700,1.075980,4.950401,-0.456124,0.629223,4.188350,-0.139203,0.264885,0.417569,-0.622881,-0.606210,97.277382,10.153421,-121.270108
13925,NaN,-7.256997,7.849985,0.367692,1.702267,5.716552,-0.933677,0.639694,3.555549,-0.118838,0.274176,0.429510,-0.619805,-0.596818,98.011358,9.951061,-119.211884
13926,NaN,-7.604091,7.455062,0.091351,1.937917,6.036281,-1.256346,0.631959,2.695798,-0.060309,0.280899,0.438602,-0.617828,-0.589078,98.646892,9.767232,-117.656941
13927,NaN,-7.210634,7.351730,-0.296799,1.928054,5.616637,-1.394691,0.587902,1.847923,-0.013270,0.285220,0.444909,-0.616944,-0.583169,99.170080,9.612596,-116.596019
13928,NaN,-6.380145,7.512491,-0.391161,1.482104,4.900452,-1.381520,0.480221,1.258466,0.003336,0.287969,0.449280,-0.616563,-0.578853,99.571902,9.499065,-115.876123
13929,NaN,-5.814937,7.625971,-0.425441,1.158891,4.424880,-1.373091,0.331332,0.954883,0.026253,0.290191,0.452456,-0.616232,-0.575613,99.858400,9.394331,-115.333352
13930,NaN,-5.572781,7.340827,-0.361089,1.004536,4.295648,-1.712562,0.198622,0.804827,0.069634,0.292352,0.454879,-0.615808,-0.573058,100.052725,9.281085,-114.881218
13931,NaN,-5.596716,6.965454,-0.395724,1.086433,4.361022,-2.079749,0.132367,0.691396,0.124795,0.294484,0.456691,-0.615488,-0.570866,100.196995,9.143960,-114.500164
13932,NaN,-5.686977,6.744954,-0.344355,1.095370,4.510521,-2.302035,0.132455,0.539456,0.189834,0.296315,0.457877,-0.615522,-0.568928,100.325309,8.987653,-114.212926
13933,NaN,-5.713779,6.729389,-0.347048,1.090141,4.564376,-2.327345,0.117094,0.367057,0.238797,0.297800,0.458385,-0.615885,-0.567349,100.428055,8.818586,-114.029718
13934,NaN,-5.710554,6.696510,-0.336914,1.075791,4.594817,-2.376463,0.099723,0.208403,0.269359,0.298910,0.458332,-0.616493,-0.566146,100.505919,8.650914,-113.940396
13935,NaN,-5.905053,6.649596,-0.356731,1.179534,4.789000,-2.404033,0.096704,0.064426,0.282041,0.299628,0.457818,-0.617342,-0.565257,100.569359,8.489196,-113.934785
13936,NaN,-5.976252,6.636397,-0.304397,1.169749,4.896962,-2.430181,0.119940,-0.096400,0.298858,0.299833,0.456840,-0.618527,-0.564643,100.632393,8.336833,-114.022604
13937,NaN,-5.825553,6.779848,-0.283076,1.068628,4.780893,-2.330404,0.163807,-0.219698,0.311843,0.299600,0.455531,-0.620054,-0.564150,100.710411,8.189001,-114.182202
13938,NaN,-5.793110,7.009764,-0.369218,1.093889,4.721248,-2.109026,0.202478,-0.320119,0.324016,0.298992,0.453963,-0.621860,-0.563748,100.802788,8.046637,-114.400295
13939,NaN,-5.949295,7.403317,-0.349753,1.068827,4.868982,-1.720957,0.211203,-0.408296,0.314226,0.298066,0.452183,-0.623797,-0.563528,100.893671,7.918809,-114.667642
13940,NaN,-6.083445,7.861906,-0.263244,0.966306,5.022164,-1.284428,0.201859,-0.517810,0.304817,0.296785,0.450110,-0.625843,-0.563596,100.971535,7.809391,-114.996202
13941,NaN,-6.199622,8.193267,-0.194768,0.909580,5.154832,-0.969435,0.179874,-0.649556,0.294703,0.295112,0.447657,-0.627992,-0.564038,101.027118,7.720148,-115.398519
13942,NaN,-6.253007,8.605928,-0.135516,0.825063,5.220904,-0.580043,0.166251,-0.795618,0.280255,0.292963,0.444812,-0.630275,-0.564861,101.064846,7.655683,-115.882079
13943,NaN,-6.134287,9.120072,-0.199660,0.757813,5.071144,-0.088796,0.163984,-0.938487,0.259642,0.290304,0.441616,-0.632699,-0.566031,101.090785,7.619052,-116.444401
13944,NaN,-5.742841,9.826520,-0.245498,0.512446,4.679685,0.552577,0.151252,-1.068682,0.245940,0.287215,0.438064,-0.635231,-0.567529,101.100549,7.604405,-117.079008
13945,NaN,-5.357914,10.686088,-0.397788,0.324869,4.241308,1.366019,0.129559,-1.177317,0.256821,0.283847,0.434125,-0.637855,-0.569305,101.089064,7.596349,-117.776440
13946,NaN,-5.125780,11.709653,-0.619189,0.226763,3.901807,2.373255,0.111321,-1.269353,0.270367,0.280254,0.429836,-0.640566,-0.571291,101.060758,7.589826,-118.527559
13947,NaN,-5.129601,12.961201,-0.905635,0.245033,3.729990,3.646602,0.065470,-1.359716,0.294326,0.276522,0.425131,-0.643288,-0.573567,100.998328,7.580269,-119.332582
13948,NaN,-5.378407,14.088760,-1.120629,0.363556,3.805735,4.818096,0.004621,-1.469749,0.360640,0.272746,0.419788,-0.646102,-0.576142,100.893035,7.543085,-120.207255
13949,NaN,-5.948877,14.650820,-1.292552,0.766291,4.179149,5.473011,-0.096172,-1.681235,0.435526,0.268690,0.413432,-0.649019,-0.579356,100.712911,7.485772,-121.209913
13950,NaN,-6.571555,14.449501,-1.501780,1.445176,4.561556,5.396849,-0.201284,-2.011737,0.501397,0.263950,0.405722,-0.652161,-0.583443,100.449465,7.420819,-122.406904
13951,NaN,-6.943476,14.010227,-1.727603,2.102607,4.684580,5.057176,-0.270600,-2.448781,0.554810,0.258039,0.396423,-0.655687,-0.588506,100.113647,7.366122,-123.857340
13952,NaN,-6.891529,13.545484,-2.044772,2.632858,4.358332,4.651830,-0.307428,-2.927761,0.564893,0.250619,0.385552,-0.659628,-0.594501,99.724030,7.342022,-125.580830
13953,NaN,-6.505113,13.202179,-2.221801,2.831450,3.797227,4.297892,-0.329203,-3.374688,0.523968,0.241570,0.373368,-0.663800,-0.601341,99.288260,7.373383,-127.554867
13954,NaN,-5.967849,12.861273,-2.356267,2.875976,3.114308,3.920610,-0.304243,-3.751908,0.427121,0.230862,0.360272,-0.668119,-0.608707,98.839223,7.476130,-129.735786
13955,NaN,-5.180083,12.876550,-2.324349,2.510275,2.337165,3.835485,-0.216237,-4.026965,0.276379,0.218518,0.346815,-0.672478,-0.616232,98.414088,7.674140,-132.062323
13956,NaN,-4.492670,13.094365,-2.532870,2.269803,1.488086,3.996421,-0.085101,-4.195727,0.119193,0.204815,0.333352,-0.676884,-0.623502,98.044353,7.956419,-134.475052
13957,NaN,-3.977352,13.567276,-2.721151,2.004756,0.783811,4.423107,-0.023169,-4.290758,-0.023532,0.190136,0.320001,-0.681020,-0.630603,97.688279,8.314923,-136.934666
13958,NaN,-3.360129,13.893955,-2.866928,1.600374,0.054910,4.678143,0.010949,-4.343148,-0.104456,0.174894,0.306631,-0.684883,-0.637437,97.333466,8.705314,-139.422719
13959,NaN,-2.720552,14.376099,-2.849758,0.986464,-0.536079,5.051071,-0.015246,-4.236002,-0.181200,0.159719,0.293713,-0.688116,-0.643986,96.954015,9.118833,-141.848847
13960,NaN,-2.268500,14.615029,-2.555925,0.366220,-0.758846,5.172812,-0.147030,-4.063977,-0.264873,0.145006,0.281391,-0.690385,-0.650508,96.499485,9.548054,-144.175805
13961,NaN,-1.901480,14.472354,-2.234268,-0.128889,-0.880522,4.927127,-0.287671,-3.853282,-0.322213,0.130960,0.269751,-0.691672,-0.657019,95.965163,9.979743,-146.384158
13962,NaN,-1.429296,14.194841,-1.997887,-0.636310,-1.103626,4.536620,-0.421573,-3.628444,-0.412484,0.117543,0.258966,-0.692020,-0.663497,95.362289,10.425817,-148.464094
13963,NaN,-1.103472,14.095947,-1.740766,-1.077171,-1.219701,4.339794,-0.601453,-3.310333,-0.605106,0.104771,0.249725,-0.691099,-0.670107,94.671445,10.945241,-150.357896
13964,NaN,-0.892270,13.655498,-1.483096,-1.356299,-1.273112,3.825653,-0.842204,-2.893406,-0.822934,0.092994,0.242430,-0.688713,-0.676945,93.873956,11.544621,-152.009367
13965,NaN,-0.553646,13.096541,-1.210146,-1.729542,-1.370471,3.164858,-1.058994,-2.379230,-1.030322,0.082517,0.237443,-0.684933,-0.683870,92.992704,12.223332,-153.365922
13966,NaN,-0.170990,12.299495,-1.096938,-2.023587,-1.607787,2.263146,-1.227954,-1.777577,-1.241537,0.073576,0.235117,-0.679973,-0.690610,92.075369,12.984608,-154.378218
13967,NaN,0.152266,11.625492,-1.038847,-2.273271,-1.861675,1.484041,-1.357397,-1.092241,-1.461829,0.066337,0.235832,-0.673942,-0.696983,91.158402,13.846865,-154.999423
13968,NaN,0.149839,10.983308,-0.965638,-2.251068,-1.959730,0.802156,-1.487118,-0.416883,-1.687811,0.060739,0.239581,-0.666897,-0.702965,90.254974,14.822288,-155.235748
13969,NaN,-0.284178,10.256490,-1.084866,-1.748379,-2.040925,0.148524,-1.588299,0.161147,-1.907191,0.056403,0.246034,-0.658947,-0.708573,89.373634,15.922263,-155.146337
13970,NaN,-0.545178,9.692808,-1.070437,-1.491223,-2.073552,-0.385868,-1.650366,0.625794,-2.102874,0.052978,0.254712,-0.650308,-0.713732,88.534381,17.138905,-154.797665
13971,NaN,-0.711516,9.103315,-1.142908,-1.270033,-2.198135,-0.967737,-1.663990,1.000348,-2.269951,0.050175,0.265218,-0.641160,-0.718370,87.755655,18.464003,-154.243163
13972,NaN,-0.981405,8.598120,-1.184648,-0.990635,-2.238723,-1.428384,-1.656663,1.273734,-2.393148,0.047790,0.277036,-0.631670,-0.722468,87.044552,19.872258,-153.539716
13973,NaN,-1.350091,8.246950,-1.189582,-0.685561,-2.208136,-1.694795,-1.624382,1.454386,-2.469852,0.045637,0.289686,-0.621967,-0.726055,86.400475,21.339118,-152.740539
13974,NaN,-1.792401,8.055768,-1.186954,-0.373123,-2.151027,-1.766124,-1.571137,1.516403,-2.485867,0.043533,0.302542,-0.612264,-0.729181,85.818845,22.824425,-151.912097
13975,NaN,-2.139648,7.947411,-1.290171,-0.115952,-2.229170,-1.786603,-1.504043,1.464032,-2.448760,0.041287,0.315029,-0.602698,-0.731988,85.278538,24.294573,-151.121934
13976,NaN,-2.454296,7.905590,-1.498695,0.149454,-2.415022,-1.755991,-1.434644,1.293679,-2.353785,0.038760,0.326542,-0.593435,-0.734645,84.752169,25.707785,-150.439353
13977,NaN,-2.866150,7.847130,-1.813483,0.559538,-2.632895,-1.698930,-1.386816,0.965887,-2.217254,0.035671,0.336386,-0.584497,-0.737520,84.174203,27.031730,-149.964898
13978,NaN,-3.527121,7.911329,-2.007113,1.062918,-2.674089,-1.399906,-1.361055,0.498499,-2.051633,0.031782,0.343968,-0.575923,-0.740938,83.482600,28.236342,-149.790076
13979,NaN,-3.965286,7.983841,-2.246211,1.426119,-2.871078,-1.196971,-1.432502,-0.074475,-1.877683,0.027001,0.348864,-0.567380,-0.745415,82.571296,29.304979,-149.991056
13980,NaN,-3.863946,7.829671,-2.434559,1.453547,-3.202517,-1.458746,-1.529412,-0.666841,-1.680530,0.021444,0.350931,-0.558830,-0.751064,81.407473,30.210351,-150.584732
13981,NaN,-3.586156,7.596056,-2.576186,1.373877,-3.546046,-1.892372,-1.601071,-1.170897,-1.478169,0.015357,0.350482,-0.550331,-0.757669,80.022779,30.943739,-151.516267
13982,NaN,-2.887113,7.158775,-2.619892,1.012816,-3.886778,-2.719674,-1.639190,-1.545271,-1.273184,0.009084,0.347989,-0.541993,-0.764895,78.479099,31.500301,-152.696155
13983,NaN,-2.084401,6.649066,-2.644998,0.594391,-4.179774,-3.670689,-1.590253,-1.728565,-1.092243,0.002917,0.344252,-0.534072,-0.772171,76.892635,31.906029,-153.994298
13984,NaN,-1.336234,6.177025,-2.609248,0.166765,-4.362447,-4.550694,-1.462294,-1.715778,-0.938895,-0.002841,0.340100,-0.526828,-0.778959,75.381501,32.197594,-155.276440
13985,NaN,-0.689890,5.820356,-2.522722,-0.257737,-4.464768,-5.261341,-1.292584,-1.520577,-0.812450,-0.007883,0.336330,-0.520392,-0.784864,74.036933,32.422039,-156.420066
13986,NaN,-0.261178,5.509057,-2.428004,-0.538436,-4.464631,-5.801516,-1.098938,-1.222054,-0.718279,-0.012102,0.333443,-0.514835,-0.789692,72.909488,32.622063,-157.359277
13987,NaN,-0.106098,5.255972,-2.302236,-0.644176,-4.347640,-6.122240,-0.876364,-0.877948,-0.639082,-0.015493,0.331678,-0.510281,-0.793324,72.033816,32.824533,-158.064544
13988,NaN,-0.141120,5.219523,-2.261056,-0.635364,-4.325747,-6.171303,-0.658291,-0.515218,-0.559118,-0.018001,0.331117,-0.506729,-0.795778,71.414741,33.040699,-158.522669
13989,NaN,-0.326394,5.329419,-2.192328,-0.574612,-4.295271,-6.000092,-0.442711,-0.190251,-0.455716,-0.019631,0.331563,-0.504234,-0.797138,71.044757,33.257326,-158.750190
13990,NaN,-0.609578,5.575287,-2.134750,-0.479723,-4.302523,-5.656886,-0.260989,0.060975,-0.324652,-0.020407,0.332658,-0.502694,-0.797635,70.881682,33.449054,-158.787841
13991,NaN,-0.857144,5.903018,-2.184771,-0.385860,-4.440634,-5.286605,-0.136090,0.229704,-0.193908,-0.020442,0.334085,-0.501896,-0.797540,70.868396,33.601368,-158.686031
13992,NaN,-0.975376,6.222379,-2.084061,-0.463575,-4.483308,-4.944658,-0.055146,0.357439,-0.066807,-0.019788,0.335691,-0.501633,-0.797047,70.961952,33.708994,-158.473126
13993,NaN,-0.971239,6.490180,-1.974327,-0.617307,-4.522748,-4.701193,0.002073,0.500528,0.068571,-0.018327,0.337521,-0.501852,-0.796171,71.159786,33.768904,-158.134997
13994,NaN,-1.098787,6.757112,-1.884660,-0.653893,-4.529747,-4.383912,0.061601,0.627564,0.178767,-0.016213,0.339572,-0.502487,-0.794943,71.449519,33.791654,-157.690264
13995,NaN,-1.212098,7.205313,-1.776339,-0.774296,-4.605696,-3.919556,0.131563,0.760889,0.284911,-0.013455,0.341876,-0.503602,-0.793300,71.843644,33.777724,-157.133647
13996,NaN,-1.229205,7.788290,-1.888293,-0.896246,-4.944723,-3.450278,0.212957,0.888211,0.417546,-0.009995,0.344337,-0.505247,-0.791238,72.342985,33.711116,-156.467279
13997,NaN,-1.209821,8.420015,-2.030542,-1.037087,-5.328077,-2.955651,0.281411,1.036070,0.583829,-0.005614,0.346950,-0.507462,-0.788718,72.955760,33.572291,-155.669574
13998,NaN,-1.295918,8.876379,-2.117431,-1.049501,-5.527547,-2.512215,0.324722,1.211707,0.770662,-0.000132,0.349764,-0.510133,-0.785767,73.669948,33.353322,-154.724769
13999,NaN,-1.589221,9.151905,-2.048533,-0.910947,-5.418649,-2.048250,0.358242,1.378586,0.977685,0.006540,0.352681,-0.513290,-0.782373,74.481450,33.034407,-153.635756
14000,NaN,-2.018230,9.348712,-1.962341,-0.640497,-5.179072,-1.561183,0.425700,1.476411,1.209167,0.014239,0.355361,-0.517047,-0.778575,75.373115,32.590145,-152.453655
14001,NaN,-2.326986,9.535304,-1.901834,-0.432826,-4.967174,-1.147188,0.509149,1.483019,1.413703,0.022614,0.357504,-0.521468,-0.774436,76.320372,32.015153,-151.246508
14002,NaN,-2.659690,9.821795,-1.728738,-0.298745,-4.671465,-0.614058,0.589628,1.418166,1.577915,0.031297,0.358939,-0.526411,-0.770113,77.278727,31.325346,-150.078344
14003,NaN,-2.984496,10.249892,-1.501476,-0.243290,-4.367491,0.040412,0.665010,1.291557,1.699154,0.039988,0.359530,-0.531851,-0.765685,78.226771,30.533234,-148.996188
14004,NaN,-3.246378,10.625507,-1.109273,-0.308697,-3.910385,0.641005,0.730391,1.110140,1.804771,0.048465,0.359118,-0.537668,-0.761314,79.129662,29.649113,-148.044395
14005,NaN,-3.306869,10.934722,-0.749824,-0.476622,-3.518472,1.070955,0.822862,0.908479,1.895295,0.056588,0.357667,-0.544016,-0.756914,80.006949,28.677384,-147.234432
14006,NaN,-3.167121,11.254350,-0.430141,-0.766462,-3.237430,1.403450,0.943259,0.727685,1.979661,0.064300,0.355295,-0.550915,-0.752412,80.873833,27.633163,-146.557883
14007,NaN,-3.004453,11.677861,-0.169493,-1.062319,-3.030700,1.810882,1.058349,0.607529,2.067999,0.071816,0.352208,-0.558404,-0.747648,81.758341,26.516157,-145.971832
14008,NaN,-2.874282,11.986758,-0.020892,-1.225541,-2.827873,2.122035,1.163689,0.520826,2.159521,0.079220,0.348533,-0.566357,-0.742623,82.656182,25.335878,-145.459735
14009,NaN,-2.504545,12.324115,-0.073228,-1.443741,-2.892767,2.340530,1.205449,0.418758,2.242474,0.086575,0.344196,-0.574598,-0.737476,83.538589,24.090638,-145.028796
14010,NaN,-2.119417,12.561310,-0.056725,-1.678627,-2.874114,2.483439,1.131039,0.330662,2.232515,0.093736,0.339483,-0.582453,-0.732607,84.333104,22.843909,-144.679046
14011,NaN,-1.931239,12.623615,0.220925,-1.873944,-2.501763,2.571016,0.990889,0.337245,2.123457,0.100760,0.334984,-0.589560,-0.728047,85.036897,21.651529,-144.350650
14012,NaN,-1.575251,12.286014,0.509063,-2.108528,-2.121381,2.217869,0.902171,0.486847,2.008074,0.107920,0.331291,-0.595956,-0.723489,85.703060,20.532556,-143.955867
14013,NaN,-1.078168,12.072424,0.693231,-2.435839,-1.964587,1.917126,0.855386,0.793567,1.839108,0.115469,0.329132,-0.601705,-0.718533,86.396252,19.513446,-143.397102
14014,NaN,-0.661999,11.925096,1.017135,-2.827254,-1.702388,1.710572,0.809975,1.320525,1.643665,0.123940,0.329401,-0.606551,-0.712903,87.146115,18.621149,-142.544311
14015,NaN,-0.584733,11.586652,1.140118,-2.826742,-1.389346,1.410899,0.807165,1.996295,1.427100,0.133699,0.332668,-0.610563,-0.706165,88.007763,17.852903,-141.306031
14016,NaN,-1.084498,11.300015,1.033098,-2.302261,-0.946067,1.310987,0.813146,2.676820,1.182367,0.144611,0.339040,-0.613571,-0.698334,88.970321,17.221521,-139.681784
14017,NaN,-1.948479,11.050398,0.885282,-1.541935,-0.305879,1.332623,0.818561,3.205956,0.964356,0.156365,0.347822,-0.615725,-0.689530,90.011708,16.685168,-137.757738
14018,NaN,-3.126316,10.774003,0.864095,-0.698277,0.668630,1.397194,0.806435,3.480534,0.813031,0.168387,0.357917,-0.617124,-0.680219,91.067752,16.206026,-135.685310
14019,NaN,-4.114492,10.499424,0.732700,0.027704,1.480468,1.390295,0.754056,3.476639,0.712001,0.180121,0.368126,-0.618001,-0.670906,92.077097,15.743157,-133.627091
14020,NaN,-4.762761,10.183181,0.635336,0.473156,2.113103,1.236801,0.664559,3.282014,0.654698,0.191142,0.377685,-0.618418,-0.662101,92.981580,15.290955,-131.696541
14021,NaN,-5.295490,9.808123,0.590583,0.802356,2.713953,0.984391,0.578120,2.954027,0.617430,0.201167,0.386071,-0.618664,-0.654015,93.771927,14.837751,-129.969731
14022,NaN,-5.586251,9.431998,0.572456,0.958857,3.145540,0.660103,0.512594,2.550231,0.625985,0.210028,0.392985,-0.618954,-0.646797,94.445556,14.380917,-128.491964
14023,NaN,-5.524724,9.157078,0.611963,0.850681,3.317360,0.337099,0.457605,2.144774,0.664920,0.217863,0.398327,-0.619506,-0.640377,95.017868,13.899780,-127.262769
14024,NaN,-5.296063,9.001249,0.646254,0.644595,3.318158,0.089883,0.424756,1.802060,0.697340,0.224754,0.402412,-0.620287,-0.634661,95.508921,13.412849,-126.244090
14025,NaN,-4.984017,8.869517,0.758236,0.343277,3.279897,-0.158327,0.409881,1.587525,0.711297,0.231060,0.405700,-0.621264,-0.629325,95.955079,12.916745,-125.357774
14026,NaN,-4.883903,8.701740,0.764928,0.264312,3.334575,-0.380433,0.387555,1.464050,0.694772,0.236933,0.408615,-0.622204,-0.624306,96.361947,12.436653,-124.548279
14027,NaN,-5.149610,8.535172,0.881882,0.300773,3.739760,-0.535410,0.399655,1.393236,0.669578,0.242491,0.411355,-0.623200,-0.619360,96.761741,11.964881,-123.783119
14028,NaN,-5.280839,8.320147,0.897688,0.350449,3.979188,-0.759513,0.469928,1.265163,0.673509,0.247479,0.413766,-0.624513,-0.614440,97.177564,11.499580,-123.097543
14029,NaN,-4.929738,8.320455,0.765352,0.217314,3.715847,-0.853771,0.525699,1.160138,0.650077,0.251961,0.415956,-0.626068,-0.609537,97.609100,11.045661,-122.475597
14030,NaN,-4.659349,8.389951,0.569516,0.168673,3.471287,-0.849101,0.530730,1.127244,0.584143,0.256093,0.418256,-0.627489,-0.604762,98.033881,10.631915,-121.871883
14031,NaN,-4.631250,8.502316,0.362535,0.247154,3.414299,-0.749032,0.501864,1.135150,0.485098,0.260021,0.420817,-0.628597,-0.600140,98.440995,10.265029,-121.259139
14032,NaN,-4.572496,8.632166,0.099749,0.351632,3.293453,-0.622435,0.413809,1.157921,0.366146,0.263816,0.423705,-0.629113,-0.595896,98.796433,9.963932,-120.626074
14033,NaN,-4.727420,8.718051,0.055718,0.391223,3.463330,-0.527877,0.271840,1.216455,0.243161,0.267740,0.426934,-0.628861,-0.592095,99.075831,9.719783,-119.950500
14034,NaN,-5.053541,8.629445,0.089066,0.484587,3.819285,-0.582777,0.147423,1.281495,0.131665,0.271772,0.430538,-0.627871,-0.588689,99.288160,9.533902,-119.228765
14035,NaN,-5.376446,8.496747,0.173876,0.533837,4.193227,-0.687860,0.070509,1.349951,0.037565,0.275914,0.434501,-0.626348,-0.585464,99.462845,9.388822,-118.459906
14036,NaN,-5.642869,8.363857,0.195927,0.600321,4.480320,-0.790477,0.016420,1.371106,-0.027792,0.280018,0.438651,-0.624450,-0.582441,99.607002,9.280157,-117.673310
14037,NaN,-5.935646,8.137014,0.131389,0.767879,4.751798,-0.964501,-0.001750,1.331574,-0.074591,0.283905,0.442773,-0.622437,-0.579588,99.736919,9.196765,-116.905294
14038,NaN,-6.017361,7.969326,0.061911,0.828904,4.829337,-1.111390,0.000121,1.240173,-0.116264,0.287355,0.446757,-0.620428,-0.576979,99.858852,9.147257,-116.185719
14039,NaN,-6.125698,7.826964,0.042875,0.853815,4.948857,-1.235580,0.018113,1.120319,-0.145398,0.290313,0.450485,-0.618565,-0.574594,99.980387,9.121969,-115.531983
14040,NaN,-6.117554,7.733668,0.063816,0.786674,4.974156,-1.334672,0.027588,0.961512,-0.172007,0.292660,0.453851,-0.616874,-0.572570,100.093070,9.128776,-114.966313
14041,NaN,-6.313263,7.651343,0.077377,0.815600,5.172167,-1.387157,0.045774,0.770165,-0.184142,0.294346,0.456715,-0.615482,-0.570924,100.199173,9.158722,-114.508728
14042,NaN,-6.450985,7.644426,0.035415,0.860464,5.285227,-1.364047,0.083847,0.537247,-0.156324,0.295293,0.458889,-0.614590,-0.569651,100.305714,9.197850,-114.186879
14043,NaN,-6.470183,7.682914,-0.006011,0.858627,5.286063,-1.314999,0.115352,0.280241,-0.123898,0.295477,0.460268,-0.614243,-0.568817,100.406300,9.243272,-114.015114
14044,NaN,-6.412009,7.707346,-0.056723,0.851859,5.209184,-1.288663,0.122825,0.007817,-0.107856,0.294844,0.460840,-0.614351,-0.568565,100.486206,9.309015,-114.000411
14045,NaN,-6.119885,7.828620,-0.065974,0.706352,4.926161,-1.211604,0.121166,-0.223653,-0.104484,0.293519,0.460736,-0.614804,-0.568845,100.543293,9.396346,-114.118193
14046,NaN,-5.993693,8.044646,-0.073179,0.614133,4.781190,-1.014444,0.127864,-0.425496,-0.105802,0.291547,0.460075,-0.615565,-0.569571,100.585490,9.506420,-114.350984
14047,NaN,-5.912192,8.454380,-0.225450,0.630742,4.594587,-0.594594,0.143269,-0.622633,-0.099037,0.288952,0.458848,-0.616667,-0.570690,100.616664,9.633482,-114.697158
14048,NaN,-5.735323,9.158095,-0.373973,0.541284,4.296813,0.094320,0.142762,-0.820672,-0.090699,0.285766,0.457025,-0.618065,-0.572242,100.628036,9.777021,-115.157398
14049,NaN,-5.445803,10.176964,-0.575070,0.381197,3.847117,1.078240,0.122494,-1.032618,-0.038206,0.282114,0.454394,-0.619810,-0.574259,100.604276,9.913702,-115.744681
14050,NaN,-5.367056,11.339539,-0.903696,0.394849,3.513355,2.258238,0.089364,-1.246150,0.056218,0.278138,0.450795,-0.621960,-0.576706,100.538077,10.018811,-116.464410
14051,NaN,-5.536287,12.570261,-1.161550,0.454012,3.425689,3.531570,0.069031,-1.464745,0.211360,0.273960,0.446035,-0.624668,-0.579473,100.433739,10.059035,-117.326034
14052,NaN,-5.969030,13.587094,-1.530473,0.807521,3.531798,4.659844,0.015287,-1.717134,0.392592,0.269622,0.439874,-0.627935,-0.582677,100.270958,10.020335,-118.351089
14053,NaN,-6.476357,13.952668,-1.834352,1.337663,3.767443,5.153950,-0.052384,-2.003719,0.537055,0.264926,0.432294,-0.631643,-0.586484,100.038606,9.926784,-119.554809
14054,NaN,-6.707112,13.674211,-1.965064,1.780571,3.871479,4.940935,-0.107426,-2.322106,0.617620,0.259550,0.423397,-0.635714,-0.590963,99.745389,9.812503,-120.948065
14055,NaN,-6.465821,13.012271,-2.077800,2.074844,3.581410,4.269532,-0.102564,-2.571840,0.615477,0.253316,0.413711,-0.640006,-0.595874,99.432231,9.717603,-122.483295
14056,NaN,-5.910683,12.552177,-2.222843,2.159324,2.984193,3.746957,-0.029322,-2.697824,0.526606,0.246223,0.403948,-0.644386,-0.600805,99.153391,9.675202,-124.081518
14057,NaN,-5.438202,12.379996,-2.318162,2.134439,2.461671,3.513788,0.091599,-2.722527,0.372181,0.238287,0.394686,-0.648714,-0.605485,98.942596,9.717680,-125.679708
14058,NaN,-5.056166,12.551314,-2.296805,1.940719,2.066369,3.616320,0.232960,-2.708052,0.195128,0.229546,0.386131,-0.652994,-0.609763,98.815650,9.852469,-127.254130
14059,NaN,-4.999459,12.834064,-2.479435,2.029629,1.794286,3.917406,0.341671,-2.761973,0.042924,0.219902,0.377967,-0.657235,-0.613862,98.741561,10.077734,-128.847257
14060,NaN,-4.679393,13.351293,-2.552817,1.787094,1.370943,4.385777,0.401489,-2.840244,-0.050357,0.209568,0.369851,-0.661451,-0.617879,98.689364,10.358605,-130.478580
14061,NaN,-4.502420,13.772719,-2.588172,1.601489,1.080874,4.779224,0.372822,-2.939738,-0.118534,0.198690,0.361553,-0.665401,-0.622127,98.601053,10.687204,-132.163338
14062,NaN,-4.289768,13.977396,-2.628350,1.433741,0.755105,4.953838,0.243974,-3.113115,-0.203589,0.187170,0.352778,-0.668828,-0.627044,98.411999,11.072188,-133.943433
14063,NaN,-3.946465,14.175970,-2.552760,1.094137,0.393053,5.076736,0.006682,-3.338716,-0.283988,0.174999,0.343258,-0.671389,-0.633076,98.047729,11.515442,-135.851847
14064,NaN,-3.911149,14.327928,-2.616019,1.076789,0.110807,5.229053,-0.264050,-3.554851,-0.391963,0.162187,0.333067,-0.672909,-0.640277,97.489184,12.019050,-137.883642
14065,NaN,-3.588457,14.122481,-2.417803,0.773758,-0.192042,4.936067,-0.590799,-3.615792,-0.512040,0.149262,0.322719,-0.672994,-0.648578,96.715598,12.574706,-139.952299
14066,NaN,-2.968561,13.746150,-2.138313,0.243924,-0.614715,4.396385,-0.880359,-3.530431,-0.578990,0.136836,0.312537,-0.671753,-0.657529,95.767355,13.130136,-141.979326
14067,NaN,-2.123868,13.150077,-1.934089,-0.367857,-1.192309,3.589297,-1.147021,-3.294150,-0.657020,0.125307,0.303118,-0.669116,-0.666859,94.675224,13.684986,-143.878312
14068,NaN,-1.481140,12.321787,-1.631734,-0.840774,-1.511639,2.584305,-1.336732,-2.929983,-0.795346,0.114799,0.295158,-0.665227,-0.676148,93.507350,14.264961,-145.572128
14069,NaN,-1.064838,11.515981,-1.406560,-1.114681,-1.727682,1.654559,-1.433291,-2.453299,-1.016038,0.105232,0.289422,-0.660229,-0.685024,92.333143,14.925813,-146.994359
14070,NaN,-0.780623,10.957841,-1.236814,-1.330321,-1.910945,0.994122,-1.482911,-1.883025,-1.254921,0.096791,0.286334,-0.654296,-0.693211,91.201041,15.683325,-148.091415
14071,NaN,-0.695836,10.348231,-1.008071,-1.417035,-1.910099,0.332524,-1.490710,-1.268826,-1.477634,0.089572,0.286059,-0.647595,-0.700548,90.144556,16.545849,-148.840273
14072,NaN,-0.743789,9.777711,-0.928249,-1.337793,-1.949779,-0.251151,-1.438941,-0.684152,-1.676678,0.083473,0.288451,-0.640452,-0.706859,89.204859,17.509745,-149.258182
14073,NaN,-0.930596,9.292281,-0.939905,-1.129784,-1.988639,-0.709886,-1.333011,-0.161218,-1.856413,0.078241,0.293279,-0.633107,-0.712068,88.408534,18.578275,-149.381404
14074,NaN,-1.415305,8.989892,-1.066165,-0.678021,-1.992393,-0.895009,-1.228166,0.229467,-2.009365,0.073545,0.299978,-0.625686,-0.716325,87.743406,19.738728,-149.285668
14075,NaN,-1.902829,8.687588,-1.090856,-0.289138,-1.891116,-1.059312,-1.142983,0.469066,-2.117441,0.069065,0.307864,-0.618217,-0.719901,87.172911,20.969418,-149.059676
14076,NaN,-2.113909,8.423448,-1.180841,-0.104941,-1.969812,-1.273184,-1.088903,0.578759,-2.160697,0.064682,0.316247,-0.610755,-0.723037,86.659928,22.228813,-148.777779
14077,NaN,-2.032467,8.113634,-1.287726,-0.127263,-2.176612,-1.635675,-1.037028,0.602238,-2.165873,0.060254,0.324702,-0.603360,-0.725875,86.183086,23.495463,-148.491230
14078,NaN,-2.169142,7.872624,-1.406767,0.015845,-2.291245,-1.849665,-0.988905,0.562524,-2.138573,0.055724,0.332893,-0.596117,-0.728507,85.727761,24.745778,-148.236422
14079,NaN,-2.336256,7.695165,-1.544780,0.179789,-2.413881,-1.989743,-0.960582,0.439040,-2.078969,0.050983,0.340420,-0.589016,-0.731146,85.256717,25.959414,-148.065760
14080,NaN,-2.618400,7.561157,-1.639407,0.401362,-2.453365,-2.032430,-0.971999,0.217867,-1.981735,0.045964,0.346802,-0.582028,-0.734070,84.718203,27.106706,-148.040564
14081,NaN,-2.778229,7.426132,-1.712148,0.528395,-2.533841,-2.125319,-1.032395,-0.083212,-1.867895,0.040580,0.351695,-0.575009,-0.737582,84.051981,28.173336,-148.215651
14082,NaN,-2.713701,7.149561,-1.706840,0.506724,-2.608122,-2.441627,-1.085035,-0.402671,-1.713399,0.034942,0.354914,-0.568076,-0.741691,83.251366,29.128729,-148.603735
14083,NaN,-2.633091,6.996549,-1.867339,0.540116,-2.862906,-2.679536,-1.092588,-0.726260,-1.540743,0.029029,0.356407,-0.561413,-0.746289,82.333714,29.958341,-149.208988
14084,NaN,-2.620696,6.974476,-1.968436,0.556857,-3.082613,-2.771983,-1.101584,-1.010223,-1.358048,0.023019,0.356286,-0.555031,-0.751313,81.308449,30.651324,-150.004151
14085,NaN,-2.369220,6.755170,-2.059096,0.471688,-3.316459,-3.159704,-1.114698,-1.238965,-1.164318,0.017119,0.354734,-0.548911,-0.756682,80.191054,31.201423,-150.949435
14086,NaN,-1.904005,6.464392,-2.130061,0.250008,-3.574959,-3.721181,-1.075577,-1.360740,-0.974646,0.011535,0.352165,-0.543233,-0.762066,79.050351,31.615277,-151.969474
14087,NaN,-1.374655,6.284895,-2.247772,-0.032744,-3.913283,-4.233610,-0.989030,-1.338083,-0.810820,0.006481,0.349213,-0.538122,-0.767094,77.966654,31.923283,-152.965601
14088,NaN,-0.997720,6.072768,-2.267925,-0.242444,-4.069561,-4.674928,-0.887428,-1.183902,-0.680820,0.002165,0.346476,-0.533582,-0.771518,76.995902,32.161958,-153.850418
14089,NaN,-0.884225,5.961797,-2.219773,-0.325073,-4.090639,-4.871759,-0.746316,-0.960736,-0.554944,-0.001316,0.344249,-0.529775,-0.775131,76.189783,32.348767,-154.574301
14090,NaN,-0.801969,6.017246,-2.245270,-0.403504,-4.217484,-4.919698,-0.599501,-0.711560,-0.446280,-0.003967,0.342684,-0.526704,-0.777904,75.560498,32.502047,-155.120653
14091,NaN,-0.871406,6.183730,-2.303961,-0.386706,-4.355332,-4.793976,-0.481762,-0.486370,-0.333575,-0.005788,0.341692,-0.524285,-0.779961,75.087779,32.621161,-155.501364
14092,NaN,-0.969524,6.408528,-2.351039,-0.371733,-4.491682,-4.595111,-0.378989,-0.273245,-0.226736,-0.006810,0.341241,-0.522442,-0.781385,74.756976,32.710619,-155.725213
14093,NaN,-1.038909,6.684209,-2.241968,-0.475264,-4.525126,-4.328008,-0.298739,-0.087864,-0.118005,-0.007057,0.341229,-0.521113,-0.782275,74.549995,32.767019,-155.807388
14094,NaN,-1.255453,6.925343,-2.168802,-0.429894,-4.514150,-4.009424,-0.216737,0.073839,-0.019899,-0.006641,0.341587,-0.520266,-0.782686,74.455004,32.794030,-155.766705
14095,NaN,-1.520523,7.143195,-2.055861,-0.357179,-4.434759,-3.667029,-0.127976,0.179699,0.060719,-0.005782,0.342149,-0.519923,-0.782676,74.459061,32.792326,-155.640530
14096,NaN,-1.610147,7.581753,-2.112484,-0.407410,-4.647620,-3.272675,-0.043178,0.243695,0.154498,-0.004539,0.342712,-0.520057,-0.782348,74.541061,32.749057,-155.456563
14097,NaN,-1.519799,8.243277,-2.245569,-0.630324,-5.078444,-2.804406,0.018998,0.298108,0.277531,-0.002774,0.343167,-0.520664,-0.781753,74.692793,32.644990,-155.213354
14098,NaN,-1.388888,9.041328,-2.484920,-0.866387,-5.661870,-2.260083,0.079799,0.377665,0.431796,-0.000308,0.343527,-0.521752,-0.780874,74.918170,32.467689,-154.892813
14099,NaN,-1.135276,9.605876,-2.547882,-1.189916,-6.025715,-1.917891,0.086006,0.534013,0.614658,0.003276,0.344017,-0.523196,-0.779684,75.220818,32.209801,-154.437760
14100,NaN,-1.165205,9.627850,-2.362901,-1.219127,-5.827405,-1.800771,0.098191,0.740359,0.800991,0.008098,0.344815,-0.524969,-0.778103,75.611381,31.877237,-153.821177
14101,NaN,-1.490716,9.596949,-2.165324,-1.000016,-5.465935,-1.558319,0.199869,0.937620,1.002690,0.014057,0.345842,-0.527486,-0.775857,76.143173,31.454256,-153.046244
14102,NaN,-1.838434,9.769077,-1.929242,-0.849722,-5.127099,-1.122134,0.337242,1.080890,1.178254,0.020827,0.346951,-0.530770,-0.772964,76.801855,30.947584,-152.161605
14103,NaN,-2.132454,10.071717,-1.640742,-0.810900,-4.792938,-0.590608,0.446986,1.166303,1.302861,0.028125,0.348044,-0.534680,-0.769540,77.552546,30.370642,-151.213095
14104,NaN,-2.705906,10.288174,-1.197439,-0.620753,-4.151161,0.035256,0.570188,1.154294,1.407478,0.035564,0.348800,-0.539168,-0.765749,78.356060,29.724901,-150.275183
14105,NaN,-2.960134,10.571186,-0.935873,-0.593856,-3.785935,0.516828,0.716883,1.022660,1.484647,0.042700,0.348835,-0.544363,-0.761682,79.194014,29.006818,-149.426997
14106,NaN,-2.934289,11.050843,-0.717187,-0.815476,-3.635221,1.020680,0.823194,0.872839,1.538272,0.049428,0.348146,-0.550001,-0.757529,80.026335,28.235099,-148.689067
14107,NaN,-2.929666,11.513919,-0.486600,-1.018395,-3.438225,1.524300,0.883676,0.706630,1.578297,0.055757,0.346694,-0.555965,-0.753391,80.833737,27.412592,-148.068752
14108,NaN,-2.868523,11.978240,-0.261079,-1.252693,-3.255958,2.002541,0.902347,0.565658,1.639173,0.061869,0.344520,-0.562052,-0.749383,81.592480,26.539042,-147.551677
14109,NaN,-2.708374,12.230204,0.023675,-1.520549,-2.981552,2.258224,0.882830,0.481508,1.723247,0.068106,0.341747,-0.568224,-0.745448,82.310940,25.601601,-147.094674
14110,NaN,-2.444554,12.229071,0.314253,-1.784998,-2.660030,2.243738,0.866750,0.439506,1.821827,0.074592,0.338504,-0.574419,-0.741548,82.992966,24.603719,-146.674561
14111,NaN,-1.834615,12.164066,0.437440,-2.188116,-2.625631,2.012473,0.839425,0.406541,1.891261,0.081300,0.334883,-0.580622,-0.737646,83.645208,23.555761,-146.284056
14112,NaN,-1.319969,11.993811,0.554324,-2.484784,-2.531714,1.733409,0.764505,0.397308,1.880646,0.088038,0.331201,-0.586430,-0.733931,84.233891,22.513517,-145.917390
14113,NaN,-1.127391,11.799927,0.646208,-2.519073,-2.306541,1.556429,0.662137,0.455516,1.781650,0.094766,0.327932,-0.591657,-0.730357,84.769534,21.523186,-145.532674
14114,NaN,-1.100950,11.666480,0.861129,-2.522846,-1.935362,1.498656,0.576564,0.615272,1.678083,0.101698,0.325494,-0.596228,-0.726790,85.273439,20.601214,-145.069712
14115,NaN,-0.715111,11.230035,1.085237,-2.747861,-1.686922,1.022610,0.518882,0.891778,1.576681,0.109195,0.324291,-0.600275,-0.722898,85.795350,19.740704,-144.453183
14116,NaN,-0.579876,11.013112,1.171094,-2.768268,-1.495657,0.821874,0.499120,1.284139,1.477440,0.117509,0.324776,-0.603775,-0.718448,86.365665,18.951781,-143.616546
14117,NaN,-0.880936,10.564855,1.175455,-2.374240,-1.080325,0.529848,0.493231,1.684898,1.387123,0.126730,0.326915,-0.606847,-0.713304,86.999234,18.214066,-142.552423
14118,NaN,-1.179319,10.062575,1.128265,-1.965211,-0.700086,0.165566,0.520848,2.051608,1.293371,0.136641,0.330637,-0.609503,-0.707470,87.693822,17.533587,-141.285111
14119,NaN,-1.401089,9.680993,1.001610,-1.614294,-0.452137,-0.123719,0.564815,2.388235,1.208985,0.147213,0.335759,-0.611885,-0.700850,88.459436,16.886635,-139.830319
14120,NaN,-1.914742,9.351637,0.851263,-1.069658,-0.046983,-0.289241,0.606952,2.662110,1.119787,0.158180,0.342097,-0.613896,-0.693599,89.271674,16.280772,-138.228240
14121,NaN,-2.590873,9.038614,0.708973,-0.446956,0.486122,-0.406637,0.636546,2.804335,1.030509,0.169219,0.349126,-0.615648,-0.685896,90.108520,15.698165,-136.554795
14122,NaN,-3.164191,8.839854,0.657386,-0.012400,1.017936,-0.455943,0.648147,2.817071,0.965700,0.179985,0.356350,-0.617131,-0.678063,90.930230,15.135718,-134.887918
14123,NaN,-3.704717,8.686519,0.635234,0.344894,1.557101,-0.483267,0.639556,2.703215,0.909944,0.190218,0.363248,-0.618490,-0.670327,91.714600,14.577811,-133.299707
14124,NaN,-4.149805,8.644239,0.648791,0.572099,2.044350,-0.439561,0.623557,2.507879,0.876203,0.199693,0.369532,-0.619757,-0.662926,92.440067,14.029559,-131.838578
14125,NaN,-4.494200,8.661699,0.686894,0.693713,2.471412,-0.373240,0.602564,2.262510,0.851586,0.208363,0.374972,-0.621084,-0.655924,93.106407,13.478683,-130.531184
14126,NaN,-4.548385,8.607198,0.842191,0.554328,2.766418,-0.457553,0.566510,2.015973,0.840935,0.216239,0.379569,-0.622406,-0.649445,93.701627,12.934715,-129.378069
14127,NaN,-4.261439,8.555907,0.878386,0.298461,2.713500,-0.610453,0.541431,1.858632,0.816077,0.223598,0.383637,-0.623729,-0.643265,94.252813,12.393868,-128.323812
14128,NaN,-4.061979,8.580881,0.894495,0.103365,2.688108,-0.664285,0.506315,1.826288,0.756291,0.230677,0.387730,-0.624760,-0.637282,94.766781,11.885234,-127.293390
14129,NaN,-4.343237,8.446099,0.776111,0.327341,2.964192,-0.762409,0.505861,1.845984,0.688927,0.237609,0.392033,-0.625602,-0.631248,95.275731,11.399183,-126.254277
