// General information: 
//  MT Manager version: 2019.0.1 
//  XDA version: 2019.0.1 build 2740 rev 84096 built on 2019-01-30
// Device information: 
//  DeviceId: 00B43876
//  ProductCode: MTW2-3A7G6
//  Firmware Version: 4.3.4
//  Hardware Version: 1.1.0
// Device settings: 
//  Filter Profile: human(46.1)
//  Option Flags: Orientation Smoother Disabled, AHS Disabled, ICC Disabled
// Coordinate system: ENU
PacketCounter,SampleTimeFine,Acc_X,Acc_Y,Acc_Z,FreeAcc_E,FreeAcc_N,FreeAcc_U,Gyr_X,Gyr_Y,Gyr_Z,Quat_q0,Quat_q1,Quat_q2,Quat_q3,Roll,Pitch,Yaw
27483,NaN,2.791645,-9.374354,-0.066301,0.078394,0.019582,-0.031601,0.004600,-0.027554,0.026543,0.091175,-0.294215,0.646613,-0.697865,-90.559781,-17.021804,-147.926704
27484,NaN,2.815516,-9.437683,-0.094714,0.058076,0.038428,0.036227,-0.004450,-0.040731,0.021741,0.091416,-0.294288,0.646646,-0.697773,-90.570000,-17.005562,-147.899246
27485,NaN,2.761353,-9.426577,-0.085724,0.102547,0.054025,0.009702,-0.002239,-0.041751,0.016954,0.091644,-0.294376,0.646665,-0.697688,-90.579077,-16.992018,-147.871496
27486,NaN,2.813175,-9.361255,-0.121190,0.024121,0.045770,-0.037256,-0.000801,-0.042997,0.015857,0.091877,-0.294473,0.646676,-0.697606,-90.587598,-16.979125,-147.842655
27487,NaN,2.893575,-9.352937,-0.064743,-0.014330,-0.046652,-0.022283,0.000884,-0.050637,0.016525,0.092138,-0.294593,0.646679,-0.697518,-90.596487,-16.965725,-147.809537
27488,NaN,2.811265,-9.359339,-0.063931,0.053102,-0.006729,-0.040192,0.006127,-0.054446,0.016528,0.092421,-0.294725,0.646661,-0.697442,-90.603021,-16.952371,-147.773851
27489,NaN,2.741603,-9.341582,-0.084406,0.093023,0.041425,-0.077273,0.006202,-0.068334,0.012367,0.092734,-0.294919,0.646631,-0.697346,-90.611954,-16.941270,-147.729782
27490,NaN,2.755336,-9.351178,-0.115448,0.067192,0.060166,-0.063759,0.009666,-0.074131,0.006361,0.093050,-0.295151,0.646576,-0.697257,-90.619900,-16.933610,-147.682249
27491,NaN,2.741109,-9.378203,-0.155124,0.064286,0.103231,-0.041626,0.007529,-0.083179,0.000122,0.093369,-0.295434,0.646516,-0.697150,-90.630607,-16.929429,-147.629513
27492,NaN,2.868726,-9.394534,-0.129003,-0.020308,0.016517,0.010897,0.006257,-0.074586,-0.005530,0.093640,-0.295707,0.646456,-0.697054,-90.640600,-16.928563,-147.581632
27493,NaN,2.786296,-9.366857,-0.119938,0.044974,0.045546,-0.039676,0.003953,-0.075408,-0.007135,0.093904,-0.295988,0.646401,-0.696949,-90.652073,-16.928535,-147.533418
27494,NaN,2.852941,-9.351440,-0.093850,0.001993,-0.014334,-0.035300,0.011471,-0.078410,-0.005537,0.094195,-0.296273,0.646321,-0.696864,-90.659745,-16.927631,-147.483247
27495,NaN,2.831212,-9.319150,-0.016280,0.053495,-0.074714,-0.073379,0.008065,-0.078724,-0.004743,0.094484,-0.296556,0.646253,-0.696767,-90.669375,-16.926247,-147.433013
27496,NaN,2.763404,-9.300827,-0.036968,0.093422,-0.026530,-0.110434,0.006661,-0.091384,-0.007796,0.094802,-0.296895,0.646179,-0.696648,-90.682067,-16.926534,-147.375058
27497,NaN,2.775543,-9.353936,-0.037053,0.098427,-0.026848,-0.056114,0.001939,-0.106487,-0.009462,0.095154,-0.297293,0.646112,-0.696492,-90.700036,-16.927642,-147.308257
27498,NaN,2.784807,-9.450985,-0.005498,0.134281,-0.046231,0.039019,0.001050,-0.108564,-0.012164,0.095504,-0.297708,0.646043,-0.696331,-90.718951,-16.930277,-147.239980
27499,NaN,2.779086,-9.464067,-0.027798,0.132586,-0.024901,0.050094,-0.002238,-0.117123,-0.015992,0.095864,-0.298168,0.645975,-0.696148,-90.741218,-16.935020,-147.166444
27500,NaN,2.859120,-9.424246,-0.026037,0.062125,-0.076575,0.035253,-0.011244,-0.112902,-0.016460,0.096194,-0.298618,0.645940,-0.695943,-90.767955,-16.940032,-147.095530
27501,NaN,2.870867,-9.366230,-0.043480,0.032050,-0.079635,-0.016634,-0.012486,-0.114247,-0.020454,0.096513,-0.299087,0.645901,-0.695733,-90.795557,-16.947339,-147.023651
27502,NaN,2.803597,-9.424928,-0.042801,0.104927,-0.039596,0.019844,-0.014979,-0.110813,-0.023226,0.096808,-0.299553,0.645869,-0.695521,-90.824107,-16.956178,-146.953921
27503,NaN,2.815806,-9.403026,-0.128739,0.047003,0.019908,0.003607,-0.017156,-0.115919,-0.023640,0.097116,-0.300042,0.645840,-0.695295,-90.854712,-16.965260,-146.880718
27504,NaN,2.872037,-9.411136,-0.085371,0.031551,-0.048223,0.027132,-0.019975,-0.115584,-0.020830,0.097427,-0.300519,0.645826,-0.695058,-90.886976,-16.972614,-146.808135
27505,NaN,2.883636,-9.353074,-0.103836,0.001497,-0.051287,-0.024762,-0.022634,-0.119522,-0.016842,0.097764,-0.301003,0.645823,-0.694804,-90.921393,-16.977702,-146.732488
27506,NaN,2.898724,-9.403121,-0.047905,0.036464,-0.103306,0.026600,-0.027331,-0.122880,-0.013738,0.098111,-0.301486,0.645841,-0.694528,-90.959144,-16.980841,-146.655592
27507,NaN,2.807569,-9.391644,-0.120642,0.070553,-0.000788,-0.009882,-0.023912,-0.124731,-0.013961,0.098470,-0.301976,0.645845,-0.694261,-90.995127,-16.984130,-146.577375
27508,NaN,2.881904,-9.398672,-0.149158,0.000979,-0.019889,0.019009,-0.024456,-0.131396,-0.008496,0.098868,-0.302470,0.645857,-0.693979,-91.032712,-16.984086,-146.495427
27509,NaN,2.908442,-9.383547,-0.207346,-0.052370,0.007040,0.013308,-0.034282,-0.125275,-0.005803,0.099242,-0.302941,0.645907,-0.693673,-91.074717,-16.982622,-146.416718
27510,NaN,2.913265,-9.372648,-0.254850,-0.081574,0.036557,0.005184,-0.038295,-0.112347,-0.002808,0.099577,-0.303358,0.645984,-0.693371,-91.116876,-16.979415,-146.346246
27511,NaN,2.906486,-9.349802,-0.212534,-0.055375,-0.004637,-0.019397,-0.046070,-0.089031,-0.001922,0.099832,-0.303699,0.646097,-0.693079,-91.159228,-16.976105,-146.289026
27512,NaN,2.925658,-9.312074,-0.221644,-0.082077,-0.018560,-0.049684,-0.043363,-0.073330,-0.001156,0.100038,-0.303977,0.646214,-0.692819,-91.197452,-16.972315,-146.241951
27513,NaN,2.895502,-9.260164,-0.158999,-0.033808,-0.068010,-0.109385,-0.048346,-0.068129,-0.000383,0.100226,-0.304240,0.646348,-0.692551,-91.237468,-16.968244,-146.197557
27514,NaN,2.731825,-9.316388,-0.125462,0.132293,-0.006596,-0.104127,-0.047876,-0.079267,-0.003148,0.100438,-0.304547,0.646474,-0.692268,-91.279314,-16.965457,-146.146908
27515,NaN,2.745871,-9.402866,-0.139017,0.139340,0.003908,-0.017097,-0.047917,-0.085388,-0.008376,0.100652,-0.304891,0.646589,-0.691978,-91.322267,-16.965509,-146.092513
27516,NaN,2.758437,-9.455786,-0.144471,0.144301,0.003532,0.037231,-0.054093,-0.089761,-0.016230,0.100843,-0.305280,0.646710,-0.691665,-91.369563,-16.970000,-146.035398
27517,NaN,2.824380,-9.484128,-0.093819,0.132217,-0.075473,0.082333,-0.047899,-0.091951,-0.019300,0.101040,-0.305683,0.646805,-0.691370,-91.413705,-16.976133,-145.976911
27518,NaN,2.852258,-9.468274,-0.153196,0.078853,-0.048597,0.076624,-0.056365,-0.089320,-0.029773,0.101180,-0.306115,0.646913,-0.691057,-91.462303,-16.988300,-145.919846
27519,NaN,2.861653,-9.412197,-0.233668,0.018802,-0.000043,0.027676,-0.060170,-0.078945,-0.031850,0.101273,-0.306519,0.647037,-0.690748,-91.511280,-17.001721,-145.868935
27520,NaN,2.840285,-9.417827,-0.290055,0.012472,0.053809,0.028236,-0.065820,-0.064442,-0.034670,0.101300,-0.306885,0.647183,-0.690445,-91.560993,-17.016982,-145.826662
27521,NaN,2.857392,-9.425635,-0.328279,-0.013418,0.072461,0.041733,-0.068160,-0.047476,-0.038902,0.101255,-0.307208,0.647339,-0.690162,-91.609099,-17.034856,-145.794452
27522,NaN,2.833430,-9.483823,-0.252046,0.069850,0.025702,0.088282,-0.066682,-0.033071,-0.042096,0.101154,-0.307490,0.647492,-0.689907,-91.653871,-17.054814,-145.770810
27523,NaN,2.837593,-9.404751,-0.282347,0.036484,0.033464,0.014750,-0.068119,-0.030114,-0.047244,0.101024,-0.307779,0.647644,-0.689655,-91.698977,-17.077707,-145.748817
27524,NaN,2.885600,-9.358873,-0.242951,0.015682,-0.034735,-0.016119,-0.054472,-0.023149,-0.051045,0.100878,-0.308050,0.647746,-0.689459,-91.735081,-17.102926,-145.730922
27525,NaN,2.814168,-9.352557,-0.285118,0.054302,0.035245,-0.041968,-0.061464,-0.025620,-0.055770,0.100714,-0.308348,0.647863,-0.689239,-91.775657,-17.130752,-145.711427
27526,NaN,2.797284,-9.390665,-0.348688,0.050018,0.099959,-0.008684,-0.057585,-0.028605,-0.060439,0.100550,-0.308670,0.647959,-0.689030,-91.814590,-17.161230,-145.690045
27527,NaN,2.868496,-9.331163,-0.420057,-0.053732,0.110652,-0.042315,-0.048860,-0.026399,-0.061826,0.100387,-0.308984,0.648023,-0.688852,-91.848151,-17.192483,-145.669921
27528,NaN,2.862834,-9.353537,-0.403457,-0.026711,0.102024,-0.023095,-0.041204,-0.021960,-0.067072,0.100203,-0.309296,0.648055,-0.688709,-91.876593,-17.226859,-145.652349
27529,NaN,2.863803,-9.398032,-0.436046,-0.026409,0.134162,0.020715,-0.044419,-0.018754,-0.066098,0.100007,-0.309595,0.648101,-0.688560,-91.906312,-17.260682,-145.636682
27530,NaN,2.925367,-9.404830,-0.393344,-0.041801,0.065965,0.044149,-0.040263,-0.020328,-0.070061,0.099809,-0.309910,0.648125,-0.688424,-91.933976,-17.296784,-145.619985
27531,NaN,2.850244,-9.340664,-0.315037,0.051513,0.032714,-0.041944,-0.032063,-0.013076,-0.073887,0.099587,-0.310208,0.648120,-0.688327,-91.955682,-17.335164,-145.607528
27532,NaN,2.824790,-9.367324,-0.285873,0.102687,0.026743,-0.025111,-0.034725,-0.021411,-0.081426,0.099362,-0.310562,0.648107,-0.688212,-91.980469,-17.377740,-145.589908
27533,NaN,2.827616,-9.411384,-0.317557,0.102979,0.058878,0.018707,-0.028011,-0.026850,-0.088362,0.099142,-0.310952,0.648057,-0.688114,-92.002444,-17.424123,-145.568843
27534,NaN,2.888964,-9.384307,-0.264796,0.085557,-0.020173,0.009416,-0.027253,-0.028757,-0.091486,0.098917,-0.311359,0.647999,-0.688017,-92.024376,-17.472297,-145.546557
27535,NaN,2.962556,-9.323403,-0.333624,-0.018179,-0.009514,-0.024253,-0.025313,-0.027201,-0.091195,0.098692,-0.311759,0.647935,-0.687929,-92.044934,-17.520279,-145.525174
27536,NaN,3.018078,-9.264930,-0.331327,-0.067690,-0.047811,-0.063297,-0.026212,-0.023180,-0.088640,0.098461,-0.312137,0.647881,-0.687842,-92.065292,-17.566923,-145.506250
27537,NaN,3.035676,-9.282216,-0.324383,-0.064822,-0.059101,-0.041690,-0.027714,-0.021554,-0.081811,0.098246,-0.312488,0.647843,-0.687749,-92.086185,-17.609634,-145.488416
27538,NaN,2.976462,-9.295549,-0.353173,-0.022893,0.000054,-0.045869,-0.025769,-0.019992,-0.081520,0.098030,-0.312831,0.647799,-0.687665,-92.105702,-17.652256,-145.471521
27539,NaN,2.978735,-9.339674,-0.384457,-0.022620,0.032170,-0.002049,-0.027262,-0.026201,-0.073682,0.097859,-0.313171,0.647769,-0.687563,-92.127167,-17.690204,-145.451035
27540,NaN,2.970418,-9.373250,-0.325610,0.033175,-0.006358,0.025304,-0.024352,-0.022979,-0.076381,0.097672,-0.313508,0.647727,-0.687476,-92.146417,-17.729808,-145.432419
27541,NaN,2.964824,-9.317834,-0.329664,0.027350,-0.006774,-0.029023,-0.022720,-0.030245,-0.070100,0.097533,-0.313848,0.647685,-0.687380,-92.166033,-17.765604,-145.409547
27542,NaN,2.991150,-9.355482,-0.312489,0.033547,-0.028925,0.014199,-0.020442,-0.035518,-0.073789,0.097402,-0.314217,0.647627,-0.687284,-92.185362,-17.803439,-145.383416
27543,NaN,2.994292,-9.355237,-0.375024,0.002999,0.022239,0.017184,-0.018909,-0.032801,-0.069086,0.097281,-0.314561,0.647572,-0.687196,-92.203292,-17.838589,-145.358980
27544,NaN,3.027454,-9.257356,-0.392465,-0.053138,0.005657,-0.065109,-0.017358,-0.037920,-0.063381,0.097199,-0.314903,0.647519,-0.687101,-92.221265,-17.870396,-145.331610
27545,NaN,3.057828,-9.239342,-0.447075,-0.106535,0.032445,-0.070859,-0.017239,-0.033973,-0.057544,0.097124,-0.315213,0.647476,-0.687010,-92.238410,-17.898893,-145.306723
27546,NaN,3.100906,-9.239482,-0.431851,-0.126511,-0.003225,-0.057990,-0.017895,-0.028134,-0.048578,0.097059,-0.315473,0.647452,-0.686922,-92.254806,-17.922430,-145.285562
27547,NaN,3.047051,-9.318735,-0.418461,-0.050487,0.026018,0.000326,-0.019636,-0.027909,-0.042459,0.097013,-0.315714,0.647444,-0.686826,-92.272120,-17.942416,-145.264658
27548,NaN,3.008699,-9.326973,-0.397998,-0.002645,0.030928,-0.004419,-0.011859,-0.027280,-0.040876,0.096981,-0.315944,0.647412,-0.686755,-92.284863,-17.961551,-145.244177
27549,NaN,2.959423,-9.350516,-0.455700,0.013779,0.109126,0.004945,-0.007936,-0.024118,-0.040300,0.096948,-0.316159,0.647368,-0.686701,-92.294771,-17.980379,-145.225594
27550,NaN,2.963346,-9.349202,-0.457161,0.013315,0.108692,0.004950,-0.007908,-0.024530,-0.045995,0.096897,-0.316394,0.647316,-0.686650,-92.304795,-18.002500,-145.206632
27551,NaN,2.952943,-9.383858,-0.396453,0.069108,0.070174,0.032319,-0.003854,-0.023920,-0.050544,0.096835,-0.316640,0.647243,-0.686614,-92.312423,-18.027190,-145.187908
27552,NaN,2.941333,-9.340620,-0.357817,0.092107,0.039895,-0.013882,-0.001395,-0.025634,-0.054099,0.096769,-0.316902,0.647154,-0.686586,-92.319001,-18.053920,-145.168073
27553,NaN,3.025972,-9.375590,-0.332409,0.054625,-0.020205,0.044558,-0.001548,-0.029598,-0.059935,0.096697,-0.317196,0.647055,-0.686554,-92.326460,-18.083848,-145.145687
27554,NaN,3.025985,-9.307393,-0.315380,0.050163,-0.042289,-0.020890,-0.001530,-0.037446,-0.058934,0.096653,-0.317515,0.646954,-0.686508,-92.335385,-18.113066,-145.118605
27555,NaN,3.052998,-9.265717,-0.259516,0.053667,-0.107811,-0.054247,-0.000459,-0.053211,-0.053658,0.096680,-0.317869,0.646850,-0.686439,-92.346623,-18.138841,-145.082133
27556,NaN,3.036633,-9.259493,-0.350106,0.018454,-0.024100,-0.061738,0.001658,-0.069463,-0.050801,0.096772,-0.318269,0.646735,-0.686349,-92.359698,-18.162640,-145.035943
27557,NaN,3.103453,-9.243486,-0.386958,-0.054459,-0.032594,-0.054657,-0.010348,-0.067781,-0.036996,0.096888,-0.318624,0.646683,-0.686216,-92.379242,-18.178514,-144.991085
27558,NaN,3.160146,-9.172748,-0.366271,-0.102553,-0.092611,-0.104913,-0.024394,-0.065952,-0.029736,0.097000,-0.318957,0.646693,-0.686037,-92.406452,-18.190308,-144.947515
27559,NaN,3.138453,-9.143571,-0.350326,-0.080847,-0.101184,-0.140008,-0.035482,-0.054766,-0.019912,0.097092,-0.319224,0.646761,-0.685835,-92.437836,-18.196681,-144.910915
27560,NaN,3.073280,-9.169124,-0.280532,0.019961,-0.123431,-0.138963,-0.045250,-0.042657,-0.011792,0.097156,-0.319429,0.646882,-0.685616,-92.472481,-18.198730,-144.881828
27561,NaN,3.014189,-9.216523,-0.261198,0.093950,-0.104979,-0.113306,-0.056817,-0.042949,-0.013777,0.097197,-0.319646,0.647039,-0.685361,-92.513820,-18.201845,-144.852500
27562,NaN,2.979065,-9.292116,-0.263285,0.145776,-0.078398,-0.052556,-0.061244,-0.043249,-0.016193,0.097223,-0.319875,0.647207,-0.685092,-92.557782,-18.206358,-144.822935
27563,NaN,2.927051,-9.360928,-0.295248,0.192934,-0.019252,-0.002276,-0.070320,-0.053503,-0.026439,0.097233,-0.320176,0.647384,-0.684782,-92.608958,-18.216403,-144.786896
27564,NaN,2.983877,-9.447665,-0.294685,0.180262,-0.044202,0.097624,-0.076273,-0.050844,-0.033972,0.097199,-0.320495,0.647571,-0.684461,-92.663129,-18.230844,-144.752250
27565,NaN,3.057572,-9.418097,-0.318885,0.108681,-0.074418,0.093554,-0.080576,-0.040150,-0.042918,0.097093,-0.320808,0.647764,-0.684147,-92.717831,-18.250612,-144.723764
27566,NaN,3.038132,-9.388246,-0.307119,0.130397,-0.082969,0.058475,-0.085020,-0.040860,-0.051024,0.096954,-0.321153,0.647958,-0.683821,-92.775317,-18.275022,-144.694605
27567,NaN,3.035535,-9.399622,-0.335761,0.128592,-0.061722,0.069607,-0.089646,-0.044728,-0.053584,0.096811,-0.321521,0.648162,-0.683475,-92.836216,-18.300711,-144.662995
27568,NaN,3.018139,-9.279814,-0.387163,0.088748,-0.032139,-0.047183,-0.091062,-0.052175,-0.062852,0.096659,-0.321945,0.648352,-0.683117,-92.899465,-18.331506,-144.626595
27569,NaN,2.963335,-9.315517,-0.471881,0.103743,0.067753,-0.026599,-0.085434,-0.057067,-0.067435,0.096516,-0.322397,0.648512,-0.682771,-92.960478,-18.364693,-144.587049
27570,NaN,3.031466,-9.387516,-0.454208,0.092392,0.021079,0.062158,-0.087623,-0.062635,-0.073568,0.096366,-0.322890,0.648668,-0.682412,-93.023918,-18.401232,-144.543920
27571,NaN,3.109701,-9.321794,-0.410722,0.049011,-0.071517,0.022314,-0.086262,-0.064268,-0.080410,0.096200,-0.323410,0.648806,-0.682057,-93.086987,-18.441538,-144.499520
27572,NaN,3.079791,-9.282909,-0.368931,0.096242,-0.099036,-0.026241,-0.083756,-0.068131,-0.083422,0.096041,-0.323951,0.648929,-0.681706,-93.149454,-18.483453,-144.452647
27573,NaN,3.059216,-9.298311,-0.386118,0.118581,-0.075087,-0.017446,-0.074534,-0.076930,-0.087769,0.095910,-0.324531,0.649009,-0.681372,-93.208401,-18.527476,-144.400249
27574,NaN,2.986058,-9.293369,-0.489652,0.126929,0.046577,-0.040036,-0.070750,-0.093807,-0.096838,0.095810,-0.325197,0.649053,-0.681027,-93.268598,-18.576141,-144.337308
27575,NaN,3.011336,-9.331004,-0.539299,0.102916,0.075905,0.006185,-0.064732,-0.107682,-0.104911,0.095736,-0.325933,0.649057,-0.680682,-93.328163,-18.628851,-144.265626
27576,NaN,2.988286,-9.391966,-0.584932,0.125850,0.132331,0.058871,-0.063976,-0.112135,-0.113194,0.095650,-0.326710,0.649041,-0.680336,-93.388360,-18.686131,-144.190896
27577,NaN,2.997603,-9.410835,-0.453625,0.213188,0.020621,0.072115,-0.060494,-0.111532,-0.130432,0.095509,-0.327540,0.648986,-0.680010,-93.446730,-18.753161,-144.115802
27578,NaN,3.021748,-9.347130,-0.414491,0.213493,-0.033978,0.017107,-0.054222,-0.118679,-0.143894,0.095356,-0.328434,0.648883,-0.679698,-93.503199,-18.827627,-144.035810
27579,NaN,3.043462,-9.419286,-0.342196,0.275930,-0.094239,0.087700,-0.045981,-0.132472,-0.161833,0.095200,-0.329428,0.648715,-0.679399,-93.557975,-18.911732,-143.946684
27580,NaN,3.063773,-9.344820,-0.461698,0.187060,-0.015902,0.030597,-0.029654,-0.149470,-0.171465,0.095093,-0.330504,0.648467,-0.679128,-93.607046,-19.000719,-143.846805
27581,NaN,3.113534,-9.341569,-0.511434,0.136929,-0.000106,0.046409,-0.019061,-0.162029,-0.182169,0.095008,-0.331652,0.648159,-0.678875,-93.652828,-19.095232,-143.738768
27582,NaN,3.097030,-9.378460,-0.444962,0.216907,-0.035869,0.071478,-0.021616,-0.165927,-0.194548,0.094889,-0.332853,0.647836,-0.678612,-93.701256,-19.196657,-143.627760
27583,NaN,3.202641,-9.372167,-0.298957,0.237876,-0.209972,0.091003,-0.008378,-0.178757,-0.208146,0.094788,-0.334135,0.647438,-0.678375,-93.745051,-19.305231,-143.508272
27584,NaN,3.219028,-9.355515,-0.155528,0.323339,-0.332443,0.071486,-0.006892,-0.195208,-0.218092,0.094707,-0.335504,0.647009,-0.678120,-93.791738,-19.418846,-143.378263
27585,NaN,3.220432,-9.195618,-0.073302,0.342028,-0.416653,-0.084105,0.011857,-0.235379,-0.229126,0.094752,-0.337035,0.646478,-0.677861,-93.836226,-19.537076,-143.223244
27586,NaN,3.342706,-9.114807,-0.171106,0.190088,-0.411642,-0.113355,0.016350,-0.294742,-0.231723,0.094986,-0.338773,0.645897,-0.677516,-93.890669,-19.654438,-143.031891
27587,NaN,3.368632,-9.127930,-0.229750,0.162755,-0.371466,-0.088745,0.033399,-0.345895,-0.230175,0.095419,-0.340669,0.645234,-0.677136,-93.946200,-19.768674,-142.809269
27588,NaN,3.386945,-9.211430,-0.233983,0.193650,-0.358541,-0.003993,0.104820,-0.398877,-0.240938,0.096108,-0.342744,0.644282,-0.676898,-93.972443,-19.886882,-142.553768
27589,NaN,3.537081,-9.202613,-0.074038,0.195223,-0.567951,0.028236,0.043412,-0.435142,-0.233168,0.096835,-0.344944,0.643530,-0.676392,-94.041800,-19.998934,-142.276244
27590,NaN,3.411202,-9.283175,0.163835,0.479191,-0.668702,0.044475,0.087360,-0.478460,-0.243841,0.097739,-0.347301,0.642586,-0.675953,-94.095866,-20.115106,-141.971587
27591,NaN,3.467912,-9.129504,0.228573,0.452980,-0.769225,-0.084916,0.111387,-0.560297,-0.260459,0.098892,-0.349973,0.641486,-0.675452,-94.154243,-20.237062,-141.616008
27592,NaN,3.562635,-8.997677,0.197689,0.350214,-0.812917,-0.173908,0.136112,-0.646613,-0.263318,0.100353,-0.352930,0.640247,-0.674873,-94.217662,-20.356746,-141.207313
27593,NaN,3.603039,-9.107811,0.107463,0.328661,-0.740448,-0.051063,0.162137,-0.727244,-0.267056,0.102105,-0.356153,0.638865,-0.674227,-94.284239,-20.474652,-140.748817
27594,NaN,3.509438,-9.153915,-0.068104,0.331435,-0.532097,-0.028931,0.187443,-0.803867,-0.271916,0.104128,-0.359630,0.637338,-0.673516,-94.353941,-20.591572,-140.242863
27595,NaN,3.453419,-9.315624,-0.143015,0.403679,-0.405374,0.106993,0.218537,-0.873437,-0.280413,0.106399,-0.363345,0.635642,-0.672770,-94.421999,-20.709677,-139.693487
27596,NaN,3.440546,-9.304532,-0.298724,0.338129,-0.270259,0.102628,0.236794,-0.929296,-0.283725,0.108865,-0.367241,0.633833,-0.671966,-94.493121,-20.826612,-139.109260
27597,NaN,3.470128,-9.246807,-0.412423,0.252569,-0.202894,0.067105,0.249626,-0.964647,-0.297357,0.111420,-0.371281,0.631921,-0.671128,-94.566074,-20.948998,-138.502129
27598,NaN,3.401821,-9.492041,-0.579325,0.296989,0.018488,0.282769,0.254028,-0.972122,-0.301233,0.113989,-0.375346,0.629965,-0.670273,-94.639789,-21.072576,-137.889578
27599,NaN,3.282617,-9.560140,-0.691037,0.352654,0.199703,0.310804,0.259785,-0.969529,-0.316638,0.116508,-0.379438,0.627944,-0.669432,-94.711308,-21.204300,-137.277139
27600,NaN,3.288096,-9.455425,-0.597275,0.400896,0.118146,0.207224,0.261939,-0.965557,-0.340999,0.118932,-0.383581,0.625856,-0.668600,-94.782938,-21.349456,-136.665155
27601,NaN,3.257878,-9.325360,-0.670190,0.356512,0.180360,0.080016,0.262050,-0.961818,-0.351712,0.121306,-0.387733,0.623730,-0.667764,-94.855507,-21.500138,-136.054084
27602,NaN,3.443239,-9.252013,-0.774617,0.164312,0.136224,0.087315,0.265342,-0.962248,-0.358641,0.123661,-0.391896,0.621563,-0.666921,-94.928374,-21.654086,-135.441552
27603,NaN,3.552391,-9.202635,-0.824113,0.068697,0.103054,0.085379,0.261855,-0.952156,-0.360619,0.125968,-0.396023,0.619392,-0.666072,-95.002704,-21.808875,-134.834236
27604,NaN,3.579258,-9.156051,-0.897625,0.012015,0.140512,0.057983,0.259498,-0.933014,-0.365502,0.128191,-0.400092,0.617215,-0.665236,-95.076093,-21.966743,-134.237562
27605,NaN,3.569612,-9.064042,-0.955280,-0.025733,0.180884,-0.026058,0.260369,-0.915716,-0.367234,0.130354,-0.404097,0.615025,-0.664423,-95.146748,-22.125731,-133.650554
27606,NaN,3.507198,-9.047057,-1.025725,-0.016059,0.280823,-0.059605,0.260040,-0.907577,-0.362347,0.132503,-0.408050,0.612837,-0.663603,-95.217548,-22.281736,-133.067977
27607,NaN,3.521439,-9.094834,-1.223390,-0.126173,0.431838,0.006211,0.262676,-0.896885,-0.355504,0.134645,-0.411934,0.610644,-0.662793,-95.285822,-22.433686,-132.491529
27608,NaN,3.566258,-9.089446,-1.205582,-0.121842,0.398692,0.016646,0.267672,-0.881842,-0.356716,0.136743,-0.415759,0.608428,-0.662013,-95.349565,-22.586568,-131.923488
27609,NaN,3.597005,-8.949576,-1.224846,-0.179502,0.371311,-0.098601,0.276729,-0.862069,-0.349752,0.138820,-0.419481,0.606195,-0.661281,-95.404821,-22.735935,-131.367270
27610,NaN,3.683671,-8.939858,-1.270011,-0.249006,0.351558,-0.070111,0.288373,-0.847068,-0.341039,0.140901,-0.423109,0.603938,-0.660594,-95.451335,-22.880749,-130.820113
27611,NaN,3.668958,-8.942574,-1.315883,-0.255492,0.405225,-0.069335,0.299838,-0.829898,-0.329275,0.142991,-0.426626,0.601667,-0.659955,-95.488261,-23.019364,-130.283595
27612,NaN,3.728657,-8.932762,-1.237283,-0.220860,0.320574,-0.061974,0.313176,-0.812224,-0.321967,0.145077,-0.430045,0.599367,-0.659374,-95.514619,-23.154568,-129.757850
27613,NaN,3.678610,-8.949383,-1.246952,-0.179039,0.379748,-0.065779,0.320500,-0.797519,-0.315388,0.147153,-0.433381,0.597054,-0.658827,-95.534275,-23.286578,-129.241035
27614,NaN,3.749479,-8.924265,-1.149718,-0.142974,0.273436,-0.069602,0.333643,-0.775311,-0.305758,0.149220,-0.436597,0.594723,-0.658347,-95.542102,-23.414269,-128.738063
27615,NaN,3.750577,-8.865945,-1.074933,-0.094069,0.224322,-0.129295,0.333087,-0.765280,-0.299877,0.151272,-0.439754,0.592402,-0.657870,-95.548734,-23.539044,-128.241179
27616,NaN,3.826621,-8.848373,-1.084180,-0.137966,0.185628,-0.114303,0.328999,-0.757312,-0.289611,0.153322,-0.442848,0.590112,-0.657378,-95.556739,-23.658407,-127.749402
27617,NaN,3.879271,-8.828277,-1.044505,-0.132157,0.130796,-0.115079,0.331145,-0.746152,-0.278844,0.155377,-0.445864,0.587835,-0.656896,-95.561456,-23.772140,-127.264770
27618,NaN,3.874651,-8.851872,-1.076044,-0.135291,0.173511,-0.092708,0.315684,-0.724795,-0.267140,0.157370,-0.448780,0.585642,-0.656395,-95.570497,-23.880392,-126.793741
27619,NaN,3.943808,-8.801177,-1.079993,-0.181059,0.124071,-0.110495,0.297385,-0.711791,-0.264066,0.159292,-0.451650,0.583516,-0.655856,-95.587539,-23.987458,-126.330586
27620,NaN,3.984766,-8.796278,-1.058762,-0.176627,0.090881,-0.100099,0.285676,-0.671632,-0.251950,0.161106,-0.454356,0.581478,-0.655354,-95.601809,-24.089802,-125.892845
27621,NaN,4.047293,-8.736231,-1.031868,-0.196803,0.022546,-0.131375,0.267889,-0.638244,-0.236517,0.162832,-0.456915,0.579552,-0.654854,-95.618099,-24.185052,-125.476540
27622,NaN,4.041182,-8.678757,-1.033364,-0.202240,0.022152,-0.185725,0.254808,-0.593418,-0.221363,0.164445,-0.459288,0.577733,-0.654397,-95.630835,-24.274139,-125.088875
27623,NaN,4.089630,-8.669551,-1.103392,-0.276391,0.034884,-0.167687,0.242423,-0.561131,-0.203652,0.165994,-0.461510,0.576016,-0.653958,-95.642450,-24.354815,-124.722221
27624,NaN,4.067953,-8.664039,-1.200648,-0.335820,0.115551,-0.172706,0.222810,-0.519990,-0.183280,0.167443,-0.463550,0.574438,-0.653533,-95.654775,-24.426180,-124.382351
27625,NaN,4.063962,-8.710442,-1.298401,-0.390105,0.195987,-0.123373,0.200341,-0.479104,-0.161549,0.168792,-0.465409,0.573013,-0.653115,-95.669170,-24.487343,-124.069239
27626,NaN,4.042739,-8.764104,-1.377779,-0.420232,0.279184,-0.076313,0.184378,-0.430944,-0.143342,0.170024,-0.467070,0.571719,-0.652744,-95.680151,-24.540842,-123.787286
27627,NaN,4.026658,-8.793076,-1.408650,-0.423370,0.321848,-0.053916,0.165199,-0.384661,-0.120613,0.171153,-0.468528,0.570578,-0.652403,-95.689664,-24.583913,-123.535642
27628,NaN,3.998499,-8.838655,-1.453597,-0.427928,0.386157,-0.020317,0.149176,-0.331561,-0.107530,0.172134,-0.469787,0.569562,-0.652127,-95.694427,-24.622563,-123.318028
27629,NaN,4.024761,-8.958218,-1.378149,-0.340717,0.360787,0.091928,0.136187,-0.279419,-0.088993,0.172997,-0.470833,0.568675,-0.651918,-95.692601,-24.653554,-123.134213
27630,NaN,4.074295,-8.939616,-1.267651,-0.280353,0.257231,0.085736,0.124251,-0.234540,-0.074782,0.173749,-0.471701,0.567898,-0.651767,-95.685650,-24.679055,-122.979407
27631,NaN,4.157694,-8.896399,-1.087563,-0.188239,0.080576,0.065227,0.115161,-0.198999,-0.061198,0.174424,-0.472422,0.567213,-0.651661,-95.674253,-24.698797,-122.847724
27632,NaN,4.123730,-8.911470,-0.958081,-0.061575,0.039614,0.053011,0.106400,-0.182342,-0.047913,0.175073,-0.473059,0.566602,-0.651558,-95.663251,-24.711982,-122.727313
27633,NaN,4.108854,-8.907949,-0.741619,0.120991,-0.071651,0.024206,0.098289,-0.185272,-0.041152,0.175733,-0.473692,0.566029,-0.651417,-95.657467,-24.721111,-122.605471
27634,NaN,4.091396,-8.879899,-0.714722,0.143049,-0.080182,-0.010848,0.095672,-0.184301,-0.035394,0.176403,-0.474307,0.565479,-0.651266,-95.652842,-24.727073,-122.484594
27635,NaN,4.157083,-8.841898,-0.682225,0.126277,-0.159464,-0.020622,0.091112,-0.199625,-0.027312,0.177132,-0.474953,0.564949,-0.651058,-95.654600,-24.727515,-122.354593
27636,NaN,4.204283,-8.869801,-0.687333,0.108494,-0.184770,0.024786,0.081746,-0.198944,-0.019901,0.177859,-0.475584,0.564467,-0.650817,-95.661401,-24.723811,-122.225486
27637,NaN,4.137864,-8.990139,-0.749467,0.127039,-0.063713,0.111325,0.079375,-0.191854,-0.011160,0.178591,-0.476168,0.564019,-0.650578,-95.667399,-24.715462,-122.101377
27638,NaN,4.102188,-9.015600,-0.819028,0.095031,0.008743,0.125657,0.074818,-0.192692,-0.005236,0.179332,-0.476742,0.563599,-0.650318,-95.676106,-24.703723,-121.977126
27639,NaN,4.043376,-9.073696,-0.917080,0.060112,0.124471,0.162420,0.074415,-0.179896,-0.004242,0.180039,-0.477271,0.563193,-0.650086,-95.681575,-24.692080,-121.860977
27640,NaN,3.975923,-9.028670,-1.083338,-0.058980,0.254001,0.108526,0.068884,-0.158735,-0.000004,0.180687,-0.477725,0.562833,-0.649884,-95.684588,-24.679262,-121.758386
27641,NaN,3.984539,-8.893742,-1.287263,-0.273631,0.318394,0.008514,0.061127,-0.126448,0.005359,0.181244,-0.478064,0.562541,-0.649733,-95.683367,-24.665165,-121.676396
27642,NaN,4.009611,-8.799742,-1.458350,-0.457532,0.363662,-0.050636,0.048525,-0.079636,0.016927,0.181675,-0.478231,0.562359,-0.649647,-95.676845,-24.647184,-121.624507
27643,NaN,4.007910,-8.728558,-1.624666,-0.618750,0.433347,-0.100841,0.029655,-0.029200,0.033799,0.181975,-0.478203,0.562325,-0.649613,-95.667445,-24.622393,-121.605307
27644,NaN,3.967018,-8.769074,-1.632481,-0.597751,0.478765,-0.080660,0.018543,0.028566,0.046245,0.182126,-0.477963,0.562409,-0.649675,-95.649043,-24.593826,-121.623109
27645,NaN,4.164672,-8.834554,-1.298706,-0.402342,0.157973,0.030769,0.019246,0.082083,0.046162,0.182128,-0.477548,0.562539,-0.649867,-95.616268,-24.568255,-121.674439
27646,NaN,4.194102,-8.757119,-0.823379,-0.055118,-0.153008,-0.069530,0.038229,0.113936,0.047942,0.182091,-0.477008,0.562641,-0.650186,-95.564334,-24.543466,-121.745821
27647,NaN,4.131597,-8.749740,-0.569542,0.172553,-0.247562,-0.124480,0.047985,0.114632,0.044817,0.182066,-0.476465,0.562704,-0.650537,-95.506728,-24.520384,-121.817406
27648,NaN,4.081634,-8.723588,-0.555843,0.189897,-0.223439,-0.169882,0.061006,0.095193,0.050735,0.182145,-0.475956,0.562720,-0.650872,-95.446638,-24.492849,-121.877126
27649,NaN,4.025411,-8.711110,-0.647793,0.127121,-0.131862,-0.196375,0.067682,0.066428,0.053538,0.182331,-0.475527,0.562696,-0.651155,-95.390139,-24.462053,-121.918936
27650,NaN,3.993508,-8.783045,-0.748091,0.071311,-0.029924,-0.135723,0.069769,0.036972,0.058525,0.182620,-0.475178,0.562649,-0.651369,-95.340030,-24.426850,-121.942543
27651,NaN,4.011999,-8.847022,-0.773296,0.050600,-0.012025,-0.067883,0.077325,0.028161,0.063287,0.182968,-0.474837,0.562581,-0.651579,-95.287757,-24.388393,-121.960863
27652,NaN,3.972808,-8.898716,-0.808332,0.045987,0.052245,-0.034196,0.074313,0.020854,0.055538,0.183303,-0.474544,0.562497,-0.651770,-95.239343,-24.354008,-121.974120
27653,NaN,4.002724,-8.946485,-0.819148,0.026728,0.048498,0.022419,0.079891,0.026980,0.061289,0.183653,-0.474210,0.562414,-0.651986,-95.186007,-24.316599,-121.991501
27654,NaN,4.028078,-8.960967,-0.821796,0.005646,0.034092,0.046242,0.089291,0.034451,0.059897,0.184000,-0.473847,0.562304,-0.652247,-95.125455,-24.280404,-122.013439
27655,NaN,3.989138,-8.942304,-0.767934,0.051870,0.028430,0.008933,0.091780,0.043931,0.059494,0.184325,-0.473451,0.562194,-0.652538,-95.061047,-24.244849,-122.041235
27656,NaN,4.005099,-8.866654,-0.781111,-0.000307,0.000884,-0.052130,0.085757,0.046819,0.058532,0.184624,-0.473054,0.562103,-0.652819,-94.999439,-24.210011,-122.070739
27657,NaN,3.993269,-8.848822,-0.706058,0.050687,-0.037362,-0.079117,0.089709,0.044316,0.062741,0.184954,-0.472650,0.562007,-0.653102,-94.936120,-24.172564,-122.098852
27658,NaN,4.041062,-8.831023,-0.679268,0.032552,-0.095017,-0.077779,0.092738,0.040910,0.068908,0.185320,-0.472237,0.561912,-0.653379,-94.871874,-24.131455,-122.125115
27659,NaN,4.008160,-8.762683,-0.604290,0.078437,-0.132917,-0.159124,0.096736,0.030032,0.074608,0.185745,-0.471839,0.561808,-0.653635,-94.808001,-24.086487,-122.144812
27660,NaN,4.033767,-8.742461,-0.690984,-0.023132,-0.112189,-0.160422,0.080065,0.022998,0.080183,0.186168,-0.471463,0.561764,-0.653823,-94.755427,-24.038033,-122.160350
27661,NaN,4.062820,-8.662152,-0.724415,-0.099440,-0.142540,-0.219255,0.083590,0.035651,0.084604,0.186578,-0.471031,0.561731,-0.654047,-94.697521,-23.987589,-122.183964
27662,NaN,4.039478,-8.649135,-0.723730,-0.102951,-0.132168,-0.240821,0.068077,0.031847,0.098763,0.187009,-0.470585,0.561778,-0.654204,-94.649256,-23.928911,-122.205868
27663,NaN,4.042169,-8.637535,-0.702398,-0.101700,-0.154400,-0.252075,0.066580,0.036156,0.109350,0.187459,-0.470097,0.561858,-0.654357,-94.600553,-23.864323,-122.230930
27664,NaN,4.044031,-8.626289,-0.681495,-0.100437,-0.176626,-0.263332,0.056401,0.036178,0.118703,0.187915,-0.469592,0.561994,-0.654473,-94.557580,-23.794422,-122.256408
27665,NaN,3.967239,-8.726789,-0.596220,0.023699,-0.141851,-0.209010,0.053966,0.039587,0.131246,0.188397,-0.469042,0.562170,-0.654577,-94.514916,-23.717452,-122.284558
27666,NaN,3.934073,-8.810708,-0.566761,0.075401,-0.115542,-0.147923,0.049000,0.037311,0.136613,0.188891,-0.468489,0.562372,-0.654657,-94.475666,-23.637338,-122.311479
27667,NaN,3.861754,-8.909814,-0.573274,0.120830,-0.035014,-0.085883,0.049124,0.026630,0.138818,0.189422,-0.467965,0.562568,-0.654710,-94.438992,-23.555432,-122.331771
27668,NaN,3.868799,-8.966526,-0.567396,0.125711,-0.035981,-0.031532,0.045973,0.028415,0.143327,0.189956,-0.467425,0.562787,-0.654753,-94.403687,-23.471058,-122.353327
27669,NaN,3.780932,-9.070844,-0.556163,0.195267,0.047368,0.028278,0.039915,0.018404,0.133998,0.190473,-0.466949,0.562994,-0.654765,-94.374521,-23.391523,-122.368136
27670,NaN,3.802771,-9.098859,-0.595574,0.148552,0.051724,0.065584,0.042030,0.015611,0.131468,0.190995,-0.466487,0.563185,-0.654777,-94.344961,-23.313345,-122.381036
27671,NaN,3.776696,-9.132192,-0.547073,0.199891,0.045780,0.082644,0.033183,0.019676,0.124980,0.191463,-0.466038,0.563394,-0.654781,-94.319582,-23.239000,-122.396107
27672,NaN,3.765242,-9.114131,-0.569399,0.172215,0.053334,0.063351,0.028161,0.021234,0.118973,0.191895,-0.465606,0.563606,-0.654779,-94.296889,-23.168192,-122.411827
27673,NaN,3.758914,-9.175119,-0.547241,0.201213,0.055178,0.115464,0.020856,0.017172,0.113278,0.192303,-0.465210,0.563825,-0.654752,-94.279461,-23.100413,-122.424719
27674,NaN,3.787199,-9.141641,-0.534970,0.179811,0.008509,0.095201,0.021046,0.018693,0.106344,0.192684,-0.464828,0.564029,-0.654736,-94.261752,-23.036703,-122.438209
27675,NaN,3.720597,-9.132120,-0.543155,0.195626,0.054341,0.061129,0.011332,0.019644,0.098749,0.193016,-0.464474,0.564247,-0.654702,-94.249488,-22.977321,-122.451910
27676,NaN,3.704996,-9.091183,-0.502066,0.219224,0.024351,0.014826,0.011537,0.021176,0.091813,0.193320,-0.464134,0.564450,-0.654678,-94.236931,-22.922013,-122.466226
27677,NaN,3.718963,-8.971072,-0.576041,0.112208,0.013173,-0.084899,0.004186,0.021690,0.092221,0.193608,-0.463798,0.564678,-0.654635,-94.228420,-22.866439,-122.480859
27678,NaN,3.764774,-8.954346,-0.558080,0.094117,-0.044486,-0.083635,-0.001566,0.017877,0.085798,0.193871,-0.463498,0.564906,-0.654572,-94.224307,-22.814425,-122.492825
27679,NaN,3.757070,-8.934694,-0.583689,0.066434,-0.036929,-0.102938,-0.008112,0.021549,0.083556,0.194102,-0.463199,0.565154,-0.654502,-94.223061,-22.763793,-122.506952
27680,NaN,3.734576,-8.920180,-0.591041,0.062908,-0.026525,-0.124482,-0.010536,0.026528,0.081662,0.194307,-0.462891,0.565410,-0.654437,-94.222114,-22.714507,-122.524077
27681,NaN,3.761222,-8.969198,-0.608782,0.043609,-0.030375,-0.067890,-0.010418,0.024247,0.082355,0.194521,-0.462588,0.565665,-0.654368,-94.221591,-22.664675,-122.539808
27682,NaN,3.727389,-8.993476,-0.604562,0.066018,-0.006527,-0.058861,-0.014341,0.026760,0.078124,0.194705,-0.462293,0.565926,-0.654296,-94.222863,-22.617420,-122.556902
27683,NaN,3.709061,-9.035150,-0.593185,0.091706,0.006313,-0.028287,-0.017670,0.028591,0.075130,0.194866,-0.462003,0.566192,-0.654223,-94.225616,-22.571900,-122.574983
27684,NaN,3.699182,-9.026938,-0.560988,0.117117,-0.013046,-0.041793,-0.013399,0.025347,0.073117,0.195040,-0.461726,0.566436,-0.654155,-94.226798,-22.527447,-122.590966
27685,NaN,3.687705,-9.090218,-0.614634,0.091503,0.037302,0.015803,-0.014172,0.030539,0.074249,0.195201,-0.461429,0.566690,-0.654097,-94.227129,-22.482513,-122.610202
27686,NaN,3.666396,-9.120774,-0.570539,0.142844,0.031387,0.032875,-0.011696,0.018734,0.066979,0.195376,-0.461188,0.566908,-0.654025,-94.229032,-22.441289,-122.621806
27687,NaN,3.687124,-9.079121,-0.601121,0.092514,0.014487,0.004537,-0.009317,0.013714,0.068880,0.195579,-0.460957,0.567117,-0.653946,-94.230669,-22.398710,-122.630387
27688,NaN,3.634132,-9.191366,-0.606199,0.141114,0.083968,0.088254,-0.005468,0.006638,0.063258,0.195791,-0.460760,0.567294,-0.653868,-94.231931,-22.359101,-122.634343
27689,NaN,3.621753,-9.126209,-0.592823,0.137285,0.062187,0.022632,0.002145,-0.000722,0.061185,0.196035,-0.460586,0.567434,-0.653796,-94.230536,-22.320307,-122.633650
27690,NaN,3.628341,-9.066577,-0.630329,0.083676,0.056305,-0.027248,0.004360,-0.007994,0.052534,0.196277,-0.460458,0.567540,-0.653722,-94.229788,-22.286207,-122.628076
27691,NaN,3.589909,-8.999460,-0.638653,0.075048,0.067152,-0.103132,0.002283,-0.018135,0.054220,0.196548,-0.460361,0.567646,-0.653617,-94.232507,-22.250654,-122.616314
27692,NaN,3.695709,-8.950562,-0.663086,-0.013928,-0.020691,-0.106510,0.005830,-0.024532,0.058599,0.196859,-0.460268,0.567745,-0.653502,-94.234666,-22.212389,-122.600814
27693,NaN,3.755893,-8.940150,-0.606332,-0.003043,-0.108126,-0.097290,0.004409,-0.027005,0.060009,0.197180,-0.460181,0.567848,-0.653377,-94.238116,-22.173152,-122.583852
27694,NaN,3.699384,-9.018520,-0.605117,0.043754,-0.049236,-0.046369,-0.000866,-0.022412,0.067045,0.197497,-0.460064,0.567990,-0.653241,-94.243447,-22.130149,-122.570059
27695,NaN,3.696229,-9.031968,-0.638611,0.017840,-0.031108,-0.032856,-0.000196,-0.023121,0.072034,0.197835,-0.459934,0.568140,-0.653099,-94.248395,-22.084203,-122.556061
27696,NaN,3.638764,-9.064921,-0.689192,0.009747,0.044096,-0.020530,0.001423,-0.022944,0.075066,0.198186,-0.459794,0.568292,-0.652959,-94.252374,-22.036593,-122.542325
27697,NaN,3.577649,-9.087029,-0.707391,0.027295,0.100565,-0.021711,-0.002840,-0.030347,0.079296,0.198562,-0.459669,0.568460,-0.652787,-94.260353,-21.986189,-122.524224
27698,NaN,3.477102,-9.146170,-0.736268,0.065950,0.203093,-0.002532,-0.015635,-0.033525,0.084509,0.198934,-0.459553,0.568679,-0.652564,-94.276348,-21.932727,-122.504429
27699,NaN,3.562464,-9.289277,-0.701278,0.087224,0.146894,0.159494,-0.018486,-0.030098,0.082067,0.199282,-0.459436,0.568904,-0.652345,-94.293142,-21.880739,-122.486650
27700,NaN,3.518542,-9.303088,-0.575709,0.214028,0.106415,0.147327,-0.018949,-0.014937,0.070991,0.199549,-0.459301,0.569121,-0.652169,-94.306959,-21.835790,-122.477719
27701,NaN,3.503335,-9.423429,-0.520972,0.296316,0.113483,0.249375,-0.015329,-0.011366,0.055659,0.199766,-0.459194,0.569294,-0.652027,-94.318073,-21.799685,-122.470280
27702,NaN,3.480178,-9.268390,-0.431672,0.340333,0.033196,0.091055,-0.042813,0.001191,0.044351,0.199845,-0.459106,0.569543,-0.651847,-94.342320,-21.770648,-122.470061
27703,NaN,3.543295,-9.444793,-0.588803,0.225128,0.114204,0.288897,-0.004888,-0.025094,0.031704,0.200046,-0.459101,0.569613,-0.651727,-94.350976,-21.747624,-122.453083
27704,NaN,3.570352,-9.156931,-0.519311,0.192970,-0.027945,0.027458,-0.008276,-0.033834,0.027165,0.200249,-0.459141,0.569676,-0.651582,-94.363705,-21.726881,-122.430531
27705,NaN,3.601317,-9.158490,-0.590999,0.118752,-0.015587,0.045424,-0.010009,-0.034007,0.020390,0.200427,-0.459203,0.569727,-0.651439,-94.377500,-21.709922,-122.407556
27706,NaN,3.602630,-9.124277,-0.677263,0.037959,0.018837,0.020332,-0.004809,-0.034116,0.019465,0.200613,-0.459263,0.569760,-0.651310,-94.388422,-21.693556,-122.384483
27707,NaN,3.585852,-9.107079,-0.685740,0.034403,0.029262,-0.001193,0.003591,-0.025459,0.015582,0.200782,-0.459297,0.569765,-0.651230,-94.392550,-21.679710,-122.366547
27708,NaN,3.587371,-9.141324,-0.693207,0.035917,0.039206,0.031638,0.000297,-0.023573,0.012589,0.200928,-0.459337,0.569776,-0.651147,-94.398259,-21.667731,-122.349639
27709,NaN,3.571217,-9.123939,-0.700804,0.032359,0.049633,0.010116,0.008097,-0.011968,0.010525,0.201053,-0.459336,0.569769,-0.651116,-94.396822,-21.657363,-122.339761
27710,NaN,3.618165,-9.211532,-0.685416,0.043753,0.026454,0.107525,0.003265,-0.010276,0.008255,0.201153,-0.459342,0.569773,-0.651077,-94.397884,-21.648443,-122.330824
27711,NaN,3.596290,-9.172297,-0.627247,0.091556,-0.000522,0.058958,0.008822,-0.006544,0.007188,0.201253,-0.459333,0.569761,-0.651063,-94.394858,-21.640219,-122.324123
27712,NaN,3.592714,-9.138845,-0.619979,0.089558,-0.011669,0.026129,0.007769,-0.007421,0.005401,0.201346,-0.459333,0.569747,-0.651046,-94.392739,-21.633056,-122.316807
27713,NaN,3.592309,-9.116232,-0.645162,0.061861,-0.004120,0.006822,0.011785,-0.003886,0.005055,0.201439,-0.459318,0.569723,-0.651049,-94.387447,-21.626167,-122.311638
27714,NaN,3.591892,-9.093654,-0.670005,0.034181,0.003433,-0.012486,0.012722,-0.000743,0.006155,0.201527,-0.459290,0.569702,-0.651061,-94.380963,-21.618866,-122.308461
27715,NaN,3.579289,-9.109834,-0.683426,0.032376,0.024404,-0.001173,0.004573,-0.005547,0.006158,0.201611,-0.459285,0.569702,-0.651038,-94.380158,-21.611275,-122.302323
27716,NaN,3.596713,-9.138846,-0.707843,0.009738,0.031443,0.033876,0.014013,0.006239,0.007114,0.201685,-0.459229,0.569685,-0.651068,-94.371339,-21.603732,-122.303479
27717,NaN,3.565831,-9.149281,-0.669286,0.057757,0.036612,0.029455,0.013524,0.006919,0.009625,0.201766,-0.459165,0.569677,-0.651097,-94.362524,-21.594705,-122.305162
27718,NaN,3.631017,-9.137667,-0.610732,0.068747,-0.050824,0.038553,0.013877,0.010756,0.009485,0.201834,-0.459088,0.569671,-0.651135,-94.352721,-21.586003,-122.309203
27719,NaN,3.561112,-9.184871,-0.581461,0.137810,0.000400,0.054555,0.016143,0.016374,0.005424,0.201880,-0.459002,0.569654,-0.651196,-94.340342,-21.579786,-122.316495
27720,NaN,3.575678,-9.202976,-0.572203,0.140860,-0.011254,0.076078,0.013665,0.013035,0.005048,0.201928,-0.458930,0.569641,-0.651243,-94.330224,-21.573717,-122.321725
27721,NaN,3.602216,-9.205168,-0.549180,0.145444,-0.044490,0.086280,0.011771,0.009001,0.005911,0.201986,-0.458871,0.569632,-0.651275,-94.322008,-21.566898,-122.324507
27722,NaN,3.559767,-9.208476,-0.550737,0.164493,-0.009569,0.073876,0.010604,0.010390,0.003433,0.202029,-0.458816,0.569622,-0.651309,-94.314271,-21.561637,-122.328034
27723,NaN,3.601971,-9.159886,-0.598108,0.090068,-0.029391,0.047661,0.011914,0.015117,0.001332,0.202055,-0.458750,0.569608,-0.651359,-94.304667,-21.557695,-122.334359
27724,NaN,3.574925,-9.180872,-0.592056,0.112408,-0.005523,0.056779,0.009561,0.020148,-0.000565,0.202054,-0.458676,0.569602,-0.651417,-94.295394,-21.555136,-122.343694
27725,NaN,3.542082,-9.111586,-0.598323,0.103820,0.005468,-0.019091,0.014970,0.017757,0.002948,0.202086,-0.458593,0.569585,-0.651481,-94.283415,-21.550382,-122.351714
27726,NaN,3.596055,-9.069988,-0.605505,0.058415,-0.044080,-0.037332,0.011183,0.009693,0.004674,0.202136,-0.458536,0.569576,-0.651513,-94.275485,-21.544379,-122.354866
27727,NaN,3.628628,-9.094087,-0.647730,0.011608,-0.039982,-0.000084,0.013865,0.010750,0.009489,0.202205,-0.458459,0.569569,-0.651551,-94.265610,-21.535585,-122.358879
27728,NaN,3.606693,-9.009317,-0.640303,0.004608,-0.050545,-0.087286,0.009920,0.009460,0.016642,0.202292,-0.458370,0.569591,-0.651568,-94.258257,-21.522733,-122.362433
27729,NaN,3.610861,-9.077587,-0.652235,0.007811,-0.030134,-0.021602,0.011883,0.015730,0.022586,0.202386,-0.458241,0.569627,-0.651598,-94.248180,-21.506668,-122.370099
27730,NaN,3.578480,-9.088488,-0.613804,0.055850,-0.024922,-0.026006,0.007957,0.012185,0.026680,0.202493,-0.458117,0.569681,-0.651605,-94.241174,-21.488194,-122.375779
27731,NaN,3.618201,-9.063734,-0.635393,0.008874,-0.052913,-0.032938,0.009336,0.019148,0.031385,0.202600,-0.457954,0.569748,-0.651627,-94.231647,-21.467244,-122.385938
27732,NaN,3.585296,-9.029350,-0.649045,0.002046,-0.031385,-0.075964,0.001723,0.018164,0.038740,0.202715,-0.457782,0.569856,-0.651618,-94.226676,-21.442131,-122.395829
27733,NaN,3.611510,-9.066545,-0.633350,0.008373,-0.054121,-0.032944,0.004042,0.015378,0.043700,0.202861,-0.457603,0.569965,-0.651604,-94.220835,-21.413983,-122.404223
27734,NaN,3.562423,-9.060186,-0.603073,0.053118,-0.037830,-0.058853,-0.001165,0.015489,0.044624,0.202996,-0.457425,0.570093,-0.651574,-94.218033,-21.385393,-122.412732
27735,NaN,3.576697,-9.067805,-0.653504,0.003006,-0.022696,-0.043123,0.001775,0.020386,0.045551,0.203128,-0.457226,0.570218,-0.651563,-94.212350,-21.356398,-122.424274
27736,NaN,3.544975,-9.113158,-0.622505,0.052764,-0.006971,-0.014668,-0.002766,0.019787,0.051464,0.203270,-0.457017,0.570372,-0.651531,-94.209405,-21.324080,-122.435720
27737,NaN,3.567134,-9.117051,-0.600343,0.057368,-0.040210,-0.004499,-0.001391,0.026737,0.056171,0.203411,-0.456770,0.570538,-0.651515,-94.203961,-21.289281,-122.451627
27738,NaN,3.546733,-9.124058,-0.581205,0.081264,-0.037892,-0.006694,-0.004288,0.024062,0.062055,0.203572,-0.456518,0.570725,-0.651478,-94.200781,-21.251089,-122.466161
27739,NaN,3.553438,-9.110301,-0.566642,0.082577,-0.060057,-0.018037,-0.004384,0.024066,0.058307,0.203721,-0.456277,0.570903,-0.651444,-94.197633,-21.214956,-122.480514
27740,NaN,3.562589,-9.130444,-0.558874,0.085628,-0.071729,0.003468,-0.004975,0.018602,0.069152,0.203918,-0.456023,0.571102,-0.651385,-94.195962,-21.172478,-122.492009
27741,NaN,3.544551,-9.103280,-0.624867,0.028918,-0.034465,-0.023817,-0.009342,0.015713,0.079505,0.204149,-0.455753,0.571336,-0.651297,-94.197179,-21.123882,-122.502187
27742,NaN,3.549612,-9.090155,-0.611073,0.030254,-0.056624,-0.035165,-0.010513,0.017092,0.077028,0.204364,-0.455487,0.571570,-0.651210,-94.198906,-21.076840,-122.513105
27743,NaN,3.503953,-9.083792,-0.672966,-0.003901,0.005122,-0.053292,-0.009978,0.018622,0.081332,0.204590,-0.455203,0.571812,-0.651125,-94.199834,-21.027322,-122.525142
27744,NaN,3.481073,-9.114239,-0.628794,0.047424,-0.000704,-0.036167,-0.011277,0.024512,0.081225,0.204796,-0.454902,0.572066,-0.651048,-94.200323,-20.978194,-122.540785
27745,NaN,3.503303,-9.152948,-0.614028,0.053743,-0.023465,0.006843,-0.012000,0.029702,0.082359,0.204990,-0.454580,0.572328,-0.650981,-94.199990,-20.928555,-122.559641
27746,NaN,3.438375,-9.185982,-0.572727,0.124325,0.006278,0.011630,-0.011830,0.035803,0.077782,0.205150,-0.454253,0.572587,-0.650932,-94.198416,-20.881868,-122.582025
27747,NaN,3.446031,-9.206598,-0.565606,0.127348,-0.005404,0.033136,-0.020514,0.031710,0.080279,0.205312,-0.453939,0.572874,-0.650846,-94.202589,-20.833500,-122.602003
27748,NaN,3.478451,-9.172873,-0.556209,0.106136,-0.052042,0.012617,-0.013883,0.034007,0.077960,0.205474,-0.453619,0.573138,-0.650787,-94.202617,-20.786637,-122.623286
27749,NaN,3.375069,-9.196360,-0.577178,0.142785,0.040056,-0.000691,-0.021027,0.030107,0.079736,0.205637,-0.453312,0.573424,-0.650697,-94.207472,-20.738514,-122.642251
27750,NaN,3.401204,-9.223005,-0.621670,0.095957,0.044061,0.036543,-0.018874,0.025096,0.074138,0.205800,-0.453037,0.573686,-0.650607,-94.212382,-20.693462,-122.657911
27751,NaN,3.378834,-9.252966,-0.578334,0.147251,0.038243,0.053680,-0.021078,0.025624,0.069867,0.205944,-0.452773,0.573945,-0.650516,-94.218416,-20.650790,-122.673692
27752,NaN,3.412887,-9.196083,-0.595406,0.098614,-0.000240,0.013834,-0.022234,0.027014,0.067388,0.206072,-0.452514,0.574204,-0.650427,-94.224966,-20.609679,-122.690220
27753,NaN,3.435063,-9.154875,-0.626585,0.048364,-0.017176,-0.014658,-0.021272,0.027889,0.065433,0.206195,-0.452256,0.574456,-0.650345,-94.230715,-20.569637,-122.707184
27754,NaN,3.396859,-9.109929,-0.609816,0.067261,-0.014202,-0.071199,-0.021981,0.033079,0.066570,0.206303,-0.451979,0.574718,-0.650272,-94.235856,-20.529254,-122.727377
27755,NaN,3.408738,-9.141056,-0.635770,0.044544,-0.007280,-0.036156,-0.021616,0.036892,0.066438,0.206402,-0.451689,0.574982,-0.650208,-94.239883,-20.489021,-122.749878
27756,NaN,3.373013,-9.129835,-0.625588,0.065136,0.006160,-0.059833,-0.022107,0.035314,0.065889,0.206502,-0.451407,0.575246,-0.650139,-94.244658,-20.449125,-122.771398
27757,NaN,3.380099,-9.195836,-0.567377,0.123015,-0.021832,0.000302,-0.024083,0.033516,0.069808,0.206616,-0.451120,0.575522,-0.650057,-94.250794,-20.406826,-122.791988
27758,NaN,3.347138,-9.195556,-0.590355,0.117865,0.010218,-0.009825,-0.027073,0.028631,0.068868,0.206733,-0.450856,0.575801,-0.649956,-94.259817,-20.364948,-122.809569
27759,NaN,3.326520,-9.179527,-0.599371,0.114292,0.020719,-0.031317,-0.025326,0.022038,0.066464,0.206867,-0.450618,0.576062,-0.649848,-94.269175,-20.324075,-122.823014
27760,NaN,3.326071,-9.226224,-0.640255,0.089981,0.049175,0.015098,-0.023882,0.024476,0.065064,0.206991,-0.450374,0.576318,-0.649750,-94.277330,-20.284199,-122.837894
27761,NaN,3.321264,-9.205258,-0.667565,0.062267,0.056727,-0.004215,-0.026069,0.025024,0.060788,0.207095,-0.450143,0.576571,-0.649652,-94.286587,-20.246699,-122.852905
27762,NaN,3.372583,-9.223078,-0.658010,0.046063,0.009440,0.029581,-0.022297,0.035299,0.058410,0.207170,-0.449883,0.576818,-0.649590,-94.291677,-20.211091,-122.874077
27763,NaN,3.334483,-9.200544,-0.615529,0.092372,0.004299,-0.007632,-0.025378,0.032692,0.056777,0.207241,-0.449637,0.577068,-0.649515,-94.299007,-20.176214,-122.893574
27764,NaN,3.342613,-9.163795,-0.628071,0.066294,-0.009685,-0.038324,-0.022499,0.039805,0.057045,0.207298,-0.449366,0.577316,-0.649464,-94.303313,-20.141584,-122.917424
27765,NaN,3.355457,-9.194524,-0.654194,0.043556,-0.002796,-0.003282,-0.025546,0.034977,0.052341,0.207347,-0.449126,0.577559,-0.649399,-94.310352,-20.109343,-122.938108
27766,NaN,3.307748,-9.221160,-0.632608,0.089957,0.024060,0.003753,-0.019986,0.040854,0.054381,0.207398,-0.448856,0.577795,-0.649360,-94.313068,-20.076284,-122.962470
27767,NaN,3.275563,-9.243007,-0.629156,0.112194,0.047960,0.012965,-0.019842,0.034132,0.048931,0.207452,-0.448623,0.578010,-0.649312,-94.317091,-20.045956,-122.982480
27768,NaN,3.288983,-9.273508,-0.654994,0.089471,0.054843,0.048011,-0.016542,0.027736,0.045805,0.207520,-0.448416,0.578201,-0.649262,-94.320727,-20.017234,-122.998466
27769,NaN,3.295135,-9.225558,-0.634304,0.089124,0.022276,0.003765,-0.011211,0.023082,0.042521,0.207604,-0.448229,0.578363,-0.649221,-94.322223,-19.990092,-123.011459
27770,NaN,3.221817,-9.249029,-0.633897,0.130604,0.081788,0.000708,-0.009797,0.025574,0.037369,0.207667,-0.448047,0.578511,-0.649195,-94.322591,-19.966097,-123.025740
27771,NaN,3.251909,-9.274455,-0.677097,0.083713,0.085699,0.037923,-0.000928,0.022893,0.029460,0.207732,-0.447886,0.578610,-0.649196,-94.318449,-19.946405,-123.038013
27772,NaN,3.223063,-9.272568,-0.697939,0.078532,0.117753,0.027827,0.005831,0.020741,0.021024,0.207790,-0.447751,0.578665,-0.649221,-94.311133,-19.931539,-123.048600
27773,NaN,3.221492,-9.273203,-0.696746,0.078238,0.117155,0.027837,0.005222,0.021498,0.016028,0.207830,-0.447628,0.578713,-0.649252,-94.303974,-19.919456,-123.059403
27774,NaN,3.243953,-9.265558,-0.640659,0.108647,0.065344,0.024394,0.014969,0.024195,0.008552,0.207858,-0.447508,0.578714,-0.649324,-94.290907,-19.911861,-123.071513
27775,NaN,3.243541,-9.265862,-0.638333,0.108355,0.064748,0.024401,0.016868,0.028245,0.003957,0.207865,-0.447386,0.578704,-0.649415,-94.275871,-19.906956,-123.085861
27776,NaN,3.301183,-9.259381,-0.650595,0.064735,0.025572,0.038829,0.017814,0.029183,-0.001752,0.207852,-0.447276,0.578678,-0.649517,-94.260305,-19.905455,-123.100530
27777,NaN,3.243152,-9.288893,-0.607384,0.135225,0.055412,0.043738,0.017123,0.032205,-0.007433,0.207811,-0.447174,0.578645,-0.649630,-94.244480,-19.907218,-123.116766
27778,NaN,3.259962,-9.283928,-0.623028,0.110823,0.051851,0.045906,0.016389,0.035271,-0.016869,0.207728,-0.447090,0.578597,-0.649758,-94.228700,-19.914605,-123.134454
27779,NaN,3.274115,-9.267909,-0.605778,0.112161,0.029723,0.034519,0.020959,0.038077,-0.019690,0.207639,-0.447000,0.578530,-0.649908,-94.209642,-19.923607,-123.153712
27780,NaN,3.236565,-9.303043,-0.612860,0.132767,0.075165,0.055154,0.022981,0.037635,-0.026666,0.207531,-0.446930,0.578441,-0.650069,-94.189737,-19.936681,-123.172407
27781,NaN,3.308077,-9.302965,-0.584100,0.118188,0.006292,0.077494,0.021854,0.039047,-0.029151,0.207411,-0.446863,0.578351,-0.650234,-94.170096,-19.951116,-123.191843
27782,NaN,3.297568,-9.261067,-0.614136,0.087204,0.024969,0.036691,0.021889,0.038995,-0.025395,0.207301,-0.446786,0.578270,-0.650394,-94.150503,-19.963507,-123.211434
27783,NaN,3.310311,-9.210949,-0.589849,0.086894,-0.007559,-0.007584,0.019814,0.037296,-0.028994,0.207182,-0.446726,0.578185,-0.650549,-94.132378,-19.977765,-123.229826
27784,NaN,3.317505,-9.198163,-0.645295,0.033431,0.018547,-0.013351,0.017736,0.037773,-0.025771,0.207065,-0.446658,0.578115,-0.650694,-94.115411,-19.990310,-123.248669
27785,NaN,3.376524,-9.213629,-0.631017,0.017228,-0.028808,0.020366,0.020788,0.040350,-0.024122,0.206955,-0.446574,0.578041,-0.650853,-94.096007,-20.001897,-123.269143
27786,NaN,3.346547,-9.165731,-0.610408,0.036160,-0.025692,-0.036152,0.019915,0.037148,-0.017726,0.206871,-0.446482,0.577981,-0.650996,-94.077791,-20.009807,-123.287967
27787,NaN,3.395987,-9.207960,-0.642753,-0.007457,-0.032984,0.022516,0.022272,0.044917,-0.014939,0.206781,-0.446355,0.577928,-0.651160,-94.056440,-20.016319,-123.311627
27788,NaN,3.350879,-9.221648,-0.584656,0.064687,-0.024628,0.016056,0.018167,0.043658,-0.011566,0.206694,-0.446226,0.577894,-0.651305,-94.037773,-20.020959,-123.334683
27789,NaN,3.354301,-9.175734,-0.632953,0.009545,-0.008932,-0.022596,0.022806,0.046376,-0.006869,0.206627,-0.446070,0.577858,-0.651465,-94.015687,-20.022902,-123.359583
27790,NaN,3.376253,-9.215790,-0.686767,-0.038988,0.016416,0.025998,0.022138,0.051517,-0.001978,0.206558,-0.445884,0.577841,-0.651630,-93.992965,-20.022360,-123.387832
27791,NaN,3.368519,-9.137452,-0.637098,-0.016784,-0.023495,-0.053333,0.021260,0.048320,0.004419,0.206519,-0.445690,0.577837,-0.651778,-93.971198,-20.017911,-123.414394
27792,NaN,3.425763,-9.131123,-0.647979,-0.060373,-0.062718,-0.038970,0.019594,0.052574,0.011261,0.206484,-0.445465,0.577859,-0.651924,-93.949528,-20.009823,-123.443842
27793,NaN,3.376664,-9.168599,-0.563744,0.039172,-0.062491,-0.026093,0.022792,0.052808,0.021112,0.206489,-0.445207,0.577892,-0.652069,-93.925720,-19.995990,-123.473827
27794,NaN,3.377007,-9.203346,-0.566446,0.040552,-0.052697,0.006792,0.024312,0.055159,0.027229,0.206510,-0.444922,0.577936,-0.652218,-93.900598,-19.978853,-123.505499
27795,NaN,3.351462,-9.212911,-0.617211,0.009531,-0.002111,0.010290,0.021577,0.045711,0.035152,0.206579,-0.444648,0.577997,-0.652329,-93.878785,-19.956696,-123.531729
27796,NaN,3.383206,-9.190371,-0.544496,0.041657,-0.075400,-0.004627,0.024501,0.052720,0.042941,0.206658,-0.444325,0.578073,-0.652456,-93.853872,-19.930459,-123.562541
27797,NaN,3.367622,-9.207502,-0.554658,0.039714,-0.054476,0.006786,0.028122,0.052398,0.039024,0.206734,-0.444011,0.578128,-0.652598,-93.826899,-19.906324,-123.592966
27798,NaN,3.303944,-9.181918,-0.529395,0.081139,-0.026789,-0.040450,0.027635,0.052974,0.049045,0.206840,-0.443667,0.578207,-0.652728,-93.800093,-19.876580,-123.624143
27799,NaN,3.330786,-9.174581,-0.561722,0.032581,-0.033374,-0.036163,0.023685,0.047201,0.053789,0.206969,-0.443331,0.578304,-0.652829,-93.776573,-19.843781,-123.651969
27800,NaN,3.316129,-9.225950,-0.578785,0.032290,-0.002074,0.008148,0.026717,0.049760,0.055449,0.207103,-0.442980,0.578397,-0.652943,-93.750915,-19.810229,-123.681409
27801,NaN,3.263563,-9.184995,-0.539508,0.075345,0.004110,-0.050498,0.026147,0.050451,0.054205,0.207230,-0.442629,0.578489,-0.653058,-93.725354,-19.777291,-123.711184
27802,NaN,3.245437,-9.225233,-0.523864,0.100843,0.016897,-0.019743,0.028302,0.047687,0.051687,0.207361,-0.442294,0.578567,-0.653176,-93.699310,-19.745788,-123.739172
27803,NaN,3.241068,-9.227007,-0.519661,0.100549,0.016310,-0.019739,0.028736,0.049262,0.048492,0.207478,-0.441961,0.578637,-0.653301,-93.672630,-19.716045,-123.767958
27804,NaN,3.223475,-9.267007,-0.503745,0.126042,0.029096,0.011021,0.031896,0.047380,0.044024,0.207592,-0.441645,0.578685,-0.653436,-93.644730,-19.688888,-123.795420
27805,NaN,3.223365,-9.279618,-0.531835,0.099945,0.047014,0.024590,0.029142,0.050863,0.041543,0.207684,-0.441327,0.578740,-0.653574,-93.617618,-19.663150,-123.824870
27806,NaN,3.256430,-9.234238,-0.484370,0.104680,-0.018099,-0.009687,0.027929,0.054559,0.034602,0.207738,-0.441019,0.578787,-0.653722,-93.590681,-19.641614,-123.856295
27807,NaN,3.195918,-9.241751,-0.465662,0.147693,0.019992,-0.023996,0.032337,0.061836,0.030424,0.207768,-0.440693,0.578818,-0.653905,-93.559673,-19.622598,-123.891950
27808,NaN,3.224989,-9.233868,-0.497347,0.099159,0.013395,-0.019720,0.023514,0.060151,0.028373,0.207775,-0.440389,0.578872,-0.654059,-93.534236,-19.604793,-123.926505
27809,NaN,3.209102,-9.273160,-0.481819,0.124613,0.026175,0.011047,0.020378,0.059830,0.026022,0.207770,-0.440095,0.578931,-0.654207,-93.510571,-19.588190,-123.960751
27810,NaN,3.264860,-9.267815,-0.491997,0.081041,-0.013092,0.025353,0.018181,0.062607,0.024783,0.207747,-0.439799,0.578997,-0.654355,-93.487761,-19.572497,-123.996640
27811,NaN,3.190874,-9.256702,-0.482044,0.120755,0.036166,-0.010408,0.023465,0.060151,0.024628,0.207744,-0.439505,0.579042,-0.654514,-93.462303,-19.556674,-124.031008
27812,NaN,3.206889,-9.230257,-0.521997,0.068929,0.040714,-0.027604,0.021713,0.064587,0.012676,0.207683,-0.439233,0.579072,-0.654689,-93.437239,-19.547945,-124.067636
27813,NaN,3.233750,-9.210810,-0.521666,0.046174,0.015609,-0.036905,0.021321,0.060737,0.016571,0.207647,-0.438963,0.579107,-0.654851,-93.413006,-19.536720,-124.102048
27814,NaN,3.244874,-9.195789,-0.503028,0.047586,-0.006475,-0.048340,0.025188,0.068706,0.011148,0.207577,-0.438678,0.579126,-0.655047,-93.385149,-19.528974,-124.141108
27815,NaN,3.291665,-9.183018,-0.552523,-0.025110,-0.016116,-0.041952,0.026107,0.071786,0.012266,0.207505,-0.438379,0.579147,-0.655251,-93.355999,-19.520552,-124.182056
27816,NaN,3.209698,-9.171782,-0.450988,0.093679,-0.011937,-0.085497,0.027486,0.076447,0.010185,0.207414,-0.438069,0.579165,-0.655472,-93.325282,-19.513577,-124.225767
27817,NaN,3.217085,-9.251125,-0.491445,0.070778,0.026642,-0.006120,0.027085,0.072632,0.010325,0.207335,-0.437772,0.579179,-0.655682,-93.295436,-19.506253,-124.267147
27818,NaN,3.206201,-9.244522,-0.527256,0.041400,0.055704,-0.014009,0.023026,0.069184,0.010607,0.207257,-0.437489,0.579204,-0.655873,-93.268755,-19.498756,-124.306454
27819,NaN,3.241999,-9.254673,-0.460048,0.075182,-0.007185,0.003904,0.024105,0.067795,0.009357,0.207183,-0.437213,0.579221,-0.656066,-93.241622,-19.491789,-124.344854
27820,NaN,3.285140,-9.230734,-0.477227,0.028336,-0.035315,-0.003290,0.020731,0.074159,0.012424,0.207091,-0.436912,0.579263,-0.656259,-93.215242,-19.483379,-124.387231
27821,NaN,3.242353,-9.232986,-0.477109,0.047190,-0.000207,-0.015428,0.024757,0.077573,0.012153,0.206999,-0.436595,0.579294,-0.656471,-93.185737,-19.475091,-124.431648
27822,NaN,3.195777,-9.223959,-0.444514,0.091895,0.016440,-0.041132,0.020374,0.083126,0.009650,0.206872,-0.436272,0.579340,-0.656686,-93.157793,-19.468512,-124.479360
27823,NaN,3.297284,-9.250376,-0.455413,0.030757,-0.048234,0.018165,0.015520,0.087099,0.010345,0.206726,-0.435938,0.579407,-0.656894,-93.131689,-19.461515,-124.529485
27824,NaN,3.278833,-9.277797,-0.407151,0.082042,-0.053922,0.035379,0.014323,0.090703,0.010905,0.206567,-0.435593,0.579483,-0.657106,-93.105682,-19.454414,-124.581825
27825,NaN,3.236048,-9.279983,-0.407599,0.100889,-0.018806,0.023251,0.010549,0.093263,0.014102,0.206405,-0.435233,0.579581,-0.657309,-93.081153,-19.445415,-124.635802
27826,NaN,3.277096,-9.278755,-0.399233,0.081470,-0.055083,0.035377,0.004848,0.091896,0.014369,0.206233,-0.434884,0.579697,-0.657492,-93.060315,-19.436327,-124.688966
27827,NaN,3.220063,-9.262717,-0.408526,0.097024,-0.008788,0.001798,0.004106,0.097039,0.015487,0.206051,-0.434514,0.579823,-0.657683,-93.038720,-19.426612,-124.745266
27828,NaN,3.211039,-9.233623,-0.471638,0.040211,0.028407,-0.025421,0.001423,0.098221,0.017431,0.205863,-0.434138,0.579963,-0.657866,-93.018558,-19.415927,-124.802352
27829,NaN,3.310339,-9.282795,-0.456875,0.006499,-0.044445,0.053180,0.002192,0.105839,0.009651,0.205632,-0.433758,0.580091,-0.658077,-92.996368,-19.409775,-124.863790
27830,NaN,3.205365,-9.279754,-0.412471,0.094472,0.010977,0.013262,0.002955,0.111073,0.017596,0.205411,-0.433337,0.580239,-0.658292,-92.972756,-19.399337,-124.928664
27831,NaN,3.206497,-9.257648,-0.434521,0.066745,0.018536,-0.006073,0.006148,0.109166,0.013167,0.205189,-0.432932,0.580364,-0.658517,-92.947614,-19.391224,-124.992217
27832,NaN,3.203704,-9.224215,-0.423899,0.064885,0.007652,-0.038983,0.010880,0.107394,0.011809,0.204977,-0.432532,0.580470,-0.658753,-92.920285,-19.383935,-125.054663
27833,NaN,3.159084,-9.248877,-0.398532,0.111135,0.034652,-0.031746,0.007675,0.109307,0.008736,0.204744,-0.432137,0.580581,-0.658987,-92.894303,-19.378305,-125.118153
27834,NaN,3.133004,-9.246485,-0.417178,0.105862,0.066753,-0.041732,0.009481,0.102749,0.006386,0.204525,-0.431769,0.580674,-0.659213,-92.868781,-19.373932,-125.177604
27835,NaN,3.230667,-9.318085,-0.375239,0.099572,-0.014266,0.056183,0.009277,0.094490,0.004160,0.204323,-0.431435,0.580754,-0.659424,-92.844921,-19.370442,-125.231958
27836,NaN,3.141568,-9.325861,-0.454475,0.082586,0.104658,0.037689,0.008800,0.092928,0.003604,0.204121,-0.431108,0.580834,-0.659631,-92.821802,-19.367335,-125.285362
27837,NaN,3.211540,-9.304414,-0.448899,0.040721,0.043826,0.040436,0.005654,0.092574,0.004974,0.203919,-0.430781,0.580926,-0.659826,-92.800402,-19.363282,-125.338572
27838,NaN,3.285887,-9.350683,-0.455769,0.002043,0.003594,0.109008,0.004399,0.111147,0.001918,0.203650,-0.430403,0.581034,-0.660060,-92.776164,-19.361609,-125.402973
27839,NaN,3.202786,-9.282178,-0.376393,0.091818,0.005805,0.013292,0.004493,0.119310,0.007916,0.203378,-0.429980,0.581163,-0.660306,-92.750032,-19.356567,-125.472482
27840,NaN,3.289261,-9.240895,-0.282343,0.106696,-0.124561,-0.001154,0.004498,0.119307,0.004168,0.203092,-0.429569,0.581284,-0.660555,-92.724085,-19.353775,-125.541893
27841,NaN,3.251558,-9.254083,-0.315740,0.099667,-0.070978,0.000335,0.000547,0.124053,0.010400,0.202805,-0.429126,0.581436,-0.660797,-92.699247,-19.347382,-125.614342
27842,NaN,3.169412,-9.235190,-0.348915,0.110220,0.008045,-0.043172,-0.008045,0.115636,0.014062,0.202536,-0.428711,0.581615,-0.660992,-92.681147,-19.338774,-125.681801
27843,NaN,3.264175,-9.216657,-0.320310,0.073384,-0.085464,-0.030484,-0.006765,0.122481,0.011309,0.202241,-0.428278,0.581791,-0.661208,-92.660826,-19.331769,-125.753310
27844,NaN,3.270085,-9.262228,-0.355914,0.048822,-0.057320,0.016012,-0.016493,0.128124,0.017048,0.201927,-0.427821,0.582017,-0.661401,-92.645053,-19.321742,-125.828414
27845,NaN,3.210245,-9.268840,-0.341393,0.091759,-0.019102,0.001834,-0.023824,0.136963,0.026994,0.201605,-0.427312,0.582297,-0.661582,-92.631484,-19.306103,-125.909132
27846,NaN,3.215378,-9.242689,-0.292356,0.119058,-0.059566,-0.023219,-0.026809,0.134416,0.021533,0.201265,-0.426831,0.582573,-0.661753,-92.620359,-19.293642,-125.988159
27847,NaN,3.216280,-9.220720,-0.316605,0.091327,-0.051999,-0.042563,-0.029460,0.133336,0.024149,0.200933,-0.426347,0.582861,-0.661912,-92.610812,-19.279505,-126.066578
27848,NaN,3.182409,-9.189092,-0.405358,0.029470,0.017857,-0.079740,-0.037767,0.128656,0.031403,0.200619,-0.425867,0.583188,-0.662029,-92.607073,-19.261221,-126.142367
27849,NaN,3.277662,-9.205030,-0.384824,-0.005786,-0.065387,-0.034169,-0.038873,0.130013,0.028895,0.200291,-0.425389,0.583513,-0.662148,-92.603590,-19.244268,-126.218883
27850,NaN,3.242795,-9.158090,-0.368662,0.013219,-0.061967,-0.090639,-0.038780,0.135889,0.035604,0.199967,-0.424873,0.583859,-0.662272,-92.599000,-19.223759,-126.299153
27851,NaN,3.149489,-9.189019,-0.426817,0.023531,0.048836,-0.089695,-0.039626,0.128272,0.039618,0.199679,-0.424371,0.584207,-0.662374,-92.596257,-19.200614,-126.374887
27852,NaN,3.218425,-9.202582,-0.429600,-0.016707,-0.001739,-0.054098,-0.044024,0.131489,0.041511,0.199376,-0.423857,0.584578,-0.662467,-92.595563,-19.176602,-126.452629
27853,NaN,3.226525,-9.188289,-0.414378,-0.015292,-0.023782,-0.065584,-0.042909,0.138218,0.046299,0.199074,-0.423305,0.584961,-0.662573,-92.592731,-19.149886,-126.534549
27854,NaN,3.221355,-9.227464,-0.493526,-0.069046,0.033931,-0.026939,-0.051921,0.151380,0.048000,0.198717,-0.422714,0.585391,-0.662678,-92.592629,-19.122672,-126.624494
27855,NaN,3.261451,-9.208210,-0.307900,0.047435,-0.116798,-0.039914,-0.033189,0.163671,0.045370,0.198357,-0.422070,0.585764,-0.662866,-92.579273,-19.097134,-126.721776
27856,NaN,3.116453,-9.161743,-0.326355,0.099626,-0.009166,-0.130420,-0.032937,0.154679,0.048140,0.198032,-0.421448,0.586134,-0.663033,-92.567730,-19.069896,-126.813684
27857,NaN,3.084751,-9.182823,-0.321786,0.121693,0.014824,-0.121018,-0.016885,0.137002,0.038951,0.197763,-0.420894,0.586412,-0.663218,-92.550457,-19.047307,-126.894599
27858,NaN,3.023086,-9.189688,-0.308829,0.164633,0.053105,-0.135143,-0.023630,0.111745,0.038560,0.197551,-0.420433,0.586688,-0.663330,-92.542230,-19.024419,-126.960213
27859,NaN,3.121768,-9.255126,-0.397933,0.050033,0.046476,-0.037388,-0.014587,0.100833,0.028695,0.197358,-0.420027,0.586901,-0.663456,-92.530931,-19.006750,-127.018925
27860,NaN,3.096720,-9.286829,-0.426210,0.046246,0.088855,-0.014397,-0.014437,0.098626,0.025631,0.197161,-0.419638,0.587105,-0.663580,-92.520182,-18.990909,-127.076227
27861,NaN,3.089368,-9.276455,-0.392268,0.071788,0.069904,-0.027972,-0.012647,0.092083,0.027039,0.196993,-0.419264,0.587300,-0.663694,-92.509547,-18.973945,-127.129579
27862,NaN,3.109656,-9.283973,-0.439492,0.021484,0.084649,-0.012297,-0.002245,0.096148,0.020491,0.196812,-0.418886,0.587450,-0.663854,-92.492380,-18.960961,-127.185228
27863,NaN,3.106278,-9.250693,-0.429973,0.019613,0.073831,-0.045225,0.004733,0.093903,0.016059,0.196638,-0.418521,0.587566,-0.664033,-92.471554,-18.950296,-127.239375
27864,NaN,3.044543,-9.223002,-0.409607,0.061000,0.101871,-0.092261,0.006793,0.082962,0.015084,0.196496,-0.418193,0.587662,-0.664197,-92.451871,-18.940046,-127.286886
27865,NaN,3.057258,-9.241818,-0.397735,0.063952,0.090099,-0.070818,0.012119,0.072406,0.009040,0.196378,-0.417913,0.587717,-0.664360,-92.431116,-18.932836,-127.327828
27866,NaN,2.995162,-9.270366,-0.358232,0.134283,0.120272,-0.065559,0.013618,0.056302,0.000085,0.196279,-0.417711,0.587732,-0.664502,-92.412897,-18.930495,-127.358809
27867,NaN,3.039322,-9.302896,-0.355112,0.116389,0.094194,-0.020597,0.016758,0.046246,-0.002808,0.196208,-0.417547,0.587721,-0.664636,-92.394724,-18.929411,-127.383611
27868,NaN,3.079725,-9.267548,-0.339236,0.095472,0.047625,-0.041513,0.017485,0.035257,-0.010643,0.196143,-0.417444,0.587681,-0.664756,-92.378509,-18.932691,-127.401584
27869,NaN,3.080878,-9.267260,-0.336617,0.095138,0.047067,-0.041507,0.016611,0.032208,-0.011794,0.196083,-0.417353,0.587638,-0.664868,-92.363248,-18.936401,-127.417665
27870,NaN,3.116069,-9.258278,-0.368165,0.046583,0.040328,-0.037343,0.021094,0.028996,-0.017400,0.196021,-0.417286,0.587565,-0.664993,-92.346247,-18.943393,-127.431684
27871,NaN,3.125851,-9.265011,-0.324550,0.075423,0.010180,-0.029491,0.019787,0.024426,-0.019127,0.195966,-0.417240,0.587488,-0.665105,-92.330749,-18.951109,-127.442876
27872,NaN,3.141161,-9.282883,-0.313246,0.078410,-0.001597,-0.008057,0.021523,0.020138,-0.018404,0.195929,-0.417205,0.587404,-0.665213,-92.315246,-18.958462,-127.451513
27873,NaN,3.165331,-9.289255,-0.359923,0.028057,0.013107,0.007606,0.021520,0.020135,-0.018404,0.195892,-0.417169,0.587318,-0.665322,-92.299588,-18.965658,-127.460132
27874,NaN,3.147995,-9.259206,-0.333907,0.050368,0.005414,-0.027408,0.018799,0.021327,-0.016521,0.195852,-0.417128,0.587248,-0.665422,-92.285393,-18.971957,-127.469539
27875,NaN,3.158934,-9.209351,-0.309869,0.050285,-0.026837,-0.071857,0.021350,0.024577,-0.019779,0.195797,-0.417081,0.587165,-0.665541,-92.268966,-18.980036,-127.480818
27876,NaN,3.221354,-9.237030,-0.324163,0.008305,-0.056045,-0.024852,0.014848,0.026098,-0.014100,0.195742,-0.417021,0.587117,-0.665637,-92.256073,-18.985052,-127.493177
27877,NaN,3.176560,-9.170355,-0.315684,0.024020,-0.041278,-0.102727,0.019892,0.028067,-0.011724,0.195702,-0.416940,0.587059,-0.665751,-92.239726,-18.988593,-127.506766
27878,NaN,3.179961,-9.203881,-0.319658,0.025240,-0.031604,-0.069786,0.012040,0.029511,-0.012908,0.195635,-0.416867,0.587026,-0.665845,-92.227758,-18.992997,-127.521222
27879,NaN,3.216978,-9.228883,-0.357966,-0.021833,-0.028148,-0.032703,0.014878,0.031973,-0.007388,0.195587,-0.416766,0.586997,-0.665947,-92.213478,-18.994137,-127.537280
27880,NaN,3.197374,-9.255682,-0.312516,0.029410,-0.033724,-0.015417,0.014940,0.040119,-0.005122,0.195520,-0.416632,0.586982,-0.666065,-92.197696,-18.994310,-127.558344
27881,NaN,3.184408,-9.237222,-0.318714,0.025795,-0.023054,-0.036845,0.013444,0.037728,-0.003781,0.195464,-0.416503,0.586971,-0.666171,-92.183076,-18.993503,-127.577971
27882,NaN,3.153280,-9.279587,-0.288144,0.075260,-0.007171,-0.008035,0.019029,0.041259,-0.004582,0.195405,-0.416360,0.586944,-0.666302,-92.164723,-18.993381,-127.599737
27883,NaN,3.119788,-9.326094,-0.330323,0.069590,0.056624,0.026528,0.021796,0.035574,-0.001322,0.195381,-0.416222,0.586908,-0.666427,-92.145724,-18.991109,-127.618116
27884,NaN,3.093577,-9.289234,-0.344799,0.062722,0.078538,-0.016317,0.023026,0.028368,-0.013012,0.195340,-0.416142,0.586837,-0.666551,-92.127683,-18.995524,-127.631886
27885,NaN,3.103839,-9.239562,-0.320074,0.062664,0.046315,-0.060780,0.029722,0.028277,-0.010590,0.195323,-0.416048,0.586749,-0.666692,-92.105647,-18.998390,-127.645637
27886,NaN,3.108726,-9.216578,-0.342335,0.034957,0.053887,-0.080136,0.029523,0.026830,-0.018677,0.195281,-0.415984,0.586643,-0.666838,-92.084225,-19.006007,-127.658354
27887,NaN,3.107179,-9.238687,-0.312859,0.062032,0.045208,-0.060771,0.030580,0.027687,-0.020591,0.195234,-0.415921,0.586530,-0.666990,-92.061881,-19.014575,-127.671533
27888,NaN,3.119468,-9.278998,-0.274541,0.092426,0.025295,-0.019982,0.029749,0.026896,-0.026186,0.195167,-0.415878,0.586408,-0.667144,-92.040363,-19.026484,-127.684135
27889,NaN,3.118653,-9.300816,-0.245215,0.119500,0.016616,-0.000616,0.027944,0.023023,-0.029175,0.195100,-0.415858,0.586282,-0.667287,-92.020503,-19.039863,-127.694312
27890,NaN,3.142986,-9.325247,-0.191913,0.151683,-0.024744,0.028644,0.031121,0.025599,-0.034920,0.195010,-0.415843,0.586136,-0.667450,-91.998507,-19.056738,-127.705954
27891,NaN,3.113912,-9.314381,-0.253482,0.117077,0.036954,0.010923,0.026544,0.014775,-0.038290,0.194934,-0.415879,0.585987,-0.667581,-91.981131,-19.075163,-127.710955
27892,NaN,3.121053,-9.290639,-0.276420,0.089369,0.044523,-0.008434,0.025936,0.017686,-0.040247,0.194839,-0.415912,0.585840,-0.667718,-91.963698,-19.094925,-127.717705
27893,NaN,3.149793,-9.292089,-0.249723,0.094109,0.011276,0.001460,0.023192,0.012983,-0.045075,0.194738,-0.415976,0.585686,-0.667842,-91.948636,-19.117196,-127.721492
27894,NaN,3.140468,-9.272442,-0.256023,0.090530,0.021969,-0.019956,0.021949,0.016555,-0.044544,0.194624,-0.416029,0.585542,-0.667969,-91.933732,-19.139393,-127.727481
27895,NaN,3.178728,-9.262461,-0.287527,0.041944,0.015158,-0.015842,0.022060,0.016581,-0.048298,0.194500,-0.416092,0.585389,-0.668100,-91.918616,-19.163575,-127.733397
27896,NaN,3.207926,-9.263672,-0.260919,0.046728,-0.018085,-0.005957,0.022904,0.019619,-0.047149,0.194370,-0.416141,0.585239,-0.668238,-91.902562,-19.187320,-127.741206
27897,NaN,3.197699,-9.300413,-0.247527,0.072003,-0.005324,0.024946,0.018083,0.021340,-0.045897,0.194231,-0.416185,0.585108,-0.668365,-91.888749,-19.210213,-127.750071
27898,NaN,3.243520,-9.297378,-0.238353,0.052664,-0.041700,0.036880,0.015959,0.019617,-0.042066,0.194104,-0.416226,0.584992,-0.668479,-91.876630,-19.231043,-127.757995
27899,NaN,3.208331,-9.331580,-0.249306,0.072852,0.003748,0.057905,0.015255,0.024741,-0.044719,0.193953,-0.416258,0.584877,-0.668603,-91.863738,-19.253322,-127.768960
27900,NaN,3.191881,-9.357155,-0.204298,0.124087,-0.001793,0.075224,0.011257,0.027262,-0.037874,0.193808,-0.416266,0.584792,-0.668714,-91.852748,-19.271890,-127.781615
27901,NaN,3.206855,-9.340239,-0.187352,0.125556,-0.023792,0.063687,0.009186,0.030031,-0.042941,0.193635,-0.416281,0.584706,-0.668831,-91.842249,-19.293242,-127.795836
27902,NaN,3.230943,-9.312123,-0.228472,0.073729,-0.019365,0.046370,0.008943,0.029970,-0.035430,0.193485,-0.416275,0.584637,-0.668938,-91.832013,-19.310457,-127.810192
27903,NaN,3.217358,-9.315308,-0.210040,0.097519,-0.016789,0.044324,0.001187,0.029170,-0.035950,0.193321,-0.416279,0.584592,-0.669022,-91.826211,-19.327785,-127.824036
27904,NaN,3.230174,-9.208227,-0.207433,0.068685,-0.051022,-0.052505,0.002637,0.029303,-0.032841,0.193169,-0.416274,0.584548,-0.669107,-91.819696,-19.343501,-127.838045
27905,NaN,3.269569,-9.232425,-0.246487,0.021576,-0.047681,-0.015454,0.000423,0.029800,-0.029707,0.193023,-0.416259,0.584519,-0.669185,-91.814153,-19.357262,-127.852399
27906,NaN,3.235742,-9.206314,-0.205547,0.068065,-0.052129,-0.052506,-0.005033,0.032183,-0.025975,0.192869,-0.416232,0.584518,-0.669247,-91.811401,-19.369096,-127.868292
27907,NaN,3.268906,-9.219281,-0.212969,0.046891,-0.067087,-0.029050,-0.005745,0.037303,-0.028629,0.192692,-0.416194,0.584519,-0.669321,-91.807867,-19.382374,-127.887226
27908,NaN,3.235585,-9.231576,-0.251514,0.039689,-0.013514,-0.027366,-0.008081,0.037773,-0.021742,0.192529,-0.416139,0.584543,-0.669381,-91.805700,-19.391883,-127.906598
27909,NaN,3.234045,-9.253496,-0.225166,0.066761,-0.022189,-0.007996,-0.009360,0.039100,-0.016767,0.192379,-0.416064,0.584582,-0.669437,-91.803790,-19.398400,-127.926853
27910,NaN,3.243378,-9.259805,-0.183807,0.095690,-0.052288,-0.000176,-0.011552,0.041837,-0.018083,0.192210,-0.415987,0.584628,-0.669492,-91.802764,-19.405886,-127.948764
27911,NaN,3.167896,-9.274147,-0.229825,0.107461,0.037122,-0.010379,-0.010822,0.038951,-0.019875,0.192046,-0.415924,0.584666,-0.669546,-91.801735,-19.414178,-127.968871
27912,NaN,3.241939,-9.285516,-0.230755,0.067298,-0.013688,0.024971,-0.014104,0.030447,-0.017081,0.191908,-0.415885,0.584712,-0.669569,-91.804457,-19.420885,-127.983889
27913,NaN,3.226511,-9.289330,-0.214123,0.091086,-0.011096,0.022934,-0.013591,0.029753,-0.015812,0.191779,-0.415843,0.584758,-0.669592,-91.806839,-19.426684,-127.998489
27914,NaN,3.251857,-9.239273,-0.283159,0.011859,0.001426,-0.013771,-0.012980,0.026844,-0.013851,0.191665,-0.415805,0.584804,-0.669608,-91.809622,-19.431477,-128.011380
27915,NaN,3.242062,-9.254506,-0.298599,0.009697,0.022292,-0.002213,-0.013204,0.029029,-0.010789,0.191556,-0.415750,0.584859,-0.669625,-91.811894,-19.434388,-128.025638
27916,NaN,3.301683,-9.247908,-0.308650,-0.033740,-0.017270,0.011708,-0.015102,0.033261,-0.007777,0.191439,-0.415676,0.584931,-0.669642,-91.814555,-19.435820,-128.042543
27917,NaN,3.273355,-9.229466,-0.227736,0.041953,-0.051216,-0.017516,-0.016977,0.047870,-0.006957,0.191280,-0.415550,0.585024,-0.669684,-91.815157,-19.436879,-128.068317
27918,NaN,3.253301,-9.256298,-0.185026,0.093187,-0.056724,-0.000177,-0.019424,0.050548,-0.000766,0.191127,-0.415401,0.585141,-0.669718,-91.816757,-19.434611,-128.095855
27919,NaN,3.213288,-9.253774,-0.119476,0.167055,-0.069226,-0.017835,-0.021841,0.047329,-0.001274,0.190978,-0.415266,0.585262,-0.669739,-91.820218,-19.432407,-128.121409
27920,NaN,3.205842,-9.246799,-0.161254,0.137526,-0.040237,-0.025646,-0.023445,0.036780,0.001559,0.190865,-0.415160,0.585384,-0.669730,-91.826890,-19.428560,-128.140630
27921,NaN,3.180455,-9.300685,-0.167097,0.160923,-0.006055,0.016861,-0.026268,0.023909,-0.001786,0.190774,-0.415108,0.585496,-0.669690,-91.837620,-19.426225,-128.151952
27922,NaN,3.242890,-9.271672,-0.204317,0.090093,-0.037517,0.011388,-0.028363,0.024430,-0.002411,0.190673,-0.415060,0.585615,-0.669645,-91.849632,-19.424430,-128.163598
27923,NaN,3.263435,-9.244594,-0.248923,0.038231,-0.033127,-0.005959,-0.029040,0.022846,0.004519,0.190601,-0.414996,0.585748,-0.669588,-91.862122,-19.418468,-128.174399
27924,NaN,3.266650,-9.222010,-0.276672,0.010533,-0.025570,-0.025336,-0.032176,0.032881,0.003618,0.190487,-0.414905,0.585901,-0.669544,-91.874574,-19.413383,-128.191295
27925,NaN,3.268392,-9.203686,-0.377251,-0.072412,0.029765,-0.038926,-0.030330,0.042665,0.009572,0.190371,-0.414762,0.586067,-0.669520,-91.883772,-19.404904,-128.214231
27926,NaN,3.243428,-9.253645,-0.310219,0.006215,0.016156,-0.002198,-0.035793,0.055400,0.011111,0.190209,-0.414577,0.586269,-0.669504,-91.893710,-19.395959,-128.244950
27927,NaN,3.268208,-9.252377,-0.214378,0.066208,-0.064879,0.001844,-0.037910,0.064040,0.012750,0.190025,-0.414360,0.586488,-0.669499,-91.902930,-19.386074,-128.280926
27928,NaN,3.246444,-9.279831,-0.173268,0.117435,-0.070369,0.019197,-0.042539,0.071678,0.013184,0.189809,-0.414121,0.586731,-0.669495,-91.913450,-19.376262,-128.321568
27929,NaN,3.234287,-9.295836,-0.190326,0.115250,-0.049507,0.030771,-0.043838,0.064856,0.015891,0.189620,-0.413897,0.586977,-0.669471,-91.925891,-19.364606,-128.358103
27930,NaN,3.209369,-9.237128,-0.236170,0.080994,-0.019382,-0.031408,-0.046398,0.061598,0.019126,0.189445,-0.413678,0.587236,-0.669429,-91.940626,-19.351214,-128.392747
27931,NaN,3.204214,-9.207779,-0.305169,0.024003,0.017698,-0.058589,-0.043671,0.060403,0.017273,0.189275,-0.413464,0.587480,-0.669395,-91.953870,-19.338696,-128.426608
27932,NaN,3.167452,-9.221112,-0.346984,0.016722,0.071262,-0.056833,-0.045580,0.056489,0.018018,0.189113,-0.413265,0.587729,-0.669346,-91.969183,-19.325854,-128.458130
27933,NaN,3.173436,-9.228601,-0.308357,0.045629,0.041185,-0.049026,-0.045967,0.057208,0.013000,0.188933,-0.413077,0.587968,-0.669302,-91.984428,-19.315735,-128.489965
27934,NaN,3.210176,-9.249901,-0.276978,0.053736,-0.003353,-0.017805,-0.035303,0.060518,0.015369,0.188771,-0.412862,0.588181,-0.669294,-91.993074,-19.304504,-128.523878
27935,NaN,3.237050,-9.230247,-0.279858,0.031126,-0.028501,-0.027368,-0.036458,0.053741,0.014309,0.188625,-0.412672,0.588388,-0.669269,-92.003568,-19.293576,-128.553636
27936,NaN,3.161027,-9.184731,-0.274747,0.069235,0.011183,-0.095592,-0.029753,0.045565,0.014508,0.188516,-0.412505,0.588566,-0.669247,-92.012049,-19.282548,-128.578459
27937,NaN,3.201316,-9.183389,-0.268519,0.049906,-0.025252,-0.083760,-0.026933,0.031806,0.015494,0.188458,-0.412376,0.588723,-0.669204,-92.021480,-19.270509,-128.594936
27938,NaN,3.171866,-9.203836,-0.268642,0.071867,-0.001204,-0.074190,-0.021263,0.014661,0.015309,0.188460,-0.412301,0.588845,-0.669143,-92.031286,-19.258404,-128.601031
27939,NaN,3.155208,-9.246351,-0.332859,0.041817,0.059288,-0.037418,-0.015984,0.006366,0.012386,0.188489,-0.412257,0.588935,-0.669083,-92.039558,-19.247631,-128.602013
27940,NaN,3.154042,-9.246710,-0.333957,0.041510,0.058738,-0.037414,-0.010535,0.001757,0.013117,0.188544,-0.412221,0.589004,-0.669028,-92.045813,-19.236519,-128.600237
27941,NaN,3.207905,-9.263649,-0.318467,0.025459,0.010997,-0.004197,-0.014720,0.002806,0.011852,0.188585,-0.412189,0.589086,-0.668965,-92.054076,-19.225977,-128.599051
27942,NaN,3.179487,-9.280207,-0.244794,0.102660,-0.012686,-0.000419,-0.006742,0.009553,0.011650,0.188619,-0.412128,0.589147,-0.668939,-92.056610,-19.215866,-128.601974
27943,NaN,3.165114,-9.262206,-0.254335,0.099036,-0.001942,-0.021810,-0.010488,0.004011,0.008681,0.188655,-0.412097,0.589208,-0.668893,-92.062229,-19.207164,-128.601452
27944,NaN,3.168001,-9.239696,-0.281098,0.071334,0.005616,-0.041192,-0.013870,-0.002271,0.010732,0.188706,-0.412086,0.589280,-0.668823,-92.071212,-19.197334,-128.597187
27945,NaN,3.197705,-9.253811,-0.290295,0.050143,-0.009430,-0.017790,-0.015963,-0.001746,0.010099,0.188752,-0.412075,0.589358,-0.668748,-92.081103,-19.187700,-128.593208
27946,NaN,3.245661,-9.259598,-0.243200,0.060135,-0.075389,0.001808,-0.018006,0.001035,0.005030,0.188766,-0.412073,0.589435,-0.668678,-92.091836,-19.181202,-128.590825
27947,NaN,3.161914,-9.263133,-0.260318,0.097732,-0.004140,-0.021798,-0.023507,0.003385,0.008738,0.188777,-0.412056,0.589539,-0.668593,-92.105034,-19.172453,-128.589931
27948,NaN,3.178597,-9.258783,-0.278766,0.073307,-0.007886,-0.019791,-0.015258,-0.000142,0.003177,0.188794,-0.412061,0.589602,-0.668529,-92.114439,-19.166991,-128.586796
27949,NaN,3.138540,-9.298035,-0.367753,0.038056,0.085271,0.007211,-0.022608,0.000566,0.003181,0.188796,-0.412069,0.589690,-0.668447,-92.127720,-19.161363,-128.584072
27950,NaN,3.188261,-9.247034,-0.339999,0.019260,0.017314,-0.025575,-0.018908,0.010576,0.001036,0.188767,-0.412048,0.589771,-0.668397,-92.137099,-19.157354,-128.587388
27951,NaN,3.211371,-9.306432,-0.297892,0.052858,-0.013955,0.036594,-0.019517,0.013483,-0.000912,0.188724,-0.412022,0.589852,-0.668353,-92.146070,-19.154344,-128.592402
27952,NaN,3.207646,-9.329183,-0.273727,0.079947,-0.022610,0.055983,-0.022366,0.016868,0.000261,0.188667,-0.411985,0.589948,-0.668307,-92.156184,-19.150915,-128.599516
27953,NaN,3.179547,-9.349127,-0.273833,0.101834,0.001437,0.065587,-0.018693,0.016512,0.000260,0.188620,-0.411945,0.590032,-0.668271,-92.164071,-19.147300,-128.606394
27954,NaN,3.196810,-9.344578,-0.291743,0.077405,-0.002322,0.067589,-0.018695,0.016511,0.000260,0.188571,-0.411906,0.590116,-0.668235,-92.172154,-19.143866,-128.613292
27955,NaN,3.191632,-9.276932,-0.280148,0.074273,-0.023056,0.001609,-0.021764,0.013955,0.002209,0.188533,-0.411871,0.590211,-0.668183,-92.182293,-19.139080,-128.618665
27956,NaN,3.187979,-9.246830,-0.348079,0.017291,0.013993,-0.025566,-0.017000,0.018098,0.007721,0.188508,-0.411803,0.590306,-0.668148,-92.189034,-19.131411,-128.626698
27957,NaN,3.156994,-9.233081,-0.341263,0.037785,0.027960,-0.048946,-0.015022,0.016154,0.000261,0.188470,-0.411760,0.590377,-0.668122,-92.194889,-19.127791,-128.633359
27958,NaN,3.156985,-9.233046,-0.342290,0.037478,0.027411,-0.048943,-0.016923,0.012254,0.000988,0.188440,-0.411732,0.590453,-0.668081,-92.202797,-19.123849,-128.637696
27959,NaN,3.128984,-9.252964,-0.341902,0.059355,0.051465,-0.039325,-0.009421,0.011596,-0.002766,0.188416,-0.411708,0.590495,-0.668066,-92.206372,-19.121862,-128.641525
27960,NaN,3.114773,-9.291110,-0.332254,0.084547,0.064211,-0.008318,-0.008004,0.008089,-0.007059,0.188390,-0.411709,0.590520,-0.668050,-92.210059,-19.122436,-128.643150
27961,NaN,3.140058,-9.293627,-0.308224,0.089361,0.030949,0.001462,-0.003930,0.005623,-0.013886,0.188359,-0.411733,0.590515,-0.668049,-92.211758,-19.126682,-128.643100
27962,NaN,3.147831,-9.304093,-0.340776,0.063037,0.048574,0.015068,-0.007165,-0.000611,-0.015601,0.188332,-0.411787,0.590511,-0.668027,-92.216757,-19.131954,-128.639252
27963,NaN,3.178016,-9.280029,-0.269408,0.095768,-0.024255,-0.000371,-0.006438,0.004631,-0.015106,0.188294,-0.411820,0.590511,-0.668017,-92.220099,-19.136874,-128.638571
27964,NaN,3.200589,-9.252109,-0.311955,0.043950,-0.019926,-0.017776,-0.002004,0.001419,-0.016913,0.188267,-0.411866,0.590490,-0.668015,-92.221749,-19.142943,-128.635923
27965,NaN,3.157918,-9.219480,-0.313293,0.061171,0.005381,-0.062526,-0.002665,0.002065,-0.014426,0.188247,-0.411902,0.590476,-0.668011,-92.223433,-19.147416,-128.633703
27966,NaN,3.165698,-9.229927,-0.345913,0.034844,0.022999,-0.048922,-0.007481,-0.004342,-0.015508,0.188230,-0.411969,0.590470,-0.667979,-92.229356,-19.152552,-128.627595
27967,NaN,3.151169,-9.177259,-0.348899,0.029849,0.023701,-0.103298,-0.002732,-0.003825,-0.017407,0.188217,-0.412034,0.590445,-0.667965,-92.232273,-19.158600,-128.621734
27968,NaN,3.151782,-9.233298,-0.330108,0.058305,0.025121,-0.050901,-0.001100,-0.001392,-0.022473,0.188182,-0.412105,0.590406,-0.667965,-92.234009,-19.167788,-128.617248
27969,NaN,3.111135,-9.290968,-0.318906,0.105650,0.062472,-0.010244,0.000169,-0.004948,-0.023014,0.188160,-0.412187,0.590359,-0.667963,-92.235533,-19.177019,-128.610573
27970,NaN,3.113521,-9.290167,-0.318973,0.105341,0.061924,-0.010238,0.001388,-0.004032,-0.028666,0.188116,-0.412283,0.590297,-0.667971,-92.236420,-19.189694,-128.604340
27971,NaN,3.127167,-9.273730,-0.303703,0.106895,0.039985,-0.021852,-0.000773,-0.009402,-0.032280,0.188075,-0.412408,0.590229,-0.667965,-92.239446,-19.204128,-128.594743
27972,NaN,3.202700,-9.284593,-0.304310,0.066807,-0.011064,0.013247,-0.004058,-0.011171,-0.039106,0.188006,-0.412564,0.590157,-0.667952,-92.244962,-19.222619,-128.583931
27973,NaN,3.234026,-9.263371,-0.306372,0.044249,-0.036238,0.003603,-0.007722,-0.007195,-0.031691,0.187945,-0.412687,0.590115,-0.667930,-92.251530,-19.236763,-128.575682
27974,NaN,3.292918,-9.222217,-0.309695,-0.000464,-0.086025,-0.015692,-0.006289,-0.007071,-0.028571,0.187896,-0.412800,0.590076,-0.667908,-92.257430,-19.249313,-128.567602
27975,NaN,3.309770,-9.182986,-0.320784,-0.026286,-0.099871,-0.046723,-0.011635,-0.001057,-0.021202,0.187844,-0.412875,0.590075,-0.667877,-92.264933,-19.257589,-128.563322
27976,NaN,3.300571,-9.197861,-0.337367,-0.028502,-0.079043,-0.035102,-0.014987,0.006649,-0.013879,0.187785,-0.412907,0.590108,-0.667845,-92.272959,-19.262037,-128.563910
27977,NaN,3.284324,-9.202061,-0.321840,-0.004731,-0.076364,-0.037083,-0.015383,0.008763,-0.007052,0.187743,-0.412911,0.590158,-0.667810,-92.280533,-19.262438,-128.565924
27978,NaN,3.225873,-9.208298,-0.314131,0.038011,-0.037725,-0.050780,-0.017670,0.006973,0.000500,0.187725,-0.412902,0.590231,-0.667757,-92.289917,-19.258661,-128.567056
27979,NaN,3.213828,-9.280487,-0.312138,0.064482,-0.014950,0.013257,-0.021598,0.009480,0.003575,0.187705,-0.412878,0.590324,-0.667695,-92.300823,-19.252997,-128.569763
27980,NaN,3.185954,-9.297215,-0.239657,0.141722,-0.038490,0.017083,-0.024150,0.006222,0.006786,0.187697,-0.412859,0.590430,-0.667615,-92.314019,-19.245604,-128.570594
27981,NaN,3.153296,-9.343688,-0.288147,0.135599,0.025089,0.051987,-0.022995,0.001251,-0.001850,0.187679,-0.412880,0.590509,-0.667537,-92.327412,-19.242855,-128.568180
27982,NaN,3.194813,-9.341840,-0.282682,0.116369,-0.011421,0.063701,-0.026412,0.003061,0.002491,0.187662,-0.412886,0.590611,-0.667448,-92.342569,-19.237848,-128.566993
27983,NaN,3.239838,-9.317145,-0.303009,0.069707,-0.039847,0.056007,-0.030956,0.008473,0.003625,0.187625,-0.412874,0.590734,-0.667357,-92.359032,-19.232132,-128.569095
27984,NaN,3.250356,-9.301697,-0.289982,0.071329,-0.061777,0.044369,-0.030340,0.015926,0.003448,0.187564,-0.412838,0.590863,-0.667282,-92.373863,-19.226880,-128.575734
27985,NaN,3.257334,-9.255928,-0.343454,0.016201,-0.046151,0.005560,-0.034522,0.020587,0.009602,0.187504,-0.412772,0.591022,-0.667199,-92.389899,-19.218032,-128.585335
27986,NaN,3.336645,-9.218906,-0.323882,-0.023272,-0.128670,-0.004057,-0.036712,0.026937,0.015712,0.187439,-0.412669,0.591208,-0.667116,-92.406082,-19.206027,-128.598963
27987,NaN,3.253017,-9.166203,-0.360632,-0.014519,-0.059233,-0.079870,-0.038083,0.036315,0.023003,0.187369,-0.412513,0.591421,-0.667043,-92.420913,-19.189894,-128.618443
27988,NaN,3.242420,-9.216196,-0.385154,-0.015420,-0.028384,-0.035221,-0.040329,0.040390,0.033544,0.187316,-0.412316,0.591668,-0.666960,-92.436345,-19.168016,-128.640688
27989,NaN,3.204942,-9.226395,-0.354372,0.032460,-0.022432,-0.039150,-0.042026,0.042416,0.033503,0.187256,-0.412113,0.591922,-0.666878,-92.452145,-19.146032,-128.664140
27990,NaN,3.180888,-9.254944,-0.314736,0.083657,-0.027819,-0.021706,-0.041729,0.046132,0.033422,0.187182,-0.411899,0.592179,-0.666803,-92.467253,-19.124376,-128.689867
27991,NaN,3.193947,-9.308024,-0.314949,0.087904,-0.029695,0.032677,-0.041231,0.045423,0.034689,0.187118,-0.411681,0.592435,-0.666728,-92.482005,-19.101799,-128.715178
27992,NaN,3.125118,-9.307708,-0.349559,0.101289,0.038446,0.011275,-0.039557,0.043376,0.034734,0.187062,-0.411469,0.592685,-0.666653,-92.496421,-19.079336,-128.739275
27993,NaN,3.163534,-9.307007,-0.344032,0.082025,0.001916,0.022960,-0.040845,0.046914,0.035286,0.186996,-0.411245,0.592942,-0.666581,-92.510668,-19.056465,-128.765510
27994,NaN,3.180265,-9.337129,-0.369687,0.058923,0.008121,0.057935,-0.043311,0.051787,0.037061,0.186915,-0.411002,0.593216,-0.666509,-92.525569,-19.032893,-128.794767
27995,NaN,3.234515,-9.241351,-0.392751,-0.014489,-0.043622,-0.013871,-0.047466,0.058692,0.038795,0.186812,-0.410733,0.593514,-0.666439,-92.541272,-19.008324,-128.828232
27996,NaN,3.244263,-9.260926,-0.386190,-0.011530,-0.055528,0.007491,-0.048657,0.073966,0.045357,0.186682,-0.410397,0.593844,-0.666389,-92.554817,-18.980583,-128.871143
27997,NaN,3.284364,-9.291498,-0.313973,0.025932,-0.129612,0.046323,-0.052577,0.082306,0.051441,0.186541,-0.410016,0.594206,-0.666339,-92.568723,-18.949397,-128.919244
27998,NaN,3.235583,-9.260886,-0.317187,0.043201,-0.104191,0.001634,-0.053018,0.094713,0.056196,0.186376,-0.409582,0.594592,-0.666309,-92.580643,-18.916005,-128.975002
27999,NaN,3.147513,-9.265626,-0.335300,0.080636,-0.032770,-0.021696,-0.058187,0.098503,0.060499,0.186205,-0.409126,0.595006,-0.666267,-92.594561,-18.880077,-129.033144
28000,NaN,3.114107,-9.290124,-0.409921,0.047081,0.038861,-0.006140,-0.055362,0.095098,0.059326,0.186044,-0.408683,0.595406,-0.666226,-92.607787,-18.844927,-129.089215
28001,NaN,3.119834,-9.276424,-0.396502,0.048670,0.016947,-0.017793,-0.058003,0.096290,0.057429,0.185870,-0.408243,0.595810,-0.666183,-92.622129,-18.810723,-129.145927
28002,NaN,3.130776,-9.330179,-0.396659,0.052934,0.015043,0.036592,-0.056334,0.104570,0.055406,0.185666,-0.407781,0.596214,-0.666162,-92.634167,-18.778091,-129.207610
28003,NaN,3.119357,-9.321061,-0.366215,0.078639,-0.003598,0.022987,-0.051194,0.106569,0.054139,0.185464,-0.407310,0.596598,-0.666162,-92.642703,-18.746062,-129.270436
28004,NaN,3.101565,-9.304033,-0.376484,0.075051,0.007215,0.001628,-0.050149,0.107410,0.052258,0.185253,-0.406842,0.596976,-0.666168,-92.650743,-18.715325,-129.333735
28005,NaN,3.062762,-9.317304,-0.418261,0.067495,0.060747,0.003593,-0.045390,0.093994,0.045023,0.185070,-0.406434,0.597311,-0.666168,-92.658538,-18.688196,-129.388693
28006,NaN,3.015063,-9.286090,-0.420822,0.084750,0.086204,-0.041068,-0.038765,0.088042,0.044537,0.184915,-0.406043,0.597617,-0.666175,-92.663935,-18.661378,-129.440062
28007,NaN,3.013823,-9.320983,-0.428722,0.085683,0.095652,-0.008037,-0.036638,0.079434,0.042828,0.184786,-0.405682,0.597905,-0.666173,-92.669600,-18.635125,-129.486152
28008,NaN,3.047412,-9.343942,-0.395816,0.093855,0.051022,0.023025,-0.028221,0.073746,0.037970,0.184672,-0.405347,0.598149,-0.666189,-92.671818,-18.611692,-129.528691
28009,NaN,3.038122,-9.336925,-0.437157,0.064134,0.079915,0.015281,-0.023892,0.066911,0.032486,0.184572,-0.405047,0.598361,-0.666209,-92.672725,-18.591024,-129.566917
28010,NaN,3.053186,-9.333111,-0.453557,0.039691,0.076087,0.017229,-0.020840,0.063617,0.027560,0.184469,-0.404771,0.598550,-0.666235,-92.672788,-18.573280,-129.603037
28011,NaN,3.017959,-9.286132,-0.439100,0.058864,0.080201,-0.039088,-0.016094,0.058294,0.022678,0.184377,-0.404521,0.598708,-0.666270,-92.670998,-18.557994,-129.635776
28012,NaN,3.035398,-9.313343,-0.388539,0.091155,0.038852,-0.009977,-0.010008,0.061114,0.023296,0.184290,-0.404256,0.598850,-0.666328,-92.665396,-18.542621,-129.670256
28013,NaN,3.035875,-9.256976,-0.406015,0.062105,0.036407,-0.062415,-0.011944,0.055879,0.015868,0.184191,-0.404031,0.598978,-0.666376,-92.661771,-18.531161,-129.701338
28014,NaN,3.010951,-9.253987,-0.430022,0.056541,0.068590,-0.072096,-0.004504,0.047119,0.013565,0.184124,-0.403836,0.599070,-0.666431,-92.655802,-18.520980,-129.727090
28015,NaN,3.053821,-9.286858,-0.427448,0.038585,0.042013,-0.027443,-0.004128,0.042781,0.011140,0.184065,-0.403662,0.599150,-0.666481,-92.650264,-18.511871,-129.750128
28016,NaN,3.057504,-9.263987,-0.451887,0.010878,0.049553,-0.046858,-0.006447,0.037388,0.011213,0.184015,-0.403508,0.599234,-0.666512,-92.647303,-18.502774,-129.769937
28017,NaN,3.067347,-9.249131,-0.435290,0.012481,0.027655,-0.058530,-0.003257,0.037736,0.009981,0.183969,-0.403353,0.599304,-0.666555,-92.642251,-18.494191,-129.789893
28018,NaN,3.084377,-9.244759,-0.450676,-0.011958,0.023820,-0.056594,-0.002969,0.035608,0.006892,0.183917,-0.403216,0.599366,-0.666597,-92.637683,-18.487518,-129.808504
28019,NaN,3.055523,-9.264760,-0.449436,0.009801,0.047916,-0.046849,0.000902,0.030836,0.008253,0.183894,-0.403085,0.599413,-0.666641,-92.631591,-18.479738,-129.824246
28020,NaN,3.061030,-9.273028,-0.407226,0.038834,0.017943,-0.039103,0.003690,0.029682,0.006419,0.183872,-0.402962,0.599446,-0.666691,-92.624350,-18.473176,-129.839264
28021,NaN,3.027699,-9.316176,-0.380600,0.087968,0.033961,-0.009930,0.002880,0.026676,0.005211,0.183855,-0.402853,0.599476,-0.666735,-92.617952,-18.467024,-129.852409
28022,NaN,3.045221,-9.311676,-0.395276,0.063526,0.030122,-0.007995,0.011966,0.028430,0.000255,0.183832,-0.402745,0.599468,-0.666813,-92.606266,-18.463954,-129.866499
28023,NaN,3.040840,-9.334865,-0.368197,0.090528,0.021495,0.011432,0.010568,0.028336,-0.002882,0.183799,-0.402647,0.599458,-0.666891,-92.595218,-18.462472,-129.880420
28024,NaN,3.059184,-9.330114,-0.382508,0.066086,0.017653,0.013363,0.011467,0.027795,-0.009120,0.183747,-0.402570,0.599432,-0.666975,-92.584021,-18.464745,-129.893869
28025,NaN,3.064830,-9.306683,-0.405649,0.038332,0.025186,-0.006057,0.012969,0.030174,-0.010397,0.183688,-0.402486,0.599401,-0.667070,-92.571309,-18.467605,-129.908695
28026,NaN,3.074112,-9.257505,-0.380710,0.038723,-0.006660,-0.050774,0.012563,0.028669,-0.011000,0.183628,-0.402411,0.599368,-0.667161,-92.559331,-18.470972,-129.922623
28027,NaN,3.064606,-9.272383,-0.394827,0.036356,0.014138,-0.039087,0.007273,0.028847,-0.010425,0.183562,-0.402337,0.599354,-0.667237,-92.550135,-18.473808,-129.936648
28031,NaN,3.074002,-9.302838,-0.364981,0.059010,-0.001001,-0.008504,0.009435,0.027446,-0.012570,0.183293,-0.402082,0.599249,-0.667558,-92.510366,-18.490712,-129.989255
28032,NaN,3.066399,-9.293769,-0.361264,0.061977,0.003346,-0.019649,0.007859,0.024587,-0.016601,0.183223,-0.402038,0.599216,-0.667634,-92.501376,-18.496655,-130.000511
28174,NaN,3.169183,-9.276107,-0.143792,0.076735,0.042616,-0.010738,0.031719,0.010153,-0.020457,0.183591,-0.401515,0.580228,-0.684409,-89.741916,-19.666953,-130.387892
28202,NaN,3.343656,-9.219968,0.123283,0.049599,-0.005115,-0.004626,0.028166,0.002751,-0.056633,0.180797,-0.404970,0.574518,-0.687925,-89.274889,-20.452868,-130.348726
28203,NaN,3.412259,-9.253048,0.218019,0.099757,-0.035276,0.051326,0.030626,0.005126,-0.030842,0.180814,-0.404988,0.574354,-0.688046,-89.253708,-20.462758,-130.348475
28253,NaN,3.331939,-9.213423,0.180462,0.053323,-0.009828,-0.013872,0.000908,0.013831,0.029485,0.185882,-0.398327,0.578056,-0.687485,-89.126574,-19.438052,-130.590876
28254,NaN,3.253981,-9.279458,0.193480,0.050275,-0.022008,0.022512,-0.049733,0.049157,0.057384,0.185948,-0.397992,0.578378,-0.687390,-89.139698,-19.393519,-130.616213
28260,NaN,3.235146,-9.285387,0.210751,0.069604,-0.043570,0.022052,-0.059204,0.068738,0.066555,0.185648,-0.395747,0.580804,-0.686721,-89.266093,-19.140502,-130.843264
28261,NaN,3.131755,-9.362426,0.213352,0.142816,0.019471,0.060896,-0.069672,0.079295,0.069419,0.185565,-0.395331,0.581258,-0.686599,-89.290294,-19.095645,-130.887526
28262,NaN,3.140002,-9.326402,0.198503,0.117545,0.005778,0.029413,-0.071189,0.077529,0.061952,0.185450,-0.394951,0.581701,-0.686473,-89.316582,-19.056115,-130.930766
28266,NaN,3.177048,-9.293277,0.143430,0.044266,-0.012804,0.009584,-0.077780,0.081679,0.060847,0.184874,-0.393407,0.583571,-0.685929,-89.433555,-18.900336,-131.113956
28267,NaN,3.140191,-9.260217,0.154365,0.065905,-0.023204,-0.033558,-0.077626,0.090589,0.061934,0.184713,-0.392983,0.584046,-0.685810,-89.460604,-18.860261,-131.165127
28268,NaN,3.055909,-9.301196,0.124499,0.103436,0.058650,-0.022275,-0.078022,0.085346,0.057749,0.184547,-0.392593,0.584511,-0.685682,-89.489418,-18.823220,-131.213187
28270,NaN,3.105041,-9.294009,0.091838,0.045652,0.032627,-0.013445,-0.068870,0.081813,0.052209,0.184235,-0.391852,0.585348,-0.685476,-89.537748,-18.755287,-131.305080
28274,NaN,3.032600,-9.244332,0.091781,0.079991,0.054066,-0.083690,-0.058336,0.058583,0.037432,0.183760,-0.390822,0.586675,-0.685056,-89.628685,-18.654180,-131.433025
28275,NaN,3.059048,-9.324350,0.092230,0.080125,0.039691,0.000660,-0.056726,0.036705,0.027004,0.183678,-0.390666,0.586960,-0.684924,-89.654317,-18.634463,-131.451767
28276,NaN,3.046717,-9.223380,0.105168,0.077237,0.010628,-0.098872,-0.042959,0.042484,0.024095,0.183590,-0.390489,0.587198,-0.684844,-89.671430,-18.616997,-131.474098
28277,NaN,2.986919,-9.438628,0.089863,0.148622,0.110916,0.085952,-0.054394,0.024472,0.021872,0.183528,-0.390388,0.587454,-0.684699,-89.698329,-18.600571,-131.485526
28278,NaN,3.085016,-9.312589,0.122844,0.087098,-0.015816,-0.002035,-0.046076,0.015071,0.017451,0.183492,-0.390327,0.587664,-0.684563,-89.722514,-18.587009,-131.491317
28279,NaN,3.059632,-9.338746,0.045741,0.052258,0.055080,0.014309,-0.050949,0.013076,0.014868,0.183446,-0.390284,0.587884,-0.684411,-89.749628,-18.574633,-131.495883
28280,NaN,3.103318,-9.342227,-0.020749,-0.022691,0.064739,0.031270,-0.043280,0.021894,0.014180,0.183383,-0.390206,0.588085,-0.684300,-89.770894,-18.562934,-131.505817
28281,NaN,3.081753,-9.285438,0.044052,0.029007,0.019715,-0.029167,-0.049147,0.032933,0.011122,0.183270,-0.390104,0.588309,-0.684195,-89.793155,-18.552663,-131.522401
28282,NaN,3.094028,-9.303674,0.050892,0.031921,0.007553,-0.007950,-0.044973,0.032574,0.003759,0.183137,-0.390022,0.588505,-0.684109,-89.813330,-18.546920,-131.538820
28283,NaN,3.071050,-9.303000,0.136066,0.111790,-0.035935,-0.015653,-0.047431,0.027232,0.007615,0.183032,-0.389948,0.588712,-0.684002,-89.835704,-18.538681,-131.551973
28284,NaN,3.106858,-9.294624,0.101439,0.063311,-0.043774,-0.012332,-0.040953,0.017684,0.007511,0.182964,-0.389902,0.588887,-0.683895,-89.856442,-18.530823,-131.559390
28285,NaN,3.061863,-9.263254,0.093400,0.080547,-0.017355,-0.056417,-0.039002,0.011326,0.009034,0.182926,-0.389871,0.589053,-0.683780,-89.877042,-18.521801,-131.562934
28286,NaN,3.010380,-9.281714,0.063544,0.096293,0.039723,-0.055342,-0.043624,-0.003024,0.009359,0.182920,-0.389893,0.589223,-0.683623,-89.903284,-18.512913,-131.557842
28287,NaN,3.104117,-9.294203,-0.023821,-0.023656,0.030364,-0.013869,-0.035943,-0.002221,0.010201,0.182932,-0.389901,0.589368,-0.683490,-89.924728,-18.503236,-131.553207
28288,NaN,3.066641,-9.303206,0.004081,0.024183,0.037172,-0.017179,-0.032644,-0.004071,0.009740,0.182952,-0.389916,0.589499,-0.683363,-89.944876,-18.494126,-131.547490
28289,NaN,3.111862,-9.278954,-0.014324,-0.021966,0.008162,-0.025843,-0.029730,-0.003753,0.012324,0.182988,-0.389917,0.589626,-0.683243,-89.963051,-18.483231,-131.541936
28290,NaN,3.092562,-9.283650,-0.001166,0.001794,0.011307,-0.027496,-0.022891,0.004241,0.009780,0.183003,-0.389894,0.589732,-0.683161,-89.976016,-18.474092,-131.541247
28291,NaN,3.066725,-9.338154,-0.009197,0.023920,0.045069,0.016016,-0.024987,0.000399,0.014216,0.183043,-0.389872,0.589850,-0.683061,-89.990676,-18.462110,-131.538207
28292,NaN,3.102048,-9.331445,0.072072,0.061344,-0.038499,0.020853,-0.018769,-0.001131,0.016337,0.183103,-0.389844,0.589950,-0.682974,-90.002305,-18.449214,-131.534278
28293,NaN,3.083127,-9.307412,0.018956,0.028015,0.001735,-0.007935,-0.012431,0.003186,0.017650,0.183171,-0.389790,0.590034,-0.682914,-90.009236,-18.435264,-131.532926
28294,NaN,3.062065,-9.339677,-0.014207,0.022883,0.043485,0.016026,-0.020242,-0.003468,0.017616,0.183240,-0.389768,0.590139,-0.682817,-90.022152,-18.421634,-131.527591
28295,NaN,3.085053,-9.286143,-0.009979,-0.000001,0.008656,-0.027494,-0.013662,-0.003499,0.020326,0.183334,-0.389731,0.590226,-0.682738,-90.031061,-18.406149,-131.522208
28296,NaN,3.073366,-9.302646,-0.027175,-0.002731,0.029268,-0.015511,-0.014531,-0.000661,0.022086,0.183421,-0.389681,0.590323,-0.682660,-90.040164,-18.389957,-131.518575
28297,NaN,3.065936,-9.325739,-0.002740,0.024193,0.020754,0.004052,-0.012459,-0.001173,0.022793,0.183519,-0.389627,0.590414,-0.682586,-90.047938,-18.373058,-131.514605
28298,NaN,3.101475,-9.290425,0.012423,0.004613,-0.025716,-0.018270,-0.006361,-0.000534,0.024215,0.183629,-0.389562,0.590487,-0.682530,-90.052332,-18.355645,-131.511055
28299,NaN,3.030427,-9.313434,0.001091,0.044331,0.035035,-0.018794,-0.009400,0.001322,0.020934,0.183719,-0.389502,0.590565,-0.682472,-90.057876,-18.339813,-131.508593
28300,NaN,3.074562,-9.289615,-0.014846,-0.001735,0.006017,-0.027492,-0.003929,0.000452,0.025512,0.183836,-0.389429,0.590634,-0.682423,-90.060685,-18.321657,-131.505643
28301,NaN,3.045639,-9.283153,0.031823,0.048454,-0.008280,-0.042762,-0.001452,-0.005890,0.019532,0.183958,-0.389390,0.590676,-0.682376,-90.063042,-18.306624,-131.498830
28302,NaN,3.047944,-9.290413,0.072858,0.077859,-0.037904,-0.035185,-0.004782,-0.008397,0.025137,0.184097,-0.389348,0.590738,-0.682308,-90.068015,-18.288677,-131.490542
28303,NaN,3.054294,-9.302631,0.040724,0.050979,-0.020993,-0.021555,-0.004400,-0.010563,0.022089,0.184236,-0.389321,0.590791,-0.682241,-90.072939,-18.272174,-131.480914
28304,NaN,3.053296,-9.274292,-0.027204,-0.006378,0.015565,-0.048694,-0.004638,-0.006217,0.020695,0.184354,-0.389285,0.590846,-0.682182,-90.077412,-18.256772,-131.473943
28305,NaN,3.046023,-9.297324,-0.002192,0.020545,0.007056,-0.029128,-0.009521,0.003493,0.020240,0.184435,-0.389220,0.590925,-0.682128,-90.082609,-18.241340,-131.472799
28306,NaN,3.035673,-9.286427,0.028554,0.046724,-0.010900,-0.042756,-0.008048,0.005827,0.018962,0.184505,-0.389151,0.591000,-0.682084,-90.086758,-18.226941,-131.473095
28307,NaN,3.046023,-9.332258,-0.009229,0.020640,0.015462,0.004070,-0.010070,0.007034,0.009477,0.184538,-0.389106,0.591064,-0.682046,-90.091603,-18.217678,-131.474079
28308,NaN,3.014913,-9.291560,0.043092,0.070097,-0.008256,-0.044388,-0.003873,0.009157,0.015235,0.184594,-0.389033,0.591120,-0.682024,-90.092733,-18.205417,-131.476383
28309,NaN,2.986752,-9.283046,-0.024466,0.034320,0.053104,-0.061163,-0.001398,0.002817,0.009253,0.184655,-0.388995,0.591149,-0.682003,-90.093404,-18.196280,-131.474823
28310,NaN,3.023900,-9.247319,-0.008400,0.014779,0.006641,-0.083521,0.000214,-0.000685,0.005033,0.184713,-0.388981,0.591163,-0.681983,-90.094050,-18.189854,-131.471181
28311,NaN,3.003954,-9.279078,-0.039940,0.009532,0.048356,-0.059524,0.004859,-0.006050,0.004094,0.184795,-0.388983,0.591153,-0.681969,-90.092807,-18.183665,-131.464269
28312,NaN,2.961878,-9.310158,0.017344,0.084667,0.047265,-0.043211,0.009290,-0.010729,-0.001879,0.184877,-0.389016,0.591112,-0.681963,-90.090144,-18.181190,-131.454563
28313,NaN,2.955553,-9.359779,-0.003684,0.082638,0.077306,0.001994,0.011133,-0.018580,-0.004704,0.184978,-0.389081,0.591052,-0.681950,-90.087667,-18.180030,-131.440086
28314,NaN,2.915323,-9.361593,-0.013519,0.100723,0.113283,-0.008824,0.013606,-0.024923,-0.010685,0.185080,-0.389184,0.590967,-0.681938,-90.085204,-18.182590,-131.421812
28315,NaN,2.983214,-9.395370,0.017687,0.088377,0.052907,0.044404,0.017402,-0.031116,-0.013501,0.185201,-0.389312,0.590857,-0.681927,-90.081499,-18.186458,-131.399767
28316,NaN,2.984626,-9.394920,0.018429,0.088049,0.052385,0.044410,0.019487,-0.035298,-0.016433,0.185325,-0.389462,0.590731,-0.681917,-90.077623,-18.192305,-131.375230
28317,NaN,3.073321,-9.367943,0.014120,0.023541,-0.013182,0.046477,0.020446,-0.036650,-0.013858,0.185467,-0.389607,0.590604,-0.681905,-90.073219,-18.196375,-131.349847
28318,NaN,3.061787,-9.349409,0.004976,0.019990,-0.002031,0.025281,0.023505,-0.034158,-0.015720,0.185598,-0.389747,0.590467,-0.681909,-90.066831,-18.201818,-131.325998
28319,NaN,3.067477,-9.355549,0.047948,0.049352,-0.031654,0.032849,0.029339,-0.033535,-0.010557,0.185759,-0.389863,0.590319,-0.681926,-90.056748,-18.204005,-131.302497
28320,NaN,3.062474,-9.376130,-0.038891,-0.009686,0.035428,0.050918,0.033100,-0.032398,-0.006100,0.185937,-0.389961,0.590169,-0.681952,-90.044530,-18.203945,-131.279716
28321,NaN,3.079060,-9.427952,-0.032310,-0.006068,0.032642,0.105318,0.033577,-0.033076,-0.004812,0.186124,-0.390054,0.590019,-0.681977,-90.031932,-18.202851,-131.256494
28322,NaN,3.060819,-9.432260,-0.014199,0.017682,0.035826,0.103700,0.039515,-0.030956,0.004682,0.186347,-0.390109,0.589869,-0.682015,-90.015764,-18.196624,-131.234586
28323,NaN,3.140672,-9.455740,-0.038236,-0.048480,0.000774,0.150944,0.036801,-0.028283,0.010771,0.186580,-0.390137,0.589743,-0.682044,-90.000412,-18.186613,-131.214257
28324,NaN,3.134256,-9.360967,0.023285,-0.021375,-0.057130,0.058892,0.045427,-0.021497,0.021440,0.186843,-0.390104,0.589615,-0.682102,-89.979071,-18.170796,-131.198050
28325,NaN,3.122248,-9.260065,0.043884,-0.024074,-0.085957,-0.040728,0.046354,-0.011833,0.034914,0.187128,-0.389996,0.589518,-0.682169,-89.955147,-18.146963,-131.187629
28326,NaN,3.031035,-9.197364,0.038585,0.010855,-0.032304,-0.128732,0.044783,-0.007647,0.030351,0.187380,-0.389890,0.589422,-0.682244,-89.931569,-18.126045,-131.179757
28327,NaN,2.962403,-9.254360,0.026613,0.051258,0.037939,-0.095916,0.042474,-0.002790,0.028245,0.187608,-0.389774,0.589334,-0.682323,-89.908170,-18.106036,-131.174775
28328,NaN,2.976172,-9.307054,0.035044,0.054933,0.035160,-0.041514,0.039828,0.004918,0.020401,0.187779,-0.389660,0.589247,-0.682417,-89.885075,-18.090812,-131.174472
28329,NaN,2.942690,-9.322367,0.111735,0.132462,0.013002,-0.037171,0.036934,0.008949,0.012673,0.187909,-0.389555,0.589158,-0.682517,-89.862649,-18.079714,-131.176570
28330,NaN,2.961397,-9.290838,0.146975,0.137066,-0.029728,-0.061202,0.038664,0.011278,0.007640,0.188015,-0.389457,0.589057,-0.682632,-89.839029,-18.071792,-131.180107
28331,NaN,2.970949,-9.364156,0.066615,0.081912,0.035034,0.011286,0.031488,0.014165,0.002950,0.188086,-0.389368,0.588972,-0.682735,-89.818745,-18.066253,-131.185357
28332,NaN,3.014825,-9.396072,0.074463,0.063967,0.007406,0.055277,0.026980,0.013692,0.000956,0.188139,-0.389293,0.588900,-0.682826,-89.801367,-18.062154,-131.190357
28333,NaN,3.033024,-9.391859,0.061840,0.039509,0.003141,0.056888,0.028451,0.016020,-0.000332,0.188187,-0.389210,0.588821,-0.682928,-89.782475,-18.058487,-131.196727
28334,NaN,3.035262,-9.335662,0.044661,0.011131,0.001167,0.004097,0.028814,0.017519,0.000253,0.188231,-0.389122,0.588745,-0.683032,-89.763333,-18.054778,-131.204032
28335,NaN,2.988254,-9.269776,0.048816,0.027616,0.018339,-0.073093,0.031277,0.022847,-0.003612,0.188253,-0.389023,0.588657,-0.683158,-89.741546,-18.052970,-131.214523
28336,NaN,2.993196,-9.275903,0.093842,0.057068,-0.011242,-0.065533,0.029696,0.019010,-0.006653,0.188270,-0.388949,0.588565,-0.683275,-89.721615,-18.053209,-131.222743
28337,NaN,2.916567,-9.286053,0.118244,0.123212,0.032231,-0.079502,0.032266,0.010465,-0.011907,0.188302,-0.388916,0.588446,-0.683387,-89.701567,-18.056183,-131.225797
28338,NaN,2.902882,-9.323686,0.131680,0.147718,0.044861,-0.047886,0.032171,0.005277,-0.019861,0.188320,-0.388926,0.588307,-0.683497,-89.682769,-18.064026,-131.225784
28339,NaN,2.899762,-9.345147,0.160592,0.174634,0.036376,-0.028293,0.031827,-0.003587,-0.027691,0.188338,-0.388987,0.588145,-0.683596,-89.665579,-18.076085,-131.220423
28340,NaN,2.952034,-9.353858,0.141963,0.129393,0.016690,-0.003901,0.026834,-0.015093,-0.033064,0.188360,-0.389111,0.587979,-0.683662,-89.653634,-18.091562,-131.208184
28341,NaN,2.969535,-9.343078,0.201451,0.161267,-0.033997,-0.008369,0.032682,-0.021824,-0.035149,0.188409,-0.389255,0.587783,-0.683735,-89.639360,-18.107958,-131.191866
28342,NaN,2.996552,-9.315566,0.161770,0.109581,-0.030293,-0.026353,0.025244,-0.030643,-0.038185,0.188455,-0.389448,0.587598,-0.683771,-89.631240,-18.126431,-131.170277
28343,NaN,3.020403,-9.254102,0.126895,0.057091,-0.036003,-0.077556,0.024248,-0.033647,-0.035603,0.188521,-0.389643,0.587419,-0.683797,-89.624022,-18.143135,-131.146838
28344,NaN,3.048267,-9.316722,0.101505,0.034186,-0.021472,-0.009529,0.020950,-0.031792,-0.035141,0.188573,-0.389835,0.587253,-0.683815,-89.618594,-18.159874,-131.124544
28345,NaN,3.054659,-9.349615,0.096914,0.034546,-0.012612,0.023688,0.017888,-0.034282,-0.033264,0.188636,-0.390031,0.587099,-0.683818,-89.615155,-18.175246,-131.100706
28346,NaN,3.109773,-9.302648,0.170009,0.047402,-0.109221,-0.003270,0.010679,-0.032061,-0.029177,0.188689,-0.390215,0.586980,-0.683800,-89.615681,-18.188570,-131.078224
28347,NaN,3.063698,-9.263864,0.124053,0.034868,-0.053544,-0.054782,0.017375,-0.026249,-0.027314,0.188747,-0.390367,0.586847,-0.683812,-89.611040,-18.200506,-131.059205
28348,NaN,3.007279,-9.269399,0.130010,0.076986,-0.013763,-0.067110,0.009704,-0.030734,-0.031754,0.188786,-0.390555,0.586728,-0.683796,-89.611883,-18.215302,-131.037532
28349,NaN,3.026894,-9.292076,0.067304,0.023483,0.020392,-0.039851,0.007986,-0.025034,-0.028257,0.188820,-0.390714,0.586626,-0.683784,-89.612399,-18.227775,-131.019233
28350,NaN,3.006325,-9.317540,0.108590,0.074535,0.015670,-0.021849,-0.000661,-0.024496,-0.031655,0.188820,-0.390891,0.586548,-0.683749,-89.618014,-18.242490,-131.001318
28351,NaN,3.004738,-9.310417,0.066381,0.044366,0.044185,-0.029396,0.001046,-0.018493,-0.033076,0.188804,-0.391048,0.586466,-0.683734,-89.621276,-18.257695,-130.987003
28352,NaN,3.044397,-9.300902,0.034487,-0.004092,0.036153,-0.026217,0.001173,-0.016337,-0.037529,0.188764,-0.391213,0.586378,-0.683726,-89.624300,-18.275742,-130.974029
28353,NaN,3.049820,-9.243634,0.013537,-0.032491,0.034192,-0.079028,0.001049,-0.014168,-0.038237,0.188718,-0.391370,0.586291,-0.683724,-89.626745,-18.293887,-130.962322
28354,NaN,3.056535,-9.276442,0.007940,-0.032081,0.043047,-0.045806,0.002137,-0.009656,-0.036494,0.188664,-0.391508,0.586208,-0.683731,-89.627962,-18.311316,-130.953371
28355,NaN,3.076292,-9.327178,0.012690,-0.028514,0.040174,0.008594,-0.001158,0.000220,-0.037574,0.188573,-0.391616,0.586142,-0.683750,-89.628953,-18.329030,-130.950331
28356,NaN,3.059131,-9.414763,0.116900,0.080344,0.007837,0.086969,0.006506,0.004712,-0.033140,0.188497,-0.391691,0.586065,-0.683795,-89.624947,-18.344483,-130.950038
28357,NaN,3.099953,-9.377412,0.133030,0.060902,-0.038638,0.064461,0.003088,0.008737,-0.033384,0.188404,-0.391754,0.586001,-0.683839,-89.621894,-18.359762,-130.952131
28358,NaN,3.087782,-9.296798,0.175547,0.085730,-0.075226,-0.015614,0.001498,0.004246,-0.027635,0.188339,-0.391819,0.585951,-0.683863,-89.620853,-18.372064,-130.951536
28359,NaN,3.072236,-9.300192,0.191428,0.109428,-0.071993,-0.017194,-0.000938,0.003246,-0.028920,0.188269,-0.391891,0.585905,-0.683880,-89.621154,-18.384808,-130.950322
28360,NaN,3.037367,-9.335629,0.175920,0.128171,-0.026576,0.005326,-0.000445,-0.001113,-0.031248,0.188203,-0.391986,0.585849,-0.683892,-89.622243,-18.399199,-130.946505
28361,NaN,2.976816,-9.335151,0.139976,0.140399,0.042265,-0.014495,0.001758,-0.003157,-0.038615,0.188125,-0.392107,0.585768,-0.683913,-89.622208,-18.417518,-130.941405
28362,NaN,2.948143,-9.348123,0.098505,0.131837,0.095634,-0.011559,0.002261,-0.011212,-0.044560,0.188048,-0.392273,0.585667,-0.683925,-89.623661,-18.439575,-130.931542
28363,NaN,3.020180,-9.351713,0.061354,0.062468,0.072070,0.014352,0.003000,-0.015590,-0.050633,0.187967,-0.392470,0.585547,-0.683937,-89.625277,-18.464824,-130.919046
28364,NaN,3.079517,-9.337225,0.014470,-0.010057,0.060230,0.019082,0.014570,-0.015142,-0.053444,0.187895,-0.392664,0.585383,-0.683986,-89.620428,-18.491986,-130.906841
28365,NaN,3.061487,-9.333839,-0.010312,-0.016177,0.092492,0.009967,0.017973,-0.015477,-0.049581,0.187847,-0.392843,0.585214,-0.684041,-89.613460,-18.516632,-130.894325
28366,NaN,3.085733,-9.300102,0.022495,-0.011457,0.049805,-0.014140,0.027106,-0.016028,-0.053677,0.187802,-0.393029,0.585006,-0.684125,-89.601607,-18.543933,-130.881589
28367,NaN,3.104079,-9.316217,0.034678,-0.008613,0.037541,0.007033,0.025268,-0.015550,-0.058123,0.187739,-0.393227,0.584795,-0.684209,-89.590471,-18.573482,-130.869098
28368,NaN,3.076033,-9.239081,0.094793,0.040332,0.004785,-0.074621,0.035863,-0.018093,-0.058352,0.187701,-0.393426,0.584545,-0.684318,-89.574002,-18.603475,-130.855143
28369,NaN,3.070342,-9.309428,0.102535,0.065426,0.026733,-0.009731,0.034768,-0.022627,-0.060089,0.187672,-0.393644,0.584291,-0.684418,-89.558797,-18.634185,-130.838354
28370,NaN,3.051719,-9.361914,0.100010,0.087355,0.060416,0.033994,0.037328,-0.027503,-0.061708,0.187652,-0.393883,0.584021,-0.684516,-89.543314,-18.666151,-130.818737
28371,NaN,3.074348,-9.411690,0.107510,0.090893,0.057497,0.088399,0.036102,-0.029870,-0.064153,0.187633,-0.394138,0.583747,-0.684609,-89.528759,-18.699227,-130.797492
28372,NaN,3.031131,-9.428635,0.199045,0.192600,0.039300,0.091246,0.040612,-0.036781,-0.069392,0.187621,-0.394428,0.583441,-0.684705,-89.513201,-18.735649,-130.772312
28373,NaN,3.182298,-9.419764,0.142742,0.056786,-0.028482,0.130919,0.033275,-0.032417,-0.066007,0.187597,-0.394699,0.583171,-0.684786,-89.500777,-18.769806,-130.749614
28374,NaN,3.171630,-9.365950,0.140144,0.052563,-0.026625,0.076520,0.036639,-0.024721,-0.063703,0.187561,-0.394935,0.582901,-0.684890,-89.485181,-18.802919,-130.731710
28375,NaN,3.201613,-9.309452,0.147657,0.029967,-0.061371,0.032786,0.032962,-0.020691,-0.060205,0.187522,-0.395149,0.582654,-0.684987,-89.470680,-18.833698,-130.716045
28376,NaN,3.287654,-9.329959,0.123375,-0.036099,-0.096733,0.079803,0.033515,-0.008095,-0.052543,0.187470,-0.395298,0.582433,-0.685103,-89.453656,-18.860338,-130.708155
28377,NaN,3.161924,-9.122955,0.185322,0.046716,-0.093604,-0.156111,0.042284,-0.007042,-0.044837,0.187464,-0.395413,0.582196,-0.685240,-89.431184,-18.882244,-130.700470
28378,NaN,3.204459,-9.202746,0.172774,0.026940,-0.090978,-0.066922,0.035675,0.000349,-0.040302,0.187433,-0.395495,0.581999,-0.685368,-89.411291,-18.901827,-130.697636
28379,NaN,3.237907,-9.242954,0.122695,-0.023414,-0.068702,-0.018504,0.012555,0.003094,-0.031040,0.187386,-0.395563,0.581901,-0.685425,-89.403888,-18.915779,-130.696052
28380,NaN,3.238006,-9.180007,0.177367,0.004753,-0.116904,-0.077443,0.039410,0.012686,-0.025047,0.187379,-0.395555,0.581733,-0.685574,-89.379463,-18.926547,-130.700602
28381,NaN,3.246101,-9.275230,0.122959,-0.023401,-0.060445,0.014722,0.010430,0.018428,-0.017318,0.187329,-0.395533,0.581684,-0.685642,-89.370290,-18.932546,-130.708205
28382,NaN,3.246054,-9.156694,0.155214,-0.023189,-0.110026,-0.097063,-0.001545,0.028163,-0.013030,0.187238,-0.395475,0.581695,-0.685691,-89.366312,-18.936331,-130.722055
28383,NaN,3.214527,-9.171106,0.114479,-0.031860,-0.056694,-0.094084,-0.007151,0.030531,-0.009527,0.187145,-0.395405,0.581732,-0.685725,-89.364851,-18.937783,-130.736985
28384,NaN,3.191081,-9.225465,0.109757,-0.009968,-0.023029,-0.050330,-0.010053,0.029577,-0.003317,0.187066,-0.395322,0.581793,-0.685743,-89.365489,-18.935993,-130.751626
28385,NaN,3.182772,-9.213557,0.141174,0.016282,-0.040831,-0.063961,-0.007487,0.028423,-0.001324,0.187006,-0.395235,0.581846,-0.685765,-89.364651,-18.932766,-130.765311
28386,NaN,3.164672,-9.217946,0.157232,0.040046,-0.037551,-0.065514,-0.006639,0.029274,0.000543,0.186948,-0.395139,0.581903,-0.685788,-89.363403,-18.928766,-130.779742
28387,NaN,3.135894,-9.266640,0.110725,0.032025,0.025103,-0.029280,-0.011364,0.025072,-0.001303,0.186888,-0.395065,0.581967,-0.685792,-89.365440,-18.925553,-130.791628
28388,NaN,3.114040,-9.237121,0.131742,0.055118,0.019067,-0.064067,-0.006149,0.028612,0.001835,0.186837,-0.394967,0.582023,-0.685815,-89.364046,-18.920817,-130.805650
28389,NaN,3.122453,-9.276930,0.168406,0.085256,-0.001149,-0.023294,-0.006133,0.024901,-0.001771,0.186788,-0.394891,0.582068,-0.685834,-89.363118,-18.917885,-130.817297
28390,NaN,3.116811,-9.327009,0.147604,0.083057,0.028703,0.022030,-0.009494,0.017185,-0.004069,0.186744,-0.394853,0.582114,-0.685829,-89.365874,-18.916604,-130.824436
28391,NaN,3.136314,-9.294444,0.178308,0.087803,-0.013952,-0.002130,-0.009495,0.017184,-0.004069,0.186702,-0.394813,0.582158,-0.685825,-89.368382,-18.915035,-130.831492
28392,NaN,3.109004,-9.314953,0.178042,0.109002,0.010396,0.008410,-0.011788,0.014000,-0.004637,0.186660,-0.394790,0.582208,-0.685809,-89.373076,-18.914100,-130.836707
28393,NaN,3.150433,-9.311888,0.187336,0.090348,-0.026759,0.019032,-0.014218,0.012983,-0.005919,0.186615,-0.394774,0.582261,-0.685785,-89.379109,-18.913616,-130.841320
28394,NaN,3.141451,-9.327933,0.170803,0.087479,-0.006225,0.031119,-0.014930,0.009962,-0.007073,0.186570,-0.394774,0.582313,-0.685753,-89.386390,-18.914103,-130.844105
28395,NaN,3.110706,-9.314441,0.175071,0.107952,0.008807,0.008423,-0.018368,0.013969,-0.007328,0.186509,-0.394762,0.582379,-0.685720,-89.394603,-18.914420,-130.849323
28396,NaN,3.152583,-9.311230,0.183854,0.089366,-0.028342,0.019036,-0.018980,0.013086,-0.012939,0.186427,-0.394773,0.582435,-0.685688,-89.403579,-18.918250,-130.854037
28397,NaN,3.109201,-9.279826,0.177656,0.106622,-0.001551,-0.024812,-0.018249,0.012397,-0.015392,0.186343,-0.394790,0.582484,-0.685660,-89.412015,-18.923199,-130.858300
28398,NaN,3.092887,-9.255671,0.124164,0.073243,0.038671,-0.053489,-0.022732,0.008165,-0.020989,0.186240,-0.394844,0.582533,-0.685615,-89.424092,-18.931670,-130.860082
28399,NaN,3.108360,-9.272666,0.132805,0.076091,0.026383,-0.032330,-0.019473,0.010631,-0.026614,0.186121,-0.394901,0.582561,-0.685591,-89.433552,-18.943059,-130.863375
28400,NaN,3.132783,-9.301304,0.110411,0.052366,0.031333,0.002457,-0.019893,0.017131,-0.028750,0.185971,-0.394945,0.582593,-0.685579,-89.442223,-18.955927,-130.870632
28401,NaN,3.163178,-9.279730,0.109040,0.030504,0.005921,-0.008097,-0.017090,0.015949,-0.030497,0.185827,-0.394993,0.582611,-0.685575,-89.449264,-18.969515,-130.877084
28402,NaN,3.139377,-9.243395,0.087284,0.023758,0.028911,-0.050400,-0.018674,0.015780,-0.029912,0.185680,-0.395044,0.582635,-0.685565,-89.457498,-18.983058,-130.883526
28403,NaN,3.197645,-9.201025,0.086025,-0.019584,-0.021380,-0.071520,-0.013342,0.017756,-0.034830,0.185524,-0.395095,0.582633,-0.685580,-89.462026,-18.999117,-130.891131
28404,NaN,3.218814,-9.195496,0.069752,-0.043952,-0.025735,-0.069988,-0.010282,0.015946,-0.031544,0.185387,-0.395141,0.582626,-0.685596,-89.465413,-19.013596,-130.897682
28405,NaN,3.203341,-9.199053,0.085043,-0.020255,-0.022442,-0.071523,-0.010030,0.015315,-0.026510,0.185273,-0.395174,0.582626,-0.685608,-89.468539,-19.024905,-130.903713
28406,NaN,3.209607,-9.232107,0.079517,-0.019922,-0.013683,-0.038277,-0.006517,0.017156,-0.027099,0.185155,-0.395200,0.582616,-0.685634,-89.469536,-19.036831,-130.910971
28407,NaN,3.230057,-9.226805,0.063857,-0.044353,-0.018055,-0.036748,-0.004825,0.018859,-0.023360,0.185052,-0.395206,0.582608,-0.685665,-89.468983,-19.046316,-130.919209
28408,NaN,3.199645,-9.268998,0.090133,0.004100,-0.001633,-0.006559,-0.005561,0.019543,-0.020907,0.184950,-0.395205,0.582609,-0.685692,-89.468969,-19.054682,-130.927880
28409,NaN,3.164182,-9.333471,0.142523,0.079768,0.006852,0.043256,-0.002641,0.019905,-0.018331,0.184865,-0.395191,0.582604,-0.685727,-89.466965,-19.061283,-130.936707
28410,NaN,3.161274,-9.326914,0.101269,0.049590,0.035298,0.035740,-0.001622,0.014884,-0.019362,0.184790,-0.395197,0.582591,-0.685755,-89.465617,-19.068788,-130.942547
28411,NaN,3.139928,-9.353065,0.143006,0.100559,0.030670,0.053840,-0.007453,0.013556,-0.015739,0.184723,-0.395202,0.582602,-0.685761,-89.467630,-19.073938,-130.947512
28412,NaN,3.154956,-9.370165,0.153284,0.103466,0.018376,0.074992,-0.002471,0.014029,-0.021231,0.184642,-0.395218,0.582586,-0.685787,-89.466932,-19.082519,-130.952844
28413,NaN,3.156698,-9.369577,0.153399,0.103092,0.017838,0.074997,-0.005667,0.017397,-0.016453,0.184565,-0.395209,0.582594,-0.685806,-89.467157,-19.088055,-130.960136
28414,NaN,3.127068,-9.355815,0.158626,0.123625,0.032924,0.052332,-0.008702,0.015492,-0.023351,0.184461,-0.395232,0.582597,-0.685818,-89.469735,-19.097843,-130.966368
28415,NaN,3.134202,-9.332848,0.132298,0.095970,0.040314,0.032715,-0.009838,0.018969,-0.026642,0.184335,-0.395252,0.582600,-0.685838,-89.472015,-19.109205,-130.974745
28416,NaN,3.168178,-9.345142,0.126580,0.074816,0.024171,0.055386,-0.011712,0.023130,-0.027479,0.184189,-0.395263,0.582612,-0.685861,-89.474791,-19.121317,-130.985631
28417,NaN,3.176570,-9.265937,0.079672,0.019265,0.030218,-0.017114,-0.009048,0.024121,-0.029933,0.184039,-0.395274,0.582611,-0.685896,-89.475585,-19.134540,-130.997113
28418,NaN,3.180086,-9.237052,0.126460,0.048219,-0.008537,-0.042853,-0.009897,0.023264,-0.031803,0.183880,-0.395296,0.582608,-0.685928,-89.477281,-19.149129,-131.008105
28419,NaN,3.237502,-9.222360,0.079604,-0.024332,-0.020622,-0.038299,-0.005982,0.032459,-0.032646,0.183703,-0.395283,0.582598,-0.685991,-89.474649,-19.163863,-131.024615
28420,NaN,3.200247,-9.196542,0.116695,0.022870,-0.022708,-0.074590,-0.006336,0.030945,-0.033225,0.183525,-0.395279,0.582588,-0.686050,-89.472766,-19.179227,-131.040276
28421,NaN,3.226190,-9.168713,0.075639,-0.028835,-0.019171,-0.092702,-0.002187,0.029969,-0.031808,0.183365,-0.395270,0.582564,-0.686118,-89.468449,-19.193494,-131.055250
28422,NaN,3.214757,-9.206197,0.086640,-0.004468,-0.006585,-0.060961,-0.001603,0.021305,-0.028968,0.183239,-0.395282,0.582537,-0.686168,-89.465777,-19.206468,-131.065044
28423,NaN,3.239456,-9.234599,0.066604,-0.028287,-0.001722,-0.026191,0.006555,0.021527,-0.026842,0.183138,-0.395279,0.582486,-0.686240,-89.458138,-19.217933,-131.074953
28424,NaN,3.209381,-9.276844,0.093983,0.020133,0.014716,0.004042,0.009768,0.017565,-0.022842,0.183065,-0.395276,0.582428,-0.686310,-89.449704,-19.227416,-131.082447
28425,NaN,3.206005,-9.326276,0.074547,0.017756,0.044462,0.049420,0.010758,0.016254,-0.020261,0.183011,-0.395267,0.582371,-0.686378,-89.440721,-19.235138,-131.089091
28426,NaN,3.221142,-9.343278,0.086516,0.020661,0.032149,0.070563,0.013328,0.015114,-0.018261,0.182969,-0.395256,0.582308,-0.686449,-89.430743,-19.242007,-131.095074
28427,NaN,3.210019,-9.297118,0.124883,0.046359,0.005189,0.023676,0.014908,0.015282,-0.018841,0.182930,-0.395243,0.582238,-0.686527,-89.419577,-19.248921,-131.101139
