// General information: 
//  MT Manager version: 2019.0.1 
//  XDA version: 2019.0.1 build 2740 rev 84096 built on 2019-01-30
// Device information: 
//  DeviceId: 00B43876
//  ProductCode: MTW2-3A7G6
//  Firmware Version: 4.3.4
//  Hardware Version: 1.1.0
// Device settings: 
//  Filter Profile: human(46.1)
//  Option Flags: Orientation Smoother Disabled, AHS Disabled, ICC Disabled
// Coordinate system: ENU
PacketCounter,SampleTimeFine,Acc_X,Acc_Y,Acc_Z,FreeAcc_E,FreeAcc_N,FreeAcc_U,Gyr_X,Gyr_Y,Gyr_Z,Quat_q0,Quat_q1,Quat_q2,Quat_q3,Roll,Pitch,Yaw
59383,NaN,0.315457,9.321044,-0.889662,-0.040567,-1.939938,-0.647121,0.075385,0.204811,0.577930,0.280367,0.357482,-0.600249,-0.658257,88.622892,7.703738,-126.338154
59384,NaN,-1.241547,9.024033,-0.231806,0.386263,-0.222285,-0.711618,0.106372,0.137471,0.607640,0.282593,0.356219,-0.601521,-0.656827,88.696483,7.352701,-126.253698
59385,NaN,-2.095066,9.039140,0.141042,0.607781,0.728273,-0.581478,0.113816,-0.009417,0.558418,0.284190,0.354637,-0.602927,-0.655704,88.763115,7.029576,-126.255185
59386,NaN,-2.428375,8.272379,1.125539,0.073484,1.700383,-1.286301,0.029792,-0.143073,0.437090,0.285142,0.352853,-0.604033,-0.655235,88.772185,6.772781,-126.335493
59387,NaN,-2.960394,8.273599,1.708033,-0.061324,2.495000,-1.215892,-0.012333,-0.149334,0.288727,0.285654,0.351443,-0.604741,-0.655117,88.756740,6.602414,-126.421226
59388,NaN,-3.925424,8.138812,1.559323,0.647007,3.204736,-1.245789,-0.014637,0.016502,0.069478,0.285959,0.351229,-0.604819,-0.655026,88.750481,6.558659,-126.414065
59389,NaN,-5.372377,8.058744,1.839027,1.271318,4.532920,-1.151039,-0.062346,0.279270,-0.167360,0.286360,0.352529,-0.603948,-0.654956,88.734282,6.654904,-126.258337
59390,NaN,-6.172272,7.930076,2.275620,1.364384,5.426458,-1.160911,-0.175357,0.541232,-0.397138,0.286999,0.355215,-0.601918,-0.655095,88.670501,6.886300,-125.954616
59391,NaN,-5.986789,8.067815,2.055189,1.373744,5.101774,-1.024101,-0.178577,0.794069,-0.595665,0.287746,0.359317,-0.599155,-0.655062,88.624736,7.235097,-125.507609
59392,NaN,-3.016649,9.421440,1.421238,0.038097,2.142674,-0.050998,0.154227,0.796102,-0.615815,0.287824,0.363960,-0.597416,-0.654052,88.771337,7.596535,-125.059224
59393,NaN,-1.019881,10.862462,2.173417,-1.858911,0.732824,1.130984,-0.007557,0.613465,-0.558317,0.287837,0.367589,-0.595515,-0.653751,88.815141,7.920629,-124.714571
59394,NaN,0.166273,11.559786,3.311560,-3.546868,0.265798,1.675193,-0.071584,0.463478,-0.465851,0.287815,0.370359,-0.593767,-0.653787,88.810395,8.191506,-124.455497
59395,NaN,-0.827178,11.213941,4.317073,-3.824273,1.630187,1.491779,-0.154952,0.279483,-0.384278,0.287670,0.372159,-0.592172,-0.654275,88.745431,8.411915,-124.301661
59396,NaN,-1.707854,10.331932,2.891692,-2.113886,1.622393,0.719485,-0.084188,0.080834,-0.355886,0.286896,0.373323,-0.591127,-0.654897,88.701908,8.614944,-124.263086
59397,NaN,-2.289580,10.062555,1.225708,-0.408778,1.168369,0.505610,-0.022647,-0.051113,-0.339947,0.285669,0.374097,-0.590518,-0.655541,88.684886,8.805865,-124.300407
59398,NaN,-2.350300,9.840350,0.233672,0.444667,0.665329,0.275450,0.051782,-0.178072,-0.307471,0.284033,0.374461,-0.590372,-0.656175,88.695918,8.977898,-124.411477
59399,NaN,-1.689877,10.115574,0.464809,-0.151853,0.197432,0.450571,0.077071,-0.175218,-0.248074,0.282553,0.374697,-0.590436,-0.656621,88.724688,9.114603,-124.519560
59400,NaN,-1.458115,9.967783,0.617241,-0.413203,0.099981,0.271112,0.060710,-0.079392,-0.212623,0.281501,0.375116,-0.590355,-0.656907,88.749624,9.233737,-124.572122
59401,NaN,-1.324891,9.873750,0.302387,-0.235119,-0.184298,0.149664,0.038033,0.046968,-0.156197,0.281051,0.375755,-0.590147,-0.656921,88.776582,9.320658,-124.550034
59402,NaN,-1.405858,9.865258,0.170356,-0.091083,-0.199875,0.151273,0.026656,0.175411,-0.104006,0.281171,0.376641,-0.589799,-0.656675,88.806081,9.380625,-124.453269
59403,NaN,-1.588339,9.921130,-0.012171,0.148419,-0.166005,0.232322,0.010790,0.260426,-0.066626,0.281695,0.377677,-0.589369,-0.656240,88.837909,9.418729,-124.306074
59404,NaN,-1.625533,9.783594,-0.038807,0.195575,-0.131590,0.102301,-0.007972,0.298753,-0.026019,0.282500,0.378689,-0.588879,-0.655751,88.859670,9.435306,-124.136685
59405,NaN,-2.004784,9.664571,0.198607,0.213395,0.330365,0.051787,-0.010266,0.301942,0.010651,0.283439,0.379602,-0.588466,-0.655189,88.883620,9.429485,-123.964450
59406,NaN,-2.129275,9.700666,-0.004174,0.444437,0.318225,0.103862,0.000546,0.266732,0.019264,0.284280,0.380386,-0.588133,-0.654668,88.907371,9.419687,-123.813124
59407,NaN,-1.684978,9.677895,-0.217733,0.377265,-0.155857,0.004725,0.005518,0.211666,0.019048,0.284950,0.381001,-0.587913,-0.654217,88.931748,9.407938,-123.693233
59408,NaN,-1.421660,9.668602,-0.062678,0.102973,-0.281114,-0.044511,0.013863,0.157156,0.018330,0.285439,0.381448,-0.587777,-0.653865,88.952798,9.397471,-123.605539
59409,NaN,-1.064763,9.663264,0.170057,-0.287595,-0.442539,-0.103786,0.009274,0.136269,-0.000488,0.285816,0.381878,-0.587639,-0.653574,88.972108,9.396043,-123.529647
59410,NaN,-0.798923,9.712611,0.408243,-0.638162,-0.537683,-0.094489,0.019934,0.135295,-0.037298,0.286047,0.382425,-0.587448,-0.653324,88.994545,9.417051,-123.455215
59411,NaN,-0.869860,9.705434,0.540882,-0.715341,-0.408121,-0.088163,0.015383,0.137475,-0.068434,0.286194,0.383067,-0.587198,-0.653109,89.017410,9.454503,-123.379301
59412,NaN,-1.075824,9.618668,0.522185,-0.588206,-0.241675,-0.140849,0.018492,0.121672,-0.101180,0.286180,0.383754,-0.586899,-0.652980,89.037670,9.511697,-123.313389
59413,NaN,-1.223064,9.646636,0.428207,-0.441121,-0.183212,-0.091131,0.027026,0.096848,-0.131040,0.285980,0.384463,-0.586625,-0.652897,89.063347,9.584570,-123.261624
59414,NaN,-1.353541,9.785904,0.419413,-0.384669,-0.111019,0.067170,0.027083,0.083716,-0.157982,0.285654,0.385203,-0.586299,-0.652896,89.084878,9.673766,-123.218243
59415,NaN,-1.201017,9.984603,0.226556,-0.333247,-0.383540,0.233600,0.019244,0.112489,-0.180271,0.285354,0.386096,-0.585881,-0.652875,89.107727,9.774943,-123.157752
59416,NaN,-1.334359,9.875098,0.347447,-0.366310,-0.205298,0.149362,0.005064,0.154456,-0.190557,0.285172,0.387130,-0.585318,-0.652848,89.123770,9.883278,-123.073452
59417,NaN,-1.580409,9.787393,0.378657,-0.266965,0.013911,0.105106,0.024104,0.153186,-0.201308,0.284911,0.388223,-0.584816,-0.652762,89.153702,9.996813,-122.989359
59418,NaN,-1.607181,9.604000,0.263799,-0.155381,-0.012401,-0.072815,0.023537,0.131150,-0.200971,0.284591,0.389236,-0.584325,-0.652738,89.178278,10.110774,-122.918569
59419,NaN,-1.750291,9.579095,0.187808,-0.027435,0.055431,-0.073386,0.034879,0.125565,-0.193912,0.284252,0.390232,-0.583910,-0.652663,89.211913,10.219769,-122.850320
59420,NaN,-1.796554,9.736099,0.088251,0.052742,0.003039,0.088030,0.051932,0.112738,-0.186216,0.283870,0.391181,-0.583566,-0.652569,89.251179,10.325043,-122.789963
59421,NaN,-1.761438,9.762402,0.122649,-0.012492,-0.022655,0.108074,0.045789,0.109809,-0.177005,0.283518,0.392090,-0.583240,-0.652467,89.289715,10.424148,-122.730575
59422,NaN,-1.766346,9.710303,0.136437,-0.031196,-0.013061,0.057845,0.055134,0.109343,-0.156797,0.283215,0.392946,-0.582968,-0.652328,89.330773,10.512458,-122.671807
59423,NaN,-1.803783,9.703877,0.104415,0.002870,-0.006087,0.057961,0.043945,0.123727,-0.130614,0.283058,0.393763,-0.582707,-0.652137,89.370002,10.584994,-122.603828
59424,NaN,-2.032616,9.691195,-0.007209,0.207879,0.119641,0.086469,0.045117,0.140612,-0.100860,0.283048,0.394543,-0.582466,-0.651884,89.408952,10.641358,-122.526336
59425,NaN,-2.506015,9.679645,-0.149917,0.569920,0.434566,0.161502,0.023818,0.139894,-0.062140,0.283201,0.395183,-0.582251,-0.651622,89.438616,10.674670,-122.448410
59426,NaN,-2.182400,9.738567,-0.253282,0.475482,0.100942,0.158794,0.007073,0.159184,-0.020349,0.283581,0.395736,-0.582019,-0.651329,89.458048,10.685049,-122.359551
59427,NaN,-2.124293,9.739574,0.113472,0.131019,0.251344,0.152474,0.017502,0.155998,0.020134,0.284061,0.396180,-0.581922,-0.650936,89.485948,10.671245,-122.271761
59428,NaN,-2.173088,9.608249,0.083260,0.192396,0.302973,0.032051,0.022756,0.128638,0.058545,0.284576,0.396426,-0.581940,-0.650545,89.511189,10.636273,-122.200288
59429,NaN,-2.138809,9.673532,0.183910,0.082463,0.327232,0.090426,0.045912,0.092564,0.092249,0.285050,0.396494,-0.582168,-0.650092,89.548513,10.580766,-122.149164
59430,NaN,-2.027534,9.666475,0.157335,0.047956,0.233943,0.062501,0.057235,0.039993,0.119318,0.285436,0.396325,-0.582544,-0.649689,89.583979,10.510591,-122.129144
59431,NaN,-1.850339,9.752021,0.198924,-0.086625,0.109909,0.114328,0.075180,0.002707,0.138262,0.285739,0.396008,-0.583086,-0.649262,89.628452,10.428300,-122.130288
59432,NaN,-1.571649,9.846650,0.265072,-0.295210,-0.086169,0.157381,0.071052,-0.011595,0.141777,0.286020,0.395625,-0.583624,-0.648889,89.666359,10.345070,-122.140343
59433,NaN,-1.476552,9.666567,0.072091,-0.163017,-0.223537,-0.037650,0.071105,-0.017552,0.150798,0.286313,0.395199,-0.584206,-0.648495,89.706378,10.255534,-122.153361
59434,NaN,-1.431199,9.666001,0.014176,-0.135113,-0.275806,-0.046124,0.073321,-0.017903,0.150437,0.286599,0.394773,-0.584777,-0.648114,89.744951,10.167255,-122.167166
59435,NaN,-1.570211,9.648752,-0.013360,-0.034618,-0.155675,-0.038298,0.061010,-0.027080,0.152107,0.286888,0.394297,-0.585341,-0.647766,89.778231,10.076964,-122.185838
59436,NaN,-1.700031,9.727294,-0.133306,0.132070,-0.107215,0.061479,0.057654,-0.033959,0.159840,0.287188,0.393768,-0.585903,-0.647447,89.806274,9.983203,-122.209047
59437,NaN,-1.697661,9.836466,-0.024726,0.033498,-0.050766,0.169046,0.056602,-0.024149,0.163709,0.287531,0.393261,-0.586470,-0.647089,89.837371,9.886289,-122.226079
59438,NaN,-1.587914,9.835520,0.026657,-0.062499,-0.097975,0.149547,0.051667,-0.027283,0.166947,0.287885,0.392724,-0.587016,-0.646763,89.862773,9.788470,-122.245457
59439,NaN,-1.537396,9.783220,0.045764,-0.095856,-0.105289,0.089675,0.057048,-0.029968,0.162666,0.288207,0.392201,-0.587591,-0.646415,89.893597,9.692163,-122.265960
59440,NaN,-1.548190,9.718133,0.122466,-0.144586,-0.029884,0.027647,0.055101,-0.046512,0.156512,0.288464,0.391636,-0.588154,-0.646130,89.919169,9.600275,-122.296597
59441,NaN,-1.450444,9.765635,0.152721,-0.221678,-0.086122,0.058390,0.060079,-0.070240,0.146914,0.288609,0.391034,-0.588765,-0.645874,89.947893,9.512987,-122.340592
59442,NaN,-1.379713,9.831654,0.014793,-0.144663,-0.213581,0.111963,0.064068,-0.086451,0.130005,0.288646,0.390430,-0.589362,-0.645678,89.974856,9.436245,-122.394507
59443,NaN,-1.196489,9.813802,0.020078,-0.242085,-0.347400,0.064731,0.061643,-0.083833,0.114046,0.288642,0.389882,-0.589933,-0.645490,90.003292,9.367829,-122.446467
59444,NaN,-1.175398,9.756246,0.014182,-0.241247,-0.348659,0.004966,0.051824,-0.053690,0.097387,0.288693,0.389461,-0.590379,-0.645312,90.026472,9.309716,-122.481395
59445,NaN,-1.266198,9.711063,-0.103822,-0.088232,-0.320114,-0.024505,0.042700,-0.034306,0.082916,0.288772,0.389137,-0.590756,-0.645128,90.048794,9.259161,-122.504630
59446,NaN,-1.406416,9.735735,-0.092690,-0.024191,-0.191909,0.022642,0.045410,-0.016335,0.074783,0.288874,0.388894,-0.591084,-0.644929,90.071878,9.213894,-122.517885
59447,NaN,-1.391422,9.908761,-0.011134,-0.115332,-0.175409,0.191094,0.035781,-0.016047,0.064427,0.288959,0.388674,-0.591376,-0.644756,90.091963,9.173934,-122.530540
59448,NaN,-1.416833,9.733801,-0.125021,0.010270,-0.184750,0.022743,0.039864,-0.019227,0.062488,0.289024,0.388449,-0.591667,-0.644595,90.111660,9.135664,-122.545480
59449,NaN,-1.489911,9.599884,-0.177155,0.105236,-0.126517,-0.097652,0.041238,-0.040771,0.066771,0.289034,0.388150,-0.592016,-0.644451,90.132611,9.094401,-122.572510
59450,NaN,-1.663030,9.468606,-0.229909,0.255209,0.013893,-0.199795,0.035360,-0.104849,0.081069,0.288914,0.387587,-0.592452,-0.644442,90.141974,9.045574,-122.637161
59451,NaN,-1.587361,9.398547,-0.094515,0.109766,0.042317,-0.281293,0.061532,-0.160376,0.104182,0.288650,0.386821,-0.593111,-0.644415,90.163717,8.983073,-122.733650
59452,NaN,-1.711084,9.565352,0.122637,-0.017590,0.252953,-0.098034,0.069960,-0.156903,0.137175,0.288489,0.385974,-0.593842,-0.644321,90.188401,8.902254,-122.828588
59453,NaN,-2.592763,10.150004,0.185134,0.357761,0.959604,0.614700,0.050496,-0.112396,0.177690,0.288625,0.385127,-0.594537,-0.644127,90.208350,8.797617,-122.897409
59454,NaN,-1.974894,10.628037,-0.210416,0.326309,0.189145,0.992744,0.028200,-0.054721,0.188582,0.289012,0.384396,-0.595083,-0.643885,90.218399,8.687333,-122.933223
59455,NaN,-1.506131,10.329539,0.051337,-0.110914,-0.002426,0.625612,0.024699,-0.027708,0.171674,0.289429,0.383802,-0.595560,-0.643612,90.231192,8.585983,-122.952962
59456,NaN,-1.453628,9.896527,-0.159735,0.082979,-0.092219,0.190531,0.009709,-0.009722,0.162406,0.289901,0.383266,-0.595930,-0.643376,90.234687,8.490629,-122.962647
59457,NaN,-1.100286,9.771842,-0.081481,-0.156006,-0.313280,0.015012,0.038663,0.001492,0.139786,0.290276,0.382881,-0.596347,-0.643049,90.258038,8.407486,-122.965422
59458,NaN,-0.889890,9.732496,0.091845,-0.407090,-0.376329,-0.054898,0.028629,0.019426,0.112256,0.290636,0.382616,-0.596640,-0.642773,90.274921,8.340734,-122.958129
59459,NaN,-0.920919,9.633999,0.211732,-0.480617,-0.262923,-0.147972,0.045724,0.016782,0.084706,0.290866,0.382453,-0.596952,-0.642476,90.303618,8.289107,-122.951951
59460,NaN,-0.860356,9.633796,0.180647,-0.486774,-0.321470,-0.156468,0.046608,0.010470,0.060520,0.291000,0.382339,-0.597216,-0.642237,90.330034,8.251878,-122.949739
59461,NaN,-0.982998,9.695466,0.096264,-0.356649,-0.265773,-0.077196,0.053405,0.005961,0.033086,0.291017,0.382307,-0.597470,-0.642013,90.362244,8.229858,-122.949697
59462,NaN,-0.800872,9.623669,0.121375,-0.473199,-0.390367,-0.174491,0.060188,0.007740,-0.001491,0.290918,0.382388,-0.597663,-0.641829,90.396218,8.228036,-122.948871
59463,NaN,-0.627502,9.589288,0.289310,-0.710266,-0.435765,-0.234716,0.069824,0.016828,-0.020524,0.290764,0.382575,-0.597851,-0.641613,90.438765,8.236685,-122.942340
59464,NaN,-0.653786,9.635006,0.368949,-0.774057,-0.374426,-0.186809,0.074147,0.026303,-0.046596,0.290551,0.382870,-0.597976,-0.641417,90.482266,8.260441,-122.930567
59465,NaN,-0.981536,9.562137,0.341887,-0.577665,-0.108341,-0.212202,0.071947,0.031379,-0.060980,0.290306,0.383227,-0.598072,-0.641225,90.527279,8.292186,-122.915391
59466,NaN,-1.266292,9.679498,0.149618,-0.283178,0.008559,-0.053677,0.080343,0.031332,-0.081851,0.289984,0.383651,-0.598142,-0.641052,90.574713,8.335944,-122.900485
59467,NaN,-0.909540,9.770158,0.045836,-0.407847,-0.357412,-0.015174,0.088120,0.033789,-0.107077,0.289567,0.384177,-0.598198,-0.640873,90.629268,8.394059,-122.883576
59468,NaN,-0.931280,9.675660,0.132317,-0.473233,-0.285775,-0.107145,0.079689,0.049086,-0.124645,0.289162,0.384784,-0.598158,-0.640729,90.677898,8.462107,-122.858029
59469,NaN,-0.944258,9.644688,0.057014,-0.414268,-0.318036,-0.135802,0.083749,0.058397,-0.141036,0.288719,0.385484,-0.598097,-0.640565,90.732147,8.539473,-122.826511
59470,NaN,-1.021886,9.663305,-0.014179,-0.329152,-0.301079,-0.105736,0.085002,0.073356,-0.148451,0.288300,0.386246,-0.597993,-0.640392,90.786009,8.620804,-122.786592
59471,NaN,-1.257028,9.543692,-0.130822,-0.109024,-0.161310,-0.187649,0.077540,0.076844,-0.142264,0.287920,0.386999,-0.597883,-0.640211,90.838422,8.698666,-122.744214
59472,NaN,-1.427626,9.595827,-0.191032,0.013788,-0.064327,-0.109587,0.085387,0.071126,-0.132635,0.287544,0.387707,-0.597813,-0.640017,90.892435,8.770806,-122.705561
59473,NaN,-1.463433,9.639972,-0.114205,-0.050236,-0.002737,-0.061729,0.091701,0.055425,-0.118627,0.287147,0.388340,-0.597824,-0.639801,90.951158,8.835244,-122.675654
59474,NaN,-1.500636,9.572653,-0.040663,-0.098797,0.072843,-0.123819,0.090830,0.037873,-0.097157,0.286775,0.388843,-0.597887,-0.639603,91.005405,8.887304,-122.656474
59475,NaN,-1.479161,9.626994,0.031963,-0.189006,0.086571,-0.074888,0.098657,0.027558,-0.072741,0.286428,0.389260,-0.598049,-0.639354,91.065612,8.925685,-122.643069
59476,NaN,-1.828038,9.879371,0.039320,-0.045044,0.351380,0.228216,0.091064,0.037118,-0.038404,0.286241,0.389584,-0.598228,-0.639072,91.119853,8.944059,-122.624873
59477,NaN,-1.793503,10.016987,-0.193351,0.109181,0.183493,0.363190,0.083528,0.036814,-0.013656,0.286139,0.389832,-0.598443,-0.638765,91.172141,8.948463,-122.606709
59478,NaN,-1.743038,9.944826,-0.142047,0.039727,0.182964,0.282998,0.076920,0.035708,0.013089,0.286139,0.389978,-0.598679,-0.638455,91.218063,8.937390,-122.589920
59479,NaN,-1.795932,9.763070,-0.282024,0.198823,0.179775,0.114578,0.075457,0.006206,0.035459,0.286119,0.389969,-0.599008,-0.638161,91.262872,8.914009,-122.590115
59480,NaN,-1.661040,9.786651,-0.272285,0.112932,0.078038,0.116707,0.080835,-0.015249,0.053001,0.286086,0.389839,-0.599407,-0.637881,91.306401,8.880759,-122.603402
59481,NaN,-1.550721,9.714786,-0.245482,0.036474,0.018874,0.028063,0.074618,-0.030779,0.075021,0.286082,0.389593,-0.599862,-0.637605,91.347341,8.835208,-122.625604
59482,NaN,-1.532699,9.646727,-0.274144,0.056915,0.006661,-0.041281,0.077532,-0.055988,0.083976,0.286031,0.389235,-0.600369,-0.637369,91.385348,8.784810,-122.662968
59483,NaN,-1.484110,9.614457,-0.265020,0.025906,-0.014026,-0.080795,0.078594,-0.086618,0.092452,0.285907,0.388763,-0.600950,-0.637165,91.423631,8.730089,-122.717835
59484,NaN,-1.578994,9.678379,-0.326802,0.122569,0.035024,-0.001735,0.072844,-0.133957,0.101779,0.285688,0.388096,-0.601588,-0.637068,91.452181,8.670662,-122.800678
59485,NaN,-1.616586,9.702128,-0.314981,0.131769,0.081050,0.027023,0.078101,-0.200096,0.103580,0.285259,0.387229,-0.602350,-0.637068,91.480384,8.611289,-122.921496
59486,NaN,-2.007547,9.773757,-0.858942,0.794373,0.107790,0.169883,0.042143,-0.370198,0.103523,0.284392,0.385759,-0.603228,-0.637516,91.471131,8.554422,-123.141210
59487,NaN,-1.825205,9.526657,-0.067285,0.068944,0.424536,-0.122068,0.058800,-0.626383,0.110690,0.282735,0.383480,-0.604544,-0.638381,91.451902,8.497196,-123.508985
59488,NaN,-1.059327,9.454152,0.041599,-0.424332,-0.130812,-0.309650,0.083154,-0.583167,0.109406,0.281161,0.381366,-0.605857,-0.639098,91.448502,8.440043,-123.852005
59489,NaN,-1.198852,9.349200,0.010998,-0.305927,-0.010245,-0.391902,0.096355,-0.573341,0.146702,0.279702,0.379193,-0.607275,-0.639685,91.456013,8.361361,-124.189468
59490,NaN,-0.942841,9.229628,0.085248,-0.490283,-0.148901,-0.548797,0.113103,-0.567627,0.207676,0.278428,0.376865,-0.608837,-0.640131,91.471813,8.247683,-124.524816
59491,NaN,-1.219936,9.152870,0.073455,-0.307819,0.099527,-0.584255,0.111647,-0.582164,0.266273,0.277290,0.374314,-0.610530,-0.640509,91.488448,8.100807,-124.869017
59492,NaN,-1.001083,9.095922,0.008821,-0.360943,-0.084522,-0.669354,0.133673,-0.583086,0.315522,0.276270,0.371628,-0.612369,-0.640758,91.516220,7.925726,-125.214771
59493,NaN,-1.727810,9.578144,0.324881,-0.237845,0.671648,-0.100638,0.165516,-0.507076,0.380100,0.275621,0.369036,-0.614330,-0.640660,91.571513,7.712877,-125.517201
59494,NaN,-3.151845,10.467486,-0.265842,0.990679,1.431391,0.982800,0.203777,-0.389003,0.427077,0.275418,0.366718,-0.616319,-0.640167,91.656472,7.471434,-125.752620
59495,NaN,-1.525491,11.354208,-0.813949,0.420412,-0.232000,1.662368,0.193013,-0.288434,0.434658,0.275560,0.364689,-0.618155,-0.639495,91.745982,7.224444,-125.929989
59496,NaN,-0.141676,11.093264,-0.327853,-0.737865,-0.988998,1.217514,0.132915,-0.122041,0.390251,0.276187,0.363237,-0.619473,-0.638775,91.811483,7.000226,-126.011093
59497,NaN,-0.550273,9.920587,-0.589524,-0.161403,-0.683295,0.115824,0.090119,0.001827,0.341828,0.277115,0.362277,-0.620404,-0.638013,91.863686,6.801483,-126.019727
59498,NaN,-0.333625,9.706697,-0.508913,-0.321718,-0.762354,-0.122202,0.106082,0.054046,0.282872,0.277993,0.361680,-0.621195,-0.637200,91.926498,6.635347,-125.997617
59499,NaN,-0.116296,9.747204,-0.197485,-0.696106,-0.730413,-0.115141,0.073099,0.027179,0.222734,0.278649,0.361146,-0.621819,-0.636608,91.970894,6.504323,-125.989684
59500,NaN,-0.128907,9.434294,0.003790,-0.814674,-0.560083,-0.429451,0.045768,-0.013324,0.170250,0.279068,0.360598,-0.622307,-0.636258,91.994940,6.403758,-126.004402
59501,NaN,-0.521739,9.452398,0.046055,-0.616600,-0.205785,-0.368134,0.061855,-0.055036,0.126893,0.279184,0.360084,-0.622836,-0.635981,92.027811,6.329258,-126.042046
59502,NaN,-0.462827,9.679130,-0.044742,-0.596891,-0.310252,-0.145774,0.061291,-0.117101,0.091033,0.279001,0.359473,-0.623374,-0.635879,92.054335,6.276006,-126.115021
59503,NaN,-0.380289,9.748800,-0.088746,-0.615729,-0.397462,-0.083633,0.054596,-0.153352,0.070542,0.278643,0.358810,-0.623915,-0.635880,92.077070,6.235837,-126.208189
59504,NaN,-0.633719,9.575786,-0.045062,-0.485605,-0.147823,-0.229283,0.071312,-0.175878,0.071592,0.278198,0.358086,-0.624532,-0.635878,92.105782,6.194852,-126.314643
59505,NaN,-1.048542,9.500011,-0.199446,-0.111137,0.107435,-0.254156,0.095331,-0.209241,0.079088,0.277620,0.357275,-0.625293,-0.635838,92.148506,6.151079,-126.440210
59506,NaN,-1.009444,9.456131,-0.107154,-0.205459,0.146254,-0.305571,0.136077,-0.258030,0.103581,0.276903,0.356277,-0.626285,-0.635734,92.209349,6.093681,-126.594712
59507,NaN,-0.846718,9.442392,0.229874,-0.572745,0.235550,-0.349866,0.168218,-0.319351,0.126311,0.275999,0.355068,-0.627512,-0.635594,92.287269,6.025610,-126.784806
59508,NaN,-1.011391,9.281480,0.229158,-0.461176,0.395716,-0.493246,0.205645,-0.433688,0.146579,0.274743,0.353470,-0.629039,-0.635520,92.377601,5.948079,-127.041545
59509,NaN,-0.945066,9.245212,0.008992,-0.325784,0.233762,-0.527950,0.239322,-0.565737,0.160835,0.273044,0.351463,-0.630884,-0.635537,92.482066,5.866829,-127.374440
59510,NaN,-0.809054,9.357059,-0.213869,-0.248461,0.007576,-0.421574,0.288900,-0.639494,0.157321,0.271022,0.349284,-0.632963,-0.635536,92.608650,5.789320,-127.750083
59511,NaN,-0.683150,9.594490,-0.533079,-0.108545,-0.274805,-0.183683,0.326706,-0.653278,0.157509,0.268877,0.347118,-0.635183,-0.635419,92.759020,5.713791,-128.133510
59512,NaN,-0.142164,9.896729,-0.583596,-0.447924,-0.716886,0.066148,0.343641,-0.589952,0.133431,0.266834,0.345237,-0.637311,-0.635174,92.920807,5.650395,-128.480267
59513,NaN,0.344927,10.123935,-0.543208,-0.824759,-1.052965,0.243110,0.320653,-0.471075,0.104051,0.265103,0.343805,-0.639160,-0.634817,93.078938,5.602095,-128.757657
59514,NaN,-0.061443,10.195705,-0.531859,-0.606663,-0.708211,0.354386,0.268429,-0.336988,0.081087,0.263828,0.342786,-0.640614,-0.634434,93.212566,5.562259,-128.957610
59515,NaN,-0.460394,10.125716,-0.606654,-0.307616,-0.424072,0.328102,0.224971,-0.252248,0.050751,0.262789,0.342089,-0.641772,-0.634072,93.328556,5.538600,-129.107676
59516,NaN,-0.543847,10.094469,-0.628572,-0.249194,-0.356241,0.306607,0.218898,-0.217439,0.033263,0.261829,0.341534,-0.642825,-0.633701,93.440782,5.522728,-129.237444
59517,NaN,-0.777045,10.013179,-0.464103,-0.234287,-0.053873,0.238438,0.210307,-0.215747,0.034656,0.260880,0.340983,-0.643857,-0.633340,93.550524,5.507585,-129.366056
59518,NaN,-1.253297,9.877014,-0.483958,0.084308,0.317818,0.149854,0.194805,-0.233898,0.020261,0.259866,0.340385,-0.644830,-0.633089,93.648164,5.500155,-129.504855
59519,NaN,-1.447708,9.743966,-0.486873,0.212401,0.481883,0.036193,0.210009,-0.232776,0.029601,0.258846,0.339794,-0.645872,-0.632762,93.756858,5.488995,-129.643110
59520,NaN,-1.398220,9.808483,-0.518257,0.186396,0.436183,0.097152,0.225976,-0.208320,0.055523,0.257971,0.339202,-0.646968,-0.632318,93.873697,5.461052,-129.768583
59521,NaN,-1.231781,9.814888,-0.787768,0.273890,0.151884,0.105567,0.221165,-0.214290,0.073145,0.257128,0.338542,-0.648092,-0.631864,93.989748,5.424827,-129.897975
59522,NaN,-0.942178,10.047579,-1.002852,0.215581,-0.196203,0.324484,0.226462,-0.192664,0.094446,0.256425,0.337873,-0.649231,-0.631338,94.107751,5.374611,-130.016129
59523,NaN,-1.196182,10.107698,-1.014610,0.371608,0.007374,0.409234,0.175400,-0.125927,0.107414,0.256052,0.337320,-0.650152,-0.630837,94.202380,5.315636,-130.096353
59524,NaN,-1.308567,9.879966,-1.084309,0.518379,0.071442,0.198704,0.160524,-0.102331,0.123834,0.255845,0.336756,-0.651015,-0.630332,94.287591,5.245236,-130.164053
59525,NaN,-0.961602,9.886722,-1.098630,0.302017,-0.183441,0.175007,0.156027,-0.089224,0.128028,0.255689,0.336226,-0.651861,-0.629804,94.373125,5.173141,-130.224280
59526,NaN,-0.823248,9.966079,-1.007829,0.132457,-0.212405,0.234875,0.145684,-0.055529,0.129618,0.255676,0.335771,-0.652626,-0.629259,94.452480,5.097634,-130.265563
59527,NaN,-1.069681,9.884041,-0.907462,0.223070,0.060734,0.167718,0.132928,-0.017758,0.140772,0.255831,0.335394,-0.653328,-0.628669,94.528484,5.015221,-130.285571
59528,NaN,-0.883014,9.863196,-0.908498,0.105673,-0.061839,0.130787,0.134055,0.016610,0.143177,0.256115,0.335107,-0.653985,-0.628022,94.604878,4.928814,-130.286295
59529,NaN,-0.581943,10.033863,-0.920821,-0.099623,-0.280992,0.275724,0.129390,0.037485,0.138094,0.256448,0.334907,-0.654600,-0.627352,94.681604,4.845422,-130.274730
59530,NaN,-0.601133,10.009423,-0.942802,-0.067596,-0.261036,0.255384,0.113137,0.069989,0.135604,0.256918,0.334785,-0.655110,-0.626693,94.748638,4.760812,-130.244718
59531,NaN,-0.903474,9.909762,-0.904194,0.110558,0.013448,0.178548,0.093729,0.089254,0.136599,0.257475,0.334706,-0.655542,-0.626054,94.807327,4.675776,-130.203622
59532,NaN,-0.756466,9.923454,-0.914609,0.024364,-0.087875,0.181079,0.089947,0.081139,0.129382,0.257999,0.334609,-0.655954,-0.625458,94.861559,4.594114,-130.167095
59533,NaN,-0.526044,10.036543,-0.907335,-0.139931,-0.243628,0.274593,0.060473,0.096565,0.118214,0.258578,0.334569,-0.656241,-0.624939,94.901469,4.519144,-130.121077
59534,NaN,-0.604878,9.917185,-0.915876,-0.064165,-0.175369,0.163303,0.024503,0.119818,0.111015,0.259281,0.334568,-0.656366,-0.624516,94.919935,4.445998,-130.061605
59535,NaN,-0.813376,9.646282,-0.904905,0.096030,0.004519,-0.090448,0.066475,0.122218,0.099599,0.259876,0.334678,-0.656607,-0.623957,94.964363,4.380339,-130.000066
59536,NaN,-0.506858,9.920833,-0.831776,-0.187452,-0.168622,0.152658,0.108327,0.115950,0.093873,0.260372,0.334829,-0.656970,-0.623287,95.030644,4.317089,-129.942063
59537,NaN,-0.501632,9.832872,-0.794006,-0.211514,-0.132199,0.061786,0.115048,0.142140,0.094387,0.260934,0.335080,-0.657326,-0.622541,95.103625,4.253263,-129.869012
59538,NaN,-0.571511,10.061640,-0.718530,-0.249188,-0.017282,0.287665,0.013234,0.164590,0.084756,0.261721,0.335289,-0.657313,-0.622112,95.117374,4.192578,-129.782837
59539,NaN,-0.297769,9.536879,-0.837235,-0.269281,-0.294239,-0.242808,0.034607,0.170956,0.079775,0.262466,0.335572,-0.657355,-0.621600,95.145358,4.135532,-129.692632
59540,NaN,-0.279790,9.876663,-0.723631,-0.404216,-0.222680,0.083645,0.076600,0.209055,0.091979,0.263315,0.335977,-0.657492,-0.620877,95.197016,4.068293,-129.581467
59541,NaN,-0.360035,9.990988,-0.695535,-0.385773,-0.129303,0.200688,0.043291,0.258207,0.097728,0.264388,0.336482,-0.657475,-0.620165,95.233206,3.996328,-129.442389
59542,NaN,-0.016108,9.678714,-0.715882,-0.547338,-0.397548,-0.131127,0.010493,0.319346,0.085180,0.265689,0.337163,-0.657247,-0.619481,95.251063,3.926992,-129.267888
59543,NaN,-0.255506,9.777377,-0.709350,-0.408149,-0.196275,-0.016748,0.057455,0.385507,0.095724,0.267148,0.338087,-0.657098,-0.618507,95.299956,3.849317,-129.056009
59544,NaN,-0.870701,9.599578,-0.752049,0.034297,0.267670,-0.148177,0.053687,0.439292,0.107833,0.268840,0.339118,-0.656877,-0.617443,95.346518,3.760342,-128.814261
59545,NaN,-1.115677,9.663984,-0.819228,0.232190,0.435700,-0.062576,0.104127,0.425915,0.124481,0.270439,0.340132,-0.656861,-0.616203,95.422884,3.663688,-128.581025
59546,NaN,-0.912044,9.830324,-0.839872,0.101928,0.288019,0.090801,0.110206,0.431394,0.140355,0.272105,0.341105,-0.656873,-0.614917,95.500582,3.556125,-128.345829
59547,NaN,-1.172115,9.915702,-0.888560,0.294729,0.484353,0.195461,0.014840,0.458747,0.166565,0.274091,0.341957,-0.656603,-0.613851,95.525892,3.433141,-128.096429
59548,NaN,-0.934739,9.579852,-1.214277,0.449423,0.116251,-0.122166,0.046733,0.497788,0.218734,0.276320,0.342787,-0.656454,-0.612546,95.568125,3.276983,-127.827870
59549,NaN,-1.363370,9.874092,-0.998812,0.515635,0.624934,0.172178,0.170240,0.547679,0.267394,0.278636,0.343789,-0.656700,-0.610669,95.683612,3.091023,-127.533675
59550,NaN,-1.705666,9.361208,-1.225050,0.958920,0.791765,-0.299766,0.214640,0.506012,0.306937,0.280868,0.344583,-0.657193,-0.608665,95.820322,2.883319,-127.266131
59551,NaN,-0.995018,10.114667,-1.109826,0.354344,0.359718,0.398733,0.239613,0.434812,0.325249,0.282865,0.345142,-0.657895,-0.606662,95.970134,2.669648,-127.040734
59552,NaN,-0.229956,9.940578,-0.929159,-0.229455,-0.096699,0.170753,0.301496,0.336653,0.366152,0.284564,0.345344,-0.658981,-0.604570,96.150126,2.437237,-126.874562
59553,NaN,-0.462572,9.043568,-1.022251,0.073997,0.061331,-0.700304,0.541236,0.242164,0.377995,0.285561,0.345568,-0.660947,-0.601820,96.466318,2.204040,-126.763917
59554,NaN,0.531271,10.724019,-0.717476,-0.975351,-0.423856,0.895727,0.626878,0.222006,0.364560,0.286308,0.345884,-0.663160,-0.598841,96.828940,1.978452,-126.665354
59555,NaN,0.757657,10.867609,-0.784276,-1.086596,-0.582315,1.039692,0.212505,0.357414,0.287974,0.287979,0.346272,-0.663806,-0.597097,96.958216,1.787417,-126.485343
59556,NaN,-0.267113,10.007131,-1.288398,0.028415,-0.059131,0.280358,0.165789,0.431222,0.282579,0.289969,0.346818,-0.664186,-0.595392,97.059498,1.592993,-126.263453
59557,NaN,0.307376,10.472955,-1.209567,-0.415523,-0.412210,0.718104,0.096938,0.473870,0.369322,0.292465,0.347111,-0.664451,-0.593703,97.122796,1.346849,-126.023660
59558,NaN,0.200462,9.502906,-1.580672,0.064999,-0.553352,-0.193262,0.269030,0.563937,0.268705,0.294670,0.348243,-0.664907,-0.591435,97.283183,1.149986,-125.726002
59559,NaN,0.306283,11.169207,-0.743389,-0.854411,-0.012517,1.352762,0.153970,0.631950,0.341635,0.297504,0.349170,-0.665047,-0.589308,97.378941,0.907017,-125.395411
59560,NaN,-0.168623,9.828073,-1.629503,0.295271,-0.170803,0.145132,0.278191,0.729281,0.299207,0.300326,0.350694,-0.665318,-0.586660,97.543444,0.679115,-125.006993
59561,NaN,-0.590258,10.886177,-1.184779,0.061941,0.548993,1.139732,0.135838,0.775776,0.370289,0.303743,0.351908,-0.665221,-0.584279,97.626758,0.407530,-124.598000
59562,NaN,-1.230228,10.374419,-1.659552,0.888306,0.828382,0.695428,0.054694,0.805154,0.461400,0.307673,0.352765,-0.664982,-0.581974,97.659629,0.080606,-124.179594
59563,NaN,-1.064831,10.728635,-1.889330,0.973128,0.655134,1.069884,0.024762,0.841326,0.582070,0.312108,0.353282,-0.664804,-0.579497,97.674537,-0.316832,-123.749975
59564,NaN,-0.816941,10.977974,-1.635808,0.635006,0.686826,1.277105,0.095889,0.974943,0.683554,0.317155,0.353940,-0.664775,-0.576380,97.724546,-0.783046,-123.252495
59565,NaN,-1.392649,10.967073,-1.501654,0.886809,1.333179,1.228427,-0.069153,1.133553,0.893354,0.323603,0.354089,-0.664368,-0.573164,97.675742,-1.379914,-122.680979
59566,NaN,-2.279814,11.126877,-1.427404,1.336265,2.248964,1.331700,0.104518,1.227432,1.021082,0.330410,0.354336,-0.664487,-0.568974,97.717053,-2.056802,-122.065724
59567,NaN,-2.397214,11.562505,-1.157130,1.172646,2.675207,1.687009,0.130794,1.231996,1.225430,0.337737,0.353943,-0.664996,-0.564303,97.767837,-2.850223,-121.463946
59568,NaN,-2.237906,12.555743,-0.608794,0.589828,3.099014,2.559479,0.155158,1.190913,1.450802,0.345496,0.352694,-0.665978,-0.559207,97.824219,-3.768625,-120.903294
59569,NaN,-2.827402,13.545693,0.895645,-0.411520,4.674047,3.235759,0.138457,1.138974,1.642116,0.353609,0.350603,-0.667287,-0.553864,97.866653,-4.792359,-120.387444
59570,NaN,-3.213515,13.686396,0.334513,0.325686,4.967928,3.338889,0.222714,1.044335,1.822087,0.361721,0.347761,-0.669228,-0.548045,97.951992,-5.910234,-119.939963
59571,NaN,-2.551844,15.636928,1.503880,-1.069697,5.530789,5.071692,0.313301,1.103743,2.050726,0.370455,0.344438,-0.671637,-0.541322,98.080543,-7.164511,-119.478245
59572,NaN,-4.054323,15.441251,0.801759,0.354445,6.777386,4.659426,0.595834,1.184945,2.249697,0.379454,0.341141,-0.674880,-0.533080,98.354035,-8.537774,-118.989278
59573,NaN,-5.187631,18.244489,1.279116,0.358526,8.928725,6.966379,0.814392,1.307070,2.478297,0.389031,0.337743,-0.678753,-0.523334,98.736183,-10.055803,-118.456362
59574,NaN,-6.682184,19.275215,1.264420,1.052529,10.930091,7.426151,0.804575,1.347948,2.851252,0.399639,0.333097,-0.682963,-0.512735,99.097669,-11.788268,-117.940374
59575,NaN,-7.908478,20.454476,2.103530,0.853705,13.213601,7.793548,0.890397,1.462146,3.236464,0.411368,0.327490,-0.687626,-0.500696,99.490792,-13.756089,-117.403549
59576,NaN,-10.369218,21.496265,3.480451,0.729150,16.832518,7.443876,0.783158,1.457437,3.716239,0.424288,0.319901,-0.692524,-0.487907,99.813839,-15.991545,-116.923988
59577,NaN,-13.181546,21.456821,3.811770,1.696631,20.023158,5.832612,0.973503,1.340965,4.093150,0.437244,0.310961,-0.698459,-0.473578,100.266723,-18.437229,-116.563925
59578,NaN,-15.507315,22.547765,2.947308,3.472349,22.730568,5.309973,1.118442,1.084267,4.403295,0.449561,0.300527,-0.705371,-0.458292,100.851244,-21.023812,-116.408337
59579,NaN,-12.494878,22.453031,0.090386,4.889063,19.833645,5.771200,1.265086,0.727553,4.730124,0.460913,0.288238,-0.713552,-0.441952,101.628594,-23.765600,-116.541544
59580,NaN,-6.808351,22.097594,-2.262929,4.816739,14.977774,7.279000,1.536942,0.416006,4.890171,0.470783,0.275198,-0.722768,-0.424541,102.672573,-26.542907,-116.936706
59581,NaN,0.000018,21.528005,-3.903919,3.665093,9.596953,9.502225,1.528801,0.444089,4.638704,0.479975,0.262870,-0.731159,-0.407345,103.742444,-29.190751,-117.347720
59582,NaN,6.792604,20.962983,-2.166758,-0.488698,5.587014,11.605441,0.905563,0.071232,4.636983,0.488293,0.248220,-0.738690,-0.392801,104.616252,-31.762054,-118.057132
59583,NaN,7.029777,19.979293,-7.722619,4.706269,3.907431,11.883870,0.598472,-0.443510,4.377405,0.494375,0.232558,-0.746224,-0.380342,105.545248,-34.119820,-119.131658
59584,NaN,3.176362,13.976110,-9.448112,7.763428,3.212347,5.156272,1.519555,-0.340277,3.586876,0.498002,0.222303,-0.753953,-0.366236,106.945529,-36.023007,-120.062114
59585,NaN,-2.956348,12.262265,-4.126775,5.369642,8.576430,-1.225803,0.568718,-0.095201,2.850405,0.502163,0.212753,-0.758345,-0.357044,107.678489,-37.567931,-120.739022
59586,NaN,-5.957971,5.736369,-1.543928,4.058827,7.304769,-8.838126,-0.435306,0.313998,2.400794,0.507994,0.203176,-0.759252,-0.352418,107.617377,-38.916401,-121.050805
59587,NaN,-1.753272,2.158858,-4.788967,5.198206,1.052146,-8.218942,-0.116987,0.734663,1.440720,0.513409,0.198674,-0.758643,-0.348426,107.429807,-39.832253,-120.858269
59588,NaN,-13.379957,7.971350,4.129369,1.851005,15.578702,-13.485970,-0.320383,1.333817,0.058095,0.518798,0.200032,-0.754680,-0.348272,106.637890,-40.069985,-119.917178
59589,NaN,-16.166877,3.841058,1.366909,5.060006,13.790862,-17.699143,-1.013785,1.243074,-0.145957,0.524217,0.200088,-0.749545,-0.351202,105.465504,-40.188603,-118.996919
59590,NaN,-12.715482,4.011440,1.859881,3.206908,11.825372,-15.390179,-0.299909,0.904532,-0.852004,0.526313,0.204179,-0.745753,-0.353776,104.762150,-39.831518,-118.176672
59591,NaN,-10.420712,5.364483,1.856767,2.385695,11.240505,-12.774528,-0.335010,0.572738,-1.626689,0.525879,0.210346,-0.741990,-0.358689,104.122673,-39.012937,-117.469435
59592,NaN,-9.448716,5.086100,1.809195,2.022770,10.435845,-12.139853,-0.566571,0.208265,-2.329720,0.522934,0.217968,-0.737889,-0.366811,103.449822,-37.721784,-116.915322
59593,NaN,-7.989056,5.822482,1.923815,1.427732,9.950265,-10.423828,-0.646977,-0.109271,-2.945803,0.517760,0.226896,-0.733720,-0.376959,102.841210,-36.066193,-116.516420
59594,NaN,-6.619234,6.383944,2.367314,0.556574,9.437229,-8.922917,-0.962893,-0.310292,-3.609459,0.510714,0.237138,-0.728441,-0.390270,102.093350,-33.983490,-116.182896
59595,NaN,-5.488479,7.092877,2.751998,-0.164824,9.066086,-7.410422,-1.292262,-0.407687,-4.202062,0.502424,0.248265,-0.721828,-0.406077,101.191293,-31.580637,-115.881657
59596,NaN,-5.035267,6.879280,2.520431,-0.115789,8.400574,-6.908819,-1.504971,-0.436793,-4.658919,0.492992,0.260458,-0.713811,-0.423786,100.178348,-28.884728,-115.593476
59597,NaN,-4.429816,7.908360,1.971388,0.208642,8.063329,-5.233174,-1.397557,-0.437123,-5.000984,0.482477,0.273822,-0.705200,-0.441509,99.257919,-26.020705,-115.330821
59598,NaN,-3.492593,9.455337,1.207072,0.584062,7.434891,-2.926829,-1.371248,-0.562125,-5.214515,0.470562,0.287679,-0.696059,-0.459689,98.402208,-22.991372,-115.177083
59599,NaN,-2.536872,10.372003,0.379940,0.947442,6.288319,-1.228517,-1.444346,-0.765140,-5.397749,0.457374,0.301167,-0.686528,-0.478317,97.579143,-19.870385,-115.185517
59600,NaN,-1.651747,11.247646,0.273787,0.634946,5.281116,0.236381,-1.417802,-0.954236,-5.561668,0.442609,0.314724,-0.676566,-0.497296,96.807501,-16.611884,-115.337693
59601,NaN,0.027661,12.636611,-0.030601,0.128564,3.502724,2.326312,-1.357655,-1.081551,-5.634575,0.426877,0.327927,-0.666453,-0.515830,96.099628,-13.337014,-115.603129
59602,NaN,2.180223,13.516987,-0.289754,-0.687289,0.986327,3.827245,-1.570837,-1.059902,-5.648095,0.411028,0.340628,-0.655007,-0.534785,95.251107,-10.027853,-115.895352
59603,NaN,2.854866,13.087232,-0.697069,-0.765477,-0.638381,3.561456,-1.541353,-0.949803,-5.604787,0.395371,0.353100,-0.643038,-0.552724,94.410044,-6.784931,-116.173632
59604,NaN,3.403041,13.312461,-1.167316,-0.770726,-2.055751,3.799508,-1.490569,-0.941441,-5.564059,0.377709,0.363387,-0.631849,-0.571010,93.594133,-3.572710,-116.836683
59605,NaN,4.431801,13.887110,-1.376380,-1.261234,-3.785857,4.272977,-1.325751,-0.826658,-5.507114,0.361623,0.375743,-0.619391,-0.586857,92.846315,-0.398633,-117.135877
59606,NaN,4.725370,14.260014,-1.144784,-1.848223,-4.684371,4.384887,-1.369934,-0.832905,-5.326291,0.344299,0.385628,-0.607664,-0.602904,92.061291,2.668577,-117.775201
59607,NaN,4.874406,13.590976,-1.369211,-1.884836,-5.617243,3.423402,-1.318840,-0.919635,-5.109794,0.328516,0.395943,-0.595231,-0.617257,91.274901,5.607399,-118.221109
59608,NaN,5.172545,13.948244,-1.605131,-2.070232,-6.663824,3.421552,-1.218233,-0.957382,-4.876372,0.311578,0.404162,-0.584064,-0.631222,90.518711,8.410686,-118.970137
59609,NaN,5.761136,14.378778,-2.006583,-2.249660,-8.035876,3.388950,-1.063730,-0.988172,-4.628704,0.296138,0.412754,-0.572751,-0.643345,89.814332,11.061330,-119.540020
59610,NaN,6.882172,14.794418,-2.168997,-2.924065,-9.714241,3.148042,-0.915328,-1.121606,-4.376819,0.280512,0.420261,-0.562176,-0.654716,89.134692,13.586230,-120.230285
59611,NaN,7.861423,14.734280,-2.040308,-3.754417,-10.954889,2.390455,-0.851923,-1.253754,-4.059429,0.265420,0.426243,-0.552513,-0.665281,88.445374,15.893326,-121.026932
59612,NaN,8.581286,14.552541,-2.093193,-4.295879,-11.941599,1.532138,-0.660905,-1.319247,-3.650086,0.250858,0.431009,-0.544077,-0.674745,87.805510,17.979164,-121.897747
59613,NaN,9.627636,14.297134,-2.431194,-4.755966,-13.201105,0.487446,-0.498178,-1.394530,-3.198577,0.237305,0.434284,-0.537197,-0.683011,87.220441,19.772257,-122.828664
59614,NaN,12.100236,13.327842,-3.517259,-5.218330,-15.640022,-1.778308,-0.432941,-1.409357,-2.755219,0.224905,0.436320,-0.531250,-0.690519,86.627689,21.322264,-123.790237
59615,NaN,13.951255,12.479286,-5.173760,-4.902804,-17.799885,-3.792587,-0.505298,-1.347890,-2.358704,0.214259,0.437291,-0.525852,-0.697387,85.992517,22.617964,-124.718318
59616,NaN,16.563894,11.584517,-7.875819,-4.123182,-20.997507,-6.252575,-0.470070,-1.328176,-1.927669,0.204963,0.437194,-0.521307,-0.703627,85.352772,23.674793,-125.644045
59617,NaN,18.059467,13.093147,-8.522942,-4.876088,-23.052971,-5.941950,-0.504518,-1.150910,-1.497756,0.197785,0.436480,-0.517440,-0.708959,84.737363,24.469464,-126.448008
59618,NaN,14.975488,13.100626,-6.962261,-4.644774,-19.958589,-4.869188,-0.793267,-0.732601,-1.111304,0.193607,0.435947,-0.512858,-0.713753,84.052596,25.070367,-126.985391
59619,NaN,10.880456,11.697019,-5.958984,-3.043125,-15.918749,-4.516942,-0.583709,-0.386343,-0.687624,0.191431,0.435730,-0.509671,-0.716749,83.594592,25.434852,-127.278790
59620,NaN,11.709952,11.932714,-5.436658,-3.972005,-16.345365,-4.701723,-0.265129,-0.147241,-0.115935,0.191171,0.435221,-0.508575,-0.717905,83.392029,25.495839,-127.387669
59621,NaN,13.785511,11.111656,-6.342078,-4.209279,-18.014575,-6.423296,-0.106183,0.116064,0.256673,0.192617,0.434852,-0.508668,-0.717677,83.370889,25.354006,-127.298943
59622,NaN,15.013271,10.887479,-6.871139,-4.366879,-19.101091,-7.124708,0.023116,0.192418,0.668498,0.195427,0.433829,-0.510002,-0.716588,83.450825,24.987335,-127.135862
59623,NaN,16.037041,10.560932,-6.538904,-5.087464,-19.516403,-7.644594,0.129822,0.278724,1.083812,0.199735,0.432153,-0.512565,-0.714582,83.630540,24.384856,-126.887507
59624,NaN,13.825289,9.710846,-5.551356,-4.479524,-17.005629,-7.168187,0.277725,0.474119,1.375984,0.205256,0.430544,-0.516050,-0.711473,83.944429,23.627955,-126.503629
59625,NaN,10.573299,8.435652,-4.718855,-3.118708,-13.631011,-6.700419,0.424800,0.518811,1.656247,0.211562,0.428504,-0.520601,-0.707532,84.356134,22.710853,-126.079954
59626,NaN,9.064882,6.135724,-4.370982,-2.197113,-11.430518,-7.959069,0.613001,0.261407,1.911575,0.217694,0.425028,-0.526585,-0.703327,84.808230,21.629195,-125.811415
59627,NaN,9.042097,4.368613,-4.075190,-2.172887,-10.606052,-9.325860,0.760452,-0.067973,2.058101,0.223121,0.420142,-0.533702,-0.699185,85.268719,20.447712,-125.746901
59628,NaN,8.006067,2.811050,-2.959373,-2.345365,-8.669605,-10.113978,0.973435,-0.344723,2.011412,0.227199,0.414572,-0.541716,-0.695021,85.786934,19.275937,-125.864140
59629,NaN,0.118177,4.003889,-5.216160,3.675466,-4.257855,-6.404707,1.254383,-0.633519,1.745173,0.228930,0.409011,-0.550405,-0.690908,86.406338,18.250366,-126.177911
59630,NaN,-36.392862,1.736140,2.020846,18.624154,28.557896,3.191700,-0.423808,-0.498531,0.914767,0.231611,0.404223,-0.551416,-0.692026,86.082390,17.700321,-126.444383
59631,NaN,-38.836961,33.836938,0.649534,17.187648,20.667372,34.131642,2.547102,-1.656747,0.492419,0.223569,0.400004,-0.563104,-0.687697,87.248290,17.360203,-127.424152
59632,NaN,45.253942,123.883206,16.743437,-57.531250,-54.370165,96.985557,2.970240,-0.262068,4.050678,0.230737,0.390865,-0.581553,-0.675116,88.929516,15.033637,-127.503341
59633,NaN,0.176080,-5.956972,8.646772,-6.392313,6.366835,-15.182804,-6.861834,0.820787,2.129036,0.253561,0.379244,-0.561255,-0.690561,85.135741,13.836770,-126.956481
59634,NaN,-20.996472,-64.626570,-37.949542,46.214028,10.112359,-71.604942,-4.280210,-0.052302,2.853904,0.271339,0.365429,-0.551803,-0.698821,82.714502,12.197775,-126.812766
59635,NaN,4.914729,-5.264895,3.545868,-5.405972,-0.644312,-15.709676,10.181793,-0.310881,0.252715,0.252414,0.376948,-0.587558,-0.670054,88.513472,12.036551,-126.986085
59636,NaN,3.501406,38.845434,12.502809,-16.332999,-1.965824,27.695402,1.839303,-0.810199,0.636234,0.248701,0.374618,-0.595946,-0.665325,89.472345,11.657485,-127.456722
59637,NaN,-6.043200,20.242115,-3.358218,4.134831,-0.544553,11.166477,-0.526937,-0.534227,2.421214,0.256126,0.364910,-0.599371,-0.664827,89.115434,10.263462,-127.754323
59638,NaN,0.162208,12.640715,-5.746536,3.241460,-5.451274,2.540883,0.643703,-0.365660,1.338566,0.258321,0.360442,-0.604438,-0.661820,89.449807,9.486662,-127.960310
59639,NaN,1.952014,6.826367,1.221235,-2.754497,-1.663440,-3.367079,-0.149846,0.189859,1.485494,0.264068,0.356346,-0.606383,-0.659988,89.383770,8.633594,-127.844646
59640,NaN,-0.115406,6.061899,3.397772,-3.114223,1.453127,-3.771641,0.602893,0.050360,1.233151,0.267235,0.353506,-0.610527,-0.656411,89.735113,7.919540,-127.812919
59641,NaN,0.781409,10.619602,1.453559,-2.481773,-0.836658,0.610293,0.803099,-0.162564,1.028591,0.268684,0.350867,-0.615211,-0.652852,90.184018,7.327073,-127.909747
59642,NaN,-0.525208,11.240423,-1.986593,0.987636,-1.856241,1.418835,0.562569,-0.265062,1.033794,0.270278,0.347513,-0.619242,-0.650171,90.487718,6.727714,-128.069296
59643,NaN,0.208817,11.015776,-2.138402,0.687344,-2.383062,1.133137,0.612990,-0.187769,0.922676,0.271622,0.344838,-0.623108,-0.647336,90.827299,6.197306,-128.186969
59644,NaN,1.372269,8.766611,0.277232,-1.741734,-1.523780,-1.241964,0.515597,-0.082330,0.807812,0.273114,0.342694,-0.626313,-0.644749,91.117959,5.727265,-128.245244
59645,NaN,0.741754,9.088438,0.296579,-1.394950,-0.956784,-0.847423,0.647048,-0.000197,0.650132,0.274093,0.341506,-0.629532,-0.641822,91.489143,5.351880,-128.257204
59646,NaN,0.765889,10.013982,0.122710,-1.360411,-1.052451,0.082892,0.680550,0.096437,0.529137,0.274958,0.341021,-0.632520,-0.638766,91.884219,5.038869,-128.213683
59647,NaN,0.598824,10.320736,0.171665,-1.343715,-0.825839,0.405802,0.666652,0.141239,0.428247,0.275628,0.341000,-0.635206,-0.635816,92.273687,4.787786,-128.144818
59648,NaN,1.090641,10.044978,-0.322332,-1.263252,-1.434062,0.114156,0.636302,0.120795,0.330656,0.276006,0.341149,-0.637660,-0.633110,92.644122,4.587004,-128.086606
59649,NaN,0.618488,9.835477,-1.218423,-0.282929,-1.551527,-0.008806,0.597731,0.179757,0.207850,0.276210,0.341847,-0.639681,-0.630601,92.995608,4.460095,-127.992698
59650,NaN,0.077615,9.736707,-1.447545,0.206314,-1.216183,-0.046267,0.523583,0.213666,0.115316,0.276393,0.342813,-0.641270,-0.628379,93.305679,4.378651,-127.876754
59651,NaN,0.604165,9.995767,-1.349358,-0.248671,-1.539205,0.170798,0.449778,0.210105,0.026951,0.276373,0.343976,-0.642463,-0.626530,93.573830,4.353153,-127.760604
59652,NaN,0.408574,9.823192,-1.560629,0.023023,-1.484324,0.030775,0.377596,0.248796,-0.066567,0.276346,0.345429,-0.643225,-0.624958,93.802270,4.373194,-127.618479
59653,NaN,0.185388,10.017226,-1.596060,0.136524,-1.316697,0.245849,0.331545,0.340281,-0.142486,0.276415,0.347377,-0.643569,-0.623493,94.008986,4.438530,-127.421271
59654,NaN,0.086400,10.443896,-1.070388,-0.293072,-0.915613,0.642160,0.271062,0.464921,-0.203812,0.276836,0.349795,-0.643456,-0.622069,94.186958,4.527015,-127.149372
59655,NaN,-0.082326,10.337659,-0.697996,-0.508264,-0.553045,0.521571,0.237441,0.534242,-0.269124,0.277295,0.352618,-0.643007,-0.620734,94.349762,4.655191,-126.835105
59656,NaN,-0.322839,10.195499,-0.854568,-0.260312,-0.458297,0.410071,0.226574,0.529985,-0.346459,0.277555,0.355628,-0.642402,-0.619525,94.507061,4.820644,-126.518936
59657,NaN,-0.334999,9.816749,-1.482500,0.252791,-0.828129,0.083209,0.194965,0.508669,-0.415768,0.277546,0.358777,-0.641583,-0.618561,94.646752,5.032054,-126.211757
59658,NaN,-0.511913,10.048863,-1.648061,0.425467,-0.806064,0.342454,0.149675,0.571579,-0.486570,0.277637,0.362250,-0.640417,-0.617704,94.765101,5.274015,-125.864092
59659,NaN,-0.309637,10.735915,-1.047969,-0.295872,-0.659810,0.954433,0.086266,0.688892,-0.532578,0.278033,0.366169,-0.638783,-0.616907,94.855461,5.542209,-125.446824
59660,NaN,-0.508838,10.934673,-0.634228,-0.579297,-0.298494,1.132780,0.059089,0.784587,-0.582075,0.278665,0.370466,-0.636844,-0.616061,94.937797,5.827098,-124.971123
59661,NaN,-1.005704,10.547240,-0.731071,-0.211237,0.022344,0.805446,0.040193,0.820063,-0.623573,0.279271,0.374998,-0.634688,-0.615269,95.014374,6.139511,-124.472829
59662,NaN,-1.261435,10.128178,-0.934203,0.110068,0.092433,0.435385,0.028596,0.840120,-0.645786,0.279926,0.379606,-0.632425,-0.614474,95.088138,6.456707,-123.960711
59663,NaN,-1.210910,10.364669,-0.691812,-0.193505,0.136468,0.642688,0.019681,0.882765,-0.639546,0.280704,0.384332,-0.630054,-0.613617,95.162833,6.773733,-123.424147
59664,NaN,-1.370587,10.841876,-0.356345,-0.493931,0.389292,1.103168,-0.008755,0.913818,-0.615478,0.281740,0.388997,-0.627594,-0.612723,95.225680,7.068647,-122.869826
59665,NaN,-2.218396,10.459711,-0.403290,0.012885,1.047879,0.835833,-0.085664,0.982437,-0.565669,0.283245,0.393625,-0.624864,-0.611863,95.252342,7.337249,-122.278537
59666,NaN,-3.414461,10.176437,-1.005696,1.149204,1.713198,0.769086,-0.087636,1.007264,-0.469071,0.285157,0.397983,-0.622278,-0.610790,95.280823,7.543211,-121.677261
59667,NaN,-2.174701,10.463679,-1.068154,0.487693,0.598722,0.900039,-0.221986,1.049745,-0.286752,0.287978,0.401729,-0.619551,-0.609787,95.236651,7.648940,-121.061385
59668,NaN,-1.096508,13.152661,-0.017092,-1.352478,0.009270,3.316109,-0.394871,1.069407,-0.519931,0.290523,0.405966,-0.615791,-0.609582,95.097584,7.882120,-120.421637
59669,NaN,-2.615305,10.031784,0.445741,-0.469706,1.676113,0.416821,-1.921079,1.063439,-0.284917,0.296804,0.407239,-0.607802,-0.613710,94.084501,7.993279,-119.798744
59670,NaN,-4.060778,4.857508,-1.841296,2.958344,2.148987,-4.325823,-0.820997,0.583802,-0.043522,0.300143,0.407882,-0.604360,-0.615058,93.661144,7.987313,-119.463277
59671,NaN,-2.750630,10.514373,-1.910305,1.660776,0.493958,1.085237,0.459772,0.543593,-0.125498,0.300453,0.410591,-0.604726,-0.612740,93.970107,8.035494,-119.148095
59672,NaN,-1.656681,12.231663,0.540465,-1.181099,0.586436,2.471847,-1.208279,0.585422,-0.025254,0.304646,0.410582,-0.600118,-0.615201,93.325336,8.020837,-118.812328
59673,NaN,-3.076950,6.390739,-1.289524,1.867908,1.446023,-3.001549,-0.889697,0.391560,0.529936,0.309266,0.408805,-0.597892,-0.616245,92.845387,7.702689,-118.606119
59674,NaN,-2.614129,8.297566,-0.982619,1.220485,1.042061,-1.206113,-0.123938,0.198035,0.565918,0.311878,0.407476,-0.598396,-0.615319,92.787414,7.365721,-118.511073
59675,NaN,-1.797582,9.055485,-0.354678,0.242504,0.606403,-0.596827,-0.233570,0.120037,0.595664,0.314538,0.405668,-0.598729,-0.614836,92.661388,7.018644,-118.461597
59676,NaN,-1.842725,9.375922,-0.298688,0.231365,0.686711,-0.280253,-0.289140,0.092136,0.636638,0.317378,0.403536,-0.599020,-0.614496,92.500327,6.644580,-118.428209
59677,NaN,-2.014098,8.461142,-1.004890,1.061155,0.620570,-1.144021,-0.062168,0.003061,0.775523,0.319887,0.401092,-0.600413,-0.613435,92.463963,6.197661,-118.449210
59678,NaN,-1.630472,9.017025,-0.405603,0.331288,0.606369,-0.666566,0.354706,-0.043843,0.960666,0.322008,0.398584,-0.603526,-0.610899,92.662415,5.641841,-118.502358
59679,NaN,-1.714179,9.288770,-0.227974,0.205948,0.852106,-0.405139,0.487632,-0.031287,1.157244,0.324463,0.395745,-0.607388,-0.607609,92.938426,4.977558,-118.556282
59680,NaN,-2.176167,9.784393,-0.094047,0.275287,1.422403,0.105897,0.652665,-0.049077,1.217698,0.326734,0.392897,-0.611882,-0.603720,93.307478,4.275591,-118.625778
59681,NaN,-1.863353,10.218175,0.279537,-0.235231,1.453609,0.472797,0.711495,-0.129849,1.239439,0.328666,0.389836,-0.616688,-0.599752,93.708440,3.568472,-118.747200
59682,NaN,-1.760410,9.679143,-0.389222,0.345565,1.201739,-0.046888,0.826699,-0.187550,1.335924,0.330490,0.386452,-0.622094,-0.595341,94.173642,2.805732,-118.910509
59683,NaN,-0.665504,9.465851,-1.265277,0.590659,-0.022021,-0.257868,0.974278,-0.209664,1.467293,0.332302,0.382829,-0.628179,-0.590261,94.725611,1.974092,-119.099136
59684,NaN,0.283690,9.473240,-1.368359,0.195465,-0.726266,-0.266665,1.236110,-0.177528,1.559158,0.333980,0.379395,-0.635108,-0.584084,95.429631,1.087013,-119.282866
59685,NaN,0.306694,9.864875,-0.664776,-0.498687,-0.196681,0.064600,1.351686,-0.094732,1.600453,0.335763,0.376244,-0.642242,-0.577260,96.204052,0.177533,-119.433347
59686,NaN,0.548133,10.218057,-0.217791,-1.075769,0.036833,0.365434,1.312310,-0.081765,1.615252,0.337691,0.372956,-0.649204,-0.570442,96.957463,-0.742683,-119.589270
59687,NaN,0.981175,10.306038,-0.798775,-0.809501,-0.429323,0.530101,0.674462,-0.169268,1.450412,0.340001,0.368863,-0.654124,-0.566093,97.349596,-1.557794,-119.792628
59688,NaN,1.543787,10.186433,-0.659285,-1.185233,-0.705192,0.418519,0.530127,-0.124476,1.274585,0.342232,0.365186,-0.658203,-0.562393,97.659644,-2.278743,-119.962152
59689,NaN,1.408814,10.387499,-0.809703,-0.988152,-0.509374,0.642134,0.352057,-0.041650,1.139437,0.344642,0.361886,-0.661360,-0.559342,97.868213,-2.924978,-120.077742
59690,NaN,1.614368,10.796071,-1.270333,-0.703788,-0.747861,1.128944,0.239292,-0.091331,1.061193,0.346887,0.358479,-0.664128,-0.556863,98.013703,-3.526299,-120.217121
59691,NaN,0.713570,11.291529,-0.871149,-0.602639,0.394455,1.511929,0.125549,-0.063097,0.970345,0.349141,0.355266,-0.666345,-0.554861,98.095037,-4.074293,-120.334717
59692,NaN,1.276793,11.807751,-0.610568,-1.111934,0.203363,2.025698,0.063516,0.010077,0.842935,0.351414,0.352543,-0.668026,-0.553139,98.136877,-4.559623,-120.400692
59693,NaN,2.160504,13.078328,-0.464512,-1.739478,-0.223879,3.334540,-0.057843,0.142626,0.688814,0.353886,0.350505,-0.668852,-0.551858,98.103549,-4.964443,-120.379112
59694,NaN,1.443064,13.693651,-0.085570,-1.694374,0.728478,3.832963,-0.190192,0.383193,0.489881,0.356869,0.349535,-0.668534,-0.550938,97.979162,-5.279532,-120.203577
59695,NaN,0.593785,14.171119,0.114074,-1.419215,1.655305,4.202723,-0.271898,0.644733,0.254839,0.360190,0.349943,-0.667102,-0.550252,97.792759,-5.477434,-119.859822
59696,NaN,-0.523486,14.609845,1.168786,-1.763810,3.193189,4.392243,-0.296913,0.868170,0.098322,0.363891,0.351414,-0.664914,-0.549528,97.575716,-5.606106,-119.375410
59697,NaN,-1.170530,14.637864,2.086145,-2.213023,4.161075,4.250627,-0.470229,0.920413,-0.088673,0.367519,0.353349,-0.661810,-0.549619,97.256183,-5.626409,-118.846985
59698,NaN,-2.304947,14.121979,1.792212,-1.347830,4.879482,3.690226,-0.538959,0.939948,-0.211849,0.371012,0.355587,-0.658241,-0.550115,96.892957,-5.578110,-118.298248
59699,NaN,-3.327162,13.825975,-0.001067,0.753790,4.848181,3.534753,-0.584038,0.965289,-0.295492,0.374399,0.358097,-0.654335,-0.550851,96.505207,-5.477141,-117.730146
59700,NaN,-3.932213,13.616173,-1.740580,2.605487,4.523687,3.477899,-0.504119,1.031889,-0.259838,0.377970,0.360791,-0.650558,-0.551129,96.157811,-5.399354,-117.126717
59701,NaN,-3.784356,14.157115,-1.701029,2.496329,4.453703,4.028248,-0.578651,1.189476,-0.247968,0.382182,0.363746,-0.646281,-0.551313,95.763154,-5.331525,-116.434645
59702,NaN,-4.994112,13.197782,-0.531396,2.039407,5.900211,2.853539,-0.372868,1.158953,-0.151066,0.386190,0.366667,-0.642769,-0.550691,95.486134,-5.314413,-115.765839
59703,NaN,-4.858237,13.068334,-0.043025,1.538333,5.973983,2.690540,-0.243996,0.867479,0.095988,0.389677,0.368245,-0.640620,-0.549685,95.302272,-5.418635,-115.277562
59704,NaN,-3.090070,14.197012,-1.683726,2.222771,3.872576,4.115730,0.086423,0.214557,0.336174,0.391129,0.367888,-0.641071,-0.548365,95.340522,-5.624566,-115.176033
59705,NaN,0.763041,15.502026,-4.176375,2.793483,-0.400483,6.010483,0.189555,-0.467042,0.565968,0.390824,0.365134,-0.643569,-0.547497,95.481125,-5.924905,-115.478069
59706,NaN,3.708471,14.044145,-5.478175,2.763410,-3.692340,5.010613,0.228733,-0.613424,0.883911,0.390844,0.361018,-0.647011,-0.546154,95.654431,-6.397080,-115.882868
59707,NaN,4.172350,13.877309,-4.521549,1.715603,-3.590013,4.836506,0.176814,-0.319957,1.177980,0.392690,0.356645,-0.650262,-0.543837,95.787204,-7.053102,-116.137844
59708,NaN,2.103671,14.681092,-4.003144,2.166080,-1.204140,5.347731,0.380940,0.224302,1.522533,0.396865,0.353007,-0.653569,-0.539195,96.000388,-7.936625,-116.102749
59709,NaN,-0.945418,15.902101,-4.284010,3.765664,1.884690,6.136632,0.531748,0.701385,1.944644,0.403429,0.349551,-0.657034,-0.532320,96.265212,-9.090078,-115.822693
59710,NaN,0.477568,18.004837,-6.476599,5.140519,0.525826,8.616234,0.819888,0.864685,2.405474,0.411196,0.345543,-0.661636,-0.523216,96.677350,-10.517559,-115.484305
59711,NaN,4.239078,21.420311,-7.752763,4.709262,-1.986547,12.786784,1.069647,1.093934,2.800207,0.420230,0.341270,-0.666967,-0.511954,97.206590,-12.188599,-115.051172
59712,NaN,7.310978,23.328847,-6.685088,2.586186,-2.993399,15.220308,1.104840,1.501234,3.379952,0.431912,0.336075,-0.672306,-0.498508,97.700196,-14.222143,-114.436893
59713,NaN,10.774377,23.157072,-5.105839,0.048634,-4.523823,15.835683,0.932109,1.870012,3.882799,0.446193,0.329589,-0.676980,-0.483716,98.028431,-16.575120,-113.655572
59714,NaN,10.854738,24.347216,-4.761903,0.048312,-3.039108,17.093408,1.075651,2.144242,3.909658,0.461003,0.323831,-0.681088,-0.467685,98.359890,-18.969540,-112.717791
59715,NaN,5.501766,25.923813,-2.693310,0.387233,3.962042,16.523941,0.789903,1.938632,3.942156,0.475417,0.316655,-0.684707,-0.452641,98.533740,-21.369476,-111.904727
59716,NaN,2.662317,22.657294,-1.881352,0.870600,6.362587,12.157025,0.676440,1.653213,3.894541,0.488695,0.308578,-0.688343,-0.438339,98.674018,-23.719280,-111.256147
59717,NaN,3.944635,25.419919,0.508998,-1.573861,8.089878,14.558917,0.628057,1.526473,4.125795,0.501888,0.299159,-0.692213,-0.423619,98.802043,-26.191166,-110.702870
59718,NaN,-0.191769,21.890040,0.300914,0.212069,10.746741,9.257874,-0.441559,1.382017,4.402042,0.516500,0.285648,-0.694229,-0.411921,98.339766,-28.803644,-110.247996
59719,NaN,-10.119569,15.487352,0.896115,2.816415,16.437286,-1.757606,-1.408977,1.087250,4.851310,0.532091,0.267293,-0.695244,-0.402578,97.398213,-31.644924,-109.978489
59720,NaN,-3.425026,10.892106,7.347552,-5.314423,10.719912,-3.395920,-0.597400,0.500301,4.766365,0.544039,0.250063,-0.698892,-0.391203,97.097405,-34.388274,-110.054296
59721,NaN,27.208809,21.549743,0.304574,-6.177026,-7.955720,23.400512,0.721482,0.373903,4.870849,0.553791,0.235639,-0.705189,-0.374830,97.619605,-37.186135,-110.237444
59722,NaN,15.504101,20.793776,0.145643,-2.433167,1.611971,15.958375,-0.938035,0.089172,4.415439,0.563323,0.217578,-0.708216,-0.365729,97.304150,-39.699335,-110.595604
59723,NaN,0.549961,16.654512,-0.725156,2.457800,10.208851,3.145225,-1.297167,0.368151,3.475794,0.572282,0.202231,-0.708492,-0.360050,96.592679,-41.704342,-110.641940
59724,NaN,-1.273574,12.625548,-2.577124,4.510532,8.596208,-1.244741,-1.184735,-0.098355,3.519893,0.579347,0.186164,-0.710083,-0.354236,96.173588,-43.699472,-111.026332
59725,NaN,-5.041434,8.274958,-0.921198,3.447875,8.780730,-7.416233,-0.389336,-0.678768,3.066032,0.582643,0.172905,-0.714150,-0.347304,96.527486,-45.405101,-111.846384
59726,NaN,-8.271703,6.975594,-0.546206,3.848231,10.066804,-10.917978,-0.415778,-1.206522,2.472953,0.582905,0.160764,-0.719017,-0.342626,97.178433,-46.725016,-113.082446
59727,NaN,-7.099531,16.555567,2.424336,2.676827,17.075569,-4.193384,-1.977789,-1.874093,3.342008,0.583333,0.139718,-0.723635,-0.341401,97.485164,-48.489969,-115.029820
59728,NaN,-5.746704,5.408524,0.514447,2.344119,7.499146,-10.705304,-3.611591,-2.071763,2.948596,0.583172,0.114961,-0.725336,-0.347250,97.030121,-50.009452,-117.162969
59729,NaN,-2.886323,3.869951,0.660768,1.243521,4.708521,-9.657726,-2.972214,-1.809491,2.417523,0.582371,0.094339,-0.726702,-0.351920,96.790885,-51.262536,-119.054108
59730,NaN,-3.241462,3.640636,-1.635064,3.524619,3.738255,-9.999189,-2.687840,-1.140247,1.670580,0.582323,0.078452,-0.725974,-0.357361,96.208732,-52.132391,-120.277531
59731,NaN,-4.805795,3.725942,-1.124642,3.678705,4.746429,-11.289064,-2.799400,-0.543465,0.946975,0.583062,0.065863,-0.722868,-0.364914,95.082450,-52.644421,-120.878492
59732,NaN,-5.442165,2.407028,-1.916458,4.227964,3.660097,-12.607357,-3.153404,-0.486745,0.590597,0.583311,0.053673,-0.718628,-0.374755,93.674730,-52.952743,-121.382247
59733,NaN,-1.065515,-0.159727,-3.267341,3.129168,-1.155159,-10.655070,-2.573594,-0.319701,0.389403,0.583521,0.044142,-0.714804,-0.382896,92.465456,-53.168602,-121.712153
59734,NaN,-1.284064,1.890275,-2.485662,3.295920,0.716523,-9.659426,-2.462689,-0.121720,-0.103981,0.583354,0.037128,-0.710363,-0.392051,91.144087,-53.098958,-121.826609
59735,NaN,-3.390523,0.804332,-2.479498,3.526693,0.987186,-12.021348,-2.534979,-0.145451,-0.555777,0.582159,0.031398,-0.705678,-0.402645,89.804445,-52.782884,-121.965945
59736,NaN,-9.188924,-2.056133,-2.035082,3.796851,2.287404,-18.365858,-2.351740,-0.137404,-1.260487,0.579420,0.028759,-0.701080,-0.414648,88.572316,-52.053901,-122.113564
59737,NaN,-9.278980,-0.995077,-0.528899,3.071281,3.937060,-17.714250,-2.339387,-0.300552,-1.564692,0.575392,0.026818,-0.696828,-0.427358,87.493547,-51.167026,-122.445299
59738,NaN,-7.659859,-2.713208,-2.212737,3.190138,1.151109,-17.521611,-1.962710,-0.171257,-2.155752,0.570355,0.028353,-0.692759,-0.440427,86.565716,-49.930286,-122.702175
59739,NaN,-9.688030,-12.776599,-5.173094,1.844646,-5.297288,-25.698687,0.473864,0.518311,-3.598013,0.564056,0.043280,-0.691722,-0.448875,86.642537,-47.858052,-122.441676
59740,NaN,-8.067275,-0.012361,0.820102,2.327357,5.177246,-15.601757,3.040683,0.138147,-6.358517,0.549216,0.074161,-0.696349,-0.456028,88.465361,-44.206980,-122.554502
59741,NaN,-8.498858,17.971940,5.447556,6.062192,18.269415,-2.442360,-2.135411,-1.079761,-3.201328,0.538831,0.076942,-0.693143,-0.472540,87.884160,-42.396538,-123.488717
59742,NaN,-7.113099,-5.253206,-3.365793,3.619611,-0.272140,-18.549884,-1.944371,-1.282321,-4.080104,0.525298,0.082837,-0.690234,-0.490691,87.495796,-40.080426,-124.592617
59743,NaN,-6.811953,2.142967,0.195352,3.755197,5.490074,-12.416826,-1.438028,-1.581018,-4.209514,0.509957,0.089660,-0.688947,-0.507205,87.491237,-37.713573,-125.894862
59744,NaN,-5.986353,3.023788,0.161545,3.924776,5.323106,-10.933769,-1.679123,-1.870697,-4.445457,0.492774,0.095963,-0.687228,-0.525055,87.403313,-35.206507,-127.369588
59745,NaN,-6.957335,2.947140,0.096345,4.618185,5.805185,-11.247240,-1.652070,-2.231572,-4.624914,0.473574,0.101863,-0.685944,-0.542985,87.399938,-32.620334,-129.057058
59746,NaN,-6.793346,3.768968,-0.274293,5.326074,5.651953,-10.131824,-1.589178,-2.721478,-4.769204,0.451851,0.107072,-0.685345,-0.560953,87.507917,-29.948592,-131.024038
59747,NaN,-5.835463,4.292271,-0.669289,5.435110,4.740293,-8.865448,-1.597999,-3.231879,-4.852375,0.427814,0.110948,-0.685278,-0.578844,87.668183,-27.251617,-133.267859
59748,NaN,-4.741300,4.492027,-1.393944,5.464574,3.320924,-7.890201,-1.556482,-3.759131,-4.963977,0.401148,0.113736,-0.685680,-0.596647,87.870639,-24.481403,-135.784780
59749,NaN,-4.120292,5.387312,-2.050275,5.827019,2.351341,-6.541330,-1.536595,-4.216906,-5.059244,0.372243,0.115324,-0.686307,-0.614099,88.065809,-21.672778,-138.524256
59750,NaN,-4.034850,6.418915,-2.814347,6.515263,1.528170,-5.274758,-1.494073,-4.597726,-5.109013,0.341344,0.115931,-0.686872,-0.631072,88.211886,-18.820113,-141.434054
59751,NaN,-3.714691,7.609292,-3.473924,6.847141,0.530576,-3.765510,-1.426979,-4.965536,-5.129795,0.308709,0.115337,-0.687437,-0.647169,88.315755,-15.970971,-144.510398
59752,NaN,-2.223103,8.740113,-5.121641,6.567283,-2.055152,-2.056232,-1.301752,-5.165848,-5.189419,0.274628,0.114412,-0.687688,-0.662250,88.353377,-13.072179,-147.658309
59753,NaN,-0.007497,10.354888,-7.045910,5.528157,-5.254699,0.118524,-1.263708,-5.086195,-5.080926,0.240859,0.113196,-0.687143,-0.676023,88.250540,-10.251143,-150.723588
59754,NaN,2.545995,11.502279,-8.392919,3.419665,-8.114438,1.659492,-1.364432,-4.585563,-4.721904,0.209705,0.112253,-0.684948,-0.688672,87.890113,-7.623575,-153.476926
59755,NaN,4.133347,11.500088,-9.373484,1.617504,-10.132679,1.669318,-1.624830,-3.975111,-4.460050,0.181548,0.112047,-0.680709,-0.700800,87.228226,-5.170331,-155.879124
59756,NaN,5.263434,11.173714,-10.004738,0.012495,-11.526760,1.128852,-1.683593,-3.343090,-4.216170,0.156192,0.113145,-0.675170,-0.712003,86.401454,-2.854077,-157.934352
59757,NaN,5.780703,11.558327,-9.953543,-1.192554,-11.981138,1.189876,-1.615949,-2.771729,-3.996336,0.133472,0.115434,-0.669117,-0.721902,85.531025,-0.684866,-159.683306
59758,NaN,6.749671,12.307137,-9.732548,-2.820981,-12.420545,1.565544,-1.647645,-2.240776,-3.814602,0.113050,0.119005,-0.662242,-0.731090,84.573219,1.390981,-161.154667
59759,NaN,7.582865,13.113014,-9.641521,-4.246721,-12.913481,1.916216,-1.582930,-1.822109,-3.581947,0.094839,0.123246,-0.655218,-0.739261,83.616204,3.321662,-162.408172
59760,NaN,9.216647,13.650025,-9.355133,-6.462454,-13.397981,1.912212,-1.470393,-1.521763,-3.297509,0.078490,0.127725,-0.648320,-0.746463,82.689956,5.100913,-163.505793
59761,NaN,10.572873,13.954556,-9.191274,-8.319081,-13.820955,1.620979,-1.333655,-1.214228,-3.017185,0.064133,0.132393,-0.641809,-0.752622,81.831628,6.716753,-164.435664
59762,NaN,11.292545,14.084649,-9.114840,-9.468738,-14.083261,1.185086,-1.238676,-0.943008,-2.694381,0.051731,0.137090,-0.635574,-0.758008,81.020131,8.167817,-165.210079
59763,NaN,11.757564,13.972576,-9.418719,-10.182844,-14.556703,0.510719,-0.912627,-0.728707,-2.386637,0.040991,0.141626,-0.630628,-0.761952,80.400346,9.446389,-165.853142
59764,NaN,11.889744,14.055383,-9.147754,-10.697238,-14.401976,0.224075,-0.616226,-0.512289,-2.042718,0.031993,0.145981,-0.626900,-0.764632,79.960916,10.552195,-166.352544
59765,NaN,11.906204,13.113406,-8.974684,-10.872608,-14.067628,-0.972858,-0.342922,-0.335846,-1.686205,0.024743,0.149884,-0.624403,-0.766187,79.695480,11.465568,-166.722015
59766,NaN,11.685631,12.482837,-8.795273,-10.809070,-13.696538,-1.732139,0.000724,-0.424832,-1.319298,0.018343,0.152360,-0.623470,-0.766639,79.619108,12.165597,-167.107755
59767,NaN,12.758211,11.749764,-8.951723,-11.852735,-13.849400,-2.836691,0.238441,-0.695858,-0.952591,0.012341,0.152643,-0.623726,-0.766495,79.648960,12.627152,-167.612564
59768,NaN,12.181795,12.466685,-8.590826,-11.689811,-13.425619,-2.020783,0.755356,-0.629685,-0.639440,0.007346,0.152243,-0.626190,-0.764627,79.990124,12.921622,-168.044910
59769,NaN,18.760330,16.028323,3.006072,-21.513384,-4.231939,1.898494,1.118826,-0.553971,0.029362,0.004872,0.150033,-0.630513,-0.761525,80.561244,12.847864,-168.365669
59770,NaN,13.682347,30.908772,7.943910,-20.454387,-1.048139,18.225441,2.198907,0.112158,1.177340,0.008073,0.146746,-0.639755,-0.754397,81.862559,12.185601,-168.196724
59771,NaN,-14.883767,37.181722,-0.430877,7.954988,-3.943793,29.242810,0.824938,0.539511,0.980380,0.012891,0.145636,-0.643563,-0.751299,82.417137,11.667958,-167.808105
59772,NaN,0.428062,21.563575,-5.944680,-2.575208,-9.390273,10.329166,0.987185,-0.508664,1.000957,0.014315,0.140513,-0.648054,-0.748383,82.943745,11.055585,-168.030286
59773,NaN,15.603401,27.297975,-8.767869,-17.337610,-15.704609,12.952345,2.126797,-0.244772,0.998443,0.015762,0.136466,-0.656700,-0.741534,84.149112,10.467985,-168.109619
59774,NaN,0.442035,22.990693,2.196521,-4.316114,-1.166941,12.849815,-0.808917,1.365967,1.586111,0.026711,0.136188,-0.654685,-0.743052,83.846500,9.637582,-167.224192
59775,NaN,-16.270125,-3.888446,6.488654,14.568252,10.466177,-10.211925,-3.357865,0.647689,1.380074,0.036239,0.133567,-0.642968,-0.753286,81.999665,8.895195,-166.755254
59776,NaN,-7.727184,-15.264950,0.721526,8.941311,5.052138,-23.515716,-0.781759,-0.926842,1.385507,0.039023,0.125418,-0.641135,-0.756104,81.495935,8.025858,-167.173100
59777,NaN,8.575562,-3.053195,-4.497766,-6.944624,-5.700935,-14.541088,3.995141,-1.345228,0.848866,0.035406,0.118325,-0.656899,-0.743794,83.690977,7.440771,-167.883973
59778,NaN,8.173436,16.149414,-6.541206,-8.226429,-9.928396,4.474119,3.432823,-0.738594,0.049429,0.031153,0.115950,-0.669770,-0.732798,85.609199,7.365944,-168.308067
59779,NaN,-2.750464,19.121155,3.087918,-0.035686,1.686887,9.677577,0.522744,-0.487793,0.471698,0.030943,0.112625,-0.672043,-0.731243,85.877171,7.072388,-168.571822
59780,NaN,-1.347077,11.011714,2.091307,-0.249640,1.250768,1.404207,-0.284553,-0.610953,0.542833,0.031063,0.108464,-0.671446,-0.732415,85.680913,6.728605,-168.902310
59781,NaN,1.015670,11.576109,1.544667,-2.436110,0.254305,1.651316,0.813559,-0.554014,0.501470,0.030597,0.104838,-0.674787,-0.729887,86.114197,6.416025,-169.203366
59782,NaN,-0.131183,14.566406,0.560550,-1.360483,-0.661886,4.686341,0.433586,-0.331073,0.489406,0.031067,0.101984,-0.676720,-0.728481,86.349958,6.115832,-169.377279
59783,NaN,-2.330250,11.674272,-1.596065,1.521565,-2.083195,1.918085,0.196174,-0.308913,0.464957,0.031614,0.099277,-0.677730,-0.727892,86.446905,5.835580,-169.541128
59784,NaN,-2.519822,8.899156,-0.225643,1.740143,-0.468991,-0.738152,0.097761,-0.463550,0.456211,0.031683,0.095999,-0.678430,-0.727676,86.484408,5.550462,-169.793392
59785,NaN,0.516923,7.880789,-0.914844,-0.993683,-1.573998,-2.083143,0.562902,-0.566644,0.408856,0.030977,0.092600,-0.680771,-0.725959,86.778785,5.294287,-170.108201
59786,NaN,0.202166,11.735713,1.959632,-1.473423,1.086936,1.945506,0.430273,-0.360114,0.396265,0.031018,0.089951,-0.682617,-0.724555,87.014308,5.048693,-170.304814
59787,NaN,-1.196642,9.060479,-0.228777,0.523931,-0.609531,-0.706074,0.279671,-0.235056,0.380045,0.031465,0.087807,-0.683849,-0.723637,87.165227,4.821165,-170.431822
59788,NaN,-0.388362,11.013033,1.289127,-0.642648,0.677980,1.242919,0.576251,-0.200932,0.353791,0.031833,0.085901,-0.686165,-0.721655,87.493154,4.605617,-170.539908
59789,NaN,1.189939,10.965895,0.723618,-2.064853,-0.073276,1.046462,0.436404,0.012452,0.359982,0.032986,0.084742,-0.687903,-0.720084,87.745790,4.396644,-170.527292
59790,NaN,-0.261398,10.839359,0.355044,-0.534171,-0.138930,1.021571,0.391968,0.181703,0.377943,0.034834,0.084100,-0.689488,-0.718554,87.985104,4.176282,-170.417151
59791,NaN,-0.034654,10.011460,0.200640,-0.643263,-0.241227,0.177234,0.412515,0.208685,0.408256,0.036845,0.083475,-0.691116,-0.716961,88.231869,3.943277,-170.292761
59792,NaN,-0.441308,10.392060,0.298456,-0.252221,-0.037892,0.589877,0.499848,0.271340,0.370286,0.038930,0.083199,-0.693055,-0.715009,88.535374,3.727689,-170.133362
59793,NaN,-0.371703,9.800230,0.536412,-0.299696,0.263049,0.001135,0.491380,0.339055,0.359562,0.041184,0.083222,-0.694904,-0.713082,88.830923,3.523059,-169.937199
59794,NaN,-0.152611,10.183465,0.929942,-0.584546,0.661694,0.376087,0.598578,0.367693,0.301169,0.043314,0.083548,-0.697129,-0.710742,89.192908,3.346265,-169.725635
59795,NaN,0.240369,10.028468,0.505594,-0.869960,0.241211,0.190724,0.571217,0.367628,0.271905,0.045321,0.083991,-0.699202,-0.708526,89.533738,3.189728,-169.516155
59796,NaN,-0.420797,10.113559,-0.415239,-0.041925,-0.483558,0.306485,0.555450,0.360561,0.230725,0.047195,0.084525,-0.701225,-0.706337,89.869324,3.050654,-169.311106
59797,NaN,-0.335507,10.224674,-1.323088,0.053589,-1.335190,0.415763,0.466274,0.351833,0.231372,0.049046,0.085028,-0.702897,-0.704486,90.148418,2.914996,-169.112521
59798,NaN,-0.290942,10.186390,-0.889248,-0.051438,-0.866214,0.379700,0.402344,0.415829,0.212818,0.051114,0.085782,-0.704344,-0.702800,90.396897,2.783987,-168.877124
59799,NaN,0.027014,9.880234,-0.558054,-0.395936,-0.558528,0.059613,0.363974,0.441487,0.195364,0.053197,0.086700,-0.705605,-0.701267,90.618882,2.666782,-168.628166
59800,NaN,-0.631516,10.179849,-0.477798,0.232302,-0.307657,0.390629,0.358429,0.409661,0.162700,0.055086,0.087595,-0.706866,-0.699738,90.841071,2.562609,-168.397015
59801,NaN,-0.729887,10.124057,-0.549606,0.356503,-0.318762,0.341253,0.310915,0.338192,0.158367,0.056696,0.088266,-0.707941,-0.698437,91.029115,2.465713,-168.207867
59802,NaN,-0.803813,10.026756,-0.420067,0.417640,-0.140484,0.245351,0.301419,0.274260,0.144492,0.058067,0.088737,-0.709024,-0.697165,91.214539,2.371972,-168.054878
59803,NaN,-0.846125,9.636795,-0.629898,0.529035,-0.307921,-0.137682,0.291472,0.163574,0.150356,0.059039,0.088821,-0.710072,-0.696005,91.386738,2.280732,-167.966381
59804,NaN,-0.878954,9.644524,-0.733099,0.591859,-0.368181,-0.125537,0.307805,0.078826,0.148255,0.059725,0.088599,-0.711230,-0.694792,91.570935,2.186880,-167.926062
59805,NaN,-0.635263,9.932981,-0.732095,0.351094,-0.380355,0.154037,0.280765,0.055882,0.169722,0.060386,0.088235,-0.712276,-0.693708,91.734371,2.085788,-167.900178
59806,NaN,-0.834643,10.291381,-0.544095,0.505985,-0.114747,0.513779,0.253256,0.055723,0.205665,0.061213,0.087713,-0.713273,-0.692677,91.886678,1.959354,-167.874672
59807,NaN,-1.073513,10.121981,-0.682974,0.794364,-0.176162,0.356444,0.202882,0.006249,0.263991,0.062057,0.086817,-0.714102,-0.691860,92.004365,1.805114,-167.879581
59808,NaN,-1.142797,9.830477,-0.906603,0.944505,-0.361984,0.073817,0.195900,-0.073065,0.309152,0.062806,0.085463,-0.714981,-0.691053,92.121391,1.622124,-167.930551
59809,NaN,-1.100717,9.743685,-0.753139,0.902539,-0.200312,-0.021703,0.167221,-0.134952,0.355436,0.063478,0.083740,-0.715765,-0.690391,92.216462,1.418610,-168.018918
59810,NaN,-1.045760,9.776944,-0.808008,0.892784,-0.242351,0.009694,0.145322,-0.185704,0.412949,0.064202,0.081610,-0.716541,-0.689773,92.303405,1.179118,-168.137368
59811,NaN,-0.967170,9.820786,-0.887777,0.869616,-0.315425,0.052175,0.127218,-0.259394,0.468732,0.064834,0.079038,-0.717265,-0.689260,92.374926,0.913918,-168.300225
59812,NaN,-1.039628,9.771805,-0.931080,0.994262,-0.325723,0.002661,0.117618,-0.324070,0.514981,0.065422,0.076056,-0.718021,-0.688754,92.446058,0.619871,-168.500985
59813,NaN,-0.514384,9.745057,-0.760656,0.493548,-0.245866,-0.040018,0.116487,-0.335088,0.558556,0.066095,0.072897,-0.718753,-0.688267,92.512717,0.305529,-168.710025
59814,NaN,-0.057269,10.012030,-0.556701,0.055381,-0.102159,0.214283,0.109218,-0.304479,0.612405,0.067090,0.069628,-0.719493,-0.687735,92.581349,-0.044114,-168.902773
59815,NaN,-0.379175,9.971557,-0.469135,0.414488,0.064910,0.168267,0.082351,-0.284568,0.662656,0.068313,0.066255,-0.720111,-0.687301,92.630879,-0.418892,-169.086298
59816,NaN,-0.751476,9.653428,-0.730216,0.894899,-0.115079,-0.144590,0.092273,-0.323826,0.730854,0.069648,0.062487,-0.720820,-0.686778,92.692513,-0.835318,-169.294044
59817,NaN,-0.294036,9.627649,-0.427089,0.458503,0.117404,-0.182735,0.107140,-0.355891,0.802128,0.071083,0.058373,-0.721568,-0.686206,92.759746,-1.287589,-169.523011
59818,NaN,-0.190446,9.713453,-0.069822,0.370593,0.478547,-0.116020,0.100084,-0.368831,0.874877,0.072743,0.053931,-0.722334,-0.685590,92.829994,-1.784506,-169.761646
59819,NaN,-0.674387,9.744082,-0.574791,1.022958,0.093563,-0.082507,0.097504,-0.381768,0.954763,0.074607,0.049171,-0.723067,-0.684974,92.896401,-2.322832,-170.010991
59820,NaN,-0.100672,9.672846,-0.485297,0.533208,0.104145,-0.142444,0.112067,-0.345320,1.041799,0.076917,0.044210,-0.723868,-0.684211,92.977664,-2.915159,-170.242550
59821,NaN,0.629137,9.661432,0.079506,-0.182025,0.566835,-0.148839,0.144734,-0.355628,1.123635,0.079437,0.038944,-0.724749,-0.683310,93.075802,-3.550184,-170.483807
59822,NaN,0.848570,9.436668,0.028582,-0.294511,0.500662,-0.355777,0.102647,-0.419241,1.166682,0.081900,0.033270,-0.725521,-0.682499,93.159984,-4.210809,-170.763920
59823,NaN,0.993566,9.494980,-0.919050,-0.172425,-0.417527,-0.232426,0.152875,-0.462733,1.172115,0.084191,0.027464,-0.726425,-0.681516,93.273464,-4.869322,-171.070688
59824,NaN,1.277109,9.481541,-1.161868,-0.308687,-0.664083,-0.203148,0.134962,-0.449382,1.199806,0.086644,0.021577,-0.727265,-0.680524,93.384564,-5.546817,-171.372283
59825,NaN,1.382772,8.892624,-1.209544,-0.353800,-0.734095,-0.768970,0.140561,-0.438394,1.202105,0.089121,0.015737,-0.728061,-0.679513,93.497161,-6.222117,-171.669339
59826,NaN,2.100601,8.962434,-1.022268,-0.981821,-0.608274,-0.623137,0.188828,-0.391203,1.175354,0.091690,0.010159,-0.728996,-0.678273,93.642777,-6.886433,-171.940271
59827,NaN,1.716376,9.374861,-0.702779,-0.504253,-0.166400,-0.270944,0.177060,-0.323728,1.163895,0.094444,0.004863,-0.729803,-0.677085,93.775158,-7.542746,-172.173790
59828,NaN,0.946412,9.568214,-0.753866,0.388631,-0.055829,-0.176324,0.243260,-0.256173,1.170436,0.097481,-0.000215,-0.730803,-0.675592,93.948076,-8.208151,-172.370912
59829,NaN,0.592588,10.303310,-0.574770,0.919742,0.276895,0.478850,0.296017,-0.302107,1.218028,0.100487,-0.005580,-0.731946,-0.673889,94.153185,-8.894884,-172.598860
59830,NaN,1.022140,11.120902,-0.968290,0.799375,-0.035042,1.368310,0.350426,-0.334927,1.312358,0.103706,-0.011389,-0.733281,-0.671874,94.401454,-9.636396,-172.853422
59831,NaN,1.033459,12.618553,-0.898117,1.169488,0.246245,2.823415,0.380198,-0.267062,1.483565,0.107727,-0.017565,-0.734602,-0.669661,94.660474,-10.474468,-173.080068
59832,NaN,0.186794,14.240398,-1.043935,2.495649,0.442900,4.240222,0.295323,-0.120743,1.692951,0.112987,-0.024080,-0.735519,-0.667582,94.865845,-11.441081,-173.236364
59833,NaN,-0.941729,15.230249,-0.483886,3.960853,1.300500,4.873843,0.214050,-0.033315,1.975566,0.119477,-0.031372,-0.735990,-0.665627,95.015616,-12.569918,-173.359048
59834,NaN,-0.965114,15.550901,0.328318,4.246445,2.206223,5.018361,0.178635,-0.056907,2.217590,0.126678,-0.039662,-0.736264,-0.663548,95.159268,-13.837669,-173.512380
59835,NaN,0.154072,16.197129,0.791251,3.605621,2.680495,5.769286,0.141192,-0.098486,2.463893,0.134505,-0.049003,-0.736261,-0.661382,95.290604,-15.241126,-173.706869
59836,NaN,0.570726,16.729168,0.960424,3.729865,2.933482,6.267682,0.074348,-0.075121,2.747784,0.143325,-0.059358,-0.735851,-0.659135,95.394676,-16.808903,-173.908426
59837,NaN,0.285356,16.743248,0.875412,4.479111,2.939380,6.076317,0.019281,-0.068581,3.014506,0.152994,-0.070690,-0.734996,-0.656792,95.473014,-18.527347,-174.124825
59838,NaN,-0.008381,18.179286,1.148079,5.682318,3.475453,7.140390,-0.021829,-0.038554,3.311804,0.163698,-0.083035,-0.733716,-0.654194,95.539498,-20.417425,-174.345935
59839,NaN,-1.354162,18.757661,1.812332,7.641683,4.374194,6.902552,-0.126129,-0.009195,3.683779,0.175631,-0.096703,-0.731668,-0.651509,95.552512,-22.520421,-174.574540
59840,NaN,-2.319920,17.595974,1.583123,8.751767,4.104968,5.154600,-0.153444,-0.137699,4.021503,0.188108,-0.112011,-0.729227,-0.648303,95.603696,-24.808158,-174.909636
59841,NaN,-2.619802,15.493472,0.874089,8.841170,3.159890,2.816106,-0.119987,-0.337052,4.245565,0.200528,-0.128705,-0.726623,-0.644393,95.749477,-27.212397,-175.395086
59842,NaN,-2.117638,14.279403,-0.481549,8.556871,1.621186,1.708388,-0.169951,-0.491503,4.444678,0.212885,-0.146597,-0.723555,-0.640045,95.951147,-29.717602,-176.014029
59843,NaN,-3.395014,13.164885,-1.935582,9.766767,0.091278,-0.160804,-0.140213,-0.563265,4.469686,0.224992,-0.164715,-0.720256,-0.635199,96.230335,-32.232579,-176.709321
59844,NaN,-3.376290,12.415358,-3.029644,9.869511,-1.112074,-1.091914,0.115514,-0.675307,4.274056,0.236149,-0.182096,-0.717726,-0.629241,96.739724,-34.620989,-177.506761
59845,NaN,-0.981618,12.031893,-2.970933,8.038532,-1.203103,-0.406758,-0.093623,-0.835439,4.206082,0.246242,-0.199920,-0.714433,-0.623684,97.244380,-36.957411,-178.458493
59846,NaN,-0.077104,10.170056,-3.613764,6.614199,-2.129992,-1.554486,-0.071445,-0.778276,4.142570,0.256217,-0.217193,-0.710905,-0.617895,97.801482,-39.249437,-179.421200
59847,NaN,1.916752,10.365658,-1.527264,5.318082,-0.061533,-0.584775,-0.583827,-1.872627,4.048834,0.261370,-0.238095,-0.706933,-0.612570,98.654869,-41.394597,178.745838
59848,NaN,7.330726,7.323814,-2.110763,-0.376288,-0.905697,0.716434,-0.801878,-2.297252,3.399779,0.262608,-0.258143,-0.703316,-0.608066,99.665642,-43.104436,176.564927
59849,NaN,9.410379,2.688815,-4.820168,-4.685284,-3.918143,-0.773458,-1.200920,-2.252185,3.176682,0.262742,-0.277716,-0.698385,-0.605061,100.511709,-44.673032,174.354525
59850,NaN,13.695642,0.239787,-5.616953,-9.279248,-4.398982,0.850504,-1.246997,-2.364478,2.942895,0.261565,-0.296732,-0.693533,-0.602118,101.478899,-46.066283,171.996704
59851,NaN,16.185561,-1.501848,-5.312806,-12.111458,-3.619312,1.704288,-1.440372,-2.392920,2.618306,0.258965,-0.314876,-0.688322,-0.600002,102.409829,-47.252762,169.584360
59852,NaN,13.026629,-1.755403,-6.311321,-10.107786,-4.639989,-0.384049,-1.449297,-1.806918,2.292300,0.257277,-0.330035,-0.682650,-0.599061,103.020861,-48.303824,167.643189
59853,NaN,8.067554,0.548556,-4.806575,-5.005342,-3.508298,-2.662466,-1.150205,-1.289166,2.190977,0.257517,-0.342853,-0.677188,-0.597957,103.519534,-49.358402,166.107475
59854,NaN,3.759950,-0.933111,-6.170672,-3.497128,-5.517397,-6.585782,-1.083639,-0.916536,1.809489,0.257925,-0.353117,-0.672018,-0.597641,103.803747,-50.240384,164.928042
59855,NaN,-5.415656,-4.619882,-3.839029,-0.621226,-4.838130,-16.263743,-0.952163,-0.484813,1.128226,0.257980,-0.359605,-0.667792,-0.598485,103.779119,-50.804160,164.255242
59856,NaN,-18.581119,-1.594758,-1.396909,9.925107,-4.630779,-24.971858,-0.579982,-0.354297,-0.100165,0.255429,-0.361104,-0.666730,-0.599860,103.684763,-50.698818,163.954251
59857,NaN,-18.991939,1.514958,-0.224983,12.765872,-3.592526,-23.493428,-0.378636,-0.800727,-0.579320,0.250337,-0.362084,-0.667659,-0.600381,103.918306,-50.269222,163.372386
59858,NaN,-10.688022,1.997494,0.483074,8.196904,-1.504006,-16.812932,-0.413749,-1.059040,-1.112612,0.242668,-0.362073,-0.669785,-0.601168,104.209419,-49.499864,162.688566
59859,NaN,-7.915677,0.381603,0.321973,5.288308,-1.249172,-15.590085,-0.428683,-1.071730,-1.759011,0.233004,-0.359935,-0.672950,-0.602738,104.367406,-48.373807,162.155418
59860,NaN,-8.327358,1.861859,1.459964,6.929384,-0.282319,-14.993659,-0.358793,-1.077827,-2.405493,0.221419,-0.355488,-0.677446,-0.604705,104.454121,-46.880480,161.767010
59861,NaN,-8.786079,3.693417,2.960676,8.923737,1.018300,-14.162926,-0.436179,-1.281434,-2.848710,0.207665,-0.350184,-0.682531,-0.606958,104.523116,-45.118650,161.325929
59862,NaN,-7.339085,4.303035,3.322126,8.571168,1.600480,-12.529434,-0.464688,-1.594167,-3.268636,0.191406,-0.344295,-0.688437,-0.608998,104.667122,-43.070076,160.743864
59863,NaN,-6.149299,5.107972,3.426662,8.417791,1.899236,-10.895825,-0.520846,-1.911680,-3.630238,0.172837,-0.338079,-0.694787,-0.610820,104.849221,-40.781801,160.027192
59864,NaN,-5.184890,5.616752,2.974260,8.033579,1.625847,-9.516981,-0.584615,-2.200927,-3.967187,0.151984,-0.331430,-0.701479,-0.612358,105.044662,-38.253031,159.201135
59865,NaN,-5.130666,6.531965,2.063924,8.391047,0.701593,-8.283862,-0.731783,-2.419572,-4.152665,0.129529,-0.324766,-0.707755,-0.613866,105.169765,-35.596699,158.297781
59866,NaN,-5.316164,7.094365,1.059417,8.578362,-0.388869,-7.371326,-0.925420,-2.632519,-4.216392,0.105663,-0.318407,-0.713287,-0.615364,105.206298,-32.861426,157.297527
59867,NaN,-3.909006,7.705908,-0.402699,7.326537,-1.367442,-5.423934,-1.002203,-2.693192,-4.214255,0.081465,-0.312125,-0.718107,-0.616655,105.161036,-30.129005,156.288176
59868,NaN,-0.635703,8.815144,-0.830609,4.947766,-0.589455,-2.467024,-1.176309,-2.251355,-4.267079,0.058291,-0.304106,-0.721880,-0.618879,104.829444,-27.423748,155.584147
59869,NaN,2.623983,9.124434,-0.515063,2.184951,0.956317,-0.609324,-1.487860,-1.359659,-4.315306,0.037754,-0.293122,-0.724031,-0.623244,104.048009,-24.837285,155.426187
59870,NaN,3.153052,8.755176,0.155537,1.361243,1.783469,-0.781075,-1.817124,-0.347024,-4.330808,0.020252,-0.278760,-0.724622,-0.629925,102.843714,-22.367494,155.841123
59871,NaN,2.427113,8.305763,0.611224,1.514531,1.891906,-1.484251,-1.967318,0.466704,-4.329135,0.005562,-0.261763,-0.724208,-0.637943,101.416071,-20.000954,156.676315
59872,NaN,1.941621,8.238640,1.069761,1.654716,2.104358,-1.712744,-1.904932,0.817724,-4.334266,-0.007871,-0.243408,-0.723611,-0.645816,100.014292,-17.637980,157.647090
59873,NaN,2.140971,8.326225,-0.047333,0.741084,1.114217,-1.321094,-1.760594,0.736175,-4.413905,-0.021600,-0.224961,-0.723120,-0.652705,98.763723,-15.214163,158.507133
59874,NaN,3.257067,9.310966,-1.439342,-0.863223,0.236428,0.114776,-1.557681,0.471907,-4.502695,-0.036407,-0.206876,-0.722979,-0.658163,97.716497,-12.689888,159.160773
59875,NaN,5.288046,11.008216,-3.055557,-3.336290,-0.497802,2.314660,-1.451091,0.156388,-4.537623,-0.052263,-0.189676,-0.722723,-0.662543,96.803038,-10.124824,159.582890
59876,NaN,7.425163,12.274691,-3.942857,-5.940058,-0.522326,3.816376,-1.372122,-0.128479,-4.387104,-0.068616,-0.173808,-0.722145,-0.666025,95.988183,-7.609418,159.789395
59877,NaN,6.800783,13.581010,-3.620312,-5.681001,-0.331665,4.726108,-1.380972,-0.586409,-4.223484,-0.085980,-0.160034,-0.720837,-0.668873,95.209835,-5.171052,159.686949
59878,NaN,7.290911,13.314537,-4.762073,-7.203487,-1.157532,4.323702,-1.268517,-1.265271,-4.218370,-0.105701,-0.148448,-0.719265,-0.670409,94.522159,-2.693165,159.165803
59879,NaN,10.156301,15.907557,-6.382509,-10.930215,-1.309863,6.791222,-0.923074,-1.689733,-3.922041,-0.125583,-0.139524,-0.718020,-0.670231,94.016329,-0.382946,158.363932
59880,NaN,11.072212,17.736721,-6.993906,-12.654443,-1.148603,8.203332,-0.943651,-1.769655,-3.671167,-0.144920,-0.131632,-0.716177,-0.669897,93.468658,1.788898,157.486942
59881,NaN,11.698242,16.264185,-7.794200,-14.191738,-1.471132,6.265058,-1.037004,-1.697429,-3.410932,-0.163077,-0.124367,-0.713581,-0.669881,92.833775,3.790877,156.618897
59882,NaN,12.259050,16.196881,-8.059924,-15.382667,-1.243021,5.658673,-0.860522,-1.345532,-3.220867,-0.179211,-0.116654,-0.711517,-0.669343,92.288072,5.673511,155.926546
59883,NaN,13.250311,16.442151,-7.559015,-16.591247,-0.168283,5.277572,-0.745152,-0.668395,-2.924637,-0.191790,-0.107846,-0.710046,-0.668895,91.825474,7.358927,155.598509
59884,NaN,14.103640,15.352060,-7.332089,-17.557633,0.376464,3.600661,-0.698587,0.174172,-2.568012,-0.200139,-0.097476,-0.709229,-0.668907,91.450580,8.828904,155.739653
59885,NaN,14.658830,15.854263,-7.347098,-18.456228,0.556680,3.575835,-0.592523,1.098943,-2.289592,-0.204173,-0.085121,-0.709404,-0.669189,91.222301,10.122729,156.405478
59886,NaN,14.291812,15.396340,-7.427841,-18.354545,0.071558,2.819034,-0.641901,1.839055,-1.878178,-0.204189,-0.071672,-0.709903,-0.670230,91.062927,11.176705,157.497416
59887,NaN,12.848080,13.275324,-7.007643,-16.699194,-0.610624,0.730622,-0.638160,2.347115,-1.483495,-0.201038,-0.057923,-0.710623,-0.671747,90.977028,11.999648,158.882040
59888,NaN,11.003965,12.817666,-5.232101,-14.400375,0.005496,0.452416,-0.388706,2.641343,-1.166677,-0.195645,-0.044557,-0.712275,-0.672608,91.094721,12.636674,160.441607
59889,NaN,9.256668,13.684594,-3.010365,-12.313647,1.301930,1.531374,-0.314443,2.695292,-0.745045,-0.188604,-0.032568,-0.713953,-0.673527,91.269132,13.028640,162.030753
59890,NaN,7.451381,12.862966,-1.823678,-10.172083,1.558479,1.068484,-0.356618,2.563069,-0.249760,-0.180306,-0.022768,-0.715193,-0.674885,91.414447,13.130798,163.539893
59891,NaN,4.880141,12.341278,-1.035553,-7.454686,1.365069,1.130691,-0.302664,2.220898,0.246860,-0.171556,-0.015924,-0.716104,-0.676395,91.535696,12.953663,164.838485
59892,NaN,3.650734,12.433717,0.408119,-5.898298,2.324976,1.496381,-0.164602,1.725227,0.759491,-0.162774,-0.012739,-0.716979,-0.677704,91.669325,12.482731,165.837258
59893,NaN,3.270649,12.760691,1.323190,-5.286870,3.061519,1.932834,-0.038412,1.094078,1.255331,-0.154598,-0.013541,-0.717639,-0.678904,91.778033,11.741980,166.452556
59894,NaN,3.311876,12.602267,1.515910,-5.094184,3.187189,1.847969,0.055489,0.407431,1.692559,-0.147334,-0.018353,-0.718042,-0.679979,91.857425,10.755889,166.657044
59895,NaN,1.520445,12.079087,1.678983,-3.039060,2.859585,1.746582,0.151225,-0.259352,2.020103,-0.141378,-0.026638,-0.718147,-0.680858,91.911578,9.601013,166.464084
59896,NaN,-4.138717,10.355934,-1.708169,2.057509,-1.903323,1.115840,0.380459,-1.264539,2.034836,-0.138880,-0.038601,-0.718263,-0.680676,92.015251,8.450535,165.688062
59897,NaN,-9.479238,20.956481,-7.948370,4.138591,-8.543424,12.594489,1.828485,-5.152195,0.713642,-0.154549,-0.059992,-0.720501,-0.673345,92.631198,8.158658,162.687124
59898,NaN,11.090896,17.260909,13.715663,-8.014699,17.832048,5.246628,-0.884426,-3.956621,1.456074,-0.164085,-0.077938,-0.713905,-0.676270,91.818573,7.404168,160.365843
59899,NaN,-12.332756,6.368765,-2.494107,9.971626,-6.051757,-1.886833,-0.192482,-0.819999,0.918372,-0.163979,-0.083870,-0.712213,-0.677370,91.648595,6.889468,159.873149
59900,NaN,-18.618928,14.842270,-3.536913,14.667142,-8.771985,7.139749,0.504996,-1.247708,1.410797,-0.163381,-0.093608,-0.712310,-0.676135,91.861215,6.094719,159.126472
59901,NaN,0.205300,17.159578,0.620641,-1.287122,1.824820,7.213190,0.793675,-1.778222,1.919511,-0.162839,-0.107136,-0.712577,-0.673973,92.214298,5.028871,158.060810
59902,NaN,-6.723714,19.529065,2.533430,6.038325,1.115688,10.069274,0.439880,-1.101333,1.723905,-0.160675,-0.117412,-0.712236,-0.673141,92.420712,4.060320,157.385532
59903,NaN,-7.703305,12.619141,2.905363,7.721705,0.471338,3.116687,0.683413,-1.820334,1.834210,-0.160569,-0.130649,-0.711934,-0.671042,92.745973,3.054532,156.290774
59904,NaN,-5.666893,13.961943,2.017935,5.703195,0.408336,4.273528,0.540696,-1.875056,1.646442,-0.161326,-0.143287,-0.711141,-0.669119,93.011948,2.160468,155.166309
59905,NaN,-2.021209,14.170689,-0.830577,1.403976,-0.717558,4.438437,0.588450,-1.703134,1.374957,-0.162350,-0.154380,-0.710706,-0.666863,93.318760,1.424864,154.144571
59906,NaN,0.712910,13.744251,-1.310795,-1.095938,0.007398,3.968739,0.515949,-1.353713,1.085198,-0.163114,-0.163221,-0.710491,-0.664797,93.605330,0.846017,153.329542
59907,NaN,1.054704,10.907617,-2.640308,-1.925953,-1.185913,1.230117,0.346642,-1.071953,0.791990,-0.164003,-0.169916,-0.710106,-0.663311,93.798360,0.429992,152.683865
59908,NaN,1.645959,10.490262,-3.606053,-2.836092,-1.775575,0.890675,0.314666,-0.722805,0.645025,-0.164137,-0.174919,-0.710029,-0.662058,93.983957,0.084312,152.242368
59909,NaN,0.102778,13.582653,-2.586595,-0.834737,-1.395813,3.918444,0.183675,-0.202798,0.544633,-0.162893,-0.177714,-0.709991,-0.661662,94.090971,-0.221610,152.101035
59910,NaN,-2.026840,14.880987,0.388968,2.561107,0.290363,4.987953,0.040194,0.125808,0.579703,-0.160467,-0.179448,-0.709740,-0.662056,94.121313,-0.563219,152.145849
59911,NaN,-2.605318,15.727922,2.483609,4.168356,1.880940,5.660178,0.029821,0.101096,0.639849,-0.157963,-0.181447,-0.709342,-0.662540,94.139640,-0.935865,152.173760
59912,NaN,-1.686616,14.204919,2.346480,3.307350,2.061718,4.149418,0.020009,-0.111846,0.645346,-0.156181,-0.184179,-0.708759,-0.662831,94.160033,-1.304736,152.079698
59913,NaN,1.043571,11.550685,0.509105,-0.027511,1.538851,1.693714,-0.003038,-0.218329,0.629145,-0.154872,-0.187169,-0.707995,-0.663118,94.163891,-1.657999,151.925260
59914,NaN,2.499220,10.117811,-0.480168,-1.795890,1.252865,0.387878,0.038980,-0.089262,0.606336,-0.153120,-0.189697,-0.707511,-0.663323,94.195400,-2.005336,151.845443
59915,NaN,1.967200,9.555652,-0.788924,-1.455974,0.680766,-0.157676,0.030389,0.090769,0.524122,-0.151031,-0.191313,-0.707181,-0.663689,94.213423,-2.311456,151.871849
59916,NaN,0.781413,8.896422,-1.777422,-0.878738,-0.800655,-0.784798,-0.041207,0.113246,0.422700,-0.149246,-0.192459,-0.706749,-0.664222,94.194532,-2.562645,151.915315
59917,NaN,1.276487,8.790578,-2.564025,-1.662351,-1.287335,-0.809511,-0.084072,0.084874,0.299026,-0.148033,-0.193210,-0.706245,-0.664812,94.146459,-2.739875,151.947929
59918,NaN,1.644966,8.878701,-2.209341,-1.798462,-0.818558,-0.728972,-0.145321,0.118720,0.185546,-0.147115,-0.193423,-0.705696,-0.665536,94.067221,-2.855783,152.004669
59919,NaN,1.585078,8.951320,-1.629814,-1.464067,-0.354792,-0.700856,-0.187787,0.159647,0.111447,-0.146362,-0.193186,-0.705080,-0.666423,93.957022,-2.928708,152.088101
59920,NaN,0.555216,9.603283,-1.206535,-0.306546,-0.460018,-0.133772,-0.192435,0.243498,0.069554,-0.145434,-0.192540,-0.704576,-0.667345,93.846877,-2.983172,152.221180
59921,NaN,-0.261608,10.153569,-0.681242,0.699619,-0.378266,0.335953,-0.204719,0.240265,0.071120,-0.144547,-0.191880,-0.703999,-0.668337,93.724288,-3.035761,152.352590
59922,NaN,-0.330878,10.450621,-0.214531,0.999346,-0.009106,0.597508,-0.198278,0.179572,0.103382,-0.143736,-0.191561,-0.703394,-0.669240,93.612540,-3.106623,152.448044
59923,NaN,0.228611,10.409892,0.123742,0.660077,0.524410,0.566265,-0.173050,0.164120,0.160927,-0.142785,-0.191493,-0.702778,-0.670109,93.510324,-3.207345,152.532866
59924,NaN,0.159747,10.997332,0.241039,0.833709,0.589034,1.140979,-0.138550,0.233939,0.255636,-0.141217,-0.191568,-0.702262,-0.670961,93.430783,-3.366732,152.654419
59925,NaN,-0.891392,10.452715,-0.062604,1.606116,-0.207212,0.552400,-0.198345,0.253859,0.363709,-0.139294,-0.191893,-0.701425,-0.672144,93.310876,-3.586179,152.784182
59926,NaN,-0.614932,9.707024,-0.757389,1.015062,-0.750429,-0.138785,-0.185447,0.206347,0.459172,-0.137184,-0.192738,-0.700529,-0.673269,93.204778,-3.860480,152.883892
59927,NaN,-0.069990,9.709237,-0.761004,0.567186,-0.543616,-0.105173,-0.172311,0.179646,0.549110,-0.134871,-0.193978,-0.699540,-0.674408,93.101887,-4.183161,152.966151
59928,NaN,0.198151,9.472000,-0.713268,0.373808,-0.424113,-0.328655,-0.187707,0.162301,0.628694,-0.132345,-0.195559,-0.698430,-0.675602,92.995610,-4.552573,153.036438
59929,NaN,-0.009396,9.207669,-0.710227,0.582791,-0.562638,-0.613280,-0.198717,0.141262,0.695431,-0.129694,-0.197418,-0.697167,-0.676878,92.878616,-4.957541,153.093649
59930,NaN,-0.271730,8.790208,-1.005440,0.693275,-0.992218,-1.044166,-0.206904,0.044189,0.757104,-0.127162,-0.199829,-0.695770,-0.678087,92.766668,-5.396705,153.093908
59931,NaN,0.219874,8.555025,-1.161339,0.215012,-0.956028,-1.232194,-0.192537,-0.049850,0.812647,-0.124770,-0.202740,-0.694268,-0.679206,92.663278,-5.863346,153.039673
59932,NaN,0.522963,8.326928,-0.895858,0.095562,-0.625672,-1.445325,-0.182330,-0.158379,0.854468,-0.122584,-0.206185,-0.692705,-0.680163,92.578017,-6.352756,152.922240
59933,NaN,0.979576,8.353406,-1.064581,-0.323568,-0.611993,-1.363270,-0.141616,-0.277630,0.877725,-0.120704,-0.210119,-0.691141,-0.680885,92.519855,-6.850999,152.736349
59934,NaN,0.444802,9.205238,-0.669018,0.499859,-0.558663,-0.602948,-0.120005,-0.311641,0.917686,-0.118763,-0.214333,-0.689600,-0.681475,92.483487,-7.372927,152.529603
59935,NaN,-0.171647,11.482442,-0.083373,1.695265,-0.421035,1.537671,-0.095890,-0.253057,0.979046,-0.116399,-0.218551,-0.688065,-0.682095,92.453312,-7.930033,152.355663
59936,NaN,0.165278,12.003724,0.268161,1.735189,-0.035373,2.069025,-0.154404,-0.279147,1.067290,-0.113870,-0.223136,-0.686227,-0.682888,92.399018,-8.538407,152.164108
59937,NaN,1.048674,11.783059,-0.323038,0.767633,-0.222327,1.994269,-0.171458,-0.245493,1.188110,-0.110843,-0.227988,-0.684164,-0.683853,92.329247,-9.215689,151.990035
59938,NaN,1.644842,11.261411,-0.329542,0.279232,-0.011613,1.569476,-0.176119,-0.123649,1.254906,-0.107159,-0.232655,-0.682076,-0.684953,92.252394,-9.935243,151.885061
59939,NaN,1.803435,10.401784,0.217766,0.367738,0.506812,0.727861,-0.131040,-0.028640,1.326145,-0.102863,-0.237240,-0.680054,-0.686049,92.187873,-10.696796,151.835057
59940,NaN,1.908649,10.432082,0.666196,0.613180,0.872402,0.759738,-0.129889,0.008554,1.392088,-0.098196,-0.241925,-0.677972,-0.687157,92.125647,-11.497939,151.805289
59941,NaN,1.567805,10.311076,0.400400,0.888326,0.405603,0.578704,-0.110923,0.012306,1.471264,-0.093228,-0.246848,-0.675799,-0.688237,92.069433,-12.343545,151.777525
59942,NaN,1.664593,11.509080,0.534170,1.256411,0.396287,1.753502,-0.126803,0.026927,1.568304,-0.087880,-0.252040,-0.673444,-0.689366,92.007733,-13.245946,151.756257
59943,NaN,1.286744,12.923627,0.599081,2.091431,0.058929,3.019026,-0.152399,0.065582,1.748596,-0.081818,-0.257664,-0.670718,-0.690689,91.922055,-14.251466,151.756105
59944,NaN,0.272617,14.675345,0.661775,3.610015,-0.643206,4.414920,-0.177217,0.107077,2.011390,-0.074725,-0.264005,-0.667549,-0.692167,91.821370,-15.408916,151.776162
59945,NaN,-2.074972,15.023303,0.818129,6.019824,-1.778948,4.017030,-0.199755,-0.000530,2.330719,-0.066916,-0.271732,-0.663736,-0.693642,91.721468,-16.746632,151.729410
59946,NaN,-1.851372,15.402748,0.667143,6.151159,-2.046492,4.296844,-0.223348,-0.168249,2.579605,-0.058820,-0.280825,-0.659369,-0.694917,91.644580,-18.223961,151.578310
59947,NaN,-0.947372,15.470824,0.769757,5.784427,-1.778479,4.477080,-0.295995,-0.207397,2.833491,-0.050064,-0.290809,-0.654234,-0.696349,91.534254,-19.846483,151.401502
59948,NaN,0.343326,14.958012,0.769676,4.904171,-1.372323,4.276336,-0.382558,-0.194391,3.042939,-0.040656,-0.301349,-0.648378,-0.697956,91.380988,-21.588289,151.230331
59949,NaN,1.035557,15.113430,1.247635,4.985240,-0.936885,4.515385,-0.454765,-0.130309,3.247309,-0.030422,-0.312235,-0.641785,-0.699783,91.171517,-23.449723,151.101084
59950,NaN,-0.762052,14.308612,2.118765,6.923507,-1.111563,2.860694,-0.534533,-0.113008,3.460953,-0.019511,-0.323640,-0.634423,-0.701701,90.918145,-25.432096,150.985351
59951,NaN,-0.345131,13.603224,1.782384,6.515746,-1.371177,2.186795,-0.560567,-0.267397,3.615871,-0.008572,-0.335976,-0.626473,-0.703263,90.690939,-27.504498,150.778061
59952,NaN,1.128039,14.974428,1.332315,6.104328,-1.727715,3.862291,-0.569993,-0.239710,3.807804,0.003098,-0.348685,-0.617974,-0.704640,90.458102,-29.684533,150.591698
59953,NaN,-0.833108,17.232816,1.449162,9.070721,-3.349417,4.547883,-0.586112,-0.021421,4.050114,0.016284,-0.361246,-0.608720,-0.706184,90.140363,-32.008023,150.559487
59954,NaN,-4.083945,19.063894,1.525462,12.823304,-5.484635,3.893528,-0.514294,0.122037,4.306836,0.030910,-0.373898,-0.599004,-0.707417,89.806175,-34.474136,150.639210
59955,NaN,-6.418130,20.424464,1.331991,15.553063,-7.323163,3.013919,-0.226506,0.086452,4.495582,0.046645,-0.387031,-0.589635,-0.707363,89.635588,-37.052720,150.711727
59956,NaN,-8.911423,21.430059,1.347697,18.299796,-8.874433,1.445014,-0.026867,0.035977,4.799301,0.063624,-0.400950,-0.580116,-0.706156,89.596644,-39.798211,150.756066
59957,NaN,-12.152263,20.953434,2.049255,20.962023,-9.554934,-2.060584,0.031196,-0.059823,5.052027,0.081336,-0.415710,-0.569934,-0.704092,89.631929,-42.696058,150.732107
59958,NaN,-12.942711,19.490153,4.912019,22.274117,-7.089910,-4.814257,-0.433409,-0.643837,5.022526,0.096200,-0.432314,-0.558103,-0.701692,89.733894,-45.567956,150.234641
59959,NaN,-13.556194,13.829925,4.396703,18.904375,-6.062258,-10.220971,-1.492636,-1.584549,4.347143,0.103784,-0.450625,-0.544069,-0.700111,89.841260,-48.065224,148.916859
59960,NaN,-15.549062,6.244828,3.737206,14.583410,-4.799322,-17.491689,-2.713388,-2.801889,3.877869,0.103510,-0.472180,-0.527151,-0.698887,90.151032,-50.276059,146.457027
59961,NaN,-13.051466,0.659724,0.180373,7.168921,-4.896063,-19.579800,-2.511299,-4.511683,3.452316,0.097715,-0.498145,-0.512308,-0.692708,91.984112,-52.209660,142.264073
59962,NaN,-8.288469,1.052284,-4.352682,1.804683,-7.195481,-15.616301,-1.681763,-6.317666,3.029852,0.087691,-0.528232,-0.501763,-0.679349,95.968627,-53.678677,136.068004
59963,NaN,-5.853572,1.760162,-5.532726,-0.128292,-7.562831,-13.088698,-2.605050,-6.301845,2.127584,0.072186,-0.555806,-0.489738,-0.667851,99.644550,-54.399518,129.686247
59964,NaN,-3.212943,-0.633572,-2.115318,-0.738202,-2.667097,-12.557986,-3.462266,-5.240438,1.169595,0.053513,-0.577083,-0.476642,-0.661002,101.962899,-54.480619,124.398851
59965,NaN,-9.839472,3.552108,-4.266729,2.133845,-9.683617,-15.224178,-2.818112,-4.359167,0.249506,0.035813,-0.592672,-0.467610,-0.654827,103.785241,-54.065515,120.167441
59966,NaN,-15.637231,10.961287,-10.578727,2.815432,-21.118572,-14.561608,-3.025935,-4.283150,-0.182995,0.016126,-0.606553,-0.458923,-0.649017,105.246544,-53.333780,116.202099
59967,NaN,-11.690338,13.978142,-13.555286,0.056579,-22.686214,-8.819130,-3.976241,-4.188280,-0.380073,-0.006767,-0.619368,-0.447313,-0.645174,105.954822,-52.480412,112.460200
59968,NaN,-5.003542,12.626292,-14.508740,-4.245178,-18.464583,-3.824417,-5.210003,-3.845280,-0.965414,-0.034723,-0.629045,-0.433215,-0.644532,105.478830,-51.333362,109.270177
59969,NaN,-2.318518,9.594435,-13.756263,-6.796942,-14.157126,-3.493552,-5.681703,-3.356635,-1.499763,-0.064657,-0.635296,-0.418785,-0.645629,104.229622,-50.011754,106.678627
59970,NaN,-2.443161,10.745882,-14.309113,-7.740775,-14.667991,-2.670296,-5.410792,-2.736081,-2.118227,-0.094496,-0.637553,-0.407044,-0.647234,102.566760,-48.448870,104.778564
59971,NaN,-3.840434,12.935186,-15.304743,-8.594503,-16.787195,-2.035413,-5.568605,-2.287181,-2.687029,-0.125526,-0.636539,-0.396278,-0.649634,100.450186,-46.681275,103.325301
59972,NaN,-3.873478,12.732493,-15.963796,-10.386219,-16.215685,-2.002898,-5.613172,-2.113424,-3.148105,-0.157854,-0.633210,-0.386619,-0.651654,98.155401,-44.685107,102.035585
59973,NaN,-3.266722,12.902282,-15.139869,-10.709282,-14.882480,-1.443800,-5.403946,-2.069984,-3.658016,-0.190769,-0.628280,-0.378722,-0.652259,95.938993,-42.462341,100.761094
59974,NaN,-1.976298,14.341078,-13.239999,-9.736567,-13.566697,0.476710,-5.167882,-2.046940,-4.069742,-0.224163,-0.621874,-0.372593,-0.651305,93.826172,-40.017133,99.473115
59975,NaN,-0.966031,15.713876,-11.500557,-8.912601,-12.438662,2.262886,-4.989883,-2.034880,-4.356368,-0.257499,-0.614452,-0.367372,-0.648984,91.807012,-37.469865,98.133232
59976,NaN,-0.736633,15.353640,-9.787673,-8.212704,-10.877721,2.277404,-4.716041,-2.084074,-4.685493,-0.290989,-0.606082,-0.363682,-0.644767,89.944304,-34.743848,96.707712
59977,NaN,-1.401900,14.954406,-8.985119,-8.193113,-10.213216,1.796594,-4.288120,-2.251366,-4.932014,-0.323782,-0.597805,-0.361297,-0.638168,88.366661,-31.940447,95.110367
59978,NaN,-1.476462,15.007013,-9.002694,-8.920247,-9.374747,2.055870,-3.785880,-2.561533,-5.117461,-0.355990,-0.590161,-0.360282,-0.628632,87.127380,-29.043529,93.276122
59979,NaN,-1.413000,14.810085,-9.353169,-9.884107,-8.241287,2.149062,-3.359232,-2.801677,-5.260472,-0.387255,-0.583200,-0.360032,-0.616675,86.135417,-26.132084,91.265096
59980,NaN,-1.330132,14.232140,-9.662280,-10.661539,-6.864117,1.882855,-2.882147,-3.005767,-5.343023,-0.417449,-0.576833,-0.360829,-0.602331,85.374509,-23.180779,89.127356
59981,NaN,-1.272952,13.833157,-9.870237,-11.214262,-5.582610,1.735685,-2.444510,-3.140654,-5.425252,-0.446249,-0.571109,-0.362336,-0.586011,84.796381,-20.240936,86.908065
59982,NaN,-1.138166,13.614845,-9.935753,-11.520548,-4.294251,1.767933,-2.024708,-3.197761,-5.488781,-0.473783,-0.565591,-0.364870,-0.567897,84.353968,-17.256886,84.669041
59983,NaN,-1.627880,13.825681,-9.773156,-11.611557,-3.753360,2.031869,-1.611061,-3.240790,-5.547134,-0.499725,-0.560580,-0.368084,-0.548214,84.045673,-14.285543,82.412920
59984,NaN,-1.739100,14.412201,-9.208627,-11.256826,-2.973895,2.831175,-1.264362,-3.293750,-5.593485,-0.524510,-0.555734,-0.371993,-0.526944,83.820808,-11.271223,80.142118
59985,NaN,-1.533198,14.832676,-8.823376,-10.927211,-1.796211,3.509127,-0.969644,-3.368269,-5.625844,-0.547988,-0.551330,-0.376010,-0.504342,83.658379,-8.280522,77.836135
59986,NaN,-1.547635,15.735036,-8.924450,-11.081616,-0.721313,4.546562,-0.664853,-3.431398,-5.669060,-0.570380,-0.547077,-0.380473,-0.480221,83.548448,-5.244567,75.504552
59987,NaN,-1.638132,17.151047,-9.269135,-11.451694,0.437584,6.039188,-0.426687,-3.533340,-5.711601,-0.591647,-0.543202,-0.384755,-0.454806,83.461203,-2.225044,73.115230
59988,NaN,-0.625901,19.317892,-9.795959,-11.613436,2.910235,8.243177,-0.236732,-3.566194,-5.747428,-0.611991,-0.539120,-0.389174,-0.428205,83.350298,0.838545,70.706821
59989,NaN,1.406328,20.331010,-10.640378,-11.377442,6.575935,9.046251,-0.292020,-3.487784,-5.711915,-0.631440,-0.534309,-0.393029,-0.401654,83.087331,3.849381,68.331439
59990,NaN,5.305730,19.994748,-11.348803,-9.956550,11.773509,8.042146,-0.376546,-3.112748,-5.629201,-0.649639,-0.527909,-0.397390,-0.375983,82.663330,6.854633,66.151067
59991,NaN,9.421386,20.712808,-11.482222,-7.762713,16.861091,7.648126,-0.398788,-2.444960,-5.358440,-0.665331,-0.520365,-0.402642,-0.352753,82.174799,9.709923,64.335855
59992,NaN,11.439210,21.614344,-12.605985,-7.252105,20.329660,7.242653,-0.582384,-1.857522,-4.900593,-0.679080,-0.511545,-0.408144,-0.332551,81.553559,12.362422,62.855595
59993,NaN,14.135438,21.082515,-14.022985,-6.711075,23.977107,5.048217,-0.707607,-1.048021,-4.416524,-0.690188,-0.501769,-0.414569,-0.316231,80.912713,14.768356,61.845613
59994,NaN,16.569924,18.670508,-14.805412,-5.863261,26.271779,1.034617,-0.844544,-0.213262,-3.973895,-0.698946,-0.490762,-0.422469,-0.303557,80.285938,17.014751,61.331281
59995,NaN,17.621408,15.981044,-15.398924,-5.694468,26.860299,-2.807839,-0.566405,0.265366,-3.466262,-0.704925,-0.481012,-0.430948,-0.293244,79.899736,18.993741,61.126677
59996,NaN,18.534310,15.373910,-12.845434,-2.904891,26.506515,-3.997969,-0.121664,0.429641,-2.871895,-0.708460,-0.473656,-0.439222,-0.284286,79.813243,20.673053,61.074286
59997,NaN,19.886366,14.271454,-9.749062,0.510907,25.994509,-5.547676,0.081458,0.496571,-2.123725,-0.710152,-0.468576,-0.446071,-0.277743,79.886068,21.917367,61.141864
59998,NaN,18.042187,13.172805,-7.054126,2.090676,22.987260,-5.811165,0.261975,0.486914,-1.406282,-0.710396,-0.465652,-0.451509,-0.273213,80.094429,22.771451,61.286143
59999,NaN,15.130743,13.218024,-5.813984,1.938814,20.171792,-4.636129,0.371911,0.280025,-0.682117,-0.709823,-0.465076,-0.454567,-0.270600,80.346881,23.180278,61.382864
60000,NaN,12.845314,13.472688,-5.242230,1.509719,18.201650,-3.455284,0.520997,-0.026548,-0.031465,-0.708710,-0.466883,-0.455299,-0.269171,80.642248,23.204056,61.362350
60001,NaN,13.373700,13.734299,-2.985573,3.867407,17.750381,-3.003538,0.613713,-0.492456,0.602366,-0.707578,-0.471116,-0.452939,-0.268755,80.899570,22.814596,61.116963
60002,NaN,9.404463,15.448929,-1.043867,4.040238,14.289124,0.564726,1.292710,-0.450994,1.304766,-0.703757,-0.479244,-0.450024,-0.269311,81.587517,22.041849,60.962966
60003,NaN,13.553173,13.925619,13.786227,19.103113,10.365232,-0.051525,0.138382,-1.189835,1.991969,-0.703372,-0.485813,-0.441191,-0.273139,81.468707,20.809037,60.416293
60004,NaN,-13.680122,18.053406,26.189695,17.652515,-16.114310,15.240512,0.677442,-0.119289,1.790173,-0.699500,-0.492309,-0.437346,-0.277597,81.891582,19.786731,60.500994
60005,NaN,-18.122437,12.436711,16.170793,6.320258,-17.754543,9.920439,0.329809,-0.661710,1.891532,-0.697471,-0.498521,-0.430782,-0.281847,82.003234,18.657051,60.261270
60006,NaN,4.846237,11.043235,3.886265,6.158768,5.845685,-0.409211,1.802436,-1.667625,2.157316,-0.693446,-0.511737,-0.422085,-0.281252,82.782901,17.309395,59.435135
60007,NaN,15.341818,17.406740,-10.357991,-0.713729,22.887688,1.198491,2.094884,-0.804814,2.166140,-0.686651,-0.524670,-0.416617,-0.282246,83.889990,16.019765,59.104394
60008,NaN,5.835999,18.774523,-6.748254,-1.994758,13.265290,6.064640,2.245443,0.355400,2.658558,-0.676163,-0.537351,-0.413969,-0.287553,85.273412,14.524142,59.461070
60009,NaN,1.315038,23.913937,-13.076985,-9.398264,13.299460,12.081598,1.318519,-0.279632,2.988133,-0.668809,-0.548351,-0.406806,-0.294133,86.022547,12.801559,59.427274
60010,NaN,-5.055871,14.883347,2.252394,0.127233,-2.222260,5.909088,0.327573,-0.221685,3.084667,-0.663729,-0.556015,-0.398040,-0.303108,86.213300,11.029585,59.417622
60011,NaN,-2.690610,1.404903,-6.604655,-7.012000,1.274914,-8.384192,-0.055526,-0.314828,2.524530,-0.660626,-0.561316,-0.389831,-0.310693,86.167294,9.571075,59.329286
60012,NaN,4.193316,8.217790,-5.695593,-2.594139,7.778553,-2.719294,0.818169,-0.155970,2.061404,-0.655373,-0.568280,-0.384781,-0.315416,86.638859,8.387077,59.311475
60013,NaN,0.534905,13.460005,1.116247,1.493526,1.857368,3.492076,0.174036,0.107961,2.107669,-0.651304,-0.572732,-0.379369,-0.322273,86.757717,7.181794,59.440906
60014,NaN,-1.179797,9.357846,0.780386,0.171458,-0.205660,-0.352475,0.027635,-0.064805,1.975191,-0.648111,-0.576688,-0.373529,-0.328419,86.782448,6.049446,59.465070
60015,NaN,0.301742,10.798930,1.886034,1.801547,0.507202,0.992824,0.308245,-0.341636,1.715521,-0.645012,-0.581457,-0.367938,-0.332400,86.946600,5.054054,59.319628
60016,NaN,2.386746,12.089979,1.195538,2.203253,2.599658,2.090173,0.233157,-0.374619,1.433742,-0.642600,-0.585496,-0.362938,-0.335464,87.071999,4.222046,59.144703
60017,NaN,0.325281,9.805324,0.477259,0.497368,0.852519,-0.040149,0.275922,-0.360828,1.215777,-0.640387,-0.589209,-0.358645,-0.337802,87.219877,3.512806,58.969417
60018,NaN,0.188106,10.677115,1.127233,0.932441,0.360492,0.878729,0.074330,-0.518281,0.985513,-0.639400,-0.592125,-0.354199,-0.339262,87.252999,2.933648,58.696600
60019,NaN,1.551158,9.916151,0.109157,0.750765,1.902187,0.014081,0.323270,-0.478516,0.828174,-0.637870,-0.595457,-0.350732,-0.339911,87.427854,2.443718,58.441363
60020,NaN,2.248575,12.621833,0.382760,1.281489,2.423564,2.717138,0.078281,-0.191473,0.785310,-0.636610,-0.597449,-0.347908,-0.341677,87.474938,1.988263,58.348604
60021,NaN,1.138420,10.884146,1.009793,1.231605,0.980248,1.063991,0.102273,0.123635,0.671931,-0.634930,-0.598756,-0.346438,-0.344000,87.537790,1.603520,58.433056
60022,NaN,0.350681,10.108275,1.379626,1.110889,0.028226,0.334645,-0.254440,0.081185,0.596149,-0.634498,-0.598884,-0.344464,-0.346548,87.399241,1.262840,58.491458
60023,NaN,-0.302248,9.933969,1.795448,1.085753,-0.795325,0.196661,-0.027927,-0.091791,0.566147,-0.633748,-0.599955,-0.342398,-0.348111,87.384063,0.933197,58.450571
60024,NaN,0.040471,11.706763,1.574075,0.985980,-0.368362,1.952493,-0.101585,-0.235243,0.488911,-0.633578,-0.600922,-0.339999,-0.349101,87.329678,0.645599,58.325633
60025,NaN,0.226678,11.349183,0.606470,0.229306,0.244549,1.549992,-0.185294,-0.217228,0.450204,-0.633708,-0.601505,-0.337605,-0.350183,87.224089,0.378815,58.210464
60026,NaN,0.025342,10.992577,0.179099,-0.266173,0.254478,1.175200,-0.137591,-0.106660,0.402458,-0.633573,-0.601978,-0.335805,-0.351344,87.150431,0.143881,58.157516
60027,NaN,-0.578507,10.709580,0.920427,0.019791,-0.686644,0.929981,-0.144646,-0.029638,0.395844,-0.633353,-0.602263,-0.334236,-0.352746,87.069158,-0.086711,58.148904
60028,NaN,-0.484184,10.475955,0.987584,0.101606,-0.672828,0.698840,-0.189225,-0.031193,0.342669,-0.633346,-0.602335,-0.332762,-0.354027,86.966177,-0.285305,58.138029
60029,NaN,-0.340229,10.245399,1.454971,0.556435,-0.832503,0.492557,0.025782,-0.004464,0.424672,-0.632514,-0.603157,-0.331485,-0.355310,86.982505,-0.531650,58.145238
60030,NaN,-0.235379,10.529453,1.542803,0.647425,-0.820726,0.780334,-0.074432,-0.058914,0.410261,-0.632084,-0.603748,-0.329919,-0.356527,86.945394,-0.769688,58.120725
60031,NaN,-0.266872,9.480221,0.844398,0.064155,-0.529307,-0.306143,-0.080217,-0.153600,0.428832,-0.631804,-0.604502,-0.327966,-0.357546,86.902257,-1.022992,58.042943
60032,NaN,0.111961,9.577973,0.303102,-0.224618,0.045351,-0.232014,-0.006293,-0.156327,0.446216,-0.631259,-0.605534,-0.326102,-0.358467,86.905352,-1.284565,57.964031
60033,NaN,0.422503,9.008972,-0.271042,-0.535914,0.570630,-0.823774,-0.004584,-0.130562,0.483046,-0.630609,-0.606567,-0.324189,-0.359597,86.905897,-1.568198,57.901177
60034,NaN,0.489459,9.106213,-0.573834,-0.786287,0.752157,-0.740322,-0.043393,-0.086111,0.492683,-0.629970,-0.607424,-0.322335,-0.360933,86.887335,-1.854192,57.863872
60035,NaN,0.909324,8.627065,-0.688575,-0.656388,1.132378,-1.209550,-0.050244,-0.025105,0.501542,-0.629247,-0.608145,-0.320612,-0.362512,86.860216,-2.145146,57.862105
60036,NaN,0.824866,8.854893,-0.436789,-0.530295,0.890310,-0.969256,-0.039290,0.062273,0.508444,-0.628320,-0.608766,-0.319181,-0.364337,86.841161,-2.435596,57.910416
60037,NaN,0.619363,8.888111,-0.011028,-0.310834,0.452948,-0.919978,-0.063658,0.091615,0.518159,-0.627412,-0.609252,-0.317745,-0.366339,86.803325,-2.732351,57.976279
60038,NaN,0.890642,9.587002,0.184450,-0.082401,0.533392,-0.197783,-0.052627,0.062404,0.512304,-0.626509,-0.609830,-0.316274,-0.368192,86.776232,-3.025026,58.025070
60039,NaN,1.503898,9.886734,0.659932,0.589377,0.759356,0.163312,-0.083033,0.101160,0.462285,-0.625740,-0.610140,-0.314999,-0.370074,86.726413,-3.289428,58.094985
60040,NaN,1.639252,9.640128,1.129085,1.044853,0.599416,-0.043200,-0.121661,0.139453,0.422748,-0.625082,-0.610212,-0.313910,-0.371987,86.656849,-3.528394,58.185450
60041,NaN,1.137559,9.614162,1.796691,1.314772,-0.204513,-0.056476,-0.145516,0.129217,0.414893,-0.624541,-0.610194,-0.312747,-0.373901,86.569671,-3.764570,58.270511
60042,NaN,0.336969,9.852792,1.845602,0.881960,-0.941851,0.133780,-0.157958,0.022672,0.423508,-0.624169,-0.610364,-0.311219,-0.375514,86.482852,-4.007933,58.294790
60043,NaN,0.152406,10.452712,1.551771,0.445358,-0.991804,0.699598,-0.142361,-0.070983,0.484936,-0.623792,-0.610833,-0.309220,-0.377026,86.404807,-4.291027,58.268312
60044,NaN,-0.600013,10.828162,1.665580,0.069066,-1.743446,1.019604,-0.150059,-0.064022,0.585019,-0.623221,-0.611432,-0.306938,-0.378862,86.325396,-4.629732,58.249458
60045,NaN,-0.897631,11.491501,1.915450,0.005883,-2.207291,1.661477,-0.146261,-0.052708,0.756628,-0.622301,-0.612260,-0.304153,-0.381275,86.243632,-5.067561,58.244355
60046,NaN,-1.319229,12.020481,1.980827,-0.282553,-2.696838,2.137294,-0.182219,-0.006361,0.961996,-0.621006,-0.613202,-0.300827,-0.384497,86.141338,-5.619324,58.274010
60047,NaN,-1.865425,12.204743,2.189484,-0.498799,-3.378310,2.252375,-0.190556,0.000415,1.211829,-0.619237,-0.614449,-0.296712,-0.388535,86.029100,-6.315292,58.318864
60048,NaN,-2.228087,12.625378,2.411093,-0.655197,-3.954842,2.601207,-0.201375,-0.043764,1.481546,-0.617007,-0.616130,-0.291618,-0.393249,85.914643,-7.164853,58.350257
60049,NaN,-2.323347,13.579243,2.312536,-1.040102,-4.211652,3.465748,-0.223831,-0.071358,1.746201,-0.614332,-0.618129,-0.285538,-0.398723,85.784148,-8.168977,58.379135
60050,NaN,-2.735316,14.518684,2.258921,-1.586903,-4.808631,4.248906,-0.245381,-0.030241,1.983040,-0.611135,-0.620271,-0.278810,-0.405021,85.637992,-9.303578,58.444141
60051,NaN,-3.498106,15.291864,2.241887,-2.299457,-5.754953,4.771089,-0.304615,0.018456,2.245489,-0.607456,-0.622421,-0.271239,-0.412333,85.446200,-10.588740,58.553323
60052,NaN,-4.108395,16.043642,2.534825,-2.702972,-6.786846,5.264483,-0.309696,0.087419,2.509175,-0.603069,-0.624685,-0.263038,-0.420580,85.240227,-12.016824,58.719739
60053,NaN,-5.319476,16.592518,2.896039,-3.349032,-8.384626,5.368159,-0.347728,0.175136,2.804399,-0.597955,-0.626921,-0.254022,-0.429993,84.989394,-13.612574,58.959546
60054,NaN,-7.992879,17.438344,2.567184,-5.382066,-10.929975,5.224336,-0.351767,0.228238,3.131355,-0.591957,-0.629304,-0.244113,-0.440423,84.717275,-15.385450,59.256759
60055,NaN,-11.589877,19.279362,1.996265,-8.295636,-14.363766,5.511051,-0.315589,0.191304,3.530343,-0.584835,-0.632185,-0.232811,-0.451784,84.450658,-17.392171,59.566422
60056,NaN,-15.349563,21.953760,0.847258,-12.005880,-17.908412,6.104179,-0.310600,0.027720,3.995533,-0.576649,-0.635759,-0.219545,-0.463774,84.196462,-19.663521,59.818266
60057,NaN,-16.824433,22.772411,-0.231068,-14.163220,-19.290228,5.315397,-0.291467,-0.210100,4.380394,-0.567495,-0.640087,-0.204261,-0.475937,83.979100,-22.175733,59.963710
60058,NaN,-16.678004,21.928956,0.011522,-14.009465,-19.606590,3.537046,-0.321395,-0.386735,4.614169,-0.557809,-0.644650,-0.187639,-0.487920,83.773950,-24.818329,60.027015
60059,NaN,-11.203558,20.896755,-0.417505,-11.962182,-15.272282,3.822480,-0.397466,-0.714367,4.896938,-0.547626,-0.649706,-0.168811,-0.499490,83.597634,-27.655464,59.914278
60060,NaN,-2.554567,22.086826,-1.906820,-10.238411,-8.850504,7.927929,-0.545945,-1.012099,5.055179,-0.537488,-0.654800,-0.148291,-0.510249,83.430362,-30.584775,59.624756
60061,NaN,-0.978330,20.156624,-5.321776,-12.232349,-5.683320,6.110921,-0.834469,-1.454196,5.015640,-0.528296,-0.659782,-0.125758,-0.519399,83.265473,-33.539135,59.037715
60062,NaN,5.841258,20.108155,-3.685639,-8.484761,-2.327499,9.540832,-0.913825,-1.591956,4.823782,-0.519660,-0.664336,-0.103336,-0.527193,83.155197,-36.374958,58.325606
60063,NaN,1.471754,21.030698,-4.242365,-11.675864,-5.993335,7.221093,-0.798041,-2.248974,4.381484,-0.511742,-0.670272,-0.080780,-0.531348,83.464902,-39.021922,57.074249
60064,NaN,-5.135361,18.039714,-4.721185,-13.958590,-8.908301,0.179992,-0.787160,-2.856665,3.926246,-0.505009,-0.677258,-0.058320,-0.531871,84.195584,-41.416183,55.252897
60065,NaN,-13.222904,11.498799,-4.062843,-14.240635,-10.961921,-10.565191,-1.046920,-3.228007,3.260588,-0.500662,-0.683984,-0.036304,-0.529325,85.124822,-43.452042,52.989471
60066,NaN,-17.677189,3.671782,-0.687407,-10.185385,-11.284491,-19.574346,-1.808629,-3.772277,2.734075,-0.500218,-0.689753,-0.012857,-0.523313,86.084665,-45.157761,50.138760
60067,NaN,-2.017614,1.346522,-1.604426,-2.785760,-0.604634,-10.387203,-1.820556,-4.899121,2.479588,-0.500091,-0.697910,0.012738,-0.512511,87.866499,-46.728566,46.210853
60068,NaN,4.475838,10.962573,-3.124309,-5.861018,-1.091347,0.884447,-0.897505,-4.664855,1.540098,-0.498919,-0.707329,0.031922,-0.499746,90.226744,-47.631216,42.295925
60069,NaN,-9.450674,11.908865,-2.271180,-12.908357,-8.283186,-8.803397,-2.317907,-4.193629,0.790018,-0.504301,-0.711710,0.050984,-0.486363,91.565443,-48.049408,38.700852
60070,NaN,-12.707781,4.626136,-4.984114,-12.532140,-3.414256,-16.056093,-2.759878,-3.960415,0.254420,-0.512456,-0.714131,0.068411,-0.471939,92.516107,-48.087631,35.298067
60071,NaN,-12.672963,3.465457,-5.320663,-12.225370,-1.961885,-16.710458,-2.727951,-3.984570,-0.438150,-0.521691,-0.716501,0.083499,-0.455513,93.467779,-47.720535,31.911471
60072,NaN,-10.679434,2.970138,-6.486548,-11.571134,0.515412,-15.358887,-2.777490,-4.094984,-0.920850,-0.531986,-0.718757,0.097010,-0.437000,94.377034,-47.004619,28.510400
60073,NaN,-7.361345,4.223918,-7.053728,-10.639176,2.095528,-11.856618,-2.780798,-4.062195,-1.289408,-0.542628,-0.720646,0.109253,-0.417478,95.171993,-46.077172,25.222621
60074,NaN,-5.110457,5.662813,-7.723540,-10.311117,3.289092,-8.991892,-3.040722,-3.871851,-1.723937,-0.555012,-0.721186,0.119678,-0.396900,95.574854,-44.855621,22.208841
60075,NaN,-4.011432,6.573542,-8.428274,-10.238224,4.390568,-7.320711,-3.268212,-3.622117,-2.194956,-0.568761,-0.720376,0.128286,-0.375648,95.592325,-43.404508,19.496812
60076,NaN,-3.222128,7.049411,-8.232764,-9.620136,4.756788,-6.256184,-3.656857,-3.260184,-2.611254,-0.584655,-0.717504,0.134788,-0.353833,95.069139,-41.710134,17.165173
60077,NaN,-3.612481,6.367519,-8.208693,-9.156121,5.334415,-6.870339,-4.027029,-2.823310,-3.088353,-0.602391,-0.712522,0.139060,-0.331813,94.035341,-39.820534,15.217120
60078,NaN,-4.602185,6.487388,-8.104226,-9.604122,5.495138,-7.267414,-4.125406,-2.551929,-3.539105,-0.621039,-0.706469,0.140730,-0.308880,92.738019,-37.678178,13.503662
60079,NaN,-4.566768,7.095839,-8.461405,-9.674502,6.229927,-6.594264,-4.190945,-2.375304,-3.922451,-0.639905,-0.699558,0.140687,-0.285214,91.289683,-35.387282,11.905289
60080,NaN,-3.759138,7.933191,-8.574228,-9.105250,6.871565,-5.293963,-4.212841,-2.227471,-4.249176,-0.658925,-0.691880,0.138689,-0.260547,89.717872,-32.908927,10.392863
60081,NaN,-2.497891,8.785114,-8.826733,-8.060214,7.746182,-3.786840,-4.141627,-2.065446,-4.519506,-0.677340,-0.683713,0.135216,-0.235508,88.107039,-30.345520,8.942027
60082,NaN,-1.797166,9.556966,-9.050397,-7.287347,8.534516,-2.707941,-4.046744,-1.855742,-4.834810,-0.695355,-0.675077,0.129459,-0.209747,86.440437,-27.595717,7.580212
60083,NaN,-2.216376,10.345140,-9.289644,-7.389587,9.229617,-2.172091,-3.936489,-1.673902,-5.148904,-0.712547,-0.666115,0.121991,-0.183536,84.768487,-24.731144,6.259756
60084,NaN,-3.244325,11.479069,-9.420509,-8.081184,9.834646,-1.509544,-3.739417,-1.630061,-5.460030,-0.728697,-0.657210,0.112761,-0.156081,83.156819,-21.684370,4.892779
60085,NaN,-4.162323,12.365718,-9.673442,-8.475587,10.633108,-0.934232,-3.481263,-1.743341,-5.722583,-0.743164,-0.648733,0.102996,-0.127454,81.685721,-18.569381,3.374947
60086,NaN,-4.618018,12.938513,-10.341313,-8.196276,11.878136,-0.469035,-3.078779,-2.029206,-5.988421,-0.755539,-0.641240,0.092788,-0.096762,80.426225,-15.325721,1.617109
60087,NaN,-4.446658,14.318827,-10.876463,-7.343114,13.136284,0.980154,-2.649218,-2.409943,-6.215429,-0.765420,-0.634882,0.083226,-0.064275,79.393510,-12.064859,-0.426686
60088,NaN,-3.955268,15.098239,-11.282596,-5.776908,14.128849,1.923770,-2.264949,-2.880140,-6.407324,-0.773007,-0.629338,0.074351,-0.029424,78.514278,-8.741832,-2.789083
60089,NaN,-3.730044,16.093688,-11.860683,-4.251368,15.247307,2.948427,-1.764101,-3.483556,-6.588551,-0.777653,-0.625031,0.067328,0.007667,77.844802,-5.458850,-5.539208
60090,NaN,-2.960920,19.166837,-12.883120,-1.908876,17.057644,5.910356,-1.214667,-4.109921,-6.763304,-0.779222,-0.621885,0.061839,0.047416,77.348314,-2.143275,-8.679912
60091,NaN,-1.339160,22.524946,-14.265153,1.925833,18.868264,8.963228,-0.767059,-4.667857,-6.786829,-0.777879,-0.619365,0.058728,0.088553,76.943351,1.050110,-12.154647
60092,NaN,0.886203,23.603190,-15.875173,6.773738,19.799523,9.462426,-0.377157,-5.114820,-6.740225,-0.773882,-0.617011,0.057299,0.130843,76.547165,4.173524,-15.899381
60093,NaN,3.675884,24.121509,-17.675137,12.290204,20.039707,9.017689,0.103593,-5.320337,-6.650713,-0.766981,-0.615283,0.057424,0.172826,76.224814,7.156927,-19.779954
60094,NaN,7.487217,26.069869,-19.026866,18.901592,19.081778,9.570414,0.633577,-5.103044,-6.508468,-0.757279,-0.614599,0.057254,0.213348,76.011172,10.109670,-23.560121
60095,NaN,12.235875,27.852487,-18.890856,25.585129,15.680001,9.713400,0.828701,-4.318151,-6.168895,-0.746371,-0.614459,0.055531,0.249573,75.822530,12.932965,-26.889088
60096,NaN,22.468464,26.583599,-10.211852,32.002608,1.593467,7.178536,0.721239,-2.550863,-5.375792,-0.736374,-0.615154,0.049225,0.277337,75.674797,15.587718,-29.138264
60097,NaN,26.893520,25.004187,-5.294064,33.737799,-6.179759,4.322938,0.354664,-0.672116,-4.663162,-0.728444,-0.616505,0.037878,0.296404,75.565276,18.076468,-30.223640
60098,NaN,18.732973,13.939067,-8.541607,24.431687,-0.646317,-5.252820,-0.654547,0.439831,-3.556879,-0.725118,-0.615321,0.024200,0.308217,75.089393,20.133480,-30.517365
60099,NaN,11.647890,11.614448,-20.831791,22.927697,13.308266,-8.496753,0.158579,0.647739,-2.890614,-0.720174,-0.617177,0.013242,0.316649,75.155442,21.825652,-30.591157
60100,NaN,14.024782,17.253753,-20.586258,27.341141,11.946840,-4.531049,1.270395,-0.095721,-2.339277,-0.712434,-0.621697,0.008275,0.325366,75.719296,23.126771,-31.017696
