// General information: 
//  MT Manager version: 2019.0.1 
//  XDA version: 2019.0.1 build 2740 rev 84096 built on 2019-01-30
// Device information: 
//  DeviceId: 00B4381A
//  ProductCode: MTW2-3A7G6
//  Firmware Version: 4.3.4
//  Hardware Version: 1.1.0
// Device settings: 
//  Filter Profile: human(46.1)
//  Option Flags: Orientation Smoother Disabled, AHS Disabled, ICC Disabled
// Coordinate system: ENU
PacketCounter,SampleTimeFine,Acc_X,Acc_Y,Acc_Z,FreeAcc_E,FreeAcc_N,FreeAcc_U,Gyr_X,Gyr_Y,Gyr_Z,Quat_q0,Quat_q1,Quat_q2,Quat_q3,Roll,Pitch,Yaw
51481,NaN,-3.447720,-3.180727,8.981315,0.036178,0.017286,0.319746,0.034485,0.066903,0.114292,-0.038514,0.179939,0.153446,-0.970872,-19.345238,19.729272,172.061308
51482,NaN,-3.417547,-3.150889,9.012634,-0.010793,-0.007464,0.328078,0.040560,0.031511,0.112175,-0.038083,0.180154,0.153094,-0.970905,-19.297302,19.765050,172.114579
51483,NaN,-3.348209,-3.103996,9.008108,-0.078584,-0.033056,0.286027,0.043978,0.010253,0.110358,-0.037649,0.180255,0.152736,-0.970960,-19.246770,19.787926,172.170941
51484,NaN,-3.386257,-3.091635,9.009848,-0.046373,-0.041073,0.296638,0.046801,-0.002464,0.113551,-0.037191,0.180304,0.152358,-0.971027,-19.192609,19.805482,172.231897
51485,NaN,-3.315731,-3.048335,8.971430,-0.100907,-0.054276,0.225233,0.027782,0.002741,0.107858,-0.036750,0.180370,0.152082,-0.971075,-19.151281,19.823729,172.288380
51486,NaN,-3.263931,-3.008761,8.880983,-0.119873,-0.053212,0.115079,0.019606,0.011887,0.099254,-0.036347,0.180483,0.151846,-0.971106,-19.116405,19.846268,172.338287
51487,NaN,-3.305933,-3.024127,8.883281,-0.084904,-0.039422,0.136104,0.002849,0.026178,0.091492,-0.035981,0.180654,0.151701,-0.971111,-19.094095,19.874073,172.380715
51488,NaN,-3.394951,-2.989919,8.829588,0.012082,-0.064049,0.108134,-0.006096,0.035834,0.089537,-0.035620,0.180881,0.151595,-0.971099,-19.077407,19.907699,172.420295
51489,NaN,-3.434310,-2.980050,8.862870,0.031160,-0.084570,0.148112,-0.011225,0.039526,0.088375,-0.035266,0.181117,0.151519,-0.971079,-19.064621,19.942125,172.458304
51490,NaN,-3.428036,-3.008683,8.811493,0.038404,-0.038937,0.109158,-0.010054,0.041096,0.094575,-0.034882,0.181373,0.151426,-0.971060,-19.049501,19.979524,172.499777
51491,NaN,-3.471808,-3.025491,8.812445,0.073382,-0.025176,0.130160,-0.007183,0.035331,0.097316,-0.034485,0.181595,0.151323,-0.971049,-19.032294,20.013330,172.543810
51492,NaN,-3.508776,-2.996433,8.775289,0.116227,-0.042819,0.100963,-0.000439,0.017696,0.100135,-0.034064,0.181740,0.151183,-0.971058,-19.008913,20.039069,172.593184
51493,NaN,-3.514314,-3.010661,8.846063,0.093005,-0.044946,0.170130,0.010781,-0.001288,0.103697,-0.033625,0.181786,0.150993,-0.971094,-18.977610,20.054192,172.648210
51494,NaN,-3.555858,-3.030914,8.780493,0.154379,-0.006398,0.132349,0.016087,-0.015662,0.102207,-0.033184,0.181768,0.150776,-0.971147,-18.942040,20.062201,172.705429
51495,NaN,-3.592265,-3.023690,8.747738,0.200005,-0.002248,0.113540,0.019531,-0.023766,0.105354,-0.032728,0.181704,0.150545,-0.971210,-18.903846,20.065385,172.765883
51496,NaN,-3.622937,-2.986079,8.782044,0.216282,-0.044607,0.143108,0.025066,-0.030101,0.102213,-0.032284,0.181615,0.150287,-0.971281,-18.862145,20.065513,172.825969
51497,NaN,-3.606551,-2.984692,8.766339,0.207783,-0.033391,0.123107,0.015601,-0.030191,0.093733,-0.031876,0.181512,0.150087,-0.971345,-18.828067,20.062986,172.880985
51498,NaN,-3.624299,-2.979264,8.750755,0.230771,-0.030904,0.113695,0.010578,-0.025744,0.086713,-0.031498,0.181434,0.149913,-0.971399,-18.798034,20.062567,172.931263
51499,NaN,-3.597860,-3.029187,8.755424,0.205107,0.022430,0.123883,-0.003505,-0.013035,0.074266,-0.031179,0.181403,0.149821,-0.971429,-18.779917,20.065703,172.971664
51500,NaN,-3.570847,-3.062196,8.688264,0.203175,0.078592,0.064887,-0.007805,0.008548,0.062775,-0.030927,0.181477,0.149752,-0.971434,-18.767468,20.079464,173.001385
51501,NaN,-3.619167,-3.130925,8.660092,0.256763,0.148494,0.077220,-0.009129,0.012550,0.052607,-0.030727,0.181554,0.149703,-0.971433,-18.758577,20.092471,173.024263
51502,NaN,-3.574820,-3.162840,8.643635,0.219112,0.190587,0.057013,-0.004616,0.017820,0.048201,-0.030555,0.181662,0.149630,-0.971430,-18.747824,20.108591,173.043750
51503,NaN,-3.584799,-3.209587,8.647232,0.225145,0.235083,0.077758,-0.001344,0.014904,0.042731,-0.030413,0.181743,0.149552,-0.971431,-18.736581,20.121049,173.060468
51504,NaN,-3.536325,-3.216922,8.629121,0.184840,0.255245,0.047160,0.008856,0.008236,0.039164,-0.030290,0.181795,0.149424,-0.971445,-18.719285,20.130319,173.076610
51505,NaN,-3.541432,-3.238216,8.631667,0.188223,0.277812,0.057513,0.023211,-0.001940,0.038701,-0.030176,0.181787,0.149232,-0.971480,-18.693631,20.132886,173.094306
51506,NaN,-3.520082,-3.208736,8.681992,0.150360,0.242578,0.085923,0.032378,-0.009102,0.027750,-0.030117,0.181744,0.149003,-0.971525,-18.664002,20.130653,173.107233
51507,NaN,-3.542700,-3.127672,8.677623,0.174699,0.168548,0.065332,0.032318,-0.027850,0.026784,-0.030051,0.181600,0.148782,-0.971588,-18.633763,20.116953,173.123096
51508,NaN,-3.569245,-3.092382,8.712670,0.190923,0.126173,0.094915,0.026106,-0.055863,0.006518,-0.030054,0.181314,0.148610,-0.971667,-18.608858,20.085447,173.132841
51509,NaN,-3.574977,-3.056245,8.799668,0.171599,0.069713,0.163331,0.018882,-0.072268,0.000164,-0.030072,0.180936,0.148486,-0.971756,-18.588655,20.042749,173.141937
51510,NaN,-3.528479,-3.030228,8.868987,0.111241,0.032801,0.201199,0.008688,-0.083601,-0.003089,-0.030086,0.180512,0.148411,-0.971846,-18.573828,19.994435,173.151483
51511,NaN,-3.435578,-3.041086,8.887913,0.026183,0.049500,0.189475,0.005450,-0.074044,-0.002770,-0.030104,0.180125,0.148355,-0.971926,-18.561806,19.950233,173.159199
51512,NaN,-3.396883,-3.048701,8.855320,0.008309,0.071402,0.149487,0.007353,-0.049453,-0.000345,-0.030129,0.179868,0.148279,-0.971984,-18.549493,19.920966,173.163676
51513,NaN,-3.342474,-3.054347,8.872950,-0.045099,0.079249,0.148341,0.005649,-0.011924,0.000827,-0.030176,0.179786,0.148209,-0.972008,-18.540765,19.911160,173.161407
51514,NaN,-3.340303,-3.032551,8.836463,-0.034020,0.070332,0.108551,0.009736,0.020637,0.002359,-0.030242,0.179872,0.148109,-0.972006,-18.531198,19.920450,173.153852
51515,NaN,-3.340284,-3.022275,8.938957,-0.073121,0.034193,0.196812,0.015806,0.041720,0.007882,-0.030304,0.180054,0.147975,-0.971991,-18.518803,19.941073,173.145270
51516,NaN,-3.426739,-2.985252,8.919787,0.010434,-0.003082,0.198144,0.013904,0.047664,0.007839,-0.030366,0.180275,0.147846,-0.971967,-18.507565,19.966031,173.135650
51517,NaN,-3.480455,-2.970921,8.971284,0.038699,-0.034146,0.258122,0.024823,0.033460,0.013296,-0.030404,0.180419,0.147664,-0.971967,-18.488392,19.983154,173.131803
51518,NaN,-3.482788,-2.968371,8.971222,0.039204,-0.033401,0.258122,0.021108,0.009270,0.014793,-0.030411,0.180457,0.147499,-0.971985,-18.469117,19.988514,173.133637
51519,NaN,-3.424820,-2.927195,8.949672,-0.006367,-0.057142,0.206853,0.018388,-0.020662,0.018293,-0.030378,0.180343,0.147353,-0.972029,-18.449070,19.977131,173.143139
51520,NaN,-3.414362,-2.874295,8.981081,-0.024563,-0.112528,0.215573,0.009715,-0.040432,0.012800,-0.030348,0.180140,0.147253,-0.972083,-18.433438,19.955111,173.153409
51521,NaN,-3.395487,-2.895742,9.036329,-0.056881,-0.103834,0.264806,-0.003782,-0.055081,0.009653,-0.030312,0.179856,0.147227,-0.972141,-18.425546,19.923450,173.164539
51522,NaN,-3.423784,-2.888411,9.072778,-0.038001,-0.124223,0.304804,-0.019846,-0.055910,0.002101,-0.030296,0.179573,0.147283,-0.972185,-18.427941,19.891067,173.171598
51523,NaN,-3.436476,-2.889500,9.057009,-0.014865,-0.121878,0.295375,-0.028636,-0.052107,-0.000544,-0.030290,0.179300,0.147386,-0.972220,-18.436499,19.859175,173.176258
51524,NaN,-3.398220,-2.898277,9.056859,-0.046008,-0.112205,0.284832,-0.049880,-0.038175,-0.001942,-0.030279,0.179105,0.147589,-0.972225,-18.458043,19.835692,173.177577
51525,NaN,-3.430318,-2.901016,9.022626,-0.000419,-0.108207,0.265956,-0.055609,-0.026591,-0.007441,-0.030301,0.178955,0.147826,-0.972216,-18.485074,19.816418,173.173351
51526,NaN,-3.382319,-2.943129,8.971206,-0.024754,-0.053783,0.216327,-0.069396,-0.012850,-0.005823,-0.030311,0.178884,0.148123,-0.972184,-18.520196,19.805983,173.167564
51527,NaN,-3.361278,-2.929693,8.949735,-0.035995,-0.064479,0.185992,-0.072615,-0.003300,-0.005489,-0.030325,0.178850,0.148437,-0.972142,-18.558106,19.799711,173.159980
51528,NaN,-3.325154,-2.923206,8.876239,-0.043350,-0.052296,0.106223,-0.070929,-0.004409,-0.003564,-0.030329,0.178822,0.148738,-0.972101,-18.594206,19.794257,173.153877
51529,NaN,-3.295192,-2.961239,8.841599,-0.058306,-0.008538,0.076580,-0.061764,-0.005723,0.001368,-0.030318,0.178780,0.148994,-0.972070,-18.624396,19.787915,173.150730
51530,NaN,-3.338787,-2.911775,8.819769,-0.009199,-0.058960,0.056998,-0.054350,-0.018424,0.008769,-0.030265,0.178690,0.149205,-0.972055,-18.647658,19.777091,173.154478
51531,NaN,-3.369823,-2.907235,8.854404,0.009860,-0.079441,0.096994,-0.036754,-0.038199,0.023089,-0.030147,0.178503,0.149325,-0.972075,-18.657139,19.757097,173.170190
51532,NaN,-3.381566,-2.901944,8.907209,0.006296,-0.101468,0.146445,-0.019065,-0.063129,0.030819,-0.029986,0.178207,0.149352,-0.972130,-18.652941,19.726042,173.195365
51533,NaN,-3.401662,-2.845939,8.940185,0.019843,-0.165834,0.165773,-0.011728,-0.088329,0.042591,-0.029757,0.177787,0.149340,-0.972216,-18.641022,19.682405,173.232069
51534,NaN,-3.397918,-2.869585,8.945216,0.023101,-0.143128,0.176118,-0.009230,-0.101729,0.036409,-0.029549,0.177305,0.149320,-0.972313,-18.627607,19.631405,173.267950
51535,NaN,-3.417603,-2.940380,8.938111,0.054515,-0.074990,0.197661,-0.011794,-0.117297,0.028371,-0.029368,0.176734,0.149325,-0.972422,-18.616664,19.569423,173.302041
51536,NaN,-3.431476,-2.882115,9.007256,0.054616,-0.151454,0.246455,-0.023092,-0.134584,0.021654,-0.029195,0.176083,0.149390,-0.972535,-18.611976,19.497873,173.335754
51537,NaN,-3.339881,-2.925607,8.959510,-0.001147,-0.088173,0.186263,-0.037103,-0.139117,0.011772,-0.029056,0.175397,0.149536,-0.972641,-18.617400,19.421003,173.364479
51538,NaN,-3.315307,-2.972969,9.052322,-0.044056,-0.069488,0.275304,-0.050688,-0.123539,0.006426,-0.028940,0.174793,0.149746,-0.972721,-18.632215,19.352668,173.387272
51539,NaN,-3.232441,-2.945557,8.979684,-0.085680,-0.070420,0.174675,-0.059017,-0.105130,0.012280,-0.028805,0.174275,0.149994,-0.972780,-18.652341,19.294356,173.409709
51540,NaN,-3.162599,-2.990554,8.912331,-0.119151,-0.005412,0.105017,-0.058946,-0.080871,0.009388,-0.028700,0.173882,0.150235,-0.972816,-18.674083,19.249726,173.425952
51541,NaN,-3.108181,-3.007578,8.859480,-0.146038,0.026983,0.045033,-0.062953,-0.047643,0.014722,-0.028593,0.173646,0.150491,-0.972822,-18.699704,19.223079,173.438651
51542,NaN,-3.055896,-3.024224,8.805942,-0.173088,0.059470,-0.014956,-0.055760,-0.038250,0.021535,-0.028464,0.173468,0.150701,-0.972825,-18.720060,19.203799,173.453612
51543,NaN,-3.073379,-3.048023,8.825271,-0.160424,0.071545,0.015367,-0.049132,-0.038684,0.036978,-0.028267,0.173291,0.150869,-0.972836,-18.734134,19.186116,173.477370
51544,NaN,-3.065173,-3.005279,8.786710,-0.152223,0.040590,-0.034730,-0.042527,-0.044992,0.051665,-0.027997,0.173101,0.150989,-0.972859,-18.740806,19.168699,173.510957
51545,NaN,-3.013856,-3.018404,8.733971,-0.179113,0.072976,-0.094718,-0.027435,-0.051398,0.072019,-0.027639,0.172885,0.151023,-0.972902,-18.735044,19.150572,173.557320
51546,NaN,-3.011681,-3.017601,8.734999,-0.178585,0.073753,-0.094714,-0.012096,-0.056405,0.095855,-0.027173,0.172668,0.150958,-0.972964,-18.715257,19.135052,173.618497
51547,NaN,-2.973472,-2.999008,8.699044,-0.199087,0.073621,-0.145014,0.000919,-0.057535,0.106863,-0.026665,0.172445,0.150825,-0.973038,-18.686333,19.119967,173.686046
51548,NaN,-2.920571,-3.001428,8.716422,-0.252636,0.081793,-0.146054,0.018830,-0.046583,0.128223,-0.026075,0.172296,0.150580,-0.973119,-18.643403,19.115620,173.763881
51549,NaN,-3.016038,-2.931173,8.717463,-0.162673,0.011631,-0.135094,0.023633,-0.029328,0.145150,-0.025422,0.172235,0.150300,-0.973190,-18.596064,19.122764,173.847946
51550,NaN,-3.090482,-2.937256,8.723219,-0.096070,0.016384,-0.103743,0.033944,-0.012185,0.149111,-0.024769,0.172267,0.149959,-0.973254,-18.542703,19.140752,173.931141
51551,NaN,-3.142447,-2.898484,8.706880,-0.044141,-0.012303,-0.113005,0.035907,-0.000124,0.155985,-0.024095,0.172355,0.149606,-0.973310,-18.488075,19.165589,174.015843
51552,NaN,-3.210603,-2.871076,8.813258,-0.020106,-0.065928,-0.003518,0.037724,0.005735,0.157437,-0.023419,0.172479,0.149237,-0.973361,-18.432018,19.194660,174.100446
51553,NaN,-3.349370,-2.818832,8.782176,0.117515,-0.111052,-0.001237,0.036459,0.004588,0.155871,-0.022750,0.172590,0.148880,-0.973411,-18.377290,19.221884,174.184259
51554,NaN,-3.399471,-2.792402,8.905129,0.119100,-0.166237,0.117741,0.036638,0.000901,0.152734,-0.022092,0.172687,0.148522,-0.973464,-18.322327,19.247326,174.267167
51555,NaN,-3.469316,-2.751506,8.871817,0.193441,-0.193397,0.098985,0.030664,-0.000257,0.147000,-0.021457,0.172768,0.148201,-0.973513,-18.272205,19.270170,174.346870
51556,NaN,-3.524970,-2.736879,8.857045,0.248016,-0.200087,0.100012,0.021860,-0.001489,0.137837,-0.020857,0.172844,0.147927,-0.973554,-18.228285,19.291520,174.421721
51557,NaN,-3.515173,-2.739924,8.771323,0.265969,-0.164636,0.021024,0.022348,-0.008940,0.131617,-0.020284,0.172872,0.147661,-0.973602,-18.185243,19.306766,174.494259
51558,NaN,-3.469346,-2.746782,8.718871,0.238891,-0.132208,-0.038981,0.015086,-0.006852,0.121640,-0.019753,0.172910,0.147434,-0.973640,-18.147879,19.322232,174.560837
51559,NaN,-3.389687,-2.760674,8.664948,0.180329,-0.090863,-0.109500,0.009906,0.001739,0.107322,-0.019295,0.172974,0.147248,-0.973666,-18.117225,19.338872,174.617372
51560,NaN,-3.345923,-2.772321,8.577401,0.166494,-0.046332,-0.199005,0.006069,0.007069,0.097268,-0.018885,0.173063,0.147085,-0.973683,-18.090499,19.357536,174.667291
51561,NaN,-3.340262,-2.817889,8.598054,0.150382,-0.003306,-0.168946,0.011923,0.019323,0.095125,-0.018501,0.173203,0.146898,-0.973694,-18.062077,19.381532,174.713502
51562,NaN,-3.315359,-2.843174,8.598710,0.122092,0.028422,-0.169175,0.020121,0.028819,0.104586,-0.018083,0.173402,0.146658,-0.973702,-18.027204,19.413310,174.763590
51563,NaN,-3.335560,-2.830011,8.650641,0.118682,0.006428,-0.119680,0.037427,0.031367,0.107674,-0.017669,0.173607,0.146335,-0.973722,-17.982447,19.446038,174.814839
51564,NaN,-3.361789,-2.759541,8.751141,0.105352,-0.082031,-0.041233,0.061741,0.020475,0.123871,-0.017187,0.173777,0.145876,-0.973769,-17.919421,19.476607,174.877711
51565,NaN,-3.412223,-2.714409,8.769353,0.143952,-0.122911,-0.021008,0.076791,-0.000000,0.143026,-0.016613,0.173851,0.145334,-0.973847,-17.843256,19.498345,174.955354
51566,NaN,-3.427297,-2.673559,8.787492,0.150757,-0.154667,-0.011278,0.090244,-0.018631,0.154440,-0.015978,0.173850,0.144712,-0.973950,-17.755473,19.512789,175.043289
51567,NaN,-3.405106,-2.635087,8.839802,0.112840,-0.189563,0.017463,0.092560,-0.041615,0.159527,-0.015307,0.173732,0.144082,-0.974076,-17.664451,19.514471,175.138264
51568,NaN,-3.421254,-2.535092,8.941219,0.096592,-0.299935,0.085685,0.083608,-0.048624,0.164755,-0.014595,0.173592,0.143486,-0.974199,-17.576577,19.514080,175.237751
51569,NaN,-3.385975,-2.526195,8.977890,0.052334,-0.302285,0.104715,0.069712,-0.036417,0.158338,-0.013913,0.173500,0.142967,-0.974302,-17.499188,19.518128,175.331090
51570,NaN,-3.334913,-2.603317,8.950331,0.011395,-0.205449,0.085039,0.044940,-0.012009,0.148988,-0.013270,0.173530,0.142570,-0.974364,-17.438694,19.534795,175.414770
51571,NaN,-3.359785,-2.615018,8.970892,0.024081,-0.193350,0.115324,0.015799,0.024149,0.136946,-0.012689,0.173721,0.142328,-0.974373,-17.399974,19.568101,175.484705
51572,NaN,-3.320428,-2.724973,8.907682,-0.000704,-0.062475,0.076378,-0.013026,0.056547,0.121830,-0.012177,0.174070,0.142232,-0.974331,-17.382017,19.617491,175.540227
51573,NaN,-3.383778,-2.814806,8.880357,0.056325,0.029074,0.098407,-0.029028,0.087354,0.113013,-0.011718,0.174555,0.142225,-0.974251,-17.377381,19.681216,175.584846
51574,NaN,-3.425327,-2.880929,8.900521,0.074652,0.085212,0.149192,-0.040288,0.103416,0.113100,-0.011259,0.175126,0.142266,-0.974148,-17.379497,19.754726,175.626833
51575,NaN,-3.531592,-2.910426,8.919589,0.153518,0.101158,0.210684,-0.044543,0.117065,0.118462,-0.010781,0.175760,0.142328,-0.974030,-17.384388,19.835632,175.669252
51576,NaN,-3.594807,-2.977300,8.887543,0.207550,0.170827,0.222406,-0.032082,0.114441,0.125918,-0.010274,0.176394,0.142318,-0.973922,-17.379847,19.917374,175.716719
51577,NaN,-3.708499,-2.951610,8.920027,0.289840,0.132269,0.283368,-0.014395,0.104622,0.136039,-0.009728,0.176979,0.142218,-0.973837,-17.363069,19.994475,175.771687
51578,NaN,-3.817894,-2.902867,8.916766,0.382299,0.083876,0.304548,0.002925,0.087079,0.137341,-0.009177,0.177486,0.142029,-0.973777,-17.334365,20.063204,175.830868
51579,NaN,-3.838312,-2.865166,8.964119,0.376005,0.039983,0.343801,0.019270,0.058647,0.133348,-0.008642,0.177842,0.141770,-0.973755,-17.295807,20.114648,175.892744
51580,NaN,-3.916922,-2.770617,8.941522,0.453439,-0.041819,0.324475,0.035113,0.031751,0.119704,-0.008166,0.178067,0.141441,-0.973766,-17.248614,20.150077,175.951805
51581,NaN,-3.894462,-2.717623,8.954089,0.425837,-0.086580,0.313476,0.037208,0.010395,0.089668,-0.007825,0.178156,0.141136,-0.973797,-17.205439,20.167612,175.997051
51582,NaN,-3.767419,-2.686715,8.965076,0.303171,-0.103994,0.271049,0.033426,-0.017656,0.057883,-0.007613,0.178097,0.140873,-0.973847,-17.168509,20.165503,176.029044
51583,NaN,-3.824238,-2.621509,8.963913,0.361213,-0.165430,0.271508,0.012128,-0.033563,0.028656,-0.007516,0.177931,0.140745,-0.973897,-17.149230,20.148610,176.046646
51584,NaN,-3.877315,-2.556195,8.997282,0.405801,-0.238785,0.301516,-0.004755,-0.050942,0.000138,-0.007528,0.177670,0.140720,-0.973948,-17.143713,20.118543,176.050951
51585,NaN,-3.770528,-2.578845,8.996456,0.311561,-0.210869,0.270070,-0.025003,-0.060808,-0.025673,-0.007643,0.177334,0.140823,-0.973993,-17.154928,20.077552,176.041772
51586,NaN,-3.641655,-2.584634,8.975511,0.205009,-0.194244,0.208391,-0.035862,-0.064438,-0.037807,-0.007803,0.176982,0.140984,-0.974033,-17.173961,20.033726,176.026409
51587,NaN,-3.564605,-2.583260,8.937927,0.152705,-0.185352,0.147659,-0.056781,-0.046339,-0.051076,-0.008024,0.176700,0.141263,-0.974042,-17.209316,19.996347,175.999862
51588,NaN,-3.444249,-2.697984,8.837186,0.075156,-0.046271,0.047842,-0.061233,-0.014548,-0.052013,-0.008265,0.176583,0.141557,-0.974018,-17.248733,19.977416,175.967285
51589,NaN,-3.393099,-2.716683,8.816925,0.034976,-0.025947,0.017356,-0.055784,0.019944,-0.052770,-0.008542,0.176622,0.141830,-0.973969,-17.287914,19.975981,175.927815
51590,NaN,-3.373767,-2.703878,8.794585,0.023276,-0.036578,-0.012886,-0.048320,0.045852,-0.042672,-0.008793,0.176805,0.142051,-0.973902,-17.321807,19.991641,175.889751
51591,NaN,-3.375381,-2.785248,8.780489,0.023527,0.040562,-0.002204,-0.033738,0.058867,-0.040349,-0.009056,0.177042,0.142204,-0.973834,-17.348321,20.013572,175.850435
51592,NaN,-3.318217,-2.749810,8.789514,-0.035966,0.005079,-0.023599,-0.015339,0.052103,-0.033703,-0.009296,0.177260,0.142257,-0.973784,-17.361958,20.034148,175.816430
51593,NaN,-3.377410,-2.766314,8.774186,0.021649,0.020059,-0.012439,0.002604,0.032901,-0.022701,-0.009488,0.177381,0.142218,-0.973766,-17.362542,20.044879,175.792091
51594,NaN,-3.395065,-2.760847,8.791461,0.031268,0.010303,0.007569,0.023431,0.009309,-0.005529,-0.009595,0.177408,0.142059,-0.973783,-17.345695,20.046859,175.782265
51595,NaN,-3.369355,-2.715097,8.770455,0.016811,-0.022422,-0.032892,0.039117,-0.011525,0.011722,-0.009619,0.177336,0.141814,-0.973832,-17.315722,20.039179,175.786046
51596,NaN,-3.320185,-2.645766,8.764963,-0.023236,-0.078437,-0.074023,0.053900,-0.022556,0.019640,-0.009608,0.177225,0.141485,-0.973900,-17.274419,20.028019,175.796653
51597,NaN,-3.259338,-2.603733,8.744431,-0.069334,-0.102042,-0.124934,0.064092,-0.022451,0.030652,-0.009555,0.177111,0.141103,-0.973977,-17.225691,20.017571,175.813422
51598,NaN,-3.286250,-2.563822,8.779651,-0.053506,-0.144311,-0.095116,0.058567,-0.011461,0.031052,-0.009500,0.177062,0.140741,-0.974038,-17.180124,20.014388,175.828656
51599,NaN,-3.373308,-2.559997,8.837445,0.009232,-0.162412,-0.014384,0.060109,-0.008148,0.030216,-0.009456,0.177018,0.140377,-0.974099,-17.134655,20.011672,175.842579
51600,NaN,-3.431365,-2.492520,8.836540,0.066934,-0.223830,-0.013872,0.055244,-0.009166,0.027219,-0.009418,0.176977,0.140034,-0.974156,-17.091881,20.009067,175.855166
51601,NaN,-3.428242,-2.481362,8.906851,0.041057,-0.247058,0.045268,0.047101,-0.007912,0.020405,-0.009410,0.176928,0.139743,-0.974207,-17.055839,20.004810,175.863323
51602,NaN,-3.431427,-2.497790,8.944751,0.031195,-0.236228,0.085062,0.040316,-0.004410,0.013932,-0.009427,0.176901,0.139484,-0.974249,-17.024531,20.002566,175.867319
51603,NaN,-3.439228,-2.523729,8.879293,0.061249,-0.189683,0.036151,0.034253,-0.001806,0.011321,-0.009457,0.176876,0.139263,-0.974285,-16.998037,20.000124,175.869085
51604,NaN,-3.441363,-2.538486,8.951065,0.038161,-0.190781,0.105508,0.030678,0.003857,0.005926,-0.009510,0.176885,0.139057,-0.974312,-16.974327,20.001068,175.866945
51605,NaN,-3.431960,-2.567441,8.901934,0.045804,-0.145645,0.066139,0.026971,0.004032,0.004451,-0.009570,0.176884,0.138877,-0.974337,-16.953732,20.000675,175.863664
51606,NaN,-3.392349,-2.624268,8.888450,0.011396,-0.081193,0.056083,0.029169,0.010880,0.004728,-0.009633,0.176926,0.138680,-0.974357,-16.931532,20.005269,175.859583
51607,NaN,-3.419224,-2.664140,8.911024,0.027175,-0.047092,0.096506,0.029881,0.009990,0.008587,-0.009680,0.176957,0.138482,-0.974379,-16.908806,20.008835,175.857657
51608,NaN,-3.341364,-2.703371,8.894548,-0.041803,0.004547,0.065782,0.036143,0.008844,0.014656,-0.009699,0.176995,0.138242,-0.974406,-16.880500,20.013964,175.859733
51609,NaN,-3.347189,-2.723056,8.897712,-0.038181,0.027216,0.075982,0.043401,0.003020,0.021524,-0.009690,0.177000,0.137967,-0.974445,-16.847020,20.015860,175.866593
51610,NaN,-3.364149,-2.712800,8.916635,-0.028559,0.017497,0.095997,0.053220,-0.003371,0.037623,-0.009604,0.176994,0.137623,-0.974495,-16.803608,20.018083,175.884235
51611,NaN,-3.416546,-2.711788,9.007985,-0.010611,-0.003358,0.195822,0.067641,-0.010573,0.048609,-0.009475,0.176951,0.137207,-0.974563,-16.750007,20.016992,175.909304
51612,NaN,-3.544282,-2.645472,9.080194,0.086771,-0.084992,0.286601,0.078136,-0.017827,0.068559,-0.009251,0.176894,0.136716,-0.974644,-16.685270,20.016339,175.947548
51613,NaN,-3.600500,-2.649959,9.069694,0.144430,-0.070121,0.297675,0.093003,-0.027343,0.079935,-0.008980,0.176789,0.136149,-0.974745,-16.609874,20.011130,175.993845
51614,NaN,-3.531998,-2.558655,9.010902,0.105270,-0.125622,0.196868,0.090944,-0.032697,0.083106,-0.008686,0.176669,0.135583,-0.974849,-16.534006,20.004605,176.043173
51615,NaN,-3.532743,-2.551390,8.979806,0.119120,-0.113042,0.167283,0.080880,-0.027348,0.068164,-0.008462,0.176556,0.135085,-0.974940,-16.467925,19.997368,176.082571
51616,NaN,-3.476903,-2.531486,8.961681,0.075734,-0.114501,0.126636,0.058700,-0.027557,0.045445,-0.008326,0.176437,0.134709,-0.975015,-16.418371,19.987463,176.108970
51617,NaN,-3.559049,-2.506792,8.983140,0.148730,-0.142714,0.167551,0.034701,-0.027279,0.026635,-0.008264,0.176298,0.134473,-0.975073,-16.387072,19.973481,176.124050
51618,NaN,-3.687257,-2.546037,9.046701,0.248959,-0.125922,0.279048,0.009913,-0.036443,0.006038,-0.008271,0.176112,0.134370,-0.975121,-16.372823,19.952306,176.128916
51619,NaN,-3.656527,-2.579691,9.015424,0.234233,-0.082198,0.249183,-0.001808,-0.039898,-0.004094,-0.008318,0.175892,0.134339,-0.975164,-16.367845,19.926416,176.128181
51620,NaN,-3.595031,-2.642498,9.019717,0.177504,-0.019043,0.248648,-0.015435,-0.038425,-0.013086,-0.008395,0.175685,0.134376,-0.975196,-16.371810,19.901089,176.122203
51621,NaN,-3.593234,-2.647283,8.986257,0.191364,-0.006488,0.219041,-0.010023,-0.029413,-0.011775,-0.008480,0.175511,0.134392,-0.975224,-16.373678,19.879723,176.115179
51622,NaN,-3.524695,-2.666128,8.950651,0.141820,0.024583,0.168552,-0.012698,-0.019187,-0.017251,-0.008592,0.175395,0.134419,-0.975241,-16.378026,19.864316,176.103464
51623,NaN,-3.502157,-2.728521,8.886190,0.143391,0.102164,0.119246,-0.004301,-0.009472,-0.018332,-0.008727,0.175314,0.134412,-0.975255,-16.379076,19.852851,176.089186
51624,NaN,-3.430268,-2.722643,8.847769,0.090814,0.111250,0.058580,0.004586,-0.002093,-0.019008,-0.008875,0.175279,0.134355,-0.975268,-16.374879,19.846568,176.073505
51625,NaN,-3.473240,-2.762801,8.853921,0.129130,0.146696,0.089342,0.017931,-0.000598,-0.016237,-0.009024,0.175242,0.134238,-0.975289,-16.363289,19.840322,176.058927
51626,NaN,-3.482236,-2.728678,8.904315,0.122460,0.103127,0.128784,0.037576,-0.005069,-0.009285,-0.009152,0.175197,0.134012,-0.975327,-16.338111,19.833983,176.049428
51627,NaN,-3.508463,-2.705066,9.044179,0.101756,0.047192,0.257629,0.051306,-0.016207,-0.004051,-0.009261,0.175091,0.133722,-0.975385,-16.304075,19.821127,176.044641
51628,NaN,-3.469178,-2.686161,9.008914,0.080763,0.047081,0.207414,0.066504,-0.033926,0.007027,-0.009315,0.174915,0.133342,-0.975468,-16.257437,19.801555,176.049591
51629,NaN,-3.412975,-2.685053,9.062212,0.014150,0.043828,0.236167,0.077597,-0.039251,0.009535,-0.009365,0.174704,0.132912,-0.975564,-16.204323,19.778205,176.056648
51630,NaN,-3.378317,-2.611027,9.040832,-0.003789,-0.010783,0.185662,0.086946,-0.053745,0.012201,-0.009399,0.174434,0.132430,-0.975678,-16.143844,19.748541,176.067937
51631,NaN,-3.350951,-2.581063,9.059074,-0.028645,-0.033380,0.185095,0.080089,-0.059720,0.017066,-0.009401,0.174128,0.131982,-0.975793,-16.086673,19.715109,176.082804
51632,NaN,-3.316761,-2.511155,9.003363,-0.033380,-0.076160,0.104995,0.066712,-0.061637,0.009675,-0.009424,0.173818,0.131601,-0.975899,-16.037873,19.680668,176.093876
51633,NaN,-3.263555,-2.521384,8.953774,-0.060316,-0.043879,0.044932,0.049554,-0.054147,-0.000065,-0.009487,0.173529,0.131317,-0.975988,-16.001921,19.647573,176.097723
51634,NaN,-3.272135,-2.492065,8.937133,-0.040571,-0.063751,0.025193,0.034435,-0.040437,-0.003755,-0.009561,0.173316,0.131103,-0.976054,-15.975472,19.622661,176.097336
51635,NaN,-3.293651,-2.515059,8.890453,-0.001250,-0.027951,-0.003863,0.021339,-0.020936,-0.006030,-0.009651,0.173186,0.130961,-0.976096,-15.958737,19.606917,176.092104
51636,NaN,-3.296881,-2.537336,8.894088,0.002233,-0.005150,0.006288,0.017335,-0.012561,-0.007211,-0.009745,0.173107,0.130832,-0.976126,-15.944330,19.596807,176.085019
51637,NaN,-3.269109,-2.570070,8.862011,-0.012438,0.038582,-0.023615,0.019957,0.001630,-0.002849,-0.009833,0.173090,0.130692,-0.976147,-15.929029,19.593998,176.077871
51638,NaN,-3.263006,-2.620533,8.850181,-0.015035,0.093898,-0.023354,0.031934,0.001329,0.004191,-0.009894,0.173086,0.130482,-0.976175,-15.904807,19.593327,176.075127
51639,NaN,-3.290824,-2.662648,8.839729,0.014167,0.139851,-0.012673,0.042566,-0.000788,0.015540,-0.009909,0.173068,0.130216,-0.976214,-15.872810,19.592076,176.079137
51640,NaN,-3.310314,-2.672315,8.895842,0.013631,0.140320,0.047108,0.065133,-0.004065,0.024668,-0.009895,0.173048,0.129827,-0.976269,-15.825272,19.591630,176.089259
51641,NaN,-3.341149,-2.730542,8.923742,0.032716,0.196465,0.097541,0.086609,-0.012517,0.039691,-0.009824,0.172986,0.129326,-0.976347,-15.762651,19.587672,176.109341
51642,NaN,-3.409915,-2.722588,9.000323,0.072964,0.177169,0.187767,0.113569,-0.021185,0.056884,-0.009683,0.172902,0.128673,-0.976450,-15.680125,19.582756,176.141130
51643,NaN,-3.525125,-2.771619,9.121480,0.141070,0.202698,0.348453,0.150081,-0.028582,0.070698,-0.009505,0.172778,0.127836,-0.976583,-15.574178,19.574665,176.181989
51644,NaN,-3.561123,-2.766593,9.165344,0.162973,0.204454,0.398618,0.183813,-0.040001,0.088487,-0.009259,0.172619,0.126813,-0.976747,-15.444228,19.564097,176.235318
51645,NaN,-3.531254,-2.775873,9.174059,0.135140,0.236408,0.398305,0.213908,-0.040935,0.102680,-0.008972,0.172452,0.125637,-0.976932,-15.294796,19.553864,176.296874
51646,NaN,-3.417629,-2.710228,9.101455,0.057957,0.222582,0.277360,0.221683,-0.042867,0.100098,-0.008700,0.172283,0.124420,-0.977119,-15.140794,19.543212,176.357390
51647,NaN,-3.209257,-2.602369,8.931396,-0.074266,0.195275,0.025900,0.209812,-0.028651,0.068402,-0.008584,0.172155,0.123293,-0.977286,-15.001130,19.534367,176.396816
51648,NaN,-3.078166,-2.544223,8.873242,-0.173896,0.180188,-0.085413,0.165985,-0.013449,0.021784,-0.008665,0.172083,0.122414,-0.977408,-14.896033,19.528146,176.406642
51649,NaN,-3.115107,-2.532266,8.809466,-0.115246,0.195156,-0.134280,0.119256,0.004894,-0.029810,-0.008972,0.172062,0.121812,-0.977485,-14.829311,19.523310,176.383093
51650,NaN,-3.316343,-2.493571,8.923342,0.038101,0.126988,0.027255,0.075703,0.006802,-0.067995,-0.009427,0.172038,0.121451,-0.977529,-14.794663,19.515103,176.336980
51651,NaN,-3.516096,-2.459324,9.036506,0.191639,0.058718,0.188786,0.045805,-0.011122,-0.095311,-0.009981,0.171902,0.121264,-0.977571,-14.782040,19.491843,176.277417
51652,NaN,-3.583265,-2.480870,9.148973,0.221778,0.049648,0.318776,0.021983,-0.039406,-0.105184,-0.010543,0.171633,0.121200,-0.977620,-14.783050,19.452631,176.216618
51653,NaN,-3.481035,-2.451516,9.159701,0.130557,0.023677,0.287315,0.012037,-0.057236,-0.104888,-0.011087,0.171267,0.121189,-0.977680,-14.789184,19.402427,176.158606
51654,NaN,-3.345741,-2.432916,9.135560,0.020776,0.018846,0.215808,0.020589,-0.069389,-0.092133,-0.011566,0.170859,0.121123,-0.977754,-14.786810,19.348524,176.110155
51655,NaN,-3.221920,-2.464492,9.083474,-0.069310,0.069686,0.134891,0.025861,-0.069642,-0.079553,-0.011990,0.170447,0.121023,-0.977833,-14.779354,19.295154,176.068973
51656,NaN,-3.192876,-2.430383,8.993845,-0.057895,0.060483,0.035331,0.031429,-0.048904,-0.066690,-0.012367,0.170153,0.120880,-0.977897,-14.766813,19.256317,176.032295
51657,NaN,-3.137065,-2.426121,8.905716,-0.074735,0.082475,-0.064527,0.041722,-0.028492,-0.064785,-0.012757,0.169950,0.120688,-0.977951,-14.749457,19.227919,175.993413
51658,NaN,-3.007122,-2.402677,8.880461,-0.184534,0.077669,-0.136007,0.057775,-0.006296,-0.052668,-0.013113,0.169872,0.120402,-0.977995,-14.721265,19.214740,175.958365
51659,NaN,-2.997471,-2.431565,8.833047,-0.176738,0.122620,-0.175582,0.073790,0.020761,-0.038739,-0.013433,0.169923,0.120028,-0.978028,-14.682992,19.217461,175.927162
51660,NaN,-3.004477,-2.449284,8.837074,-0.173172,0.145397,-0.165480,0.081668,0.044453,-0.018303,-0.013672,0.170111,0.119592,-0.978045,-14.637060,19.237404,175.904467
51661,NaN,-3.093473,-2.436425,8.929231,-0.123548,0.115521,-0.055214,0.117730,0.056705,0.013123,-0.013797,0.170367,0.118957,-0.978077,-14.565401,19.267597,175.898222
51662,NaN,-3.358131,-2.326641,9.072128,0.073414,-0.027070,0.136567,0.154221,0.072504,0.056022,-0.013751,0.170731,0.118101,-0.978118,-14.464911,19.313797,175.914972
51663,NaN,-3.534453,-2.284176,9.184392,0.195366,-0.086095,0.287671,0.193256,0.067585,0.091615,-0.013563,0.171080,0.117028,-0.978188,-14.335208,19.361232,175.953357
51664,NaN,-3.507474,-2.253343,9.114375,0.187489,-0.074594,0.207841,0.224649,0.056113,0.114455,-0.013282,0.171394,0.115779,-0.978286,-14.182031,19.406517,176.007184
51665,NaN,-3.506937,-2.094383,9.012600,0.217925,-0.181315,0.078298,0.220990,0.052526,0.109934,-0.013020,0.171678,0.114556,-0.978383,-14.031956,19.447957,176.058871
51666,NaN,-3.386748,-2.052064,8.988277,0.108061,-0.186091,0.006875,0.199443,0.058760,0.076325,-0.012905,0.171984,0.113462,-0.978459,-13.900664,19.489201,176.090096
51667,NaN,-3.422062,-2.003115,8.987368,0.137017,-0.216745,0.007190,0.160565,0.059830,0.037634,-0.012948,0.172266,0.112595,-0.978509,-13.799673,19.524569,176.098271
51668,NaN,-3.616266,-1.981465,9.119322,0.271090,-0.264234,0.188427,0.125847,0.038395,-0.000456,-0.013134,0.172433,0.111929,-0.978553,-13.724609,19.543921,176.087276
51669,NaN,-3.739507,-1.978819,9.249882,0.342211,-0.293147,0.348853,0.082513,-0.000267,-0.041174,-0.013462,0.172382,0.111516,-0.978605,-13.680974,19.535119,176.057656
51670,NaN,-3.692110,-2.010943,9.237112,0.305010,-0.250536,0.328516,0.061597,-0.031178,-0.070447,-0.013896,0.172174,0.111228,-0.978668,-13.653151,19.506317,176.015355
51671,NaN,-3.613014,-2.076212,9.227649,0.239631,-0.176669,0.307856,0.050104,-0.050063,-0.090355,-0.014409,0.171854,0.111019,-0.978741,-13.635366,19.463171,175.963828
51672,NaN,-3.542766,-2.112897,9.232768,0.180046,-0.135208,0.297150,0.049970,-0.071064,-0.100889,-0.014960,0.171435,0.110817,-0.978829,-13.618204,19.408110,175.909269
51673,NaN,-3.416696,-2.210218,9.069811,0.126866,0.005249,0.127343,0.066355,-0.091497,-0.106175,-0.015541,0.170901,0.110545,-0.978944,-13.592147,19.339791,175.854326
51674,NaN,-2.993542,-2.176520,9.169672,-0.294893,-0.015361,0.071351,0.082459,-0.052941,-0.096032,-0.016106,0.170571,0.110179,-0.979034,-13.556173,19.295537,175.800035
51675,NaN,-3.384696,-2.222226,9.132546,0.095402,0.015881,0.176732,0.088497,-0.087891,-0.081545,-0.016588,0.170067,0.109777,-0.979158,-13.512722,19.232594,175.759063
51676,NaN,-3.371210,-2.202225,9.066728,0.119044,0.017988,0.107287,0.098324,-0.147265,-0.074477,-0.017009,0.169286,0.109322,-0.979337,-13.458991,19.138723,175.730799
51677,NaN,-2.889103,-2.306706,8.958440,-0.282644,0.184643,-0.127263,0.113995,-0.140418,-0.066794,-0.017411,0.168530,0.108787,-0.979520,-13.395577,19.048542,175.705838
51678,NaN,-2.670403,-2.233937,8.995529,-0.488544,0.131406,-0.180184,0.121951,-0.071125,-0.048249,-0.017765,0.168133,0.108187,-0.979649,-13.326749,19.000626,175.682177
51679,NaN,-2.939149,-2.200679,9.117163,-0.268690,0.066297,0.012161,0.136471,-0.026090,-0.033749,-0.018086,0.167953,0.107505,-0.979749,-13.249324,18.978605,175.660565
51680,NaN,-3.147247,-2.202785,9.240430,-0.108931,0.041988,0.193777,0.155081,-0.027723,-0.016980,-0.018339,0.167782,0.106712,-0.979860,-13.157508,18.958991,175.649200
51681,NaN,-3.206561,-2.150458,9.243361,-0.048430,0.001963,0.204491,0.169202,-0.047862,0.008357,-0.018470,0.167515,0.105836,-0.979998,-13.052301,18.930356,175.655352
51682,NaN,-3.122092,-2.095692,9.273523,-0.130831,-0.034156,0.193276,0.173246,-0.073957,0.016488,-0.018548,0.167132,0.104931,-0.980159,-12.941654,18.889262,175.669958
51683,NaN,-3.041367,-1.973996,9.241965,-0.187110,-0.123596,0.112541,0.167308,-0.094675,0.024799,-0.018573,0.166644,0.104054,-0.980335,-12.832397,18.836561,175.692018
51684,NaN,-3.131631,-1.919415,9.213113,-0.082034,-0.161290,0.103963,0.151111,-0.098128,0.015437,-0.018625,0.166145,0.103260,-0.980503,-12.733659,18.781748,175.709067
51685,NaN,-3.149264,-1.939617,9.138260,-0.029402,-0.114180,0.044993,0.123553,-0.108734,0.008369,-0.018686,0.165583,0.102612,-0.980665,-12.652095,18.719049,175.723094
51686,NaN,-3.152904,-1.904507,9.123375,-0.009859,-0.134276,0.025289,0.108394,-0.102313,-0.005257,-0.018803,0.165056,0.102045,-0.980811,-12.581644,18.659245,175.728303
51687,NaN,-3.186898,-1.922509,9.065367,0.051943,-0.097704,-0.013658,0.100730,-0.089619,-0.010909,-0.018950,0.164580,0.101523,-0.980942,-12.517677,18.604804,175.728265
51688,NaN,-3.170441,-1.961986,9.094422,0.036408,-0.054017,0.016115,0.097369,-0.078308,-0.015903,-0.019122,0.164166,0.101017,-0.981060,-12.456589,18.557095,175.723908
51689,NaN,-3.170152,-1.982204,9.068835,0.053432,-0.019694,-0.003533,0.106267,-0.074125,-0.015307,-0.019302,0.163763,0.100470,-0.981180,-12.390955,18.510781,175.719135
51690,NaN,-3.174466,-2.037574,9.119880,0.050331,0.035511,0.056322,0.124938,-0.085464,-0.012554,-0.019477,0.163312,0.099826,-0.981318,-12.313180,18.459487,175.717560
51691,NaN,-3.150314,-2.031815,9.107867,0.041730,0.046713,0.036274,0.141900,-0.095625,-0.001274,-0.019606,0.162807,0.099094,-0.981473,-12.223671,18.402856,175.723697
51692,NaN,-3.189282,-2.081704,9.127682,0.083442,0.104137,0.076790,0.162367,-0.101508,0.008494,-0.019700,0.162285,0.098251,-0.981643,-12.119954,18.345122,175.736410
51693,NaN,-3.144312,-2.092245,9.311420,-0.007169,0.100259,0.235028,0.176511,-0.093055,0.008222,-0.019813,0.161793,0.097341,-0.981812,-12.009034,18.291048,175.747612
51694,NaN,-3.177790,-1.961935,9.477719,-0.019559,-0.041768,0.374193,0.188056,-0.087846,0.027160,-0.019843,0.161344,0.096355,-0.981983,-11.887798,18.243136,175.769381
51695,NaN,-3.148433,-1.855798,9.573220,-0.068457,-0.141853,0.433205,0.181812,-0.091255,0.024047,-0.019883,0.160868,0.095407,-0.982153,-11.771084,18.191887,175.789463
51696,NaN,-3.101926,-1.821716,9.573623,-0.102894,-0.153618,0.412802,0.165215,-0.086895,0.031140,-0.019875,0.160427,0.094529,-0.982310,-11.662332,18.144876,175.813247
51697,NaN,-3.058132,-1.795528,9.539461,-0.123939,-0.153881,0.362692,0.136909,-0.087554,0.029741,-0.019853,0.159977,0.093796,-0.982454,-11.570538,18.096290,175.836030
51698,NaN,-3.070594,-1.705670,9.532168,-0.101816,-0.228500,0.342976,0.099304,-0.075467,0.032481,-0.019791,0.159598,0.093240,-0.982570,-11.499801,18.055754,175.859061
51699,NaN,-2.984458,-1.711293,9.409153,-0.137146,-0.185692,0.203019,0.065089,-0.060154,0.034935,-0.019699,0.159292,0.092853,-0.982658,-11.449297,18.023093,175.881490
51700,NaN,-2.927545,-1.683486,9.315562,-0.157591,-0.185814,0.093118,0.035928,-0.023106,0.045814,-0.019545,0.159183,0.092592,-0.982703,-11.414391,18.013414,175.906063
51701,NaN,-2.735721,-1.609324,9.359234,-0.354408,-0.249142,0.060594,0.006032,0.028697,0.053320,-0.019357,0.159327,0.092471,-0.982695,-11.397660,18.032713,175.928720
51702,NaN,-2.993868,-1.611973,9.202245,-0.063755,-0.234451,-0.005344,-0.023772,0.039168,0.074393,-0.019044,0.159543,0.092475,-0.982666,-11.393985,18.061191,175.962766
51703,NaN,-2.864130,-1.682308,8.973921,-0.119253,-0.116128,-0.245193,-0.035235,0.055484,0.086546,-0.018672,0.159838,0.092528,-0.982620,-11.395771,18.099292,176.001876
51704,NaN,-2.674752,-1.801939,8.818803,-0.257867,0.042059,-0.426299,-0.024412,0.112753,0.101865,-0.018258,0.160428,0.092505,-0.982534,-11.390058,18.172189,176.043420
51705,NaN,-2.735815,-1.834418,8.718356,-0.182822,0.090010,-0.495073,-0.011355,0.182390,0.123432,-0.017782,0.161361,0.092400,-0.982399,-11.375954,18.285735,176.089276
51706,NaN,-2.841617,-1.816204,8.698594,-0.096943,0.072968,-0.484014,0.004500,0.228716,0.128141,-0.017316,0.162530,0.092204,-0.982234,-11.352953,18.426680,176.132666
51707,NaN,-2.824547,-1.788650,8.720355,-0.144498,0.049531,-0.474672,0.032850,0.265718,0.138887,-0.016839,0.163875,0.091861,-0.982050,-11.313488,18.588741,176.177962
51708,NaN,-2.989129,-1.769110,8.755498,-0.027840,0.022993,-0.393452,0.056445,0.292971,0.152617,-0.016324,0.165365,0.091384,-0.981854,-11.258198,18.768452,176.228547
51709,NaN,-3.358083,-1.713755,8.867534,0.255092,-0.061425,-0.180558,0.089660,0.286346,0.171065,-0.015745,0.166820,0.090733,-0.981677,-11.180390,18.945608,176.290957
51710,NaN,-3.712719,-1.588681,8.931729,0.541187,-0.200307,-0.027450,0.128475,0.247533,0.187837,-0.015097,0.168097,0.089876,-0.981549,-11.074778,19.103544,176.368431
51711,NaN,-3.896056,-1.502290,8.959068,0.682890,-0.280518,0.044083,0.151491,0.176844,0.194597,-0.014404,0.169020,0.088911,-0.981489,-10.952206,19.221477,176.458329
51712,NaN,-3.908078,-1.463094,8.917676,0.693147,-0.290296,0.004333,0.168046,0.098750,0.187046,-0.013727,0.169563,0.087871,-0.981498,-10.817858,19.295382,176.553210
51713,NaN,-3.859738,-1.426126,8.929136,0.636388,-0.303277,-0.006369,0.170094,0.032086,0.161810,-0.013147,0.169759,0.086851,-0.981563,-10.685236,19.327937,176.640599
51714,NaN,-3.909913,-1.308232,8.986685,0.663381,-0.410590,0.043819,0.155014,-0.021534,0.129308,-0.012689,0.169687,0.085932,-0.981662,-10.565029,19.327684,176.714895
51715,NaN,-3.870093,-1.208913,9.060967,0.605041,-0.500095,0.082969,0.140621,-0.058775,0.089007,-0.012402,0.169408,0.085124,-0.981785,-10.460288,19.301098,176.769034
51716,NaN,-3.731285,-1.159180,9.138612,0.455196,-0.539022,0.101073,0.126021,-0.076307,0.030695,-0.012380,0.169027,0.084434,-0.981910,-10.374156,19.259591,176.790462
51717,NaN,-3.626381,-1.116263,9.288849,0.313941,-0.588499,0.199031,0.101917,-0.062285,-0.015819,-0.012573,0.168688,0.083905,-0.982011,-10.312188,19.220093,176.782295
51718,NaN,-3.851813,-1.120382,9.360894,0.509384,-0.600500,0.341030,0.063625,-0.058947,-0.045307,-0.012878,0.168365,0.083583,-0.982090,-10.277336,19.180594,176.756389
51719,NaN,-3.831566,-1.208022,9.309483,0.514763,-0.501297,0.301185,0.040890,-0.067052,-0.064757,-0.013259,0.167986,0.083396,-0.982166,-10.259755,19.133420,176.719479
51720,NaN,-3.606244,-1.327011,9.215196,0.340604,-0.355574,0.159441,0.023956,-0.053628,-0.077934,-0.013693,0.167678,0.083295,-0.982221,-10.254095,19.093674,176.673537
51721,NaN,-3.390288,-1.399891,9.093783,0.182367,-0.253017,-0.012006,0.009969,-0.022921,-0.074828,-0.014115,0.167514,0.083265,-0.982246,-10.257704,19.070362,176.625862
51722,NaN,-3.266215,-1.485111,9.066973,0.076410,-0.158702,-0.063191,0.002687,0.002073,-0.058937,-0.014462,0.167489,0.083249,-0.982246,-10.262421,19.063985,176.585263
51723,NaN,-3.195772,-1.562193,9.023436,0.024594,-0.073014,-0.113725,-0.005932,0.019869,-0.044898,-0.014741,0.167549,0.083269,-0.982230,-10.270803,19.067845,176.550827
51724,NaN,-3.122607,-1.626092,9.047210,-0.053861,-0.010135,-0.104760,0.001018,0.030540,-0.023783,-0.014926,0.167679,0.083229,-0.982209,-10.270625,19.081101,176.528124
51725,NaN,-3.213522,-1.627184,9.069635,0.022232,-0.016907,-0.054002,0.009117,0.029692,0.007593,-0.014964,0.167807,0.083130,-0.982195,-10.260506,19.095859,176.523937
51726,NaN,-3.283530,-1.609595,9.070437,0.085617,-0.035079,-0.033289,0.027210,0.020179,0.040578,-0.014850,0.167910,0.082909,-0.982197,-10.232403,19.109829,176.540754
51727,NaN,-3.321319,-1.603745,9.037283,0.130890,-0.032436,-0.052695,0.038793,0.007526,0.056248,-0.014665,0.167948,0.082625,-0.982218,-10.194989,19.117035,176.568001
51728,NaN,-3.270718,-1.528884,9.057182,0.076342,-0.099649,-0.063233,0.049229,-0.011975,0.064243,-0.014440,0.167902,0.082278,-0.982258,-10.148509,19.115250,176.602405
51729,NaN,-3.294039,-1.478903,9.122243,0.078549,-0.153430,-0.003332,0.042096,-0.030221,0.064033,-0.014204,0.167756,0.081974,-0.982312,-10.106363,19.101911,176.638334
51730,NaN,-3.333774,-1.428651,9.171094,0.102929,-0.206082,0.046876,0.040940,-0.041333,0.059302,-0.013984,0.167565,0.081674,-0.982373,-10.064581,19.083022,176.672900
51731,NaN,-3.375348,-1.396103,9.258845,0.117644,-0.248308,0.136825,0.029783,-0.053603,0.049666,-0.013799,0.167300,0.081444,-0.982439,-10.031516,19.055008,176.702698
51732,NaN,-3.356017,-1.409890,9.316264,0.085693,-0.237849,0.186288,0.020191,-0.057702,0.040656,-0.013647,0.167021,0.081262,-0.982504,-10.004706,19.024992,176.727832
51733,NaN,-3.283938,-1.422362,9.317022,0.023120,-0.218104,0.165597,0.013961,-0.057269,0.040510,-0.013492,0.166736,0.081118,-0.982567,-9.982403,18.993973,176.752512
51734,NaN,-3.212624,-1.435581,9.317339,-0.039655,-0.198186,0.144913,0.004232,-0.042035,0.043919,-0.013317,0.166537,0.081011,-0.982612,-9.964647,18.973101,176.777922
51735,NaN,-3.183477,-1.460948,9.216016,-0.031005,-0.153632,0.045268,-0.003014,-0.018321,0.050597,-0.013114,0.166447,0.080939,-0.982635,-9.951465,18.965046,176.804515
51736,NaN,-3.137371,-1.491444,9.236750,-0.081233,-0.122156,0.054609,-0.005818,0.004997,0.056716,-0.012886,0.166485,0.080867,-0.982638,-9.938576,18.971957,176.832632
51737,NaN,-3.126001,-1.503447,9.185116,-0.076658,-0.099533,0.004787,-0.004861,0.020719,0.068892,-0.012608,0.166595,0.080787,-0.982629,-9.924224,18.987731,176.866061
51738,NaN,-3.142250,-1.554304,9.159975,-0.056338,-0.043181,-0.005052,0.004923,0.030073,0.073705,-0.012316,0.166762,0.080646,-0.982616,-9.902704,19.010435,176.901715
51739,NaN,-3.193015,-1.529573,9.211153,-0.028393,-0.073923,0.055140,0.014869,0.022709,0.084483,-0.011978,0.166887,0.080456,-0.982615,-9.874053,19.028843,176.944267
51740,NaN,-3.211498,-1.517837,9.228234,-0.018940,-0.083538,0.075210,0.023437,0.008158,0.093417,-0.011596,0.166953,0.080209,-0.982628,-9.837311,19.041060,176.993997
51741,NaN,-3.146031,-1.461868,9.302698,-0.105616,-0.141106,0.114230,0.021976,-0.012446,0.095808,-0.011195,0.166909,0.079976,-0.982660,-9.801171,19.040678,177.046975
51742,NaN,-3.093610,-1.388279,9.322464,-0.160294,-0.208174,0.103816,0.021642,-0.026837,0.101264,-0.010758,0.166806,0.079734,-0.982702,-9.762736,19.033820,177.105015
51743,NaN,-3.071457,-1.300948,9.376975,-0.196507,-0.296353,0.133545,0.006478,-0.034062,0.108122,-0.010275,0.166662,0.079568,-0.982745,-9.732367,19.022364,177.167561
51744,NaN,-3.031988,-1.293012,9.444830,-0.254208,-0.308698,0.182798,-0.013924,-0.026420,0.117828,-0.009727,0.166569,0.079486,-0.982773,-9.711088,19.017253,177.235447
51745,NaN,-3.014003,-1.292341,9.461612,-0.276115,-0.308874,0.192553,-0.034264,-0.008922,0.130821,-0.009108,0.166559,0.079500,-0.982779,-9.700493,19.022145,177.308973
51746,NaN,-2.957141,-1.271669,9.505751,-0.346374,-0.332729,0.211804,-0.056742,0.021440,0.150494,-0.008384,0.166716,0.079599,-0.982751,-9.698919,19.047147,177.391502
51747,NaN,-2.957827,-1.327321,9.496075,-0.348207,-0.277429,0.211670,-0.079290,0.046258,0.163921,-0.007587,0.166992,0.079804,-0.982694,-9.709438,19.086397,177.479189
51748,NaN,-2.978215,-1.372689,9.396266,-0.304783,-0.220300,0.132282,-0.095445,0.072960,0.185420,-0.006679,0.167417,0.080061,-0.982607,-9.724770,19.143839,177.577365
51749,NaN,-3.017924,-1.422246,9.385132,-0.275075,-0.174583,0.142472,-0.111461,0.095102,0.199443,-0.005700,0.167948,0.080393,-0.982496,-9.748217,19.214160,177.681316
51750,NaN,-3.125280,-1.444724,9.302120,-0.159447,-0.147116,0.103812,-0.117693,0.104266,0.217980,-0.004626,0.168539,0.080731,-0.982372,-9.770675,19.292460,177.795793
51751,NaN,-3.199176,-1.545779,9.248491,-0.087243,-0.045085,0.094334,-0.119148,0.105122,0.230209,-0.003493,0.169132,0.081074,-0.982247,-9.792500,19.371510,177.917158
51752,NaN,-3.256194,-1.576242,9.180698,-0.025488,-0.008994,0.055028,-0.115923,0.105852,0.236081,-0.002332,0.169738,0.081388,-0.982120,-9.810072,19.452522,178.042364
51753,NaN,-3.297449,-1.612804,9.095668,0.027284,0.037368,-0.004358,-0.101561,0.101979,0.232897,-0.001200,0.170315,0.081642,-0.982001,-9.820833,19.530128,178.165733
51754,NaN,-3.379156,-1.603059,9.058020,0.103889,0.030428,-0.013479,-0.097397,0.096083,0.226023,-0.000101,0.170867,0.081873,-0.981887,-9.829127,19.604677,178.286012
51755,NaN,-3.430538,-1.618120,9.058499,0.139343,0.043556,0.006782,-0.080508,0.090095,0.218270,0.000947,0.171380,0.082036,-0.981783,-9.830026,19.674173,178.401941
51756,NaN,-3.338945,-1.572530,9.162695,0.007676,-0.015412,0.065373,-0.080994,0.083659,0.213167,0.001974,0.171866,0.082197,-0.981683,-9.830788,19.740465,178.515899
51757,NaN,-3.395838,-1.549858,9.210802,0.035584,-0.046132,0.125585,-0.062745,0.062452,0.206961,0.002962,0.172237,0.082283,-0.981608,-9.822557,19.793243,178.628012
51758,NaN,-3.478597,-1.565508,9.285812,0.079386,-0.043069,0.225718,-0.062838,0.043157,0.194467,0.003899,0.172517,0.082370,-0.981549,-9.815065,19.834811,178.735045
51759,NaN,-3.589497,-1.495259,9.366011,0.153623,-0.126367,0.326488,-0.064592,0.013735,0.192164,0.004836,0.172643,0.082476,-0.981513,-9.809019,19.858613,178.843405
51760,NaN,-3.666572,-1.440288,9.412621,0.209409,-0.188541,0.387127,-0.073255,-0.006238,0.185795,0.005760,0.172676,0.082621,-0.981491,-9.807413,19.871433,178.950405
51761,NaN,-3.546673,-1.452615,9.388627,0.102745,-0.170585,0.326131,-0.086196,-0.010918,0.184941,0.006690,0.172677,0.082839,-0.981466,-9.814291,19.880610,179.057008
51762,NaN,-3.458137,-1.446221,9.292544,0.050426,-0.161416,0.205947,-0.104643,-0.003867,0.180249,0.007613,0.172718,0.083142,-0.981427,-9.831821,19.894262,179.160451
51763,NaN,-3.394940,-1.469021,9.289564,-0.012126,-0.141481,0.185286,-0.123533,0.019335,0.181285,0.008545,0.172864,0.083547,-0.981359,-9.861853,19.920221,179.261721
51764,NaN,-3.415621,-1.527012,9.261168,0.008367,-0.085185,0.175311,-0.135777,0.047218,0.178392,0.009464,0.173153,0.084007,-0.981260,-9.899310,19.962614,179.358733
51765,NaN,-3.401497,-1.578250,9.192616,0.007280,-0.030181,0.115266,-0.153067,0.076332,0.172186,0.010353,0.173574,0.084567,-0.981129,-9.950035,20.019973,179.448566
51766,NaN,-3.484183,-1.650192,9.149888,0.085157,0.039361,0.115772,-0.151932,0.086919,0.172325,0.011239,0.174054,0.085113,-0.980987,-9.999260,20.084306,179.537738
51767,NaN,-3.494354,-1.717405,9.101561,0.096711,0.105914,0.085687,-0.148055,0.083248,0.165003,0.012086,0.174505,0.085655,-0.980849,-10.048680,20.144997,179.622484
51768,NaN,-3.434971,-1.791164,8.980260,0.068092,0.192468,-0.034617,-0.141701,0.069914,0.157668,0.012899,0.174896,0.086162,-0.980725,-10.094313,20.198410,179.704613
51769,NaN,-3.432681,-1.823096,8.996465,0.049709,0.214360,-0.014987,-0.127873,0.062121,0.153647,0.013681,0.175240,0.086613,-0.980613,-10.133612,20.246166,179.784755
51770,NaN,-3.480495,-1.842196,8.996829,0.085050,0.227626,0.005225,-0.113463,0.053611,0.153475,0.014456,0.175550,0.086985,-0.980514,-10.163245,20.290061,179.866083
51771,NaN,-3.534930,-1.823506,9.044774,0.112953,0.196913,0.065435,-0.093269,0.055639,0.157612,0.015230,0.175866,0.087263,-0.980421,-10.181530,20.334639,179.949304
51772,NaN,-3.595550,-1.766837,9.140584,0.133091,0.122573,0.165650,-0.074451,0.038956,0.161490,0.016016,0.176110,0.087435,-0.980349,-10.186501,20.371131,-179.962958
51773,NaN,-3.566319,-1.653777,9.258247,0.066627,-0.010046,0.245355,-0.067662,0.028800,0.160900,0.016795,0.176298,0.087582,-0.980289,-10.188304,20.400927,-179.874830
51774,NaN,-3.448470,-1.550030,9.320634,-0.062431,-0.123469,0.244629,-0.065831,0.000137,0.158610,0.017577,0.176351,0.087711,-0.980254,-10.187402,20.415245,-179.784601
51775,NaN,-3.353520,-1.527419,9.327387,-0.154354,-0.148344,0.213949,-0.086821,-0.001327,0.164693,0.018405,0.176391,0.087946,-0.980211,-10.198192,20.428444,-179.690914
51776,NaN,-3.330092,-1.564156,9.329278,-0.182037,-0.115747,0.213527,-0.110667,0.006959,0.162418,0.019241,0.176475,0.088292,-0.980148,-10.222375,20.447003,-179.599118
51777,NaN,-3.280733,-1.510888,9.314420,-0.223622,-0.171486,0.173553,-0.135549,0.032769,0.166692,0.020107,0.176677,0.088767,-0.980052,-10.261891,20.479706,-179.507923
51778,NaN,-3.233393,-1.572288,9.245205,-0.256321,-0.106684,0.103140,-0.156690,0.076510,0.175821,0.021019,0.177103,0.089334,-0.979904,-10.312152,20.538923,-179.415632
51779,NaN,-3.318814,-1.584344,9.244049,-0.189346,-0.103231,0.133698,-0.170894,0.128782,0.192393,0.021999,0.177783,0.089969,-0.979701,-10.370004,20.628535,-179.319499
51780,NaN,-3.402266,-1.632645,9.193337,-0.114879,-0.055856,0.124215,-0.185854,0.168674,0.203370,0.023031,0.178669,0.090663,-0.979453,-10.434446,20.742672,-179.220823
51781,NaN,-3.473191,-1.626826,9.027409,-0.011132,-0.041047,-0.004432,-0.194056,0.190106,0.213710,0.024108,0.179656,0.091399,-0.979178,-10.503107,20.869254,-179.118744
51782,NaN,-3.554975,-1.710449,8.926167,0.070992,0.050026,-0.053982,-0.198993,0.213048,0.220447,0.025215,0.180764,0.092147,-0.978876,-10.572809,21.010377,-179.014863
51783,NaN,-3.583491,-1.734648,8.812615,0.111174,0.084442,-0.143507,-0.193204,0.221910,0.211011,0.026263,0.181904,0.092885,-0.978567,-10.642452,21.154817,-178.918148
51784,NaN,-3.640824,-1.792069,8.757059,0.154185,0.141385,-0.163368,-0.188588,0.236157,0.196851,0.027234,0.183114,0.093606,-0.978246,-10.711888,21.306680,-178.831315
51785,NaN,-3.761517,-1.818530,8.769432,0.233854,0.156311,-0.102909,-0.173608,0.249750,0.178662,0.028093,0.184377,0.094281,-0.977920,-10.778187,21.463551,-178.757524
51786,NaN,-3.988883,-1.835021,8.784931,0.411409,0.164375,-0.001614,-0.152811,0.253970,0.166428,0.028874,0.185664,0.094857,-0.977598,-10.834289,21.622371,-178.691348
51787,NaN,-4.174897,-1.890518,8.786063,0.552048,0.214441,0.079123,-0.123525,0.247715,0.146040,0.029528,0.186908,0.095316,-0.977296,-10.878796,21.774711,-178.637247
51788,NaN,-4.239954,-1.911162,8.743248,0.600671,0.238795,0.069430,-0.093741,0.224130,0.129361,0.030087,0.188040,0.095634,-0.977031,-10.907875,21.912871,-178.590178
51789,NaN,-4.291183,-1.951308,8.756585,0.617402,0.273040,0.109201,-0.063877,0.192190,0.112652,0.030549,0.189005,0.095824,-0.976812,-10.923139,22.030402,-178.549901
51790,NaN,-4.364576,-1.901994,8.779154,0.663921,0.221135,0.149789,-0.027781,0.141214,0.092732,0.030906,0.189724,0.095841,-0.976660,-10.918992,22.118032,-178.515380
51791,NaN,-4.363537,-1.805535,8.918158,0.609908,0.100279,0.259646,-0.007458,0.073094,0.071086,0.031168,0.190096,0.095777,-0.976585,-10.906058,22.164050,-178.486348
51792,NaN,-4.303204,-1.770898,8.927245,0.549239,0.065893,0.239345,0.002988,0.004906,0.057265,0.031388,0.190138,0.095657,-0.976582,-10.886350,22.171211,-178.457366
51793,NaN,-4.224338,-1.753091,8.853416,0.506098,0.064241,0.139251,0.003632,-0.039025,0.038596,0.031535,0.189948,0.095552,-0.976624,-10.869548,22.150614,-178.434949
51794,NaN,-4.066046,-1.779148,8.835937,0.367755,0.092248,0.068007,0.006628,-0.058988,0.024763,0.031624,0.189664,0.095435,-0.976688,-10.852424,22.118358,-178.418227
51795,NaN,-3.876371,-1.767263,8.794867,0.213334,0.086496,-0.043032,0.007512,-0.046057,0.016301,0.031662,0.189430,0.095331,-0.976743,-10.838215,22.091388,-178.408554
51796,NaN,-3.732663,-1.777463,8.861805,0.057623,0.081703,-0.034460,0.008143,-0.010910,0.005935,0.031634,0.189372,0.095232,-0.976764,-10.826658,22.084178,-178.408943
51797,NaN,-3.749372,-1.768857,8.878619,0.067215,0.071913,-0.014380,0.009737,0.031053,0.003308,0.031569,0.189508,0.095141,-0.976749,-10.817515,22.099202,-178.416128
51798,NaN,-3.745903,-1.744750,8.873809,0.063913,0.050660,-0.024236,0.014053,0.060899,0.001046,0.031478,0.189800,0.095030,-0.976706,-10.806852,22.131878,-178.427769
51799,NaN,-3.758071,-1.761408,8.909198,0.054724,0.062191,0.015466,0.024028,0.069743,0.006258,0.031396,0.190129,0.094873,-0.976660,-10.790543,22.168997,-178.437642
51800,NaN,-3.788816,-1.778607,8.893213,0.080953,0.085765,0.015532,0.026921,0.064198,0.011723,0.031342,0.190443,0.094689,-0.976618,-10.770218,22.204674,-178.443263
51801,NaN,-3.753711,-1.763285,8.888529,0.046356,0.074108,-0.004638,0.032207,0.048870,0.017113,0.031315,0.190677,0.094479,-0.976594,-10.745815,22.231211,-178.444100
51802,NaN,-3.686137,-1.709281,8.860996,-0.004745,0.028937,-0.064578,0.031571,0.028654,0.024310,0.031335,0.190825,0.094254,-0.976586,-10.718382,22.248238,-178.437974
51803,NaN,-3.629013,-1.687711,8.943151,-0.088204,-0.005758,-0.015227,0.023110,0.020891,0.037293,0.031428,0.190930,0.094065,-0.976581,-10.693315,22.261172,-178.423292
51804,NaN,-3.608106,-1.669212,8.922467,-0.100650,-0.016552,-0.045154,0.018245,0.020577,0.038909,0.031537,0.191042,0.093890,-0.976572,-10.669812,22.275177,-178.407229
51805,NaN,-3.603526,-1.643466,8.918442,-0.103798,-0.037925,-0.054985,0.010084,0.032065,0.045867,0.031679,0.191204,0.093758,-0.976548,-10.650702,22.295300,-178.388595
51806,NaN,-3.738488,-1.651200,8.905594,0.020474,-0.021557,-0.014143,0.000338,0.046948,0.058814,0.031889,0.191452,0.093656,-0.976503,-10.633996,22.326197,-178.363480
51807,NaN,-3.850524,-1.639167,8.905827,0.118963,-0.028093,0.026632,0.000161,0.067504,0.061873,0.032102,0.191792,0.093563,-0.976438,-10.618380,22.367958,-178.339128
51808,NaN,-3.896990,-1.644017,8.940372,0.141075,-0.026159,0.076649,0.005732,0.071424,0.061248,0.032307,0.192161,0.093436,-0.976371,-10.599021,22.412918,-178.315339
51809,NaN,-4.027026,-1.627514,8.922816,0.261926,-0.032030,0.107632,0.018878,0.066840,0.057765,0.032483,0.192500,0.093255,-0.976316,-10.573555,22.453858,-178.293368
51810,NaN,-4.063436,-1.656842,8.978460,0.265303,-0.008746,0.177253,0.032012,0.056711,0.039652,0.032565,0.192791,0.093019,-0.976278,-10.543501,22.488251,-178.280850
51811,NaN,-4.043529,-1.632307,8.991202,0.239786,-0.030841,0.177198,0.043876,0.035999,0.029564,0.032594,0.192970,0.092737,-0.976268,-10.508911,22.508844,-178.272523
51812,NaN,-4.072483,-1.598219,8.952853,0.281141,-0.050756,0.147803,0.047389,0.021312,0.003415,0.032500,0.193075,0.092455,-0.976278,-10.476938,22.519529,-178.278165
51813,NaN,-4.022628,-1.549918,9.015555,0.216380,-0.106711,0.177598,0.052405,-0.007811,-0.014226,0.032326,0.193020,0.092168,-0.976321,-10.445786,22.510874,-178.291587
51814,NaN,-3.993881,-1.517419,9.099389,0.164147,-0.150912,0.237328,0.041647,-0.028527,-0.020515,0.032145,0.192870,0.091928,-0.976380,-10.420540,22.491035,-178.306177
51815,NaN,-3.917133,-1.513851,9.098858,0.098024,-0.152753,0.206891,0.034136,-0.042204,-0.024070,0.031957,0.192641,0.091734,-0.976449,-10.400671,22.461990,-178.321753
51816,NaN,-3.757660,-1.536175,9.116369,-0.053598,-0.135562,0.165628,0.023706,-0.034794,-0.023424,0.031783,0.192455,0.091584,-0.976506,-10.386104,22.438351,-178.337234
51817,NaN,-3.658049,-1.572894,9.084531,-0.134303,-0.094418,0.104826,0.008308,-0.013800,-0.014835,0.031651,0.192365,0.091511,-0.976535,-10.380088,22.426275,-178.350362
51818,NaN,-3.585999,-1.576656,9.047740,-0.187381,-0.084975,0.044518,-0.006513,0.016394,0.001009,0.031602,0.192436,0.091494,-0.976524,-10.379322,22.433981,-178.356717
51819,NaN,-3.579522,-1.656873,9.056882,-0.207456,-0.008325,0.063659,-0.010890,0.050805,0.014618,0.031604,0.192671,0.091497,-0.976477,-10.380207,22.461356,-178.359104
51820,NaN,-3.651942,-1.693593,9.009108,-0.132818,0.038572,0.053914,-0.015253,0.078575,0.031515,0.031682,0.193057,0.091502,-0.976398,-10.380008,22.507186,-178.353843
51821,NaN,-3.717698,-1.702338,8.991265,-0.074884,0.052169,0.064243,-0.013571,0.094003,0.041929,0.031800,0.193515,0.091499,-0.976304,-10.377897,22.561725,-178.344394
51822,NaN,-3.839181,-1.709372,9.027241,0.013839,0.056598,0.144668,0.003282,0.085757,0.049962,0.031949,0.193948,0.091397,-0.976222,-10.363049,22.613532,-178.328559
51823,NaN,-3.968450,-1.742168,9.032910,0.119669,0.094034,0.204999,0.017243,0.068108,0.055742,0.032116,0.194291,0.091225,-0.976165,-10.338896,22.654894,-178.307751
51824,NaN,-3.973196,-1.679816,9.075691,0.108487,0.029172,0.235378,0.025677,0.030995,0.052462,0.032280,0.194461,0.091004,-0.976146,-10.308271,22.676046,-178.284263
51825,NaN,-3.933961,-1.605112,9.117240,0.062354,-0.048057,0.245658,0.032943,-0.005677,0.042727,0.032402,0.194440,0.090756,-0.976169,-10.274998,22.674460,-178.263169
51826,NaN,-3.928891,-1.528780,9.265459,0.011391,-0.146133,0.365750,0.022500,-0.037054,0.036853,0.032522,0.194271,0.090554,-0.976218,-10.246945,22.655625,-178.241892
51827,NaN,-3.924693,-1.360662,9.332164,0.003870,-0.320206,0.397178,0.002713,-0.059764,0.033067,0.032651,0.193977,0.090454,-0.976281,-10.230982,22.622541,-178.220737
51828,NaN,-3.851650,-1.319505,9.414165,-0.083555,-0.376450,0.436903,-0.023907,-0.073675,0.034754,0.032822,0.193620,0.090474,-0.976344,-10.228452,22.582845,-178.196705
51829,NaN,-3.767953,-1.258333,9.318183,-0.111904,-0.421585,0.307547,-0.055123,-0.068016,0.044894,0.033068,0.193281,0.090644,-0.976387,-10.242538,22.546311,-178.167433
51830,NaN,-3.639404,-1.272332,9.368901,-0.245325,-0.425016,0.306580,-0.090165,-0.044773,0.049871,0.033364,0.193061,0.090977,-0.976390,-10.275640,22.524412,-178.137383
51831,NaN,-3.540405,-1.264763,9.345961,-0.324293,-0.438321,0.246328,-0.125152,-0.016545,0.056572,0.033711,0.192968,0.091486,-0.976349,-10.329313,22.518122,-178.106657
51832,NaN,-3.492825,-1.294824,9.327619,-0.364614,-0.417178,0.215966,-0.158680,0.018892,0.065274,0.034119,0.193053,0.092149,-0.976256,-10.400728,22.533700,-178.074269
51833,NaN,-3.524052,-1.390156,9.231204,-0.313377,-0.317121,0.155653,-0.179593,0.054360,0.077967,0.034591,0.193306,0.092915,-0.976116,-10.483620,22.569653,-178.038439
51834,NaN,-3.585524,-1.460981,9.060981,-0.208021,-0.226742,0.036024,-0.193253,0.085311,0.090716,0.035128,0.193721,0.093734,-0.975937,-10.571731,22.625337,-177.997807
51835,NaN,-3.606848,-1.564689,8.944398,-0.165846,-0.116297,-0.044433,-0.197965,0.109957,0.100898,0.035704,0.194252,0.094577,-0.975729,-10.662181,22.695122,-177.954434
51836,NaN,-3.775858,-1.668033,8.831468,0.009398,-0.000975,-0.064141,-0.186784,0.111089,0.111280,0.036320,0.194802,0.095348,-0.975521,-10.742813,22.767570,-177.904660
51837,NaN,-3.838113,-1.775508,8.750677,0.073521,0.110591,-0.094651,-0.163035,0.108870,0.118964,0.036950,0.195343,0.096002,-0.975325,-10.808889,22.838790,-177.850295
51838,NaN,-3.866993,-1.838005,8.681601,0.107755,0.177572,-0.134933,-0.136615,0.092796,0.123662,0.037586,0.195819,0.096512,-0.975155,-10.856949,22.902373,-177.791026
51839,NaN,-3.902359,-1.920243,8.616597,0.145863,0.266450,-0.165450,-0.097297,0.072677,0.121140,0.038180,0.196195,0.096838,-0.975024,-10.883109,22.953544,-177.731162
51840,NaN,-3.992204,-1.949230,8.583323,0.229763,0.302660,-0.155244,-0.056902,0.052095,0.116744,0.038723,0.196485,0.096958,-0.974933,-10.885217,22.993558,-177.671314
51841,NaN,-4.103849,-1.886799,8.559447,0.343219,0.252221,-0.143959,-0.012755,0.018863,0.110815,0.039210,0.196610,0.096871,-0.974896,-10.862852,23.013337,-177.611413
51842,NaN,-4.099714,-1.916649,8.510998,0.351414,0.296482,-0.184246,0.025469,-0.002533,0.098520,0.039611,0.196641,0.096598,-0.974901,-10.819597,23.020651,-177.556223
51843,NaN,-4.049524,-1.866867,8.575610,0.286500,0.240804,-0.154279,0.060818,-0.028352,0.085635,0.039925,0.196538,0.096167,-0.974952,-10.758919,23.011074,-177.506180
51844,NaN,-4.007308,-1.846117,8.575919,0.251645,0.229354,-0.174372,0.085038,-0.041920,0.072490,0.040158,0.196376,0.095621,-0.975028,-10.686021,22.993336,-177.462514
51845,NaN,-4.020265,-1.827504,8.596440,0.261210,0.219534,-0.154290,0.102981,-0.052984,0.062369,0.040330,0.196150,0.095003,-0.975127,-10.605680,22.967311,-177.423909
51846,NaN,-3.997544,-1.757442,8.697323,0.214282,0.143151,-0.084071,0.114508,-0.054295,0.064913,0.040504,0.195930,0.094319,-0.975231,-10.517255,22.941728,-177.383422
51847,NaN,-3.945089,-1.710609,8.695935,0.175832,0.109532,-0.113911,0.119713,-0.054717,0.067118,0.040682,0.195702,0.093614,-0.975337,-10.426191,22.915114,-177.341817
51848,NaN,-3.843146,-1.674734,8.746128,0.070156,0.074375,-0.114296,0.116759,-0.035149,0.068008,0.040860,0.195577,0.092920,-0.975421,-10.336668,22.900537,-177.301735
51849,NaN,-3.841469,-1.657732,8.783078,0.057348,0.064033,-0.084377,0.111899,-0.006471,0.072787,0.041052,0.195584,0.092257,-0.975474,-10.250874,22.901582,-177.262121
51850,NaN,-3.826543,-1.649237,8.801929,0.035273,0.064254,-0.074567,0.100343,0.020476,0.075041,0.041255,0.195730,0.091648,-0.975494,-10.171507,22.918988,-177.223843
51851,NaN,-3.830161,-1.633726,8.836227,0.022462,0.053927,-0.044643,0.087521,0.056852,0.075456,0.041454,0.196043,0.091114,-0.975473,-10.101717,22.955918,-177.189514
51852,NaN,-3.894775,-1.680006,8.843856,0.065423,0.110996,-0.005095,0.080808,0.082415,0.072734,0.041638,0.196485,0.090616,-0.975422,-10.036694,23.007927,-177.159169
51853,NaN,-4.069742,-1.661377,9.036682,0.145682,0.072953,0.235100,0.073377,0.101037,0.078975,0.041848,0.197012,0.090157,-0.975350,-9.975932,23.070065,-177.127346
51854,NaN,-4.192027,-1.652888,9.106795,0.221254,0.066215,0.345338,0.073205,0.096114,0.077233,0.042056,0.197522,0.089694,-0.975280,-9.914660,23.130244,-177.095466
51855,NaN,-4.256881,-1.641639,9.157797,0.252737,0.057630,0.415414,0.070028,0.080154,0.069862,0.042234,0.197941,0.089256,-0.975228,-9.857012,23.179637,-177.066833
51856,NaN,-4.239399,-1.613737,9.170142,0.226904,0.035806,0.415478,0.063990,0.061448,0.056947,0.042365,0.198271,0.088851,-0.975192,-9.804361,23.218169,-177.043892
51857,NaN,-4.221106,-1.591699,9.148803,0.214506,0.024830,0.385607,0.054195,0.048720,0.040449,0.042429,0.198521,0.088512,-0.975169,-9.761520,23.246903,-177.029889
51858,NaN,-4.219317,-1.621711,9.099794,0.222709,0.069049,0.345288,0.037180,0.045611,0.017229,0.042402,0.198751,0.088274,-0.975145,-9.733182,23.272661,-177.029435
51859,NaN,-4.215152,-1.595603,9.095235,0.219390,0.047633,0.335532,0.028984,0.043368,0.001089,0.042302,0.198951,0.088096,-0.975125,-9.714102,23.294550,-177.039028
51860,NaN,-4.235226,-1.635004,9.134205,0.213943,0.081579,0.384942,0.014268,0.052692,-0.024144,0.042091,0.199192,0.088012,-0.975092,-9.709252,23.320315,-177.064792
51861,NaN,-4.206763,-1.646540,9.133214,0.182973,0.092155,0.374637,0.020352,0.045188,-0.037201,0.041813,0.199384,0.087915,-0.975074,-9.704525,23.339536,-177.098124
51862,NaN,-4.071394,-1.666670,9.165825,0.040487,0.099624,0.353669,0.015745,0.047615,-0.050148,0.041475,0.199589,0.087848,-0.975052,-9.704973,23.359940,-177.139537
51863,NaN,-4.033858,-1.705496,9.185856,-0.009037,0.131791,0.362932,0.016988,0.041535,-0.058279,0.041098,0.199752,0.087788,-0.975040,-9.707189,23.375062,-177.185461
51864,NaN,-3.977975,-1.645194,9.210130,-0.064813,0.065371,0.353382,0.018571,0.029751,-0.055950,0.040739,0.199868,0.087710,-0.975039,-9.706765,23.384782,-177.228401
51865,NaN,-3.962598,-1.649257,9.227050,-0.086699,0.065559,0.363209,0.019088,0.016727,-0.055079,0.040386,0.199912,0.087631,-0.975051,-9.705975,23.386203,-177.269751
51866,NaN,-3.939543,-1.590774,9.148702,-0.071292,0.021985,0.274123,0.012742,0.009283,-0.047146,0.040085,0.199930,0.087569,-0.975065,-9.705910,23.385213,-177.305097
51867,NaN,-3.866977,-1.548039,9.088875,-0.109480,-0.012248,0.184585,0.004995,0.004629,-0.046137,0.039796,0.199917,0.087547,-0.975082,-9.710505,23.380664,-177.339671
51868,NaN,-3.809407,-1.493531,9.079840,-0.152045,-0.067734,0.145124,-0.012446,0.004464,-0.040278,0.039555,0.199909,0.087600,-0.975089,-9.722997,23.377586,-177.370246
51869,NaN,-3.785967,-1.486309,9.025282,-0.151234,-0.067781,0.085338,-0.019354,0.006712,-0.031575,0.039360,0.199907,0.087683,-0.975089,-9.738069,23.375611,-177.396078
51870,NaN,-3.778484,-1.466759,9.021214,-0.154785,-0.089079,0.075626,-0.026854,0.020338,-0.027100,0.039191,0.199980,0.087796,-0.975071,-9.756263,23.382735,-177.420240
51871,NaN,-3.829272,-1.455237,9.001478,-0.100599,-0.097887,0.076091,-0.035841,0.025095,-0.019614,0.039063,0.200069,0.087951,-0.975044,-9.778638,23.392288,-177.440662
51872,NaN,-3.831412,-1.459356,8.999901,-0.100340,-0.097122,0.076101,-0.041371,0.027894,-0.013983,0.038969,0.200182,0.088123,-0.975009,-9.802266,23.404911,-177.457623
51873,NaN,-3.819589,-1.480681,8.912973,-0.082463,-0.064233,-0.003924,-0.042304,0.034956,-0.007037,0.038904,0.200324,0.088299,-0.974967,-9.825700,23.421243,-177.471368
51874,NaN,-3.856649,-1.530871,8.865504,-0.038952,-0.007983,-0.024282,-0.038026,0.039908,-0.001194,0.038864,0.200501,0.088445,-0.974919,-9.844810,23.441863,-177.481715
51875,NaN,-3.875564,-1.521190,8.914288,-0.042706,-0.028648,0.025803,-0.031304,0.041635,0.009687,0.038867,0.200684,0.088551,-0.974871,-9.858145,23.463598,-177.485899
51876,NaN,-3.936493,-1.530401,8.897096,0.015147,-0.015342,0.035965,-0.018752,0.034874,0.017048,0.038898,0.200849,0.088583,-0.974833,-9.861534,23.483159,-177.484501
51877,NaN,-4.037384,-1.495740,8.892749,0.109825,-0.044621,0.066819,-0.009599,0.035054,0.027972,0.038971,0.201013,0.088565,-0.974798,-9.857670,23.502972,-177.476730
51878,NaN,-4.039937,-1.441419,8.901796,0.111506,-0.098455,0.067527,-0.001975,0.026386,0.033550,0.039070,0.201146,0.088497,-0.974773,-9.847033,23.519353,-177.464298
51879,NaN,-3.978058,-1.418472,8.844749,0.077042,-0.110675,-0.012258,0.008434,0.017145,0.037991,0.039181,0.201231,0.088377,-0.974762,-9.829604,23.530034,-177.448437
51880,NaN,-3.940467,-1.413768,8.773662,0.068585,-0.100289,-0.092173,0.015402,0.013199,0.042639,0.039313,0.201307,0.088212,-0.974756,-9.806202,23.539852,-177.428913
51881,NaN,-3.885574,-1.407659,8.754539,0.024681,-0.101312,-0.132280,0.019249,0.013868,0.042962,0.039440,0.201380,0.088034,-0.974751,-9.781205,23.549155,-177.409630
51882,NaN,-3.896215,-1.382718,8.699279,0.056699,-0.111353,-0.181787,0.016416,0.014472,0.035749,0.039535,0.201460,0.087871,-0.974746,-9.758938,23.558996,-177.394641
51883,NaN,-3.856950,-1.413280,8.754785,-0.006051,-0.089948,-0.142550,0.021721,0.020680,0.034713,0.039616,0.201563,0.087691,-0.974738,-9.734833,23.571331,-177.381149
51884,NaN,-3.860259,-1.365963,8.695859,0.022111,-0.122074,-0.201755,0.010665,0.032983,0.034321,0.039702,0.201732,0.087561,-0.974711,-9.716990,23.591471,-177.368884
51885,NaN,-3.928242,-1.384407,8.750847,0.057440,-0.108579,-0.121975,0.019791,0.038197,0.030260,0.039756,0.201918,0.087398,-0.974685,-9.695816,23.613261,-177.359970
51886,NaN,-3.963961,-1.360631,8.816756,0.062574,-0.139547,-0.051740,0.018222,0.053333,0.034617,0.039827,0.202186,0.087235,-0.974641,-9.674404,23.644883,-177.349709
51887,NaN,-4.033983,-1.378219,8.870896,0.097915,-0.126046,0.028035,0.026332,0.060629,0.035793,0.039891,0.202485,0.087039,-0.974594,-9.649041,23.679869,-177.339715
51888,NaN,-4.120166,-1.337754,8.917551,0.156779,-0.166596,0.098706,0.034017,0.061966,0.036443,0.039952,0.202800,0.086799,-0.974547,-9.618447,23.716575,-177.329071
51889,NaN,-4.199501,-1.336662,8.882476,0.237137,-0.153089,0.098981,0.039472,0.052498,0.034117,0.039998,0.203062,0.086539,-0.974514,-9.585601,23.746797,-177.319218
51890,NaN,-4.237202,-1.373637,8.869758,0.267468,-0.107813,0.108512,0.039630,0.038495,0.027833,0.040022,0.203260,0.086276,-0.974495,-9.552918,23.769413,-177.311298
51891,NaN,-4.199729,-1.407763,8.890873,0.218029,-0.075507,0.117766,0.032080,0.023173,0.012550,0.039983,0.203367,0.086068,-0.974492,-9.528425,23.781009,-177.311679
51892,NaN,-4.216721,-1.396634,8.907397,0.227356,-0.085201,0.137896,0.026179,-0.002312,0.002974,0.039916,0.203353,0.085887,-0.974514,-9.507897,23.778217,-177.315103
51893,NaN,-4.157540,-1.378672,8.992082,0.143629,-0.118661,0.187748,0.008525,-0.017426,-0.004666,0.039835,0.203251,0.085803,-0.974546,-9.499490,23.765242,-177.321910
51894,NaN,-4.115404,-1.367394,8.990683,0.108597,-0.129958,0.167794,0.004411,-0.010726,-0.003771,0.039762,0.203189,0.085733,-0.974568,-9.492759,23.757107,-177.328440
51895,NaN,-4.098892,-1.419943,9.032545,0.072124,-0.085950,0.206865,0.000036,0.003333,-0.001650,0.039695,0.203187,0.085692,-0.974575,-9.489329,23.756149,-177.335530
51896,NaN,-4.100869,-1.429184,8.963675,0.098921,-0.063580,0.146898,-0.001888,0.017508,0.003865,0.039656,0.203264,0.085651,-0.974564,-9.485497,23.764689,-177.340001
51897,NaN,-4.054795,-1.448938,8.947237,0.058892,-0.042478,0.116490,0.004220,0.032313,0.005514,0.039607,0.203408,0.085588,-0.974542,-9.479093,23.780785,-177.345657
51898,NaN,-4.076180,-1.502637,8.883670,0.093481,0.024021,0.075863,0.008565,0.045606,0.011405,0.039582,0.203627,0.085495,-0.974505,-9.468558,23.805932,-177.348351
51899,NaN,-4.065305,-1.558866,8.889161,0.070322,0.078850,0.084928,0.005193,0.057587,0.008286,0.039535,0.203895,0.085428,-0.974457,-9.461959,23.836575,-177.354894
51900,NaN,-4.038416,-1.618250,8.912265,0.024670,0.133424,0.103844,0.021923,0.055786,0.004854,0.039457,0.204165,0.085278,-0.974417,-9.445818,23.866861,-177.362976
51901,NaN,-4.091049,-1.595649,8.926132,0.065574,0.113591,0.134242,0.030794,0.037658,0.004019,0.039372,0.204339,0.085087,-0.974400,-9.424789,23.885843,-177.370095
51902,NaN,-4.060260,-1.595089,8.995180,0.007915,0.102821,0.183944,0.038949,0.017590,-0.002796,0.039256,0.204422,0.084855,-0.974408,-9.399248,23.893816,-177.378985
51903,NaN,-4.098927,-1.530057,9.144609,-0.008187,0.017785,0.324658,0.044950,-0.008297,-0.002533,0.039144,0.204372,0.084593,-0.974445,-9.369843,23.886213,-177.385441
51904,NaN,-4.111608,-1.459583,9.206996,-0.010896,-0.057223,0.375594,0.041850,-0.036051,0.000131,0.039062,0.204195,0.084333,-0.974508,-9.339723,23.864099,-177.386979
51905,NaN,-4.049817,-1.399765,9.200974,-0.053599,-0.112719,0.336337,0.034305,-0.054733,0.003208,0.039008,0.203920,0.084108,-0.974588,-9.313074,23.830782,-177.385178
51906,NaN,-3.930879,-1.387319,9.200608,-0.155337,-0.125886,0.286208,0.016161,-0.053461,0.009697,0.039004,0.203657,0.083959,-0.974656,-9.294554,23.799678,-177.379395
51907,NaN,-3.901731,-1.367131,9.217059,-0.181166,-0.147631,0.286427,-0.002227,-0.043164,0.012409,0.039028,0.203434,0.083905,-0.974706,-9.287026,23.773752,-177.373103
51908,NaN,-3.891486,-1.354337,9.146539,-0.158284,-0.147395,0.216784,-0.020833,-0.022176,0.014688,0.039074,0.203319,0.083938,-0.974725,-9.289748,23.760786,-177.367200
51909,NaN,-3.891511,-1.410504,9.136438,-0.159059,-0.092149,0.215976,-0.047814,-0.001115,0.017018,0.039149,0.203294,0.084110,-0.974713,-9.308907,23.759063,-177.362310
51910,NaN,-3.902075,-1.446822,9.070070,-0.128306,-0.047784,0.165634,-0.061180,0.021087,0.016568,0.039229,0.203381,0.084346,-0.974671,-9.336050,23.770715,-177.359402
51911,NaN,-3.980015,-1.514114,8.990303,-0.035805,0.030862,0.134995,-0.074993,0.035665,0.020602,0.039333,0.203532,0.084654,-0.974608,-9.371396,23.790123,-177.356039
51912,NaN,-3.984807,-1.573748,8.977367,-0.036691,0.086195,0.134157,-0.076669,0.044172,0.019882,0.039434,0.203731,0.084966,-0.974536,-9.407524,23.815119,-177.353701
51913,NaN,-4.031903,-1.608981,8.839450,0.052181,0.141807,0.034043,-0.078065,0.046983,0.021285,0.039540,0.203936,0.085290,-0.974460,-9.444936,23.840992,-177.351102
51914,NaN,-4.022010,-1.681177,8.775197,0.055536,0.218274,-0.016961,-0.070335,0.053324,0.015300,0.039610,0.204179,0.085579,-0.974381,-9.478998,23.870779,-177.352289
51915,NaN,-4.068208,-1.696441,8.773819,0.091322,0.230882,0.002937,-0.047189,0.062276,0.019007,0.039667,0.204464,0.085758,-0.974303,-9.499939,23.905082,-177.352708
51916,NaN,-4.107252,-1.696770,8.700846,0.149558,0.242965,-0.046835,-0.038778,0.065556,0.008979,0.039669,0.204769,0.085903,-0.974226,-9.518079,23.941164,-177.359047
51917,NaN,-4.145052,-1.686771,8.696715,0.181395,0.233474,-0.036590,-0.011622,0.056121,0.005066,0.039624,0.205025,0.085922,-0.974173,-9.521892,23.970669,-177.367469
51918,NaN,-4.173941,-1.656848,8.655965,0.222402,0.212714,-0.065998,0.004722,0.048321,0.001137,0.039547,0.205252,0.085858,-0.974133,-9.516370,23.996240,-177.377392
51919,NaN,-4.167982,-1.624366,8.719947,0.192341,0.169797,-0.015632,0.016741,0.027227,-0.008699,0.039418,0.205367,0.085747,-0.974124,-9.506183,24.008115,-177.391332
51920,NaN,-4.166795,-1.560395,8.798793,0.167205,0.094484,0.045248,0.024348,-0.013852,-0.012808,0.039281,0.205289,0.085591,-0.974160,-9.490353,23.997253,-177.403274
51921,NaN,-4.178665,-1.492194,8.861538,0.164533,0.019398,0.096263,0.027812,-0.048226,-0.007683,0.039178,0.205039,0.085410,-0.974233,-9.470391,23.966589,-177.408783
51922,NaN,-4.082917,-1.440925,8.891769,0.076876,-0.036593,0.076841,0.030358,-0.068824,0.001074,0.039123,0.204701,0.085198,-0.974324,-9.445305,23.925997,-177.406750
51923,NaN,-3.969877,-1.393025,8.940002,-0.032965,-0.092942,0.067310,0.027523,-0.069901,0.007188,0.039102,0.204351,0.084999,-0.974416,-9.420884,23.884483,-177.400862
51924,NaN,-3.883289,-1.368722,8.938716,-0.103391,-0.116106,0.027526,0.020799,-0.044272,0.020991,0.039143,0.204139,0.084819,-0.974475,-9.397328,23.859595,-177.389246
51925,NaN,-3.856851,-1.351892,8.920297,-0.116001,-0.127116,-0.002234,0.013535,-0.007240,0.022216,0.039183,0.204099,0.084685,-0.974493,-9.379775,23.854902,-177.380512
51926,NaN,-3.842759,-1.363144,8.869161,-0.111505,-0.105265,-0.052388,0.001421,0.032896,0.023339,0.039224,0.204259,0.084612,-0.974464,-9.369930,23.873863,-177.375051
51927,NaN,-3.896792,-1.395733,8.872304,-0.071748,-0.070597,-0.022861,-0.001688,0.066561,0.022018,0.039247,0.204575,0.084566,-0.974401,-9.364192,23.910870,-177.373965
51928,NaN,-3.978204,-1.447978,8.859568,-0.005819,-0.013502,0.006400,-0.012978,0.089624,0.021143,0.039275,0.205008,0.084578,-0.974308,-9.365527,23.961701,-177.374953
51929,NaN,-4.012622,-1.520694,8.830774,0.019870,0.064058,0.005241,-0.006610,0.098757,0.016577,0.039263,0.205478,0.084569,-0.974210,-9.365311,24.016402,-177.380517
51930,NaN,-4.207855,-1.519665,8.898271,0.162416,0.058907,0.145465,-0.002201,0.089697,0.016155,0.039254,0.205911,0.084534,-0.974122,-9.361755,24.066772,-177.384668
51931,NaN,-4.225159,-1.648861,8.877662,0.164775,0.190758,0.153257,0.007287,0.061806,0.006238,0.039193,0.206199,0.084460,-0.974070,-9.354657,24.099621,-177.392861
51932,NaN,-4.156894,-1.698097,8.899305,0.084042,0.233597,0.152217,0.014003,0.034486,-0.002548,0.039095,0.206358,0.084353,-0.974049,-9.344221,24.117036,-177.403557
51933,NaN,-4.191720,-1.728901,8.955526,0.088280,0.257307,0.221607,0.030583,0.014288,-0.009361,0.038954,0.206413,0.084173,-0.974059,-9.325747,24.121572,-177.416562
51934,NaN,-4.167065,-1.707049,8.970678,0.062268,0.235685,0.221858,0.042592,-0.006837,-0.010815,0.038807,0.206373,0.083928,-0.974095,-9.299374,24.114882,-177.427785
51935,NaN,-4.108526,-1.691569,9.022126,-0.008239,0.213499,0.241888,0.053713,-0.012508,-0.013648,0.038632,0.206300,0.083634,-0.974142,-9.267619,24.103881,-177.440726
51936,NaN,-4.049994,-1.635599,8.981158,-0.038047,0.168798,0.172747,0.057272,-0.004469,-0.012091,0.038464,0.206273,0.083321,-0.974181,-9.233301,24.098409,-177.452817
51937,NaN,-4.074002,-1.596141,8.977498,-0.010249,0.137194,0.173388,0.060551,0.010948,-0.009322,0.038294,0.206317,0.082994,-0.974207,-9.197500,24.101085,-177.465449
51938,NaN,-4.115600,-1.557482,8.921386,0.053001,0.116528,0.134103,0.059534,0.016394,-0.005756,0.038148,0.206395,0.082667,-0.974224,-9.161196,24.107965,-177.475488
51939,NaN,-4.141432,-1.522004,8.882834,0.094065,0.095549,0.104707,0.066173,0.021496,0.003490,0.038030,0.206497,0.082302,-0.974238,-9.119362,24.117789,-177.481230
51940,NaN,-4.183235,-1.477971,8.860723,0.144012,0.064202,0.095461,0.062590,0.013470,0.001934,0.037917,0.206565,0.081951,-0.974257,-9.079236,24.123752,-177.486488
51941,NaN,-4.208821,-1.491403,8.846682,0.170801,0.087129,0.095161,0.063178,0.003736,0.001202,0.037798,0.206578,0.081599,-0.974289,-9.038975,24.123328,-177.491878
51942,NaN,-4.207125,-1.427152,8.892096,0.158785,0.022590,0.126141,0.069258,-0.015511,-0.001791,0.037673,0.206504,0.081215,-0.974341,-8.994834,24.112550,-177.496446
51943,NaN,-4.252137,-1.342740,8.953201,0.187285,-0.062601,0.187534,0.065256,-0.032870,-0.010521,0.037510,0.206335,0.080858,-0.974413,-8.954885,24.090369,-177.505519
51944,NaN,-4.231045,-1.287422,8.983517,0.166200,-0.116717,0.198382,0.064043,-0.049134,-0.017027,0.037329,0.206090,0.080509,-0.974501,-8.916240,24.059236,-177.516346
51945,NaN,-4.233786,-1.256622,8.965536,0.184893,-0.137963,0.178892,0.058013,-0.058963,-0.025310,0.037112,0.205787,0.080197,-0.974599,-8.883146,24.020985,-177.532080
51946,NaN,-4.211943,-1.256239,8.986457,0.162837,-0.137487,0.188792,0.055591,-0.055741,-0.030380,0.036872,0.205503,0.079900,-0.974692,-8.852382,23.984973,-177.551086
51947,NaN,-4.148590,-1.191869,9.015065,0.106468,-0.203525,0.179809,0.052835,-0.051837,-0.039271,0.036590,0.205228,0.079630,-0.974783,-8.826043,23.949542,-177.576192
51948,NaN,-4.119089,-1.174739,8.998031,0.093641,-0.214505,0.150078,0.045867,-0.049543,-0.038971,0.036320,0.204969,0.079391,-0.974867,-8.803281,23.916284,-177.600637
51949,NaN,-4.073162,-1.161912,8.998645,0.058640,-0.225748,0.130244,0.038861,-0.052290,-0.048686,0.036006,0.204684,0.079198,-0.974954,-8.787272,23.879789,-177.631547
51950,NaN,-4.027286,-1.155345,8.964999,0.036776,-0.226310,0.080366,0.019652,-0.055622,-0.050350,0.035708,0.204387,0.079097,-0.975036,-8.782079,23.842082,-177.662739
51951,NaN,-3.973506,-1.176300,8.952189,-0.003203,-0.205050,0.049973,0.008887,-0.050679,-0.052038,0.035408,0.204103,0.079054,-0.975110,-8.784104,23.806212,-177.695869
51952,NaN,-3.911731,-1.175469,8.935679,-0.047394,-0.205801,0.009997,-0.004328,-0.047499,-0.043769,0.035168,0.203843,0.079065,-0.975172,-8.791279,23.773736,-177.723243
51953,NaN,-3.834640,-1.227518,8.960859,-0.127933,-0.162816,0.008992,-0.012575,-0.035748,-0.037041,0.034956,0.203635,0.079114,-0.975219,-8.802395,23.747627,-177.748498
51954,NaN,-3.840576,-1.262440,8.896931,-0.097029,-0.118830,-0.041525,-0.014946,-0.029167,-0.027078,0.034800,0.203469,0.079163,-0.975255,-8.812146,23.726943,-177.767402
51955,NaN,-3.763994,-1.260366,8.931261,-0.176667,-0.130397,-0.041537,-0.015300,-0.031732,-0.004200,0.034750,0.203293,0.079192,-0.975291,-8.816784,23.705984,-177.772715
51956,NaN,-3.777298,-1.248313,8.982681,-0.180656,-0.150661,0.008692,-0.013068,-0.019200,0.010409,0.034769,0.203190,0.079195,-0.975312,-8.816494,23.694190,-177.769593
51957,NaN,-3.815830,-1.205432,8.995202,-0.143962,-0.192728,0.029539,-0.005393,-0.021108,0.037761,0.034909,0.203084,0.079135,-0.975334,-8.805439,23.682930,-177.749980
51958,NaN,-3.863257,-1.188871,8.977044,-0.090047,-0.202068,0.029902,-0.005056,-0.023415,0.054929,0.035142,0.202980,0.079054,-0.975354,-8.789343,23.672676,-177.718550
51959,NaN,-3.822163,-1.185688,8.907375,-0.098499,-0.192115,-0.050029,-0.002238,-0.020602,0.068819,0.035430,0.202889,0.078947,-0.975371,-8.768802,23.664408,-177.679794
51960,NaN,-3.830391,-1.161875,8.852608,-0.066728,-0.202748,-0.099554,-0.004518,-0.005681,0.078794,0.035773,0.202881,0.078842,-0.975368,-8.747151,23.666255,-177.635148
51961,NaN,-3.865592,-1.205923,8.807162,-0.022551,-0.147215,-0.120373,-0.006723,0.015899,0.085442,0.036133,0.202974,0.078747,-0.975343,-8.726445,23.680078,-177.589587
51962,NaN,-3.892467,-1.163666,8.835648,-0.008330,-0.189398,-0.089614,-0.005791,0.037871,0.089774,0.036509,0.203182,0.078644,-0.975295,-8.704387,23.707459,-177.542740
51963,NaN,-3.964233,-1.244006,8.811786,0.053081,-0.100123,-0.071157,-0.001824,0.051900,0.091778,0.036880,0.203454,0.078525,-0.975233,-8.680618,23.742189,-177.496635
51964,NaN,-4.010907,-1.245844,8.845772,0.075504,-0.098138,-0.021270,0.008035,0.064083,0.095343,0.037258,0.203794,0.078352,-0.975162,-8.650152,23.784845,-177.448949
51965,NaN,-4.043040,-1.264680,8.794836,0.115615,-0.064732,-0.051686,0.017690,0.061281,0.102221,0.037656,0.204119,0.078129,-0.975096,-8.612860,23.825742,-177.397191
51966,NaN,-4.068110,-1.362384,8.755481,0.136583,0.045267,-0.063670,0.030121,0.056168,0.096299,0.038019,0.204426,0.077847,-0.975041,-8.569079,23.863984,-177.348049
51967,NaN,-4.049348,-1.341481,8.734090,0.123871,0.034200,-0.093397,0.036568,0.046248,0.092142,0.038356,0.204677,0.077539,-0.974999,-8.522832,23.895434,-177.301040
51968,NaN,-4.038302,-1.342687,8.716515,0.115127,0.045305,-0.113563,0.047587,0.038903,0.085958,0.038656,0.204899,0.077179,-0.974969,-8.470905,23.922961,-177.256738
51969,NaN,-4.067077,-1.348714,8.735555,0.128680,0.057598,-0.083855,0.059296,0.031836,0.082416,0.038927,0.205081,0.076767,-0.974953,-8.413471,23.945347,-177.214352
51970,NaN,-4.157587,-1.266095,8.830311,0.178957,-0.026214,0.027546,0.067478,0.021744,0.079030,0.039178,0.205220,0.076313,-0.974949,-8.351199,23.962468,-177.172885
51971,NaN,-4.174135,-1.194347,8.856761,0.189158,-0.090582,0.048757,0.073743,0.000137,0.076560,0.039418,0.205248,0.075831,-0.974971,-8.285749,23.966314,-177.131193
51972,NaN,-4.172702,-1.120976,8.935622,0.163599,-0.165504,0.109974,0.070126,-0.004482,0.081703,0.039689,0.205261,0.075356,-0.974994,-8.220288,23.968722,-177.085682
51973,NaN,-4.155313,-1.061138,8.963994,0.142440,-0.219577,0.120958,0.071438,-0.007260,0.080296,0.039952,0.205253,0.074880,-0.975022,-8.154941,23.968591,-177.041000
51974,NaN,-4.131507,-1.043025,8.910939,0.142821,-0.220030,0.061180,0.060708,-0.002257,0.078592,0.040218,0.205274,0.074454,-0.975039,-8.095726,23.971926,-176.997512
51975,NaN,-4.117730,-1.091991,8.919740,0.120149,-0.164944,0.070038,0.055985,0.007524,0.075118,0.040466,0.205333,0.074062,-0.975046,-8.041062,23.979680,-176.957344
51976,NaN,-4.032201,-1.148745,8.893342,0.043851,-0.100744,0.018778,0.048189,0.020264,0.072277,0.040707,0.205459,0.073708,-0.975037,-7.991389,23.995228,-176.919573
51977,NaN,-4.029849,-1.226643,8.870471,0.038640,-0.013050,0.007085,0.048799,0.034519,0.064394,0.040900,0.205644,0.073368,-0.975015,-7.944478,24.017383,-176.888389
51978,NaN,-4.045196,-1.339599,8.922487,0.015012,0.097909,0.074632,0.048907,0.041176,0.061038,0.041077,0.205868,0.073026,-0.974986,-7.897920,24.043834,-176.859532
51979,NaN,-3.997782,-1.487558,8.908949,-0.044495,0.250397,0.061510,0.050879,0.052614,0.051761,0.041199,0.206137,0.072692,-0.974949,-7.853604,24.075222,-176.837704
51980,NaN,-3.965237,-1.572721,8.921136,-0.094385,0.338011,0.069623,0.062705,0.053833,0.048228,0.041294,0.206420,0.072299,-0.974915,-7.802800,24.107809,-176.817920
51981,NaN,-3.979330,-1.588014,8.923542,-0.089783,0.360745,0.079141,0.061315,0.049840,0.036301,0.041331,0.206672,0.071929,-0.974887,-7.756289,24.136390,-176.805404
51982,NaN,-3.919389,-1.600791,8.959871,-0.165403,0.371623,0.088725,0.060913,0.045485,0.030828,0.041346,0.206908,0.071561,-0.974863,-7.710659,24.162844,-176.795634
51983,NaN,-4.010645,-1.519146,9.053192,-0.115048,0.287784,0.200170,0.054589,0.043095,0.032102,0.041373,0.207124,0.071227,-0.974841,-7.668807,24.187255,-176.785111
51984,NaN,-4.190576,-1.422022,9.196977,-0.002340,0.184583,0.391889,0.038219,0.040964,0.032648,0.041422,0.207334,0.070968,-0.974813,-7.635588,24.211271,-176.773648
51985,NaN,-4.313258,-1.078893,9.371931,0.073544,-0.170850,0.558749,0.010233,0.031960,0.038883,0.041532,0.207489,0.070841,-0.974785,-7.617016,24.229864,-176.757940
51986,NaN,-4.441096,-0.646879,9.270842,0.275034,-0.573605,0.467665,-0.038012,0.020282,0.053656,0.041770,0.207589,0.070927,-0.974747,-7.621379,24.243706,-176.731788
51987,NaN,-4.472507,-0.272103,9.072339,0.422505,-0.914100,0.255609,-0.097011,0.024233,0.057832,0.042086,0.207691,0.071301,-0.974684,-7.659133,24.259358,-176.703634
51988,NaN,-4.460414,-0.046012,8.738349,0.567993,-1.093293,-0.079331,-0.144049,0.034342,0.051798,0.042419,0.207837,0.071908,-0.974594,-7.725117,24.281099,-176.679803
51989,NaN,-4.444669,0.063316,8.543275,0.640952,-1.183315,-0.276673,-0.190855,0.059509,0.042360,0.042744,0.208085,0.072763,-0.974463,-7.821831,24.315637,-176.664315
51990,NaN,-4.410975,0.032423,8.367627,0.672033,-1.142149,-0.446857,-0.213686,0.084727,0.026405,0.043010,0.208453,0.073746,-0.974299,-7.935900,24.364111,-176.660507
51991,NaN,-4.338508,-0.254233,8.367275,0.566702,-0.880656,-0.442424,-0.206013,0.103332,0.006539,0.043160,0.208897,0.074721,-0.974123,-8.052131,24.420714,-176.671303
51992,NaN,-4.279252,-0.650231,8.485819,0.411036,-0.529568,-0.310345,-0.172363,0.116119,-0.008522,0.043199,0.209414,0.075544,-0.973947,-8.152628,24.484238,-176.692401
51993,NaN,-4.190846,-1.095070,8.697166,0.183811,-0.144947,-0.099386,-0.119111,0.136409,-0.016317,0.043135,0.210030,0.076127,-0.973772,-8.226326,24.557700,-176.720635
51994,NaN,-4.072438,-1.547661,8.909289,-0.074764,0.250249,0.101303,-0.051024,0.154983,-0.011481,0.043017,0.210760,0.076370,-0.973600,-8.259625,24.642966,-176.747410
51995,NaN,-4.089738,-1.874063,9.035288,-0.162537,0.548211,0.264391,0.003306,0.156913,0.011553,0.042951,0.211512,0.076332,-0.973443,-8.256826,24.730316,-176.760243
51996,NaN,-4.014923,-2.133032,8.926720,-0.231908,0.819258,0.168835,0.041319,0.156699,0.026745,0.042921,0.212285,0.076086,-0.973295,-8.227418,24.819679,-176.763320
51997,NaN,-3.927660,-2.244849,8.938415,-0.343980,0.927652,0.156377,0.059871,0.152303,0.033019,0.042902,0.213035,0.075748,-0.973159,-8.186401,24.906181,-176.762253
51998,NaN,-4.030124,-2.221814,8.984131,-0.281089,0.908959,0.236578,0.061927,0.120026,0.043552,0.042944,0.213640,0.075377,-0.973053,-8.139418,24.976101,-176.751502
51999,NaN,-4.143859,-2.131945,9.091062,-0.221767,0.814751,0.368234,0.044599,0.076776,0.040159,0.043005,0.214022,0.075090,-0.972989,-8.102350,25.020340,-176.739077
52000,NaN,-4.251803,-1.980656,9.277400,-0.188649,0.645225,0.561274,0.015272,0.023964,0.040203,0.043118,0.214147,0.074930,-0.972968,-8.079435,25.035459,-176.721668
52001,NaN,-4.289159,-1.813213,9.410290,-0.190840,0.462635,0.674817,-0.014843,-0.013352,0.038774,0.043270,0.214077,0.074914,-0.972978,-8.073379,25.028451,-176.702062
52002,NaN,-4.213056,-1.758390,9.455346,-0.270064,0.397089,0.676103,-0.042196,-0.027104,0.037401,0.043450,0.213941,0.075026,-0.972992,-8.082292,25.014330,-176.681888
52003,NaN,-4.175688,-1.681603,9.374218,-0.259880,0.330233,0.577862,-0.064666,-0.009747,0.040667,0.043662,0.213878,0.075251,-0.972978,-8.104423,25.009524,-176.661418
52004,NaN,-4.197698,-1.607598,9.309239,-0.205346,0.264741,0.519529,-0.078846,0.019847,0.038493,0.043869,0.213962,0.075551,-0.972927,-8.135857,25.022113,-176.644761
52005,NaN,-4.238409,-1.530903,9.224808,-0.128389,0.199153,0.451265,-0.090155,0.052172,0.033564,0.044051,0.214192,0.075922,-0.972840,-8.176813,25.051869,-176.634283
52006,NaN,-4.290169,-1.487289,9.073806,-0.020752,0.176486,0.332260,-0.098686,0.077151,0.022552,0.044180,0.214544,0.076347,-0.972723,-8.226056,25.095646,-176.632834
52007,NaN,-4.375177,-1.422068,8.988685,0.091695,0.122522,0.283722,-0.097118,0.077634,0.011173,0.044251,0.214888,0.076781,-0.972610,-8.277942,25.138013,-176.638739
52008,NaN,-4.468688,-1.374780,8.941061,0.194923,0.080290,0.274796,-0.092814,0.067411,-0.004633,0.044244,0.215184,0.077206,-0.972511,-8.330723,25.174047,-176.653534
52009,NaN,-4.422590,-1.364796,8.830702,0.195481,0.078273,0.155207,-0.082819,0.043532,-0.017159,0.044175,0.215354,0.077593,-0.972446,-8.380677,25.194714,-176.674137
52010,NaN,-4.317336,-1.348107,8.738605,0.138063,0.064640,0.025847,-0.066112,0.024684,-0.028727,0.044039,0.215438,0.077904,-0.972408,-8.422961,25.204470,-176.700202
52011,NaN,-4.293249,-1.345062,8.683652,0.138541,0.063915,-0.033950,-0.044825,0.016816,-0.033929,0.043857,0.215481,0.078119,-0.972390,-8.454586,25.208559,-176.728864
52012,NaN,-4.282238,-1.282417,8.621604,0.161660,0.008644,-0.102486,-0.014793,0.004696,-0.041913,0.043610,0.215474,0.078190,-0.972397,-8.470215,25.205863,-176.761283
52013,NaN,-4.238624,-1.230223,8.562135,0.153608,-0.036279,-0.181248,0.009001,0.005322,-0.043674,0.043328,0.215468,0.078151,-0.972414,-8.473142,25.202601,-176.794979
52014,NaN,-4.180976,-1.228838,8.545203,0.109337,-0.036910,-0.221140,0.035444,-0.001356,-0.043212,0.043021,0.215442,0.077978,-0.972447,-8.460076,25.196366,-176.827790
52015,NaN,-4.153287,-1.154045,8.571361,0.083636,-0.112962,-0.219456,0.066292,-0.010461,-0.038079,0.042711,0.215374,0.077651,-0.972502,-8.428053,25.184644,-176.856512
52016,NaN,-4.110185,-1.138845,8.572023,0.048342,-0.123975,-0.239159,0.090750,-0.026970,-0.033427,0.042402,0.215239,0.077193,-0.972582,-8.379672,25.164729,-176.880871
52017,NaN,-4.146373,-1.088050,8.585588,0.084726,-0.166309,-0.218223,0.105118,-0.038087,-0.027943,0.042109,0.215049,0.076661,-0.972679,-8.321614,25.138233,-176.900717
52018,NaN,-4.144510,-1.123411,8.647077,0.057918,-0.131787,-0.159180,0.123230,-0.051897,-0.020427,0.041839,0.214805,0.076025,-0.972794,-8.250187,25.105325,-176.914582
52019,NaN,-4.132946,-1.134806,8.706067,0.026980,-0.119404,-0.109614,0.130375,-0.054890,-0.016867,0.041579,0.214542,0.075355,-0.972915,-8.174079,25.070250,-176.926035
52020,NaN,-4.038717,-1.124998,8.763151,-0.075207,-0.130236,-0.099447,0.138930,-0.064649,-0.000885,0.041396,0.214246,0.074620,-0.973045,-8.088041,25.031741,-176.926178
52021,NaN,-3.984842,-1.128901,8.787449,-0.128393,-0.119118,-0.099709,0.141412,-0.068472,0.007982,0.041251,0.213929,0.073866,-0.973179,-7.998555,24.990983,-176.920980
52022,NaN,-3.947871,-1.113586,8.896040,-0.199341,-0.138990,-0.019516,0.144809,-0.056942,0.016138,0.041140,0.213677,0.073086,-0.973297,-7.904974,24.958176,-176.911399
52023,NaN,-4.040648,-1.043010,9.030299,-0.158358,-0.211052,0.131727,0.128956,-0.043472,0.032447,0.041117,0.213488,0.072371,-0.973393,-7.817144,24.933510,-176.893193
52024,NaN,-4.141235,-0.951885,9.108383,-0.086205,-0.294869,0.233415,0.108611,-0.035982,0.044110,0.041175,0.213340,0.071742,-0.973470,-7.737748,24.914697,-176.867846
52025,NaN,-4.177792,-0.892767,9.155728,-0.063181,-0.347504,0.284519,0.074394,-0.035596,0.049645,0.041292,0.213184,0.071276,-0.973533,-7.676973,24.895779,-176.839620
52026,NaN,-4.198660,-0.840172,9.220619,-0.062580,-0.399999,0.345587,0.039562,-0.028758,0.057526,0.041486,0.213061,0.070970,-0.973574,-7.633881,24.882006,-176.806480
52027,NaN,-4.259008,-0.757193,9.227439,0.000702,-0.474871,0.367323,-0.000237,-0.023255,0.051466,0.041687,0.212950,0.070868,-0.973598,-7.615849,24.870198,-176.778186
52028,NaN,-4.241383,-0.771097,9.177848,0.005254,-0.453453,0.317030,-0.048136,-0.016541,0.052521,0.041946,0.212868,0.070997,-0.973595,-7.624716,24.862981,-176.749162
52029,NaN,-4.170167,-0.842141,9.100130,-0.034990,-0.378765,0.225598,-0.092684,0.012882,0.040750,0.042180,0.212909,0.071364,-0.973549,-7.663753,24.870887,-176.730607
52030,NaN,-4.190742,-0.900435,9.070508,-0.012818,-0.323570,0.214393,-0.125943,0.037586,0.033401,0.042414,0.213066,0.071904,-0.973465,-7.724154,24.892944,-176.717648
52031,NaN,-4.247698,-1.002585,9.027778,0.040402,-0.224362,0.212126,-0.149091,0.065348,0.025176,0.042614,0.213345,0.072573,-0.973345,-7.801494,24.929464,-176.713331
52032,NaN,-4.274410,-1.124088,8.951314,0.075561,-0.104303,0.169475,-0.163110,0.082537,0.020128,0.042806,0.213709,0.073317,-0.973201,-7.888291,24.976081,-176.712619
52033,NaN,-4.286319,-1.259311,8.823359,0.115210,0.036349,0.076470,-0.156764,0.100134,0.023845,0.042995,0.214155,0.074032,-0.973041,-7.971704,25.032248,-176.712284
52034,NaN,-4.281140,-1.343303,8.722660,0.132802,0.122593,-0.005306,-0.141582,0.104425,0.028605,0.043191,0.214632,0.074665,-0.972879,-8.044720,25.091955,-176.709143
52035,NaN,-4.251157,-1.406893,8.636882,0.123927,0.186741,-0.086579,-0.119956,0.107661,0.025521,0.043345,0.215123,0.075201,-0.972722,-8.106947,25.152527,-176.708584
52036,NaN,-4.175322,-1.533364,8.595730,0.047762,0.305850,-0.139257,-0.083193,0.103335,0.028939,0.043486,0.215608,0.075551,-0.972581,-8.146542,25.211608,-176.704581
52037,NaN,-4.223006,-1.503177,8.533161,0.110728,0.284021,-0.178622,-0.047866,0.098470,0.035425,0.043614,0.216073,0.075723,-0.972459,-8.164504,25.267774,-176.697079
52038,NaN,-4.231477,-1.503691,8.528873,0.111046,0.284681,-0.178645,-0.001761,0.086763,0.040420,0.043723,0.216499,0.075660,-0.972364,-8.153699,25.318369,-176.685189
52039,NaN,-4.293283,-1.452253,8.518948,0.169662,0.242153,-0.167670,0.036878,0.057369,0.055614,0.043873,0.216790,0.075389,-0.972313,-8.116083,25.352857,-176.661302
52040,NaN,-4.327639,-1.374195,8.560277,0.188209,0.167442,-0.126009,0.068984,0.017818,0.059878,0.044025,0.216904,0.074946,-0.972316,-8.056865,25.365911,-176.631009
52041,NaN,-4.252543,-1.246534,8.685025,0.082391,0.027004,-0.062810,0.084782,-0.010299,0.066162,0.044200,0.216881,0.074416,-0.972353,-7.986354,25.362807,-176.594431
52042,NaN,-4.340005,-1.155803,8.814383,0.118841,-0.067029,0.079039,0.094222,-0.028961,0.080296,0.044441,0.216781,0.073817,-0.972410,-7.905417,25.350890,-176.547265
52043,NaN,-4.333965,-1.027449,8.905273,0.093144,-0.196102,0.141993,0.086173,-0.045223,0.082849,0.044709,0.216594,0.073255,-0.972482,-7.828349,25.329185,-176.497194
52044,NaN,-4.210171,-1.036740,8.929282,-0.027013,-0.185809,0.111887,0.078731,-0.036400,0.077083,0.044956,0.216453,0.072734,-0.972541,-7.756938,25.312702,-176.451167
52045,NaN,-4.112695,-1.070634,8.903119,-0.107086,-0.143355,0.051086,0.061698,-0.009398,0.077597,0.045212,0.216433,0.072305,-0.972566,-7.696661,25.310820,-176.407518
52046,NaN,-4.148021,-1.103701,8.891622,-0.075827,-0.098618,0.059988,0.041994,0.014802,0.072550,0.045459,0.216530,0.071979,-0.972557,-7.649392,25.322967,-176.368545
52047,NaN,-4.176855,-1.111223,8.909882,-0.062109,-0.086296,0.089616,0.025102,0.045138,0.071389,0.045705,0.216765,0.071746,-0.972510,-7.613697,25.351518,-176.333382
52048,NaN,-4.297223,-1.112256,8.907435,0.040641,-0.073032,0.139129,0.019666,0.072270,0.069691,0.045940,0.217136,0.071545,-0.972431,-7.581978,25.396032,-176.301158
52049,NaN,-4.349421,-1.161042,8.963691,0.049796,-0.026772,0.217768,0.015059,0.087219,0.067809,0.046164,0.217571,0.071375,-0.972336,-7.554441,25.448179,-176.271702
52050,NaN,-4.464935,-1.199074,8.912650,0.161285,0.029179,0.226330,0.011303,0.083195,0.060778,0.046362,0.217990,0.071226,-0.972244,-7.530242,25.498197,-176.245841
52051,NaN,-4.490814,-1.245321,8.881279,0.183759,0.084189,0.214999,0.011576,0.074607,0.044171,0.046480,0.218355,0.071096,-0.972166,-7.510583,25.541385,-176.230143
52052,NaN,-4.540319,-1.315197,8.801044,0.246093,0.171418,0.172936,0.015132,0.064047,0.034115,0.046553,0.218671,0.070954,-0.972101,-7.490717,25.578537,-176.219211
52053,NaN,-4.532018,-1.369765,8.807426,0.224033,0.226739,0.181541,0.028355,0.040295,0.019486,0.046544,0.218865,0.070761,-0.972072,-7.466898,25.600381,-176.216181
52054,NaN,-4.537653,-1.414489,8.831092,0.210818,0.271748,0.210335,0.042893,0.014862,0.018940,0.046529,0.218944,0.070489,-0.972075,-7.433489,25.608476,-176.210897
52055,NaN,-4.449317,-1.417041,8.851377,0.122091,0.271538,0.190445,0.056509,-0.008488,0.015267,0.046486,0.218905,0.070152,-0.972110,-7.392946,25.602288,-176.206498
52056,NaN,-4.359535,-1.418436,8.872572,0.033229,0.271411,0.170562,0.069838,-0.017599,0.017710,0.046447,0.218832,0.069744,-0.972158,-7.343337,25.591828,-176.199326
52057,NaN,-4.291666,-1.383501,8.888757,-0.028656,0.238581,0.151485,0.075143,-0.023815,0.022208,0.046422,0.218725,0.069305,-0.972214,-7.289700,25.577430,-176.189326
52058,NaN,-4.318706,-1.313976,8.864013,0.016346,0.184304,0.132877,0.077748,-0.026046,0.026111,0.046422,0.218616,0.068848,-0.972272,-7.233045,25.562823,-176.175769
52059,NaN,-4.160949,-1.296490,8.831539,-0.108090,0.171132,0.033606,0.070913,-0.020281,0.024630,0.046413,0.218526,0.068429,-0.972322,-7.181314,25.550591,-176.164557
52060,NaN,-4.173439,-1.227194,8.858453,-0.098692,0.106841,0.055171,0.054369,-0.011463,0.024432,0.046419,0.218481,0.068089,-0.972355,-7.139024,25.544020,-176.153911
52061,NaN,-4.252351,-1.186964,8.870906,-0.026856,0.075905,0.095787,0.039812,-0.017064,0.018926,0.046415,0.218398,0.067828,-0.972393,-7.106784,25.533197,-176.146569
52062,NaN,-4.231870,-1.144170,8.831407,-0.022091,0.042565,0.046790,0.022520,-0.016451,0.004023,0.046363,0.218315,0.067665,-0.972425,-7.088161,25.522373,-176.147959
52063,NaN,-4.298172,-1.159916,8.886218,0.014005,0.056196,0.126186,0.016111,-0.002447,-0.005799,0.046260,0.218289,0.067549,-0.972444,-7.076711,25.518109,-176.157349
52064,NaN,-4.394102,-1.119912,8.879241,0.107974,0.025076,0.156815,0.014614,0.011691,-0.017103,0.046103,0.218333,0.067455,-0.972448,-7.069295,25.521822,-176.174283
52065,NaN,-4.468049,-1.120432,8.843174,0.188575,0.036752,0.156447,0.022877,0.020533,-0.020888,0.045911,0.218415,0.067328,-0.972447,-7.058840,25.529565,-176.194976
52066,NaN,-4.565764,-1.074507,8.869694,0.269221,-0.004587,0.217255,0.038625,0.022210,-0.023875,0.045693,0.218514,0.067127,-0.972449,-7.039890,25.538763,-176.216938
52067,NaN,-4.591813,-1.089913,8.854556,0.296316,0.017869,0.216655,0.054749,0.005670,-0.027447,0.045439,0.218529,0.066849,-0.972477,-7.012461,25.537606,-176.240607
52068,NaN,-4.584602,-1.106532,8.911382,0.265419,0.030634,0.266218,0.076490,-0.026256,-0.030943,0.045161,0.218398,0.066460,-0.972546,-6.972130,25.518748,-176.263330
52069,NaN,-4.561546,-1.061374,8.873446,0.270269,-0.002809,0.217227,0.082115,-0.055731,-0.028637,0.044892,0.218120,0.066036,-0.972650,-6.927297,25.482615,-176.283027
52070,NaN,-4.618065,-1.156996,8.909901,0.301668,0.097897,0.284387,0.097346,-0.079690,-0.019363,0.044664,0.217738,0.065521,-0.972781,-6.870102,25.434223,-176.294520
52071,NaN,-4.610252,-1.142450,8.949453,0.288751,0.088319,0.314560,0.119498,-0.101436,0.003446,0.044525,0.217256,0.064870,-0.972938,-6.793702,25.374313,-176.290629
52072,NaN,-4.269675,-0.976408,9.127088,-0.062893,-0.108183,0.310136,0.117848,-0.119738,0.022516,0.044489,0.216698,0.064200,-0.973109,-6.712190,25.306042,-176.273237
52073,NaN,-3.930504,-0.874178,9.226386,-0.387864,-0.229771,0.243952,0.110578,-0.108561,0.039243,0.044536,0.216191,0.063552,-0.973262,-6.631146,25.244451,-176.246483
52074,NaN,-3.949699,-0.736773,9.280672,-0.369634,-0.358976,0.287230,0.092471,-0.069496,0.068413,0.044738,0.215885,0.062968,-0.973359,-6.553591,25.207721,-176.203656
52075,NaN,-4.196536,-0.707369,9.243756,-0.124046,-0.356285,0.356677,0.068135,-0.034076,0.083388,0.045023,0.215745,0.062495,-0.973407,-6.487437,25.191339,-176.154682
52076,NaN,-4.262509,-0.608972,9.125320,-0.003561,-0.423348,0.268585,0.038762,0.000083,0.092741,0.045376,0.215773,0.062160,-0.973406,-6.436248,25.195658,-176.101924
52077,NaN,-4.255167,-0.596800,9.018704,0.032278,-0.414415,0.168638,0.012876,0.046698,0.085931,0.045708,0.216014,0.061972,-0.973349,-6.403513,25.225351,-176.057097
52078,NaN,-4.361092,-0.666992,8.957693,0.139415,-0.326382,0.166206,-0.010143,0.054208,0.071057,0.045991,0.216288,0.061911,-0.973279,-6.387698,25.259044,-176.021817
52079,NaN,-4.468987,-0.681570,8.747611,0.317820,-0.274855,0.025022,-0.034439,0.032920,0.055479,0.046230,0.216442,0.061983,-0.973229,-6.389784,25.278928,-175.995153
52080,NaN,-4.705613,-0.886211,8.515677,0.603136,-0.025267,-0.061764,-0.029189,-0.023183,0.034374,0.046382,0.216323,0.062036,-0.973244,-6.392389,25.266227,-175.977203
52081,NaN,-4.882826,-0.965849,8.531264,0.755200,0.065220,0.035293,0.028888,-0.141547,0.018760,0.046427,0.215631,0.061799,-0.973411,-6.362831,25.184426,-175.961382
52082,NaN,-5.120482,-1.013263,8.691198,0.920762,0.116072,0.282934,0.123536,-0.330696,0.027047,0.046472,0.214049,0.061045,-0.973805,-6.270854,24.996178,-175.926903
52083,NaN,-5.318538,-1.017252,8.790319,1.104186,0.142885,0.451393,0.221940,-0.600496,0.057569,0.046639,0.211178,0.059720,-0.974506,-6.107589,24.655302,-175.855836
52084,NaN,-4.795669,-1.023091,9.006009,0.609608,0.121008,0.422862,0.297445,-0.784393,0.083675,0.046910,0.207440,0.057952,-0.975402,-5.889873,24.211814,-175.757564
52085,NaN,-4.365558,-1.298436,9.059412,0.244458,0.402863,0.316190,0.369417,-0.858237,0.134592,0.047373,0.203362,0.055764,-0.976366,-5.618318,23.727951,-175.625557
52086,NaN,-3.627198,-1.590664,8.650886,-0.228639,0.746865,-0.330395,0.462921,-0.785039,0.236662,0.048219,0.199695,0.053029,-0.977233,-5.271393,23.291619,-175.437609
52087,NaN,-3.309121,-1.308714,8.059231,-0.193878,0.575871,-1.023809,0.511445,-0.808390,0.282105,0.049242,0.195925,0.050009,-0.978104,-4.888376,22.842303,-175.223948
52088,NaN,-2.607242,-0.602540,9.309565,-1.173594,-0.274171,-0.201447,0.323843,-0.548168,0.129242,0.049637,0.193348,0.048116,-0.978692,-4.656657,22.534091,-175.121398
52089,NaN,-2.501979,-0.416865,10.378511,-1.613212,-0.553388,0.734273,0.221342,-0.232205,0.094199,0.049882,0.192274,0.046839,-0.978953,-4.499186,22.403553,-175.057587
52090,NaN,-3.469089,-0.366582,10.690377,-0.809559,-0.535490,1.390478,0.136927,-0.238761,0.099158,0.050239,0.191155,0.045968,-0.979195,-4.388800,22.270194,-174.990160
52091,NaN,-3.444991,-0.381704,10.283206,-0.658308,-0.457823,1.009278,0.100417,-0.245924,0.131037,0.050783,0.189991,0.045244,-0.979427,-4.292324,22.133172,-174.903682
52092,NaN,-3.002805,-0.414074,9.907498,-0.913095,-0.404992,0.499878,0.066196,-0.147201,0.188765,0.051624,0.189321,0.044656,-0.979540,-4.203646,22.055608,-174.785961
52093,NaN,-3.108869,-0.293126,9.560796,-0.668297,-0.467031,0.212036,0.027174,0.008704,0.182631,0.052433,0.189397,0.044307,-0.979498,-4.141881,22.066007,-174.679644
52094,NaN,-3.607973,-0.267694,9.281523,-0.111021,-0.414462,0.139783,-0.026969,0.148135,0.131493,0.053014,0.190135,0.044305,-0.979324,-4.124774,22.154490,-174.610753
52095,NaN,-3.841015,-0.401563,8.835309,0.232207,-0.215519,-0.175420,-0.058128,0.253986,0.080299,0.053348,0.191366,0.044535,-0.979055,-4.139582,22.300766,-174.578416
52096,NaN,-4.019929,-0.568236,8.493276,0.477480,-0.003339,-0.411071,-0.058998,0.296879,0.038660,0.053472,0.192803,0.044818,-0.978754,-4.164847,22.470442,-174.573408
52097,NaN,-4.353312,-0.745329,8.159048,0.861266,0.232149,-0.577906,-0.033456,0.269674,0.030245,0.053534,0.194106,0.044980,-0.978485,-4.177513,22.623618,-174.572783
52098,NaN,-4.509336,-0.868410,7.914933,1.062109,0.391855,-0.732337,0.005620,0.152863,0.003079,0.053453,0.194847,0.044941,-0.978344,-4.171720,22.709497,-174.583509
52099,NaN,-4.529340,-0.850312,7.961778,1.058049,0.371898,-0.681965,0.045538,0.008900,-0.014005,0.053280,0.194885,0.044690,-0.978358,-4.145158,22.711814,-174.598513
52100,NaN,-4.409150,-0.693984,8.160182,0.897616,0.190623,-0.556947,0.085770,-0.130355,-0.037777,0.052985,0.194253,0.044224,-0.978521,-4.098349,22.634295,-174.621726
52101,NaN,-4.121210,-0.553551,8.482717,0.545678,0.000320,-0.381385,0.100393,-0.228525,-0.063987,0.052567,0.193133,0.043690,-0.978789,-4.048170,22.498908,-174.657180
52102,NaN,-3.881635,-0.461715,8.713223,0.273846,-0.126213,-0.267555,0.100042,-0.274350,-0.073582,0.052113,0.191792,0.043151,-0.979101,-3.999170,22.337711,-174.696477
52103,NaN,-3.593256,-0.399879,8.894193,-0.024672,-0.221581,-0.214340,0.095272,-0.290167,-0.086886,0.051601,0.190363,0.042647,-0.979429,-3.956161,22.166235,-174.743590
52104,NaN,-3.475638,-0.345581,9.066719,-0.162687,-0.293755,-0.102278,0.090474,-0.288770,-0.078258,0.051136,0.188947,0.042155,-0.979748,-3.913312,21.996705,-174.785397
52105,NaN,-3.326195,-0.304719,9.239093,-0.331768,-0.355213,-0.000401,0.079158,-0.274074,-0.061603,0.050759,0.187597,0.041710,-0.980046,-3.873775,21.835477,-174.817765
52106,NaN,-3.158236,-0.265216,9.320633,-0.487794,-0.408213,0.011485,0.064360,-0.229201,-0.046010,0.050466,0.186473,0.041331,-0.980292,-3.839307,21.701268,-174.842192
52107,NaN,-3.100971,-0.300248,9.349687,-0.536437,-0.374282,0.020671,0.046273,-0.157972,-0.025940,0.050270,0.185690,0.041044,-0.980463,-3.812196,21.607812,-174.857546
52108,NaN,-3.170768,-0.349280,9.456153,-0.504651,-0.326218,0.148914,0.012559,-0.067982,-0.014494,0.050145,0.185349,0.040929,-0.980539,-3.802607,21.566959,-174.869353
52109,NaN,-3.243424,-0.478483,9.468238,-0.454765,-0.193250,0.194916,-0.020597,0.044196,-0.017707,0.050011,0.185542,0.041012,-0.980505,-3.814981,21.589398,-174.887942
52110,NaN,-3.364810,-0.657439,9.434853,-0.360240,-0.006380,0.219300,-0.044662,0.161615,-0.017027,0.049880,0.186311,0.041238,-0.980357,-3.842256,21.679643,-174.910631
52111,NaN,-3.509550,-0.781330,9.386580,-0.243488,0.125452,0.235209,-0.068189,0.273289,-0.028131,0.049692,0.187613,0.041621,-0.980102,-3.887878,21.832625,-174.945208
52112,NaN,-3.704652,-0.915560,9.337606,-0.091065,0.268675,0.270615,-0.079796,0.363353,-0.030330,0.049486,0.189358,0.042082,-0.979757,-3.941709,22.037594,-174.984866
52113,NaN,-3.718565,-0.976124,9.120428,-0.041843,0.340116,0.078985,-0.076567,0.399678,-0.020072,0.049319,0.191278,0.042530,-0.979373,-3.992664,22.263081,-175.020270
52114,NaN,-3.760297,-0.911765,9.055473,-0.010794,0.273813,0.030965,-0.094073,0.417746,-0.030411,0.049114,0.193284,0.043074,-0.978966,-4.056119,22.499061,-175.062914
52115,NaN,-3.854120,-0.872992,9.030775,0.047341,0.230862,0.042034,-0.105042,0.470403,-0.036029,0.048880,0.195538,0.043693,-0.978502,-4.128924,22.764242,-175.111989
52116,NaN,-4.094409,-0.910788,8.988917,0.235139,0.276132,0.100063,-0.108062,0.468747,-0.030796,0.048675,0.197788,0.044318,-0.978032,-4.202073,23.029225,-175.158025
52117,NaN,-4.346880,-0.805321,8.954738,0.449158,0.179287,0.162141,-0.110712,0.424507,-0.028477,0.048493,0.199816,0.044947,-0.977600,-4.276223,23.268384,-175.201218
52118,NaN,-4.441083,-0.735599,8.941158,0.511493,0.103837,0.184118,-0.110395,0.352210,-0.031920,0.048312,0.201493,0.045556,-0.977236,-4.349570,23.466655,-175.243308
52119,NaN,-4.423235,-0.776103,8.877657,0.485090,0.135548,0.123428,-0.100834,0.290563,-0.033501,0.048126,0.202866,0.046108,-0.976936,-4.417344,23.628973,-175.284019
52120,NaN,-4.419703,-0.767713,8.879204,0.458472,0.114501,0.124117,-0.086794,0.219326,-0.043549,0.047893,0.203897,0.046582,-0.976710,-4.477946,23.750743,-175.327627
52121,NaN,-4.345397,-0.772946,8.955375,0.342928,0.095028,0.164888,-0.073298,0.158604,-0.048564,0.047635,0.204628,0.046983,-0.976551,-4.531461,23.836931,-175.371704
52122,NaN,-4.336404,-0.730678,8.974974,0.320611,0.041531,0.176503,-0.057877,0.092032,-0.050565,0.047368,0.205042,0.047292,-0.976462,-4.574967,23.885638,-175.413637
52123,NaN,-4.290254,-0.700110,8.999291,0.267232,-0.001231,0.177921,-0.038832,0.035525,-0.039633,0.047148,0.205182,0.047486,-0.976433,-4.604117,23.901882,-175.446137
52124,NaN,-4.199439,-0.665418,8.989417,0.191290,-0.045270,0.129598,-0.028390,0.001698,-0.037602,0.046935,0.205166,0.047616,-0.976441,-4.625643,23.899582,-175.475571
52125,NaN,-4.054567,-0.592293,9.008343,0.061726,-0.132704,0.082723,-0.009403,-0.022204,-0.032504,0.046733,0.205033,0.047646,-0.976477,-4.634948,23.883167,-175.500710
52126,NaN,-3.935031,-0.542332,8.980125,-0.027769,-0.188431,0.004897,-0.000117,-0.022897,-0.034441,0.046512,0.204904,0.047629,-0.976515,-4.638953,23.866945,-175.526952
52127,NaN,-3.778725,-0.537059,8.941392,-0.152620,-0.200933,-0.094045,0.006402,0.000503,-0.045423,0.046226,0.204882,0.047601,-0.976535,-4.642918,23.862894,-175.561301
52128,NaN,-3.883572,-0.514006,8.973725,-0.067675,-0.220486,-0.023873,0.010269,0.018937,-0.053046,0.045894,0.204955,0.047562,-0.976537,-4.646513,23.869712,-175.601232
52129,NaN,-4.053567,-0.477227,8.934265,0.106419,-0.241861,0.006194,0.002929,0.008218,-0.066280,0.045507,0.204965,0.047573,-0.976553,-4.657899,23.869092,-175.648998
52130,NaN,-4.053128,-0.486365,8.900618,0.119950,-0.231247,-0.024044,-0.001981,-0.023956,-0.083098,0.045051,0.204819,0.047615,-0.976603,-4.675205,23.849991,-175.705457
52131,NaN,-3.900991,-0.578872,8.914867,-0.030926,-0.154457,-0.065746,-0.010646,-0.024684,-0.081842,0.044610,0.204661,0.047701,-0.976652,-4.697588,23.829828,-175.761244
52132,NaN,-3.962957,-0.585874,9.040210,-0.021458,-0.160531,0.074043,-0.015515,-0.021228,-0.073705,0.044214,0.204527,0.047800,-0.976693,-4.720286,23.812687,-175.811880
52133,NaN,-3.948271,-0.550017,9.139104,-0.065825,-0.211750,0.155533,-0.028149,-0.043681,-0.063105,0.043887,0.204278,0.047948,-0.976753,-4.747532,23.782520,-175.854956
52134,NaN,-3.759669,-0.627271,9.325088,-0.314702,-0.173560,0.254919,-0.050521,-0.030471,-0.077319,0.043511,0.204090,0.048220,-0.976795,-4.790933,23.759882,-175.907302
52135,NaN,-3.570120,-0.889119,9.401915,-0.544504,0.058532,0.268601,-0.052820,0.038764,-0.054416,0.043232,0.204240,0.048498,-0.976763,-4.831832,23.777150,-175.949232
52136,NaN,-3.907739,-0.856249,9.276201,-0.187618,0.057381,0.287461,-0.028877,0.064842,0.000408,0.043191,0.204540,0.048605,-0.976696,-4.845310,23.812570,-175.958087
52137,NaN,-4.127168,-0.871194,8.999725,0.115783,0.116474,0.125148,-0.003653,0.034682,0.016398,0.043208,0.204698,0.048569,-0.976664,-4.840148,23.830912,-175.955635
52138,NaN,-3.701597,-0.918803,8.999185,-0.281062,0.136760,-0.043673,-0.008634,0.043742,0.022305,0.043256,0.204905,0.048550,-0.976620,-4.836037,23.855346,-175.949977
52139,NaN,-3.942606,-0.914247,8.912970,-0.030870,0.157979,-0.025190,-0.012724,0.045443,0.041885,0.043405,0.205119,0.048535,-0.976569,-4.829860,23.881062,-175.932177
52140,NaN,-3.972600,-0.792857,8.924778,-0.000296,0.038698,-0.011650,-0.015214,0.050887,0.036274,0.043529,0.205363,0.048536,-0.976512,-4.826193,23.910246,-175.917803
52141,NaN,-4.019494,-0.801922,8.924509,0.035860,0.050573,0.007823,-0.020849,0.068527,0.035601,0.043649,0.205687,0.048572,-0.976437,-4.826735,23.948836,-175.905134
52142,NaN,-4.152614,-0.737196,8.981829,0.133984,-0.011926,0.109148,-0.022314,0.078813,0.037991,0.043782,0.206066,0.048612,-0.976349,-4.827282,23.994036,-175.891198
52143,NaN,-4.230073,-0.685296,8.952666,0.214210,-0.055606,0.110235,-0.023273,0.073697,0.042086,0.043936,0.206416,0.048655,-0.976266,-4.827655,24.035891,-175.874741
52144,NaN,-4.253039,-0.682057,8.931454,0.236688,-0.055429,0.100199,-0.024343,0.072439,0.040654,0.044085,0.206764,0.048700,-0.976183,-4.828528,24.077574,-175.858824
52145,NaN,-4.234010,-0.670282,8.908390,0.223459,-0.066556,0.070691,-0.029612,0.058929,0.040765,0.044242,0.207040,0.048772,-0.976114,-4.832527,24.110934,-175.842405
52146,NaN,-4.274393,-0.718021,8.862148,0.268640,-0.012323,0.048922,-0.030652,0.043407,0.033416,0.044367,0.207243,0.048848,-0.976061,-4.838187,24.135687,-175.829815
52147,NaN,-4.214363,-0.752298,8.830426,0.220050,0.019877,-0.001754,-0.030996,0.022893,0.018814,0.044427,0.207338,0.048941,-0.976034,-4.847803,24.147415,-175.825220
52148,NaN,-4.200131,-0.758108,8.847324,0.198031,0.021040,0.008276,-0.033869,0.016712,0.015056,0.044473,0.207406,0.049047,-0.976012,-4.859438,24.156067,-175.822527
52149,NaN,-4.242385,-0.762933,8.882563,0.220844,0.022999,0.058003,-0.024288,0.011890,0.010379,0.044488,0.207446,0.049114,-0.975999,-4.867131,24.161106,-175.822628
52150,NaN,-4.202157,-0.762110,8.846019,0.198602,0.022301,0.008262,-0.023968,0.002426,-0.002264,0.044442,0.207442,0.049186,-0.975999,-4.877210,24.160787,-175.830069
52151,NaN,-4.178758,-0.787609,8.919953,0.145782,0.036176,0.067866,-0.016607,-0.008235,-0.008080,0.044364,0.207381,0.049230,-0.976013,-4.884790,24.153437,-175.840646
52152,NaN,-4.151284,-0.770749,8.934643,0.119064,0.015271,0.068641,-0.010053,-0.031455,-0.010859,0.044271,0.207214,0.049236,-0.976052,-4.888358,24.133385,-175.851559
52153,NaN,-4.071265,-0.722857,8.944041,0.051934,-0.038994,0.040706,-0.011495,-0.046133,-0.013734,0.044169,0.206967,0.049252,-0.976108,-4.893616,24.104122,-175.863639
52154,NaN,-4.026105,-0.715633,8.943572,0.016311,-0.049517,0.021255,-0.011234,-0.037782,-0.013869,0.044067,0.206768,0.049266,-0.976155,-4.898505,24.080325,-175.875850
52155,NaN,-4.012681,-0.682957,9.008804,-0.014776,-0.090664,0.072562,-0.004918,-0.026530,-0.019130,0.043927,0.206617,0.049260,-0.976193,-4.901787,24.061986,-175.892346
52156,NaN,-4.025741,-0.668479,9.059727,-0.019036,-0.110170,0.123087,-0.006917,-0.018693,-0.010527,0.043830,0.206513,0.049254,-0.976220,-4.903739,24.049207,-175.903721
52157,NaN,-4.024007,-0.663594,9.094213,-0.032065,-0.119363,0.153376,-0.009418,-0.007920,-0.006253,0.043753,0.206455,0.049260,-0.976235,-4.906718,24.042122,-175.913160
52158,NaN,-4.017087,-0.696204,9.082439,-0.036026,-0.086197,0.142395,-0.006826,-0.008310,0.000930,0.043710,0.206404,0.049244,-0.976249,-4.905927,24.035842,-175.917781
52159,NaN,-4.038631,-0.655410,9.110626,-0.022637,-0.128387,0.173634,-0.009724,0.001534,0.006398,0.043692,0.206396,0.049241,-0.976252,-4.906064,24.034773,-175.919819
52160,NaN,-4.020433,-0.745509,9.108084,-0.048279,-0.040107,0.170945,-0.014583,0.013890,0.010595,0.043697,0.206453,0.049257,-0.976238,-4.907712,24.041619,-175.919889
52161,NaN,-4.038543,-0.742602,9.089197,-0.025690,-0.040015,0.160904,-0.014998,0.027212,0.017723,0.043734,0.206572,0.049273,-0.976211,-4.908549,24.055764,-175.916226
52162,NaN,-4.059443,-0.776028,9.163874,-0.042737,-0.014735,0.239966,-0.022723,0.031620,0.014864,0.043763,0.206715,0.049328,-0.976176,-4.914170,24.072918,-175.914549
52163,NaN,-4.047026,-0.787385,9.146233,-0.051268,-0.003723,0.219727,-0.029162,0.036722,0.017241,0.043810,0.206877,0.049417,-0.976135,-4.923452,24.092468,-175.911701
52164,NaN,-4.051446,-0.795383,9.110278,-0.037669,0.006790,0.189440,-0.030864,0.047588,0.015839,0.043850,0.207097,0.049514,-0.976082,-4.933858,24.118785,-175.910141
52165,NaN,-4.065955,-0.825522,9.078013,-0.019219,0.039328,0.168389,-0.029434,0.049799,0.016072,0.043889,0.207322,0.049608,-0.976028,-4.943885,24.145744,-175.908737
52166,NaN,-4.036980,-0.805155,8.983586,-0.010612,0.025791,0.069089,-0.038488,0.057080,0.014551,0.043929,0.207587,0.049747,-0.975963,-4.959197,24.177456,-175.908379
52167,NaN,-4.052554,-0.841660,8.916882,0.021209,0.068101,0.017739,-0.033001,0.057552,0.015620,0.043967,0.207849,0.049860,-0.975899,-4.971560,24.208818,-175.907693
52168,NaN,-4.045252,-0.901243,8.924065,-0.000183,0.123921,0.026005,-0.026072,0.060225,0.016930,0.044004,0.208131,0.049936,-0.975834,-4.979232,24.242414,-175.906154
52169,NaN,-4.073548,-0.878832,8.847545,0.053281,0.111071,-0.033627,-0.019664,0.056904,0.017848,0.044039,0.208394,0.049982,-0.975774,-4.983369,24.273518,-175.904047
52170,NaN,-4.096942,-0.917733,8.887206,0.049660,0.146153,0.015118,-0.007989,0.043910,0.016677,0.044063,0.208601,0.049967,-0.975729,-4.980419,24.297789,-175.901495
52171,NaN,-4.179431,-0.880936,8.897751,0.121132,0.114500,0.055741,0.000644,0.024988,0.020032,0.044095,0.208713,0.049904,-0.975707,-4.971638,24.310783,-175.896276
52172,NaN,-4.196070,-0.864377,8.947308,0.116886,0.095030,0.106273,0.008312,-0.000533,0.012080,0.044087,0.208705,0.049804,-0.975714,-4.959519,24.309452,-175.894571
52173,NaN,-4.213859,-0.767905,8.984045,0.129585,-0.001742,0.139325,0.010715,-0.016382,0.006219,0.044052,0.208614,0.049698,-0.975741,-4.947601,24.298147,-175.895752
52174,NaN,-4.175997,-0.714406,9.063341,0.071318,-0.064196,0.191526,0.013493,-0.029527,0.002460,0.043997,0.208464,0.049575,-0.975781,-4.934339,24.279770,-175.898698
52175,NaN,-4.169033,-0.647963,9.140952,0.044261,-0.137653,0.253930,0.004867,-0.033799,-0.002911,0.043928,0.208284,0.049504,-0.975827,-4.927737,24.258073,-175.904659
52176,NaN,-4.104620,-0.583533,9.200689,-0.027677,-0.211798,0.276687,-0.007586,-0.036911,-0.005310,0.043860,0.208091,0.049491,-0.975871,-4.928387,24.235102,-175.911999
52177,NaN,-4.064370,-0.635809,9.157660,-0.049189,-0.157968,0.225177,-0.017188,-0.021360,-0.001283,0.043818,0.207968,0.049527,-0.975898,-4.934274,24.220586,-175.917611
52178,NaN,-3.975920,-0.669754,9.039769,-0.084726,-0.117798,0.084428,-0.027017,0.005486,-0.001702,0.043780,0.207978,0.049615,-0.975893,-4.946078,24.222003,-175.924657
52179,NaN,-3.988363,-0.712158,8.940600,-0.039506,-0.065823,0.002741,-0.033067,0.034722,0.001497,0.043755,0.208126,0.049739,-0.975856,-4.961595,24.239635,-175.931566
52180,NaN,-4.043738,-0.751983,8.910280,0.014759,-0.022181,0.001062,-0.037126,0.057902,-0.000618,0.043719,0.208390,0.049886,-0.975794,-4.980070,24.271023,-175.940851
52181,NaN,-4.100479,-0.792186,8.879205,0.069148,0.021385,-0.000627,-0.041748,0.066156,0.000796,0.043691,0.208689,0.050060,-0.975722,-5.001461,24.306558,-175.949933
52182,NaN,-4.128947,-0.771934,8.802316,0.122443,0.008438,-0.060263,-0.039784,0.061879,-0.001230,0.043654,0.208972,0.050222,-0.975655,-5.021746,24.340159,-175.959855
52183,NaN,-4.175562,-0.789581,8.767485,0.172054,0.029874,-0.071175,-0.033426,0.051377,0.006913,0.043651,0.209201,0.050345,-0.975600,-5.036475,24.367560,-175.964321
52184,NaN,-4.179742,-0.797784,8.731365,0.185665,0.040254,-0.101491,-0.029111,0.036553,0.008900,0.043656,0.209366,0.050438,-0.975559,-5.047437,24.387211,-175.966864
52185,NaN,-4.197824,-0.790159,8.746069,0.194877,0.030481,-0.081249,-0.024243,0.015228,0.008624,0.043661,0.209422,0.050507,-0.975544,-5.055643,24.394066,-175.968268
52186,NaN,-4.181859,-0.783982,8.831782,0.146123,0.012323,-0.010573,-0.017095,-0.003806,0.002920,0.043642,0.209390,0.050541,-0.975549,-5.060410,24.390454,-175.971434
52187,NaN,-4.164810,-0.782862,8.884156,0.110862,0.003851,0.029794,-0.009424,-0.015420,0.013015,0.043661,0.209301,0.050526,-0.975569,-5.058287,24.380039,-175.968387
52188,NaN,-4.210510,-0.747998,8.966844,0.124309,-0.036281,0.120862,-0.000052,-0.016474,0.023241,0.043719,0.209217,0.050451,-0.975588,-5.047703,24.370170,-175.958857
52189,NaN,-4.183882,-0.728595,8.981624,0.097609,-0.057115,0.121723,0.003637,-0.010207,0.021352,0.043764,0.209158,0.050365,-0.975603,-5.036064,24.363149,-175.950879
52190,NaN,-4.215025,-0.707914,9.013918,0.115551,-0.077167,0.162231,0.008339,-0.000900,0.024190,0.043818,0.209152,0.050253,-0.975608,-5.020801,24.362257,-175.941260
52191,NaN,-4.230988,-0.697028,9.029922,0.124752,-0.086913,0.182485,0.001043,0.002699,0.016829,0.043839,0.209154,0.050187,-0.975609,-5.012112,24.362373,-175.936829
52192,NaN,-4.234147,-0.739122,9.089551,0.099010,-0.051079,0.241259,-0.007005,0.000893,0.005257,0.043813,0.209149,0.050168,-0.975613,-5.010548,24.361513,-175.939522
52193,NaN,-4.211897,-0.775310,9.095397,0.073090,-0.017333,0.240262,-0.010526,-0.003848,0.002148,0.043777,0.209113,0.050173,-0.975622,-5.012132,24.357157,-175.943929
52194,NaN,-4.189392,-0.811716,9.101335,0.047055,0.016482,0.239262,-0.009460,-0.004349,0.000286,0.043731,0.209080,0.050170,-0.975631,-5.013130,24.353099,-175.949438
52195,NaN,-4.109803,-0.854642,9.055546,-0.010247,0.059225,0.168304,-0.007647,-0.010165,0.003262,0.043699,0.209015,0.050158,-0.975647,-5.012633,24.345193,-175.952801
52196,NaN,-4.093412,-0.870275,9.005890,-0.005485,0.079955,0.117722,-0.002948,-0.011579,0.006726,0.043681,0.208950,0.050116,-0.975664,-5.008108,24.337309,-175.953678
52197,NaN,-4.092515,-0.864943,9.040170,-0.018502,0.070904,0.148040,-0.008653,-0.002486,-0.002090,0.043622,0.208920,0.050116,-0.975673,-5.009742,24.333519,-175.960816
52198,NaN,-4.075985,-0.869681,9.058340,-0.040492,0.072283,0.158103,-0.009177,-0.008479,-0.002495,0.043561,0.208867,0.050114,-0.975687,-5.011204,24.326947,-175.968108
52199,NaN,-4.103199,-0.797611,9.099018,-0.023258,-0.002353,0.200504,-0.011714,-0.008409,0.002418,0.043528,0.208808,0.050123,-0.975701,-5.013293,24.320001,-175.972095
52200,NaN,-4.124253,-0.757180,9.127529,-0.010160,-0.044474,0.231838,-0.011887,-0.009932,0.007415,0.043520,0.208749,0.050124,-0.975714,-5.013742,24.313055,-175.972933
52201,NaN,-4.060678,-0.796269,9.063673,-0.045219,-0.002401,0.150810,-0.011106,-0.006300,0.008334,0.043515,0.208703,0.050124,-0.975724,-5.014004,24.307609,-175.973330
52202,NaN,-4.019617,-0.793752,9.027774,-0.067533,-0.003080,0.101116,-0.008528,0.004002,0.014901,0.043533,0.208715,0.050103,-0.975722,-5.010884,24.308978,-175.970674
52203,NaN,-4.052318,-0.786433,8.991406,-0.022726,-0.003850,0.080977,-0.011381,0.008551,0.010494,0.043535,0.208741,0.050105,-0.975716,-5.011083,24.312117,-175.970534
52204,NaN,-3.987550,-0.777409,8.901005,-0.045383,-0.006633,-0.028480,-0.013074,0.019433,0.009115,0.043532,0.208826,0.050118,-0.975697,-5.012460,24.322059,-175.971513
