// General information: 
//  MT Manager version: 2019.0.1 
//  XDA version: 2019.0.1 build 2740 rev 84096 built on 2019-01-30
// Device information: 
//  DeviceId: 00B4381A
//  ProductCode: MTW2-3A7G6
//  Firmware Version: 4.3.4
//  Hardware Version: 1.1.0
// Device settings: 
//  Filter Profile: human(46.1)
//  Option Flags: Orientation Smoother Disabled, AHS Disabled, ICC Disabled
// Coordinate system: ENU
PacketCounter,SampleTimeFine,Acc_X,Acc_Y,Acc_Z,FreeAcc_E,FreeAcc_N,FreeAcc_U,Gyr_X,Gyr_Y,Gyr_Z,Quat_q0,Quat_q1,Quat_q2,Quat_q3,Roll,Pitch,Yaw
11971,NaN,-0.021666,9.532971,-0.117224,1.230695,0.617885,-0.378954,-0.128472,0.201728,0.107266,0.308074,0.210326,-0.664217,-0.647819,88.313238,-7.859772,-136.765084
11972,NaN,-0.019053,9.567770,-0.064762,1.210236,0.655858,-0.344216,-0.101020,0.167492,0.095267,0.308985,0.210436,-0.663767,-0.647811,88.249278,-7.905671,-136.669208
11973,NaN,0.011030,9.550856,-0.024094,1.169370,0.663698,-0.356915,-0.075682,0.123833,0.083083,0.309689,0.210477,-0.663449,-0.647787,88.202274,-7.945882,-136.598781
11974,NaN,0.106077,9.555100,0.036679,1.067743,0.644441,-0.338662,-0.048041,0.069284,0.069047,0.310133,0.210437,-0.663294,-0.647746,88.176457,-7.978391,-136.560080
11975,NaN,0.251254,9.556414,0.077586,0.940576,0.577112,-0.316560,-0.019891,0.026593,0.051299,0.310352,0.210356,-0.663274,-0.647688,88.169282,-8.001923,-136.546412
11976,NaN,0.379520,9.573800,0.171472,0.788111,0.561819,-0.278836,0.005147,-0.014352,0.031696,0.310342,0.210252,-0.663382,-0.647616,88.180742,-8.014558,-136.556755
11977,NaN,0.447016,9.588508,0.226266,0.702521,0.559418,-0.253188,0.028458,-0.058118,0.001670,0.310067,0.210138,-0.663597,-0.647564,88.208255,-8.011054,-136.592982
11978,NaN,0.431650,9.611264,0.243560,0.699465,0.586976,-0.232069,0.053533,-0.126719,-0.022561,0.309457,0.209925,-0.663979,-0.647534,88.256620,-7.994593,-136.669289
11979,NaN,0.591830,9.608687,0.238678,0.579899,0.478123,-0.212207,0.065495,-0.207778,-0.021869,0.308570,0.209462,-0.664520,-0.647552,88.317438,-7.979982,-136.792458
11980,NaN,0.892929,9.613968,0.234460,0.357964,0.277317,-0.165116,0.077441,-0.281241,-0.007053,0.307471,0.208733,-0.665232,-0.647578,88.391829,-7.974783,-136.957830
11981,NaN,1.121483,9.639067,0.212966,0.201338,0.116730,-0.109053,0.080494,-0.319045,-0.010381,0.306234,0.207895,-0.666003,-0.647643,88.470114,-7.968109,-137.145120
11982,NaN,1.305478,9.672816,0.261171,0.029224,0.039321,-0.048803,0.080722,-0.338823,-0.015647,0.304911,0.207012,-0.666801,-0.647728,88.550974,-7.958401,-137.343903
11983,NaN,1.451204,9.627480,0.311172,-0.126297,-0.016513,-0.072309,0.073904,-0.330732,-0.020541,0.303606,0.206159,-0.667554,-0.647838,88.626383,-7.945547,-137.538067
11984,NaN,1.493738,9.600587,0.329253,-0.183308,-0.025461,-0.092777,0.074564,-0.316875,-0.028084,0.302320,0.205378,-0.668282,-0.647936,88.701888,-7.927893,-137.724284
11985,NaN,1.558706,9.622652,0.338771,-0.245409,-0.052421,-0.061956,0.069258,-0.310167,-0.031091,0.301054,0.204618,-0.668974,-0.648053,88.772890,-7.908262,-137.906641
11986,NaN,1.653596,9.646267,0.365970,-0.341014,-0.085742,-0.025189,0.066013,-0.299165,-0.024194,0.299847,0.203868,-0.669648,-0.648152,88.841955,-7.892164,-138.082507
11987,NaN,1.662160,9.705991,0.436037,-0.396433,-0.026884,0.036235,0.057073,-0.291810,-0.017131,0.298698,0.203101,-0.670283,-0.648267,88.904375,-7.879937,-138.254030
11988,NaN,1.706226,9.744767,0.414716,-0.419169,-0.061423,0.079947,0.051215,-0.287971,-0.019184,0.297559,0.202347,-0.670895,-0.648394,88.963979,-7.866205,-138.423321
11989,NaN,1.853211,9.771640,0.389786,-0.516821,-0.167430,0.125931,0.047407,-0.271870,-0.012200,0.296501,0.201612,-0.671471,-0.648510,89.019173,-7.856303,-138.583229
11990,NaN,1.948966,9.807356,0.350293,-0.565309,-0.249950,0.173471,0.038020,-0.236161,-0.004156,0.295597,0.200956,-0.671976,-0.648604,89.067040,-7.850365,-138.722378
11991,NaN,1.977407,9.821481,0.292327,-0.553007,-0.305445,0.190210,0.022993,-0.195453,-0.010164,0.294827,0.200425,-0.672360,-0.648721,89.102144,-7.840752,-138.838057
11992,NaN,1.940631,9.795644,0.318724,-0.550922,-0.259871,0.159837,0.005914,-0.153406,-0.008140,0.294219,0.200002,-0.672633,-0.648844,89.125053,-7.831630,-138.929372
11993,NaN,1.976298,9.762377,0.291574,-0.566736,-0.303908,0.131217,-0.003358,-0.109282,0.000460,0.293800,0.199675,-0.672815,-0.648947,89.138213,-7.827348,-138.995119
11994,NaN,1.932110,9.789618,0.261597,-0.512934,-0.294399,0.151666,-0.012183,-0.067147,0.003047,0.293536,0.199468,-0.672913,-0.649028,89.143929,-7.823850,-139.036449
11995,NaN,1.882011,9.792269,0.281878,-0.488653,-0.246166,0.147763,-0.023041,-0.022654,0.011719,0.293465,0.199355,-0.672914,-0.649093,89.138963,-7.825347,-139.052006
11996,NaN,1.734913,9.771737,0.267259,-0.370432,-0.164302,0.107191,-0.034667,0.001873,0.008722,0.293475,0.199320,-0.672844,-0.649173,89.126357,-7.824507,-139.053374
11997,NaN,1.602338,9.787871,0.224680,-0.239843,-0.110866,0.104498,-0.034436,0.015116,0.014372,0.293551,0.199303,-0.672756,-0.649235,89.111875,-7.827260,-139.047069
11998,NaN,1.435614,9.831139,0.240774,-0.118659,0.011525,0.124920,-0.037420,0.005808,0.019335,0.293611,0.199241,-0.672681,-0.649304,89.097368,-7.832465,-139.046066
11999,NaN,1.223300,9.782914,0.242113,0.036913,0.145012,0.048250,-0.052274,-0.012665,0.023758,0.293642,0.199077,-0.672585,-0.649440,89.074841,-7.840864,-139.055740
12000,NaN,1.127765,9.765711,0.176697,0.153027,0.154225,0.017113,-0.062351,-0.047101,0.027679,0.293576,0.198778,-0.672515,-0.649633,89.050215,-7.851345,-139.085251
12001,NaN,1.090960,9.698423,0.118801,0.215512,0.126809,-0.055577,-0.075468,-0.088791,0.032626,0.293403,0.198302,-0.672465,-0.649910,89.020411,-7.865540,-139.138853
12002,NaN,1.034269,9.694976,0.091331,0.280755,0.140008,-0.067321,-0.082196,-0.121482,0.033931,0.293126,0.197712,-0.672445,-0.650234,88.990310,-7.880371,-139.211309
12003,NaN,0.985604,9.769412,0.043206,0.362785,0.137973,-0.001264,-0.085309,-0.152014,0.034097,0.292755,0.197011,-0.672456,-0.650603,88.959928,-7.896072,-139.301447
12004,NaN,0.900122,9.817868,0.026687,0.448409,0.181267,0.034522,-0.086989,-0.184674,0.023246,0.292235,0.196244,-0.672502,-0.651021,88.932155,-7.905522,-139.410553
12005,NaN,0.882138,9.947150,0.023863,0.483960,0.196428,0.159861,-0.101401,-0.228437,0.020834,0.291578,0.195316,-0.672557,-0.651537,88.898718,-7.914489,-139.545021
12006,NaN,0.794399,10.011274,0.153626,0.479767,0.351438,0.213607,-0.123189,-0.277998,0.021244,0.290773,0.194197,-0.672618,-0.652169,88.857676,-7.923968,-139.708119
12007,NaN,0.820881,9.993785,0.195006,0.438841,0.359385,0.200597,-0.132875,-0.342041,0.036140,0.289812,0.192802,-0.672748,-0.652876,88.815330,-7.943132,-139.908103
12008,NaN,0.914421,9.944175,0.227660,0.350068,0.316705,0.164875,-0.140256,-0.394196,0.048691,0.288720,0.191186,-0.672943,-0.653633,88.773872,-7.969969,-140.138076
12009,NaN,1.049633,9.886086,0.185934,0.276739,0.190869,0.125017,-0.147520,-0.427965,0.057159,0.287551,0.189416,-0.673164,-0.654436,88.730194,-8.002469,-140.387489
12010,NaN,1.073428,9.768683,0.137386,0.285384,0.126979,0.010790,-0.151850,-0.451102,0.070153,0.286346,0.187523,-0.673417,-0.655249,88.686910,-8.042677,-140.650097
12011,NaN,1.028433,9.717614,0.140030,0.322769,0.151542,-0.046309,-0.146932,-0.491750,0.080756,0.285034,0.185464,-0.673745,-0.656069,88.649065,-8.089867,-140.936090
12012,NaN,1.168560,9.712009,0.122289,0.236274,0.049476,-0.032844,-0.140168,-0.524426,0.091910,0.283639,0.183272,-0.674152,-0.656871,88.618851,-8.143877,-141.240831
12013,NaN,1.395786,9.663411,0.088918,0.086274,-0.120290,-0.049711,-0.150264,-0.521735,0.094524,0.282270,0.181061,-0.674515,-0.657700,88.582083,-8.199674,-141.543996
12014,NaN,1.490611,9.646590,0.158236,-0.021567,-0.125081,-0.051153,-0.157647,-0.484234,0.089188,0.281013,0.178983,-0.674796,-0.658519,88.539107,-8.251933,-141.825529
12015,NaN,1.398048,9.618556,0.292687,-0.024609,0.034595,-0.088748,-0.165771,-0.453371,0.077801,0.279831,0.177029,-0.674988,-0.659353,88.488359,-8.297604,-142.089369
12016,NaN,1.303223,9.570121,0.319021,0.038500,0.107260,-0.149645,-0.173946,-0.439923,0.068554,0.278666,0.175142,-0.675126,-0.660208,88.432824,-8.337849,-142.345547
12017,NaN,1.278269,9.475707,0.401675,0.006950,0.178391,-0.244383,-0.170769,-0.448168,0.065909,0.277463,0.173236,-0.675276,-0.661064,88.379176,-8.377115,-142.606534
12018,NaN,1.282645,9.454378,0.301273,0.071675,0.091667,-0.267654,-0.155606,-0.458648,0.058725,0.276184,0.171343,-0.675485,-0.661880,88.336093,-8.412494,-142.873693
12019,NaN,1.316998,9.461145,0.290614,0.060389,0.060896,-0.256284,-0.139651,-0.469216,0.046457,0.274815,0.169475,-0.675742,-0.662668,88.302416,-8.441354,-143.147181
12020,NaN,1.313272,9.508302,0.272220,0.086806,0.049868,-0.210783,-0.118680,-0.467434,0.029482,0.273374,0.167700,-0.676052,-0.663398,88.281571,-8.460438,-143.419929
12021,NaN,1.363474,9.571621,0.214226,0.093541,-0.023382,-0.142549,-0.097111,-0.464860,0.015391,0.271878,0.166008,-0.676410,-0.664073,88.272170,-8.471626,-143.691441
12022,NaN,1.397410,9.631658,0.225811,0.068973,-0.030348,-0.077858,-0.079562,-0.463781,-0.000908,0.270314,0.164400,-0.676812,-0.664703,88.273608,-8.473332,-143.962613
12023,NaN,1.414801,9.721328,0.226395,0.066383,-0.034654,0.013377,-0.075279,-0.465615,-0.014048,0.268696,0.162832,-0.677211,-0.665337,88.276896,-8.467680,-144.235078
12024,NaN,1.399967,9.810386,0.212461,0.097096,-0.032423,0.098833,-0.078644,-0.489276,-0.017429,0.266986,0.161194,-0.677629,-0.665998,88.281034,-8.460335,-144.521293
12025,NaN,1.482893,9.834757,0.279852,-0.006291,-0.023969,0.137143,-0.085359,-0.505897,-0.010818,0.265247,0.159466,-0.678043,-0.666687,88.281932,-8.457195,-144.817016
12026,NaN,1.517688,9.827796,0.204057,0.007428,-0.106589,0.133125,-0.093150,-0.509771,-0.006286,0.263513,0.157701,-0.678440,-0.667390,88.279439,-8.456576,-145.114899
12027,NaN,1.535442,9.824249,0.167174,0.013602,-0.147750,0.131124,-0.099678,-0.511040,0.002182,0.261809,0.155891,-0.678815,-0.668105,88.272554,-8.461010,-145.413374
12028,NaN,1.458683,9.818542,0.089870,0.119976,-0.169540,0.111851,-0.107221,-0.512647,0.014268,0.260141,0.154026,-0.679175,-0.668823,88.262242,-8.472280,-145.712570
12029,NaN,1.460912,9.818180,0.093147,0.118516,-0.169141,0.111875,-0.111758,-0.511380,0.021613,0.258506,0.152130,-0.679516,-0.669544,88.248558,-8.487964,-146.010914
12030,NaN,1.533376,9.837754,0.109264,0.056081,-0.195653,0.142369,-0.121166,-0.503516,0.031161,0.256933,0.150218,-0.679822,-0.670271,88.229598,-8.508894,-146.304542
12031,NaN,1.409147,9.875068,0.195671,0.120448,-0.055014,0.163455,-0.129487,-0.487691,0.029780,0.255415,0.148350,-0.680070,-0.671015,88.203941,-8.529041,-146.589041
12032,NaN,1.306985,9.868180,0.235383,0.188047,0.030941,0.142626,-0.140688,-0.498902,0.040693,0.253901,0.146394,-0.680302,-0.671783,88.173597,-8.555602,-146.879836
12033,NaN,1.243761,9.880507,0.275225,0.228281,0.096242,0.146516,-0.151267,-0.530725,0.049665,0.252316,0.144283,-0.680537,-0.672598,88.139405,-8.588214,-147.188904
12034,NaN,1.175137,9.840712,0.287081,0.281680,0.137914,0.097136,-0.152178,-0.572200,0.049801,0.250588,0.142033,-0.680819,-0.673437,88.109121,-8.621689,-147.521996
12035,NaN,1.209880,9.854364,0.365519,0.221610,0.183976,0.118220,-0.153351,-0.616689,0.050965,0.248712,0.139624,-0.681144,-0.674307,88.081586,-8.656976,-147.880847
12036,NaN,1.111931,9.846959,0.409572,0.289256,0.269949,0.097418,-0.173389,-0.666444,0.061088,0.246710,0.136988,-0.681467,-0.675256,88.047776,-8.699080,-148.268339
12037,NaN,1.110559,9.807698,0.448328,0.275894,0.298721,0.059491,-0.179824,-0.714847,0.063043,0.244553,0.134171,-0.681816,-0.676253,88.014172,-8.743576,-148.683847
12038,NaN,1.071101,9.775756,0.442914,0.319432,0.309354,0.021491,-0.198733,-0.767852,0.064251,0.242227,0.131148,-0.682161,-0.677335,87.975386,-8.789992,-149.130069
12039,NaN,1.076254,9.755152,0.468775,0.312049,0.323981,0.002541,-0.207283,-0.816529,0.070249,0.239757,0.127924,-0.682524,-0.678464,87.935730,-8.841186,-149.604387
12040,NaN,1.163021,9.718577,0.419793,0.270542,0.232306,-0.022263,-0.223996,-0.853605,0.066302,0.237153,0.124568,-0.682864,-0.679661,87.890895,-8.891191,-150.100312
12041,NaN,1.172313,9.657121,0.436064,0.258906,0.233705,-0.081152,-0.245590,-0.885649,0.065366,0.234446,0.121076,-0.683149,-0.680943,87.836342,-8.941776,-150.614836
12042,NaN,1.211108,9.563229,0.420452,0.233038,0.190910,-0.168615,-0.262982,-0.911887,0.070093,0.231670,0.117458,-0.683398,-0.682275,87.775308,-8.996150,-151.144502
12043,NaN,1.279028,9.510052,0.425992,0.178057,0.154862,-0.210460,-0.265404,-0.935224,0.072090,0.228817,0.113746,-0.683647,-0.683616,87.714847,-9.052721,-151.687651
12044,NaN,1.335109,9.505768,0.408642,0.150798,0.107532,-0.206709,-0.263295,-0.961599,0.067286,0.225851,0.109961,-0.683918,-0.684949,87.659216,-9.107723,-152.246252
12045,NaN,1.405802,9.458830,0.337875,0.126965,0.005315,-0.244838,-0.262876,-0.982157,0.064452,0.222799,0.106112,-0.684191,-0.686282,87.605596,-9.162072,-152.816846
12046,NaN,1.444065,9.484738,0.310890,0.121526,-0.039229,-0.214463,-0.252845,-1.005792,0.068443,0.219668,0.102178,-0.684513,-0.687567,87.561119,-9.219802,-153.401118
12047,NaN,1.478099,9.491527,0.296190,0.110195,-0.069708,-0.203079,-0.235073,-1.031371,0.070967,0.216444,0.098163,-0.684902,-0.688786,87.529152,-9.279946,-154.000192
12048,NaN,1.564979,9.540577,0.349919,0.028528,-0.058061,-0.138494,-0.231456,-1.037330,0.069498,0.213185,0.094135,-0.685294,-0.689973,87.501102,-9.339750,-154.602858
12049,NaN,1.612891,9.557746,0.349415,-0.000382,-0.077995,-0.113825,-0.225155,-1.025508,0.078509,0.209990,0.090119,-0.685676,-0.691109,87.475537,-9.404659,-155.198486
12050,NaN,1.665178,9.586976,0.406650,-0.054530,-0.045756,-0.073940,-0.226647,-0.994961,0.083874,0.206913,0.086188,-0.686009,-0.692207,87.447511,-9.472173,-155.776365
12051,NaN,1.766092,9.540348,0.332795,-0.111786,-0.154270,-0.106413,-0.224137,-0.957170,0.087500,0.203972,0.082375,-0.686291,-0.693263,87.417357,-9.541068,-156.332266
12052,NaN,1.805679,9.558708,0.372095,-0.148350,-0.132498,-0.079844,-0.228670,-0.908377,0.089723,0.201203,0.078717,-0.686497,-0.694293,87.381179,-9.610297,-156.859889
12053,NaN,1.718196,9.549690,0.429573,-0.080445,-0.046439,-0.100599,-0.233580,-0.866809,0.084172,0.198556,0.075215,-0.686624,-0.695317,87.338185,-9.675633,-157.363556
12054,NaN,1.677169,9.590802,0.525960,-0.059412,0.057115,-0.062498,-0.237800,-0.843167,0.080543,0.195974,0.071803,-0.686701,-0.696333,87.291644,-9.738624,-157.853668
12055,NaN,1.662466,9.600007,0.587014,-0.052493,0.116276,-0.052963,-0.248457,-0.825386,0.092469,0.193496,0.068399,-0.686712,-0.697358,87.237151,-9.808420,-158.333133
12056,NaN,1.615503,9.609230,0.643703,-0.012151,0.181931,-0.049070,-0.264636,-0.817257,0.097332,0.191063,0.064991,-0.686650,-0.698414,87.173754,-9.881218,-158.807799
12057,NaN,1.573419,9.549980,0.776602,-0.012931,0.314549,-0.107960,-0.274038,-0.823127,0.104424,0.188636,0.061527,-0.686547,-0.699489,87.105522,-9.958825,-159.285660
12058,NaN,1.512535,9.528724,0.834184,0.039136,0.383835,-0.136361,-0.273581,-0.843804,0.112940,0.186163,0.057961,-0.686458,-0.700542,87.040878,-10.042411,-159.775341
12059,NaN,1.554177,9.445529,0.910093,-0.019181,0.434706,-0.206837,-0.278730,-0.858434,0.116379,0.183650,0.054326,-0.686347,-0.701605,86.974821,-10.128989,-160.273413
12060,NaN,1.558859,9.383005,1.007865,-0.045773,0.519489,-0.262053,-0.285735,-0.862643,0.108824,0.181093,0.050695,-0.686204,-0.702680,86.906609,-10.211910,-160.774233
12061,NaN,1.555613,9.269414,1.034894,-0.051248,0.538793,-0.372348,-0.302915,-0.866759,0.096214,0.178479,0.047075,-0.685982,-0.703817,86.829029,-10.288405,-161.277819
12062,NaN,1.521873,9.056287,1.002675,-0.029843,0.510547,-0.589011,-0.299938,-0.872255,0.078912,0.175781,0.043498,-0.685761,-0.704941,86.755163,-10.355801,-161.785222
12063,NaN,1.504903,8.933044,0.970903,-0.010022,0.477741,-0.714430,-0.294658,-0.880367,0.059868,0.172983,0.039960,-0.685542,-0.706054,86.685061,-10.413225,-162.297938
12064,NaN,1.496124,8.820466,0.995864,-0.015411,0.497119,-0.824731,-0.279751,-0.875275,0.033388,0.170102,0.036544,-0.685356,-0.707119,86.624343,-10.455880,-162.808662
12065,NaN,1.442869,8.779107,0.942921,0.053842,0.455733,-0.877751,-0.251295,-0.879246,0.006404,0.167103,0.033229,-0.685249,-0.708100,86.580000,-10.483721,-163.322584
12066,NaN,1.411453,8.817920,1.003718,0.082661,0.517832,-0.841602,-0.220481,-0.879425,-0.029572,0.163968,0.030063,-0.685237,-0.708986,86.554549,-10.491276,-163.837938
12067,NaN,1.329209,8.788827,1.001796,0.160202,0.534904,-0.885085,-0.192049,-0.900009,-0.072353,0.160603,0.026991,-0.685316,-0.709803,86.546917,-10.475231,-164.366687
12068,NaN,1.209277,8.801189,1.009197,0.275320,0.571801,-0.894224,-0.149397,-0.955028,-0.108459,0.156912,0.023883,-0.685576,-0.710489,86.570404,-10.440344,-164.928720
12069,NaN,1.117210,8.912727,1.115394,0.355908,0.697839,-0.795187,-0.101557,-1.026291,-0.138351,0.152860,0.020661,-0.686034,-0.711030,86.627613,-10.390376,-165.533047
12070,NaN,1.081869,9.073442,1.165742,0.404692,0.758427,-0.641114,-0.060650,-1.114718,-0.153673,0.148442,0.017208,-0.686690,-0.711425,86.717959,-10.333836,-166.189221
12071,NaN,1.204627,9.301230,1.192769,0.319544,0.761620,-0.394379,-0.045119,-1.201872,-0.169877,0.143661,0.013511,-0.687434,-0.711768,86.824626,-10.269661,-166.896281
12072,NaN,1.220346,9.451557,1.267976,0.311324,0.840583,-0.240571,-0.046447,-1.276123,-0.178133,0.138589,0.009577,-0.688205,-0.712092,86.938414,-10.201808,-167.646587
12073,NaN,1.184215,9.413613,1.284482,0.331934,0.875980,-0.284264,-0.064881,-1.354003,-0.181657,0.133232,0.005365,-0.688927,-0.712461,87.047613,-10.132737,-168.441871
12074,NaN,1.303808,9.223999,1.217735,0.192245,0.801707,-0.453988,-0.073958,-1.425719,-0.169877,0.127663,0.000850,-0.689637,-0.712813,87.159018,-10.071081,-169.278299
12075,NaN,1.545124,9.083118,1.131639,-0.053731,0.690474,-0.555723,-0.061758,-1.466480,-0.164266,0.121966,-0.003821,-0.690372,-0.713089,87.279401,-10.011978,-170.137856
12076,NaN,1.681099,9.004506,1.038997,-0.189326,0.597777,-0.615215,-0.029332,-1.452758,-0.186147,0.116233,-0.008348,-0.691185,-0.713220,87.417246,-9.938205,-170.989831
12077,NaN,1.660724,8.977847,1.017109,-0.178621,0.602159,-0.647551,-0.011914,-1.427412,-0.205564,0.110513,-0.012707,-0.692002,-0.713273,87.560097,-9.850540,-171.827057
12078,NaN,1.637938,8.991439,0.967354,-0.156236,0.578550,-0.641787,-0.010442,-1.414639,-0.205459,0.104832,-0.017020,-0.692789,-0.713277,87.702451,-9.760666,-172.656532
12079,NaN,1.617504,8.924837,0.973363,-0.157158,0.611137,-0.712235,0.001360,-1.422489,-0.199953,0.099140,-0.021373,-0.693577,-0.713208,87.849616,-9.672018,-173.489865
12080,NaN,1.665096,8.898057,0.944996,-0.213366,0.603028,-0.733494,0.017432,-1.445827,-0.196742,0.093374,-0.025810,-0.694405,-0.713033,88.008247,-9.583536,-174.336344
12081,NaN,1.707503,8.891873,0.857230,-0.256106,0.539057,-0.737470,0.039595,-1.455497,-0.192072,0.087589,-0.030288,-0.695270,-0.712748,88.177708,-9.495543,-175.187745
12082,NaN,1.880627,8.935133,0.865531,-0.428052,0.563316,-0.668188,0.059482,-1.441778,-0.187068,0.081868,-0.034723,-0.696171,-0.712347,88.357290,-9.407601,-176.030721
12083,NaN,2.016779,9.019026,0.844178,-0.554833,0.565554,-0.566333,0.070935,-1.417334,-0.179957,0.076255,-0.039090,-0.697055,-0.711879,88.538278,-9.320837,-176.858781
12084,NaN,1.965042,9.072727,0.844043,-0.502430,0.603349,-0.524436,0.084675,-1.399199,-0.170244,0.070739,-0.043418,-0.697953,-0.711317,88.725602,-9.236663,-177.675808
12085,NaN,2.026759,9.206363,0.898585,-0.549919,0.690212,-0.384357,0.094320,-1.400929,-0.168037,0.065224,-0.047756,-0.698841,-0.710694,88.915795,-9.151324,-178.493221
12086,NaN,2.064279,9.390042,0.897516,-0.562379,0.724551,-0.200284,0.104132,-1.403234,-0.151431,0.059758,-0.052153,-0.699735,-0.709986,89.112106,-9.072592,-179.311430
12087,NaN,2.103239,9.573594,0.894445,-0.574802,0.758680,-0.016197,0.103585,-1.410584,-0.136772,0.054317,-0.056628,-0.700580,-0.709247,89.306001,-8.999887,179.866766
12088,NaN,2.253474,9.787958,0.825358,-0.691991,0.729026,0.214925,0.098118,-1.406538,-0.127029,0.048918,-0.061118,-0.701376,-0.708480,89.496927,-8.929694,179.047680
12089,NaN,2.462786,9.883275,0.697387,-0.888218,0.646245,0.337390,0.084528,-1.373204,-0.114027,0.043678,-0.065540,-0.702066,-0.707743,89.674368,-8.864659,178.248459
12090,NaN,2.609462,9.937829,0.609174,-1.029172,0.604647,0.410615,0.062089,-1.312711,-0.094784,0.038707,-0.069814,-0.702636,-0.707057,89.834350,-8.807729,177.484598
12091,NaN,2.599901,9.880292,0.529395,-1.032306,0.564808,0.349750,0.041036,-1.261738,-0.067410,0.034007,-0.074009,-0.703072,-0.706439,89.975323,-8.765069,176.750650
12092,NaN,2.464712,9.780523,0.513719,-0.913164,0.578774,0.228648,0.028921,-1.230729,-0.043361,0.029491,-0.078174,-0.703434,-0.705833,90.107860,-8.733853,176.034771
12093,NaN,2.456446,9.671579,0.498806,-0.917774,0.598040,0.118190,0.030078,-1.220240,-0.012066,0.025125,-0.082414,-0.703748,-0.705206,90.238080,-8.719749,175.325095
12094,NaN,2.460227,9.571869,0.453072,-0.932518,0.586614,0.019142,0.025008,-1.189808,0.021264,0.020978,-0.086657,-0.704013,-0.704568,90.364427,-8.722477,174.632943
12095,NaN,2.402363,9.470721,0.558835,-0.869368,0.718563,-0.091269,0.027353,-1.170347,0.056165,0.017027,-0.090956,-0.704232,-0.703914,90.488783,-8.744735,173.951940
12096,NaN,2.168913,9.436272,0.602541,-0.623937,0.767733,-0.162213,0.036501,-1.199352,0.102855,0.013137,-0.095513,-0.704451,-0.703173,90.623202,-8.791116,173.253704
12097,NaN,1.891963,9.490454,0.665714,-0.313382,0.825132,-0.152861,0.036877,-1.300196,0.162507,0.009107,-0.100636,-0.704610,-0.702363,90.765825,-8.870393,172.496389
12098,NaN,1.685709,9.575058,0.757379,-0.055876,0.914621,-0.104074,0.039815,-1.465676,0.214645,0.004672,-0.106513,-0.704738,-0.701411,90.928192,-8.975057,171.642226
12099,NaN,1.503983,9.619831,0.787369,0.171876,0.942427,-0.091311,0.043007,-1.680288,0.273872,-0.000304,-0.113352,-0.704793,-0.700299,91.112008,-9.110088,170.662409
12100,NaN,1.658023,9.605581,0.609697,0.036423,0.818442,-0.080446,0.044836,-1.862798,0.326430,-0.005743,-0.120998,-0.704779,-0.699009,91.318408,-9.268539,169.575133
12101,NaN,1.986164,9.559910,0.537720,-0.251297,0.838545,-0.073118,0.049456,-1.987647,0.379106,-0.011429,-0.129262,-0.704665,-0.697573,91.540800,-9.452603,168.413557
12102,NaN,2.311291,9.501214,0.484094,-0.529073,0.890011,-0.077339,0.055693,-2.044335,0.415169,-0.017190,-0.137831,-0.704485,-0.695994,91.778338,-9.650538,167.217008
12103,NaN,2.515869,9.450325,0.440443,-0.682750,0.935449,-0.092063,0.047306,-2.051976,0.442846,-0.022878,-0.146515,-0.704165,-0.694378,92.014387,-9.860683,166.014013
12104,NaN,2.617235,9.418234,0.329744,-0.748626,0.896738,-0.102038,0.039963,-2.042302,0.455696,-0.028498,-0.155186,-0.703748,-0.692708,92.251935,-10.072105,164.814658
12105,NaN,2.795381,9.323979,0.225690,-0.898643,0.887139,-0.158330,0.026941,-1.995117,0.462302,-0.033927,-0.163708,-0.703197,-0.691059,92.479863,-10.285199,163.641005
12106,NaN,2.876602,9.280448,0.198697,-0.928464,0.927302,-0.183635,-0.000016,-1.952768,0.467174,-0.039217,-0.172070,-0.702498,-0.689456,92.694491,-10.496139,162.490188
12107,NaN,2.952827,9.156028,0.095116,-0.991965,0.892193,-0.284800,-0.020038,-1.899855,0.473058,-0.044306,-0.180259,-0.701652,-0.687916,92.894487,-10.709612,161.368515
12108,NaN,3.147804,9.077940,0.101845,-1.125490,0.999974,-0.322644,-0.027124,-1.836575,0.469337,-0.049196,-0.188190,-0.700748,-0.686380,93.089820,-10.917259,160.282237
12109,NaN,3.151791,9.015069,0.086786,-1.086216,1.024821,-0.379646,-0.042109,-1.755442,0.454687,-0.053852,-0.195781,-0.699751,-0.684922,93.269527,-11.117620,159.242337
12110,NaN,3.076506,9.025385,0.042219,-0.972868,0.989649,-0.378811,-0.054106,-1.684980,0.445946,-0.058309,-0.203072,-0.698700,-0.683506,93.440049,-11.310211,158.242459
12111,NaN,3.003455,8.976544,-0.049767,-0.894955,0.906683,-0.433015,-0.069418,-1.637103,0.428268,-0.062659,-0.210129,-0.697561,-0.682150,93.597642,-11.493798,157.269969
12112,NaN,3.052046,8.952723,-0.167387,-0.937180,0.843363,-0.436951,-0.076286,-1.584593,0.416318,-0.066880,-0.216937,-0.696395,-0.680808,93.750221,-11.667668,156.327422
12113,NaN,3.162518,8.975177,-0.344202,-1.052240,0.749561,-0.378467,-0.079998,-1.520453,0.405454,-0.070903,-0.223486,-0.695189,-0.679514,93.894007,-11.837814,155.421734
12114,NaN,3.201667,9.012044,-0.406460,-1.058744,0.733657,-0.327256,-0.069650,-1.446810,0.391455,-0.074714,-0.229715,-0.694034,-0.678208,94.039413,-11.998211,154.558634
12115,NaN,3.049487,9.140164,-0.501726,-0.892742,0.603331,-0.224543,-0.077090,-1.408770,0.377245,-0.078432,-0.235763,-0.692830,-0.676942,94.176418,-12.152593,153.717456
12116,NaN,2.969781,9.205723,-0.542831,-0.785374,0.550807,-0.172188,-0.086296,-1.397845,0.373189,-0.082145,-0.241731,-0.691584,-0.675670,94.310977,-12.300545,152.881997
12117,NaN,3.047940,9.201111,-0.651309,-0.862519,0.508339,-0.149765,-0.082996,-1.373976,0.365726,-0.085780,-0.247595,-0.690316,-0.674391,94.444836,-12.446148,152.059992
12118,NaN,3.084079,9.229695,-0.674385,-0.858872,0.523463,-0.110019,-0.079839,-1.327094,0.366298,-0.089255,-0.253278,-0.689060,-0.673112,94.578555,-12.589532,151.264615
12119,NaN,3.025811,9.305388,-0.653955,-0.742862,0.529015,-0.048386,-0.075845,-1.273880,0.370052,-0.092512,-0.258801,-0.687788,-0.671871,94.708221,-12.738679,150.499371
12120,NaN,2.921033,9.375220,-0.608037,-0.575987,0.530740,-0.005379,-0.079915,-1.243219,0.390300,-0.095610,-0.264262,-0.686478,-0.670651,94.835673,-12.896236,149.750340
12121,NaN,2.817980,9.374820,-0.633413,-0.460307,0.467603,-0.025002,-0.097233,-1.234392,0.418784,-0.098586,-0.269787,-0.685030,-0.669500,94.953042,-13.071987,149.004142
12122,NaN,2.669875,9.358238,-0.707957,-0.335560,0.335807,-0.066892,-0.098755,-1.245285,0.455812,-0.101489,-0.275447,-0.683509,-0.668315,95.075603,-13.263742,148.248795
12123,NaN,2.697340,9.297049,-0.709995,-0.329359,0.354262,-0.118323,-0.092392,-1.241626,0.492884,-0.104226,-0.281229,-0.681912,-0.667115,95.203061,-13.478383,147.492500
12124,NaN,2.664835,9.270759,-0.708915,-0.260768,0.340872,-0.150054,-0.094054,-1.236167,0.539466,-0.106802,-0.287122,-0.680233,-0.665910,95.334142,-13.715081,146.735763
12125,NaN,2.541794,9.202786,-0.776163,-0.163032,0.219588,-0.237751,-0.102666,-1.253284,0.575476,-0.109308,-0.293193,-0.678417,-0.664711,95.465192,-13.972930,145.965528
12126,NaN,2.478563,9.098715,-0.899944,-0.154215,0.083232,-0.341212,-0.098006,-1.280622,0.616009,-0.111776,-0.299463,-0.676525,-0.663432,95.608714,-14.247375,145.175479
12127,NaN,2.461175,9.079489,-1.060612,-0.180708,-0.063663,-0.347887,-0.083482,-1.311348,0.652570,-0.114182,-0.305969,-0.674557,-0.662056,95.768443,-14.542147,144.363357
12128,NaN,2.351088,9.160516,-1.300494,-0.153440,-0.332216,-0.273306,-0.059028,-1.353402,0.681198,-0.116608,-0.312690,-0.672582,-0.660501,95.954899,-14.845143,143.522816
12129,NaN,2.389107,9.305516,-1.404601,-0.148147,-0.407698,-0.112949,-0.030090,-1.396070,0.693830,-0.119067,-0.319610,-0.670601,-0.658761,96.168334,-15.153185,142.653919
12130,NaN,2.411175,9.453197,-1.431603,-0.083709,-0.428478,0.037963,-0.036627,-1.427883,0.698032,-0.121638,-0.326609,-0.668548,-0.656943,96.389406,-15.455174,141.763638
12131,NaN,2.479807,9.394408,-1.388652,-0.069045,-0.351513,-0.004318,-0.057107,-1.442933,0.699012,-0.124266,-0.333644,-0.666360,-0.655137,96.605265,-15.756726,140.861766
12132,NaN,2.496457,9.293793,-1.270676,0.018433,-0.244199,-0.109015,-0.074671,-1.454344,0.702541,-0.126957,-0.340678,-0.664072,-0.653321,96.819265,-16.053004,139.950554
12133,NaN,2.421526,9.146675,-1.179148,0.145134,-0.213915,-0.281227,-0.086796,-1.466968,0.719569,-0.129631,-0.347797,-0.661650,-0.651500,97.033112,-16.358063,139.027950
12134,NaN,2.330561,9.022514,-1.147383,0.251373,-0.245051,-0.430244,-0.096752,-1.495744,0.728819,-0.132395,-0.354994,-0.659130,-0.649614,97.252664,-16.659737,138.085143
12135,NaN,2.364274,8.857122,-1.184120,0.210594,-0.246293,-0.574978,-0.110393,-1.534175,0.726959,-0.135289,-0.362291,-0.656483,-0.647667,97.475641,-16.957245,137.116799
12136,NaN,2.351353,8.708238,-1.278691,0.167019,-0.319628,-0.709555,-0.110008,-1.557236,0.719601,-0.138289,-0.369596,-0.653801,-0.645615,97.709015,-17.241929,136.132798
12137,NaN,2.405725,8.639678,-1.310112,0.139993,-0.307582,-0.755452,-0.114234,-1.565173,0.711639,-0.141321,-0.376887,-0.651052,-0.643518,97.945932,-17.520776,135.141805
12138,NaN,2.410377,8.578113,-1.419256,0.094334,-0.384572,-0.798741,-0.141398,-1.576286,0.705446,-0.144467,-0.384130,-0.648186,-0.641427,98.175130,-17.788204,134.142260
12139,NaN,2.452407,8.406675,-1.563779,-0.039322,-0.446368,-0.928379,-0.163144,-1.591960,0.692012,-0.147721,-0.391351,-0.645201,-0.639326,98.398992,-18.046072,133.131736
12140,NaN,2.547270,8.302144,-1.804866,-0.258206,-0.540889,-0.963261,-0.155359,-1.591070,0.665322,-0.151048,-0.398443,-0.642260,-0.637126,98.631864,-18.281939,132.121878
12141,NaN,2.688756,8.326832,-1.766031,-0.270693,-0.415362,-0.899862,-0.116353,-1.559696,0.629816,-0.154281,-0.405337,-0.639477,-0.634797,98.884317,-18.499448,131.131365
12142,NaN,2.858901,8.502946,-1.862571,-0.345295,-0.378275,-0.665005,-0.101336,-1.507138,0.590808,-0.157446,-0.411909,-0.636831,-0.632446,99.138618,-18.692363,130.174025
12143,NaN,2.943881,8.707248,-1.954793,-0.355085,-0.401433,-0.430979,-0.117535,-1.431532,0.555027,-0.160490,-0.418104,-0.634215,-0.630240,99.371337,-18.871204,129.263090
12144,NaN,2.915107,8.713282,-2.035080,-0.357334,-0.472395,-0.420683,-0.163918,-1.361422,0.532991,-0.163486,-0.423932,-0.631532,-0.628269,99.566480,-19.037928,128.394948
12145,NaN,2.659579,8.608461,-2.135415,-0.285515,-0.710731,-0.584890,-0.191504,-1.316053,0.511261,-0.166440,-0.429520,-0.628800,-0.626435,99.738984,-19.197118,127.554341
12146,NaN,2.549597,8.627449,-2.186045,-0.229008,-0.827699,-0.594524,-0.184029,-1.293178,0.474052,-0.169430,-0.434889,-0.626171,-0.624560,99.912457,-19.332122,126.730404
12147,NaN,2.527600,8.712750,-2.374859,-0.308264,-0.973643,-0.490795,-0.146374,-1.274428,0.428162,-0.172399,-0.440083,-0.623735,-0.622543,100.104360,-19.443556,125.921015
12148,NaN,2.455583,9.052262,-2.413574,-0.163556,-1.099294,-0.191698,-0.110592,-1.240046,0.372752,-0.175364,-0.444992,-0.621546,-0.620411,100.309308,-19.521655,125.137731
12149,NaN,2.352162,9.372084,-2.401962,0.026872,-1.215692,0.069589,-0.130530,-1.192489,0.325921,-0.178347,-0.449589,-0.619405,-0.618384,100.493014,-19.578596,124.386929
12150,NaN,2.241247,9.487970,-2.430684,0.114919,-1.329717,0.145808,-0.152365,-1.164875,0.281143,-0.181441,-0.453909,-0.617310,-0.616420,100.657309,-19.608253,123.657756
12151,NaN,2.164665,9.589911,-2.376277,0.239307,-1.365308,0.206171,-0.169359,-1.136671,0.228774,-0.184626,-0.457965,-0.615275,-0.614506,100.804981,-19.612220,122.950675
12152,NaN,2.237466,9.589916,-2.385686,0.196923,-1.300756,0.233879,-0.184752,-1.101708,0.157002,-0.187970,-0.461648,-0.613379,-0.612630,100.933349,-19.575324,122.273313
12153,NaN,2.399508,9.586211,-2.429334,0.078524,-1.179836,0.294565,-0.188736,-1.054117,0.102198,-0.191323,-0.465014,-0.611615,-0.610807,101.047799,-19.513913,121.630437
12154,NaN,2.451663,9.687933,-2.365589,0.134606,-1.099807,0.396866,-0.181837,-0.998613,0.047215,-0.194668,-0.468022,-0.610044,-0.609021,101.151446,-19.424096,121.028085
12155,NaN,2.443835,9.857939,-2.278622,0.259534,-1.066183,0.538122,-0.189523,-0.943529,-0.005610,-0.198005,-0.470696,-0.608605,-0.607322,101.237316,-19.312078,120.464727
12156,NaN,2.481868,9.921458,-2.246465,0.278166,-1.006141,0.606135,-0.217385,-0.882485,-0.047004,-0.201358,-0.473006,-0.607233,-0.605796,101.291560,-19.180680,119.943759
12157,NaN,2.431328,9.963548,-2.278796,0.274773,-1.049568,0.637164,-0.229942,-0.821661,-0.089280,-0.204666,-0.474996,-0.605966,-0.604398,101.324581,-19.034133,119.463940
12158,NaN,2.404867,10.034164,-2.245266,0.318657,-1.041779,0.690746,-0.244032,-0.763304,-0.128349,-0.207959,-0.476654,-0.604804,-0.603130,101.334539,-18.869892,119.024530
12159,NaN,2.418906,10.132946,-2.067553,0.469845,-0.929134,0.757002,-0.251227,-0.752614,-0.150501,-0.211287,-0.478211,-0.603670,-0.601876,101.336999,-18.696348,118.593971
12160,NaN,2.485045,10.199971,-2.272912,0.267489,-0.968476,0.881769,-0.265794,-0.741538,-0.155086,-0.214640,-0.479685,-0.602510,-0.600678,101.326572,-18.519521,118.171543
12161,NaN,2.586810,10.214793,-2.328791,0.156817,-0.888933,0.941008,-0.255376,-0.736735,-0.144089,-0.217904,-0.481193,-0.601345,-0.599462,101.321222,-18.351296,117.750476
12162,NaN,2.594050,10.304702,-2.374895,0.121968,-0.896828,1.037974,-0.243081,-0.727735,-0.122902,-0.221058,-0.482731,-0.600172,-0.598245,101.319852,-18.194182,117.333188
12163,NaN,2.427852,10.391753,-2.278782,0.283655,-0.981180,1.051594,-0.236996,-0.736603,-0.087006,-0.224101,-0.484416,-0.598908,-0.597018,101.324782,-18.057918,116.906185
12164,NaN,2.223771,10.436534,-2.171335,0.458659,-1.089843,1.012419,-0.243269,-0.777506,-0.038253,-0.227144,-0.486341,-0.597455,-0.595756,101.333391,-17.942698,116.450153
12165,NaN,2.148797,10.355958,-2.098723,0.512739,-1.089559,0.902618,-0.240351,-0.841110,0.032276,-0.230145,-0.488673,-0.595753,-0.594399,101.357974,-17.861333,115.947935
12166,NaN,2.166429,10.233587,-1.996763,0.545563,-0.992091,0.776217,-0.212864,-0.909397,0.078844,-0.233150,-0.491356,-0.593932,-0.592837,101.410621,-17.796551,115.400732
12167,NaN,2.256048,10.203990,-1.945030,0.541421,-0.876598,0.767140,-0.198258,-0.969578,0.131770,-0.236125,-0.494391,-0.591937,-0.591128,101.484890,-17.755422,114.811398
12168,NaN,2.330264,10.046385,-2.069234,0.357456,-0.833867,0.666750,-0.187827,-0.985555,0.167252,-0.239021,-0.497568,-0.589854,-0.589378,101.567886,-17.730261,114.209111
12169,NaN,2.337308,9.889648,-2.072148,0.309458,-0.793902,0.523458,-0.162329,-0.972777,0.202098,-0.241698,-0.500837,-0.587758,-0.587609,101.665368,-17.726429,113.609678
12170,NaN,2.447463,9.808053,-1.898348,0.403940,-0.600893,0.447305,-0.133345,-0.964740,0.229790,-0.244201,-0.504177,-0.585675,-0.585796,101.778022,-17.736821,113.012139
12171,NaN,2.542956,9.623557,-1.793772,0.417765,-0.434418,0.283541,-0.128715,-0.950159,0.247262,-0.246583,-0.507527,-0.583563,-0.584010,101.892618,-17.758668,112.420419
12172,NaN,2.582187,9.442477,-1.688677,0.456543,-0.320192,0.105413,-0.117898,-0.904097,0.262850,-0.248761,-0.510781,-0.581487,-0.582318,102.004976,-17.792530,111.854274
12173,NaN,2.558382,9.356218,-1.646463,0.492907,-0.309411,0.008528,-0.096662,-0.834745,0.259406,-0.250679,-0.513847,-0.579555,-0.580721,102.118335,-17.832683,111.328671
12174,NaN,2.537666,9.384927,-1.561640,0.599923,-0.302985,0.010937,-0.093484,-0.732972,0.242881,-0.252347,-0.516556,-0.577793,-0.579350,102.213879,-17.873978,110.865376
12175,NaN,2.554592,9.308461,-1.542346,0.601029,-0.270796,-0.059860,-0.107053,-0.607446,0.221274,-0.253738,-0.518823,-0.576198,-0.578303,102.279492,-17.918709,110.478031
12176,NaN,2.438848,9.231725,-1.405149,0.746961,-0.310481,-0.195369,-0.124778,-0.508118,0.192398,-0.254978,-0.520685,-0.574748,-0.577527,102.315115,-17.958172,110.153199
12177,NaN,2.194298,9.208274,-1.296018,0.921653,-0.488876,-0.315401,-0.135690,-0.442821,0.161959,-0.256138,-0.522261,-0.573425,-0.576906,102.332575,-17.989256,109.870161
12178,NaN,2.133740,9.151210,-1.317775,0.904229,-0.546124,-0.383047,-0.146398,-0.391633,0.107129,-0.257343,-0.523507,-0.572277,-0.576380,102.331574,-17.995057,109.624728
12179,NaN,2.265844,9.251570,-1.313990,0.892178,-0.450803,-0.249583,-0.153315,-0.330956,0.051018,-0.258547,-0.524414,-0.571331,-0.575954,102.314176,-17.977611,109.421817
12180,NaN,2.304853,9.414657,-1.367893,0.873352,-0.472498,-0.074452,-0.171994,-0.281967,0.025687,-0.259739,-0.525076,-0.570460,-0.575679,102.275256,-17.951352,109.251412
12181,NaN,2.333765,9.433540,-1.476422,0.762073,-0.493071,-0.025243,-0.187256,-0.234151,0.014517,-0.260860,-0.525552,-0.569635,-0.575555,102.219165,-17.925385,109.110214
12182,NaN,2.424806,9.547732,-1.632977,0.613577,-0.495118,0.141399,-0.194755,-0.196717,-0.020652,-0.262000,-0.525804,-0.568928,-0.575505,102.149797,-17.883795,108.995877
12183,NaN,2.324093,9.681702,-1.577339,0.718278,-0.591910,0.225163,-0.233534,-0.196076,-0.037332,-0.263283,-0.525960,-0.568154,-0.575543,102.058059,-17.833597,108.883666
12184,NaN,2.261666,9.652990,-1.477773,0.799583,-0.602576,0.161113,-0.255053,-0.242472,-0.040389,-0.264768,-0.526206,-0.567263,-0.575516,101.961454,-17.775823,108.744800
12185,NaN,2.287914,9.650666,-1.416805,0.826414,-0.553314,0.156670,-0.261589,-0.303061,-0.035999,-0.266424,-0.526632,-0.566260,-0.575350,101.872630,-17.713951,108.569390
12186,NaN,2.128829,9.625571,-1.564815,0.713761,-0.743423,0.115556,-0.264875,-0.366375,-0.026627,-0.268243,-0.527256,-0.565135,-0.575038,101.792808,-17.649746,108.355808
12187,NaN,2.164701,9.659732,-1.806550,0.474450,-0.802836,0.206809,-0.254798,-0.395123,-0.023934,-0.270106,-0.527985,-0.563991,-0.574621,101.724293,-17.584238,108.124724
12188,NaN,2.368947,9.678252,-1.877828,0.336849,-0.643021,0.300657,-0.249282,-0.379745,-0.007104,-0.271863,-0.528717,-0.562836,-0.574251,101.656058,-17.529941,107.900878
12189,NaN,2.560607,9.671525,-1.897762,0.244587,-0.473850,0.356493,-0.262993,-0.355553,0.054189,-0.273409,-0.529535,-0.561511,-0.574061,101.578306,-17.513274,107.683601
12190,NaN,2.648325,9.585799,-2.000676,0.086404,-0.414493,0.322626,-0.253430,-0.358675,0.074420,-0.274881,-0.530426,-0.560151,-0.573863,101.506764,-17.507709,107.462268
12191,NaN,2.647466,9.542993,-2.123854,-0.050648,-0.452118,0.305690,-0.238756,-0.374544,0.089928,-0.276311,-0.531426,-0.558769,-0.573598,101.447505,-17.509385,107.229519
12192,NaN,2.571751,9.475188,-2.031691,0.026541,-0.476846,0.201940,-0.211305,-0.383984,0.094569,-0.277682,-0.532499,-0.557437,-0.573238,101.405311,-17.512690,106.990872
12193,NaN,2.741602,9.450895,-2.099255,-0.097440,-0.341716,0.242978,-0.202258,-0.395386,0.091635,-0.279066,-0.533609,-0.556121,-0.572812,101.370755,-17.513250,106.745639
12194,NaN,2.760470,9.336322,-2.027492,-0.074791,-0.275797,0.127944,-0.202201,-0.391443,0.093292,-0.280434,-0.534707,-0.554802,-0.572399,101.335067,-17.515288,106.502750
12195,NaN,2.570541,9.193330,-1.984404,-0.029944,-0.404197,-0.071097,-0.210834,-0.385635,0.087238,-0.281823,-0.535759,-0.553482,-0.572010,101.293742,-17.514734,106.263773
12196,NaN,2.587694,9.149626,-1.970013,-0.040808,-0.375256,-0.109581,-0.204147,-0.399405,0.089916,-0.283225,-0.536862,-0.552150,-0.571571,101.258231,-17.514295,106.016592
12197,NaN,2.592133,9.149229,-1.996105,-0.073322,-0.380150,-0.103821,-0.197358,-0.398797,0.075764,-0.284645,-0.537934,-0.550875,-0.571088,101.226552,-17.506056,105.771207
12198,NaN,2.928058,9.209137,-1.876786,-0.040409,-0.046954,0.031103,-0.191610,-0.357071,0.064170,-0.285968,-0.538858,-0.549703,-0.570685,101.189757,-17.496141,105.551997
12199,NaN,2.316125,10.554553,-1.369250,0.922906,-0.770755,1.012832,-0.548749,-0.539482,0.179084,-0.288423,-0.540104,-0.546938,-0.570928,100.985333,-17.531097,105.211698
12200,NaN,3.174710,9.389919,-1.914989,-0.145125,0.087216,0.281248,-0.703923,-0.373576,0.452187,-0.290059,-0.541389,-0.543219,-0.572431,100.671791,-17.739149,104.938690
12201,NaN,3.205409,7.744055,-1.984231,-0.669929,0.463507,-1.238394,-0.423572,-0.285554,0.123731,-0.291632,-0.541930,-0.541315,-0.572922,100.492791,-17.772445,104.754575
12202,NaN,2.907451,8.430340,-1.860287,-0.323742,0.054914,-0.709021,-0.183510,-0.186527,0.031435,-0.292552,-0.542284,-0.540489,-0.572899,100.429863,-17.764553,104.639403
12203,NaN,2.837177,9.538457,-1.715485,0.097748,-0.237422,0.282296,-0.155270,-0.166604,0.018248,-0.293376,-0.542588,-0.539810,-0.572830,100.379655,-17.751305,104.537216
12204,NaN,2.899475,9.616880,-1.681287,0.122891,-0.190925,0.368987,-0.215338,-0.177429,0.043952,-0.294321,-0.542901,-0.538870,-0.572934,100.297230,-17.751640,104.426070
12205,NaN,2.887032,9.259491,-1.879014,-0.162351,-0.176426,0.063866,-0.219658,-0.181176,0.036492,-0.295306,-0.543199,-0.537934,-0.573024,100.213340,-17.747412,104.313280
12206,NaN,2.920506,9.282888,-2.087011,-0.373909,-0.215702,0.130683,-0.204173,-0.133664,0.042510,-0.296106,-0.543397,-0.537092,-0.573213,100.129361,-17.751670,104.228205
12207,NaN,3.097577,9.434103,-1.971841,-0.282701,-0.059096,0.306700,-0.154048,-0.040688,0.022560,-0.296575,-0.543351,-0.536589,-0.573485,100.057293,-17.753976,104.200064
12208,NaN,3.128882,9.614871,-1.787251,-0.084228,-0.025477,0.454841,-0.142299,0.021123,0.034453,-0.296813,-0.543175,-0.536175,-0.573916,99.980548,-17.769332,104.207544
12209,NaN,3.039526,9.590606,-1.660278,0.038239,-0.071659,0.383799,-0.146171,0.045415,0.050899,-0.296948,-0.542969,-0.535744,-0.574442,99.898343,-17.796219,104.227484
12210,NaN,2.812335,9.490369,-1.529543,0.179126,-0.226245,0.198933,-0.131612,0.030516,0.062259,-0.297052,-0.542856,-0.535299,-0.574910,99.826874,-17.828174,104.237714
12211,NaN,2.696898,9.441493,-1.599522,0.120083,-0.348695,0.129018,-0.107793,-0.014926,0.066265,-0.297201,-0.542921,-0.534847,-0.575193,99.778051,-17.857783,104.220371
12212,NaN,2.760140,9.466472,-1.516229,0.184533,-0.279144,0.158242,-0.087450,-0.059662,0.077214,-0.297383,-0.543172,-0.534354,-0.575320,99.748745,-17.889404,104.175633
12213,NaN,2.720332,9.530055,-1.465366,0.254316,-0.323489,0.197314,-0.083979,-0.119468,0.086213,-0.297688,-0.543626,-0.533760,-0.575284,99.733261,-17.920114,104.094254
12214,NaN,2.716199,9.614150,-1.291004,0.438569,-0.304186,0.246708,-0.090820,-0.187992,0.094975,-0.298171,-0.544288,-0.533018,-0.575097,99.726080,-17.949364,103.971541
12215,NaN,2.779414,9.555343,-1.280215,0.420192,-0.233689,0.209164,-0.100922,-0.250013,0.100744,-0.298829,-0.545130,-0.532140,-0.574771,99.725287,-17.975612,103.811186
12216,NaN,2.776250,9.525311,-1.261189,0.432822,-0.229384,0.176795,-0.098628,-0.294543,0.113217,-0.299562,-0.546132,-0.531164,-0.574340,99.733871,-18.004846,103.623314
12217,NaN,2.808720,9.567432,-1.102451,0.587770,-0.171726,0.200559,-0.104910,-0.321570,0.122470,-0.300358,-0.547228,-0.530106,-0.573859,99.744742,-18.036346,103.418218
12218,NaN,3.039721,9.533059,-1.200268,0.438655,0.015801,0.255435,-0.118299,-0.338230,0.139147,-0.301185,-0.548392,-0.528934,-0.573396,99.751148,-18.075927,103.201672
12219,NaN,3.126877,9.342548,-1.325666,0.258553,0.102004,0.124148,-0.135190,-0.328556,0.164077,-0.301961,-0.549568,-0.527661,-0.573035,99.747519,-18.130182,102.988107
12220,NaN,3.157142,9.219208,-1.267262,0.280965,0.167441,0.008733,-0.132042,-0.333252,0.173699,-0.302711,-0.550784,-0.526358,-0.572669,99.746642,-18.189760,102.770865
12221,NaN,3.204104,9.204657,-1.194021,0.341270,0.222935,-0.001902,-0.116897,-0.346388,0.190134,-0.303407,-0.552102,-0.525034,-0.572247,99.758068,-18.256996,102.543903
12222,NaN,3.219557,9.095676,-1.226406,0.286784,0.245002,-0.093704,-0.120459,-0.328113,0.194425,-0.304050,-0.553372,-0.523711,-0.571891,99.764068,-18.328726,102.327415
12223,NaN,3.274964,8.974924,-1.254319,0.224716,0.308685,-0.184491,-0.118773,-0.268970,0.182915,-0.304566,-0.554443,-0.522516,-0.571673,99.760212,-18.399390,102.147077
12224,NaN,3.322848,9.002544,-1.388274,0.096094,0.299050,-0.121674,-0.102153,-0.189587,0.157297,-0.304901,-0.555244,-0.521556,-0.571594,99.749980,-18.463625,102.016674
12225,NaN,3.481161,9.174036,-1.462521,0.033825,0.369436,0.101079,-0.095052,-0.101955,0.134632,-0.305052,-0.555746,-0.520814,-0.571702,99.726990,-18.523315,101.940626
12226,NaN,3.425576,9.201361,-1.443386,0.065916,0.304641,0.106275,-0.100276,0.004401,0.102293,-0.305033,-0.555851,-0.520307,-0.572071,99.679553,-18.575331,101.931357
12227,NaN,3.091892,9.188331,-1.441257,0.123378,-0.010521,-0.012326,-0.103920,0.068220,0.075190,-0.304935,-0.555697,-0.519964,-0.572584,99.617313,-18.617945,101.962808
12228,NaN,2.859523,9.208614,-1.499850,0.108845,-0.254655,-0.058289,-0.108488,0.073995,0.049589,-0.304908,-0.555453,-0.519685,-0.573088,99.550196,-18.646841,102.000448
12229,NaN,2.702927,9.257793,-1.501783,0.140319,-0.419654,-0.062195,-0.093163,0.057121,0.033560,-0.304929,-0.555239,-0.519472,-0.573478,99.494825,-18.664794,102.029561
12230,NaN,2.643827,9.309811,-1.619736,0.044560,-0.523218,-0.014208,-0.073783,0.018012,0.031765,-0.305002,-0.555162,-0.519257,-0.573709,99.457671,-18.678270,102.035645
12231,NaN,2.627863,9.460845,-1.546861,0.146436,-0.563641,0.110361,-0.068416,-0.007957,0.025968,-0.305145,-0.555152,-0.519036,-0.573842,99.428651,-18.685712,102.026720
12232,NaN,2.702531,9.563797,-1.501341,0.193682,-0.513492,0.223384,-0.076526,-0.029928,0.029506,-0.305356,-0.555202,-0.518746,-0.573943,99.399014,-18.693412,102.004438
12233,NaN,2.725457,9.569040,-1.545150,0.143716,-0.507542,0.242355,-0.085114,-0.052245,0.037900,-0.305627,-0.555325,-0.518377,-0.574014,99.369268,-18.703394,101.967922
12234,NaN,2.794579,9.509376,-1.671634,-0.008565,-0.462306,0.228152,-0.082001,-0.062140,0.042156,-0.305901,-0.555491,-0.517987,-0.574059,99.343065,-18.715267,101.925175
12235,NaN,2.842758,9.526189,-1.610685,0.040136,-0.409663,0.249838,-0.074521,-0.060957,0.043945,-0.306147,-0.555670,-0.517618,-0.574088,99.321264,-18.727823,101.882872
12236,NaN,2.580919,9.572991,-1.435129,0.265688,-0.623669,0.182479,-0.082611,-0.087874,0.045474,-0.306479,-0.555918,-0.517177,-0.574068,99.299767,-18.739218,101.824440
12237,NaN,2.674140,9.450719,-1.370024,0.278669,-0.488923,0.088191,-0.092799,-0.126231,0.033467,-0.306975,-0.556228,-0.516684,-0.573945,99.279688,-18.739770,101.744199
12238,NaN,2.940374,9.433581,-1.414372,0.177307,-0.250097,0.164522,-0.092378,-0.114557,0.039420,-0.307421,-0.556522,-0.516191,-0.573867,99.257531,-18.745320,101.670429
12239,NaN,2.938153,9.411329,-1.235419,0.339583,-0.203701,0.115822,-0.104556,-0.101657,0.046492,-0.307849,-0.556776,-0.515666,-0.573862,99.226397,-18.755508,101.603608
12240,NaN,2.792267,9.311145,-1.238659,0.336976,-0.314603,-0.024127,-0.110477,-0.118939,0.035949,-0.308366,-0.557044,-0.515123,-0.573812,99.194622,-18.758764,101.527556
12241,NaN,2.858924,9.304207,-1.348487,0.212486,-0.279581,0.007537,-0.108708,-0.126786,0.031167,-0.308914,-0.557324,-0.514590,-0.573724,99.165423,-18.758013,101.447233
12242,NaN,2.787921,9.312334,-1.121354,0.439292,-0.293148,-0.041782,-0.127792,-0.146641,0.028047,-0.309573,-0.557624,-0.513976,-0.573628,99.128801,-18.754356,101.355397
12243,NaN,2.663428,9.171984,-1.000588,0.540917,-0.340816,-0.230852,-0.140197,-0.178760,0.022109,-0.310369,-0.557979,-0.513296,-0.573461,99.091207,-18.743812,101.244914
12244,NaN,3.014397,9.130539,-1.143311,0.323994,-0.037595,-0.135182,-0.132047,-0.185045,0.010102,-0.311188,-0.558335,-0.512659,-0.573240,99.058933,-18.726640,101.131853
12245,NaN,3.137070,9.146033,-1.145625,0.296494,0.072050,-0.080757,-0.135027,-0.146915,0.017893,-0.311900,-0.558595,-0.512054,-0.573141,99.017953,-18.716673,101.040829
12246,NaN,3.111502,9.113279,-1.138948,0.293166,0.059046,-0.120367,-0.133059,-0.101603,0.004678,-0.312524,-0.558695,-0.511558,-0.573146,98.968898,-18.704058,100.978127
12247,NaN,3.242944,9.054535,-1.191449,0.198418,0.186311,-0.125234,-0.116675,-0.057020,-0.013904,-0.313044,-0.558644,-0.511234,-0.573202,98.920172,-18.684248,100.943825
12248,NaN,3.061397,9.049376,-1.193677,0.219606,0.020604,-0.187743,-0.095315,-0.001232,-0.036260,-0.313423,-0.558410,-0.511118,-0.573326,98.872279,-18.657453,100.944916
12249,NaN,2.711801,9.117686,-1.240941,0.243821,-0.331246,-0.228491,-0.078220,-0.002800,-0.047308,-0.313794,-0.558178,-0.511082,-0.573382,98.834181,-18.623576,100.946109
12250,NaN,2.807859,9.100606,-1.281006,0.178580,-0.242254,-0.207715,-0.063462,-0.036610,-0.037805,-0.314178,-0.558092,-0.511005,-0.573323,98.811250,-18.592796,100.926173
12251,NaN,2.977832,9.081459,-1.318649,0.104045,-0.083615,-0.165854,-0.054092,-0.056505,-0.021350,-0.314544,-0.558117,-0.510882,-0.573208,98.797951,-18.568864,100.892865
12252,NaN,3.121159,9.154784,-1.392944,0.020049,0.014092,-0.040717,-0.048485,-0.059016,0.004730,-0.314822,-0.558227,-0.510694,-0.573116,98.789102,-18.560216,100.855604
12253,NaN,2.860637,9.171934,-1.371216,0.089898,-0.228437,-0.110750,-0.048345,-0.076649,0.040885,-0.315046,-0.558477,-0.510381,-0.573028,98.784740,-18.569767,100.804517
12254,NaN,2.788793,9.278124,-1.010295,0.472696,-0.243638,-0.086493,-0.042971,-0.143382,0.064216,-0.315353,-0.558989,-0.509910,-0.572778,98.796868,-18.587415,100.711360
12255,NaN,2.934439,9.294451,-1.329442,0.144356,-0.190224,0.021342,-0.091134,-0.204894,0.084150,-0.315899,-0.559649,-0.509151,-0.572509,98.793696,-18.610185,100.579663
12256,NaN,3.050332,9.175201,-1.323045,0.106135,-0.051269,-0.054338,-0.092344,-0.252646,0.088782,-0.316551,-0.560457,-0.508296,-0.572117,98.799180,-18.632161,100.418925
12257,NaN,3.252675,9.315976,-1.138018,0.280805,0.136210,0.115302,-0.086869,-0.264309,0.076831,-0.317256,-0.561273,-0.507474,-0.571657,98.809661,-18.645539,100.252375
12258,NaN,3.313164,9.512786,-1.011150,0.435111,0.161868,0.300524,-0.106332,-0.255288,0.075491,-0.317991,-0.562031,-0.506610,-0.571270,98.807337,-18.659725,100.091254
12259,NaN,3.256332,9.542685,-1.062186,0.400425,0.084729,0.317823,-0.139020,-0.255817,0.084551,-0.318798,-0.562756,-0.505629,-0.570976,98.786573,-18.678255,99.929062
12260,NaN,3.285775,9.446377,-1.282358,0.161011,0.085865,0.269053,-0.152351,-0.291411,0.108177,-0.319659,-0.563624,-0.504481,-0.570653,98.765887,-18.707879,99.743300
12261,NaN,3.581137,9.409374,-1.387679,0.002788,0.343222,0.344512,-0.150680,-0.294881,0.117012,-0.320503,-0.564521,-0.503310,-0.570328,98.747015,-18.741501,99.554741
12262,NaN,3.642127,9.397988,-1.295294,0.078971,0.415716,0.340440,-0.150435,-0.263071,0.124353,-0.321239,-0.565348,-0.502165,-0.570103,98.722682,-18.782878,99.384390
12263,NaN,3.525444,9.380221,-1.208861,0.175245,0.321240,0.274172,-0.149653,-0.251605,0.133865,-0.321921,-0.566163,-0.501015,-0.569921,98.696804,-18.830003,99.220120
12264,NaN,3.838935,9.217348,-1.196625,0.104831,0.654426,0.221731,-0.142014,-0.195898,0.127686,-0.322455,-0.566818,-0.499991,-0.569868,98.664679,-18.879229,99.089616
12265,NaN,3.917012,9.208569,-1.050307,0.230271,0.750371,0.218652,-0.111016,-0.093820,0.109853,-0.322700,-0.567184,-0.499271,-0.569996,98.629864,-18.926583,99.021975
12266,NaN,3.769750,9.412369,-1.025974,0.312256,0.548781,0.358727,-0.091489,-0.028978,0.092775,-0.322772,-0.567357,-0.498758,-0.570233,98.593401,-18.970501,98.994605
12267,NaN,3.501323,9.425544,-1.008722,0.366192,0.289005,0.281867,-0.095036,-0.012247,0.087404,-0.322831,-0.567459,-0.498278,-0.570517,98.551210,-19.012276,98.977918
12268,NaN,3.168546,9.420576,-1.063357,0.356573,-0.039355,0.176755,-0.087515,-0.049458,0.082860,-0.322971,-0.567672,-0.497771,-0.570669,98.520757,-19.048869,98.939213
12269,NaN,3.338069,9.447322,-1.276982,0.127050,0.060889,0.287086,-0.075818,-0.091944,0.089820,-0.323167,-0.568038,-0.497210,-0.570682,98.505208,-19.085282,98.874590
12270,NaN,3.428636,9.370056,-1.393522,-0.015359,0.136632,0.260866,-0.079907,-0.103334,0.122506,-0.323305,-0.568515,-0.496524,-0.570726,98.490907,-19.139803,98.800028
12271,NaN,3.273332,9.413470,-1.186059,0.216718,0.009153,0.221643,-0.079820,-0.135463,0.148709,-0.323452,-0.569144,-0.495713,-0.570720,98.483482,-19.205951,98.704003
12272,NaN,3.232602,9.519488,-1.129682,0.298878,-0.062145,0.299352,-0.092666,-0.190610,0.165886,-0.323719,-0.569955,-0.494726,-0.570616,98.480587,-19.277699,98.573130
12273,NaN,3.149425,9.486857,-1.199576,0.237879,-0.157294,0.250958,-0.106233,-0.249326,0.185812,-0.324117,-0.570957,-0.493548,-0.570410,98.481958,-19.355255,98.405349
12274,NaN,3.051298,9.450884,-1.322192,0.127631,-0.275919,0.201571,-0.114251,-0.310132,0.201207,-0.324638,-0.572158,-0.492202,-0.570073,98.491969,-19.436902,98.199373
12275,NaN,3.174195,9.455763,-1.423068,0.017540,-0.195749,0.260716,-0.116210,-0.364249,0.207906,-0.325282,-0.573521,-0.490742,-0.569594,98.511801,-19.517156,97.960348
12276,NaN,3.254439,9.469368,-1.387131,0.048849,-0.132237,0.294960,-0.128227,-0.370753,0.210537,-0.325963,-0.574891,-0.489227,-0.569128,98.526924,-19.598834,97.716824
12277,NaN,3.115489,9.493168,-1.317670,0.141231,-0.271156,0.260508,-0.150703,-0.380493,0.215192,-0.326722,-0.576256,-0.487617,-0.568693,98.531231,-19.681712,97.467089
12278,NaN,2.938670,9.406921,-1.319881,0.145898,-0.424410,0.120419,-0.146810,-0.399324,0.211893,-0.327519,-0.577673,-0.485993,-0.568186,98.542298,-19.761658,97.205970
12279,NaN,3.055321,9.352178,-1.198671,0.241731,-0.290476,0.091463,-0.140342,-0.387835,0.188598,-0.328338,-0.579005,-0.484473,-0.567656,98.553933,-19.828717,96.953960
12280,NaN,3.256212,9.372995,-1.076250,0.344948,-0.099732,0.161546,-0.117141,-0.349812,0.152679,-0.329094,-0.580182,-0.483181,-0.567117,98.570700,-19.879228,96.727782
12281,NaN,3.517380,9.492889,-1.072142,0.345308,0.098611,0.361172,-0.108718,-0.282018,0.114655,-0.329774,-0.581082,-0.482134,-0.566692,98.576909,-19.913300,96.546074
12282,NaN,3.340333,9.447435,-1.295753,0.138036,-0.094891,0.289925,-0.100464,-0.193484,0.086614,-0.330290,-0.581681,-0.481337,-0.566455,98.569387,-19.939694,96.419992
12283,NaN,3.124773,9.462727,-1.359936,0.099964,-0.314885,0.239560,-0.063624,-0.122117,0.047424,-0.330643,-0.582038,-0.480876,-0.566273,98.566599,-19.949343,96.340728
12284,NaN,3.264974,9.609250,-1.490953,-0.016261,-0.252763,0.441898,-0.031108,-0.020430,0.017219,-0.330737,-0.582094,-0.480762,-0.566258,98.561130,-19.951204,96.325238
12285,NaN,3.366762,9.765474,-1.515997,-0.024670,-0.213319,0.625306,-0.024055,0.086413,0.026945,-0.330531,-0.581877,-0.480818,-0.566554,98.537493,-19.966996,96.373528
12286,NaN,3.268741,9.685611,-1.529004,-0.046768,-0.286193,0.519277,-0.038501,0.141850,0.040378,-0.330191,-0.581516,-0.480883,-0.567067,98.495076,-19.995762,96.453789
12287,NaN,3.096085,9.559427,-1.558145,-0.087793,-0.418635,0.346703,-0.054558,0.182398,0.050278,-0.329777,-0.581032,-0.480943,-0.567752,98.434821,-20.032773,96.557915
12288,NaN,2.987117,9.537176,-1.805520,-0.331653,-0.562401,0.322113,-0.072304,0.223104,0.056132,-0.329294,-0.580422,-0.481000,-0.568608,98.356572,-20.077107,96.685905
12289,NaN,2.841755,9.639112,-1.665930,-0.171734,-0.718581,0.346914,-0.086385,0.195612,0.086430,-0.328837,-0.579934,-0.480886,-0.569466,98.276270,-20.135388,96.794966
12290,NaN,2.553954,9.660513,-1.200912,0.306670,-0.928162,0.204039,-0.140154,0.067552,0.098803,-0.328803,-0.579756,-0.480369,-0.570103,98.192518,-20.190816,96.825481
12291,NaN,2.648843,9.609744,-1.224035,0.252930,-0.836338,0.192229,-0.145085,-0.065049,0.079388,-0.329163,-0.579896,-0.479679,-0.570334,98.132531,-20.223505,96.777863
12292,NaN,3.377516,9.664414,-1.330850,0.068374,-0.200819,0.508875,-0.163997,-0.134636,0.105900,-0.329663,-0.580271,-0.478740,-0.570452,98.077536,-20.266560,96.685676
12293,NaN,3.742588,9.488518,-1.449433,-0.127724,0.166015,0.487599,-0.179600,-0.138604,0.152441,-0.330091,-0.580737,-0.477618,-0.570671,98.015419,-20.334813,96.587372
12294,NaN,3.940324,9.393035,-1.149957,0.119860,0.414249,0.428975,-0.146384,-0.100614,0.189383,-0.330219,-0.581243,-0.476542,-0.570982,97.966016,-20.428118,96.508696
12295,NaN,3.610825,9.602083,-0.818483,0.513160,0.071569,0.465419,-0.101841,-0.123237,0.249377,-0.330106,-0.582022,-0.475384,-0.571219,97.948368,-20.552787,96.411488
12296,NaN,3.429722,9.694693,-0.913799,0.458474,-0.167363,0.499772,-0.061636,-0.216357,0.288338,-0.329979,-0.583231,-0.474069,-0.571152,97.975531,-20.693094,96.254174
12297,NaN,3.937578,9.632857,-1.305827,0.023043,0.238282,0.672743,-0.012071,-0.273837,0.314044,-0.329775,-0.584738,-0.472727,-0.570840,98.044146,-20.842337,96.059797
12298,NaN,4.275015,9.534391,-1.498025,-0.197933,0.527443,0.728041,0.031030,-0.254890,0.353265,-0.329281,-0.586359,-0.471419,-0.570545,98.135784,-21.016039,95.872821
12299,NaN,4.139414,9.474274,-1.514159,-0.189035,0.388527,0.627737,0.082221,-0.237788,0.385578,-0.328509,-0.588083,-0.470191,-0.570229,98.254231,-21.208271,95.693127
12300,NaN,4.083512,9.529774,-1.459993,-0.093559,0.292066,0.652924,0.123139,-0.269968,0.416271,-0.327596,-0.590040,-0.468932,-0.569769,98.405643,-21.415706,95.490099
12301,NaN,4.205318,9.663989,-1.600277,-0.184354,0.302264,0.841546,0.150131,-0.346603,0.444358,-0.326707,-0.592315,-0.467540,-0.569062,98.591084,-21.631202,95.237165
12302,NaN,4.337929,9.693448,-1.699908,-0.248519,0.361735,0.933352,0.160520,-0.413522,0.497978,-0.325782,-0.594923,-0.465902,-0.568214,98.801381,-21.871265,94.936940
12303,NaN,4.295336,9.649948,-1.787711,-0.293596,0.283575,0.892468,0.186224,-0.528045,0.550827,-0.324899,-0.598008,-0.463990,-0.567045,99.055769,-22.129177,94.560433
12304,NaN,4.301779,9.635968,-1.795454,-0.251319,0.249490,0.885676,0.210883,-0.632913,0.590700,-0.324060,-0.601518,-0.461848,-0.565560,99.352973,-22.399093,94.113571
12305,NaN,3.771593,9.702049,-1.405420,0.236487,-0.258478,0.685248,0.245028,-0.727852,0.628411,-0.323230,-0.605421,-0.459526,-0.563758,99.695934,-22.678309,93.602503
12306,NaN,3.782167,9.977496,-1.222103,0.533399,-0.378114,0.907416,0.289946,-0.870645,0.666935,-0.322469,-0.609875,-0.456969,-0.561468,100.104135,-22.962796,92.996589
12307,NaN,4.444176,9.942166,-1.613360,0.186885,0.142622,1.193866,0.312501,-0.908254,0.710375,-0.321597,-0.614544,-0.454269,-0.559062,100.539891,-23.263056,92.359501
12308,NaN,5.061194,9.780480,-1.915589,-0.080659,0.679808,1.344078,0.360841,-0.818231,0.724143,-0.320318,-0.619054,-0.451789,-0.556826,100.987322,-23.576904,91.771751
12309,NaN,5.271446,9.733333,-2.348213,-0.433350,0.786144,1.467087,0.416744,-0.654828,0.718649,-0.318507,-0.623163,-0.449731,-0.554945,101.430168,-23.901005,91.281232
12310,NaN,4.465318,9.774194,-1.902609,0.108038,0.017945,1.099740,0.467509,-0.455844,0.697991,-0.316134,-0.626743,-0.448181,-0.553521,101.855931,-24.233763,90.911382
12311,NaN,3.774356,9.977649,-1.522086,0.606937,-0.717765,0.921913,0.520472,-0.346027,0.684024,-0.313386,-0.630053,-0.446988,-0.552290,102.286276,-24.568736,90.607550
12312,NaN,4.051262,10.120183,-2.052289,0.192468,-0.640450,1.259559,0.547323,-0.313263,0.691972,-0.310447,-0.633324,-0.445883,-0.551101,102.727748,-24.910688,90.318879
12313,NaN,4.572342,9.919243,-2.435417,-0.154742,-0.188986,1.375186,0.506375,-0.235887,0.675357,-0.307509,-0.636262,-0.444831,-0.550212,103.126951,-25.250667,90.077059
12314,NaN,4.314407,9.719911,-2.206097,0.088667,-0.382026,1.041030,0.462823,-0.137319,0.648756,-0.304553,-0.638797,-0.443886,-0.549682,103.476709,-25.588047,89.896484
12315,NaN,3.888240,9.605262,-2.126418,0.195680,-0.772561,0.735556,0.441934,-0.104290,0.627562,-0.301650,-0.641148,-0.442996,-0.549264,103.805719,-25.916400,89.737148
12316,NaN,3.707335,9.536446,-2.150839,0.207748,-0.968135,0.595640,0.417413,-0.115961,0.616386,-0.298872,-0.643464,-0.442049,-0.548837,104.125670,-26.236823,89.569436
12317,NaN,3.837517,9.516794,-2.321597,0.088223,-0.918453,0.667479,0.400236,-0.088078,0.604379,-0.296123,-0.645637,-0.441132,-0.548513,104.428462,-26.552853,89.418889
12318,NaN,3.532070,9.628142,-1.911910,0.556127,-1.259255,0.528324,0.375719,-0.011708,0.639907,-0.293176,-0.647640,-0.440136,-0.548535,104.700932,-26.899747,89.307423
12319,NaN,2.930879,9.804874,-1.492780,1.044862,-1.895811,0.300054,0.419698,-0.011458,0.715806,-0.289882,-0.649857,-0.439013,-0.548563,105.005171,-27.287206,89.181701
12320,NaN,3.563401,9.866530,-1.799282,0.825888,-1.467728,0.696665,0.483135,-0.133707,0.816916,-0.286359,-0.652717,-0.437546,-0.548190,105.391834,-27.712524,88.959120
12321,NaN,4.253630,9.546083,-2.740928,-0.089298,-0.893737,0.954205,0.538151,-0.211262,0.883694,-0.282645,-0.655990,-0.435895,-0.547525,105.840801,-28.160033,88.672588
12322,NaN,5.232033,9.379724,-3.373418,-0.645925,-0.113282,1.425726,0.625670,-0.161315,0.935090,-0.278377,-0.659350,-0.434367,-0.546890,106.335035,-28.642909,88.402054
12323,NaN,5.945992,9.287783,-3.622428,-0.808407,0.426857,1.758931,0.691570,-0.055406,0.980595,-0.273537,-0.662582,-0.433007,-0.546505,106.843174,-29.164686,88.183865
12324,NaN,6.188804,9.050634,-3.350077,-0.521028,0.669167,1.620481,0.737641,0.092032,1.013763,-0.268115,-0.665527,-0.431843,-0.546534,107.341139,-29.729064,88.045028
12325,NaN,6.162116,8.893427,-2.944690,-0.096816,0.651680,1.381068,0.801995,0.198345,1.025098,-0.262216,-0.668259,-0.430947,-0.546770,107.847241,-30.315745,87.964960
12326,NaN,6.161316,8.881818,-2.737077,0.178589,0.561010,1.322466,0.866794,0.292032,1.060424,-0.255781,-0.670871,-0.430208,-0.547201,108.368879,-30.938916,87.929769
12327,NaN,5.922440,9.039919,-2.829318,0.212019,0.137889,1.355771,0.911324,0.366265,1.119014,-0.248872,-0.673423,-0.429472,-0.547831,108.901220,-31.606065,87.922736
12328,NaN,5.573259,9.106205,-2.770197,0.360548,-0.319147,1.206578,0.901352,0.403439,1.166305,-0.241764,-0.675929,-0.428566,-0.548636,109.425590,-32.306830,87.921116
12329,NaN,5.398717,8.799415,-2.648977,0.453377,-0.424913,0.827090,0.853697,0.379271,1.188249,-0.234804,-0.678446,-0.427407,-0.549456,109.936955,-33.013605,87.891994
12330,NaN,5.774130,8.371602,-2.716116,0.339975,-0.027715,0.707927,0.833544,0.332866,1.198359,-0.227962,-0.681056,-0.426074,-0.550142,110.460023,-33.717505,87.822161
12331,NaN,6.045117,7.993715,-2.667486,0.343399,0.277166,0.548868,0.828351,0.346347,1.190843,-0.221126,-0.683564,-0.424749,-0.550847,110.978615,-34.418401,87.755216
12332,NaN,6.160376,7.773002,-2.753034,0.262784,0.350131,0.471067,0.821789,0.359138,1.169780,-0.214322,-0.685952,-0.423464,-0.551556,111.492002,-35.111321,87.693026
12333,NaN,6.225683,7.445479,-2.924895,0.058687,0.430046,0.314469,0.810876,0.354665,1.134896,-0.207658,-0.688225,-0.422246,-0.552206,111.999850,-35.783152,87.629587
12334,NaN,6.191149,7.067725,-3.131577,-0.203924,0.456787,0.078629,0.810617,0.369949,1.080049,-0.201095,-0.690312,-0.421206,-0.552825,112.499198,-36.429820,87.582372
12335,NaN,6.281017,6.840536,-3.271274,-0.351541,0.517256,0.013443,0.826902,0.416087,1.029336,-0.194518,-0.692141,-0.420417,-0.553491,112.985084,-37.058542,87.572969
12336,NaN,6.411320,6.575196,-3.490370,-0.590954,0.617471,-0.025497,0.841204,0.489794,0.980588,-0.187854,-0.693651,-0.419883,-0.554308,113.446239,-37.679170,87.618926
12337,NaN,6.559659,6.459197,-3.844711,-0.904691,0.615976,0.103609,0.876997,0.569785,0.932528,-0.181029,-0.694833,-0.419674,-0.555256,113.888764,-38.292317,87.726989
12338,NaN,6.677282,6.462922,-4.017869,-1.007728,0.552920,0.245946,0.935992,0.651523,0.889486,-0.173930,-0.695721,-0.419827,-0.556296,114.326146,-38.903642,87.896860
12339,NaN,6.635105,6.504090,-4.012031,-0.936390,0.380646,0.257125,0.972694,0.715323,0.845607,-0.166690,-0.696330,-0.420272,-0.557414,114.749610,-39.507417,88.119175
12340,NaN,6.791552,6.514156,-4.255712,-1.101436,0.319806,0.451504,1.000146,0.775018,0.809682,-0.159312,-0.696686,-0.420941,-0.558620,115.157071,-40.109031,88.388852
12341,NaN,6.927646,6.543246,-4.219092,-1.004340,0.294642,0.556021,1.018600,0.834940,0.806107,-0.151751,-0.696838,-0.421701,-0.559961,115.547231,-40.724131,88.697734
12342,NaN,6.495058,6.581700,-4.074185,-0.817129,-0.139367,0.257816,0.987910,0.879912,0.805715,-0.144188,-0.696802,-0.422382,-0.561490,115.899068,-41.352512,89.034738
12343,NaN,5.516022,6.443000,-3.711472,-0.514735,-0.803459,-0.603878,0.914662,0.823859,0.810988,-0.136980,-0.696839,-0.422778,-0.562948,116.233917,-41.970225,89.329794
12344,NaN,4.803569,6.067798,-3.357140,-0.315451,-1.100000,-1.454908,0.866730,0.572607,0.830571,-0.130404,-0.697560,-0.422774,-0.563620,116.662885,-42.536102,89.440892
12345,NaN,5.200902,5.627740,-3.604800,-0.666747,-0.692074,-1.398949,0.896691,0.166376,0.870263,-0.124471,-0.699498,-0.422438,-0.562811,117.313791,-43.016440,89.249222
12346,NaN,6.365574,5.383594,-4.086454,-1.107873,0.092087,-0.595011,0.971033,-0.206269,0.911405,-0.118937,-0.702590,-0.421912,-0.560546,118.203465,-43.417191,88.772797
12347,NaN,6.985072,5.315946,-4.269490,-1.178486,0.461908,-0.134090,1.046821,-0.392000,0.905901,-0.113545,-0.706200,-0.421493,-0.557434,119.234490,-43.757195,88.157559
12348,NaN,6.986674,5.251874,-4.400836,-1.197076,0.401586,-0.108711,1.093864,-0.461031,0.882491,-0.108185,-0.709944,-0.421220,-0.553940,120.329959,-44.058556,87.491874
12349,NaN,7.230229,5.089598,-4.540254,-1.256300,0.576361,0.030170,1.137372,-0.468785,0.856830,-0.102757,-0.713639,-0.421136,-0.550278,121.457169,-44.334753,86.820004
12350,NaN,7.714064,5.085829,-4.659247,-1.208253,0.825601,0.431221,1.176373,-0.347273,0.838155,-0.096975,-0.716940,-0.421260,-0.546931,122.552888,-44.630286,86.228259
12351,NaN,7.854888,5.080394,-4.716581,-1.130089,0.839697,0.568643,1.151857,-0.084234,0.797044,-0.090838,-0.719387,-0.421574,-0.544524,123.506618,-44.979814,85.821722
12352,NaN,7.761223,5.171859,-4.423736,-0.736121,0.729000,0.457635,1.084379,0.221342,0.780819,-0.084335,-0.720902,-0.421877,-0.543331,124.278927,-45.415682,85.618870
12353,NaN,7.566287,5.161185,-4.054182,-0.358994,0.631415,0.177018,1.016008,0.421902,0.781567,-0.077652,-0.721813,-0.422060,-0.542974,124.924028,-45.914664,85.541131
12354,NaN,7.389836,5.068600,-3.717439,-0.068960,0.589407,-0.129374,0.957316,0.496987,0.782239,-0.071015,-0.722465,-0.422088,-0.542994,125.505024,-46.438854,85.505897
12355,NaN,7.142597,4.830737,-3.505722,0.024707,0.554560,-0.521091,0.910071,0.479904,0.776872,-0.064598,-0.723106,-0.421986,-0.543021,126.072222,-46.953960,85.453156
12356,NaN,6.756927,4.549580,-3.472769,-0.065991,0.399493,-0.966777,0.880246,0.364676,0.773646,-0.058536,-0.724013,-0.421758,-0.542678,126.684204,-47.428620,85.316076
12357,NaN,6.900487,4.267226,-3.612103,-0.269463,0.548442,-0.952719,0.871557,0.230780,0.776984,-0.052779,-0.725264,-0.421441,-0.541844,127.367865,-47.857007,85.076663
12358,NaN,7.554178,4.107051,-3.836868,-0.441839,0.927766,-0.453297,0.865532,0.179964,0.784303,-0.047127,-0.726638,-0.421052,-0.540826,128.084268,-48.269417,84.789767
12359,NaN,7.931785,4.040559,-3.676721,-0.260061,1.204687,-0.260837,0.845828,0.275601,0.763495,-0.041400,-0.727682,-0.420694,-0.540168,128.742115,-48.703794,84.568325
12360,NaN,7.555181,3.990899,-3.679575,-0.259687,0.907295,-0.557639,0.807404,0.386475,0.737560,-0.035648,-0.728337,-0.420333,-0.539976,129.317720,-49.165441,84.427836
12361,NaN,7.305828,3.932160,-3.770284,-0.335450,0.666027,-0.730000,0.792651,0.403313,0.714260,-0.029976,-0.728874,-0.420008,-0.539850,129.874254,-49.621768,84.302771
12362,NaN,7.728896,3.962455,-3.884305,-0.337041,0.791801,-0.337276,0.799953,0.422857,0.687530,-0.024308,-0.729276,-0.419788,-0.539762,130.418909,-50.073056,84.199093
12363,NaN,8.085768,3.981750,-4.061720,-0.402054,0.848570,0.028504,0.801272,0.494183,0.655490,-0.018569,-0.729398,-0.419684,-0.539906,130.919867,-50.536288,84.154377
12364,NaN,8.102501,4.012457,-3.927174,-0.236661,0.809050,0.008804,0.821360,0.583342,0.611134,-0.012691,-0.729161,-0.419789,-0.540315,131.368949,-51.013881,84.191287
12365,NaN,7.763568,3.950287,-3.979901,-0.304333,0.527026,-0.255163,0.847047,0.638556,0.568965,-0.006714,-0.728665,-0.420106,-0.540845,131.788465,-51.494550,84.285252
12366,NaN,7.103508,3.951547,-3.898944,-0.249835,0.069822,-0.801117,0.873376,0.689587,0.517598,-0.000675,-0.727893,-0.420667,-0.541489,132.172377,-51.973311,84.442632
12367,NaN,6.133923,4.030714,-3.473764,0.106634,-0.456273,-1.705982,0.895150,0.670217,0.484795,0.005317,-0.727081,-0.421391,-0.541991,132.566366,-52.431397,84.602580
12368,NaN,5.599385,4.069039,-3.279825,0.288203,-0.775377,-2.198044,0.931444,0.503901,0.475168,0.011060,-0.726670,-0.422238,-0.541797,133.069219,-52.821389,84.650265
12369,NaN,6.189234,4.028563,-3.483740,0.185229,-0.540753,-1.667428,0.977307,0.303731,0.449221,0.016480,-0.726722,-0.423300,-0.540759,133.701166,-53.122009,84.569434
12370,NaN,7.194382,3.851628,-3.868630,-0.111516,-0.058955,-0.782510,0.992663,0.254671,0.394560,0.021701,-0.726765,-0.424593,-0.539502,134.343745,-53.380077,84.486123
12371,NaN,7.616295,3.619945,-4.631777,-0.766816,-0.086846,-0.222626,0.990656,0.381208,0.325272,0.026997,-0.726300,-0.426106,-0.538695,134.883126,-53.660171,84.530485
12372,NaN,7.719559,3.538064,-4.895385,-0.969679,-0.169007,-0.060513,1.008959,0.550434,0.280994,0.032599,-0.725255,-0.427792,-0.538457,135.316457,-53.991361,84.718573
12373,NaN,8.070730,3.614182,-4.917714,-0.883798,-0.097447,0.266584,1.030783,0.730940,0.232161,0.038535,-0.723593,-0.429668,-0.538808,135.636620,-54.377260,85.061330
12374,NaN,8.258209,3.788759,-4.585335,-0.490053,-0.008322,0.352801,1.029415,0.907850,0.185075,0.044716,-0.721316,-0.431658,-0.539793,135.825949,-54.817935,85.561330
12375,NaN,8.101529,3.957990,-4.099923,-0.016517,-0.030118,0.092264,0.986581,1.019865,0.152563,0.050896,-0.718645,-0.433601,-0.541248,135.903819,-55.292243,86.165148
12376,NaN,7.545026,3.913965,-3.697194,0.228834,-0.178070,-0.548172,0.930440,1.015250,0.131739,0.056803,-0.715915,-0.435448,-0.542793,135.929912,-55.756800,86.788749
12377,NaN,7.302185,3.768282,-3.530825,0.242454,-0.200598,-0.874611,0.883868,0.942631,0.097065,0.062292,-0.713292,-0.437294,-0.544158,135.944339,-56.177638,87.391514
12378,NaN,7.153017,3.543910,-3.279920,0.263887,-0.063953,-1.186632,0.838914,0.875171,0.070187,0.067394,-0.710775,-0.439116,-0.545374,135.947547,-56.560169,87.973438
12379,NaN,6.955722,3.317692,-3.027235,0.280658,0.057725,-1.537967,0.814213,0.848027,0.037532,0.072260,-0.708248,-0.440981,-0.546534,135.927279,-56.918336,88.564547
12380,NaN,6.653312,3.165898,-3.117430,0.100394,-0.117088,-1.813697,0.781320,0.871141,-0.006242,0.076935,-0.705544,-0.442887,-0.547850,135.837188,-57.268368,89.213486
12381,NaN,6.356823,3.053657,-3.028673,0.072574,-0.205128,-2.140704,0.753259,0.926837,-0.043326,0.081534,-0.702595,-0.444810,-0.549415,135.665199,-57.625514,89.938426
12382,NaN,6.505888,3.098500,-2.881977,0.196447,-0.109675,-2.054965,0.746793,0.908398,-0.035827,0.086083,-0.699687,-0.446680,-0.550912,135.494397,-57.977063,90.654268
12383,NaN,6.909999,3.274452,-2.772120,0.385136,0.024729,-1.688301,0.724461,0.863937,-0.057932,0.090394,-0.696843,-0.448571,-0.552289,135.316948,-58.300302,91.360693
12384,NaN,7.175155,3.392724,-3.042841,0.269245,-0.114233,-1.317594,0.687617,0.789240,-0.074842,0.094358,-0.694158,-0.450439,-0.553485,135.145904,-58.585311,92.032063
12385,NaN,7.590435,3.443713,-3.566747,-0.068677,-0.297094,-0.751649,0.657176,0.705313,-0.088605,0.097988,-0.691675,-0.452298,-0.554446,134.998335,-58.829620,92.654074
12386,NaN,8.127098,3.504744,-3.965038,-0.313200,-0.347692,-0.125822,0.652359,0.629581,-0.087936,0.101427,-0.689387,-0.454169,-0.555147,134.892216,-59.042936,93.222559
12387,NaN,8.450572,3.721468,-4.118470,-0.268710,-0.441748,0.284630,0.656983,0.595778,-0.085068,0.104814,-0.687186,-0.456051,-0.555704,134.810669,-59.243135,93.764703
12388,NaN,8.235187,3.869762,-3.960950,-0.047757,-0.569289,0.094684,0.636104,0.598060,-0.084239,0.108133,-0.684974,-0.457861,-0.556310,134.710301,-59.444290,94.313266
12389,NaN,8.161898,3.980623,-3.595502,0.277794,-0.461695,-0.060808,0.621958,0.593484,-0.090023,0.111376,-0.682761,-0.459646,-0.556919,134.598317,-59.640522,94.865215
12390,NaN,8.325629,3.989482,-3.252068,0.498192,-0.188903,-0.039048,0.615882,0.630463,-0.078001,0.114713,-0.680458,-0.461343,-0.557656,134.458886,-59.856112,95.443313
12391,NaN,8.552306,4.034935,-2.894476,0.745526,0.103066,0.048046,0.625514,0.713714,-0.064331,0.118311,-0.677938,-0.462964,-0.558630,134.271206,-60.109576,96.082535
12392,NaN,8.696940,4.043666,-2.914507,0.717006,0.112097,0.185085,0.640008,0.825885,-0.035303,0.122296,-0.675142,-0.464448,-0.559924,134.021771,-60.418761,96.800239
12393,NaN,8.736250,4.087566,-3.160909,0.573132,-0.116292,0.320390,0.668954,0.930572,-0.015541,0.126673,-0.672065,-0.465868,-0.561471,133.716317,-60.775730,97.599248
12394,NaN,8.665908,4.187146,-3.101358,0.674959,-0.224466,0.274048,0.704296,0.986586,-0.005956,0.131322,-0.668803,-0.467304,-0.563102,133.380459,-61.156810,98.452989
12395,NaN,8.564915,4.236591,-3.098929,0.705584,-0.360473,0.201387,0.697167,0.986912,-0.007870,0.135937,-0.665519,-0.468709,-0.564728,133.024093,-61.534464,99.322612
12396,NaN,8.469946,4.089156,-3.254898,0.483996,-0.501974,0.115502,0.649591,0.982481,-0.028377,0.140321,-0.662205,-0.470033,-0.566448,132.611296,-61.899208,100.222037
12397,NaN,8.245964,3.734518,-3.651919,-0.038506,-0.772579,-0.082309,0.630035,1.012616,-0.056308,0.144626,-0.658733,-0.471358,-0.568310,132.126386,-62.260102,101.187590
12398,NaN,7.832100,3.402331,-4.287173,-0.668262,-1.321934,-0.373252,0.638329,1.028071,-0.078273,0.148928,-0.655132,-0.472750,-0.570202,131.597339,-62.613829,102.204897
12399,NaN,7.843652,3.293221,-4.391012,-0.831145,-1.409794,-0.380276,0.700853,1.027499,-0.074822,0.153436,-0.651473,-0.474292,-0.571915,131.088573,-62.964096,103.236724
12400,NaN,8.240950,3.491659,-4.112085,-0.557282,-1.200063,-0.052411,0.779222,1.032390,-0.061382,0.158245,-0.647742,-0.475990,-0.573430,130.609175,-63.318386,104.282457
12401,NaN,8.613943,3.892713,-3.588365,0.020939,-0.916747,0.256486,0.809343,1.081475,-0.063076,0.163254,-0.643818,-0.477723,-0.575002,130.083563,-63.685383,105.396158
12402,NaN,8.750825,4.249942,-3.351318,0.414233,-0.926711,0.426423,0.767028,1.133447,-0.072323,0.168219,-0.639723,-0.479296,-0.576829,129.454433,-64.062932,106.594231
12403,NaN,8.887348,4.270925,-3.375709,0.377965,-0.976246,0.556720,0.691811,1.200810,-0.071588,0.173096,-0.635473,-0.480575,-0.579017,128.694442,-64.457992,107.886168
12404,NaN,9.013224,4.271076,-2.884073,0.610207,-0.628446,0.532847,0.633667,1.302657,-0.071908,0.178026,-0.630940,-0.481569,-0.581646,127.768425,-64.881445,109.320173
12405,NaN,8.982387,4.301112,-2.537943,0.792289,-0.476306,0.422957,0.583120,1.429600,-0.071327,0.183090,-0.626054,-0.482280,-0.584757,126.648702,-65.337303,110.930986
12406,NaN,8.849706,4.342926,-2.367235,0.895515,-0.511686,0.272811,0.552086,1.475119,-0.027489,0.188288,-0.621126,-0.482686,-0.588017,125.443497,-65.815794,112.609783
12407,NaN,8.448965,4.458731,-2.099853,1.159289,-0.600619,-0.118921,0.548423,1.441771,0.018888,0.193514,-0.616378,-0.482946,-0.591096,124.250967,-66.289633,114.266484
12408,NaN,8.082330,4.588627,-2.043978,1.325109,-0.838443,-0.426642,0.542981,1.326244,0.051166,0.198533,-0.612017,-0.483169,-0.593774,123.149072,-66.729463,115.814852
12409,NaN,7.962121,4.643210,-2.066900,1.357383,-1.002611,-0.518676,0.510016,1.150495,0.100992,0.203160,-0.608305,-0.483301,-0.595912,122.218203,-67.126851,117.152230
12410,NaN,8.007011,4.530608,-2.230995,1.157943,-1.140861,-0.486746,0.477748,0.987215,0.143515,0.207420,-0.605191,-0.483350,-0.597573,121.451001,-67.488829,118.288152
12411,NaN,8.369613,4.319496,-2.308192,0.871872,-1.052791,-0.212305,0.462092,0.873443,0.176334,0.211443,-0.602498,-0.483365,-0.598871,120.806829,-67.826485,119.278762
12412,NaN,8.903467,4.151362,-2.331032,0.620240,-0.887194,0.225591,0.456275,0.846385,0.200376,0.215457,-0.599933,-0.483299,-0.600068,120.183248,-68.165241,120.240920
12413,NaN,9.537013,4.003183,-2.196592,0.444004,-0.577632,0.735953,0.470436,0.897624,0.202368,0.219628,-0.597190,-0.483211,-0.601360,119.481310,-68.513936,121.294085
12414,NaN,9.845278,3.990695,-1.990558,0.471365,-0.385380,0.978330,0.480334,1.032465,0.202196,0.224157,-0.594011,-0.482982,-0.603019,118.578932,-68.896025,122.565545
12415,NaN,9.865477,4.033885,-1.589667,0.687401,-0.154748,0.940427,0.489887,1.224551,0.195147,0.229139,-0.590204,-0.482578,-0.605205,117.381186,-69.316136,124.155873
12416,NaN,9.801537,4.072385,-1.278923,0.859521,-0.033246,0.843252,0.479199,1.354483,0.181041,0.234358,-0.585952,-0.482002,-0.607792,115.927765,-69.750725,126.007797
12417,NaN,9.683310,4.025349,-1.101411,0.897188,-0.009267,0.693344,0.443007,1.431482,0.182542,0.239639,-0.581480,-0.481205,-0.610652,114.274253,-70.185533,128.045729
12418,NaN,9.495207,3.907174,-1.116268,0.792935,-0.142411,0.483945,0.404810,1.468890,0.171164,0.244860,-0.576879,-0.480241,-0.613696,112.452964,-70.603054,130.232785
12419,NaN,9.355746,3.695247,-1.221266,0.555483,-0.301465,0.300449,0.387495,1.477775,0.161961,0.250000,-0.572215,-0.479223,-0.616778,110.519727,-70.991658,132.522756
12420,NaN,9.242165,3.547791,-1.143049,0.455453,-0.319210,0.137205,0.405291,1.468508,0.170344,0.255190,-0.567545,-0.478208,-0.619749,108.529309,-71.358595,134.878424
12421,NaN,9.222386,3.517361,-0.925279,0.500607,-0.236824,0.085415,0.415464,1.447283,0.183391,0.260373,-0.562925,-0.477198,-0.622578,106.505555,-71.700512,137.270794
12422,NaN,9.259645,3.603974,-0.611367,0.677100,-0.100561,0.118762,0.417300,1.404658,0.192512,0.265484,-0.558426,-0.476186,-0.625240,104.476787,-72.015539,139.664696
12423,NaN,9.167292,3.664004,-0.231564,0.889792,0.086677,0.021820,0.402761,1.340939,0.201397,0.270406,-0.554137,-0.475176,-0.627711,102.482783,-72.298987,142.009620
12424,NaN,9.148528,3.631123,0.103253,0.983449,0.293211,-0.023040,0.358116,1.288244,0.197191,0.275063,-0.550038,-0.474073,-0.630121,100.486035,-72.550495,144.326753
12425,NaN,9.093555,3.516896,0.313705,0.958433,0.419457,-0.114013,0.331970,1.256058,0.179704,0.279494,-0.546009,-0.472972,-0.632499,98.471938,-72.762755,146.643775
12426,NaN,9.105604,3.519177,0.459496,0.989371,0.455522,-0.100810,0.317145,1.223825,0.181438,0.283814,-0.542085,-0.471833,-0.634797,96.455708,-72.950833,148.951277
12427,NaN,9.200573,3.455864,0.504142,0.899764,0.439320,-0.022680,0.282999,1.202742,0.190502,0.287997,-0.538275,-0.470583,-0.637079,94.419023,-73.117060,151.257875
12428,NaN,9.222160,3.402807,0.454605,0.799880,0.320391,-0.010103,0.243883,1.190359,0.205675,0.292095,-0.534577,-0.469156,-0.639375,92.341455,-73.268953,153.581475
12429,NaN,9.099133,3.389869,0.551208,0.834253,0.300283,-0.127531,0.188013,1.162738,0.218439,0.295997,-0.531057,-0.467552,-0.641685,90.251219,-73.401543,155.883506
12430,NaN,8.950500,3.300793,0.597219,0.791289,0.264725,-0.290798,0.157783,1.104054,0.237226,0.299743,-0.527798,-0.465860,-0.643861,88.220628,-73.523214,158.103377
12431,NaN,8.824642,3.223607,0.758558,0.802927,0.340668,-0.427594,0.129162,1.008356,0.247202,0.303203,-0.524895,-0.464191,-0.645818,86.333222,-73.629770,160.155942
12432,NaN,8.718998,3.139774,0.934969,0.812982,0.444683,-0.544781,0.105428,0.896466,0.245897,0.306341,-0.522376,-0.462595,-0.647522,84.624067,-73.724094,162.007179
12433,NaN,8.625464,3.116759,0.965726,0.820440,0.404718,-0.636186,0.111991,0.745474,0.256086,0.309162,-0.520345,-0.461229,-0.648789,83.196264,-73.817327,163.568796
12434,NaN,8.687844,3.137799,1.071927,0.862225,0.442809,-0.564243,0.134742,0.574108,0.283303,0.311743,-0.518896,-0.460112,-0.649507,82.091170,-73.930701,164.806871
12435,NaN,8.697491,3.232091,0.796941,0.842720,0.109970,-0.538774,0.127390,0.420839,0.297750,0.313985,-0.517979,-0.459181,-0.649818,81.267839,-74.057307,165.747060
12436,NaN,8.815762,3.262242,0.386708,0.693850,-0.306272,-0.435369,0.111691,0.292329,0.312334,0.315949,-0.517541,-0.458348,-0.649803,80.669869,-74.202349,166.442604
12437,NaN,9.093948,3.269116,0.087269,0.530917,-0.595905,-0.181616,0.092624,0.227107,0.329377,0.317756,-0.517375,-0.457523,-0.649636,80.177759,-74.359459,167.016686
12438,NaN,9.500984,3.302482,-0.057647,0.420962,-0.746144,0.209505,0.075203,0.230761,0.338272,0.319565,-0.517249,-0.456598,-0.649499,79.650735,-74.521785,167.615822
12439,NaN,9.826479,3.283415,-0.032492,0.350981,-0.729956,0.516174,0.035929,0.282754,0.337450,0.321375,-0.517007,-0.455476,-0.649587,78.986797,-74.674416,168.333590
12440,NaN,9.886631,3.326977,0.092424,0.441703,-0.667658,0.588357,0.008765,0.343697,0.335999,0.323260,-0.516611,-0.454155,-0.649891,78.164149,-74.818851,169.198807
12441,NaN,9.929541,3.355065,0.232769,0.525679,-0.591930,0.640995,-0.011753,0.397062,0.326850,0.325168,-0.516044,-0.452718,-0.650393,77.211767,-74.946025,170.186130
12442,NaN,9.868464,3.420935,0.245130,0.619143,-0.658284,0.595605,-0.031242,0.435333,0.318729,0.327097,-0.515369,-0.451158,-0.651044,76.151625,-75.061136,171.272434
12443,NaN,9.920200,3.479470,0.328053,0.701955,-0.654567,0.661244,-0.035019,0.457032,0.320502,0.329055,-0.514624,-0.449557,-0.651754,75.032088,-75.166641,172.417898
12444,NaN,9.892305,3.440071,0.357324,0.696710,-0.668633,0.622192,-0.045016,0.477556,0.311742,0.331016,-0.513811,-0.447894,-0.652547,73.847991,-75.260323,173.623184
12445,NaN,9.760986,3.397973,0.243048,0.660704,-0.817759,0.472088,-0.059173,0.477675,0.324087,0.332964,-0.513037,-0.446166,-0.653348,72.638842,-75.352124,174.846016
12446,NaN,9.637088,3.341001,0.185040,0.632583,-0.908276,0.328545,-0.069815,0.464098,0.346637,0.334940,-0.512379,-0.444348,-0.654093,71.415080,-75.454170,176.076561
12447,NaN,9.660781,3.201087,0.060000,0.470742,-1.024982,0.302092,-0.072709,0.446741,0.374954,0.336945,-0.511834,-0.442491,-0.654749,70.194995,-75.565944,177.301606
12448,NaN,9.893055,3.095612,0.078622,0.345708,-1.019770,0.497588,-0.053676,0.425393,0.411860,0.339084,-0.511411,-0.440616,-0.655239,68.975073,-75.697443,178.536464
12449,NaN,10.076688,2.995621,0.310638,0.320335,-0.821813,0.667367,-0.042513,0.435086,0.434836,0.341329,-0.510977,-0.438718,-0.655686,67.707631,-75.830238,179.826887
12450,NaN,10.348384,2.890253,0.591569,0.286713,-0.582723,0.928373,-0.033240,0.501685,0.425442,0.343727,-0.510289,-0.436737,-0.656291,66.282631,-75.937838,-178.716099
12451,NaN,10.551308,2.772832,0.947642,0.282404,-0.279794,1.130720,-0.028620,0.609378,0.420710,0.346334,-0.509218,-0.434613,-0.657162,64.629020,-76.005617,-177.020563
12452,NaN,10.630188,2.630269,1.154477,0.226107,-0.117130,1.195787,-0.024788,0.723333,0.428321,0.349236,-0.507781,-0.432259,-0.658290,62.711477,-76.037574,-175.051866
12453,NaN,10.604168,2.556541,1.355565,0.250856,0.004621,1.176309,-0.015877,0.824614,0.452576,0.352435,-0.506030,-0.429707,-0.659602,60.571498,-76.035330,-172.848075
12454,NaN,10.626955,2.529564,1.225994,0.185119,-0.208359,1.176181,0.007045,0.904261,0.496966,0.356019,-0.504067,-0.426948,-0.660971,58.228536,-76.012866,-170.422217
12455,NaN,10.925104,2.647527,1.101308,0.189788,-0.492641,1.470054,0.062948,0.962665,0.567171,0.360073,-0.501939,-0.424100,-0.662226,55.738499,-75.979390,-167.810679
12456,NaN,11.135836,2.877488,1.001316,0.331790,-0.807537,1.699294,0.102607,1.058509,0.632391,0.364650,-0.499551,-0.421013,-0.663496,53.012631,-75.917284,-164.932874
12457,NaN,11.302047,3.186667,1.223896,0.675668,-0.865843,1.942356,0.130595,1.135558,0.693464,0.369630,-0.496958,-0.417730,-0.664761,50.122427,-75.819420,-161.867195
12458,NaN,11.292234,3.425962,1.544417,1.035513,-0.806696,2.015749,0.099623,1.209143,0.745563,0.374860,-0.494270,-0.414038,-0.666146,47.050341,-75.678661,-158.631438
12459,NaN,11.455278,3.495514,1.927976,1.225213,-0.651222,2.238515,0.044558,1.257303,0.799430,0.380195,-0.491603,-0.409940,-0.667629,43.869734,-75.495992,-155.312901
12460,NaN,11.496356,3.432659,2.162730,1.275659,-0.581957,2.297565,-0.010798,1.259244,0.852998,0.385573,-0.489124,-0.405476,-0.669089,40.643509,-75.288398,-151.978058
12461,NaN,11.248810,3.279036,2.281567,1.273370,-0.552041,2.043309,-0.050720,1.225167,0.901343,0.390906,-0.486898,-0.400827,-0.670418,37.470836,-75.065742,-148.717882
12462,NaN,10.690415,3.177423,2.507179,1.427143,-0.391584,1.521978,-0.077395,1.171682,0.932272,0.396167,-0.484946,-0.396071,-0.671570,34.382504,-74.833972,-145.558514
12463,NaN,10.347738,3.051165,2.432620,1.412577,-0.508379,1.143916,-0.111857,1.054582,0.975442,0.401218,-0.483507,-0.391332,-0.672387,31.440746,-74.628346,-142.567059
12464,NaN,10.514617,2.932009,2.437288,1.334276,-0.622938,1.274419,-0.167609,0.918591,1.054100,0.406131,-0.482775,-0.386442,-0.672791,28.529575,-74.473435,-139.639106
12465,NaN,10.685285,2.748640,2.298670,1.161379,-0.842191,1.365597,-0.219034,0.847942,1.115739,0.410951,-0.482472,-0.381383,-0.672969,25.617278,-74.330693,-136.737133
12466,NaN,10.541056,2.528916,2.114540,1.011044,-1.029770,1.137011,-0.237337,0.800369,1.156500,0.415773,-0.482429,-0.376215,-0.672946,22.700023,-74.183230,-133.840170
12467,NaN,10.471854,2.391394,2.333480,1.062253,-0.888230,1.091636,-0.255439,0.715882,1.205280,0.420515,-0.482766,-0.371055,-0.672623,19.813712,-74.051285,-130.982730
12468,NaN,10.466263,2.230580,2.783825,1.166854,-0.534947,1.169940,-0.288828,0.611337,1.241093,0.425104,-0.483577,-0.365869,-0.671997,16.938987,-73.943469,-128.156967
12469,NaN,10.397257,1.909992,2.914800,1.032480,-0.387616,1.097352,-0.310652,0.490957,1.240563,0.429375,-0.484806,-0.360879,-0.671094,14.171301,-73.864081,-125.452777
12470,NaN,10.616873,1.623741,3.023439,0.880566,-0.329810,1.305301,-0.314864,0.413176,1.241400,0.433501,-0.486294,-0.355994,-0.669973,11.446630,-73.791968,-122.796365
12471,NaN,10.852146,1.358847,3.171085,0.765540,-0.249348,1.546057,-0.324841,0.426941,1.258290,0.437643,-0.487755,-0.351019,-0.668842,8.725041,-73.679345,-120.146308
12472,NaN,11.142982,1.071921,3.018069,0.524066,-0.453916,1.760597,-0.335805,0.495159,1.271095,0.441922,-0.489022,-0.345780,-0.667831,5.985000,-73.492804,-117.483104
12473,NaN,11.480319,0.844879,3.061293,0.402045,-0.532615,2.079966,-0.333559,0.624448,1.285668,0.446434,-0.489843,-0.340242,-0.667073,3.285804,-73.198637,-114.856270
12474,NaN,11.469965,0.612762,3.095439,0.312266,-0.549395,2.066504,-0.338442,0.813728,1.257301,0.451159,-0.489978,-0.334283,-0.666808,0.713217,-72.759934,-112.361298
12475,NaN,11.252554,0.444004,3.126248,0.289448,-0.552767,1.857715,-0.325082,0.997644,1.210038,0.456017,-0.489351,-0.328083,-0.667043,-1.613600,-72.186752,-110.107503
12476,NaN,10.733486,0.325094,3.150083,0.327415,-0.502861,1.361992,-0.280803,1.138499,1.192581,0.461148,-0.488103,-0.321697,-0.667540,-3.738838,-71.505826,-108.032877
12477,NaN,10.379212,0.350238,3.057950,0.427944,-0.654869,0.984851,-0.216971,1.235773,1.206486,0.466583,-0.486361,-0.315277,-0.668097,-5.671314,-70.748138,-106.112810
12478,NaN,10.284105,0.529605,3.184330,0.720120,-0.753210,0.915513,-0.185526,1.298183,1.228609,0.472253,-0.484343,-0.308705,-0.668648,-7.474234,-69.931619,-104.303721
12479,NaN,9.737300,0.714149,3.601976,1.155554,-0.449583,0.519730,-0.190815,1.352440,1.247265,0.477995,-0.482137,-0.301951,-0.669246,-9.141136,-69.066999,-102.631452
12480,NaN,8.430494,0.769357,4.088148,1.547875,0.243887,-0.543361,-0.284128,1.285639,1.226886,0.483327,-0.480316,-0.295034,-0.669811,-10.729137,-68.223463,-101.093649
12481,NaN,7.122975,0.593614,4.206467,1.582460,0.749959,-1.706187,-0.428197,1.092505,1.187050,0.487836,-0.479386,-0.288212,-0.670178,-12.273311,-67.480387,-99.681663
12482,NaN,6.390045,0.193372,4.247360,1.338057,1.100909,-2.335612,-0.527081,0.774534,1.167937,0.491578,-0.479715,-0.281826,-0.669924,-13.867335,-66.900413,-98.272388
12483,NaN,5.960816,-0.194985,3.914087,0.950610,1.050122,-2.821104,-0.579793,0.409759,1.146748,0.494563,-0.481330,-0.276233,-0.668898,-15.507131,-66.512967,-96.838836
12484,NaN,6.124262,-0.619919,3.403617,0.436970,0.659431,-2.823478,-0.601264,0.054841,1.111762,0.496890,-0.484129,-0.271482,-0.667096,-17.212691,-66.307348,-95.345971
12485,NaN,6.680783,-1.021177,3.070366,0.003466,0.273409,-2.394645,-0.598054,-0.171884,1.067412,0.498730,-0.487584,-0.267438,-0.664836,-18.917721,-66.217939,-93.847721
12486,NaN,7.159422,-1.312803,3.063871,-0.190372,0.165832,-1.919426,-0.563801,-0.295840,1.023969,0.500345,-0.491304,-0.263877,-0.662302,-20.604936,-66.183350,-92.349046
12487,NaN,7.327914,-1.417841,3.302023,-0.103915,0.330057,-1.658459,-0.523341,-0.377478,0.994096,0.501815,-0.495123,-0.260754,-0.659577,-22.256811,-66.183641,-90.861273
12488,NaN,7.636887,-1.574323,3.403022,-0.114311,0.345298,-1.312805,-0.497462,-0.401579,0.947608,0.503168,-0.498893,-0.257848,-0.656843,-23.860804,-66.187207,-89.411841
12489,NaN,7.947387,-1.666070,3.457305,-0.081690,0.297804,-0.992619,-0.473707,-0.340043,0.897200,0.504460,-0.502308,-0.255018,-0.654349,-25.347060,-66.157780,-88.073986
12490,NaN,8.127355,-1.871205,3.367253,-0.213339,0.215561,-0.823746,-0.443614,-0.201818,0.858569,0.505883,-0.505145,-0.251993,-0.652234,-26.696953,-66.050611,-86.867816
12491,NaN,7.892796,-2.065326,2.839883,-0.528809,-0.079520,-1.190608,-0.412710,-0.057495,0.832263,0.507451,-0.507377,-0.248799,-0.650508,-27.891196,-65.868977,-85.809298
12492,NaN,7.283004,-2.199024,2.321620,-0.810228,-0.241239,-1.903662,-0.370039,0.011019,0.818111,0.509174,-0.509263,-0.245567,-0.648915,-28.995859,-65.645073,-84.822572
12493,NaN,6.972190,-2.253079,2.099245,-0.899802,-0.303736,-2.250124,-0.365545,-0.011374,0.802611,0.510803,-0.511169,-0.242475,-0.647296,-30.067196,-65.432122,-83.865974
12494,NaN,6.900673,-2.424448,1.940128,-1.064165,-0.365766,-2.329723,-0.401537,-0.033676,0.757597,0.512176,-0.513187,-0.239399,-0.645757,-31.116879,-65.232878,-82.956276
12495,NaN,6.736346,-2.777562,1.471110,-1.531887,-0.576434,-2.561610,-0.455795,-0.067238,0.685590,0.513111,-0.515348,-0.236449,-0.644380,-32.120610,-65.068065,-82.128316
12496,NaN,6.467348,-3.226992,1.476223,-1.897935,-0.305984,-2.690661,-0.478368,-0.114649,0.624026,0.513743,-0.517648,-0.233669,-0.643045,-33.101698,-64.935896,-81.340441
12497,NaN,5.993087,-3.541680,1.563835,-2.124452,0.078155,-3.001921,-0.418412,-0.217073,0.572186,0.514218,-0.520049,-0.231508,-0.641508,-34.049624,-64.866762,-80.548977
12498,NaN,5.758158,-3.577711,1.654282,-2.086443,0.272210,-3.159457,-0.347861,-0.413063,0.507365,0.514454,-0.522822,-0.230211,-0.639529,-35.031585,-64.902200,-79.676799
12499,NaN,5.872456,-3.528583,1.919859,-1.871301,0.447832,-2.962877,-0.310905,-0.624321,0.445052,0.514318,-0.526090,-0.229764,-0.637114,-36.079487,-65.053582,-78.707779
12500,NaN,6.376628,-3.390847,2.151898,-1.555007,0.416009,-2.450731,-0.271468,-0.785739,0.385766,0.513920,-0.529699,-0.229980,-0.634362,-37.184864,-65.288417,-77.653421
12501,NaN,7.127681,-3.281652,2.447797,-1.206637,0.364483,-1.690161,-0.265181,-0.901838,0.348977,0.513260,-0.533601,-0.230634,-0.631381,-38.355924,-65.583103,-76.523988
12502,NaN,7.919781,-3.338348,2.663378,-1.026662,0.307589,-0.878945,-0.306773,-0.929499,0.294670,0.512289,-0.537626,-0.231339,-0.628491,-39.552157,-65.896682,-75.396934
12503,NaN,8.735296,-3.518232,2.769905,-0.996028,0.206694,-0.049477,-0.312939,-0.816677,0.234701,0.511215,-0.541227,-0.231917,-0.626057,-40.622753,-66.176849,-74.412885
12504,NaN,9.454236,-3.539747,2.770756,-0.882676,-0.008449,0.618512,-0.223776,-0.576736,0.211046,0.510595,-0.543816,-0.232195,-0.624214,-41.438253,-66.352416,-73.654373
12505,NaN,9.561780,-3.463654,2.721007,-0.784129,-0.087044,0.685210,-0.160438,-0.266710,0.202046,0.510459,-0.545259,-0.231928,-0.623164,-41.942853,-66.398339,-73.195410
12506,NaN,9.296362,-3.419714,2.473836,-0.857958,-0.204683,0.358773,-0.180952,0.017684,0.186907,0.510565,-0.545852,-0.230886,-0.622945,-42.199338,-66.324780,-73.020892
12507,NaN,8.828015,-3.589509,2.056741,-1.232940,-0.327420,-0.147223,-0.202628,0.222189,0.172722,0.510787,-0.545844,-0.229318,-0.623349,-42.270778,-66.172808,-73.061220
12508,NaN,8.378867,-3.746581,1.900700,-1.487296,-0.252750,-0.561799,-0.187120,0.374015,0.140724,0.511140,-0.545287,-0.227472,-0.624224,-42.174845,-65.965656,-73.275737
12509,NaN,8.000553,-3.914666,1.954152,-1.658084,-0.030011,-0.845976,-0.162568,0.486155,0.084445,0.511493,-0.544250,-0.225591,-0.625521,-41.916050,-65.735143,-73.653057
12510,NaN,7.656923,-4.057511,2.182020,-1.731127,0.313598,-1.051535,-0.109951,0.552228,0.017004,0.511864,-0.542791,-0.223865,-0.627102,-41.517406,-65.498182,-74.152144
12511,NaN,7.489205,-4.068259,2.455088,-1.654272,0.574442,-1.117884,-0.027964,0.599309,-0.048253,0.512288,-0.540899,-0.222473,-0.628884,-40.978543,-65.266793,-74.754218
12512,NaN,7.377608,-3.895229,2.667370,-1.443385,0.689501,-1.201197,0.058402,0.651568,-0.095071,0.512865,-0.538562,-0.221321,-0.630823,-40.317592,-65.024674,-75.437964
12513,NaN,7.038325,-3.781263,3.051803,-1.237786,1.061681,-1.416860,0.107594,0.685047,-0.160065,0.513388,-0.535918,-0.220430,-0.632957,-39.552599,-64.790854,-76.206375
12514,NaN,6.317827,-3.629506,3.503573,-1.008618,1.636690,-1.959855,0.128909,0.663852,-0.215110,0.513777,-0.533216,-0.219786,-0.635144,-38.755511,-64.579292,-76.998609
12515,NaN,5.718399,-3.577024,3.938313,-0.858753,2.196995,-2.366809,0.115837,0.505270,-0.277414,0.513742,-0.530981,-0.219689,-0.637076,-38.035339,-64.458995,-77.714650
12516,NaN,5.684298,-3.488616,4.173679,-0.708549,2.358268,-2.340222,0.108336,0.242518,-0.321554,0.513266,-0.529546,-0.220342,-0.638427,-37.476633,-64.467440,-78.257217
12517,NaN,6.252298,-3.301872,4.099950,-0.554660,1.992135,-1.905295,0.111068,-0.013070,-0.364662,0.512366,-0.528872,-0.221787,-0.639207,-37.058022,-64.607278,-78.642189
12518,NaN,7.149321,-3.074436,4.055756,-0.323533,1.515108,-1.174763,0.108968,-0.207028,-0.389836,0.511173,-0.528791,-0.223773,-0.639537,-36.754272,-64.841706,-78.901234
12519,NaN,8.021557,-2.793359,4.111556,-0.003521,1.128731,-0.443650,0.095338,-0.313372,-0.418419,0.509722,-0.529051,-0.226074,-0.639671,-36.501275,-65.135812,-79.111983
12520,NaN,8.794401,-2.503412,4.155955,0.309197,0.783051,0.195884,0.063419,-0.329490,-0.433591,0.508123,-0.529422,-0.228339,-0.639832,-36.259440,-65.440575,-79.330416
12521,NaN,9.416057,-2.367283,4.007255,0.384722,0.401791,0.676096,0.008324,-0.275693,-0.424306,0.506459,-0.529767,-0.230277,-0.640171,-36.011316,-65.718284,-79.589544
12522,NaN,9.689425,-2.280677,4.249714,0.563572,0.500398,0.984459,-0.079340,-0.160848,-0.396235,0.504789,-0.529995,-0.231557,-0.640838,-35.752853,-65.931410,-79.914933
12523,NaN,9.596494,-2.362056,4.540208,0.588493,0.838230,1.014891,-0.166772,-0.017073,-0.366129,0.503142,-0.530016,-0.232124,-0.641912,-35.461494,-66.068162,-80.330304
12524,NaN,9.491755,-2.450905,4.740128,0.569258,1.094373,1.006159,-0.198532,0.079861,-0.305166,0.501723,-0.529874,-0.232171,-0.643120,-35.178855,-66.137273,-80.756129
12525,NaN,9.529711,-2.501741,4.634862,0.460811,1.015960,1.018356,-0.213632,0.124124,-0.242334,0.500510,-0.529697,-0.231903,-0.644307,-34.934575,-66.165262,-81.148828
12526,NaN,9.593978,-2.528969,4.277964,0.263355,0.702382,0.965919,-0.207907,0.184910,-0.209705,0.499492,-0.529349,-0.231402,-0.645562,-34.678771,-66.152183,-81.551002
12527,NaN,9.755004,-2.435690,4.001277,0.212457,0.362539,1.000559,-0.161369,0.243912,-0.174616,0.498772,-0.528729,-0.230822,-0.646833,-34.388507,-66.100031,-81.961272
12528,NaN,9.862168,-2.384301,3.492602,0.012032,-0.139187,0.916988,-0.163688,0.340274,-0.161292,0.498204,-0.527821,-0.229947,-0.648323,-34.048549,-65.996076,-82.428152
12529,NaN,9.787641,-2.343623,3.395313,-0.026115,-0.233371,0.806321,-0.152586,0.451285,-0.157422,0.497797,-0.526523,-0.228830,-0.650083,-33.628595,-65.837706,-82.975612
12530,NaN,9.108978,-2.285225,3.541591,0.029728,0.103784,0.223584,-0.124824,0.517728,-0.156502,0.497545,-0.524941,-0.227624,-0.651976,-33.156734,-65.644629,-83.563865
12531,NaN,8.566034,-2.072905,3.751679,0.262439,0.378081,-0.245190,-0.100077,0.458873,-0.126817,0.497378,-0.523516,-0.226576,-0.653612,-32.747631,-65.469636,-84.067901
12532,NaN,8.413822,-1.815903,3.925421,0.544455,0.450252,-0.378727,-0.131290,0.348436,-0.082812,0.497152,-0.522581,-0.225575,-0.654878,-32.485509,-65.332247,-84.431143
12533,NaN,8.534506,-1.730122,4.058509,0.675909,0.451428,-0.239709,-0.221732,0.264322,-0.066608,0.496640,-0.522158,-0.224453,-0.655988,-32.348368,-65.230841,-84.713584
12534,NaN,8.587432,-1.867794,4.103754,0.574188,0.504537,-0.143708,-0.307919,0.203700,-0.049682,0.495895,-0.522169,-0.223144,-0.656988,-32.322727,-65.152628,-84.928403
12535,NaN,8.657248,-2.081406,3.908762,0.299501,0.391832,-0.101078,-0.337190,0.154888,-0.047561,0.495020,-0.522409,-0.221863,-0.657891,-32.345827,-65.098104,-85.107427
12536,NaN,9.013662,-2.138800,3.589034,0.115610,-0.002435,0.121513,-0.318507,0.142680,-0.040098,0.494207,-0.522655,-0.220644,-0.658716,-32.377482,-65.046525,-85.265963
12537,NaN,9.407327,-2.122885,3.684300,0.189427,-0.110879,0.508664,-0.315685,0.224194,-0.031282,0.493515,-0.522628,-0.219219,-0.659732,-32.360335,-64.953469,-85.475960
12538,NaN,9.387580,-2.183504,3.839400,0.205958,0.023829,0.559982,-0.333947,0.363261,-0.041122,0.492897,-0.522179,-0.217406,-0.661148,-32.257136,-64.795324,-85.793470
12539,NaN,9.016557,-2.185043,3.877393,0.203765,0.179089,0.238838,-0.318704,0.450107,-0.033297,0.492432,-0.521405,-0.215417,-0.662755,-32.097076,-64.593023,-86.163967
12540,NaN,8.436859,-2.174402,3.754107,0.130310,0.287510,-0.331011,-0.306408,0.450670,0.000387,0.492111,-0.520637,-0.213368,-0.664257,-31.971269,-64.379163,-86.490063
12541,NaN,8.288039,-2.160813,3.840641,0.179786,0.384021,-0.435515,-0.354756,0.299675,0.040514,0.491630,-0.520523,-0.211434,-0.665321,-32.008439,-64.226989,-86.665790
12542,NaN,8.316274,-2.311545,3.527868,-0.091435,0.169712,-0.490010,-0.430504,0.126024,0.070758,0.490871,-0.521208,-0.209585,-0.665929,-32.232042,-64.149440,-86.683550
12543,NaN,8.185038,-2.687677,3.058307,-0.634260,0.012373,-0.692971,-0.405926,0.001181,0.056431,0.489990,-0.522225,-0.208170,-0.666225,-32.502389,-64.137279,-86.632972
12544,NaN,7.994453,-2.835694,2.884776,-0.835421,0.026573,-0.892166,-0.307750,-0.068314,0.043609,0.489254,-0.523225,-0.207277,-0.666260,-32.751143,-64.161965,-86.544637
12545,NaN,7.887397,-2.825145,3.007751,-0.750985,0.174031,-0.944500,-0.235233,-0.138366,0.066237,0.488705,-0.524297,-0.206745,-0.665985,-33.023384,-64.213673,-86.383414
12546,NaN,8.055613,-2.700963,3.072155,-0.586773,0.110187,-0.797715,-0.179814,-0.226894,0.091030,0.488296,-0.525559,-0.206540,-0.665354,-33.350006,-64.299149,-86.127332
12547,NaN,8.237447,-2.616679,3.039141,-0.502451,-0.013486,-0.664671,-0.173838,-0.289045,0.086419,0.487818,-0.527002,-0.206526,-0.664568,-33.709086,-64.415607,-85.831066
12548,NaN,8.715523,-2.495994,2.762316,-0.497732,-0.468290,-0.359985,-0.148409,-0.318728,0.066474,0.487312,-0.528464,-0.206713,-0.663719,-34.059219,-64.551248,-85.529480
12549,NaN,9.049788,-2.500620,2.844530,-0.427460,-0.520121,-0.025462,-0.211012,-0.280343,0.026277,0.486542,-0.529904,-0.206711,-0.663136,-34.379933,-64.681441,-85.299956
12550,NaN,8.942231,-2.648464,3.061159,-0.433894,-0.217854,-0.008974,-0.255297,-0.132217,-0.041335,0.485585,-0.530893,-0.206374,-0.663151,-34.561256,-64.762605,-85.253378
12551,NaN,8.513627,-2.737550,3.516599,-0.289408,0.372168,-0.214759,-0.258358,0.048777,-0.072051,0.484701,-0.531254,-0.205676,-0.663725,-34.586932,-64.768940,-85.380338
12552,NaN,7.631178,-2.849668,4.263732,-0.035836,1.383859,-0.723214,-0.273177,0.142459,-0.078810,0.483854,-0.531335,-0.204711,-0.664576,-34.552020,-64.732663,-85.584175
12553,NaN,7.215601,-2.731611,4.597366,0.226108,1.766815,-1.009869,-0.255470,0.057748,-0.055507,0.483041,-0.531674,-0.203955,-0.665129,-34.586626,-64.729212,-85.699477
12554,NaN,7.454570,-2.492439,4.463608,0.380712,1.455993,-0.899675,-0.252716,-0.076964,-0.034739,0.482170,-0.532478,-0.203471,-0.665266,-34.735515,-64.782121,-85.687136
12555,NaN,7.893778,-2.323910,4.193658,0.414686,0.992574,-0.639801,-0.271166,-0.147532,-0.037216,0.481166,-0.533552,-0.203106,-0.665243,-34.939712,-64.869155,-85.624859
12556,NaN,8.265262,-2.178467,4.042669,0.489513,0.667099,-0.393624,-0.313695,-0.185880,-0.061033,0.479931,-0.534836,-0.202751,-0.665213,-35.174659,-64.981763,-85.556097
12557,NaN,8.378643,-2.198234,4.098302,0.523699,0.691508,-0.269237,-0.406719,-0.205485,-0.074426,0.478380,-0.536387,-0.202173,-0.665258,-35.462314,-65.107841,-85.487502
12558,NaN,8.450996,-2.346137,4.068485,0.406175,0.726924,-0.180306,-0.487658,-0.189089,-0.099333,0.476544,-0.538054,-0.201347,-0.665480,-35.763751,-65.234434,-85.455440
12559,NaN,8.709888,-2.531016,3.605519,0.036304,0.364429,-0.059033,-0.528954,-0.158781,-0.110858,0.474584,-0.539696,-0.200345,-0.665853,-36.053906,-65.350644,-85.461284
12560,NaN,8.940653,-2.714910,3.170620,-0.324120,0.032465,0.048992,-0.545775,-0.025209,-0.102689,0.472738,-0.540944,-0.198943,-0.666573,-36.267286,-65.402428,-85.562769
12561,NaN,8.682376,-2.890296,3.591596,-0.244945,0.553419,-0.000922,-0.507590,0.154000,-0.091489,0.471206,-0.541505,-0.197216,-0.667715,-36.334938,-65.367605,-85.799906
12562,NaN,7.913935,-2.889167,3.910541,-0.091487,1.110771,-0.591636,-0.409920,0.257562,-0.106653,0.469988,-0.541479,-0.195608,-0.669066,-36.258169,-65.290255,-86.135067
12563,NaN,7.297638,-2.690717,3.624352,-0.097739,1.042377,-1.295921,-0.275351,0.180543,-0.110475,0.469044,-0.541380,-0.194642,-0.670089,-36.155533,-65.249262,-86.413419
12564,NaN,7.203897,-2.257684,3.424951,0.154587,0.717826,-1.555304,-0.195484,0.001856,-0.087038,0.468220,-0.541723,-0.194298,-0.670488,-36.164531,-65.283234,-86.519045
12565,NaN,7.358749,-1.962151,2.993302,0.177226,0.189359,-1.633825,-0.209068,-0.207116,-0.065826,0.467228,-0.542809,-0.194340,-0.670290,-36.354089,-65.406155,-86.433936
12566,NaN,7.830312,-1.694353,2.437292,0.126053,-0.537933,-1.456875,-0.267761,-0.433964,-0.059849,0.465872,-0.544804,-0.194697,-0.669511,-36.758015,-65.631737,-86.150913
12567,NaN,8.550126,-1.582096,1.641708,-0.172734,-1.458286,-1.086509,-0.325278,-0.592410,-0.112513,0.464026,-0.547399,-0.195374,-0.668478,-37.267366,-65.946594,-85.788475
12568,NaN,9.206626,-1.794740,1.670285,-0.286114,-1.542833,-0.415330,-0.428732,-0.646650,-0.136831,0.461756,-0.550393,-0.195893,-0.667439,-37.868670,-66.293554,-85.391792
12569,NaN,9.748818,-2.126308,2.089738,-0.279932,-1.212468,0.305554,-0.494749,-0.578100,-0.133690,0.459374,-0.553298,-0.196026,-0.666642,-38.466751,-66.606670,-85.040378
12570,NaN,10.155228,-2.332322,2.421057,-0.219592,-0.959911,0.839070,-0.492709,-0.457762,-0.110658,0.457187,-0.555819,-0.195819,-0.666108,-39.001496,-66.856484,-84.757890
12571,NaN,10.225572,-2.529746,2.536598,-0.289436,-0.754939,0.992053,-0.426720,-0.297244,-0.116968,0.455313,-0.557638,-0.195484,-0.665969,-39.360081,-67.036464,-84.625748
12572,NaN,10.262454,-2.532018,2.654041,-0.209779,-0.649469,1.064222,-0.367154,-0.096746,-0.126987,0.453768,-0.558647,-0.194915,-0.666346,-39.506660,-67.131078,-84.687324
12573,NaN,10.371886,-2.442005,3.010313,0.068886,-0.457016,1.250214,-0.328527,0.162357,-0.137209,0.452545,-0.558688,-0.193919,-0.667433,-39.394422,-67.114963,-85.005343
12574,NaN,10.320429,-2.447074,3.403863,0.268437,-0.153338,1.322391,-0.335090,0.498235,-0.145189,0.451601,-0.557616,-0.192157,-0.669475,-38.994411,-66.951866,-85.640633
12575,NaN,9.759945,-2.504922,3.384127,0.156109,0.032218,0.815463,-0.308692,0.819109,-0.147813,0.451023,-0.555395,-0.189769,-0.672386,-38.316456,-66.644014,-86.562532
12576,NaN,9.237960,-2.548883,3.404575,0.071833,0.209846,0.354809,-0.314282,0.993967,-0.134160,0.450632,-0.552604,-0.186920,-0.675737,-37.540164,-66.247542,-87.598098
12577,NaN,8.517342,-2.732743,3.719803,0.044714,0.758837,-0.154972,-0.415417,1.065305,-0.144755,0.449977,-0.549768,-0.183597,-0.679388,-36.783434,-65.816817,-88.678493
12578,NaN,7.561558,-3.093143,3.283822,-0.554080,0.949839,-1.076638,-0.393220,1.033109,-0.211244,0.449115,-0.546918,-0.180594,-0.683054,-36.004597,-65.417559,-89.773189
12579,NaN,6.533383,-3.176592,3.021257,-0.817312,1.181206,-2.077033,-0.200961,0.839477,-0.263592,0.448413,-0.544230,-0.178825,-0.686120,-35.228517,-65.119823,-90.746155
12580,NaN,6.222896,-2.774216,3.632049,-0.166227,1.518329,-2.244369,-0.046203,0.498518,-0.277394,0.447774,-0.542351,-0.178382,-0.688138,-34.609002,-64.981925,-91.450830
12581,NaN,6.523043,-2.245643,4.134220,0.526855,1.469233,-1.922914,0.003676,0.137820,-0.283825,0.446925,-0.541587,-0.178937,-0.689147,-34.207125,-65.013680,-91.883721
12582,NaN,7.340987,-1.859769,4.069080,0.776971,0.885331,-1.296897,-0.074758,-0.209790,-0.265720,0.445612,-0.542216,-0.179947,-0.689239,-34.109304,-65.203917,-92.030986
12583,NaN,8.239136,-1.768354,3.875121,0.728751,0.355470,-0.573134,-0.189180,-0.473221,-0.234369,0.443860,-0.544025,-0.181065,-0.688651,-34.290938,-65.508411,-91.942162
12584,NaN,8.904599,-1.841083,3.842345,0.663804,0.151671,0.035206,-0.256741,-0.674256,-0.210184,0.441819,-0.546700,-0.182327,-0.687511,-34.688016,-65.900329,-91.660141
12585,NaN,9.545708,-1.900737,3.781421,0.610320,-0.050199,0.611169,-0.338582,-0.817782,-0.172074,0.439548,-0.550067,-0.183519,-0.685963,-35.289151,-66.345515,-91.206656
12586,NaN,10.041850,-1.986360,3.716037,0.553106,-0.168422,1.061966,-0.444989,-0.902566,-0.107074,0.437118,-0.554013,-0.184348,-0.684115,-36.110874,-66.806656,-90.581294
12587,NaN,10.227236,-2.231310,3.628613,0.373106,-0.086496,1.259538,-0.564181,-0.923106,-0.037545,0.434566,-0.558330,-0.184619,-0.682156,-37.119886,-67.248927,-89.828249
12588,NaN,10.182299,-2.658080,3.605217,0.099575,0.232440,1.308333,-0.662360,-0.915910,0.025623,0.431947,-0.562886,-0.184355,-0.680143,-38.285792,-67.660654,-88.969132
12589,NaN,9.804578,-2.939907,3.641485,-0.016829,0.636438,1.032900,-0.687906,-0.883328,0.085691,0.429479,-0.567415,-0.183761,-0.678100,-39.536763,-68.028710,-88.035826
12590,NaN,9.112092,-3.206918,3.408459,-0.286503,0.943582,0.383320,-0.756645,-0.906358,0.156650,0.427019,-0.572225,-0.182774,-0.675875,-40.966191,-68.372700,-86.955622
12591,NaN,8.490679,-3.556720,3.251100,-0.569620,1.321645,-0.156653,-0.890966,-0.975581,0.226246,0.424333,-0.577588,-0.181275,-0.673405,-42.653127,-68.708051,-85.683435
12592,NaN,7.595801,-4.098998,3.432923,-0.789677,2.157637,-0.812559,-1.040425,-1.082269,0.292146,0.421316,-0.583666,-0.179299,-0.670581,-44.657112,-69.046962,-84.166611
12593,NaN,5.956694,-4.583498,2.922835,-1.430853,2.714859,-2.355178,-1.116629,-1.108976,0.272536,0.417965,-0.589932,-0.177169,-0.667755,-46.766113,-69.383914,-82.587104
12594,NaN,4.605094,-5.088924,2.547668,-2.016674,3.274859,-3.583575,-1.117671,-1.129796,0.182705,0.414263,-0.596162,-0.175334,-0.665008,-48.869828,-69.747008,-81.017982
12595,NaN,3.545700,-5.346789,2.430196,-2.254709,3.769091,-4.542464,-1.040296,-1.277394,0.139336,0.410498,-0.602636,-0.174174,-0.661805,-51.128079,-70.161017,-79.240702
12596,NaN,3.009733,-5.317866,1.556049,-2.759929,3.360824,-5.246908,-0.892100,-1.565252,0.078844,0.406690,-0.609670,-0.174270,-0.657674,-53.703138,-70.678423,-77.042663
12597,NaN,3.198801,-4.996872,0.360315,-3.227163,2.307729,-5.386644,-0.774583,-1.892281,-0.079536,0.402410,-0.617337,-0.175873,-0.652710,-56.644323,-71.339315,-74.393857
12598,NaN,3.576946,-4.596349,-0.712955,-3.546460,1.246948,-5.307581,-0.710879,-2.176876,-0.242145,0.397485,-0.625598,-0.178749,-0.647056,-60.036953,-72.118591,-71.242755
12599,NaN,3.736521,-4.391866,-0.932434,-3.462882,1.006896,-5.217810,-0.692402,-2.364064,-0.406075,0.391878,-0.634184,-0.182529,-0.641035,-63.877121,-72.964990,-67.625673
12600,NaN,3.707906,-4.236326,-1.138784,-3.428726,0.868830,-5.287254,-0.635872,-2.528962,-0.595176,0.385614,-0.642915,-0.187397,-0.634700,-68.217055,-73.871814,-63.470488
12601,NaN,4.136521,-3.846818,-1.407044,-3.210762,0.430951,-4.976127,-0.473659,-2.727412,-0.753173,0.379126,-0.651689,-0.193616,-0.627757,-73.235348,-74.799343,-58.533448
12602,NaN,5.266254,-3.079118,-1.239538,-2.317255,-0.052388,-4.035494,-0.325668,-2.923269,-0.900801,0.372366,-0.660512,-0.201127,-0.620174,-79.132319,-75.707960,-52.621807
12603,NaN,6.867053,-2.177941,-1.362704,-1.424334,-0.859318,-2.672274,-0.271224,-2.955176,-1.063568,0.365178,-0.669008,-0.209336,-0.612579,-85.759035,-76.539146,-45.949183
12604,NaN,8.300122,-1.651669,-2.622751,-1.564966,-2.161147,-1.364393,-0.287972,-2.695352,-1.179502,0.357746,-0.676460,-0.217377,-0.605942,-92.518960,-77.245188,-39.171114
12605,NaN,9.762572,-1.479835,-3.550103,-1.733343,-2.932623,0.111545,-0.252270,-2.221101,-1.260610,0.350654,-0.682197,-0.224893,-0.600894,-98.723043,-77.842966,-32.958503
12606,NaN,10.767523,-1.222580,-3.575167,-1.345229,-3.002678,1.113703,-0.124712,-1.605974,-1.275308,0.344579,-0.685749,-0.231751,-0.597750,-103.770950,-78.385968,-27.866001
12607,NaN,11.114969,-0.714934,-3.402531,-0.803352,-3.039496,1.400879,-0.015468,-1.011344,-1.312625,0.339440,-0.687239,-0.238003,-0.596521,-107.588675,-78.956128,-23.974272
12608,NaN,10.997526,-0.239214,-3.174665,-0.375158,-3.008090,1.227675,0.009236,-0.564289,-1.408699,0.334596,-0.687189,-0.243901,-0.596933,-110.609785,-79.618016,-20.887069
12609,NaN,10.802931,0.189937,-3.061469,-0.102043,-3.054578,0.993277,0.021969,-0.272012,-1.502755,0.329863,-0.686099,-0.249644,-0.598445,-113.253981,-80.360803,-18.182108
12610,NaN,10.197839,0.362107,-3.259094,-0.305536,-3.166334,0.416079,0.019433,-0.058653,-1.543202,0.325235,-0.684275,-0.255164,-0.600734,-115.704131,-81.156109,-15.681364
12611,NaN,9.919920,0.372775,-2.833235,-0.175504,-2.739592,0.138833,0.054626,0.101574,-1.594116,0.320768,-0.681815,-0.260678,-0.603560,-118.140546,-81.998892,-13.179749
12612,NaN,10.218372,0.549615,-1.856831,0.505760,-2.040023,0.372855,0.142498,0.288907,-1.615045,0.316751,-0.678565,-0.266220,-0.606914,-120.412818,-82.891118,-10.798164
12613,NaN,10.760139,0.889751,-1.179609,1.124337,-1.680396,0.858456,0.175060,0.349261,-1.607207,0.312932,-0.675056,-0.271713,-0.610364,-123.039059,-83.781442,-8.046154
12614,NaN,10.967749,1.190378,-1.137595,1.249793,-1.763551,1.065182,0.161362,0.335621,-1.556948,0.309176,-0.671622,-0.277006,-0.613679,-126.444573,-84.627899,-4.523216
12615,NaN,10.641986,1.302980,-0.355783,1.670358,-1.159809,0.720055,0.150800,0.307764,-1.527266,0.305421,-0.668299,-0.282187,-0.616819,-131.137604,-85.422280,0.281151
12616,NaN,10.313580,1.401405,0.599833,2.203117,-0.416538,0.368876,0.165161,0.271237,-1.538353,0.301605,-0.664999,-0.287492,-0.619806,-138.025053,-86.163012,7.288994
12617,NaN,9.972471,1.663851,0.933833,2.466915,-0.249905,0.033149,0.176008,0.176732,-1.505954,0.297774,-0.661990,-0.292845,-0.622368,-148.214334,-86.764310,17.605524
12618,NaN,9.745681,1.866581,0.802046,2.409379,-0.394755,-0.161620,0.153873,0.018077,-1.407710,0.293924,-0.659606,-0.298028,-0.624266,-161.870408,-87.116848,31.376206
12619,NaN,10.013913,1.995245,0.668734,2.336002,-0.475233,0.138310,0.123709,-0.152576,-1.323092,0.289971,-0.657901,-0.303072,-0.625484,-177.204112,-87.166648,46.806795
12620,NaN,10.662143,2.042605,0.314772,2.081109,-0.644516,0.827079,0.073838,-0.298136,-1.229376,0.285914,-0.656830,-0.307851,-0.626143,169.274026,-86.943148,60.395787
12621,NaN,11.570733,1.905271,-0.035752,1.696197,-0.663357,1.771542,0.040641,-0.344964,-1.172948,0.281840,-0.656018,-0.312397,-0.626590,158.780508,-86.561987,70.936424
12622,NaN,12.382558,1.728170,0.006039,1.523246,-0.350493,2.591726,0.026762,-0.282749,-1.132972,0.277934,-0.655065,-0.316668,-0.627188,150.620591,-86.132325,79.135287
12623,NaN,12.819905,1.614455,-0.382433,1.103032,-0.429915,3.059745,0.045234,-0.159242,-1.077629,0.274446,-0.653768,-0.320636,-0.628060,144.002060,-85.715609,85.803586
12624,NaN,13.111766,1.538914,-0.834737,0.659812,-0.603957,3.385109,0.110585,-0.030032,-1.021396,0.271549,-0.652044,-0.324437,-0.629158,138.346756,-85.329263,91.546788
12625,NaN,13.134517,1.570111,-1.099499,0.411008,-0.741696,3.433796,0.185047,0.131560,-0.969208,0.269312,-0.649781,-0.328077,-0.630572,133.114523,-84.988819,96.911203
12626,NaN,12.609073,1.647757,-0.817781,0.548526,-0.563021,2.905549,0.256316,0.332924,-0.912214,0.267812,-0.646862,-0.331474,-0.632433,127.870598,-84.708870,102.330895
12627,NaN,12.064313,1.999752,-0.393677,0.991565,-0.476846,2.372962,0.371656,0.494435,-0.805481,0.267280,-0.643439,-0.334669,-0.634464,122.808935,-84.489172,107.636093
12628,NaN,12.274927,2.606151,-0.027697,1.586812,-0.542971,2.623274,0.475623,0.507711,-0.604894,0.267738,-0.640153,-0.337520,-0.636082,118.711823,-84.333747,112.033667
12629,NaN,12.528092,3.093085,0.244215,2.046141,-0.608405,2.916124,0.427924,0.445664,-0.423356,0.268506,-0.637425,-0.339719,-0.637326,115.586633,-84.227255,115.428008
12630,NaN,12.630782,3.108425,-0.264839,1.670204,-1.002796,3.050969,0.320766,0.381177,-0.319327,0.269157,-0.635214,-0.341323,-0.638402,113.080560,-84.144183,118.138877
12631,NaN,12.516869,2.876675,-0.381156,1.371842,-0.967468,2.926010,0.295546,0.392488,-0.211252,0.270082,-0.633179,-0.342492,-0.639405,110.790534,-84.108493,120.618330
12632,NaN,12.118985,2.776843,-0.077283,1.462179,-0.724502,2.513040,0.353216,0.468038,-0.102186,0.271673,-0.631008,-0.343389,-0.640396,108.357720,-84.136850,123.274550
12633,NaN,11.699372,2.962407,0.371260,1.873150,-0.555851,2.102476,0.498567,0.559798,0.003425,0.274207,-0.628517,-0.344297,-0.641277,105.652208,-84.224916,126.288326
12634,NaN,11.494132,3.454158,0.400314,2.258027,-0.892437,1.947889,0.587115,0.653816,0.078286,0.277425,-0.625723,-0.345111,-0.642187,102.479750,-84.353262,129.821771
12635,NaN,11.208567,3.856934,-0.074792,2.274712,-1.584774,1.712388,0.548909,0.732572,0.117975,0.280771,-0.622782,-0.345572,-0.643343,98.717076,-84.489123,133.925460
12636,NaN,10.245093,3.889875,-0.932514,1.818690,-2.410912,0.762857,0.473226,0.806984,0.128491,0.284047,-0.619715,-0.345635,-0.644831,94.285458,-84.608629,138.656658
12637,NaN,9.245451,3.794094,-1.574188,1.405105,-2.983947,-0.248533,0.458954,0.763410,0.105412,0.287111,-0.616752,-0.345791,-0.646230,89.943351,-84.677080,143.289069
12638,NaN,8.386110,3.750190,-1.820775,1.272507,-3.247973,-1.121471,0.476618,0.657584,0.058506,0.289902,-0.614017,-0.346281,-0.647325,86.191291,-84.692113,147.338682
12639,NaN,7.732741,3.731070,-1.992087,1.196314,-3.437088,-1.785248,0.470945,0.548473,-0.043011,0.292137,-0.611455,-0.347234,-0.648234,83.185644,-84.630270,150.635647
12640,NaN,7.187904,3.585931,-2.142366,1.024662,-3.515416,-2.349010,0.438598,0.464522,-0.174030,0.293716,-0.608981,-0.348585,-0.649124,80.855254,-84.489075,153.236113
12641,NaN,6.480760,3.354960,-2.224264,0.836468,-3.485531,-3.078095,0.438338,0.452560,-0.301839,0.294835,-0.606312,-0.350358,-0.650160,78.881432,-84.264914,155.479134
12642,NaN,5.636095,3.188095,-2.005524,0.887117,-3.248173,-3.929321,0.438197,0.462504,-0.446471,0.295516,-0.603353,-0.352528,-0.651428,77.175775,-83.954427,157.453344
12643,NaN,4.623584,3.084373,-1.759640,1.021073,-3.024927,-4.934738,0.384336,0.454033,-0.618806,0.295430,-0.600185,-0.355075,-0.653009,75.902711,-83.540738,158.962938
12644,NaN,3.697504,2.806843,-1.548590,0.989466,-2.721302,-5.867636,0.262402,0.323100,-0.802011,0.294166,-0.597289,-0.357934,-0.654672,75.530849,-83.044666,159.495858
12645,NaN,2.931681,2.481004,-1.050534,1.071583,-2.143419,-6.632890,0.081408,-0.018155,-0.967160,0.291176,-0.595465,-0.361217,-0.655866,76.762373,-82.500536,158.309006
12646,NaN,2.542693,1.793779,-0.577714,0.808517,-1.359501,-7.071407,-0.139452,-0.528796,-1.119579,0.286124,-0.595346,-0.364933,-0.656140,79.837295,-81.928369,155.132020
12647,NaN,3.123737,0.733299,-0.426042,-0.056159,-0.556075,-6.624532,-0.268571,-1.149633,-1.307563,0.278893,-0.597067,-0.369681,-0.655032,84.826811,-81.263600,149.940504
12648,NaN,4.817396,-0.380018,-0.809000,-1.412244,-0.022681,-5.121181,-0.210207,-1.694899,-1.491409,0.270225,-0.600093,-0.375861,-0.652377,90.954127,-80.438402,143.619722
12649,NaN,7.247156,-1.115289,-2.456533,-3.299475,-0.553339,-2.841041,0.060489,-2.021702,-1.724456,0.260925,-0.603286,-0.384035,-0.648445,97.116455,-79.359348,137.403555
12650,NaN,11.206604,-1.221856,-4.510651,-5.146313,-1.424593,1.091695,0.493007,-1.982059,-1.902460,0.252409,-0.605335,-0.393997,-0.643915,102.116848,-78.087642,132.600391
12651,NaN,15.925989,-0.525642,-5.644428,-5.962599,-1.699420,5.913785,1.069719,-1.525255,-1.960656,0.246274,-0.604957,-0.405366,-0.639574,105.360877,-76.778063,129.912528
12652,NaN,20.199412,0.913156,-5.255868,-5.330900,-1.102477,10.357355,1.622319,-0.655152,-1.922627,0.243680,-0.601083,-0.417217,-0.636592,106.537358,-75.609451,129.665547
12653,NaN,22.637213,2.722862,-3.387416,-3.442042,0.161446,12.978716,1.868150,0.458091,-1.800633,0.244468,-0.593525,-0.428080,-0.636169,105.600252,-74.680602,131.750341
12654,NaN,22.505588,4.565185,-1.094763,-1.034022,1.159083,13.124454,1.709755,1.507047,-1.610283,0.247617,-0.583113,-0.436488,-0.638861,102.797104,-73.991300,135.686211
12655,NaN,19.966027,5.604029,1.110381,1.051878,1.925428,10.837929,1.256732,2.216756,-1.308026,0.251887,-0.571548,-0.441625,-0.644091,98.780887,-73.483303,140.627882
12656,NaN,16.057161,5.538901,2.784824,2.338724,2.519127,7.052671,0.695809,2.185149,-0.849942,0.255937,-0.561691,-0.443584,-0.649795,94.851344,-73.141995,145.153572
12657,NaN,12.509506,4.332638,3.639154,2.387724,3.102370,3.346886,0.273109,1.393845,-0.249313,0.258950,-0.556228,-0.443473,-0.653366,92.380515,-73.041376,147.907821
12658,NaN,10.111494,2.624549,3.814808,1.593264,3.622998,0.580513,0.043892,0.118264,0.361360,0.260506,-0.556560,-0.442532,-0.653103,92.223921,-73.245025,148.105109
12659,NaN,9.280563,0.663693,3.578889,0.128114,4.233866,-0.788619,-0.093167,-1.267911,0.869409,0.260246,-0.562708,-0.441540,-0.648594,94.737989,-73.689924,145.435047
12660,NaN,9.689897,-1.237177,3.029468,-1.639658,4.822893,-0.944359,-0.178215,-2.453900,1.221437,0.258256,-0.573516,-0.440752,-0.640407,99.804885,-74.200603,140.063961
12661,NaN,10.231427,-2.894195,1.636881,-3.577752,4.688691,-0.815885,-0.198723,-3.227280,1.423039,0.255069,-0.587130,-0.440222,-0.629621,106.820159,-74.560700,132.669943
12662,NaN,11.076410,-4.231401,0.243041,-5.251708,4.552577,-0.203921,-0.157930,-3.557811,1.485974,0.251400,-0.601668,-0.439892,-0.617486,114.757451,-74.627002,124.351303
12663,NaN,12.135679,-5.194119,-0.697557,-6.359947,4.738588,0.761731,-0.039643,-3.468317,1.530278,0.248321,-0.615663,-0.439528,-0.605071,122.570767,-74.435168,116.229307
12664,NaN,11.908607,-5.680984,-0.909187,-6.508007,5.004180,0.555770,0.181918,-3.017303,1.564764,0.246946,-0.627890,-0.439019,-0.593326,129.524538,-74.136011,109.121864
12665,NaN,10.530243,-5.504881,-0.622997,-5.791105,4.985433,-0.692461,0.390084,-2.477873,1.539985,0.247274,-0.638055,-0.438427,-0.582686,135.477247,-73.820790,103.169322
12666,NaN,8.728358,-5.120320,-0.251202,-4.931729,4.727230,-2.343261,0.492570,-2.032166,1.531078,0.248831,-0.646644,-0.437527,-0.573154,140.644604,-73.534995,98.086693
12667,NaN,7.047074,-4.662493,-0.518441,-4.453957,3.871109,-3.742793,0.568607,-1.607428,1.454603,0.251317,-0.653671,-0.436492,-0.564827,145.074498,-73.298885,93.812666
12668,NaN,5.351869,-4.214111,-0.674880,-4.012959,3.063177,-5.190035,0.680205,-1.263584,1.271318,0.254364,-0.659103,-0.435899,-0.557561,148.788432,-73.084313,90.347593
12669,NaN,3.620365,-3.774201,-0.526498,-3.497024,2.470309,-6.763599,0.818565,-0.959272,1.010613,0.257799,-0.662905,-0.436118,-0.551269,151.796914,-72.889640,87.700219
12670,NaN,2.421240,-3.141989,0.316448,-2.519368,2.494410,-8.005681,1.106396,-0.784149,0.673209,0.261608,-0.665062,-0.438008,-0.545346,154.191166,-72.659655,85.864646
12671,NaN,2.291537,-1.572789,0.881591,-0.881220,2.163067,-8.067236,1.413980,-0.872456,0.306379,0.265251,-0.666226,-0.442028,-0.538884,156.175951,-72.275939,84.641311
12672,NaN,3.072858,0.885331,0.568664,1.142630,1.011500,-6.945513,1.503302,-1.179995,-0.170075,0.267184,-0.666978,-0.448262,-0.531804,157.570400,-71.611387,84.088032
12673,NaN,3.544327,3.534042,-1.172347,2.701286,-1.423466,-5.677241,1.439424,-1.360297,-0.767780,0.266906,-0.666898,-0.456497,-0.524993,158.069163,-70.720362,84.441105
12674,NaN,3.710610,5.699473,-3.449527,3.648391,-4.098008,-4.516965,1.442064,-1.544639,-1.115947,0.265245,-0.666404,-0.466104,-0.517974,158.158711,-69.656354,85.231651
12675,NaN,5.299149,7.625346,-5.079471,4.787182,-5.541331,-2.170783,1.627319,-1.409353,-1.303087,0.264010,-0.664788,-0.476551,-0.511130,158.066900,-68.625119,86.336328
12676,NaN,6.900661,9.418715,-5.566075,6.320452,-5.865432,-0.171357,1.523514,-0.670920,-1.548008,0.263507,-0.660730,-0.486516,-0.507250,157.243353,-67.927836,88.170053
12677,NaN,6.156715,10.129028,-6.587242,6.565909,-7.084016,-0.294462,1.095694,0.391885,-1.881699,0.263305,-0.653653,-0.495030,-0.508285,155.231455,-67.694272,91.029173
12678,NaN,3.763234,9.046805,-8.885220,4.648267,-9.430175,-1.786595,0.608013,1.209772,-2.339400,0.262320,-0.643897,-0.502653,-0.513737,151.896342,-67.713443,95.017731
12679,NaN,2.498063,7.149684,-10.114348,2.439653,-10.240105,-2.823657,0.505323,1.516528,-2.682399,0.260835,-0.632496,-0.510610,-0.520761,147.880645,-67.687662,99.678661
12680,NaN,2.597570,5.726315,-9.670317,1.288092,-9.320902,-3.140756,0.689223,1.671955,-2.973923,0.259502,-0.619524,-0.519621,-0.528056,143.547265,-67.513834,104.799981
12681,NaN,3.914259,5.472926,-8.642459,1.296910,-7.849012,-2.284254,1.018513,1.728319,-3.183758,0.258681,-0.605237,-0.529919,-0.534750,139.241330,-67.140656,110.106686
12682,NaN,5.723556,6.226781,-6.550120,2.453288,-5.544791,-0.999570,1.341729,1.668610,-3.285622,0.258326,-0.590187,-0.541258,-0.540358,135.258322,-66.558526,115.281763
12683,NaN,7.515869,6.896738,-4.507463,3.339684,-3.196913,0.335808,1.449636,1.556851,-3.286872,0.257863,-0.575080,-0.552846,-0.545115,131.694398,-65.795361,120.093742
12684,NaN,9.333036,7.086941,-2.510049,3.573250,-0.708136,1.604492,1.361300,1.415455,-3.215055,0.256877,-0.560445,-0.563945,-0.549437,128.538308,-64.902572,124.431858
12685,NaN,10.217336,6.631190,-1.638752,2.911555,0.591460,2.112696,1.165553,1.270740,-3.091994,0.255161,-0.546628,-0.574181,-0.553540,125.768908,-63.919658,128.251498
12686,NaN,11.021012,6.174384,-1.790936,1.900019,0.905623,2.771177,1.163717,1.024937,-2.840479,0.253383,-0.534046,-0.583849,-0.556517,123.623679,-62.909313,131.403640
12687,NaN,12.262911,6.664216,-1.936665,1.610965,1.186695,4.134695,1.263331,0.807138,-2.492616,0.252116,-0.522840,-0.593026,-0.558029,122.128971,-61.950591,133.915478
