// General information: 
//  MT Manager version: 2019.0.1 
//  XDA version: 2019.0.1 build 2740 rev 84096 built on 2019-01-30
// Device information: 
//  DeviceId: 00B4381A
//  ProductCode: MTW2-3A7G6
//  Firmware Version: 4.3.4
//  Hardware Version: 1.1.0
// Device settings: 
//  Filter Profile: human(46.1)
//  Option Flags: Orientation Smoother Disabled, AHS Disabled, ICC Disabled
// Coordinate system: ENU
PacketCounter,SampleTimeFine,Acc_X,Acc_Y,Acc_Z,FreeAcc_E,FreeAcc_N,FreeAcc_U,Gyr_X,Gyr_Y,Gyr_Z,Quat_q0,Quat_q1,Quat_q2,Quat_q3,Roll,Pitch,Yaw
51571,NaN,-0.512762,9.645245,-1.001036,0.103869,-0.266166,-0.106292,-0.001954,-0.020722,0.002250,0.390683,0.419251,0.613348,0.543506,95.967480,1.347649,110.077158
51572,NaN,-0.512220,9.656228,-1.059822,0.050220,-0.283092,-0.089228,0.004972,-0.030455,-0.006707,0.390800,0.419320,0.613365,0.543350,95.976514,1.359755,110.059034
51573,NaN,-0.497319,9.683139,-0.993972,0.109705,-0.242717,-0.069611,0.005728,-0.043251,-0.007822,0.390961,0.419427,0.613357,0.543162,95.985709,1.373124,110.032935
51574,NaN,-0.423228,9.752359,-0.878531,0.198972,-0.127449,-0.014544,0.003002,-0.053264,-0.007289,0.391153,0.419552,0.613324,0.542963,95.993293,1.386930,110.001849
51575,NaN,-0.585266,10.054554,-0.449271,0.683459,-0.114992,0.245051,0.002001,-0.058568,0.000146,0.391345,0.419716,0.613260,0.542770,96.000054,1.396670,109.966864
51576,NaN,-0.814197,10.585166,0.012263,1.241432,-0.142815,0.729953,-0.007118,-0.057966,0.014194,0.391515,0.419900,0.613146,0.542635,96.001734,1.398523,109.931813
51577,NaN,-0.697378,10.949427,0.217122,1.424522,0.055932,1.068078,-0.041055,-0.068780,0.018070,0.391780,0.420061,0.612907,0.542589,95.983542,1.398691,109.890024
51578,NaN,-0.434292,10.807029,0.273338,1.368363,0.311624,0.915111,-0.103316,-0.050820,-0.000917,0.392171,0.419991,0.612577,0.542733,95.930222,1.408703,109.859943
51579,NaN,-0.565642,10.665082,0.107958,1.231569,0.121588,0.795988,-0.179648,-0.016085,-0.017389,0.392664,0.419629,0.612138,0.543151,95.833267,1.425972,109.849941
51580,NaN,-0.931999,10.721793,-0.043922,1.195505,-0.275836,0.879460,-0.284041,-0.009019,-0.013704,0.393340,0.419051,0.611425,0.543911,95.676998,1.440766,109.844397
51581,NaN,-1.141187,10.830839,-0.161461,1.131585,-0.516361,1.008042,-0.392720,-0.053911,0.008837,0.394324,0.418452,0.610274,0.544951,95.457260,1.445186,109.811159
51582,NaN,-1.173045,10.740374,-0.283838,0.975945,-0.608578,0.933901,-0.489139,-0.126615,0.022751,0.395686,0.417898,0.608691,0.546158,95.181733,1.445387,109.736457
51583,NaN,-1.372992,10.664431,-0.467358,0.812100,-0.883553,0.882784,-0.560348,-0.239256,0.054938,0.397458,0.417610,0.606611,0.547405,94.863133,1.432607,109.594654
51584,NaN,-1.304502,10.588398,-0.600645,0.598894,-0.893757,0.818343,-0.605689,-0.387143,0.094689,0.399651,0.417748,0.604030,0.548555,94.517097,1.403114,109.367767
51585,NaN,-1.074144,10.195078,-0.760810,0.285652,-0.776814,0.433622,-0.572543,-0.583076,0.125918,0.402286,0.418582,0.601067,0.549248,94.186662,1.363231,109.026305
51586,NaN,-0.693219,9.726119,-0.971980,-0.116937,-0.532034,-0.028734,-0.458455,-0.644273,0.153153,0.404774,0.419885,0.598235,0.549518,93.921836,1.308224,108.650402
51587,NaN,-0.158283,9.384613,-1.319841,-0.671650,-0.169420,-0.359746,-0.318167,-0.600329,0.156825,0.406832,0.421360,0.595853,0.549457,93.737423,1.248341,108.298157
51588,NaN,0.178282,9.103605,-1.631273,-1.107686,0.029288,-0.628973,-0.185022,-0.461130,0.145933,0.408209,0.422683,0.594145,0.549268,93.632273,1.188297,108.027640
51589,NaN,0.267016,8.939879,-1.905621,-1.412412,0.015524,-0.777812,-0.070769,-0.307889,0.125086,0.408951,0.423756,0.593101,0.549018,93.594233,1.134458,107.844806
51590,NaN,0.212167,8.714459,-2.046897,-1.541560,-0.092753,-0.992734,0.012489,-0.175011,0.104485,0.409171,0.424572,0.592605,0.548760,93.605960,1.087422,107.739520
51591,NaN,0.232238,8.529754,-2.042779,-1.547393,-0.081868,-1.176575,0.079989,-0.069544,0.080958,0.409006,0.425168,0.592554,0.548475,93.657269,1.050190,107.694593
51592,NaN,0.223260,8.395585,-2.000132,-1.500514,-0.083441,-1.311058,0.133060,0.026304,0.054850,0.408510,0.425530,0.592905,0.548186,93.740329,1.024274,107.706188
51593,NaN,0.101590,8.319395,-1.843008,-1.304244,-0.153475,-1.392788,0.173417,0.091397,0.020977,0.407832,0.425698,0.593567,0.547843,93.846991,1.015328,107.755463
51594,NaN,0.111125,8.365207,-1.663908,-1.117574,-0.084158,-1.356829,0.212265,0.114499,-0.014507,0.407095,0.425774,0.594461,0.547363,93.976373,1.025568,107.820094
51595,NaN,0.189501,8.493631,-1.511310,-0.970389,0.049655,-1.238448,0.237616,0.139245,-0.052769,0.406339,0.425722,0.595552,0.546779,94.120474,1.056592,107.899676
51596,NaN,0.286214,8.694348,-1.447204,-0.907542,0.180785,-1.042759,0.248875,0.152835,-0.093408,0.405624,0.425530,0.596789,0.546110,94.271381,1.109990,107.989577
51597,NaN,0.357695,8.887988,-1.375138,-0.830162,0.294011,-0.855030,0.242755,0.168109,-0.131420,0.404983,0.425174,0.598117,0.545410,94.419038,1.184247,108.089250
51598,NaN,0.416673,9.155006,-1.328046,-0.768841,0.394670,-0.592897,0.234524,0.186072,-0.169535,0.404405,0.424633,0.599542,0.544696,94.562443,1.279174,108.201835
51599,NaN,0.438670,9.385841,-1.257272,-0.677937,0.469647,-0.368803,0.208060,0.196465,-0.201912,0.403942,0.423915,0.600979,0.544014,94.691059,1.391837,108.321368
51600,NaN,0.404200,9.623617,-1.172758,-0.558528,0.498538,-0.138381,0.180715,0.213241,-0.222436,0.403538,0.423030,0.602420,0.543409,94.804537,1.515176,108.452416
51601,NaN,0.383957,9.824372,-0.941745,-0.310321,0.587100,0.041832,0.151469,0.209081,-0.231451,0.403234,0.422072,0.603787,0.542861,94.901519,1.643562,108.581101
51602,NaN,0.415433,9.925249,-0.872861,-0.241463,0.669146,0.134117,0.128807,0.194717,-0.222408,0.402992,0.421130,0.605046,0.542371,94.985531,1.767351,108.702005
51603,NaN,0.335949,10.017386,-0.741995,-0.080971,0.664120,0.215462,0.103070,0.157742,-0.201285,0.402861,0.420303,0.606113,0.541919,95.054365,1.880657,108.800331
51604,NaN,0.229894,10.054439,-0.661244,0.035625,0.612299,0.247414,0.080534,0.103608,-0.161946,0.402831,0.419692,0.606927,0.541502,95.109344,1.974272,108.866452
51605,NaN,0.180884,10.085783,-0.590107,0.123765,0.606591,0.272980,0.056482,0.029224,-0.107890,0.402933,0.419401,0.607411,0.541110,95.149054,2.040620,108.886926
51606,NaN,0.146548,10.044986,-0.491294,0.227949,0.613429,0.224061,0.040058,-0.051647,-0.044393,0.403141,0.419485,0.607556,0.540727,95.177596,2.075066,108.858470
51607,NaN,0.063717,9.983065,-0.476413,0.267556,0.540028,0.163755,0.025503,-0.133748,0.019027,0.403459,0.419957,0.607361,0.540342,95.195943,2.077367,108.779471
51608,NaN,0.023705,9.928357,-0.499877,0.258514,0.489620,0.112843,0.020975,-0.204811,0.079041,0.403838,0.420791,0.606886,0.539944,95.210169,2.049361,108.657170
51609,NaN,0.015013,9.902256,-0.567957,0.200330,0.451967,0.093526,0.015621,-0.261206,0.122433,0.404282,0.421900,0.606188,0.539530,95.220134,1.999299,108.500093
51610,NaN,0.090503,9.937713,-0.654470,0.103299,0.489182,0.134406,0.012996,-0.293534,0.153495,0.404745,0.423181,0.605353,0.539117,95.228124,1.933485,108.323249
51611,NaN,0.124887,9.957299,-0.723182,0.035265,0.490370,0.159508,0.006279,-0.297966,0.164782,0.405204,0.424496,0.604463,0.538737,95.232294,1.861187,108.143025
51612,NaN,0.104692,9.943968,-0.817539,-0.043074,0.429612,0.156033,0.000066,-0.275537,0.163722,0.405610,0.425732,0.603605,0.538419,95.233623,1.788624,107.975924
51613,NaN,0.169154,9.899093,-0.868552,-0.109681,0.461240,0.114561,-0.001576,-0.220107,0.153473,0.405881,0.426781,0.602871,0.538206,95.234463,1.718891,107.840964
51614,NaN,0.206105,9.825738,-0.874111,-0.127043,0.480072,0.041503,0.000661,-0.150713,0.135604,0.405983,0.427595,0.602325,0.538093,95.238675,1.655854,107.746594
51615,NaN,0.196752,9.698136,-0.900643,-0.154216,0.446942,-0.082314,0.013943,-0.072701,0.117712,0.405870,0.428175,0.602009,0.538071,95.251806,1.598612,107.697299
51616,NaN,0.188455,9.609209,-0.889965,-0.142629,0.429722,-0.171140,0.029449,0.010610,0.100211,0.405520,0.428507,0.601943,0.538144,95.275278,1.547333,107.696841
51617,NaN,0.142773,9.576159,-0.919348,-0.152215,0.369004,-0.199724,0.046599,0.090250,0.087794,0.404927,0.428625,0.602109,0.538313,95.309716,1.498541,107.742213
51618,NaN,0.096439,9.600061,-0.836742,-0.049597,0.345264,-0.182063,0.058271,0.145594,0.080159,0.404162,0.428591,0.602436,0.538547,95.351712,1.451518,107.819794
51619,NaN,-0.017631,9.574321,-0.825309,0.003396,0.233400,-0.205681,0.070231,0.189246,0.079099,0.403243,0.428463,0.602883,0.538838,95.401031,1.402295,107.921934
51620,NaN,-0.160559,9.601481,-0.773669,0.109144,0.109366,-0.179988,0.079188,0.218369,0.080847,0.402211,0.428277,0.603411,0.539166,95.455873,1.350802,108.040916
51621,NaN,-0.316366,9.623367,-0.826360,0.121312,-0.058895,-0.149668,0.091491,0.222643,0.082808,0.401134,0.428112,0.603973,0.539470,95.517615,1.297418,108.161884
51622,NaN,-0.434475,9.759753,-0.827449,0.181619,-0.169354,-0.011436,0.092771,0.208552,0.083206,0.400096,0.427985,0.604512,0.539739,95.579891,1.244874,108.275022
51623,NaN,-0.499571,9.889817,-0.841103,0.213486,-0.233708,0.120353,0.091087,0.178197,0.085149,0.399147,0.427945,0.604976,0.539952,95.640632,1.192412,108.370275
51624,NaN,-0.531329,9.925119,-0.853232,0.227695,-0.270525,0.156930,0.081346,0.141932,0.079851,0.398343,0.427964,0.605357,0.540105,95.695386,1.145315,108.445497
51625,NaN,-0.510788,9.942290,-0.817404,0.267731,-0.243144,0.169666,0.070220,0.109618,0.070977,0.397684,0.428024,0.605658,0.540205,95.743252,1.104678,108.502473
51626,NaN,-0.462101,9.906428,-0.821289,0.254971,-0.203494,0.133113,0.057772,0.077359,0.063924,0.397168,0.428122,0.605879,0.540259,95.783710,1.070250,108.541713
51627,NaN,-0.461454,9.886016,-0.790150,0.290313,-0.197041,0.109383,0.047455,0.064086,0.053436,0.396742,0.428206,0.606066,0.540296,95.817986,1.042197,108.573657
51628,NaN,-0.410599,9.808418,-0.748850,0.312655,-0.142217,0.026848,0.034888,0.045515,0.052157,0.396404,0.428308,0.606187,0.540327,95.844978,1.016284,108.595388
51629,NaN,-0.395394,9.786850,-0.745918,0.313859,-0.130777,0.004621,0.022183,0.044510,0.051218,0.396098,0.428388,0.606271,0.540394,95.864561,0.990627,108.616227
51630,NaN,-0.336944,9.768638,-0.700730,0.340396,-0.065138,-0.019286,0.013504,0.041560,0.053122,0.395814,0.428462,0.606324,0.540483,95.879241,0.964381,108.635627
51631,NaN,-0.313421,9.806438,-0.694430,0.345805,-0.042847,0.017128,0.004769,0.042469,0.059182,0.395531,0.428537,0.606340,0.540614,95.888764,0.934321,108.654794
51632,NaN,-0.326386,9.838334,-0.647724,0.399822,-0.043520,0.044145,-0.004955,0.041924,0.067232,0.395247,0.428616,0.606314,0.540788,95.892838,0.900005,108.673564
51633,NaN,-0.319115,9.838629,-0.646866,0.400527,-0.042172,0.044122,-0.015316,0.044382,0.074891,0.394958,0.428693,0.606245,0.541015,95.890805,0.860883,108.692959
51634,NaN,-0.297173,9.918438,-0.680224,0.370864,-0.034944,0.126511,-0.025745,0.044772,0.079711,0.394677,0.428761,0.606141,0.541283,95.882955,0.819289,108.712620
51635,NaN,-0.358848,10.008125,-0.639480,0.437897,-0.083914,0.212354,-0.037674,0.044925,0.084810,0.394407,0.428821,0.605992,0.541598,95.868048,0.774489,108.731880
51636,NaN,-0.565136,10.055653,-0.514691,0.625864,-0.246001,0.249529,-0.048900,0.044146,0.093127,0.394141,0.428886,0.605796,0.541961,95.846885,0.725295,108.750421
51637,NaN,-0.625874,10.122655,-0.354463,0.801444,-0.258789,0.300483,-0.056827,0.026612,0.092485,0.393947,0.428982,0.605541,0.542310,95.820841,0.677238,108.758662
51638,NaN,-0.833776,10.320841,-0.176431,1.051218,-0.401095,0.481977,-0.090654,-0.022964,0.110807,0.393925,0.429199,0.605061,0.542690,95.775277,0.621869,108.737973
51639,NaN,-0.609429,10.521085,-0.082877,1.077674,-0.163413,0.669840,-0.148768,-0.104110,0.099955,0.394305,0.429491,0.604283,0.543050,95.695715,0.577102,108.671286
51640,NaN,-0.263439,11.166755,0.352801,1.419996,0.314286,1.267703,-0.239719,-0.105901,0.086394,0.394919,0.429565,0.603285,0.543654,95.564330,0.540255,108.604840
51641,NaN,0.099500,12.382377,0.771688,1.774432,0.816317,2.439391,-0.432330,-0.007929,0.119652,0.395563,0.429093,0.601881,0.545113,95.322779,0.478728,108.592106
51642,NaN,0.818845,13.596532,1.621744,2.386175,1.769857,3.579067,-0.744310,0.088636,0.217063,0.396314,0.428028,0.599606,0.547905,94.903211,0.356780,108.630345
51643,NaN,1.636666,14.544983,2.527234,2.943738,2.785026,4.477081,-1.139866,0.084182,0.384230,0.397459,0.426683,0.595862,0.552193,94.256310,0.139711,108.659154
51644,NaN,2.209628,14.699807,3.000279,3.054559,3.358253,4.656413,-1.588524,0.013011,0.552152,0.399286,0.425119,0.590352,0.557969,93.352766,-0.170023,108.644193
51645,NaN,2.230621,14.093044,3.161692,2.963251,3.253300,4.123364,-1.938095,-0.170744,0.726710,0.401883,0.423850,0.583069,0.564687,92.248779,-0.574914,108.523797
51646,NaN,2.347067,13.467390,3.160500,2.681737,3.160458,3.591753,-2.162412,-0.388479,0.918486,0.404993,0.423250,0.574245,0.571911,91.019882,-1.088234,108.284626
51647,NaN,3.105909,13.103962,3.299676,2.348104,3.695785,3.342755,-2.335588,-0.618002,1.127926,0.408477,0.423490,0.563916,0.579484,89.695527,-1.725864,107.923397
51648,NaN,4.424422,12.661989,3.286284,1.715495,4.700562,3.057898,-2.428997,-0.667096,1.313093,0.411673,0.424123,0.552729,0.587482,88.324022,-2.478409,107.552061
51649,NaN,5.720576,12.430451,2.944907,0.794083,5.572883,3.001929,-2.439362,-0.437731,1.457441,0.413766,0.424374,0.541550,0.596178,86.941832,-3.316688,107.332012
51650,NaN,7.218280,12.501104,2.487777,-0.319387,6.579788,3.270158,-2.479371,0.057361,1.537872,0.414261,0.423197,0.531009,0.606071,85.522040,-4.187559,107.420658
51651,NaN,7.624112,12.156979,1.862908,-1.297736,6.525818,3.036547,-2.564799,0.794678,1.559041,0.412833,0.419577,0.521555,0.617661,84.014662,-5.030260,107.952946
51652,NaN,6.348731,11.048208,1.491074,-1.497190,5.050886,1.884481,-2.559021,1.601275,1.583827,0.409093,0.413424,0.513612,0.630814,82.458593,-5.817309,108.972866
51653,NaN,5.457684,10.444070,2.110713,-0.893167,4.211571,1.357335,-2.531411,2.075893,1.805158,0.403260,0.406280,0.506086,0.645132,80.868552,-6.663554,110.302687
51654,NaN,5.393020,9.140097,2.213591,-0.941739,4.128578,0.166306,-2.451764,2.352044,1.941720,0.395970,0.398592,0.498933,0.659847,79.281625,-7.521283,111.830641
51655,NaN,4.956912,8.113237,2.214090,-0.931210,3.672097,-0.816270,-2.239397,2.558550,2.042456,0.387267,0.390753,0.492474,0.674393,77.770924,-8.372253,113.510982
51656,NaN,4.572099,7.546513,2.514444,-0.671550,3.326008,-1.288932,-2.028767,2.580141,2.102535,0.377738,0.383234,0.486483,0.688317,76.350981,-9.209621,115.238554
51657,NaN,4.178600,7.163553,2.459351,-0.708648,2.835476,-1.671642,-1.859092,2.521287,2.092559,0.367936,0.376088,0.480782,0.701448,75.004053,-10.009919,116.953154
51658,NaN,3.628373,6.684146,2.324498,-0.682398,2.232653,-2.210667,-1.703891,2.422591,2.079800,0.357987,0.369402,0.475330,0.713757,73.730857,-10.777908,118.635064
51659,NaN,3.554199,6.555882,1.995098,-1.056691,1.884831,-2.401967,-1.551193,2.316119,2.063242,0.347967,0.363227,0.470090,0.725259,72.529666,-11.520315,120.273383
51660,NaN,3.449319,6.506539,1.458536,-1.575021,1.395054,-2.606487,-1.442377,2.230157,2.056300,0.337866,0.357419,0.464996,0.736123,71.378192,-12.239304,121.884068
51661,NaN,3.278056,6.313792,0.997726,-1.939838,0.926752,-2.958514,-1.366791,2.160526,2.040557,0.327768,0.351873,0.459939,0.746465,70.253803,-12.933168,123.469829
51662,NaN,3.049132,6.181001,0.573239,-2.222975,0.410444,-3.276841,-1.323063,2.053369,2.035705,0.317763,0.346684,0.454784,0.756312,69.147449,-13.613697,125.015259
51663,NaN,3.016176,6.037563,0.367663,-2.409908,0.160567,-3.500148,-1.314284,1.949143,2.033509,0.307917,0.341824,0.449366,0.765776,68.036148,-14.287416,126.519300
51664,NaN,3.175142,6.018030,0.536967,-2.419646,0.190798,-3.433634,-1.337616,1.889603,2.037183,0.298151,0.337072,0.443677,0.775009,66.899927,-14.945567,128.010738
51665,NaN,4.040684,7.189915,0.348181,-3.330158,0.045498,-2.259792,-1.250104,1.936978,2.199971,0.287432,0.332555,0.437994,0.784188,65.773003,-15.651492,129.583886
51666,NaN,2.806408,5.064576,1.516445,-1.391142,0.470840,-4.010445,-1.466394,2.075429,2.095022,0.277103,0.326859,0.431744,0.793709,64.488154,-16.235528,131.226412
51667,NaN,3.068424,6.046978,1.535957,-1.761513,0.040766,-3.087140,-1.312433,1.954595,1.922204,0.267400,0.321409,0.426090,0.802272,63.301144,-16.728813,132.775566
51668,NaN,3.173644,6.476170,1.744190,-1.804806,-0.162619,-2.617670,-1.299638,1.989143,1.844289,0.257856,0.315591,0.420585,0.810568,62.108499,-17.140474,134.336074
51669,NaN,3.265113,6.334066,2.209013,-1.577343,0.043598,-2.521027,-1.310414,2.103616,1.742531,0.248438,0.309017,0.415228,0.818763,60.885625,-17.439966,135.939684
51670,NaN,2.875580,6.156855,2.732607,-0.991387,-0.000381,-2.556121,-1.279570,2.169090,1.631636,0.239238,0.301905,0.410177,0.826664,59.673025,-17.631140,137.552702
51671,NaN,2.377870,6.155965,3.156610,-0.429251,-0.228998,-2.513663,-1.245416,2.216202,1.513812,0.230322,0.294340,0.405391,0.834251,58.476298,-17.720010,139.158835
51672,NaN,1.845751,6.468841,3.340448,-0.045071,-0.754427,-2.340161,-1.138796,2.216940,1.400792,0.221673,0.286595,0.401152,0.841309,57.351825,-17.720910,140.731046
51673,NaN,1.327598,7.510051,2.757673,-0.264154,-2.102747,-1.984836,-1.217662,2.359555,1.321657,0.213131,0.277950,0.396748,0.848475,56.167768,-17.610708,142.348792
51674,NaN,0.662496,7.544438,3.000097,0.340509,-2.476820,-2.059838,-0.927547,2.071594,1.236056,0.205086,0.270606,0.393331,0.854402,55.207744,-17.522407,143.790555
51675,NaN,1.798506,8.724441,2.263606,-1.194191,-3.067149,-1.231347,-0.941870,2.107361,1.076016,0.197638,0.262742,0.390022,0.860109,54.253097,-17.325976,145.191660
51676,NaN,2.105400,8.748336,2.272374,-1.482384,-3.026913,-1.165812,-0.968238,2.159750,0.956771,0.190607,0.254346,0.386765,0.865673,53.297743,-17.032910,146.570161
51677,NaN,1.332895,7.993297,3.111297,-0.331798,-2.578188,-1.530690,-0.890580,2.130506,0.819155,0.184094,0.245850,0.383914,0.870791,52.413172,-16.667411,147.877917
51678,NaN,1.148817,8.169891,3.389326,-0.111912,-2.693916,-1.310687,-0.746754,2.051696,0.641302,0.178309,0.237448,0.381799,0.875245,51.653115,-16.230027,149.074356
51679,NaN,0.847022,7.812399,3.756427,0.319267,-2.449736,-1.460557,-0.666099,1.971987,0.538054,0.173009,0.229247,0.380026,0.879258,50.969776,-15.761820,150.186842
51680,NaN,0.551525,7.672988,4.064848,0.682429,-2.355055,-1.464665,-0.582623,1.882715,0.485817,0.167996,0.221381,0.378578,0.882863,50.363251,-15.289656,151.230279
51681,NaN,0.320869,7.111289,4.145550,0.932099,-2.069560,-1.893924,-0.459909,1.698919,0.465945,0.163267,0.214376,0.377489,0.885940,49.858828,-14.867607,152.175499
51682,NaN,0.098025,6.846773,4.263826,1.171064,-1.934322,-2.069625,-0.223743,1.394444,0.426029,0.159026,0.208818,0.377229,0.888146,49.537396,-14.533354,152.963005
51683,NaN,0.282676,7.349929,3.944744,0.764350,-2.383790,-1.850549,-0.133866,1.175843,0.424698,0.155100,0.204293,0.377165,0.889918,49.295065,-14.277135,153.649187
51684,NaN,-0.182850,6.824214,4.137560,1.310995,-2.114869,-2.227745,-0.005101,0.953162,0.426339,0.151452,0.200852,0.377501,0.891187,49.155241,-14.101869,154.234640
51685,NaN,0.530752,7.470187,3.837074,0.464388,-2.424742,-1.768217,0.088036,0.815871,0.379015,0.148176,0.198002,0.378174,0.892089,49.088409,-13.957254,154.739747
51686,NaN,1.089148,7.708280,4.159047,0.092123,-2.150624,-1.253025,0.091686,0.813610,0.336971,0.145087,0.195078,0.378909,0.892929,49.030678,-13.794063,155.227099
51687,NaN,1.727997,8.028071,4.450960,-0.389131,-1.922083,-0.680269,0.056911,0.949144,0.263631,0.142099,0.191384,0.379638,0.893899,48.946050,-13.548193,155.745582
51688,NaN,1.809918,7.937370,4.779785,-0.336592,-1.619302,-0.518151,0.061259,1.115729,0.189631,0.139117,0.186799,0.380577,0.894938,48.857525,-13.206292,156.308487
51689,NaN,1.417883,7.923061,5.061295,0.092937,-1.574789,-0.436485,0.086271,1.219104,0.137563,0.136144,0.181667,0.381725,0.895962,48.780279,-12.802678,156.895564
51690,NaN,1.250542,8.014574,5.061959,0.183123,-1.680773,-0.401955,0.125970,1.243008,0.100522,0.133249,0.176374,0.383096,0.896869,48.732244,-12.372920,157.477487
51691,NaN,1.244340,8.096939,5.059579,0.127767,-1.717207,-0.339422,0.141488,1.229433,0.080476,0.130451,0.171108,0.384522,0.897690,48.699453,-11.939725,158.044453
51692,NaN,1.315784,8.166545,5.007586,-0.015085,-1.746284,-0.302183,0.184943,1.151132,0.052608,0.127887,0.166161,0.386110,0.898306,48.706147,-11.523555,158.565199
51693,NaN,1.416524,8.113237,5.167058,-0.085669,-1.542857,-0.213643,0.223456,1.086411,0.030578,0.125509,0.161483,0.387828,0.898755,48.744906,-11.122967,159.048610
51694,NaN,1.242462,7.939552,5.353858,0.118911,-1.330751,-0.249284,0.314359,0.987674,-0.003430,0.123400,0.157233,0.389916,0.898897,48.850699,-10.745178,159.475299
51695,NaN,1.066697,7.899632,5.535679,0.315878,-1.199471,-0.187358,0.432506,0.845221,-0.017106,0.121535,0.153668,0.392442,0.898668,49.038279,-10.416500,159.834569
51696,NaN,0.894144,8.059330,5.432197,0.394825,-1.377658,-0.158315,0.544134,0.660261,-0.044817,0.120068,0.150942,0.395377,0.898040,49.308777,-10.146168,160.102834
51697,NaN,0.998219,8.454634,5.438255,0.245902,-1.535408,0.168973,0.614067,0.522847,-0.093894,0.119037,0.148777,0.398568,0.897129,49.633281,-9.907295,160.293184
51698,NaN,1.295816,9.015331,5.219687,-0.175666,-1.883353,0.513114,0.612746,0.445955,-0.142382,0.118378,0.146855,0.401742,0.896116,49.967321,-9.676423,160.432242
51699,NaN,1.191997,9.169570,5.282940,-0.085498,-1.907421,0.664210,0.548409,0.418895,-0.166107,0.117925,0.144969,0.404619,0.895188,50.267676,-9.446051,160.551479
51700,NaN,1.085882,9.176562,5.490913,0.067317,-1.741208,0.794004,0.463223,0.399697,-0.204438,0.117743,0.143037,0.407132,0.894383,50.523874,-9.206118,160.649108
51701,NaN,1.009908,9.180208,5.790578,0.215972,-1.504518,0.981589,0.364143,0.409179,-0.260561,0.117862,0.140890,0.409239,0.893746,50.725624,-8.938458,160.731240
51702,NaN,0.922721,9.112644,5.985759,0.336113,-1.303498,1.045886,0.295454,0.424517,-0.292786,0.118140,0.138566,0.411071,0.893232,50.889591,-8.651005,160.809251
51703,NaN,1.001485,9.213986,6.107830,0.252522,-1.211347,1.217936,0.235873,0.460960,-0.308321,0.118454,0.136011,0.412662,0.892849,51.017674,-8.343822,160.898685
51704,NaN,1.097583,9.785406,6.445203,0.169758,-1.263990,1.886571,0.140364,0.546930,-0.297233,0.118604,0.133037,0.413870,0.892718,51.085846,-8.010629,161.031297
51705,NaN,0.861101,10.290123,7.015225,0.469100,-1.230491,2.601295,-0.068557,0.623808,-0.226627,0.118417,0.129741,0.414136,0.893105,51.026451,-7.681326,161.224211
51706,NaN,0.370638,10.167001,7.531278,1.044028,-0.942159,2.766954,-0.249310,0.579300,-0.174611,0.118206,0.126642,0.413533,0.893856,50.865173,-7.390764,161.415175
51707,NaN,-0.013012,9.936312,7.924485,1.488597,-0.664473,2.791675,-0.484191,0.488016,-0.117216,0.118075,0.123930,0.411784,0.895061,50.572506,-7.158051,161.585169
51708,NaN,0.020292,9.792097,7.558991,1.302588,-0.865056,2.458357,-0.470245,0.227584,-0.056854,0.118200,0.122515,0.409904,0.896101,50.300425,-7.046185,161.660088
51709,NaN,0.422203,9.838507,7.905244,0.991710,-0.582135,2.762864,-0.605828,0.075514,-0.028946,0.118593,0.121755,0.407304,0.897338,49.957440,-7.001986,161.677679
51710,NaN,0.481572,9.590294,7.859647,0.922134,-0.512617,2.551210,-0.707576,-0.036805,0.035923,0.118985,0.121572,0.404140,0.898740,49.559659,-7.027685,161.669341
51711,NaN,0.560581,9.241552,7.636683,0.799864,-0.503613,2.151651,-0.736730,-0.129777,0.056402,0.119488,0.121826,0.400769,0.900147,49.148851,-7.096911,161.628549
51712,NaN,1.209353,8.622909,7.219083,0.123929,-0.265619,1.494210,-0.602876,-0.204452,0.111899,0.119810,0.122609,0.397920,0.901261,48.816549,-7.218604,161.576309
51713,NaN,2.173108,8.642562,6.830572,-0.901387,-0.302477,1.375198,-0.396768,-0.179903,0.175980,0.119665,0.123528,0.395971,0.902014,48.597597,-7.358677,161.560064
51714,NaN,2.041872,8.324742,6.496623,-0.834538,-0.408352,0.902410,-0.350851,-0.127554,0.198564,0.119287,0.124286,0.394245,0.902715,48.401218,-7.488797,161.575288
51715,NaN,1.291415,7.648412,6.343404,-0.087171,-0.339099,0.201404,-0.292943,-0.081921,0.207588,0.118742,0.124887,0.392800,0.903334,48.234631,-7.605209,161.614287
51716,NaN,0.999861,7.155372,6.257509,0.229220,-0.187773,-0.259277,-0.142293,-0.075966,0.207711,0.118090,0.125553,0.392039,0.903657,48.154157,-7.719450,161.655974
51717,NaN,0.642977,7.113122,6.383689,0.629201,-0.199455,-0.256241,-0.024599,-0.141405,0.249059,0.117305,0.126663,0.391744,0.903733,48.142394,-7.876184,161.685834
51718,NaN,0.478868,7.215276,6.922111,0.980700,0.039287,0.149322,0.088175,-0.332683,0.339368,0.116415,0.128882,0.391788,0.903515,48.202050,-8.144711,161.667720
51719,NaN,0.175715,8.125929,7.468354,1.410386,-0.296665,1.130807,0.185130,-0.667346,0.445226,0.115638,0.132873,0.392002,0.902944,48.332274,-8.585917,161.545577
51720,NaN,0.276399,9.434345,8.347993,1.580761,-0.550689,2.676052,0.214615,-1.021403,0.515201,0.115218,0.138615,0.392089,0.902096,48.500541,-9.191628,161.295194
51721,NaN,1.300078,10.479605,8.595396,0.756138,-0.772328,3.760171,0.204991,-1.242245,0.574593,0.114964,0.145456,0.391946,0.901113,48.678432,-9.905514,160.969351
51722,NaN,3.205404,11.251162,8.841770,-0.820036,-0.527535,4.818995,0.180731,-1.352369,0.609070,0.114783,0.152842,0.391588,0.900069,48.853636,-10.675143,160.605273
51723,NaN,4.245947,11.747282,8.877548,-1.614158,-0.519405,5.417502,0.086015,-1.345213,0.650180,0.114470,0.160210,0.390753,0.899189,48.976184,-11.458579,160.257208
51724,NaN,4.102974,11.652316,8.941173,-1.247329,-0.505432,5.377454,-0.080296,-1.366902,0.699864,0.114102,0.167672,0.389096,0.898594,49.006835,-12.271512,159.916532
51725,NaN,3.777971,11.146082,9.034184,-0.671612,-0.285409,5.005816,-0.243472,-1.465484,0.744807,0.113851,0.175557,0.386587,0.898203,48.954689,-13.140796,159.548938
51726,NaN,3.691148,10.359697,8.888308,-0.392610,0.028258,4.322044,-0.335046,-1.536880,0.799460,0.113566,0.183806,0.383550,0.897890,48.858386,-14.061242,159.170239
51727,NaN,3.694690,9.431727,8.588869,-0.257275,0.368754,3.460231,-0.325941,-1.586302,0.874175,0.113021,0.192408,0.380427,0.897486,48.771415,-15.032962,158.798981
51728,NaN,3.704188,8.349382,8.134902,-0.196800,0.735424,2.394945,-0.190355,-1.576036,0.945838,0.111998,0.201164,0.377816,0.896797,48.759960,-16.032169,158.459166
51729,NaN,3.728757,7.853182,7.644697,-0.213754,0.704438,1.740320,-0.064038,-1.527128,1.015233,0.110433,0.209883,0.375697,0.895883,48.812984,-17.042548,158.166845
51730,NaN,3.913751,7.318133,6.892490,-0.508652,0.611263,0.945719,0.054415,-1.488758,1.102621,0.108271,0.218643,0.374007,0.894757,48.924332,-18.075930,157.923039
51731,NaN,4.342108,7.162279,6.420264,-0.917554,0.530315,0.687110,0.143359,-1.381232,1.170172,0.105501,0.227078,0.372667,0.893546,49.067664,-19.097452,157.751369
51732,NaN,4.588644,6.850411,6.014533,-1.142138,0.544283,0.314248,0.245776,-1.315274,1.222877,0.102247,0.235353,0.371730,0.892172,49.256951,-20.116757,157.626654
51733,NaN,4.772788,6.811734,5.671583,-1.295129,0.390694,0.162953,0.331508,-1.216911,1.258256,0.098540,0.243278,0.371153,0.890702,49.477751,-21.114296,157.557438
51734,NaN,4.773975,6.708762,5.643383,-1.137519,0.413663,0.095814,0.368636,-1.163511,1.295855,0.094517,0.251036,0.370694,0.889176,49.708190,-22.108164,157.523204
51735,NaN,4.380736,6.299077,5.485232,-0.720248,0.435924,-0.418765,0.364318,-1.209000,1.297796,0.090566,0.258977,0.370161,0.887530,49.946286,-23.119600,157.463711
51736,NaN,4.479197,6.657683,5.190961,-0.780394,0.008163,-0.287850,0.417743,-1.175676,1.283280,0.086543,0.266747,0.369870,0.885750,50.214223,-24.112108,157.408871
51737,NaN,4.514523,6.849045,4.974625,-0.753135,-0.277853,-0.252848,0.296988,-1.147327,1.257992,0.082734,0.274273,0.369060,0.884152,50.414217,-25.082959,157.352727
51738,NaN,4.329705,6.554399,4.915050,-0.493637,-0.204373,-0.561913,0.230358,-1.059647,1.234340,0.078952,0.281319,0.368000,0.882724,50.564232,-26.011154,157.326258
51739,NaN,4.286452,6.247164,5.037952,-0.271347,0.037473,-0.718454,0.183061,-0.947205,1.158282,0.075361,0.287695,0.366858,0.881458,50.677526,-26.864844,157.321954
51740,NaN,4.486977,6.175410,5.183223,-0.239911,0.206717,-0.591352,0.107749,-0.718296,1.057933,0.071898,0.292834,0.365599,0.880578,50.714959,-27.590849,157.389521
51741,NaN,4.253721,5.709968,5.247621,0.044317,0.463297,-0.979904,0.079990,-0.510708,0.969264,0.068483,0.296877,0.364407,0.879989,50.703851,-28.202361,157.525083
51742,NaN,3.942509,5.381452,5.321505,0.383880,0.607851,-1.309480,0.121158,-0.310918,0.873703,0.065061,0.299874,0.363599,0.879567,50.685685,-28.698833,157.722804
51743,NaN,3.630792,5.161078,5.134189,0.563014,0.526730,-1.714255,0.151335,-0.141086,0.777158,0.061710,0.301953,0.363115,0.879297,50.660618,-29.090903,157.967423
51744,NaN,3.776249,4.974916,4.821611,0.286980,0.504787,-1.943731,0.220165,-0.034612,0.664380,0.058556,0.303375,0.363133,0.879016,50.669912,-29.394178,158.220158
51745,NaN,4.143320,5.105908,4.327685,-0.247034,0.218630,-1.947743,0.278829,0.109843,0.583550,0.055409,0.304031,0.363568,0.878813,50.691831,-29.609309,158.512887
51746,NaN,4.151923,4.989695,4.037070,-0.412401,0.121659,-2.180614,0.277374,0.185792,0.497685,0.052499,0.304192,0.364147,0.878697,50.710546,-29.758828,158.809362
51747,NaN,4.309361,4.888961,3.387573,-0.907681,-0.155225,-2.525700,0.346853,0.209152,0.409414,0.049830,0.304107,0.365166,0.878459,50.780644,-29.861024,159.080857
51748,NaN,4.306218,5.135677,3.273301,-0.924573,-0.406218,-2.422604,0.341753,0.265001,0.306205,0.047518,0.303583,0.366333,0.878282,50.854869,-29.897353,159.338190
51749,NaN,4.738642,5.919416,3.141620,-1.238272,-0.930305,-1.752589,0.115628,0.387919,0.247193,0.045586,0.302358,0.366622,0.878687,50.780375,-29.863132,159.633457
51750,NaN,4.610780,5.854083,3.446876,-0.981032,-0.750409,-1.695734,-0.040681,0.508381,0.230369,0.043740,0.300532,0.366276,0.879551,50.589681,-29.776977,159.983355
51751,NaN,4.243260,5.810056,4.200990,-0.286652,-0.384905,-1.495243,-0.139692,0.577271,0.180768,0.042135,0.298292,0.365580,0.880681,50.336142,-29.642819,160.346483
51752,NaN,4.042963,6.221780,5.006340,0.352572,-0.270755,-0.872790,-0.193510,0.610583,0.139244,0.040732,0.295811,0.364713,0.881942,50.053580,-29.476473,160.707905
51753,NaN,3.502802,6.710910,6.269707,1.525272,-0.027549,-0.102500,-0.233396,0.578369,0.119305,0.039534,0.293428,0.363689,0.883214,49.761925,-29.311911,161.042901
51754,NaN,2.902124,6.757614,7.236542,2.521431,0.342466,0.186322,-0.190010,0.452881,0.168161,0.038284,0.291692,0.362758,0.884227,49.516992,-29.213664,161.334782
51755,NaN,2.349660,6.324701,7.743282,3.175177,0.804001,-0.078573,-0.029729,0.223813,0.264428,0.036793,0.291174,0.362348,0.884629,49.400014,-29.241898,161.552597
51756,NaN,2.531663,5.618756,7.801656,2.973824,1.414285,-0.431774,0.351620,-0.240631,0.382357,0.035063,0.292991,0.363368,0.883680,49.590099,-29.494411,161.589280
51757,NaN,3.874948,5.391783,6.759908,1.332081,1.342126,-0.527961,0.885322,-0.684849,0.433330,0.033137,0.296950,0.366583,0.881101,50.186910,-29.933341,161.421240
51758,NaN,5.928905,6.548138,4.912983,-1.083216,-0.020283,0.236799,1.084600,-0.742093,0.358479,0.031344,0.301045,0.370764,0.878023,50.933028,-30.358361,161.186131
51759,NaN,5.774734,7.805829,4.792923,-0.728920,-0.980920,0.946335,0.627213,-0.385402,0.138527,0.030548,0.303087,0.373310,0.876268,51.373889,-30.554770,161.037526
51760,NaN,5.525171,7.700518,5.229683,-0.258249,-0.659885,0.988833,0.243954,-0.173487,0.100799,0.030098,0.304067,0.374266,0.875536,51.548157,-30.658080,160.982766
51761,NaN,4.840025,6.864648,5.794115,0.480345,0.108426,0.379392,-0.187104,-0.004482,0.089914,0.030037,0.304222,0.373374,0.875864,51.432766,-30.696092,161.011105
51762,NaN,4.649057,5.835112,5.408767,0.239087,0.528311,-0.615912,-0.296455,0.052634,0.077073,0.030089,0.304086,0.372033,0.876481,51.242347,-30.707948,161.064327
51763,NaN,5.042086,5.431663,5.236528,-0.250932,0.799353,-0.776933,-0.168002,0.046878,0.074023,0.029974,0.303989,0.371256,0.876848,51.127554,-30.720260,161.112802
51764,NaN,5.694415,5.237688,5.019392,-0.936808,0.977431,-0.690130,0.057051,0.027535,0.033956,0.029724,0.303935,0.371525,0.876761,51.155500,-30.721746,161.135026
51765,NaN,5.356122,5.638884,4.984833,-0.610070,0.583785,-0.613742,0.302662,0.083824,0.007500,0.029117,0.303622,0.372917,0.876298,51.314689,-30.691184,161.174978
51766,NaN,5.180710,6.473367,5.552595,-0.006304,0.314905,0.161094,0.289283,0.168122,0.066311,0.028110,0.303046,0.374174,0.875995,51.431529,-30.656946,161.283804
51767,NaN,5.060021,6.140131,5.383777,-0.057438,0.431969,-0.215805,0.320687,0.100530,0.106837,0.027009,0.302846,0.375495,0.875533,51.575527,-30.665168,161.373804
51768,NaN,4.651210,5.589524,4.848093,-0.100721,0.398363,-1.082766,0.548283,-0.144848,0.133048,0.025905,0.303798,0.377739,0.874271,51.910135,-30.772593,161.346685
51769,NaN,4.203747,5.749486,4.159155,-0.045818,-0.237493,-1.568436,0.776458,-0.476966,0.129859,0.025102,0.306222,0.380934,0.872059,52.466506,-30.995015,161.141331
51770,NaN,4.977643,7.113400,3.956838,-0.472457,-1.074761,-0.344042,0.516596,-0.432712,0.213044,0.024242,0.308572,0.382870,0.870406,52.846580,-31.238540,160.991415
51771,NaN,5.730457,7.027821,3.652398,-1.220294,-0.983600,-0.163246,0.119107,-0.254614,0.256840,0.023468,0.310181,0.383025,0.869787,52.941214,-31.439977,160.952536
51772,NaN,5.897025,6.051285,3.784776,-1.448776,-0.169889,-0.669951,-0.044845,0.037217,0.255422,0.022392,0.310497,0.382504,0.869931,52.860866,-31.539910,161.069823
51773,NaN,5.662553,5.577917,3.883796,-1.294704,0.146539,-1.062615,-0.013373,0.249740,0.215460,0.021037,0.309817,0.382204,0.870340,52.747134,-31.547877,161.284520
51774,NaN,5.786308,5.840397,4.018407,-1.276461,0.067065,-0.751489,0.067310,0.385738,0.154250,0.019561,0.308434,0.382364,0.870795,52.654916,-31.480342,161.547372
51775,NaN,5.620561,5.995140,4.352454,-0.945772,0.119610,-0.562422,0.073936,0.468428,0.092823,0.018185,0.306574,0.382652,0.871355,52.556946,-31.355866,161.828663
51776,NaN,5.230016,5.965559,4.614368,-0.517952,0.199640,-0.651620,0.055829,0.489840,0.030353,0.017066,0.304496,0.382959,0.871971,52.457070,-31.194945,162.095396
51777,NaN,4.429964,6.148770,4.842256,0.266034,0.005786,-0.823331,0.065397,0.452010,-0.005241,0.016164,0.302517,0.383355,0.872503,52.381562,-31.030954,162.326204
51778,NaN,3.705138,6.562873,5.102689,1.059045,-0.302592,-0.778109,0.074025,0.371785,0.019903,0.015289,0.300933,0.383744,0.872896,52.328370,-30.906000,162.524849
51779,NaN,3.664479,6.706215,5.717228,1.436542,-0.006795,-0.377396,0.039771,0.217369,0.055123,0.014615,0.300090,0.383915,0.873122,52.290546,-30.851049,162.655075
51780,NaN,4.159435,6.806240,5.995708,1.196344,0.233763,0.091274,0.029076,0.048859,0.076481,0.014181,0.300019,0.383998,0.873117,52.287742,-30.864719,162.705911
51781,NaN,4.569295,6.869910,5.666145,0.702881,0.076990,0.171267,0.050895,-0.054512,0.065812,0.013964,0.300383,0.384182,0.872914,52.327614,-30.909833,162.697101
51782,NaN,4.559512,7.074740,5.396246,0.616970,-0.245839,0.163258,0.026786,-0.044967,0.053557,0.013813,0.300678,0.384282,0.872771,52.353740,-30.945989,162.688993
51783,NaN,4.436673,6.997699,5.254602,0.632244,-0.317195,-0.026864,-0.031849,-0.052172,0.050702,0.013782,0.300996,0.384127,0.872730,52.348742,-30.983363,162.675278
51784,NaN,4.514190,6.902784,5.041888,0.441950,-0.375999,-0.163321,-0.078517,-0.090394,0.064175,0.013831,0.301502,0.383748,0.872721,52.324697,-31.040239,162.647463
51785,NaN,4.793966,6.715158,4.726336,0.013582,-0.388198,-0.312013,-0.110633,-0.129639,0.067772,0.013990,0.302185,0.383218,0.872715,52.292035,-31.112570,162.600046
51786,NaN,5.184265,6.557152,4.539101,-0.429217,-0.308207,-0.315474,-0.122437,-0.140630,0.058267,0.014227,0.302896,0.382653,0.872713,52.257878,-31.184405,162.543241
51787,NaN,5.402753,6.335937,4.247143,-0.802677,-0.293513,-0.504539,-0.081902,-0.117330,0.026516,0.014503,0.303448,0.382312,0.872666,52.247396,-31.233563,162.484971
51788,NaN,5.596223,6.254382,4.110902,-1.046388,-0.276632,-0.530281,-0.032872,-0.059068,-0.007524,0.014735,0.303682,0.382243,0.872611,52.256229,-31.247003,162.444373
51789,NaN,5.705750,6.194003,4.048605,-1.182382,-0.244361,-0.546905,0.006331,0.017041,-0.035914,0.014888,0.303535,0.382391,0.872595,52.272483,-31.221002,162.432179
51790,NaN,5.782901,6.265783,4.301265,-1.099257,-0.104684,-0.326722,0.034201,0.075705,-0.051800,0.014954,0.303102,0.382691,0.872613,52.292124,-31.167117,162.444857
51791,NaN,5.825253,6.507878,4.709337,-0.872635,0.009520,0.071761,0.063491,0.126565,-0.051933,0.014884,0.302452,0.383122,0.872651,52.314739,-31.095391,162.483755
51792,NaN,5.585410,6.713691,5.102565,-0.434876,0.068427,0.292401,0.074170,0.164787,-0.061472,0.014761,0.301614,0.383617,0.872725,52.335010,-31.005932,162.539661
51793,NaN,5.052865,6.791142,5.310804,0.112467,0.023381,0.179433,0.097769,0.196904,-0.094378,0.014687,0.300577,0.384265,0.872799,52.366972,-30.890516,162.598786
51794,NaN,4.982213,7.034234,5.461743,0.283303,-0.056254,0.387806,0.067230,0.183077,-0.093505,0.014679,0.299597,0.384779,0.872910,52.385199,-30.780166,162.651276
51795,NaN,5.055978,7.045377,5.399922,0.174852,-0.079582,0.401150,0.028120,0.172813,-0.070192,0.014652,0.298705,0.385085,0.873081,52.379074,-30.684023,162.707220
51796,NaN,5.043986,6.978027,5.244634,0.072507,-0.136125,0.267840,-0.001346,0.170904,-0.037960,0.014527,0.297879,0.385214,0.873308,52.349985,-30.603125,162.775748
51797,NaN,5.173569,6.904453,4.966567,-0.211658,-0.238348,0.137310,-0.043100,0.179189,-0.020373,0.014377,0.297052,0.385135,0.873627,52.291437,-30.527484,162.854894
51798,NaN,5.229133,6.652351,4.651773,-0.491550,-0.264266,-0.172920,-0.103802,0.215354,0.003229,0.014139,0.296104,0.384758,0.874119,52.183603,-30.449516,162.963241
51799,NaN,5.276101,6.401616,4.229961,-0.821314,-0.369419,-0.544493,-0.129759,0.244080,0.020741,0.013812,0.295063,0.384243,0.874703,52.049938,-30.369247,163.092992
51800,NaN,5.236860,6.429415,4.160323,-0.837874,-0.461929,-0.584747,-0.167604,0.259762,0.034849,0.013445,0.293976,0.383542,0.875382,51.887856,-30.289437,163.236888
51801,NaN,5.054017,6.502487,4.486740,-0.519970,-0.361838,-0.455610,-0.192320,0.267894,0.023945,0.013150,0.292833,0.382748,0.876116,51.712237,-30.201698,163.379566
51802,NaN,4.901562,6.364462,5.163957,-0.086113,0.128825,-0.264176,-0.167158,0.203997,0.010212,0.012997,0.291942,0.382080,0.876707,51.570805,-30.129939,163.483582
51803,NaN,4.461705,5.959731,5.335238,0.272947,0.411400,-0.666857,-0.038783,0.119947,-0.028047,0.012989,0.291358,0.382025,0.876926,51.533108,-30.071109,163.527348
51804,NaN,4.175995,6.154975,5.809778,0.789755,0.522498,-0.422296,0.104700,0.013967,-0.055123,0.013089,0.291192,0.382631,0.876715,51.610539,-30.037586,163.505722
51805,NaN,4.533976,6.672812,6.422954,0.917774,0.666628,0.436750,0.154448,-0.086431,-0.042418,0.013255,0.291496,0.383429,0.876263,51.739932,-30.045630,163.436781
51806,NaN,4.957347,6.924438,6.693927,0.766638,0.792705,0.963009,0.155100,-0.109693,-0.032755,0.013421,0.291918,0.384215,0.875775,51.873798,-30.065913,163.360133
51807,NaN,4.981010,7.056212,6.373099,0.614008,0.509221,0.891548,0.109438,-0.061585,-0.022883,0.013523,0.292148,0.384790,0.875445,51.967194,-30.073561,163.311605
51808,NaN,5.141193,7.118224,6.413562,0.519705,0.542053,1.034932,0.031602,-0.044023,0.000303,0.013598,0.292337,0.384991,0.875292,52.006448,-30.085386,163.282604
51809,NaN,5.535818,6.802186,5.796015,-0.190968,0.454295,0.688072,-0.015552,-0.017430,0.001835,0.013691,0.292412,0.384984,0.875269,52.011544,-30.088446,163.267179
51810,NaN,5.490575,6.482920,4.955153,-0.658817,0.108787,-0.000331,0.004765,0.048157,-0.016300,0.013700,0.292164,0.385098,0.875301,52.014707,-30.060255,163.279509
51811,NaN,5.293569,6.407776,4.275917,-0.872675,-0.337156,-0.512705,0.030659,0.118821,-0.055286,0.013711,0.291536,0.385386,0.875384,52.022216,-29.989662,163.312074
51812,NaN,5.305467,6.431874,4.051475,-1.007338,-0.498337,-0.611147,0.021409,0.191411,-0.055134,0.013590,0.290587,0.385639,0.875590,52.005574,-29.893417,163.383239
51813,NaN,5.409915,6.723019,4.348142,-0.900537,-0.480001,-0.203780,-0.012556,0.284435,-0.060342,0.013366,0.289223,0.385755,0.875993,51.946783,-29.762279,163.499694
51814,NaN,5.462680,7.278156,5.080591,-0.484633,-0.376600,0.591543,-0.111929,0.421658,-0.050682,0.012975,0.287264,0.385432,0.876786,51.794237,-29.586433,163.691639
51815,NaN,5.041526,6.719520,5.602444,-0.015879,0.245476,0.281649,-0.130913,0.511946,-0.039787,0.012390,0.284930,0.385010,0.877741,51.606486,-29.383195,163.933409
51816,NaN,3.890909,6.333953,6.210891,1.143539,0.636549,-0.214754,0.007211,0.432079,-0.028015,0.011709,0.282973,0.385174,0.878311,51.517026,-29.212914,164.138175
51817,NaN,3.571201,6.722563,6.801989,1.763654,0.687579,0.218769,0.103202,0.213000,-0.024898,0.011306,0.281994,0.385740,0.878383,51.537696,-29.122302,164.230255
51818,NaN,3.807234,6.948831,6.712381,1.556219,0.535860,0.440525,0.115384,0.046510,-0.002737,0.011104,0.281785,0.386319,0.878198,51.602320,-29.100704,164.246901
51819,NaN,3.717723,6.998216,6.364302,1.468941,0.257443,0.241006,0.104002,-0.053696,0.019236,0.011022,0.282059,0.386810,0.877895,51.681228,-29.124557,164.220059
51820,NaN,3.683195,6.998687,6.117010,1.383737,0.091458,0.088941,0.065448,-0.133236,0.039955,0.011051,0.282718,0.387099,0.877555,51.753838,-29.186002,164.161558
51821,NaN,4.080021,6.801966,5.495607,0.713818,-0.089839,-0.189935,0.015407,-0.211406,0.077548,0.011142,0.283793,0.387109,0.877202,51.810149,-29.292072,164.077064
51822,NaN,4.453047,6.528609,4.774955,0.001114,-0.290759,-0.584037,0.031444,-0.233109,0.084378,0.011217,0.284974,0.387180,0.876787,51.880043,-29.408769,163.984712
51823,NaN,4.503249,6.432782,4.314446,-0.274124,-0.517896,-0.872274,0.007300,-0.242418,0.089656,0.011327,0.286207,0.387135,0.876404,51.937763,-29.531072,163.888554
51824,NaN,4.657754,6.488238,4.264850,-0.398610,-0.551254,-0.783952,-0.020019,-0.218228,0.085492,0.011441,0.287321,0.386978,0.876107,51.974702,-29.642861,163.803899
51825,NaN,5.064135,6.407818,4.548661,-0.594983,-0.205506,-0.485326,-0.015409,-0.112360,0.049370,0.011506,0.287901,0.386896,0.875952,51.994097,-29.700846,163.759192
51826,NaN,5.081989,6.198209,4.596187,-0.623266,-0.020032,-0.594201,0.035393,0.005495,-0.009516,0.011524,0.287854,0.387131,0.875863,52.024525,-29.690764,163.752050
51827,NaN,4.917908,6.161509,4.705939,-0.440443,0.045835,-0.642094,0.072291,0.056368,-0.052274,0.011584,0.287506,0.387591,0.875773,52.071708,-29.643457,163.753160
51828,NaN,4.971516,6.379277,4.957457,-0.317264,0.084429,-0.332195,0.074328,0.038690,-0.057910,0.011693,0.287222,0.388068,0.875654,52.125576,-29.599802,163.743712
51829,NaN,5.336317,6.727886,5.468346,-0.293432,0.282480,0.359709,0.051167,0.003586,-0.054281,0.011893,0.287100,0.388435,0.875529,52.174413,-29.570146,163.716835
51830,NaN,5.834780,6.984080,5.903646,-0.438905,0.526363,1.013456,0.039810,0.028303,-0.050170,0.012039,0.286874,0.388749,0.875461,52.209575,-29.533631,163.705195
51831,NaN,6.077330,7.166174,6.084901,-0.520847,0.588009,1.354092,0.050196,0.110368,-0.064423,0.012076,0.286263,0.389131,0.875491,52.232194,-29.461783,163.730134
51832,NaN,5.982535,7.351494,6.278338,-0.323939,0.572906,1.537181,0.052582,0.228451,-0.085827,0.011970,0.285092,0.389563,0.875682,52.230595,-29.338874,163.808229
51833,NaN,5.406879,7.337771,6.106477,0.041826,0.331439,1.153379,0.052998,0.304200,-0.068968,0.011647,0.283627,0.389975,0.875979,52.206962,-29.197262,163.931505
51834,NaN,4.855019,7.222286,5.966569,0.386101,0.186237,0.730025,0.039583,0.279648,-0.019091,0.011167,0.282360,0.390258,0.876269,52.172378,-29.086530,164.062672
51835,NaN,4.337512,7.022882,5.994219,0.778112,0.220360,0.356458,0.047270,0.214445,0.038952,0.010557,0.281496,0.390486,0.876453,52.147733,-29.024943,164.182146
51836,NaN,3.772689,6.827010,6.204358,1.313467,0.367489,0.060259,0.089287,0.088448,0.076250,0.009963,0.281255,0.390841,0.876379,52.171376,-29.024495,164.252483
51837,NaN,3.830233,6.577042,6.372478,1.307152,0.678401,0.004020,0.176939,-0.090674,0.107277,0.009465,0.281865,0.391523,0.875884,52.283968,-29.101020,164.241932
51838,NaN,4.200091,5.912046,5.515026,0.453022,0.667067,-0.737545,0.401048,-0.238638,0.083299,0.009040,0.283084,0.393215,0.874736,52.567546,-29.218337,164.145095
51839,NaN,4.262924,6.782477,5.125983,0.411282,-0.148741,-0.312226,0.402909,-0.250191,-0.008270,0.009043,0.284175,0.395040,0.873559,52.873416,-29.297437,164.004131
51840,NaN,3.910323,7.084039,5.114012,0.789747,-0.415644,-0.282169,0.255170,-0.337569,-0.001975,0.009394,0.285650,0.396207,0.872546,53.116437,-29.409008,163.820106
51841,NaN,4.095877,6.686515,4.906093,0.476479,-0.216037,-0.577883,0.174234,-0.457662,0.031849,0.009958,0.287711,0.396963,0.871518,53.338428,-29.576495,163.584412
51842,NaN,5.006946,6.623013,4.608869,-0.409531,-0.128097,-0.326321,0.234364,-0.519881,0.073530,0.010370,0.290126,0.397917,0.870277,53.604425,-29.783666,163.331755
51843,NaN,5.901586,6.708644,4.379656,-1.211050,-0.094038,0.063564,0.233419,-0.422639,0.089188,0.010527,0.292150,0.398843,0.869173,53.842430,-29.964249,163.134718
51844,NaN,5.870075,6.789051,4.348884,-1.149772,-0.153355,0.092674,0.217183,-0.268498,0.064617,0.010502,0.293449,0.399744,0.868322,54.035753,-30.080710,163.010254
51845,NaN,5.240334,7.255059,4.845662,-0.248386,-0.268880,0.358025,0.163211,-0.130650,0.049899,0.010346,0.294118,0.400433,0.867779,54.163751,-30.143920,162.953405
51846,NaN,5.446940,7.173783,5.347994,-0.163283,0.198085,0.659535,0.120237,-0.054744,0.038645,0.010148,0.294432,0.400961,0.867431,54.249521,-30.176176,162.932969
51847,NaN,5.240021,7.106249,5.725373,0.194180,0.462299,0.698500,0.134567,0.057352,0.036822,0.009717,0.294256,0.401555,0.867221,54.313059,-30.169899,162.971837
51848,NaN,4.461350,7.060164,6.274257,1.115324,0.687754,0.550656,0.167993,0.026735,0.050323,0.009235,0.294241,0.402277,0.866897,54.401921,-30.180342,162.999694
51849,NaN,4.832555,7.131429,6.773876,1.093609,1.096059,1.036224,0.196315,-0.113802,0.047184,0.009013,0.294834,0.403116,0.866308,54.545677,-30.236354,162.949744
51850,NaN,5.117686,7.084099,6.337548,0.641137,0.920155,0.924251,0.217197,-0.212820,0.017659,0.009082,0.295793,0.404087,0.865527,54.734368,-30.311084,162.835418
51851,NaN,4.739285,6.954856,5.033724,0.271030,0.031849,-0.009900,0.247116,-0.282781,0.006143,0.009307,0.297034,0.405197,0.864581,54.961860,-30.402926,162.677397
51852,NaN,4.670980,7.079234,4.193080,-0.058039,-0.629352,-0.372560,0.188427,-0.301054,0.029682,0.009545,0.298396,0.406019,0.863723,55.156862,-30.511532,162.518726
51853,NaN,4.917812,6.976473,3.923525,-0.400140,-0.668089,-0.450872,0.066716,-0.329896,0.068251,0.009866,0.299954,0.406252,0.863070,55.283131,-30.646926,162.357501
51854,NaN,5.590414,6.648528,3.843144,-1.042403,-0.320211,-0.376788,0.024015,-0.310644,0.101912,0.010058,0.301494,0.406253,0.862530,55.373774,-30.792050,162.219937
51855,NaN,5.899078,6.518475,3.819188,-1.313153,-0.162943,-0.319275,0.041018,-0.222025,0.108177,0.010022,0.302666,0.406317,0.862090,55.447982,-30.911064,162.132645
51856,NaN,5.429816,6.353589,3.913151,-0.896826,-0.104627,-0.628545,0.087400,-0.187622,0.106678,0.009847,0.303688,0.406589,0.861604,55.540099,-31.018166,162.063784
51857,NaN,5.011869,6.161538,4.052864,-0.503659,0.021761,-0.910167,0.176590,-0.251709,0.091811,0.009734,0.304957,0.407258,0.860841,55.703947,-31.138612,161.953634
51858,NaN,5.064362,6.780267,4.414563,-0.185045,-0.110543,-0.270066,0.180242,-0.241313,0.093143,0.009586,0.306186,0.407946,0.860080,55.867962,-31.256297,161.849130
51859,NaN,5.023278,7.111990,4.794348,0.151590,-0.067864,0.125717,0.076163,-0.151623,0.115859,0.009323,0.307073,0.408152,0.859669,55.942403,-31.355897,161.801717
51860,NaN,4.767599,6.888491,5.015610,0.443586,0.168858,-0.060131,0.022431,-0.114828,0.138504,0.008964,0.307842,0.408097,0.859424,55.971111,-31.454280,161.783977
51861,NaN,4.516593,6.740227,5.109319,0.678400,0.266382,-0.252132,0.055015,-0.097284,0.115559,0.008621,0.308492,0.408213,0.859139,56.017613,-31.536229,161.766845
51862,NaN,4.341881,6.866299,4.860042,0.731027,-0.031377,-0.374330,0.128484,-0.123274,0.070282,0.008408,0.309163,0.408718,0.858660,56.123140,-31.604851,161.718523
51863,NaN,4.099471,7.109849,5.050947,1.107533,-0.113663,-0.240432,0.130977,-0.256410,0.073317,0.008453,0.310409,0.409216,0.857973,56.267918,-31.717186,161.596774
51864,NaN,4.063034,7.080474,5.056809,1.162342,-0.085884,-0.280943,0.130855,-0.415917,0.074984,0.008815,0.312343,0.409709,0.857031,56.460875,-31.880713,161.385421
51865,NaN,4.801572,6.941278,5.109914,0.599445,0.262157,0.032080,0.155791,-0.474077,0.034831,0.009436,0.314448,0.410365,0.855941,56.694594,-32.042804,161.124254
51866,NaN,5.520885,6.721231,4.729653,-0.204948,0.365381,0.079183,0.190008,-0.388278,-0.031502,0.010104,0.316045,0.411275,0.854908,56.936163,-32.145184,160.886934
51867,NaN,5.260413,6.670246,4.350768,-0.192082,0.093714,-0.270806,0.255793,-0.319611,-0.092507,0.010796,0.317225,0.412561,0.853841,57.207144,-32.195631,160.664623
51868,NaN,5.325676,6.716967,4.132358,-0.336867,-0.036782,-0.302592,0.257473,-0.245962,-0.154753,0.011591,0.317961,0.413958,0.852881,57.469215,-32.192714,160.462032
51869,NaN,5.093253,7.039709,4.194408,-0.031882,-0.239527,-0.167308,0.201312,-0.118292,-0.159545,0.012236,0.318139,0.415125,0.852238,57.660658,-32.147486,160.330304
51870,NaN,5.317421,7.270091,4.738899,0.143486,0.078662,0.363733,0.115318,-0.011312,-0.158154,0.012785,0.317857,0.415934,0.851940,57.770239,-32.069983,160.260886
51871,NaN,5.888119,7.074362,4.758066,-0.359256,0.399863,0.534619,0.051050,0.063403,-0.150531,0.013255,0.317272,0.416459,0.851895,57.818755,-31.973334,160.236164
51872,NaN,6.263482,6.957662,4.287368,-0.962332,0.263762,0.435537,0.018474,0.119442,-0.131084,0.013571,0.316483,0.416819,0.852007,57.827843,-31.868954,160.251499
51873,NaN,6.397023,6.904919,3.566561,-1.496544,-0.162531,0.139905,0.031406,0.157902,-0.128907,0.013781,0.315535,0.417229,0.852155,57.831808,-31.753715,160.289292
51874,NaN,6.089026,7.030178,3.299490,-1.385574,-0.515655,-0.055612,0.023644,0.209775,-0.103214,0.013781,0.314418,0.417574,0.852399,57.811631,-31.635286,160.366065
51875,NaN,6.005869,7.002934,3.021189,-1.495450,-0.718047,-0.247796,-0.033122,0.189048,-0.055981,0.013719,0.313490,0.417597,0.852730,57.756541,-31.546247,160.446835
51876,NaN,6.137497,7.035412,3.302487,-1.454774,-0.510929,-0.030312,-0.084719,0.184382,-0.000903,0.013506,0.312687,0.417316,0.853166,57.663039,-31.485018,160.545497
51877,NaN,6.801184,7.378343,3.880010,-1.611023,-0.154737,0.823623,-0.143639,0.281749,0.003621,0.013171,0.311476,0.416781,0.853875,57.506444,-31.395684,160.699795
51878,NaN,6.896977,7.661097,4.491039,-1.325307,0.088888,1.352681,-0.221446,0.568204,0.009578,0.012326,0.309046,0.415922,0.855189,57.220643,-31.220402,161.018347
51879,NaN,5.869288,7.508585,4.936642,-0.348940,0.178131,0.913160,-0.214111,0.855349,-0.027275,0.011032,0.305310,0.415159,0.856917,56.864372,-30.936735,161.482566
51880,NaN,4.862964,6.986636,5.394545,0.520918,0.535113,0.237409,-0.171712,0.901652,-0.044635,0.009650,0.301333,0.414603,0.858609,56.526739,-30.627426,161.962969
51881,NaN,4.281493,6.573982,5.242513,0.755652,0.522517,-0.421840,-0.071770,0.795682,-0.086273,0.008518,0.297724,0.414521,0.859919,56.287179,-30.329748,162.365931
51882,NaN,4.191160,6.780465,5.147089,0.772687,0.287212,-0.360001,-0.005210,0.668470,-0.134309,0.007754,0.294561,0.414790,0.860885,56.133450,-30.048559,162.678851
51883,NaN,4.368853,6.783547,5.271286,0.641364,0.417710,-0.205199,0.026378,0.546074,-0.154642,0.007287,0.291882,0.415211,0.861598,56.036356,-29.796333,162.915595
51884,NaN,4.400897,6.762451,5.296437,0.578445,0.461542,-0.189636,0.044804,0.448578,-0.205693,0.007213,0.289514,0.415785,0.862121,55.987629,-29.550728,163.079230
51885,NaN,4.533733,6.938625,5.063018,0.350884,0.223372,-0.109066,0.098071,0.356180,-0.220103,0.007321,0.287522,0.416600,0.862393,55.997521,-29.328340,163.185973
51886,NaN,4.675354,6.975686,4.854328,0.103179,0.099838,-0.114083,0.113626,0.282201,-0.211708,0.007520,0.285859,0.417470,0.862524,56.034975,-29.133171,163.256130
51887,NaN,4.702189,7.040607,4.613277,-0.052639,-0.093758,-0.171556,0.114429,0.244016,-0.181075,0.007669,0.284428,0.418292,0.862597,56.077453,-28.965170,163.316198
51888,NaN,4.804907,6.977371,4.461272,-0.252852,-0.122795,-0.242174,0.107505,0.243036,-0.158574,0.007730,0.283043,0.419055,0.862682,56.112640,-28.807870,163.384552
51889,NaN,5.280737,6.985886,4.110175,-0.848607,-0.251315,-0.179465,0.101424,0.299439,-0.134970,0.007586,0.281470,0.419759,0.862855,56.126048,-28.644103,163.490782
51890,NaN,5.817413,7.432452,4.148356,-1.213765,-0.375998,0.418528,0.050665,0.468854,-0.132594,0.007141,0.279162,0.420246,0.863372,56.066236,-28.426988,163.690596
51891,NaN,6.030747,7.748297,4.711801,-1.100436,-0.132069,1.021439,-0.069286,0.751259,-0.136253,0.006290,0.275621,0.420222,0.864527,55.867179,-28.117249,164.039811
51892,NaN,5.585784,7.359977,4.986901,-0.749437,0.184945,0.658365,-0.103912,1.013347,-0.113979,0.004835,0.270985,0.420021,0.866098,55.582136,-27.732119,164.535452
51893,NaN,4.634342,7.186316,5.557444,0.209899,0.458115,0.373127,-0.101826,1.130467,-0.093858,0.003044,0.265883,0.419787,0.867799,55.270581,-27.316775,165.096423
51894,NaN,4.143292,7.282798,5.826149,0.698242,0.456097,0.358547,-0.074822,0.936114,-0.052238,0.001445,0.261698,0.419606,0.869162,55.020008,-26.981555,165.566088
51895,NaN,3.975871,7.336488,5.687421,0.733711,0.266832,0.255513,-0.054277,0.629671,-0.008859,0.000276,0.258935,0.419445,0.870068,54.849577,-26.766191,165.887665
51896,NaN,3.762549,7.277176,5.555494,0.811814,0.149666,0.051190,-0.079807,0.371205,0.027900,-0.000481,0.257369,0.419126,0.870686,54.720980,-26.652507,166.086752
51897,NaN,4.013208,6.925616,5.329117,0.398435,0.254276,-0.208207,-0.099804,0.193613,0.028048,-0.000834,0.256581,0.418717,0.871115,54.623040,-26.597574,166.191639
51898,NaN,4.195054,6.799254,5.057122,0.080704,0.165212,-0.359170,-0.107351,0.139063,0.024859,-0.001056,0.256018,0.418281,0.871490,54.534108,-26.558919,166.267712
51899,NaN,4.292838,6.690443,4.736264,-0.179184,0.011311,-0.561178,-0.127847,0.095793,0.012437,-0.001105,0.255624,0.417767,0.871852,54.445206,-26.529306,166.316125
51900,NaN,4.287661,6.525566,4.495655,-0.324045,-0.068234,-0.808894,-0.105248,0.085626,0.022584,-0.001208,0.255289,0.417343,0.872153,54.370427,-26.507208,166.363357
51901,NaN,4.317860,6.573431,4.327793,-0.420551,-0.222826,-0.848471,-0.040558,0.120075,0.025135,-0.001472,0.254817,0.417194,0.872362,54.324263,-26.475408,166.428619
51902,NaN,4.396287,6.974422,4.665544,-0.263427,-0.228186,-0.346130,-0.030787,0.256997,0.019189,-0.002013,0.253727,0.417098,0.872725,54.253174,-26.394330,166.563532
51903,NaN,4.820367,7.118467,5.068681,-0.445504,0.052085,0.157206,0.010601,0.426812,-0.000706,-0.002875,0.251860,0.417197,0.873215,54.169719,-26.247809,166.778725
51904,NaN,4.944016,7.373230,5.376459,-0.401815,0.127624,0.557279,0.054453,0.668167,-0.033321,-0.004151,0.248862,0.417529,0.873911,54.063433,-26.003908,167.105959
51905,NaN,4.577570,7.489719,5.587620,-0.016949,0.123303,0.591915,0.043510,0.788323,-0.048215,-0.005598,0.245308,0.417818,0.874769,53.927730,-25.712391,167.487904
51906,NaN,4.470910,7.577969,5.585284,0.038547,0.032653,0.608793,0.014211,0.751987,-0.052763,-0.006915,0.241897,0.417985,0.875629,53.787015,-25.429842,167.848090
51907,NaN,4.369186,7.527262,5.357421,-0.031249,-0.135378,0.406504,-0.056807,0.704851,-0.055068,-0.008034,0.238693,0.417836,0.876569,53.618299,-25.161775,168.181061
51908,NaN,3.750067,7.259832,5.295765,0.386980,-0.138306,-0.084161,-0.098952,0.619543,-0.039035,-0.008998,0.235889,0.417486,0.877485,53.443481,-24.928810,168.475707
51909,NaN,3.545312,6.999899,5.441897,0.537596,0.086693,-0.279300,-0.084602,0.411554,0.006143,-0.009737,0.234093,0.417149,0.878118,53.315242,-24.787060,168.680117
51910,NaN,3.748305,7.055367,5.307206,0.293933,-0.023485,-0.225850,-0.058133,0.232699,0.030317,-0.010246,0.233128,0.416911,0.878483,53.236904,-24.717295,168.803457
51911,NaN,4.142621,6.964079,5.050072,-0.191073,-0.090662,-0.267102,-0.006766,0.172990,0.033192,-0.010705,0.232436,0.416890,0.878670,53.199601,-24.670256,168.897494
51912,NaN,4.142478,6.925840,4.863451,-0.285249,-0.208644,-0.396976,-0.016855,0.253877,0.020800,-0.011264,0.231356,0.416841,0.878972,53.142309,-24.588648,169.027660
51913,NaN,4.104396,6.791152,4.803182,-0.321264,-0.178521,-0.544395,0.002827,0.362181,0.015509,-0.012046,0.229795,0.416875,0.879354,53.074720,-24.468102,169.209398
51914,NaN,4.337383,6.679902,4.777525,-0.588071,-0.092826,-0.544235,0.042380,0.511197,0.021971,-0.013215,0.227581,0.417067,0.879822,52.998489,-24.298100,169.468881
51915,NaN,4.442224,6.699187,4.855117,-0.681440,-0.039320,-0.446868,0.082276,0.674350,0.015130,-0.014736,0.224638,0.417426,0.880384,52.913763,-24.069096,169.806084
51916,NaN,4.709554,6.966694,4.875710,-0.900742,-0.164446,-0.135462,0.142994,0.833697,0.006496,-0.016623,0.220959,0.418046,0.880987,52.834679,-23.779828,170.219428
51917,NaN,4.087691,7.456074,5.438016,-0.083027,-0.172826,0.278750,0.073035,1.047637,-0.027566,-0.018730,0.216269,0.418361,0.881959,52.679876,-23.400247,170.724929
51918,NaN,4.129296,7.635555,5.372251,-0.178182,-0.350446,0.388234,-0.004013,1.103337,-0.052866,-0.020758,0.211280,0.418354,0.883125,52.479214,-22.988146,171.245359
51919,NaN,4.084623,7.668699,5.468080,-0.174448,-0.335554,0.446421,-0.139142,1.149296,-0.061289,-0.022694,0.206080,0.417740,0.884596,52.198510,-22.554035,171.780906
51920,NaN,3.470408,7.503603,5.761324,0.376340,-0.126258,0.256201,-0.216043,1.039241,-0.028182,-0.024474,0.201436,0.416752,0.886083,51.894452,-22.171241,172.272099
51921,NaN,3.640157,7.277977,5.703885,0.087476,-0.039515,0.124332,-0.270227,0.840335,-0.022757,-0.025803,0.197693,0.415532,0.887460,51.598823,-21.859586,172.664644
51922,NaN,4.542153,7.183346,5.490415,-0.893586,-0.075126,0.265587,-0.337231,0.821158,-0.042068,-0.026945,0.193993,0.414030,0.888943,51.273919,-21.543650,173.038642
51923,NaN,4.119049,6.943617,5.573704,-0.587558,0.045614,-0.019899,-0.379147,0.856709,-0.027760,-0.028181,0.190178,0.412311,0.890527,50.919711,-21.220334,173.431612
51924,NaN,3.504002,6.851132,5.744861,-0.040280,0.123189,-0.210484,-0.293167,0.731132,-0.030937,-0.029227,0.186888,0.410991,0.891799,50.639662,-20.937993,173.761612
51925,NaN,3.197622,6.871666,5.982861,0.273728,0.220251,-0.163049,-0.255226,0.618709,-0.015025,-0.030141,0.184129,0.409837,0.892873,50.400339,-20.702381,174.041730
51926,NaN,3.038286,6.918304,6.137905,0.439075,0.257810,-0.091136,-0.236278,0.530031,0.037369,-0.031131,0.181864,0.408728,0.893811,50.180607,-20.521144,174.300131
51927,NaN,3.155231,6.899383,6.283749,0.336798,0.361697,0.025913,-0.182176,0.486495,0.049459,-0.032128,0.179816,0.407856,0.894588,49.998931,-20.360679,174.540621
51928,NaN,3.191918,6.901427,6.456523,0.322387,0.467662,0.146326,-0.146434,0.488927,0.052527,-0.033182,0.177749,0.407136,0.895290,49.837299,-20.199683,174.783956
51929,NaN,2.709805,6.886743,6.742347,0.819901,0.627759,0.145378,-0.119726,0.508730,0.030838,-0.034197,0.175554,0.406550,0.895951,49.692208,-20.022066,175.025903
51930,NaN,2.580103,7.006629,6.719442,0.922862,0.503824,0.177058,-0.104386,0.488077,-0.029937,-0.034918,0.173314,0.406086,0.896570,49.567802,-19.824242,175.234872
51931,NaN,2.411912,7.028414,6.370349,0.952859,0.205297,-0.073740,-0.094402,0.339998,-0.082673,-0.035103,0.171635,0.405736,0.897044,49.480375,-19.658474,175.352729
51932,NaN,2.880831,7.292594,6.107173,0.465339,-0.142754,0.114129,-0.164101,0.219054,-0.118652,-0.034828,0.170430,0.405124,0.897560,49.376727,-19.521601,175.401155
51933,NaN,3.998663,7.480852,6.071891,-0.582060,-0.230335,0.600206,-0.273172,0.185784,-0.131036,-0.034333,0.169380,0.404038,0.898268,49.217783,-19.392747,175.427855
51934,NaN,4.875972,7.199885,5.742037,-1.587491,-0.250558,0.483004,-0.362662,0.381991,-0.152908,-0.034065,0.167408,0.402533,0.899323,48.980720,-19.179655,175.536500
51935,NaN,6.095550,7.009143,4.978739,-3.040791,-0.638999,0.257871,-0.384607,0.817298,-0.261008,-0.034162,0.163273,0.400941,0.900789,48.681926,-18.756203,175.798080
51936,NaN,6.927528,7.148137,4.099030,-4.133125,-1.391325,0.029458,-0.492748,1.477305,-0.385751,-0.034936,0.155915,0.398833,0.902996,48.246123,-18.025986,176.305467
51937,NaN,6.091176,8.307311,4.773444,-3.114091,-1.880803,0.941711,-1.249416,2.496559,-0.430856,-0.036933,0.143976,0.393117,0.907395,47.258461,-16.877343,177.234360
51938,NaN,0.508503,5.259544,6.927653,1.999595,1.377945,-1.445240,-0.966622,2.041500,-0.100221,-0.039745,0.134677,0.388463,0.910703,46.472367,-16.032338,178.077555
51939,NaN,1.356413,6.054972,7.193744,1.250924,0.973983,-0.445857,-0.478349,1.615930,-0.072026,-0.042178,0.127253,0.386054,0.912683,46.025943,-15.357989,178.736538
51940,NaN,1.611787,6.748061,7.560340,1.096031,0.712321,0.364911,-0.241390,1.145409,0.028979,-0.044318,0.122122,0.384746,0.913834,45.765211,-14.909909,179.230775
51941,NaN,0.517815,6.996595,8.005524,2.203723,0.814124,0.569472,-0.184715,0.921694,0.056572,-0.046172,0.118062,0.383733,0.914701,45.564240,-14.561404,179.636446
51942,NaN,-0.349766,7.074832,8.099018,3.020318,0.801134,0.483203,-0.191518,0.542380,0.054915,-0.047301,0.115721,0.382758,0.915351,45.399759,-14.362737,179.882141
51943,NaN,-0.206601,6.951164,8.061083,2.832009,0.844226,0.415187,-0.173939,0.100384,0.052396,-0.047568,0.115413,0.381983,0.915700,45.294601,-14.341882,179.937531
51944,NaN,0.102298,6.971255,7.644605,2.473940,0.515322,0.220399,-0.219030,-0.285133,0.069703,-0.047166,0.116894,0.381067,0.915914,45.199782,-14.482070,179.840844
51945,NaN,0.738763,6.556829,7.742848,1.844692,0.861113,0.154497,-0.180306,-0.670268,0.117297,-0.046263,0.120231,0.380390,0.915810,45.163867,-14.798073,179.600939
51946,NaN,1.133317,6.316963,6.931747,1.336067,0.449854,-0.471935,-0.122142,-0.954508,0.100319,-0.044783,0.124810,0.380047,0.915413,45.195188,-15.221158,179.235311
51947,NaN,2.560137,6.349050,6.034310,-0.139062,-0.182172,-0.689930,-0.009691,-1.034907,0.050315,-0.042980,0.129658,0.380268,0.914734,45.310259,-15.657911,178.811072
51948,NaN,3.243960,6.551166,5.646321,-0.777304,-0.565965,-0.625895,0.006628,-0.958628,0.012348,-0.041169,0.134054,0.380553,0.914065,45.431878,-16.045601,178.403934
51949,NaN,3.756715,6.570734,5.078475,-1.336637,-0.942726,-0.845926,0.045368,-0.796681,-0.025941,-0.039491,0.137644,0.381025,0.913408,45.567585,-16.352362,178.044148
51950,NaN,4.612945,6.728139,4.776466,-2.164048,-1.216306,-0.691330,0.023007,-0.483929,-0.064217,-0.038243,0.139718,0.381329,0.913019,45.655106,-16.516798,177.804764
51951,NaN,5.428048,6.612328,5.120572,-2.879120,-0.848258,-0.304903,-0.031006,-0.047775,-0.111053,-0.037570,0.139747,0.381340,0.913039,45.665644,-16.489641,177.730158
51952,NaN,5.822616,6.719778,5.651455,-3.144814,-0.542957,0.227846,-0.170846,0.470901,-0.194041,-0.037414,0.137250,0.380667,0.913704,45.542301,-16.218214,177.844041
51953,NaN,4.605779,6.820513,6.056504,-1.934052,-0.408993,0.212541,-0.330385,0.954466,-0.197265,-0.038049,0.132586,0.379173,0.914987,45.273155,-15.752554,178.159124
51954,NaN,2.855109,6.563800,6.603227,-0.259098,0.054941,-0.077863,-0.327547,1.097075,-0.077502,-0.039508,0.127472,0.377571,0.916313,44.978740,-15.274410,178.582928
51955,NaN,2.360818,6.734823,7.406512,0.327509,0.435026,0.458165,-0.371597,1.107910,0.043082,-0.041502,0.122542,0.375677,0.917675,44.649110,-14.838233,179.057466
51956,NaN,1.478059,6.557094,8.108232,1.210437,0.995754,0.602031,-0.234708,0.950606,0.107167,-0.043586,0.118421,0.374393,0.918644,44.411353,-14.489897,179.491552
51957,NaN,0.389512,6.389355,8.412008,2.233694,1.297323,0.437426,-0.083752,0.670471,0.130389,-0.045336,0.115609,0.373843,0.919141,44.289117,-14.265690,179.816831
51958,NaN,-0.112125,6.380333,8.302654,2.669797,1.225999,0.238401,0.077408,0.224978,0.128489,-0.046342,0.114789,0.374133,0.919076,44.305324,-14.221749,179.958090
51959,NaN,0.304307,6.689592,8.409914,2.345376,1.093365,0.621564,0.143537,-0.215759,0.128221,-0.046541,0.115994,0.374849,0.918623,44.407150,-14.359297,179.914033
51960,NaN,-0.263271,6.482033,8.044938,2.836491,1.000935,0.074638,0.135063,-0.675707,0.120016,-0.045854,0.119282,0.375614,0.917923,44.550191,-14.680598,179.678532
51961,NaN,0.232711,6.001722,6.439816,2.038092,0.241445,-1.249188,0.256562,-0.967693,0.043261,-0.044323,0.123753,0.377055,0.916815,44.806169,-15.090303,179.284883
51962,NaN,1.593566,6.461345,5.412382,0.664780,-0.759514,-1.294287,0.304412,-1.057172,-0.056959,-0.042207,0.128413,0.378775,0.915564,45.112107,-15.492693,178.811262
51963,NaN,2.165970,6.716113,5.476647,0.224814,-0.847722,-0.923268,0.174147,-1.045568,-0.123964,-0.039714,0.132954,0.379938,0.914546,45.355443,-15.864413,178.308844
51964,NaN,2.805335,6.969892,5.745932,-0.238884,-0.789499,-0.390139,0.044389,-0.984477,-0.173281,-0.037032,0.137107,0.380507,0.913808,45.524581,-16.186242,177.812245
51965,NaN,5.092519,7.504910,6.422018,-2.152643,-0.583101,1.074266,-0.095987,-0.636334,-0.201705,-0.034777,0.139662,0.380389,0.913559,45.578618,-16.357960,177.448819
51966,NaN,6.402107,7.620748,6.967439,-3.257804,-0.222230,1.889674,-0.301567,-0.049548,-0.230418,-0.033372,0.139494,0.379241,0.914114,45.447138,-16.280451,177.325348
51967,NaN,6.260288,7.185795,6.854385,-3.258773,-0.031854,1.465092,-0.378218,0.538017,-0.175499,-0.033275,0.136764,0.377597,0.915210,45.194999,-15.989667,177.473514
51968,NaN,5.956799,7.157930,6.863645,-3.043485,-0.078017,1.347915,-0.379772,0.987322,-0.094634,-0.034397,0.132120,0.375815,0.916583,44.883426,-15.548396,177.843651
51969,NaN,3.483582,6.351813,7.948608,-0.643538,1.104318,0.865644,-0.317317,1.008164,0.059405,-0.036292,0.127647,0.374206,0.917801,44.591772,-15.157303,178.283381
51970,NaN,3.186425,6.225233,8.333262,-0.363091,1.410683,0.968218,-0.167195,0.681982,0.155005,-0.038123,0.124829,0.373274,0.918494,44.413482,-14.937749,178.626595
51971,NaN,1.687734,6.949100,8.846859,1.276687,1.183027,1.429011,-0.209364,0.277788,0.226766,-0.039483,0.124020,0.372197,0.918983,44.250147,-14.912049,178.828742
51972,NaN,0.572158,7.102499,9.164405,2.459743,1.243329,1.463959,-0.241851,-0.264319,0.281694,-0.040086,0.125799,0.371023,0.919190,44.117011,-15.130054,178.833283
51973,NaN,0.643558,7.107271,8.665372,2.352141,0.869622,1.129284,-0.236209,-0.716575,0.260264,-0.039753,0.129629,0.369967,0.919098,44.038055,-15.527331,178.641481
51974,NaN,0.831710,6.910378,7.363128,1.947223,0.097952,0.130088,-0.174503,-1.001708,0.189923,-0.038610,0.134609,0.369297,0.918700,44.036901,-16.012500,178.302166
51975,NaN,1.128982,6.367505,5.376068,1.207824,-0.875719,-1.536469,-0.076358,-1.090333,0.056443,-0.036744,0.139751,0.369183,0.918054,44.122916,-16.482908,177.865136
51976,NaN,1.388299,5.614080,3.940382,0.548590,-1.302205,-2.958850,0.024073,-0.952692,-0.104450,-0.034474,0.143918,0.369598,0.917331,44.271742,-16.829449,177.417098
51977,NaN,1.688596,5.642379,4.050724,0.322269,-1.220223,-2.776831,0.051391,-0.841925,-0.168123,-0.032115,0.147465,0.370177,0.916620,44.436406,-17.104484,176.983111
51978,NaN,2.475605,5.977002,5.150340,-0.070939,-0.650717,-1.569473,-0.003937,-0.818349,-0.164827,-0.029793,0.150902,0.370470,0.916020,44.565423,-17.369598,176.562424
51979,NaN,1.843398,6.379464,7.186094,1.169305,0.431878,-0.107977,-0.084612,-1.074791,-0.111115,-0.027176,0.155644,0.370384,0.915342,44.677420,-17.762187,176.053362
51980,NaN,1.946567,6.237059,7.361087,1.175700,0.678205,-0.064221,0.149351,-1.321029,-0.112914,-0.024281,0.161450,0.371389,0.914010,44.959811,-18.250338,175.438059
51981,NaN,4.694523,7.241557,7.196300,-1.222296,0.089259,1.357036,0.243622,-0.992409,-0.096925,-0.022130,0.165790,0.372771,0.912724,45.257608,-18.610927,174.963045
51982,NaN,5.072801,7.193675,7.647943,-1.403243,0.512100,1.751990,0.152214,-0.482208,-0.104533,-0.020833,0.167771,0.373667,0.912026,45.434077,-18.759301,174.705075
51983,NaN,3.973050,6.732657,8.367984,-0.197823,1.277242,1.565638,0.167820,-0.433494,-0.080502,-0.019743,0.169589,0.374607,0.911328,45.610909,-18.898542,174.475948
51984,NaN,3.027220,6.649493,8.601432,0.803519,1.449606,1.350502,0.297039,-0.843180,-0.004139,-0.018350,0.173385,0.376106,0.910025,45.909873,-19.230646,174.101952
51985,NaN,3.693259,6.889000,7.862142,0.094111,0.888366,1.237747,0.443433,-1.317765,0.099302,-0.016644,0.179540,0.378226,0.907983,46.354292,-19.793320,173.556739
51986,NaN,4.192753,7.153443,7.035903,-0.455331,0.253004,1.049232,0.505036,-1.569272,0.187302,-0.014933,0.186963,0.380531,0.905548,46.864938,-20.485654,172.933290
51987,NaN,4.044467,6.920838,6.567103,-0.364614,0.157429,0.542139,0.643027,-1.620266,0.269955,-0.013622,0.194788,0.383363,0.902721,47.463122,-21.230620,172.308518
51988,NaN,3.967348,7.252080,6.431497,-0.141087,-0.096796,0.659434,0.682344,-1.398061,0.323140,-0.013020,0.201658,0.386274,0.899976,48.048096,-21.902772,171.798712
51989,NaN,3.603868,7.367657,6.270608,0.282072,-0.259098,0.504410,0.692120,-1.150008,0.324752,-0.012891,0.207438,0.389213,0.897394,48.608267,-22.478819,171.389743
51990,NaN,3.507844,7.307665,5.927386,0.336868,-0.397736,0.215675,0.720829,-0.882706,0.276426,-0.013118,0.211878,0.392274,0.895018,49.146016,-22.927201,171.083675
51991,NaN,3.084572,7.184857,5.803035,0.729910,-0.393387,-0.110945,0.663830,-0.566904,0.234051,-0.013708,0.214854,0.395094,0.893057,49.604461,-23.240175,170.902157
51992,NaN,2.818659,6.858619,5.781513,0.949393,-0.161568,-0.459425,0.691485,-0.252155,0.161712,-0.014632,0.216242,0.398086,0.891377,50.031436,-23.400541,170.841099
51993,NaN,2.730988,6.678174,6.036031,1.112291,0.192552,-0.473770,0.713576,0.028733,0.071727,-0.015735,0.216202,0.401238,0.889954,50.431323,-23.418659,170.877215
51994,NaN,2.399768,7.099012,6.424077,1.651513,0.206941,-0.083716,0.786189,0.097234,0.066194,-0.017031,0.215830,0.404717,0.888443,50.861667,-23.408941,170.944458
51995,NaN,2.987560,7.529783,6.514639,1.255421,0.140090,0.505622,0.710681,-0.100979,0.064768,-0.017831,0.216339,0.407867,0.886862,51.286485,-23.470109,170.914329
51996,NaN,3.806745,7.047251,7.337231,0.754264,1.259659,0.949911,0.778478,-0.485533,0.090214,-0.018040,0.218595,0.411324,0.884705,51.822524,-23.679759,170.705827
51997,NaN,4.010945,6.055184,6.264659,0.033008,1.264410,-0.304955,1.290173,-1.038850,0.070008,-0.017576,0.223223,0.417094,0.880849,52.768735,-24.073870,170.210071
51998,NaN,4.377162,7.216688,5.767603,-0.134535,0.338860,0.403452,1.413559,-1.184208,0.048664,-0.016855,0.228397,0.423415,0.876511,53.825570,-24.497777,169.625807
51999,NaN,4.163131,7.688543,4.927610,-0.069989,-0.497631,0.210923,0.893519,-1.019500,0.004589,-0.015673,0.232810,0.427481,0.873392,54.567017,-24.838899,169.095929
52000,NaN,3.546242,6.931101,4.868037,0.356558,-0.087303,-0.637809,0.482642,-0.947876,0.049331,-0.014383,0.237003,0.429663,0.871213,55.051975,-25.170881,168.618495
52001,NaN,3.485091,6.505007,4.460133,0.216478,-0.086610,-1.193009,0.398284,-0.973030,0.141988,-0.013330,0.241517,0.431358,0.869150,55.485292,-25.551972,168.154934
52002,NaN,4.582322,6.921322,3.773497,-0.876018,-0.625631,-0.758268,0.146564,-0.840154,0.095764,-0.012070,0.245352,0.431995,0.867777,55.754680,-25.864905,167.742758
52003,NaN,4.516344,6.498809,4.680537,-0.486007,0.330314,-0.636972,-0.127186,-0.781485,0.141142,-0.010790,0.249051,0.431372,0.867050,55.849241,-26.179707,167.374459
52004,NaN,4.469580,5.703495,3.274951,-1.180634,-0.230266,-1.952327,-0.019772,-0.589529,0.114761,-0.009951,0.251843,0.431237,0.866320,55.967055,-26.419292,167.097906
52005,NaN,5.219236,5.898044,3.192684,-1.802055,-0.253945,-1.511563,0.016467,-0.221846,-0.001775,-0.009440,0.252786,0.431376,0.865982,56.037004,-26.484812,166.973797
52006,NaN,5.285350,6.067658,3.017896,-1.889249,-0.471279,-1.442040,0.062726,0.013460,0.006181,-0.009535,0.252728,0.431703,0.865835,56.077897,-26.479233,166.977516
52007,NaN,5.089111,6.365894,3.402728,-1.484298,-0.407616,-1.115968,0.012533,0.102418,0.036813,-0.009888,0.252339,0.431755,0.865918,56.061522,-26.458385,167.040473
52008,NaN,5.090453,6.381349,3.580401,-1.409655,-0.289693,-1.015953,-0.076907,0.124730,0.050771,-0.010240,0.251902,0.431416,0.866211,55.989013,-26.438363,167.119183
52009,NaN,5.582352,6.511900,3.513448,-1.847713,-0.338928,-0.736188,-0.176934,0.237759,0.004266,-0.010506,0.250881,0.430685,0.866867,55.838698,-26.360035,167.241030
52010,NaN,5.914993,6.765166,3.821599,-1.972026,-0.223663,-0.251298,-0.242604,0.364273,-0.074258,-0.010624,0.249144,0.429771,0.867820,55.635458,-26.203184,167.401041
52011,NaN,6.090881,6.486639,3.504690,-2.358870,-0.280837,-0.549058,-0.307488,0.408804,-0.091365,-0.010682,0.247180,0.428580,0.868969,55.386809,-26.023520,167.577505
52012,NaN,6.157859,6.454800,3.268774,-2.567554,-0.455291,-0.676571,-0.281843,0.558141,-0.206366,-0.010592,0.244316,0.427642,0.870241,55.139597,-25.739993,167.789042
52013,NaN,5.642561,6.317823,3.009611,-2.306699,-0.690397,-1.151667,-0.295731,0.644177,-0.263724,-0.010415,0.240945,0.426695,0.871647,54.874510,-25.399381,168.022751
52014,NaN,5.128335,6.354489,2.692679,-2.033282,-1.079016,-1.528309,-0.376052,0.736229,-0.305073,-0.010162,0.237092,0.425445,0.873316,54.553542,-25.008935,168.286031
52015,NaN,4.749161,6.766328,2.949804,-1.566740,-1.262804,-1.269324,-0.596939,0.796076,-0.259762,-0.009968,0.233071,0.423154,0.875511,54.087685,-24.616807,168.593382
52016,NaN,4.221138,7.199244,3.532446,-0.837828,-1.263039,-0.878078,-0.809508,0.736321,-0.199907,-0.009665,0.229451,0.419864,0.878051,53.508855,-24.271195,168.887302
52017,NaN,3.674306,7.054332,4.020607,-0.250444,-0.978501,-0.957837,-0.940778,0.620302,-0.150010,-0.009187,0.226447,0.415923,0.880707,52.873282,-23.985775,169.136961
52018,NaN,3.662218,6.771977,4.407407,-0.203583,-0.588654,-0.963504,-0.887293,0.582899,-0.106316,-0.008884,0.223688,0.412167,0.883178,52.272927,-23.730530,169.380695
52019,NaN,3.359519,6.584221,4.825842,0.143929,-0.281981,-0.990766,-0.769222,0.543662,-0.017829,-0.009024,0.221270,0.408814,0.885341,51.734844,-23.526724,169.636558
52020,NaN,2.935076,6.622819,4.975369,0.553623,-0.331428,-1.048328,-0.590507,0.517095,0.101050,-0.009832,0.219203,0.406125,0.887083,51.289193,-23.383857,169.922781
52021,NaN,3.159966,7.377900,5.255835,0.573770,-0.661325,-0.258865,-0.624102,0.587438,0.220193,-0.011278,0.217070,0.403135,0.888952,50.792111,-23.267333,170.288650
52022,NaN,3.884434,8.307784,5.916585,0.309955,-0.792916,1.067935,-0.902437,0.808804,0.328337,-0.013345,0.214175,0.398778,0.891587,50.079609,-23.113496,170.801743
52023,NaN,4.077710,8.601298,7.080902,0.564122,-0.275400,2.034344,-1.269107,1.041062,0.382470,-0.015731,0.210351,0.392670,0.895162,49.104934,-22.889258,171.445767
52024,NaN,3.232370,7.925214,8.739778,1.722852,1.069147,2.250711,-1.481829,1.150943,0.334168,-0.017884,0.205955,0.385642,0.899190,48.004528,-22.592773,172.113128
52025,NaN,1.613151,5.564670,9.205815,2.851130,2.708249,0.328835,-0.755869,0.597419,0.313942,-0.019636,0.203929,0.381904,0.901208,47.421996,-22.492566,172.514104
52026,NaN,2.905063,7.795074,8.648873,1.885617,0.836492,2.008909,-0.286693,0.028213,0.266669,-0.020555,0.204332,0.380400,0.901733,47.218757,-22.590536,172.633021
52027,NaN,3.707348,7.986832,8.371492,1.112918,0.573055,2.272373,-0.171323,-0.237752,0.156114,-0.020577,0.205713,0.379557,0.901774,47.146249,-22.745148,172.583236
52028,NaN,3.020206,7.342714,8.750046,1.798775,1.198444,1.803172,-0.096669,-0.615097,0.123877,-0.019825,0.208722,0.379118,0.901283,47.188596,-23.033415,172.348959
52029,NaN,3.235529,7.019561,8.765523,1.629951,1.471626,1.665722,0.086262,-1.044041,0.135330,-0.018494,0.213674,0.379527,0.899978,47.413707,-23.493314,171.920205
52030,NaN,3.939434,7.174851,7.796388,0.776841,0.814127,1.435137,0.270281,-1.273641,0.173350,-0.017102,0.219697,0.380731,0.898045,47.785538,-24.055309,171.398411
52031,NaN,5.245569,7.440084,6.870608,-0.580826,0.215526,1.575500,0.319497,-1.224407,0.193996,-0.015939,0.225542,0.382117,0.896027,48.180908,-24.605261,170.899657
52032,NaN,6.076420,7.310069,6.453479,-1.408293,0.191311,1.588476,0.287477,-0.929901,0.203778,-0.015357,0.230064,0.383308,0.894377,48.503045,-25.043137,170.540442
52033,NaN,5.813850,6.779302,6.576279,-1.149620,0.655103,1.198939,0.323012,-0.590294,0.241415,-0.015625,0.233139,0.384581,0.893028,48.774096,-25.367178,170.353313
52034,NaN,4.405819,6.835091,7.094352,0.390250,0.799930,0.942170,0.411332,-0.413321,0.294922,-0.016585,0.235511,0.386169,0.891702,49.051198,-25.646624,170.272466
52035,NaN,3.317119,6.634102,6.765941,1.241834,0.587951,0.132372,0.511544,-0.484758,0.294639,-0.017522,0.238207,0.388196,0.890087,49.401449,-25.954283,170.154323
52036,NaN,3.938200,6.786640,6.235264,0.573950,0.254839,0.189882,0.554635,-0.636647,0.292183,-0.018206,0.241548,0.390433,0.888192,49.811617,-26.314550,169.959599
52037,NaN,4.203627,7.050114,6.082297,0.405959,0.056382,0.395170,0.451955,-0.686557,0.194132,-0.018230,0.244938,0.392322,0.886429,50.193911,-26.650270,169.695841
52038,NaN,4.108720,6.984593,5.964888,0.487021,0.048231,0.237493,0.335322,-0.605619,0.092163,-0.017820,0.247762,0.393813,0.884990,50.513235,-26.908640,169.428204
52039,NaN,3.896159,6.828098,6.221430,0.796062,0.337290,0.175378,0.238421,-0.533594,0.052063,-0.017255,0.250199,0.394901,0.883831,50.768349,-27.122521,169.178372
52040,NaN,3.982906,6.350977,6.175167,0.633842,0.679761,-0.144850,0.273883,-0.519387,-0.005148,-0.016509,0.252450,0.396225,0.882611,51.054395,-27.304125,168.910477
52041,NaN,4.335117,6.555202,6.047732,0.355102,0.549208,0.082311,0.348467,-0.461017,-0.064608,-0.015701,0.254326,0.397943,0.881313,51.382149,-27.437301,168.645013
52042,NaN,4.669782,6.909601,6.197362,0.240012,0.516843,0.561887,0.355172,-0.356049,-0.090313,-0.015006,0.255678,0.399715,0.880132,51.694867,-27.519869,168.422639
52043,NaN,4.895639,6.849019,6.026790,-0.023068,0.522484,0.527759,0.333064,-0.307581,-0.139611,-0.014155,0.256734,0.401442,0.879052,51.993380,-27.563341,168.202938
52044,NaN,4.675366,7.052516,5.408439,-0.041260,-0.051686,0.229409,0.334080,-0.274277,-0.149701,-0.013335,0.257605,0.403186,0.878011,52.286473,-27.588214,167.997574
52045,NaN,4.711914,8.045910,5.288679,0.119131,-0.762018,0.879083,0.233728,-0.276033,-0.073942,-0.012700,0.258640,0.404390,0.877162,52.508999,-27.646119,167.819515
52046,NaN,5.362285,8.753817,5.493168,-0.167741,-0.948802,1.790325,0.019363,-0.299020,0.051361,-0.012306,0.260045,0.404492,0.876705,52.591521,-27.769763,167.680116
52047,NaN,6.005438,8.763471,6.031177,-0.453013,-0.451042,2.386905,-0.171129,-0.304839,0.127556,-0.011983,0.261649,0.403651,0.876620,52.552042,-27.930984,167.566773
52048,NaN,5.684302,8.492446,6.223328,-0.122098,-0.210535,2.149895,-0.267960,-0.329654,0.126677,-0.011482,0.263357,0.402394,0.876693,52.464174,-28.099642,167.441057
52049,NaN,5.354614,8.512583,6.363425,0.260113,-0.214516,2.083333,-0.338328,-0.366352,0.112622,-0.010759,0.265203,0.400831,0.876862,52.345455,-28.275871,167.291991
52050,NaN,5.271668,8.693073,6.709654,0.558718,-0.145947,2.354717,-0.477996,-0.337763,0.108214,-0.009884,0.266916,0.398673,0.877336,52.143158,-28.439519,167.155221
52051,NaN,4.473203,8.108582,7.081738,1.301242,0.305515,1.768450,-0.603843,-0.300202,0.071139,-0.008743,0.268411,0.396006,0.878099,51.867434,-28.574961,167.021380
52052,NaN,4.442245,7.842298,6.911313,1.204950,0.305660,1.476945,-0.595772,-0.350333,0.027837,-0.007333,0.270021,0.393432,0.878776,51.616304,-28.707956,166.846947
52053,NaN,3.969127,7.716795,6.779779,1.535603,0.152605,1.090829,-0.573052,-0.340982,0.029961,-0.005984,0.271588,0.390933,0.879418,51.373214,-28.839441,166.679631
52054,NaN,4.251439,7.150057,6.290130,0.953288,0.215536,0.570393,-0.568671,-0.365066,0.019971,-0.004547,0.273240,0.388480,0.880002,51.143107,-28.975490,166.495298
52055,NaN,4.522443,6.837102,6.103270,0.579432,0.317597,0.385920,-0.536492,-0.322688,0.004293,-0.003160,0.274667,0.386177,0.880577,50.923087,-29.089278,166.326298
52056,NaN,4.907537,6.438465,5.556925,-0.088102,0.267793,0.002484,-0.508828,-0.259681,-0.051357,-0.001695,0.275711,0.384075,0.881173,50.715787,-29.156733,166.166801
52057,NaN,4.480713,5.996470,5.047686,-0.065365,0.118249,-0.785214,-0.433273,-0.244318,-0.127099,-0.000024,0.276545,0.382401,0.881642,50.562795,-29.185930,165.982919
52058,NaN,4.122802,5.780932,4.719491,0.033353,-0.042577,-1.287001,-0.355490,-0.318114,-0.171385,0.001870,0.277612,0.381136,0.881852,50.482298,-29.222309,165.744003
52059,NaN,4.566853,6.164891,4.507216,-0.362787,-0.370189,-0.929649,-0.295190,-0.361552,-0.178477,0.003799,0.278872,0.380137,0.881880,50.448678,-29.273231,165.478684
52060,NaN,5.049983,6.698043,4.849451,-0.490828,-0.422470,-0.145015,-0.346071,-0.272461,-0.177179,0.005619,0.279723,0.378918,0.882125,50.363792,-29.290805,165.260355
52061,NaN,5.543437,7.109169,5.015398,-0.752671,-0.513886,0.463182,-0.465648,-0.052642,-0.177949,0.007199,0.279616,0.377171,0.882896,50.156370,-29.229763,165.151219
52062,NaN,4.770640,7.050857,5.240211,-0.028246,-0.529733,0.169884,-0.599271,0.102110,-0.189002,0.008717,0.278780,0.374858,0.884131,49.836515,-29.105548,165.116564
52063,NaN,3.812086,6.761064,5.638215,0.888284,-0.319316,-0.265848,-0.688886,0.071324,-0.234873,0.010629,0.277990,0.372202,0.885480,49.482258,-28.972957,165.045263
52064,NaN,3.149544,6.567547,5.806928,1.464996,-0.267813,-0.617335,-0.735386,-0.097715,-0.267005,0.013053,0.277879,0.369375,0.886665,49.149159,-28.889856,164.876514
52065,NaN,2.581323,6.263206,5.917885,1.928177,-0.154642,-1.028023,-0.740656,-0.372390,-0.283480,0.016072,0.278963,0.366520,0.887460,48.882286,-28.904765,164.563102
52066,NaN,2.867499,6.206340,5.645012,1.539244,-0.267638,-1.085357,-0.705973,-0.678024,-0.282040,0.019589,0.281389,0.363787,0.887747,48.708218,-29.035558,164.101016
52067,NaN,3.068430,6.231927,5.267023,1.195441,-0.519130,-1.193235,-0.720364,-0.857481,-0.253783,0.023350,0.284658,0.360931,0.887780,48.566077,-29.246748,163.559443
52068,NaN,3.593762,5.906570,4.749375,0.453935,-0.510076,-1.452491,-0.791065,-1.013425,-0.304519,0.027694,0.288504,0.357793,0.887684,48.432399,-29.497322,162.921377
52069,NaN,4.077844,5.780958,4.364525,-0.152360,-0.560866,-1.520553,-0.837258,-0.975335,-0.336610,0.032196,0.292117,0.354492,0.887675,48.274468,-29.721399,162.284099
52070,NaN,4.182123,5.603704,3.986491,-0.457170,-0.658669,-1.803890,-0.917617,-0.895916,-0.373418,0.036819,0.295274,0.350880,0.887886,48.059420,-29.900874,161.672407
52071,NaN,3.947197,5.329903,3.610484,-0.507737,-0.770239,-2.317842,-1.004143,-0.822841,-0.437157,0.041733,0.297970,0.346973,0.888303,47.792686,-30.027463,161.066823
52072,NaN,4.497807,5.305461,3.580139,-0.987966,-0.642634,-2.079225,-1.119463,-0.709891,-0.503501,0.046905,0.300006,0.342661,0.889033,47.447517,-30.085095,160.488553
52073,NaN,4.537250,5.250394,3.952784,-0.837785,-0.406731,-1.881089,-1.242851,-0.480737,-0.531861,0.052001,0.300937,0.337877,0.890265,46.982315,-30.045491,160.007993
52074,NaN,4.371042,5.051179,4.256881,-0.589371,-0.174580,-1.915650,-1.331008,-0.198377,-0.587768,0.056991,0.300472,0.332843,0.892011,46.410397,-29.875039,159.639383
52075,NaN,4.028089,4.526625,4.619090,-0.204884,0.278880,-2.201407,-1.361079,-0.035286,-0.648511,0.062031,0.299159,0.327793,0.893984,45.796290,-29.618399,159.317926
52076,NaN,3.330073,4.185942,4.482324,0.203532,0.206678,-2.840011,-1.208036,0.009215,-0.652289,0.066774,0.297667,0.323431,0.895728,45.259877,-29.344789,159.014903
52077,NaN,2.883923,3.986281,4.552818,0.548295,0.220831,-3.135416,-1.112082,-0.114337,-0.687106,0.071731,0.296697,0.319488,0.897080,44.813609,-29.110008,158.635848
52078,NaN,2.773400,3.607962,4.430870,0.513684,0.383410,-3.493610,-1.027396,-0.338443,-0.680673,0.076885,0.296754,0.315828,0.897930,44.464503,-28.970831,158.155987
52079,NaN,3.118766,3.212328,4.305319,0.128324,0.717308,-3.644179,-0.895963,-0.597690,-0.691671,0.082313,0.297995,0.312664,0.898145,44.250540,-28.934705,157.550423
52080,NaN,3.676919,3.063876,4.089799,-0.452743,0.899089,-3.598174,-0.765189,-0.701881,-0.702856,0.087742,0.299729,0.310046,0.897962,44.136561,-28.939236,156.893541
52081,NaN,3.852709,3.118405,3.869075,-0.714345,0.804926,-3.617580,-0.681572,-0.764498,-0.731196,0.093281,0.301748,0.307812,0.897496,44.093118,-28.960701,156.191485
52082,NaN,4.177419,3.106521,3.543371,-1.158807,0.775482,-3.671633,-0.708474,-0.827377,-0.794751,0.099224,0.303903,0.305506,0.896919,44.060711,-28.981434,155.433990
52083,NaN,4.177075,2.866763,3.206820,-1.353775,0.816788,-4.029082,-0.734608,-0.829059,-0.893099,0.105666,0.305914,0.303227,0.896273,44.039377,-28.965539,154.625174
52084,NaN,4.164651,2.517107,2.881728,-1.534185,0.955527,-4.453798,-0.710065,-0.749016,-0.989258,0.112354,0.307391,0.301221,0.895630,44.032321,-28.877002,153.812182
52085,NaN,3.940862,2.454952,2.629832,-1.511598,0.826289,-4.762395,-0.632946,-0.567598,-1.045777,0.118909,0.308028,0.299737,0.895063,44.042436,-28.693642,153.053025
52086,NaN,3.692346,2.490558,2.438272,-1.444551,0.638118,-4.986978,-0.598925,-0.441619,-1.065959,0.125297,0.308049,0.298496,0.894599,44.043914,-28.447859,152.346220
52087,NaN,3.551187,2.852605,2.492185,-1.332027,0.344260,-4.806055,-0.609601,-0.222868,-1.015733,0.131169,0.307168,0.297267,0.894469,43.980709,-28.132956,151.759129
52088,NaN,3.441348,2.968933,3.600035,-0.582421,0.724387,-4.089606,-0.569159,-0.083026,-0.905902,0.136253,0.305820,0.296121,0.894551,43.880324,-27.804053,151.291935
52089,NaN,3.933614,3.214281,4.555214,-0.407806,1.181852,-3.105100,-0.422448,0.022169,-0.833236,0.140636,0.304223,0.295581,0.894596,43.824580,-27.462903,150.904515
52090,NaN,4.129227,3.755857,5.252119,-0.193612,1.172487,-2.241072,-0.250779,0.101619,-0.850863,0.144708,0.302337,0.295888,0.894484,43.850995,-27.080201,150.547716
52091,NaN,4.288840,4.159131,5.689856,-0.109982,1.157364,-1.644754,-0.054112,0.087635,-0.921787,0.148828,0.300558,0.297162,0.893985,44.005233,-26.675509,150.151864
52092,NaN,4.562071,5.168571,6.055003,-0.212199,0.713512,-0.667467,0.189079,-0.017525,-1.004710,0.153095,0.299287,0.299566,0.892888,44.332223,-26.278526,149.676264
52093,NaN,4.733390,6.027085,6.173636,-0.375841,0.260782,0.017601,0.248862,-0.157507,-1.099258,0.157909,0.298563,0.302260,0.891383,44.736643,-25.900391,149.096719
52094,NaN,4.627422,6.562032,6.094145,-0.420140,-0.138709,0.257827,0.281759,-0.270547,-1.221215,0.163374,0.298146,0.305184,0.889540,45.198527,-25.512412,148.419319
52095,NaN,4.165448,6.978700,6.238137,-0.040440,-0.510486,0.419836,0.229676,-0.373802,-1.266305,0.169264,0.298108,0.307839,0.887534,45.654328,-25.147554,147.678400
52096,NaN,3.612474,7.143543,6.234596,0.342680,-0.811967,0.295380,0.199854,-0.511927,-1.230118,0.175245,0.298656,0.310184,0.885370,46.105032,-24.842526,146.898412
52097,NaN,3.483110,7.375953,6.461739,0.551000,-0.866755,0.542768,0.202928,-0.678511,-1.134340,0.181046,0.300118,0.312233,0.882985,46.568499,-24.641668,146.086123
52098,NaN,4.017114,7.492039,6.788624,0.354051,-0.459702,1.050834,0.227009,-0.767167,-1.023693,0.186455,0.302113,0.314135,0.880501,47.037940,-24.511613,145.286059
52099,NaN,4.653941,7.900352,7.101097,0.048962,-0.211628,1.782677,0.280657,-0.715632,-0.930945,0.191269,0.304089,0.316142,0.878066,47.507411,-24.398703,144.552326
52100,NaN,5.074018,8.446625,7.184299,-0.259500,-0.265388,2.376114,0.280502,-0.614599,-0.841822,0.195543,0.305728,0.318125,0.875837,47.941877,-24.275265,143.904104
52101,NaN,5.291279,8.730627,7.356311,-0.322888,-0.193002,2.764858,0.287457,-0.514368,-0.777882,0.199347,0.307074,0.320117,0.873780,48.349088,-24.142098,143.329972
52102,NaN,5.376766,9.099988,7.287838,-0.465927,-0.351976,3.012690,0.324869,-0.452879,-0.761824,0.202935,0.308161,0.322315,0.871761,48.760185,-23.983144,142.794462
52103,NaN,5.287912,9.414951,7.186460,-0.500475,-0.577751,3.135809,0.317598,-0.402250,-0.756651,0.206411,0.309047,0.324497,0.869820,49.153180,-23.807856,142.287236
52104,NaN,5.059798,9.657754,7.192707,-0.358033,-0.783139,3.220603,0.278014,-0.400837,-0.760652,0.209973,0.309848,0.326529,0.867920,49.522785,-23.623312,141.780767
52105,NaN,5.008417,9.990693,7.199852,-0.362998,-0.957855,3.441982,0.183745,-0.421600,-0.762185,0.213689,0.310676,0.328100,0.866122,49.839807,-23.449684,141.266130
52106,NaN,5.151493,9.709593,7.209029,-0.409960,-0.598843,3.311986,0.138482,-0.413570,-0.741668,0.217397,0.311403,0.329470,0.864417,50.124538,-23.272960,140.764847
52107,NaN,4.772083,9.541744,7.215308,-0.106159,-0.629276,3.050853,0.124967,-0.385988,-0.736963,0.221040,0.312020,0.330777,0.862770,50.391984,-23.089816,140.281040
52108,NaN,4.430172,9.263143,7.137790,0.133242,-0.605050,2.677153,0.153653,-0.415657,-0.711993,0.224592,0.312811,0.332152,0.861036,50.677102,-22.922550,139.793698
52109,NaN,4.333479,9.084502,6.954078,0.118297,-0.555775,2.407918,0.208522,-0.464955,-0.664004,0.227905,0.313999,0.333611,0.859167,50.994987,-22.798565,139.302283
52110,NaN,4.344012,9.175516,6.645770,-0.098550,-0.680140,2.301525,0.236314,-0.531303,-0.608623,0.231067,0.315542,0.335036,0.857200,51.330452,-22.714078,138.802163
52111,NaN,4.479774,9.139085,6.386191,-0.337749,-0.628139,2.181717,0.212862,-0.602997,-0.537149,0.234051,0.317488,0.336125,0.855243,51.650587,-22.688399,138.298331
52112,NaN,4.635502,9.115073,6.344792,-0.435160,-0.485898,2.204097,0.173263,-0.617027,-0.455818,0.236794,0.319570,0.336928,0.853395,51.942424,-22.697992,137.816340
52113,NaN,4.722453,9.049987,6.229045,-0.527425,-0.401976,2.127367,0.111605,-0.615315,-0.363374,0.239210,0.321735,0.337284,0.851766,52.181755,-22.750732,137.372890
52114,NaN,4.799214,8.796170,6.181074,-0.529500,-0.182435,1.947285,0.062609,-0.562425,-0.259206,0.241194,0.323775,0.337356,0.850403,52.371735,-22.826560,136.992094
52115,NaN,5.003785,8.538946,6.208754,-0.563313,0.138840,1.856220,0.034134,-0.499183,-0.163038,0.242659,0.325703,0.337179,0.849320,52.515685,-22.930474,136.682365
52116,NaN,5.126363,8.401330,5.962218,-0.766133,0.211334,1.666786,0.010731,-0.369885,-0.098268,0.243715,0.327130,0.336998,0.848541,52.616526,-23.010692,136.456667
52117,NaN,5.371469,8.312970,5.867229,-0.963699,0.386053,1.646142,-0.056792,-0.196600,-0.063331,0.244389,0.327815,0.336626,0.848230,52.633766,-23.053423,136.335297
52118,NaN,5.178468,7.950191,5.793342,-0.819888,0.467503,1.264049,-0.154861,0.010883,-0.037418,0.244816,0.327526,0.336107,0.848424,52.557332,-23.028709,136.320776
52119,NaN,4.872989,7.446035,5.723641,-0.588919,0.568038,0.736244,-0.217184,0.181179,-0.057165,0.245121,0.326419,0.335536,0.848989,52.412665,-22.939434,136.384684
52120,NaN,4.459203,6.952542,5.678047,-0.281885,0.606821,0.188050,-0.204070,0.322381,-0.085048,0.245307,0.324666,0.335266,0.849713,52.255498,-22.784120,136.505286
52121,NaN,3.722074,6.679516,5.828840,0.335038,0.382339,-0.211303,-0.165810,0.395026,-0.125897,0.245439,0.322608,0.335269,0.850458,52.108892,-22.591190,136.649105
52122,NaN,3.207368,6.400317,5.892436,0.745000,0.276711,-0.574703,-0.075632,0.394053,-0.157648,0.245604,0.320584,0.335747,0.850987,52.023653,-22.377305,136.775967
52123,NaN,2.995360,6.236561,5.869835,0.876372,0.257175,-0.785639,0.028043,0.316626,-0.162370,0.245714,0.319019,0.336531,0.851233,52.008002,-22.193678,136.867044
52124,NaN,2.877390,6.302053,5.906763,0.951509,0.179196,-0.760199,0.148952,0.228641,-0.185250,0.245914,0.317926,0.337804,0.851080,52.086676,-22.025572,136.902329
52125,NaN,2.867840,6.322771,6.085898,1.074992,0.264312,-0.646743,0.252912,0.103209,-0.215826,0.246261,0.317456,0.339376,0.850530,52.248213,-21.892227,136.868099
52126,NaN,3.194538,6.551462,6.349458,1.000491,0.471123,-0.209601,0.351016,-0.019774,-0.247593,0.246823,0.317561,0.341299,0.849558,52.496372,-21.782916,136.759410
52127,NaN,3.520345,6.964970,6.428786,0.772205,0.488801,0.256944,0.444828,-0.120578,-0.278374,0.247511,0.318181,0.343518,0.848230,52.818823,-21.699176,136.591924
52128,NaN,3.935483,7.386906,6.322008,0.363409,0.489751,0.658698,0.534373,-0.220470,-0.285602,0.248283,0.319294,0.346026,0.846565,53.212908,-21.640521,136.371752
52129,NaN,4.075639,7.877787,6.080174,0.045050,0.219908,0.938498,0.602935,-0.338131,-0.278135,0.249091,0.321014,0.348633,0.844605,53.663601,-21.627958,136.098649
52130,NaN,4.273652,8.537701,5.840820,-0.333017,-0.114973,1.374223,0.583272,-0.394850,-0.237455,0.249878,0.323001,0.351046,0.842614,54.110776,-21.647370,135.810169
52131,NaN,4.649308,8.961419,5.719106,-0.693433,-0.139161,1.768789,0.510946,-0.418748,-0.171593,0.250523,0.325122,0.352987,0.840794,54.510078,-21.706872,135.534791
52132,NaN,5.096159,9.208040,5.603547,-1.065719,-0.010497,2.062598,0.377525,-0.347737,-0.121711,0.251067,0.326849,0.354398,0.839367,54.815917,-21.761138,135.310858
52133,NaN,5.369064,9.191507,5.553352,-1.239747,0.185101,2.127958,0.212558,-0.218582,-0.088277,0.251489,0.327901,0.355198,0.838492,54.996910,-21.791411,135.165221
52134,NaN,5.331847,8.998291,5.539459,-1.173038,0.293141,1.961075,0.055699,-0.028486,-0.089434,0.251856,0.327940,0.355605,0.838194,55.054555,-21.754662,135.113676
52135,NaN,4.848127,8.573998,5.555755,-0.772838,0.255556,1.466566,-0.088060,0.166444,-0.098603,0.252132,0.326963,0.355637,0.838479,54.990343,-21.651978,135.160111
52136,NaN,4.167770,8.212964,5.616650,-0.241454,0.063930,0.971901,-0.189205,0.300255,-0.097534,0.252349,0.325300,0.355444,0.839142,54.847602,-21.503267,135.271448
52137,NaN,3.439486,7.713577,5.631793,0.308519,-0.096830,0.333333,-0.231303,0.327504,-0.082277,0.252518,0.323493,0.355064,0.839951,54.671787,-21.353200,135.402331
52138,NaN,3.072219,7.432101,5.681352,0.607052,-0.143222,0.013975,-0.218503,0.274224,-0.048717,0.252622,0.321987,0.354633,0.840680,54.511604,-21.235338,135.516885
52139,NaN,3.106637,7.257633,5.628861,0.550816,-0.039731,-0.132632,-0.201204,0.235401,-0.020312,0.252645,0.320717,0.354166,0.841355,54.363555,-21.144185,135.622109
52140,NaN,3.206443,7.151016,5.579149,0.444179,0.063613,-0.203119,-0.195649,0.210087,0.016054,0.252552,0.319622,0.353645,0.842018,54.220256,-21.077349,135.727090
52141,NaN,3.214704,6.913384,5.494924,0.404394,0.173085,-0.424937,-0.146596,0.190020,0.028951,0.252352,0.318699,0.353263,0.842588,54.104748,-21.024765,135.827843
52142,NaN,3.210082,6.736695,5.397474,0.357219,0.234324,-0.612803,-0.069617,0.183248,0.033097,0.252033,0.317906,0.353210,0.843005,54.036558,-20.974481,135.925270
52143,NaN,3.131754,6.680695,5.221446,0.284262,0.142455,-0.779307,0.007279,0.195107,0.037436,0.251545,0.317173,0.353473,0.843317,54.008205,-20.923808,136.030841
52144,NaN,2.978695,6.617928,5.027050,0.254275,0.002606,-0.987940,0.067689,0.192012,0.036861,0.250976,0.316522,0.354003,0.843508,54.016855,-20.872226,136.133852
52145,NaN,2.936685,6.498723,4.874765,0.194695,-0.008516,-1.176550,0.125938,0.201433,0.036860,0.250301,0.315915,0.354789,0.843607,54.057852,-20.818496,136.240515
52146,NaN,3.152221,6.825472,4.623821,-0.196219,-0.172594,-0.990274,0.130788,0.213229,0.020519,0.249663,0.315224,0.355636,0.843697,54.101196,-20.752312,136.348168
52147,NaN,3.478144,6.988561,4.490124,-0.548725,-0.111995,-0.824638,0.108935,0.258810,0.000800,0.249056,0.314286,0.356468,0.843876,54.125807,-20.663258,136.471543
52148,NaN,3.544260,7.168658,4.773581,-0.439671,-0.041764,-0.509816,0.097873,0.343932,-0.045765,0.248516,0.312882,0.357443,0.844144,54.136216,-20.522510,136.620179
52149,NaN,3.497626,7.454819,5.029572,-0.302495,-0.117413,-0.169091,0.084321,0.421925,-0.085947,0.248018,0.311063,0.358501,0.844514,54.128820,-20.338461,136.793946
52150,NaN,3.431258,7.547331,5.323259,-0.094106,-0.063210,0.039209,0.083138,0.472582,-0.108344,0.247532,0.308984,0.359667,0.844924,54.117523,-20.125444,136.983473
52151,NaN,3.267558,7.605259,5.461220,0.073906,-0.116563,0.103091,0.086008,0.519112,-0.126529,0.247029,0.306676,0.360914,0.845380,54.101098,-19.889216,137.189981
52152,NaN,3.097230,7.640706,5.590026,0.242794,-0.161235,0.144045,0.087889,0.526842,-0.126529,0.246512,0.304336,0.362191,0.845830,54.087334,-19.649437,137.399102
52153,NaN,2.872196,7.585889,5.623886,0.403670,-0.228590,0.046724,0.100491,0.477690,-0.116889,0.246011,0.302232,0.363419,0.846204,54.085420,-19.432093,137.589031
52154,NaN,2.881375,7.541603,5.617061,0.377508,-0.172649,0.013659,0.115355,0.396827,-0.104710,0.245593,0.300512,0.364614,0.846424,54.107657,-19.246133,137.741428
52155,NaN,2.835767,7.444548,5.630290,0.421065,-0.111990,-0.067270,0.128017,0.280851,-0.095526,0.245326,0.299323,0.365700,0.846454,54.155232,-19.104673,137.839629
52156,NaN,2.906189,7.302500,5.511205,0.310843,-0.015632,-0.218474,0.143478,0.116227,-0.085021,0.245294,0.298859,0.366638,0.846221,54.237024,-19.022166,137.861138
52157,NaN,2.936445,7.272237,5.312374,0.160676,-0.053202,-0.341638,0.164345,0.025095,-0.097357,0.245449,0.298786,0.367563,0.845801,54.345956,-18.965052,137.833536
52158,NaN,2.973919,7.288814,5.126777,0.008946,-0.107274,-0.418901,0.186550,0.005982,-0.122273,0.245711,0.298772,0.368603,0.845277,54.474254,-18.902026,137.787917
52159,NaN,2.905952,7.321515,5.004578,-0.027480,-0.206549,-0.482549,0.193924,-0.019275,-0.141496,0.246086,0.298843,0.369660,0.844681,54.611840,-18.839450,137.723563
52160,NaN,2.956495,7.404546,4.995967,-0.077506,-0.205273,-0.406325,0.198828,-0.065015,-0.167387,0.246651,0.299060,0.370731,0.843970,54.763360,-18.778637,137.627451
52161,NaN,2.937492,7.521956,4.986274,-0.085970,-0.269250,-0.326293,0.175676,-0.075311,-0.180059,0.247317,0.299278,0.371702,0.843270,54.904180,-18.716699,137.522048
52162,NaN,2.986476,7.658033,5.048674,-0.098418,-0.266842,-0.170453,0.144700,-0.055289,-0.185173,0.248019,0.299353,0.372581,0.842649,55.024794,-18.643903,137.424961
52163,NaN,3.000934,7.797241,5.187214,-0.037483,-0.252888,0.018100,0.124321,-0.022962,-0.175093,0.248638,0.299299,0.373391,0.842128,55.127026,-18.567271,137.347799
52164,NaN,3.105845,7.859829,5.292945,-0.050607,-0.151009,0.157923,0.100324,0.014371,-0.175342,0.249234,0.299043,0.374154,0.841703,55.209790,-18.475975,137.289020
52165,NaN,3.281450,7.857284,5.340106,-0.143462,0.006366,0.237233,0.089021,0.045749,-0.163255,0.249735,0.298665,0.374882,0.841365,55.278726,-18.380753,137.250347
52166,NaN,3.431608,8.198883,5.601953,-0.140747,0.045392,0.692435,0.055726,0.068375,-0.155721,0.250214,0.298162,0.375495,0.841128,55.325112,-18.280957,137.225399
52167,NaN,3.194214,7.833926,5.545207,0.050276,0.099025,0.302171,0.061096,0.063745,-0.148318,0.250659,0.297706,0.376106,0.840884,55.373927,-18.187204,137.200788
52168,NaN,3.403726,7.999813,5.317329,-0.290169,0.043818,0.374079,0.092647,0.041929,-0.130961,0.251028,0.297406,0.376804,0.840567,55.442771,-18.107646,137.171410
52169,NaN,3.422586,8.160824,5.235913,-0.393190,-0.061419,0.462017,0.087988,0.041867,-0.109565,0.251304,0.297153,0.377440,0.840289,55.506004,-18.040198,137.149827
52170,NaN,3.357644,8.144617,5.240584,-0.343965,-0.076430,0.431731,0.059465,0.040887,-0.102449,0.251604,0.296869,0.377954,0.840068,55.552860,-17.974386,137.129854
52171,NaN,3.495685,8.051079,5.335346,-0.360653,0.126020,0.451797,0.029444,0.052394,-0.085677,0.251857,0.296528,0.378321,0.839948,55.577508,-17.912884,137.121718
52172,NaN,3.369701,7.993517,5.399122,-0.222700,0.120412,0.401891,0.041294,0.077058,-0.079301,0.252018,0.296113,0.378770,0.839844,55.605950,-17.846283,137.127676
52173,NaN,3.253021,8.184265,5.646655,-0.014127,0.067285,0.648876,0.080934,0.101720,-0.092639,0.252127,0.295624,0.379427,0.839687,55.653969,-17.766303,137.141556
52174,NaN,3.248070,8.410025,5.609254,-0.085652,-0.068262,0.804760,0.120792,0.122447,-0.091059,0.252133,0.295096,0.380284,0.839483,55.722289,-17.679487,137.166190
52175,NaN,3.256153,8.814052,5.654264,-0.143299,-0.257270,1.149703,0.132012,0.118256,-0.078480,0.252069,0.294630,0.381151,0.839273,55.795135,-17.601596,137.193833
52176,NaN,3.180671,8.924189,5.669973,-0.103837,-0.345497,1.222540,0.079308,0.093000,-0.056909,0.252049,0.294238,0.381745,0.839146,55.840632,-17.540498,137.215543
52177,NaN,2.998984,8.874180,5.801275,0.121389,-0.358369,1.198970,0.039204,0.040924,-0.037130,0.252102,0.294058,0.382071,0.839045,55.868665,-17.506490,137.217945
52178,NaN,3.151122,8.714754,5.776242,0.028154,-0.174577,1.105655,-0.006843,0.014555,-0.001304,0.252125,0.293993,0.382123,0.839037,55.870907,-17.497001,137.219438
52179,NaN,3.084991,8.464759,5.844020,0.169457,-0.039765,0.924704,-0.038708,0.011626,0.028435,0.252071,0.293966,0.381989,0.839124,55.852252,-17.503923,137.229385
52180,NaN,3.017505,8.213794,5.756386,0.206359,0.014717,0.659414,-0.042289,-0.017158,0.054627,0.251973,0.294096,0.381770,0.839207,55.833252,-17.531154,137.233974
52181,NaN,2.930612,8.036019,5.531317,0.150761,-0.055215,0.372389,-0.030500,-0.035726,0.069624,0.251826,0.294350,0.381547,0.839263,55.821471,-17.572179,137.234586
52182,NaN,2.854177,7.950905,5.335654,0.092074,-0.158020,0.177256,-0.020382,-0.054427,0.086024,0.251635,0.294724,0.381327,0.839290,55.817410,-17.626287,137.231259
52183,NaN,2.817825,7.860363,5.221936,0.064523,-0.192471,0.033776,-0.025442,-0.079982,0.092444,0.251465,0.295217,0.381035,0.839300,55.812861,-17.693028,137.217846
52184,NaN,2.858037,7.719724,5.235514,0.080593,-0.085899,-0.057727,-0.038704,-0.083440,0.080054,0.251380,0.295678,0.380710,0.839311,55.803315,-17.753648,137.198074
52185,NaN,2.954621,7.648561,5.256758,0.046426,0.020628,-0.073016,-0.052421,-0.047338,0.063079,0.251313,0.295943,0.380390,0.839383,55.781497,-17.795762,137.190889
52186,NaN,2.960707,7.550596,5.152990,-0.009285,0.024251,-0.203842,-0.065613,0.002114,0.049835,0.251232,0.295953,0.380104,0.839533,55.746661,-17.814505,137.203490
52187,NaN,2.909808,7.421573,5.237785,0.108110,0.104415,-0.275469,-0.030400,0.031701,0.016807,0.251174,0.295828,0.380043,0.839622,55.730245,-17.809449,137.220037
52188,NaN,2.935941,7.517004,5.328601,0.130605,0.109666,-0.143664,-0.022573,0.042663,0.003620,0.251147,0.295634,0.380058,0.839692,55.718689,-17.793219,137.237153
52189,NaN,2.858423,7.471307,5.485450,0.298798,0.163862,-0.119131,-0.007134,0.040323,0.002834,0.251096,0.295469,0.380122,0.839736,55.714797,-17.778523,137.253864
52190,NaN,2.844434,7.675378,5.420741,0.222054,0.004846,0.002471,-0.011533,0.027067,0.009695,0.251056,0.295367,0.380153,0.839770,55.711315,-17.770200,137.265280
52191,NaN,2.824771,7.598153,5.499009,0.303789,0.074564,-0.022257,-0.028210,0.011748,0.033940,0.250966,0.295353,0.380052,0.839847,55.697069,-17.778714,137.277653
52192,NaN,2.930709,7.603770,5.677023,0.351647,0.224188,0.110066,-0.022714,-0.023139,0.036508,0.250926,0.295498,0.379935,0.839861,55.692024,-17.799290,137.273206
52193,NaN,3.210131,7.640092,5.712363,0.175588,0.396517,0.243106,-0.033529,-0.026814,0.053743,0.250835,0.295679,0.379735,0.839915,55.678897,-17.829663,137.272875
52194,NaN,3.423158,7.676603,5.686849,0.002430,0.494346,0.323589,-0.056422,0.020727,0.065903,0.250638,0.295653,0.379488,0.840095,55.644803,-17.849971,137.300220
52195,NaN,3.539683,7.530667,5.615397,-0.102400,0.613776,0.206583,-0.064184,0.062812,0.058137,0.250399,0.295438,0.379267,0.840341,55.600885,-17.854557,137.345648
52196,NaN,3.467279,7.481535,5.544824,-0.097618,0.556979,0.108034,-0.055896,0.132717,0.045204,0.250075,0.294903,0.379193,0.840659,55.552204,-17.828771,137.421585
52197,NaN,3.168337,7.434278,5.462387,0.053964,0.350426,-0.064929,-0.040307,0.188986,0.027538,0.249694,0.294118,0.379271,0.841012,55.504886,-17.776867,137.519638
52198,NaN,2.962972,7.452002,5.468868,0.186435,0.213095,-0.110117,-0.023568,0.219501,0.015136,0.249284,0.293202,0.379485,0.841357,55.464892,-17.708595,137.628257
52199,NaN,2.876321,7.492083,5.528649,0.267438,0.167086,-0.072512,-0.013984,0.219570,0.011245,0.248872,0.292297,0.379739,0.841679,55.430842,-17.639547,137.735339
52200,NaN,3.016626,7.848463,5.888032,0.329282,0.230813,0.444291,0.003979,0.250785,0.003759,0.248410,0.291260,0.380122,0.842002,55.403438,-17.555612,137.855387
52201,NaN,3.231004,8.778034,6.448120,0.358423,0.108892,1.542098,0.033472,0.322791,-0.000809,0.247783,0.289954,0.380719,0.842368,55.382554,-17.447075,138.009370
52202,NaN,3.384674,9.875732,6.842769,0.280693,-0.225139,2.664494,0.073381,0.368551,-0.019612,0.247093,0.288462,0.381573,0.842696,55.380408,-17.313716,138.179433
52203,NaN,3.443964,10.736829,6.594099,-0.119065,-0.798598,3.224587,0.053093,0.332195,-0.027157,0.246532,0.287085,0.382301,0.843001,55.372573,-17.189077,138.328769
52204,NaN,3.224533,10.862071,6.370409,-0.159190,-1.111598,3.137343,-0.039134,0.276548,-0.023771,0.246196,0.285832,0.382571,0.843402,55.320533,-17.083632,138.451727
52205,NaN,2.835570,10.706626,6.242662,0.038060,-1.334074,2.830960,-0.200238,0.200189,0.007464,0.246102,0.284764,0.382016,0.844042,55.183670,-17.018234,138.547655
52206,NaN,2.415263,10.218105,6.094722,0.304980,-1.411312,2.241514,-0.402010,0.130089,0.062391,0.246198,0.283845,0.380450,0.845030,54.936557,-17.000732,138.627607
52207,NaN,2.073392,9.623571,5.915623,0.512897,-1.412209,1.573659,-0.585595,0.047628,0.129115,0.246428,0.283178,0.377907,0.846327,54.589169,-17.041713,138.689983
52208,NaN,1.859227,9.022278,5.636821,0.565547,-1.394100,0.881612,-0.745804,-0.072825,0.200664,0.246807,0.282951,0.374435,0.847834,54.159888,-17.155414,138.719157
52209,NaN,2.005031,8.083547,5.181752,0.318638,-1.042139,-0.064547,-0.839881,-0.183740,0.265393,0.247251,0.283191,0.370326,0.849428,53.684979,-17.335963,138.718330
52210,NaN,2.502190,7.114010,4.850337,-0.079669,-0.382833,-0.854873,-0.831227,-0.255825,0.301995,0.247653,0.283814,0.366109,0.850930,53.221602,-17.558281,138.697416
52211,NaN,3.065848,6.381624,4.623720,-0.494141,0.237507,-1.374540,-0.769735,-0.258263,0.338269,0.247809,0.284589,0.362088,0.852345,52.789111,-17.798983,138.690462
52212,NaN,3.148685,5.842422,4.432750,-0.573283,0.468016,-1.866027,-0.644796,-0.236818,0.346754,0.247712,0.285433,0.358611,0.853560,52.423836,-18.035332,138.698408
52213,NaN,3.214747,5.616455,4.130939,-0.777811,0.455990,-2.188337,-0.528444,-0.148164,0.331079,0.247353,0.286015,0.355758,0.854662,52.113521,-18.233939,138.744085
52214,NaN,3.339907,5.380965,4.043620,-0.880693,0.599436,-2.374572,-0.416143,-0.006846,0.301717,0.246707,0.286074,0.353599,0.855725,51.849269,-18.368707,138.847361
52215,NaN,3.562826,5.092714,4.193016,-0.889045,0.957424,-2.430026,-0.307358,0.177007,0.263269,0.245741,0.285413,0.352183,0.856807,51.623650,-18.421038,139.024228
52216,NaN,3.678436,4.947689,4.484689,-0.766675,1.234496,-2.328631,-0.198896,0.400787,0.212556,0.244444,0.283834,0.351580,0.857949,51.433097,-18.369729,139.287888
52217,NaN,3.531885,4.956276,4.943725,-0.389583,1.342471,-2.097429,-0.054084,0.603542,0.159804,0.242806,0.281472,0.351913,0.859056,51.301903,-18.222411,139.627108
52218,NaN,3.285723,5.468547,5.388007,-0.068002,1.080322,-1.532606,0.091825,0.744416,0.095662,0.240991,0.278560,0.353135,0.860013,51.242860,-17.994559,140.007604
52219,NaN,3.227902,6.336515,5.577404,-0.129637,0.605206,-0.796316,0.200439,0.820302,0.026903,0.239182,0.275335,0.355004,0.860787,51.245156,-17.709365,140.396680
52220,NaN,3.300702,7.213819,5.524701,-0.445081,0.100855,-0.156205,0.274979,0.869027,-0.017138,0.237369,0.271899,0.357308,0.861428,51.290139,-17.386396,140.791963
52221,NaN,3.115829,7.978713,5.494356,-0.531035,-0.469063,0.338859,0.291025,0.916531,-0.056106,0.235609,0.268201,0.359773,0.862044,51.343216,-17.029852,141.195008
52222,NaN,2.918141,8.515370,5.692228,-0.415203,-0.785131,0.800484,0.241556,0.939243,-0.055104,0.233868,0.264342,0.362051,0.862756,51.368545,-16.665350,141.607954
52223,NaN,2.775992,8.918616,6.126172,-0.168540,-0.868000,1.322649,0.134581,0.904856,0.003490,0.232076,0.260609,0.363740,0.863665,51.333528,-16.339354,142.025492
52224,NaN,2.790560,9.153558,6.789314,0.133835,-0.646483,1.901987,0.004583,0.791937,0.103446,0.230220,0.257387,0.364602,0.864764,51.230565,-16.098013,142.427201
52225,NaN,3.074866,9.166708,6.882219,-0.069748,-0.434791,2.047087,-0.065250,0.610243,0.195315,0.228388,0.255038,0.364829,0.865849,51.103071,-15.962209,142.777475
52226,NaN,3.821247,9.385785,6.869547,-0.728955,-0.158400,2.407335,-0.127786,0.586959,0.316640,0.226147,0.252934,0.364601,0.867150,50.930849,-15.887921,143.162400
52227,NaN,4.821903,9.650008,6.864324,-1.596185,0.213087,2.871900,-0.237612,0.691303,0.445506,0.223294,0.250484,0.363843,0.868916,50.669484,-15.831632,143.643454
52228,NaN,5.704996,10.032941,6.774736,-2.467749,0.362486,3.335766,-0.367404,0.894519,0.584636,0.219623,0.247254,0.362568,0.871307,50.294972,-15.760214,144.270212
52229,NaN,6.297428,10.407144,6.697913,-3.130620,0.317793,3.712275,-0.549801,1.115677,0.696707,0.215276,0.243063,0.360586,0.874388,49.778455,-15.653020,145.039550
52230,NaN,6.110925,10.289953,6.823656,-2.990941,0.228945,3.633048,-0.724060,1.342913,0.812751,0.210214,0.237875,0.357925,0.878132,49.124333,-15.503059,145.955070
52231,NaN,5.148137,9.941930,7.158439,-2.081693,-0.030528,3.311753,-0.877514,1.452371,0.916056,0.204661,0.232223,0.354549,0.882316,48.361533,-15.346904,146.957337
52232,NaN,4.448388,9.424187,7.483029,-1.356732,-0.034221,2.944818,-0.996231,1.469911,1.010313,0.198785,0.226504,0.350527,0.886742,47.522123,-15.209062,148.001729
52233,NaN,3.827652,8.712878,7.425726,-0.856013,-0.057055,2.227559,-1.073071,1.371699,1.095951,0.192765,0.221282,0.345931,0.891183,46.643526,-15.131730,149.035098
52234,NaN,3.196799,8.052564,7.258723,-0.387719,-0.157053,1.482225,-1.052554,1.171801,1.180235,0.186676,0.217083,0.341109,0.895361,45.790804,-15.152106,150.016083
52235,NaN,2.594690,7.490694,7.005429,0.033193,-0.331401,0.761164,-0.961149,0.870579,1.293822,0.180479,0.214504,0.336264,0.899078,45.010629,-15.327467,150.916849
52236,NaN,1.999226,6.803228,6.958738,0.618841,-0.279058,0.099056,-0.856175,0.474654,1.406867,0.174311,0.213962,0.331383,0.902231,44.316088,-15.697538,151.704240
52237,NaN,2.314767,6.273264,6.839437,0.405153,0.056884,-0.256486,-0.756162,0.027243,1.499875,0.168338,0.215684,0.326438,0.904755,43.711337,-16.282820,152.352140
52238,NaN,3.123466,5.443487,6.580098,-0.220812,0.763442,-0.754434,-0.589643,-0.393073,1.571307,0.162543,0.219529,0.321795,0.906551,43.232577,-17.062659,152.866315
52239,NaN,3.647395,4.748374,6.327525,-0.601740,1.260938,-1.214188,-0.364102,-0.733814,1.639007,0.156720,0.225214,0.317791,0.907593,42.906410,-18.010851,153.278580
52240,NaN,3.683837,4.123607,6.104104,-0.551641,1.532550,-1.739271,-0.096214,-0.935438,1.689915,0.150681,0.232065,0.314766,0.907945,42.743916,-19.059190,153.637112
52241,NaN,3.463289,3.865323,5.957139,-0.288565,1.485936,-2.058354,0.213866,-1.019747,1.670072,0.144496,0.239500,0.313089,0.907599,42.768594,-20.136650,153.953586
52242,NaN,3.569159,3.714711,5.707049,-0.368592,1.467540,-2.274955,0.532401,-0.970447,1.638891,0.137975,0.246848,0.312889,0.906713,42.965597,-21.180050,154.278577
52243,NaN,3.799533,3.631207,5.332667,-0.631006,1.407677,-2.486130,0.873308,-0.857802,1.625402,0.130917,0.253898,0.314315,0.905319,43.341960,-22.173876,154.638404
52244,NaN,3.948678,3.840165,4.660060,-1.017582,0.956067,-2.734242,1.209325,-0.659904,1.611199,0.123159,0.260199,0.317359,0.903555,43.873992,-23.081341,155.073719
52245,NaN,3.820981,4.216911,4.311534,-1.004605,0.442460,-2.758234,1.455440,-0.537563,1.603826,0.114909,0.266084,0.321568,0.901437,44.526189,-23.942111,155.549379
52246,NaN,3.966201,4.741570,4.226994,-1.061035,0.066805,-2.399943,1.662811,-0.553578,1.610997,0.106357,0.272109,0.326643,0.898860,45.293387,-24.815239,156.014898
52247,NaN,4.174959,5.352936,4.383962,-1.004602,-0.211533,-1.797259,1.810965,-0.576970,1.605491,0.097665,0.278297,0.332349,0.895855,46.153079,-25.703199,156.453037
52248,NaN,4.409851,5.934875,4.336804,-1.051884,-0.554902,-1.323855,1.908897,-0.557834,1.578637,0.088896,0.284330,0.338469,0.892576,47.065259,-26.576716,156.880143
52249,NaN,4.577761,6.770748,4.598937,-0.832452,-0.935397,-0.518705,1.793303,-0.495905,1.534551,0.080385,0.289935,0.344127,0.889411,47.909686,-27.413993,157.302068
52250,NaN,4.692826,7.292601,4.449632,-0.806428,-1.333646,-0.191226,1.446786,-0.340117,1.418086,0.072601,0.294453,0.348417,0.886923,48.539597,-28.146272,157.743317
52251,NaN,4.760218,7.207978,4.799208,-0.517407,-1.026642,0.001782,1.105714,-0.127195,1.328840,0.065353,0.297749,0.351391,0.885211,48.944903,-28.764662,158.241379
52252,NaN,4.275291,6.773821,5.152181,0.154194,-0.651128,-0.312203,0.799457,0.039379,1.229827,0.058685,0.299987,0.353168,0.884215,49.146943,-29.278485,158.782725
52253,NaN,3.248174,6.336848,5.658990,1.314499,-0.355730,-0.819601,0.517139,0.150835,1.120526,0.052746,0.301455,0.353897,0.883798,49.182246,-29.703899,159.330060
52254,NaN,2.439321,5.716107,5.904657,2.093988,-0.002142,-1.499796,0.357100,0.199906,0.995371,0.047491,0.302420,0.354089,0.883690,49.132545,-30.056868,159.853782
52255,NaN,2.453017,5.427131,6.155765,2.228077,0.363632,-1.550253,0.326415,0.216421,0.862365,0.042855,0.303072,0.354355,0.883597,49.089161,-30.345613,160.327309
52256,NaN,2.872525,5.271948,6.292813,1.974958,0.684294,-1.370203,0.385158,0.218036,0.766925,0.038534,0.303544,0.355004,0.883373,49.094866,-30.592337,160.764299
52257,NaN,3.235916,5.216507,6.230916,1.665052,0.800115,-1.263141,0.486040,0.186872,0.662576,0.034599,0.303977,0.356263,0.882880,49.190401,-30.803630,161.137822
52258,NaN,3.517396,5.341188,6.101060,1.409844,0.724198,-1.117224,0.575175,0.192370,0.568724,0.030908,0.304234,0.358035,0.882212,49.352700,-30.975070,161.476486
52259,NaN,3.649541,5.607837,5.783539,1.193627,0.392590,-1.058413,0.622771,0.206927,0.485517,0.027490,0.304273,0.360136,0.881456,49.555536,-31.104842,161.786453
52260,NaN,3.868949,5.827922,5.307771,0.810929,0.024338,-1.069258,0.667565,0.240612,0.394301,0.024340,0.304007,0.362575,0.880640,49.796088,-31.184250,162.073665
52261,NaN,4.121942,6.360543,5.020119,0.559542,-0.447473,-0.749847,0.646368,0.268671,0.303351,0.021592,0.303438,0.365070,0.879877,50.039050,-31.212258,162.333485
52262,NaN,4.314382,6.769243,4.994004,0.474486,-0.684455,-0.395525,0.485899,0.347415,0.216326,0.019306,0.302350,0.366982,0.879509,50.186760,-31.176052,162.598576
52263,NaN,4.306407,6.855839,5.100745,0.550997,-0.662410,-0.282584,0.305987,0.443290,0.121443,0.017562,0.300630,0.368270,0.879597,50.229531,-31.059731,162.869463
52264,NaN,4.397206,6.777095,5.366129,0.584213,-0.401185,-0.140177,0.217132,0.549952,0.031900,0.016119,0.298283,0.369291,0.879996,50.211505,-30.868494,163.159149
52265,NaN,4.470998,6.765081,5.456408,0.532693,-0.306801,-0.058177,0.169467,0.647238,-0.056497,0.014976,0.295331,0.370249,0.880608,50.163203,-30.600749,163.457876
52266,NaN,4.340487,6.824507,5.465009,0.608263,-0.368636,-0.077497,0.128942,0.712433,-0.104715,0.013965,0.292003,0.371089,0.881381,50.085386,-30.289338,163.770296
52267,NaN,4.202734,7.204073,5.537442,0.778221,-0.626848,0.148540,0.009557,0.722578,-0.126365,0.013231,0.288572,0.371450,0.882370,49.946533,-29.961951,164.073678
52268,NaN,4.022714,7.380474,5.986989,1.139739,-0.514250,0.431040,-0.119663,0.654751,-0.052139,0.012456,0.285571,0.371105,0.883502,49.734384,-29.693546,164.375647
52269,NaN,3.745894,7.193813,6.371520,1.490498,-0.212099,0.390852,-0.174115,0.431461,0.055414,0.011712,0.283745,0.370357,0.884414,49.526694,-29.552454,164.608128
52270,NaN,4.276913,6.899596,6.513628,1.041104,0.194085,0.541159,-0.167176,0.194014,0.140916,0.011005,0.283132,0.369495,0.884979,49.363010,-29.537925,164.759232
52271,NaN,5.201731,6.706091,6.246058,0.091265,0.351741,0.718733,-0.112965,0.025848,0.206057,0.010256,0.283381,0.368777,0.885208,49.258856,-29.612917,164.852997
52272,NaN,5.945196,6.818894,5.933211,-0.662544,0.218553,0.983558,-0.053400,0.054728,0.185926,0.009446,0.283473,0.368347,0.885367,49.184905,-29.669527,164.954027
52273,NaN,5.786974,6.654120,5.872318,-0.594534,0.247795,0.762547,-0.076564,0.215894,0.127435,0.008658,0.282733,0.367923,0.885788,49.073095,-29.637549,165.107231
52274,NaN,4.913257,6.544110,5.921741,0.127682,0.147981,0.286532,-0.106348,0.299600,0.065031,0.008008,0.281515,0.367439,0.886383,48.934449,-29.549506,165.277983
52275,NaN,4.130345,6.821302,5.502752,0.609201,-0.511664,-0.156744,-0.091881,0.241503,0.027578,0.007633,0.280478,0.367084,0.886861,48.829041,-29.464668,165.400632
52276,NaN,4.277386,7.589735,5.691666,0.710094,-0.935046,0.527358,-0.192290,0.252743,0.050754,0.007252,0.279438,0.366236,0.887543,48.656381,-29.387504,165.541273
52277,NaN,5.010563,7.542533,6.043833,0.233442,-0.544318,1.058028,-0.342648,0.347432,0.062113,0.006875,0.277982,0.364717,0.888628,48.374211,-29.276859,165.731176
52278,NaN,5.325560,7.248103,6.135351,-0.081429,-0.245965,1.071779,-0.410848,0.485814,0.044867,0.006400,0.275884,0.362911,0.890024,48.023035,-29.107010,165.982105
52279,NaN,5.149785,7.057129,6.204121,0.018054,-0.147731,0.901410,-0.433485,0.540850,0.050032,0.005859,0.273535,0.361014,0.891523,47.649005,-28.913925,166.257475
52280,NaN,4.799560,6.919618,6.711459,0.494923,0.157080,0.943270,-0.391913,0.459685,0.076720,0.005262,0.271606,0.359240,0.892832,47.310907,-28.764911,166.506583
52281,NaN,5.309362,7.013066,7.020608,0.190640,0.343188,1.434843,-0.365490,0.393291,0.094791,0.004687,0.269993,0.357566,0.893995,47.001951,-28.645835,166.728876
52282,NaN,5.222238,6.400964,7.086583,0.153482,0.785620,1.041937,-0.201458,0.334862,0.102076,0.003943,0.268669,0.356602,0.894783,46.798050,-28.554093,166.927511
52283,NaN,5.172736,6.539952,7.135263,0.225053,0.684581,1.138149,0.000254,0.241075,0.110847,0.003066,0.267780,0.356528,0.895082,46.730098,-28.501651,167.084090
52284,NaN,4.914263,6.457493,7.213906,0.459352,0.741787,1.009900,0.084212,0.165511,0.112201,0.002196,0.267235,0.356823,0.895130,46.726641,-28.480122,167.206347
52285,NaN,3.789997,6.303511,7.247650,1.410266,0.664513,0.394973,0.120625,0.040046,0.104815,0.001553,0.267251,0.357305,0.894934,46.777061,-28.504909,167.262314
52286,NaN,2.810889,6.077502,7.023572,2.115815,0.513420,-0.356086,0.213376,-0.248171,0.106787,0.001273,0.268548,0.358181,0.894196,46.942731,-28.643435,167.185369
52287,NaN,3.172199,6.012443,6.154381,1.415119,0.099362,-0.753106,0.312351,-0.557907,0.124566,0.001349,0.271276,0.359481,0.892850,47.235555,-28.910799,166.964457
52288,NaN,3.791889,6.478676,5.648319,0.785086,-0.418812,-0.460519,0.320886,-0.658619,0.129246,0.001560,0.274443,0.360797,0.891349,47.555655,-29.217353,166.697605
52289,NaN,4.218384,6.707092,5.592812,0.496077,-0.509903,-0.140406,0.206675,-0.616392,0.113516,0.001940,0.277387,0.361634,0.890098,47.808005,-29.498375,166.439393
52290,NaN,5.001205,6.530562,5.868428,-0.018145,-0.021492,0.291658,0.113043,-0.466011,0.035927,0.002505,0.279520,0.362148,0.889219,47.987234,-29.689215,166.221009
52291,NaN,4.860382,6.679713,6.133773,0.293028,0.025680,0.472179,0.037939,-0.308016,-0.028242,0.003195,0.280829,0.362432,0.888689,48.102150,-29.790079,166.048283
52292,NaN,4.071681,7.016751,6.771135,1.369920,0.033499,0.665087,0.035591,-0.420381,-0.038953,0.004119,0.282621,0.362704,0.888006,48.243940,-29.930598,165.817735
52293,NaN,4.779780,7.409141,7.176307,1.101394,0.169082,1.500981,0.020825,-0.710836,-0.032816,0.005578,0.285718,0.362902,0.886925,48.451068,-30.183607,165.442664
52294,NaN,5.981013,7.662201,7.358459,0.302559,0.376179,2.369074,-0.059554,-0.790513,-0.035886,0.007295,0.289149,0.362731,0.885870,48.633318,-30.464558,165.027209
52295,NaN,6.471012,7.944546,7.416322,0.042324,0.324312,2.831854,-0.141641,-0.637609,-0.014763,0.008779,0.291950,0.362182,0.885162,48.730728,-30.696277,164.691737
52296,NaN,6.330921,8.010976,7.506926,0.265102,0.294538,2.854319,-0.250978,-0.431831,0.034120,0.009814,0.293906,0.361068,0.884959,48.699917,-30.870688,164.483885
52297,NaN,6.088658,7.630753,7.439048,0.386678,0.451498,2.446434,-0.362475,-0.300558,0.096748,0.010524,0.295386,0.359389,0.885142,48.560435,-31.021016,164.366113
52298,NaN,5.780776,7.226781,7.431106,0.583300,0.635355,2.024582,-0.416772,-0.259022,0.150313,0.010977,0.296774,0.357375,0.885487,48.364170,-31.180389,164.296581
52299,NaN,5.152250,6.616192,7.564170,1.084493,0.984712,1.385093,-0.404208,-0.363956,0.196175,0.011423,0.298703,0.355357,0.885645,48.194485,-31.397444,164.192036
52300,NaN,4.474112,6.138524,7.366758,1.491454,1.025954,0.612806,-0.268975,-0.609330,0.215695,0.011989,0.301763,0.353874,0.885194,48.159589,-31.718868,163.976882
52301,NaN,4.215091,6.093179,6.719031,1.412398,0.579566,0.072042,-0.123457,-0.902915,0.219960,0.012859,0.306129,0.353016,0.884024,48.289037,-32.152334,163.611872
52302,NaN,4.601126,6.582610,6.073132,0.924252,-0.097653,0.213256,-0.051724,-1.090305,0.195741,0.014034,0.311281,0.352480,0.882420,48.518775,-32.647433,163.140154
52303,NaN,5.309475,7.394737,5.715648,0.402614,-0.752125,0.902388,-0.143170,-1.107345,0.145827,0.015620,0.316417,0.351615,0.880910,48.721554,-33.126271,162.628970
52304,NaN,5.807200,7.787274,6.055686,0.356377,-0.723414,1.605969,-0.374563,-1.010922,0.054518,0.017785,0.320927,0.349863,0.879935,48.790037,-33.528087,162.125750
52305,NaN,5.882550,7.865877,6.115123,0.405910,-0.753490,1.725871,-0.592274,-0.827588,-0.020898,0.020327,0.324460,0.347286,0.879605,48.704283,-33.826106,161.679892
52306,NaN,4.843531,7.645333,6.120429,1.218987,-0.901678,1.007260,-0.796996,-0.662587,-0.081703,0.023165,0.327143,0.343909,0.879868,48.470370,-34.038603,161.292727
52307,NaN,4.321188,7.111850,5.773326,1.336382,-0.900154,0.186602,-0.942723,-0.616913,-0.140024,0.026454,0.329487,0.340004,0.880418,48.159099,-34.206918,160.898398
