// General information: 
//  MT Manager version: 2019.0.1 
//  XDA version: 2019.0.1 build 2740 rev 84096 built on 2019-01-30
// Device information: 
//  DeviceId: 00B43876
//  ProductCode: MTW2-3A7G6
//  Firmware Version: 4.3.4
//  Hardware Version: 1.1.0
// Device settings: 
//  Filter Profile: human(46.1)
//  Option Flags: Orientation Smoother Disabled, AHS Disabled, ICC Disabled
// Coordinate system: ENU
PacketCounter,SampleTimeFine,Acc_X,Acc_Y,Acc_Z,FreeAcc_E,FreeAcc_N,FreeAcc_U,Gyr_X,Gyr_Y,Gyr_Z,Quat_q0,Quat_q1,Quat_q2,Quat_q3,Roll,Pitch,Yaw
43779,NaN,0.093889,9.793576,-1.157800,-0.011801,0.004323,0.049528,-0.007587,0.009274,-0.009021,0.499657,0.557800,-0.498113,-0.437134,96.806681,-0.578929,-83.015542
43780,NaN,0.072472,9.780936,-1.156278,-0.013836,0.025314,0.036582,-0.009788,0.000571,-0.004502,0.499663,0.557771,-0.498112,-0.437165,96.802899,-0.578730,-83.018450
43781,NaN,0.091175,9.794988,-1.180603,0.011156,0.009541,0.053604,-0.004010,0.002307,-0.007757,0.499652,0.557767,-0.498110,-0.437184,96.802234,-0.576920,-83.020264
43782,NaN,0.082306,9.761525,-1.181237,0.015003,0.018326,0.020364,-0.006949,0.001478,-0.007714,0.499646,0.557751,-0.498107,-0.437215,96.799684,-0.575261,-83.023018
43783,NaN,0.102382,9.774348,-1.181364,0.016340,-0.001923,0.033312,-0.004010,0.002307,-0.007757,0.499635,0.557747,-0.498105,-0.437235,96.799018,-0.573452,-83.024832
43784,NaN,0.057199,9.801989,-1.152311,-0.020892,0.039192,0.056867,-0.003678,0.007047,-0.004432,0.499642,0.557742,-0.498103,-0.437235,96.798176,-0.574046,-83.024571
43785,NaN,0.082813,9.850778,-1.200031,0.023594,0.019524,0.111214,-0.005097,0.006593,-0.002826,0.499655,0.557733,-0.498103,-0.437233,96.796867,-0.575333,-83.024280
43786,NaN,0.090043,9.794066,-1.153957,-0.014015,0.007091,0.049524,-0.003315,0.005618,-0.006076,0.499656,0.557731,-0.498099,-0.437239,96.796227,-0.574819,-83.024491
43787,NaN,0.086396,9.796569,-1.202225,0.032957,0.016408,0.057684,-0.004834,0.005244,-0.007638,0.499654,0.557731,-0.498089,-0.437252,96.795073,-0.573277,-83.024641
43788,NaN,0.141413,9.800130,-1.180691,0.018151,-0.041144,0.059220,-0.002177,0.001293,-0.009423,0.499630,0.557727,-0.498094,-0.437278,96.795166,-0.570762,-83.027889
43789,NaN,0.126088,9.822199,-1.202780,0.035651,-0.024025,0.083591,-0.006088,0.003520,-0.014013,0.499614,0.557736,-0.498067,-0.437315,96.793298,-0.565476,-83.028588
43790,NaN,0.103901,9.809515,-1.201624,0.033643,-0.003031,0.070639,-0.004024,0.007326,-0.015520,0.499597,0.557763,-0.498032,-0.437341,96.792701,-0.559508,-83.027169
43791,NaN,0.102399,9.809592,-1.201127,0.033309,-0.002648,0.070640,-0.005955,0.008419,-0.017024,0.499586,0.557791,-0.497986,-0.437372,96.790881,-0.552841,-83.024877
43792,NaN,0.070207,9.815224,-1.149370,-0.021812,0.021739,0.069805,-0.006053,0.008499,-0.020193,0.499566,0.557824,-0.497933,-0.437412,96.789059,-0.544502,-83.022895
43793,NaN,0.057360,9.784233,-1.198570,0.029330,0.039389,0.044729,-0.007424,0.008004,-0.017004,0.499558,0.557847,-0.497884,-0.437447,96.786400,-0.537818,-83.020841
43794,NaN,0.078216,9.795859,-1.174284,0.007034,0.014746,0.053601,-0.004618,0.003935,-0.014037,0.499538,0.557855,-0.497863,-0.437483,96.785101,-0.532846,-83.022083
43795,NaN,0.046238,9.801457,-1.122546,-0.048068,0.039126,0.052756,-0.007242,0.001716,-0.017223,0.499514,0.557865,-0.497830,-0.437536,96.782579,-0.525612,-83.023592
43796,NaN,0.054487,9.783224,-1.172593,0.004772,0.036154,0.040641,-0.002275,0.001374,-0.012593,0.499486,0.557874,-0.497821,-0.437567,96.782629,-0.521048,-83.025694
43797,NaN,0.074067,9.796064,-1.172846,0.006085,0.015913,0.053600,-0.005626,0.002011,-0.012492,0.499468,0.557877,-0.497803,-0.437603,96.781035,-0.516526,-83.027357
43798,NaN,0.098226,9.754605,-1.176120,0.017387,-0.008272,0.013036,-0.002737,0.002882,-0.014118,0.499440,0.557893,-0.497786,-0.437635,96.781075,-0.511127,-83.028551
43799,NaN,0.104897,9.788181,-1.174816,0.012879,-0.016230,0.046281,0.000794,0.007105,-0.015646,0.499410,0.557932,-0.497761,-0.437649,96.783131,-0.505155,-83.027102
43800,NaN,0.136991,9.780227,-1.177372,0.019998,-0.048742,0.038964,0.001023,0.011925,-0.015487,0.499390,0.557979,-0.497727,-0.437650,96.785280,-0.499681,-83.023332
43801,NaN,0.046398,9.784570,-1.196287,0.026782,0.042530,0.044723,0.002540,0.012301,-0.013924,0.499372,0.558028,-0.497698,-0.437641,96.788312,-0.495041,-83.019042
43802,NaN,0.093144,9.754623,-1.176378,0.016106,-0.006666,0.013040,0.000156,0.021028,-0.010397,0.499388,0.558075,-0.497657,-0.437609,96.789629,-0.493351,-83.011066
43803,NaN,0.080995,9.774126,-1.150397,-0.013696,0.001562,0.029229,0.004059,0.012677,-0.012361,0.499370,0.558126,-0.497634,-0.437591,96.793530,-0.489626,-83.006668
43804,NaN,0.118464,9.802195,-1.200492,0.036582,-0.030393,0.063343,-0.000177,0.027436,-0.014935,0.499395,0.558202,-0.497559,-0.437550,96.794695,-0.485533,-82.993923
43805,NaN,0.083885,9.810130,-1.198164,0.028806,0.002903,0.070654,0.003222,0.026761,-0.013451,0.499412,0.558284,-0.497496,-0.437498,96.798049,-0.482143,-82.981438
43806,NaN,0.138474,9.813776,-1.176982,0.013909,-0.054670,0.072224,-0.000461,0.033804,-0.017890,0.499447,0.558381,-0.497396,-0.437447,96.799099,-0.476791,-82.964826
43807,NaN,0.062017,9.796097,-1.173265,0.002885,0.019869,0.053595,-0.000284,0.038663,-0.019319,0.499491,0.558495,-0.497279,-0.437385,96.800387,-0.470871,-82.945171
43808,NaN,0.119019,9.797325,-1.103180,-0.059307,-0.046556,0.046981,-0.000830,0.029103,-0.022806,0.499505,0.558591,-0.497177,-0.437362,96.801100,-0.462485,-82.931132
43809,NaN,0.093596,9.787024,-1.150922,-0.013951,-0.016680,0.042197,-0.005556,0.029240,-0.019522,0.499539,0.558672,-0.497072,-0.437340,96.799415,-0.455811,-82.916824
43810,NaN,0.069635,9.775506,-1.174144,0.007734,0.008754,0.033319,-0.004821,0.026385,-0.022811,0.499555,0.558755,-0.496968,-0.437332,96.798277,-0.447073,-82.904152
43811,NaN,0.077269,9.807927,-1.147932,-0.020450,-0.003615,0.062470,-0.007902,0.031798,-0.020974,0.499599,0.558839,-0.496848,-0.437312,96.795240,-0.439745,-82.888291
43812,NaN,0.054001,9.745918,-1.246364,0.082263,0.031145,0.012358,-0.020211,0.036174,-0.018968,0.499692,0.558895,-0.496696,-0.437307,96.784981,-0.433931,-82.870336
43813,NaN,0.055805,9.743694,-1.195691,0.034620,0.022663,0.004168,-0.020218,0.042300,-0.012415,0.499815,0.558949,-0.496546,-0.437267,96.774849,-0.432179,-82.849081
43814,NaN,-0.080078,9.776741,-1.208384,0.028245,0.159158,0.037446,-0.025447,0.038960,-0.004480,0.499961,0.558963,-0.496417,-0.437230,96.761762,-0.434751,-82.830507
43815,NaN,-0.024212,9.780758,-1.184463,0.013298,0.101574,0.039026,-0.025321,0.016583,0.001108,0.500064,0.558915,-0.496358,-0.437240,96.748824,-0.438950,-82.824797
43816,NaN,0.012674,9.770696,-1.135328,-0.026874,0.060169,0.023536,-0.031872,0.006577,0.007257,0.500177,0.558815,-0.496323,-0.437279,96.731908,-0.445848,-82.824725
43817,NaN,-0.065596,9.757063,-1.201814,0.033137,0.147980,0.017162,-0.032357,-0.008047,0.013116,0.500264,0.558666,-0.496343,-0.437346,96.715053,-0.455225,-82.833833
43818,NaN,0.040785,9.820374,-1.176993,0.017243,0.040896,0.077952,-0.031273,-0.028459,0.015566,0.500304,0.558464,-0.496426,-0.437464,96.698548,-0.464810,-82.855232
43819,NaN,0.053517,9.801333,-1.199763,0.046381,0.033392,0.061783,-0.038301,-0.025810,0.018979,0.500377,0.558246,-0.496495,-0.437580,96.678377,-0.476344,-82.874835
43820,NaN,0.035528,9.787629,-1.171377,0.020836,0.050019,0.044702,-0.033796,-0.030762,0.015532,0.500418,0.558033,-0.496579,-0.437711,96.660516,-0.485849,-82.897728
43821,NaN,0.099200,9.826519,-1.169559,0.025305,-0.011442,0.083646,-0.036180,-0.033190,0.020257,0.500469,0.557801,-0.496674,-0.437840,96.641604,-0.497633,-82.921608
43822,NaN,0.048059,9.820706,-1.138630,-0.007638,0.038144,0.073846,-0.038847,-0.029248,0.022037,0.500541,0.557559,-0.496764,-0.437964,96.620771,-0.511101,-82.944500
43823,NaN,0.024343,9.862606,-1.131075,-0.019591,0.063158,0.114374,-0.038658,-0.035535,0.021806,0.500597,0.557312,-0.496864,-0.438101,96.600462,-0.523629,-82.969809
43824,NaN,0.083396,9.865266,-1.081589,-0.058249,0.001200,0.111871,-0.038376,-0.041909,0.024742,0.500640,0.557041,-0.496992,-0.438250,96.580387,-0.537544,-82.999548
43825,NaN,0.087150,9.814050,-1.129802,-0.001237,0.006397,0.066563,-0.037962,-0.043377,0.024675,0.500681,0.556772,-0.497121,-0.438400,96.560533,-0.551209,-83.029501
43826,NaN,0.087498,9.815802,-1.150507,0.022085,0.011198,0.070666,-0.036769,-0.047737,0.022898,0.500703,0.556499,-0.497259,-0.438564,96.541415,-0.563606,-83.062015
43827,NaN,0.113421,9.776086,-1.175037,0.057032,-0.008643,0.034246,-0.038922,-0.045350,0.027789,0.500748,0.556215,-0.497399,-0.438715,96.521039,-0.578935,-83.093284
43828,NaN,0.123810,9.810038,-1.170001,0.052531,-0.016502,0.067497,-0.036535,-0.036808,0.029629,0.500811,0.555945,-0.497532,-0.438834,96.501638,-0.596134,-83.120628
43829,NaN,0.081375,9.837769,-1.137583,0.015332,0.024730,0.090927,-0.037922,-0.032271,0.025062,0.500880,0.555698,-0.497634,-0.438952,96.481772,-0.610780,-83.144264
43830,NaN,0.086659,9.835401,-1.085207,-0.032345,0.016299,0.082715,-0.038237,-0.030893,0.028290,0.500959,0.555446,-0.497742,-0.439059,96.461871,-0.627321,-83.167479
43831,NaN,0.141706,9.841999,-1.108865,-0.000045,-0.032450,0.092541,-0.038981,-0.023002,0.023837,0.501051,0.555221,-0.497815,-0.439157,96.441352,-0.641883,-83.185750
43832,NaN,0.156419,9.821625,-1.107198,0.005450,-0.044356,0.072284,-0.036092,-0.022127,0.022213,0.501132,0.555005,-0.497890,-0.439251,96.422338,-0.655729,-83.203947
43833,NaN,0.138876,9.807777,-1.079040,-0.020125,-0.027758,0.055186,-0.031188,-0.017393,0.017516,0.501203,0.554827,-0.497948,-0.439330,96.406250,-0.667063,-83.218609
43834,NaN,0.140276,9.808088,-1.076030,-0.020471,-0.027351,0.055187,-0.030643,-0.013949,0.014458,0.501271,0.554662,-0.497994,-0.439407,96.390505,-0.676978,-83.231720
43835,NaN,0.117802,9.798497,-1.121124,0.024941,0.002444,0.050411,-0.030773,-0.007709,0.016285,0.501362,0.554509,-0.498026,-0.439461,96.374594,-0.688236,-83.240783
43836,NaN,0.133353,9.776585,-1.096146,0.006762,-0.013909,0.026047,-0.024171,-0.008893,0.012912,0.501424,0.554380,-0.498064,-0.439510,96.362451,-0.697404,-83.250125
43837,NaN,0.109359,9.818375,-1.089576,-0.005190,0.011140,0.066557,-0.027189,-0.003529,0.016360,0.501515,0.554245,-0.498093,-0.439543,96.348567,-0.708974,-83.256807
43838,NaN,0.099556,9.788045,-1.136988,0.046071,0.028603,0.041527,-0.028347,-0.005317,0.013143,0.501599,0.554110,-0.498115,-0.439593,96.333843,-0.718630,-83.264412
43839,NaN,0.199873,9.815667,-1.089919,0.010494,-0.074556,0.065041,-0.026182,-0.001599,0.014822,0.501689,0.553986,-0.498137,-0.439622,96.320524,-0.729449,-83.269892
43840,NaN,0.134227,9.831952,-1.082233,-0.004604,-0.008290,0.079554,-0.024577,0.003729,0.011818,0.501779,0.553884,-0.498143,-0.439641,96.308152,-0.738869,-83.272398
43841,NaN,0.168933,9.824185,-1.082365,0.002433,-0.040840,0.072301,-0.025401,0.006665,0.011950,0.501881,0.553787,-0.498138,-0.439652,96.295218,-0.748574,-83.272986
43842,NaN,0.136570,9.832447,-1.077431,-0.005280,-0.007547,0.079554,-0.021915,0.010940,0.008863,0.501978,0.553719,-0.498118,-0.439650,96.284310,-0.756556,-83.270460
43843,NaN,0.150388,9.811924,-1.077084,0.000193,-0.019492,0.059303,-0.026627,0.022224,0.010999,0.502120,0.553655,-0.498069,-0.439624,96.270555,-0.766695,-83.262123
43844,NaN,0.119753,9.818701,-1.047818,-0.031223,0.009445,0.062438,-0.020748,0.023880,0.010929,0.502246,0.553610,-0.498032,-0.439579,96.260467,-0.776860,-83.253279
43845,NaN,0.094384,9.861950,-1.065895,-0.019512,0.038902,0.107051,-0.021708,0.021900,0.014044,0.502380,0.553550,-0.498002,-0.439534,96.249532,-0.788710,-83.245312
43846,NaN,0.088132,9.828674,-1.065109,-0.015662,0.047528,0.073796,-0.025510,0.018995,0.020359,0.502527,0.553460,-0.497992,-0.439490,96.236874,-0.803838,-83.239763
43847,NaN,0.034955,9.825754,-1.083767,-0.001246,0.105852,0.072150,-0.026923,0.013470,0.029688,0.502689,0.553330,-0.498016,-0.439442,96.223030,-0.824071,-83.237566
43848,NaN,0.017439,9.813313,-1.080589,-0.003199,0.126840,0.059141,-0.027613,0.005104,0.035715,0.502842,0.553164,-0.498081,-0.439404,96.209299,-0.847222,-83.241054
43849,NaN,0.100764,9.776688,-1.085050,0.016995,0.048993,0.024407,-0.028764,-0.001744,0.040223,0.502994,0.552969,-0.498168,-0.439376,96.194538,-0.872512,-83.248167
43850,NaN,0.190686,9.824737,-1.035554,-0.024471,-0.041791,0.068196,-0.028788,-0.007833,0.033632,0.503116,0.552777,-0.498252,-0.439382,96.179809,-0.893629,-83.258477
43851,NaN,0.228914,9.815333,-1.011081,-0.041119,-0.078723,0.056839,-0.027078,-0.002602,0.033802,0.503247,0.552601,-0.498327,-0.439368,96.166021,-0.915212,-83.265670
43852,NaN,0.214727,9.840968,-1.079279,0.023665,-0.052902,0.089446,-0.027082,0.002466,0.026073,0.503372,0.552458,-0.498368,-0.439359,96.152530,-0.932482,-83.269357
43853,NaN,0.164390,9.835063,-1.049303,-0.009230,-0.003331,0.079553,-0.025469,0.007797,0.023079,0.503501,0.552336,-0.498391,-0.439339,96.139560,-0.948598,-83.269957
43854,NaN,0.079226,9.838876,-1.040731,-0.025833,0.083540,0.081009,-0.033904,0.009991,0.028108,0.503669,0.552185,-0.498404,-0.439321,96.121933,-0.967581,-83.269585
43855,NaN,0.045884,9.850474,-1.083356,0.013815,0.125628,0.096481,-0.035665,-0.000261,0.034070,0.503830,0.551992,-0.498455,-0.439322,96.103212,-0.989467,-83.275437
43856,NaN,0.116340,9.834587,-1.084870,0.028130,0.060109,0.082017,-0.038704,-0.006056,0.038653,0.503992,0.551765,-0.498530,-0.439335,96.083070,-1.013603,-83.285372
43857,NaN,0.186909,9.818684,-1.086090,0.042480,-0.005406,0.067558,-0.042103,-0.005359,0.037165,0.504165,0.551537,-0.498588,-0.439358,96.060720,-1.036949,-83.294302
43858,NaN,0.178037,9.839883,-1.079832,0.036298,0.007353,0.087800,-0.041810,-0.000593,0.038937,0.504349,0.551312,-0.498645,-0.439364,96.038696,-1.061699,-83.301427
43859,NaN,0.108520,9.821565,-1.047523,0.001896,0.077534,0.064873,-0.049541,0.004899,0.045669,0.504587,0.551066,-0.498684,-0.439355,96.011992,-1.090513,-83.305004
43860,NaN,0.065628,9.852647,-1.062370,0.012055,0.127643,0.096458,-0.046181,-0.006959,0.048267,0.504787,0.550789,-0.498775,-0.439368,95.987506,-1.120344,-83.316766
43861,NaN,0.064097,9.818039,-1.034939,-0.007661,0.131915,0.059072,-0.052533,-0.017242,0.062233,0.505014,0.550445,-0.498910,-0.439386,95.959361,-1.157281,-83.333925
43862,NaN,0.057394,9.790036,-1.104469,0.067190,0.153623,0.038193,-0.052839,-0.027091,0.068155,0.505224,0.550062,-0.499091,-0.439418,95.931732,-1.197050,-83.357984
43863,NaN,0.197768,9.757596,-1.109803,0.096180,0.022179,0.009313,-0.054117,-0.027717,0.074485,0.505456,0.549661,-0.499281,-0.439437,95.902845,-1.240367,-83.381802
43864,NaN,0.281641,9.773259,-1.083802,0.082483,-0.055951,0.024009,-0.053563,-0.018138,0.076456,0.505710,0.549275,-0.499459,-0.439426,95.874561,-1.285395,-83.401011
43865,NaN,0.269437,9.759348,-1.054009,0.056958,-0.039321,0.006865,-0.050615,-0.006109,0.073731,0.505984,0.548931,-0.499601,-0.439379,95.847435,-1.329570,-83.412424
43866,NaN,0.341910,9.793940,-1.001779,0.013752,-0.109451,0.037671,-0.049637,0.000971,0.062913,0.506245,0.548632,-0.499701,-0.439338,95.821279,-1.367927,-83.419786
43867,NaN,0.313416,9.853416,-0.941619,-0.051343,-0.080665,0.090117,-0.047895,0.011288,0.055395,0.506515,0.548379,-0.499754,-0.439283,95.795461,-1.402670,-83.420176
43868,NaN,0.276995,9.828624,-0.936140,-0.054754,-0.039071,0.064073,-0.046069,0.010281,0.053720,0.506770,0.548131,-0.499813,-0.439231,95.770907,-1.436433,-83.421613
43869,NaN,0.180322,9.855731,-0.948151,-0.053385,0.064569,0.089833,-0.040898,0.002498,0.046923,0.506980,0.547897,-0.499880,-0.439204,95.749212,-1.465841,-83.426498
43870,NaN,0.209726,9.814232,-0.948857,-0.042203,0.040232,0.049364,-0.037269,-0.010733,0.046254,0.507140,0.547643,-0.499993,-0.439207,95.730324,-1.494169,-83.439865
43871,NaN,0.211059,9.818016,-0.993776,0.004789,0.049325,0.057628,-0.038388,-0.012552,0.044607,0.507300,0.547388,-0.500098,-0.439221,95.710294,-1.521401,-83.453182
43872,NaN,0.218269,9.814755,-0.941485,-0.042990,0.041035,0.049357,-0.037445,-0.021780,0.044169,0.507426,0.547114,-0.500235,-0.439261,95.691583,-1.547954,-83.472978
43873,NaN,0.327796,9.826700,-0.992654,0.021629,-0.056997,0.069272,-0.037456,-0.027894,0.039137,0.507534,0.546842,-0.500365,-0.439327,95.672328,-1.571205,-83.494717
43874,NaN,0.343618,9.806013,-0.991626,0.027002,-0.068983,0.049047,-0.031985,-0.013528,0.034914,0.507647,0.546624,-0.500465,-0.439353,95.656484,-1.592874,-83.508771
43875,NaN,0.338117,9.772837,-0.990442,0.030961,-0.060370,0.015793,-0.032268,-0.007067,0.030458,0.507773,0.546432,-0.500530,-0.439372,95.639872,-1.612364,-83.518127
43876,NaN,0.356034,9.748521,-0.941226,-0.011093,-0.081032,-0.012706,-0.028279,0.000783,0.021225,0.507876,0.546287,-0.500572,-0.439386,95.626455,-1.627144,-83.524415
43877,NaN,0.313965,9.776249,-0.909335,-0.048212,-0.039626,0.010582,-0.023324,0.011628,0.021614,0.508005,0.546181,-0.500585,-0.439354,95.614654,-1.642645,-83.522602
43878,NaN,0.311996,9.830677,-0.902984,-0.058780,-0.035074,0.064065,-0.018216,0.003907,0.013233,0.508076,0.546091,-0.500612,-0.439353,95.606517,-1.652911,-83.525604
43879,NaN,0.361867,9.797758,-0.857851,-0.093356,-0.088692,0.028366,-0.013945,0.005296,0.008455,0.508134,0.546028,-0.500626,-0.439348,95.600172,-1.660554,-83.526662
43880,NaN,0.240774,9.761953,-0.925499,-0.036098,0.040071,-0.004154,-0.006629,0.007375,0.006813,0.508165,0.545986,-0.500659,-0.439327,95.598788,-1.667616,-83.528306
43881,NaN,0.372432,9.780575,-0.907287,-0.041057,-0.091577,0.016425,-0.002407,0.008824,0.000456,0.508183,0.545980,-0.500667,-0.439304,95.598983,-1.670895,-83.526905
43882,NaN,0.337551,9.790893,-0.928628,-0.025161,-0.053832,0.027757,-0.001834,0.012287,-0.002565,0.508191,0.545983,-0.500674,-0.439283,95.600177,-1.672968,-83.525562
43883,NaN,0.370333,9.782430,-0.931505,-0.018219,-0.086407,0.020572,0.006310,0.016537,-0.012042,0.508178,0.546047,-0.500648,-0.439249,95.605218,-1.669552,-83.519062
43884,NaN,0.389846,9.794864,-0.932696,-0.017225,-0.106632,0.033611,0.011908,0.018508,-0.021572,0.508126,0.546155,-0.500609,-0.439219,95.614242,-1.660704,-83.511553
43885,NaN,0.344412,9.771741,-0.957301,0.003135,-0.060732,0.011684,0.010924,0.027794,-0.022711,0.508105,0.546283,-0.500535,-0.439170,95.621727,-1.651838,-83.498032
43886,NaN,0.308773,9.780157,-0.955747,-0.004601,-0.027381,0.018868,0.014077,0.027368,-0.029134,0.508053,0.546434,-0.500456,-0.439130,95.631660,-1.639227,-83.485070
43887,NaN,0.305978,9.780109,-0.957132,-0.004945,-0.026984,0.018869,0.016074,0.031294,-0.033750,0.508002,0.546609,-0.500355,-0.439087,95.642026,-1.624267,-83.468928
43888,NaN,0.283380,9.765755,-0.934142,-0.030557,-0.010337,0.001682,0.019775,0.029222,-0.035507,0.507924,0.546793,-0.500269,-0.439045,95.655291,-1.608178,-83.454900
43889,NaN,0.321841,9.790651,-0.936720,-0.027957,-0.051112,0.027764,0.020653,0.031331,-0.041770,0.507843,0.547001,-0.500155,-0.439010,95.668277,-1.588655,-83.438278
43890,NaN,0.279427,9.855047,-0.956334,-0.022155,-0.009216,0.092565,0.026188,0.034364,-0.040164,0.507751,0.547222,-0.500059,-0.438951,95.685014,-1.570281,-83.421192
43891,NaN,0.260273,9.786320,-0.938437,-0.037494,0.003249,0.021897,0.026901,0.037651,-0.038450,0.507676,0.547451,-0.499952,-0.438874,95.701498,-1.553019,-83.401143
43892,NaN,0.273301,9.852973,-0.937217,-0.046736,-0.012762,0.088413,0.029468,0.038926,-0.051125,0.507557,0.547721,-0.499824,-0.438821,95.720717,-1.528569,-83.381013
43893,NaN,0.251867,9.786013,-0.943917,-0.038397,0.004014,0.021893,0.030272,0.042099,-0.046252,0.507467,0.547988,-0.499691,-0.438743,95.739068,-1.507127,-83.357971
43894,NaN,0.233644,9.808479,-0.968936,-0.020968,0.021090,0.046258,0.032199,0.034864,-0.049787,0.507341,0.548254,-0.499575,-0.438689,95.759201,-1.483139,-83.339130
43895,NaN,0.219208,9.776639,-0.998076,0.006705,0.033981,0.017149,0.028849,0.035519,-0.049700,0.507230,0.548511,-0.499446,-0.438642,95.776847,-1.459368,-83.319629
43896,NaN,0.242493,9.824181,-1.023594,0.026988,0.009928,0.067609,0.029970,0.031223,-0.053086,0.507087,0.548765,-0.499335,-0.438617,95.796097,-1.433597,-83.304318
43897,NaN,0.269616,9.817467,-1.053141,0.057574,-0.018357,0.064600,0.026620,0.031877,-0.053000,0.506966,0.549016,-0.499202,-0.438593,95.812530,-1.407746,-83.286687
43898,NaN,0.213290,9.809580,-1.003982,0.001114,0.026972,0.050406,0.021844,0.032066,-0.051322,0.506859,0.549253,-0.499065,-0.438577,95.826636,-1.382783,-83.269308
43899,NaN,0.184903,9.800321,-1.054536,0.046662,0.056558,0.045667,0.024984,0.026540,-0.050042,0.506735,0.549481,-0.498950,-0.438565,95.842224,-1.358316,-83.254880
43900,NaN,0.201156,9.812789,-1.056852,0.047655,0.036354,0.058718,0.016967,0.021148,-0.050130,0.506613,0.549676,-0.498838,-0.438589,95.853990,-1.333498,-83.244524
43901,NaN,0.152003,9.840062,-1.029387,0.010589,0.077842,0.081927,0.014927,0.017279,-0.047093,0.506500,0.549851,-0.498732,-0.438620,95.863954,-1.310177,-83.235538
43902,NaN,0.158980,9.820866,-1.057256,0.039703,0.070150,0.065874,0.013386,0.011830,-0.040961,0.506389,0.549991,-0.498659,-0.438657,95.873236,-1.290180,-83.230879
43903,NaN,0.190030,9.810884,-1.036641,0.022942,0.033254,0.054559,0.011755,0.006492,-0.037992,0.506278,0.550112,-0.498599,-0.438702,95.881538,-1.271416,-83.228570
43904,NaN,0.173804,9.831678,-1.035390,0.016603,0.046014,0.074766,0.007341,0.005261,-0.037965,0.506166,0.550219,-0.498541,-0.438762,95.888494,-1.252480,-83.228105
43905,NaN,0.171706,9.829959,-1.011786,-0.007407,0.042114,0.070604,0.007229,0.000278,-0.033422,0.506062,0.550303,-0.498499,-0.438824,95.894287,-1.235956,-83.229603
43906,NaN,0.222837,9.834423,-1.015275,0.000811,-0.011027,0.076509,0.007273,0.000222,-0.031841,0.505951,0.550376,-0.498475,-0.438887,95.900783,-1.220621,-83.233182
43907,NaN,0.171352,9.866814,-1.059641,0.034768,0.043360,0.112187,0.000634,0.007526,-0.023476,0.505906,0.550435,-0.498427,-0.438920,95.902722,-1.210192,-83.231132
43908,NaN,0.185776,9.840947,-0.988819,-0.030817,0.018455,0.079493,-0.001291,0.008639,-0.024980,0.505862,0.550495,-0.498370,-0.438960,95.903757,-1.198918,-83.228597
43909,NaN,0.116839,9.808115,-1.060748,0.035562,0.093453,0.052806,-0.000992,0.002187,-0.020505,0.505814,0.550530,-0.498341,-0.439004,95.904833,-1.189867,-83.229764
43910,NaN,0.159495,9.830062,-1.012783,-0.009302,0.044098,0.070594,0.002449,0.001431,-0.017430,0.505759,0.550565,-0.498332,-0.439035,95.908168,-1.182459,-83.231850
43911,NaN,0.144124,9.852574,-1.035032,0.008228,0.061198,0.094959,-0.000314,0.000387,-0.011079,0.505725,0.550574,-0.498334,-0.439059,95.909664,-1.178674,-83.234599
43912,NaN,0.143129,9.852578,-1.035126,0.007789,0.061553,0.094957,0.002263,0.002623,-0.009446,0.505688,0.550593,-0.498345,-0.439067,95.913224,-1.175788,-83.236542
43913,NaN,0.136917,9.815718,-0.988361,-0.035513,0.061538,0.053359,-0.002226,0.007564,-0.005979,0.505688,0.550601,-0.498339,-0.439063,95.913547,-1.175333,-83.235502
43914,NaN,0.153234,9.882648,-0.984778,-0.044680,0.045625,0.119881,0.005716,0.007933,0.000234,0.505677,0.550613,-0.498372,-0.439024,95.918823,-1.178471,-83.235276
43915,NaN,0.199478,9.853691,-0.989742,-0.031994,0.000600,0.092543,0.001349,0.006642,0.001845,0.505683,0.550608,-0.498398,-0.438994,95.921214,-1.182421,-83.235223
43916,NaN,0.257047,9.805658,-1.020920,0.010086,-0.052578,0.049179,0.000530,0.009579,0.001986,0.505693,0.550605,-0.498421,-0.438959,95.923544,-1.186659,-83.234359
43917,NaN,0.221057,9.817180,-1.067041,0.049868,-0.010629,0.064653,-0.000954,0.020381,-0.000698,0.505734,0.550631,-0.498400,-0.438903,95.924450,-1.189972,-83.226325
43918,NaN,0.222097,9.864680,-0.965501,-0.055444,-0.023043,0.101435,-0.002967,0.021603,-0.005368,0.505766,0.550662,-0.498368,-0.438864,95.924685,-1.190844,-83.218645
43919,NaN,0.190971,9.820239,-0.991468,-0.029137,0.010349,0.059274,0.005028,0.020946,-0.011886,0.505766,0.550732,-0.498328,-0.438820,95.928998,-1.187815,-83.209627
43920,NaN,0.188648,9.821900,-1.016332,-0.005884,0.015052,0.063444,0.006908,0.019889,-0.011966,0.505752,0.550799,-0.498305,-0.438779,95.934838,-1.184932,-83.202822
43921,NaN,0.241719,9.826425,-1.019702,0.002394,-0.038131,0.069387,0.007354,0.012300,-0.017056,0.505714,0.550869,-0.498278,-0.438766,95.940581,-1.178446,-83.198426
43922,NaN,0.237240,9.829784,-1.069024,0.049326,-0.029213,0.077735,0.007222,0.012465,-0.021805,0.505661,0.550950,-0.498241,-0.438767,95.946650,-1.169232,-83.194293
43923,NaN,0.162572,9.809079,-1.018270,-0.008378,0.036795,0.050371,0.010485,0.011931,-0.025060,0.505596,0.551047,-0.498200,-0.438768,95.954183,-1.158163,-83.189631
43924,NaN,0.225850,9.794522,-1.048419,0.029238,-0.024579,0.040302,0.010485,0.011931,-0.025061,0.505523,0.551144,-0.498165,-0.438769,95.962466,-1.147072,-83.185821
43925,NaN,0.231908,9.827974,-1.047298,0.024495,-0.032323,0.073568,0.005340,0.013520,-0.021731,0.505483,0.551223,-0.498118,-0.438770,95.967039,-1.137996,-83.180448
43926,NaN,0.168721,9.788186,-1.022507,-0.003823,0.025494,0.030174,0.001989,0.014163,-0.021645,0.505448,0.551294,-0.498067,-0.438778,95.970317,-1.128934,-83.175525
43927,NaN,0.164141,9.791582,-1.071197,0.043186,0.034410,0.038527,-0.000498,0.011814,-0.020115,0.505423,0.551351,-0.498016,-0.438794,95.971568,-1.120678,-83.171220
43928,NaN,0.191400,9.837818,-1.069545,0.039734,0.006054,0.084868,-0.000044,0.010291,-0.018601,0.505392,0.551404,-0.497976,-0.438809,95.973712,-1.113003,-83.168106
43929,NaN,0.138172,9.829853,-1.017928,-0.016541,0.051509,0.070549,-0.006250,0.009998,-0.015332,0.505389,0.551430,-0.497929,-0.438832,95.971695,-1.107364,-83.165122
43930,NaN,0.146793,9.812544,-1.068013,0.036170,0.047934,0.058717,-0.007503,0.003244,-0.014009,0.505371,0.551437,-0.497904,-0.438873,95.969647,-1.101898,-83.166337
43931,NaN,0.179215,9.804627,-1.069365,0.043023,0.015312,0.051606,-0.013429,0.007712,-0.008958,0.505396,0.551424,-0.497865,-0.438904,95.963549,-1.099756,-83.165036
43932,NaN,0.095150,9.803080,-0.989936,-0.044145,0.089519,0.040203,-0.015831,0.011318,0.002342,0.505458,0.551385,-0.497846,-0.438904,95.956301,-1.104211,-83.162809
43933,NaN,0.160931,9.788838,-1.017509,-0.006431,0.028140,0.030165,-0.014920,0.002207,-0.001233,0.505491,0.551337,-0.497839,-0.438934,95.949418,-1.106142,-83.165105
43934,NaN,0.182053,9.801715,-1.016228,-0.005483,0.007965,0.043244,-0.016175,0.001517,0.006691,0.505536,0.551262,-0.497860,-0.438952,95.942396,-1.112615,-83.169318
43935,NaN,0.125848,9.800617,-1.060466,0.032963,0.070442,0.045633,-0.019895,0.003571,0.008429,0.505607,0.551180,-0.497865,-0.438967,95.932659,-1.120135,-83.171409
43936,NaN,0.222868,9.830930,-1.061546,0.043904,-0.023879,0.077775,-0.021280,0.003047,0.011603,0.505684,0.551084,-0.497882,-0.438980,95.922377,-1.129496,-83.174682
43937,NaN,0.197682,9.781473,-1.012734,-0.000743,-0.003299,0.023059,-0.016221,0.007636,0.011711,0.505762,0.551013,-0.497894,-0.438966,95.914704,-1.139127,-83.174648
43938,NaN,0.219585,9.794307,-1.011596,0.000208,-0.023469,0.036143,-0.011484,0.007519,0.008451,0.505814,0.550959,-0.497915,-0.438951,95.910228,-1.146974,-83.175430
43939,NaN,0.175767,9.821525,-0.981489,-0.036784,0.018152,0.059237,-0.013734,0.009986,0.010181,0.505887,0.550902,-0.497922,-0.438928,95.903952,-1.155872,-83.173964
43940,NaN,0.217202,9.848750,-1.005264,-0.010804,-0.018369,0.089593,-0.006209,0.005766,0.009872,0.505924,0.550858,-0.497960,-0.438899,95.902618,-1.164246,-83.175286
43941,NaN,0.223822,9.792804,-0.984498,-0.024590,-0.026560,0.031958,-0.004413,0.004823,0.006628,0.505952,0.550823,-0.497991,-0.438876,95.901737,-1.170814,-83.176554
43942,NaN,0.211662,9.813631,-0.981706,-0.030803,-0.013676,0.052138,-0.008303,0.007101,0.002032,0.505979,0.550788,-0.498005,-0.438872,95.898972,-1.175127,-83.177758
43943,NaN,0.234592,9.775590,-1.034061,0.027808,-0.029720,0.020157,-0.003482,0.006872,0.001941,0.505998,0.550772,-0.498020,-0.438854,95.898596,-1.179145,-83.177581
43944,NaN,0.211337,9.766385,-1.082005,0.073407,-0.000264,0.015450,-0.005816,0.009451,0.000504,0.506023,0.550754,-0.498026,-0.438840,95.897101,-1.182690,-83.176883
43945,NaN,0.176005,9.825312,-1.026331,0.008314,0.029034,0.067605,-0.005490,0.008095,-0.002732,0.506041,0.550747,-0.498021,-0.438834,95.895554,-1.184117,-83.175734
43946,NaN,0.177434,9.823628,-1.001540,-0.015759,0.025214,0.063413,-0.003850,0.008283,0.003594,0.506064,0.550724,-0.498044,-0.438811,95.895271,-1.189313,-83.176037
43947,NaN,0.142981,9.833464,-1.023068,0.000419,0.062867,0.074688,-0.004541,0.004991,0.001877,0.506081,0.550700,-0.498061,-0.438801,95.894310,-1.193185,-83.176929
43948,NaN,0.199988,9.834713,-0.976260,-0.038887,0.001188,0.072309,-0.010508,0.003452,-0.001262,0.506098,0.550666,-0.498067,-0.438817,95.890694,-1.195118,-83.179287
43949,NaN,0.176556,9.825571,-1.023752,0.006770,0.030605,0.067601,-0.008346,0.007157,0.000448,0.506128,0.550642,-0.498067,-0.438814,95.887526,-1.198302,-83.178860
43950,NaN,0.199047,9.836626,-0.998740,-0.015989,0.006185,0.076500,-0.009690,0.006575,0.005204,0.506166,0.550601,-0.498082,-0.438803,95.884157,-1.204080,-83.179539
43951,NaN,0.198152,9.838453,-1.022130,0.007346,0.010807,0.080694,-0.008953,0.003752,0.001897,0.506193,0.550564,-0.498093,-0.438807,95.880684,-1.207890,-83.181138
43952,NaN,0.288666,9.831626,-0.977530,-0.024804,-0.083875,0.071245,-0.008799,0.008682,-0.001066,0.506220,0.550545,-0.498089,-0.438804,95.877805,-1.210316,-83.180478
43953,NaN,0.177375,9.825926,-1.020200,0.005218,0.032148,0.067597,-0.007953,0.016905,-0.002311,0.506267,0.550549,-0.498057,-0.438780,95.874741,-1.212499,-83.174332
43954,NaN,0.232781,9.828930,-0.997394,-0.010377,-0.025247,0.069423,-0.012449,0.015780,-0.005459,0.506311,0.550543,-0.498018,-0.438781,95.869470,-1.212999,-83.169990
43955,NaN,0.203263,9.782854,-0.998180,-0.007605,0.003794,0.023056,-0.007258,0.014139,-0.007202,0.506339,0.550555,-0.497982,-0.438775,95.866833,-1.212232,-83.165135
43956,NaN,0.256750,9.787579,-1.000143,0.000415,-0.049450,0.029084,-0.003858,0.007382,-0.012309,0.506324,0.550576,-0.497959,-0.438791,95.866937,-1.207969,-83.164261
43957,NaN,0.179204,9.772054,-1.021130,0.013934,0.029310,0.014154,-0.008443,0.012428,-0.012017,0.506341,0.550594,-0.497911,-0.438805,95.863636,-1.204357,-83.160099
43958,NaN,0.173681,9.826410,-1.016157,0.003255,0.034113,0.067591,-0.008032,0.010960,-0.012087,0.506345,0.550605,-0.497876,-0.438825,95.861029,-1.200775,-83.158175
43959,NaN,0.165925,9.791276,-0.992955,-0.016298,0.038374,0.030119,-0.009378,0.010376,-0.007332,0.506369,0.550604,-0.497844,-0.438835,95.857222,-1.199713,-83.155457
43960,NaN,0.184774,9.805871,-1.016405,0.008320,0.022400,0.047422,-0.011537,0.006671,-0.009045,0.506384,0.550596,-0.497813,-0.438864,95.852547,-1.197358,-83.154791
43961,NaN,0.150325,9.814046,-1.012961,0.000850,0.055830,0.054484,-0.010993,-0.001025,-0.010975,0.506377,0.550575,-0.497796,-0.438918,95.847948,-1.193553,-83.158361
43962,NaN,0.215007,9.799838,-1.041081,0.038421,-0.005606,0.044563,-0.006777,-0.004659,-0.009614,0.506347,0.550548,-0.497808,-0.438972,95.845921,-1.190521,-83.165260
43963,NaN,0.227719,9.777417,-1.018202,0.020199,-0.021905,0.020196,-0.008371,-0.004901,-0.014359,0.506315,0.550533,-0.497798,-0.439039,95.842865,-1.184562,-83.170842
43964,NaN,0.235401,9.809249,-0.991209,-0.008320,-0.033748,0.049264,-0.005596,-0.003844,-0.020704,0.506259,0.550537,-0.497781,-0.439117,95.841490,-1.175321,-83.176889
43965,NaN,0.193016,9.782115,-0.966040,-0.034988,0.003551,0.018845,-0.005143,-0.005369,-0.019192,0.506206,0.550542,-0.497766,-0.439190,95.840281,-1.166581,-83.182457
43966,NaN,0.188549,9.785710,-1.014444,0.011973,0.012352,0.027255,0.000325,-0.002246,-0.019144,0.506143,0.550567,-0.497758,-0.439241,95.842495,-1.158072,-83.186786
43967,NaN,0.197989,9.766780,-1.040794,0.041110,0.004460,0.011300,-0.003496,-0.011241,-0.019476,0.506071,0.550563,-0.497760,-0.439326,95.842296,-1.148827,-83.195685
43968,NaN,0.194117,9.817551,-0.987717,-0.016940,0.000856,0.056319,-0.002162,-0.004599,-0.017621,0.506010,0.550573,-0.497758,-0.439387,95.843224,-1.140989,-83.201610
43969,NaN,0.182901,9.785883,-1.013808,0.010880,0.013515,0.027255,-0.002808,-0.007949,-0.017758,0.505948,0.550574,-0.497758,-0.439457,95.843381,-1.132915,-83.208732
43970,NaN,0.257444,9.801695,-0.991908,-0.003452,-0.064442,0.042221,-0.003262,-0.006424,-0.019271,0.505883,0.550580,-0.497753,-0.439529,95.843552,-1.124076,-83.215433
43971,NaN,0.124907,9.781241,-1.010670,0.001731,0.067893,0.021189,-0.003591,-0.005071,-0.016033,0.505834,0.550582,-0.497748,-0.439589,95.843228,-1.117153,-83.221015
43972,NaN,0.172969,9.840289,-1.008939,-0.000534,0.019144,0.080684,0.001824,-0.013047,-0.016471,0.505743,0.550576,-0.497782,-0.439661,95.846431,-1.109666,-83.232341
43973,NaN,0.207448,9.828826,-0.962457,-0.041129,-0.021893,0.065218,-0.006490,-0.005959,-0.014438,0.505703,0.550565,-0.497778,-0.439727,95.844457,-1.103600,-83.238523
43974,NaN,0.125622,9.818415,-1.056601,0.043490,0.069398,0.062876,-0.001899,-0.010999,-0.014735,0.505635,0.550556,-0.497797,-0.439795,95.845436,-1.096963,-83.247592
43975,NaN,0.211037,9.864232,-0.984107,-0.022671,-0.024983,0.102701,-0.003866,-0.009832,-0.017826,0.505571,0.550550,-0.497799,-0.439873,95.845002,-1.088740,-83.255784
43976,NaN,0.090085,9.824735,-1.029045,0.011983,0.099061,0.065699,-0.008562,-0.009782,-0.012986,0.505526,0.550518,-0.497811,-0.439953,95.842194,-1.083431,-83.265242
43977,NaN,0.232064,9.824745,-1.011507,0.011859,-0.044976,0.066606,-0.006308,-0.012244,-0.014719,0.505469,0.550493,-0.497822,-0.440036,95.840388,-1.076839,-83.274991
43978,NaN,0.132047,9.798012,-1.056517,0.047847,0.058481,0.042717,-0.008149,-0.011250,-0.013058,0.505420,0.550462,-0.497834,-0.440118,95.837753,-1.071238,-83.284746
43979,NaN,0.165535,9.788366,-1.034066,0.030924,0.021638,0.031467,-0.002870,-0.012996,-0.011636,0.505359,0.550436,-0.497864,-0.440186,95.837927,-1.066360,-83.295104
43980,NaN,0.184962,9.801237,-1.033656,0.031821,0.001440,0.044588,-0.009848,-0.016483,-0.013261,0.505301,0.550392,-0.497883,-0.440286,95.834505,-1.060146,-83.307491
43981,NaN,0.154124,9.803922,-0.957690,-0.046649,0.022337,0.038970,-0.003657,-0.021279,-0.008815,0.505227,0.550340,-0.497939,-0.440372,95.834316,-1.056394,-83.322736
43982,NaN,0.092188,9.808023,-1.076279,0.062954,0.097224,0.053962,-0.004671,-0.023220,-0.007298,0.505150,0.550276,-0.498008,-0.440464,95.834072,-1.053365,-83.339841
43983,NaN,0.228510,9.819901,-0.935388,-0.061428,-0.055207,0.053964,-0.004943,-0.027979,-0.009092,0.505062,0.550206,-0.498077,-0.440572,95.833214,-1.049066,-83.358889
43984,NaN,0.135723,9.828385,-1.002752,-0.006239,0.044369,0.067549,-0.006925,-0.031919,-0.004472,0.504977,0.550111,-0.498169,-0.440686,95.831607,-1.047137,-83.380999
43985,NaN,0.233355,9.715155,-0.991457,0.005806,-0.055008,-0.044442,-0.005086,-0.032913,-0.006137,0.504884,0.550023,-0.498259,-0.440801,95.830720,-1.044235,-83.403032
43986,NaN,0.150838,9.706488,-1.109631,0.114161,0.040420,-0.042565,-0.006609,-0.027218,-0.001096,0.504815,0.549926,-0.498352,-0.440894,95.829291,-1.044675,-83.423287
43987,NaN,0.038925,9.749248,-1.075229,0.063119,0.148311,-0.005573,-0.004276,-0.034903,0.008043,0.504746,0.549800,-0.498488,-0.440977,95.828905,-1.049741,-83.447280
43988,NaN,0.052755,9.868784,-1.041876,0.019686,0.132930,0.110171,-0.011728,-0.035922,0.019239,0.504715,0.549625,-0.498645,-0.441054,95.824737,-1.061106,-83.473091
43989,NaN,0.028756,9.910351,-1.036116,0.007762,0.158355,0.150459,-0.014301,-0.049323,0.018682,0.504661,0.549415,-0.498824,-0.441174,95.818780,-1.071402,-83.505923
43990,NaN,0.270096,9.987863,-0.920464,-0.086711,-0.092581,0.220334,-0.008006,-0.055180,0.011952,0.504556,0.549225,-0.499017,-0.441313,95.816940,-1.077440,-83.542252
43991,NaN,0.332064,9.934934,-0.878228,-0.115764,-0.158598,0.164582,-0.008046,-0.038851,0.001573,0.504473,0.549097,-0.499136,-0.441432,95.814442,-1.078594,-83.568120
43992,NaN,0.378699,9.904539,-0.858348,-0.127009,-0.207971,0.133201,-0.001796,-0.028379,-0.015533,0.504359,0.549053,-0.499197,-0.441549,95.815838,-1.070431,-83.587106
43993,NaN,0.290314,9.857077,-0.905912,-0.085078,-0.117062,0.089130,0.000594,-0.009634,-0.029019,0.504258,0.549087,-0.499178,-0.441644,95.817943,-1.055843,-83.594540
43994,NaN,0.210605,9.841266,-0.927541,-0.071375,-0.038395,0.074103,0.007161,0.000431,-0.035038,0.504150,0.549179,-0.499129,-0.441707,95.823918,-1.038161,-83.595428
43995,NaN,0.216747,9.824176,-0.978955,-0.018555,-0.042188,0.062414,0.003624,0.001299,-0.041285,0.504041,0.549276,-0.499055,-0.441795,95.827629,-1.017217,-83.595914
43996,NaN,0.229806,9.749271,-0.986233,-0.002836,-0.058839,-0.011143,0.011610,0.011841,-0.048900,0.503915,0.549436,-0.498954,-0.441854,95.836183,-0.992428,-83.590274
43997,NaN,0.248899,9.709648,-1.016361,0.032098,-0.079329,-0.047193,0.015600,0.019667,-0.056565,0.503785,0.549641,-0.498818,-0.441900,95.846561,-0.963845,-83.579392
43998,NaN,0.238893,9.763854,-1.013491,0.021359,-0.074460,0.006226,0.014345,0.035228,-0.057437,0.503693,0.549883,-0.498639,-0.441906,95.856507,-0.935552,-83.559495
43999,NaN,0.133378,9.787360,-1.007254,-0.000145,0.025128,0.027238,0.013696,0.037929,-0.050959,0.503626,0.550110,-0.498468,-0.441893,95.865643,-0.911236,-83.538521
44000,NaN,0.073357,9.784029,-1.030127,0.014855,0.083275,0.025332,0.014054,0.042573,-0.046000,0.503578,0.550336,-0.498302,-0.441853,95.875182,-0.889994,-83.515507
44001,NaN,-0.019289,9.788478,-1.050276,0.022850,0.174496,0.030421,0.007725,0.032211,-0.032058,0.503555,0.550488,-0.498185,-0.441823,95.880979,-0.876122,-83.498896
44002,NaN,0.011984,9.780610,-1.053308,0.029551,0.141804,0.023417,0.003652,0.019392,-0.019851,0.503537,0.550573,-0.498124,-0.441806,95.884715,-0.868355,-83.490160
44003,NaN,0.052093,9.806335,-1.053969,0.031728,0.101120,0.049692,0.000302,0.014915,-0.012049,0.503536,0.550618,-0.498088,-0.441791,95.886430,-0.864873,-83.484581
44004,NaN,0.091550,9.833889,-1.078438,0.057555,0.064581,0.080204,-0.006403,0.011067,-0.004160,0.503557,0.550617,-0.498073,-0.441785,95.884513,-0.865633,-83.482256
44005,NaN,0.038196,9.780031,-1.151907,0.130321,0.126502,0.033346,-0.013896,0.010093,0.005459,0.503621,0.550573,-0.498067,-0.441775,95.878150,-0.871846,-83.480453
44006,NaN,0.051219,9.808418,-1.075412,0.054363,0.106402,0.053918,-0.017884,0.002264,0.013122,0.503693,0.550485,-0.498091,-0.441775,95.869781,-0.881755,-83.483251
44007,NaN,0.073443,9.821498,-1.073630,0.055278,0.086259,0.067059,-0.023013,-0.007335,0.017549,0.503766,0.550349,-0.498142,-0.441805,95.858359,-0.893837,-83.492089
44008,NaN,0.124243,9.789682,-1.027377,0.020347,0.032753,0.031464,-0.024834,-0.017506,0.020302,0.503820,0.550177,-0.498226,-0.441861,95.846363,-0.906928,-83.507540
44009,NaN,0.123945,9.840547,-0.971899,-0.037703,0.029398,0.076399,-0.028409,-0.021694,0.020176,0.503877,0.549989,-0.498308,-0.441937,95.831986,-0.919674,-83.524711
44010,NaN,0.203933,9.806245,-1.001102,0.005408,-0.044804,0.046532,-0.019535,-0.025293,0.015090,0.503886,0.549833,-0.498405,-0.442012,95.823346,-0.929025,-83.543420
44011,NaN,0.247846,9.830313,-0.975405,-0.016141,-0.089619,0.068589,-0.019033,-0.021766,0.010474,0.503896,0.549693,-0.498482,-0.442089,95.814338,-0.936243,-83.560065
44012,NaN,0.175958,9.808958,-0.922245,-0.073422,-0.023410,0.040800,-0.014259,-0.016808,0.001083,0.503882,0.549602,-0.498530,-0.442163,95.808438,-0.938132,-83.573120
44013,NaN,0.236388,9.849448,-0.946100,-0.046374,-0.080472,0.084484,-0.009662,-0.016726,-0.006937,0.503840,0.549540,-0.498566,-0.442247,95.804737,-0.935721,-83.585881
44014,NaN,0.282930,9.819244,-0.925765,-0.057630,-0.129851,0.053136,-0.007560,-0.007844,-0.014513,0.503796,0.549523,-0.498565,-0.442320,95.802462,-0.929392,-83.593145
44015,NaN,0.201443,9.855646,-0.917889,-0.077820,-0.050753,0.087223,-0.004094,0.007623,-0.018638,0.503774,0.549558,-0.498520,-0.442352,95.801715,-0.921723,-83.591347
44016,NaN,0.240833,9.881432,-0.918189,-0.075796,-0.091469,0.113523,0.001361,0.015876,-0.026303,0.503737,0.549648,-0.498446,-0.442366,95.804576,-0.909911,-83.584343
44017,NaN,0.220818,9.816211,-0.946905,-0.043321,-0.070958,0.051210,0.005807,0.022186,-0.032451,0.503693,0.549774,-0.498349,-0.442369,95.809359,-0.895213,-83.573441
44018,NaN,0.183802,9.824012,-0.945045,-0.050720,-0.037467,0.058185,0.008231,0.029721,-0.043274,0.503634,0.549947,-0.498213,-0.442374,95.815672,-0.874875,-83.558389
44019,NaN,0.186390,9.859340,-0.968324,-0.031946,-0.040919,0.095707,0.013689,0.032863,-0.043233,0.503571,0.550144,-0.498077,-0.442355,95.824877,-0.854654,-83.540770
44020,NaN,0.140763,9.833509,-0.969091,-0.034739,0.000552,0.069399,0.011668,0.034086,-0.047912,0.503505,0.550348,-0.497922,-0.442351,95.832966,-0.831889,-83.522640
44021,NaN,0.112921,9.824160,-1.018625,0.011075,0.029737,0.064734,0.012085,0.032620,-0.047991,0.503435,0.550551,-0.497769,-0.442348,95.841263,-0.808947,-83.504878
44022,NaN,0.065966,9.800067,-1.043570,0.031897,0.075284,0.042668,0.009698,0.030137,-0.043299,0.503372,0.550734,-0.497634,-0.442346,95.848787,-0.788391,-83.489086
44023,NaN,0.109784,9.769864,-1.024763,0.020685,0.025918,0.011331,0.007597,0.026365,-0.043436,0.503309,0.550901,-0.497499,-0.442360,95.854578,-0.767684,-83.475150
44024,NaN,0.115192,9.801606,-0.999050,-0.007945,0.014192,0.040362,0.006046,0.020950,-0.038889,0.503246,0.551042,-0.497388,-0.442382,95.859725,-0.749149,-83.464566
44025,NaN,0.008232,9.781227,-1.142319,0.123192,0.133990,0.033338,0.002279,0.017930,-0.031017,0.503204,0.551147,-0.497297,-0.442401,95.862550,-0.735029,-83.456161
44026,NaN,0.039775,9.820561,-1.043297,0.024711,0.089370,0.062781,-0.000564,0.011860,-0.020118,0.503178,0.551205,-0.497245,-0.442416,95.864038,-0.726647,-83.451799
44027,NaN,-0.028857,9.835943,-1.038138,0.010375,0.155936,0.076696,-0.006177,-0.001277,-0.011076,0.503156,0.551196,-0.497239,-0.442459,95.862174,-0.722768,-83.455508
44028,NaN,-0.001060,9.791199,-0.993169,-0.025749,0.122982,0.027952,-0.010278,-0.014052,-0.000455,0.503135,0.551120,-0.497288,-0.442523,95.858143,-0.724222,-83.467562
44029,NaN,0.031406,9.785435,-1.018847,0.004608,0.094409,0.025241,-0.011276,-0.021108,0.008780,0.503122,0.551005,-0.497375,-0.442583,95.853516,-0.730503,-83.483737
44030,NaN,0.050260,9.802089,-1.066608,0.052849,0.082504,0.046904,-0.010306,-0.024215,0.013391,0.503108,0.550874,-0.497485,-0.442638,95.849513,-0.739207,-83.501926
44031,NaN,0.060513,9.833951,-1.039282,0.024241,0.070819,0.075930,-0.009635,-0.032023,0.014616,0.503076,0.550725,-0.497619,-0.442710,95.845916,-0.748179,-83.524663
44032,NaN,0.117155,9.837532,-1.016357,0.008398,0.013499,0.077888,-0.016602,-0.035536,0.012987,0.503048,0.550551,-0.497746,-0.442815,95.838453,-0.756091,-83.550004
44033,NaN,0.133503,9.813407,-0.968759,-0.033518,-0.006890,0.049265,-0.009562,-0.038131,0.009566,0.502989,0.550400,-0.497882,-0.442916,95.834946,-0.761834,-83.575927
44034,NaN,0.207321,9.833494,-0.995069,-0.000821,-0.076585,0.072903,-0.009954,-0.042714,0.003007,0.502906,0.550260,-0.498007,-0.443045,95.831500,-0.763229,-83.603344
44035,NaN,0.185298,9.822525,-1.017646,0.021330,-0.051553,0.063994,-0.022274,-0.027290,0.005513,0.502900,0.550112,-0.498076,-0.443158,95.820626,-0.767296,-83.622850
44036,NaN,0.131058,9.817468,-1.013076,0.012739,0.002406,0.057774,-0.016158,-0.015733,-0.000427,0.502891,0.550024,-0.498112,-0.443237,95.813628,-0.768393,-83.635106
44037,NaN,0.166081,9.808104,-0.989821,-0.004299,-0.034395,0.046574,-0.013922,-0.012137,0.004463,0.502897,0.549932,-0.498159,-0.443290,95.807425,-0.772746,-83.645912
44038,NaN,0.134056,9.814110,-0.961542,-0.035336,-0.005033,0.049260,-0.016151,-0.004631,0.000079,0.502918,0.549864,-0.498170,-0.443339,95.800080,-0.774916,-83.652193
44039,NaN,0.167687,9.806564,-0.962581,-0.028691,-0.037726,0.042318,-0.014006,-0.000917,0.001799,0.502947,0.549804,-0.498181,-0.443369,95.793742,-0.778402,-83.656448
44040,NaN,0.188448,9.819635,-0.961406,-0.027831,-0.057864,0.055490,-0.014303,0.005486,-0.001080,0.502986,0.549765,-0.498166,-0.443388,95.787128,-0.780523,-83.656763
44041,NaN,0.153401,9.829290,-0.981907,-0.011459,-0.020268,0.066688,-0.011618,0.012672,-0.002388,0.503033,0.549752,-0.498137,-0.443385,95.782049,-0.782408,-83.653028
44042,NaN,0.128784,9.868810,-0.951877,-0.047130,0.001156,0.102647,-0.010872,0.009860,-0.005709,0.503060,0.549744,-0.498109,-0.443396,95.777789,-0.782130,-83.650916
44043,NaN,0.139636,9.850162,-0.977228,-0.017987,-0.006918,0.086797,-0.014318,0.010604,-0.008792,0.503095,0.549735,-0.498061,-0.443421,95.771174,-0.780245,-83.647991
44044,NaN,0.137486,9.852147,-1.000251,0.005315,-0.002463,0.091058,-0.011382,0.011446,-0.008806,0.503122,0.549738,-0.498018,-0.443435,95.766545,-0.778189,-83.644492
44045,NaN,0.130235,9.816861,-0.976944,-0.014094,0.001783,0.053514,-0.010796,0.014858,-0.010248,0.503155,0.549751,-0.497963,-0.443444,95.761915,-0.775717,-83.639057
44046,NaN,0.141994,9.796355,-0.978277,-0.008660,-0.010403,0.033407,-0.008626,0.012529,-0.015162,0.503163,0.549776,-0.497907,-0.443466,95.758679,-0.770288,-83.634920
44047,NaN,0.147170,9.831880,-0.999562,0.010074,-0.013850,0.070953,-0.009419,0.015400,-0.013427,0.503186,0.549801,-0.497845,-0.443477,95.754832,-0.766035,-83.628994
44048,NaN,0.139491,9.796561,-0.976570,-0.009341,-0.009628,0.033407,-0.006528,0.016303,-0.015026,0.503200,0.549841,-0.497783,-0.443483,95.752711,-0.760804,-83.622443
44049,NaN,0.163933,9.755415,-0.980608,0.001908,-0.034395,-0.006801,-0.004640,0.015259,-0.015107,0.503205,0.549883,-0.497728,-0.443487,95.751602,-0.755584,-83.616501
44050,NaN,0.095633,9.770784,-0.975205,-0.012373,0.032192,0.007048,-0.003922,0.018491,-0.011792,0.503223,0.549925,-0.497676,-0.443472,95.751043,-0.752387,-83.609042
44051,NaN,0.121934,9.819198,-0.997323,0.007525,0.008228,0.057776,-0.000477,0.017748,-0.008708,0.503238,0.549967,-0.497641,-0.443443,95.752307,-0.750958,-83.602049
44052,NaN,0.116254,9.781906,-0.951012,-0.035619,0.008369,0.015959,0.004391,0.017487,-0.007214,0.503239,0.550016,-0.497625,-0.443399,95.756714,-0.750315,-83.595730
44053,NaN,0.100187,9.806222,-0.997431,0.005633,0.029525,0.044594,-0.001856,0.017205,-0.005532,0.503263,0.550045,-0.497597,-0.443367,95.757195,-0.750666,-83.589229
44054,NaN,0.108962,9.837926,-0.971105,-0.023097,0.017856,0.073608,0.004435,0.017427,-0.005629,0.503268,0.550095,-0.497582,-0.443317,95.761762,-0.750702,-83.582365
44055,NaN,0.087889,9.824932,-0.971291,-0.024591,0.038772,0.060423,0.002967,0.017005,-0.005624,0.503278,0.550135,-0.497565,-0.443273,95.765008,-0.750990,-83.575973
44056,NaN,0.119800,9.819136,-0.998197,0.005702,0.010129,0.057776,0.000495,0.014635,-0.004103,0.503293,0.550163,-0.497552,-0.443238,95.766936,-0.751916,-83.570833
44057,NaN,0.106704,9.839727,-0.996060,-0.000424,0.023119,0.077874,0.002846,0.012066,-0.002671,0.503298,0.550185,-0.497555,-0.443200,95.770152,-0.753603,-83.567426
44058,NaN,0.127075,9.852689,-0.996280,0.000386,0.002979,0.091060,-0.001226,0.009455,-0.005902,0.503300,0.550201,-0.497546,-0.443188,95.771118,-0.753162,-83.565104
44059,NaN,0.127868,9.850867,-0.971723,-0.023639,-0.000698,0.086788,-0.003577,0.012024,-0.007335,0.503312,0.550219,-0.497522,-0.443179,95.770650,-0.752189,-83.561453
44060,NaN,0.105131,9.839800,-0.995506,-0.001449,0.024306,0.077871,-0.003829,0.007267,-0.009139,0.503307,0.550226,-0.497509,-0.443190,95.770129,-0.750004,-83.561140
44061,NaN,0.139365,9.830372,-0.973124,-0.018534,-0.012478,0.066690,-0.006258,0.004836,-0.006032,0.503311,0.550218,-0.497502,-0.443204,95.768180,-0.749359,-83.561662
44062,NaN,0.103921,9.839930,-0.994339,-0.002179,0.025021,0.077869,-0.007098,0.007767,-0.005884,0.503325,0.550220,-0.497481,-0.443209,95.766130,-0.748530,-83.559782
44063,NaN,0.116224,9.819413,-0.995885,0.003277,0.012822,0.057774,-0.007769,0.004474,-0.007614,0.503329,0.550211,-0.497466,-0.443232,95.763316,-0.746962,-83.560419
44064,NaN,0.093583,9.808400,-1.019144,0.025476,0.037801,0.048857,-0.010662,0.003569,-0.006019,0.503341,0.550188,-0.497454,-0.443261,95.758926,-0.746261,-83.561985
44065,NaN,0.115096,9.819614,-0.994042,0.002595,0.013618,0.057773,-0.008310,0.001000,-0.004587,0.503345,0.550163,-0.497455,-0.443287,95.755831,-0.746220,-83.564777
44066,NaN,0.159836,9.793350,-1.022293,0.038614,-0.027656,0.035057,-0.007262,0.002888,-0.004517,0.503348,0.550144,-0.497457,-0.443305,95.753671,-0.746227,-83.566814
44067,NaN,0.123362,9.851480,-0.966075,-0.026475,0.002418,0.086780,-0.007683,0.004353,-0.004443,0.503359,0.550127,-0.497451,-0.443320,95.750910,-0.746460,-83.567703
44068,NaN,0.126960,9.799265,-0.994029,0.007341,0.002178,0.037680,-0.008437,0.007162,-0.001122,0.503387,0.550107,-0.497445,-0.443320,95.747601,-0.748703,-83.566997
44069,NaN,0.102273,9.838652,-0.964445,-0.028265,0.023723,0.073583,-0.005587,0.008129,-0.004302,0.503401,0.550103,-0.497435,-0.443319,95.746013,-0.749233,-83.565741
44070,NaN,0.114817,9.818121,-0.966149,-0.022803,0.011509,0.053491,-0.006215,0.004776,-0.004447,0.503410,0.550092,-0.497431,-0.443329,95.744061,-0.749437,-83.566231
44071,NaN,0.100337,9.840634,-0.987717,-0.005237,0.028578,0.077858,-0.002772,0.004034,-0.001358,0.503413,0.550079,-0.497445,-0.443324,95.744119,-0.751411,-83.567479
44072,NaN,0.106662,9.784629,-0.967548,-0.018831,0.020210,0.020202,-0.003656,0.007025,-0.002795,0.503421,0.550073,-0.497449,-0.443319,95.743752,-0.752764,-83.567299
44073,NaN,0.147903,9.810610,-0.967622,-0.016908,-0.020407,0.046599,0.000370,0.009697,-0.001147,0.503431,0.550080,-0.497457,-0.443290,95.745568,-0.755183,-83.565330
44074,NaN,0.127154,9.797624,-0.967551,-0.018385,0.000473,0.033399,0.000954,0.013111,-0.002588,0.503443,0.550101,-0.497453,-0.443255,95.747790,-0.756832,-83.561285
44075,NaN,0.125860,9.799474,-0.992103,0.004971,0.004926,0.037681,0.004396,0.012369,0.000502,0.503451,0.550120,-0.497468,-0.443205,95.751893,-0.760344,-83.557887
44076,NaN,0.106535,9.784580,-0.968050,-0.020149,0.021776,0.020196,0.003470,0.015421,-0.002522,0.503465,0.550151,-0.497463,-0.443157,95.755275,-0.762293,-83.552384
44077,NaN,0.125778,9.799377,-0.993071,0.004330,0.005721,0.037681,0.009135,0.012294,-0.002756,0.503453,0.550190,-0.497480,-0.443104,95.762091,-0.763944,-83.548843
44078,NaN,0.158082,9.793559,-1.020558,0.034568,-0.022965,0.035085,0.007331,0.013214,0.000494,0.503453,0.550218,-0.497501,-0.443045,95.768032,-0.767442,-83.545244
44079,NaN,0.113077,9.819819,-0.992246,-0.002155,0.019120,0.057764,0.006490,0.016145,0.000642,0.503465,0.550250,-0.497511,-0.442979,95.773306,-0.771253,-83.539703
44080,NaN,0.101581,9.838475,-0.966327,-0.031993,0.028060,0.073560,0.007289,0.013275,-0.001093,0.503464,0.550284,-0.497524,-0.442923,95.779206,-0.773768,-83.535522
44081,NaN,0.120893,9.853253,-0.991464,-0.007523,0.012004,0.091050,0.007667,0.011871,-0.002753,0.503455,0.550318,-0.497539,-0.442875,95.785185,-0.775397,-83.532223
44082,NaN,0.170997,9.819400,-0.923865,-0.066297,-0.045541,0.051233,0.006742,0.014922,-0.005778,0.503449,0.550370,-0.497532,-0.442825,95.790949,-0.775161,-83.526404
44083,NaN,0.166807,9.824913,-0.997601,0.004440,-0.033004,0.064095,0.010346,0.019060,-0.004055,0.503448,0.550430,-0.497531,-0.442754,95.798405,-0.776465,-83.518931
44084,NaN,0.146891,9.810006,-0.973883,-0.020761,-0.016200,0.046600,0.004307,0.017611,-0.010388,0.503443,0.550491,-0.497501,-0.442715,95.802802,-0.773819,-83.511594
44085,NaN,0.111325,9.819419,-0.996388,-0.004302,0.021367,0.057758,0.007326,0.018336,-0.007222,0.503442,0.550550,-0.497486,-0.442661,95.808531,-0.773277,-83.504351
44086,NaN,0.109452,9.821236,-1.021158,0.019027,0.025793,0.062047,0.002460,0.018593,-0.008727,0.503449,0.550601,-0.497457,-0.442623,95.811639,-0.771839,-83.497061
44087,NaN,0.123023,9.798754,-0.999548,0.000789,0.009523,0.037679,0.007121,0.013518,-0.007440,0.503435,0.550649,-0.497453,-0.442583,95.817288,-0.770895,-83.492552
44088,NaN,0.142995,9.811697,-1.000214,0.001497,-0.010611,0.050890,0.004986,0.009802,-0.009167,0.503411,0.550690,-0.497450,-0.442563,95.822097,-0.768619,-83.490136
44089,NaN,0.143328,9.809808,-0.976403,-0.022532,-0.014251,0.046599,0.005529,0.013276,-0.012196,0.503391,0.550745,-0.497430,-0.442539,95.826833,-0.764950,-83.485488
44090,NaN,0.104864,9.822882,-1.047774,0.041278,0.031354,0.066338,0.010353,0.013080,-0.012278,0.503354,0.550814,-0.497421,-0.442505,95.834606,-0.761078,-83.480961
44091,NaN,0.119460,9.798525,-1.002223,-0.000653,0.011049,0.037677,0.006916,0.008700,-0.007657,0.503329,0.550851,-0.497428,-0.442479,95.840175,-0.759731,-83.479185
44092,NaN,0.117365,9.800293,-1.027384,0.022667,0.015437,0.041971,0.010611,0.006737,-0.010981,0.503279,0.550905,-0.497439,-0.442457,95.848120,-0.756164,-83.478105
44093,NaN,0.117625,9.798364,-1.004011,-0.001361,0.011800,0.037676,0.008722,0.007779,-0.010906,0.503239,0.550953,-0.497443,-0.442438,95.854729,-0.752911,-83.476664
44094,NaN,0.095959,9.785295,-1.004652,-0.002868,0.032676,0.024459,0.006209,0.005467,-0.010973,0.503195,0.550989,-0.497452,-0.442433,95.860400,-0.749436,-83.477177
44095,NaN,0.100292,9.822521,-1.051597,0.039485,0.033267,0.066339,0.003355,0.004500,-0.007795,0.503168,0.551009,-0.497462,-0.442428,95.863961,-0.747765,-83.477786
44096,NaN,0.155101,9.826117,-1.029831,0.023385,-0.024005,0.068408,-0.000002,0.005118,-0.007718,0.503150,0.551021,-0.497465,-0.442431,95.865802,-0.746151,-83.478415
44097,NaN,0.093872,9.785267,-1.005117,-0.003902,0.033854,0.024455,-0.003074,0.010434,-0.004253,0.503164,0.551028,-0.497455,-0.442417,95.865638,-0.746846,-83.475850
44098,NaN,0.093780,9.785304,-1.004763,-0.004258,0.034255,0.024453,-0.003998,0.008365,0.000437,0.503183,0.551016,-0.497464,-0.442400,95.865094,-0.750142,-83.475178
44099,NaN,0.113091,9.800178,-1.028960,0.020184,0.018178,0.041972,0.000283,0.009816,-0.004330,0.503186,0.551031,-0.497463,-0.442380,95.866857,-0.750757,-83.472961
44100,NaN,0.115726,9.796478,-0.980506,-0.027581,0.010496,0.033372,0.003461,0.010304,0.005184,0.503201,0.551034,-0.497493,-0.442325,95.870720,-0.756661,-83.470927
44101,NaN,0.157430,9.822460,-0.981019,-0.025760,-0.030097,0.059816,0.004385,0.012372,0.000494,0.503209,0.551052,-0.497508,-0.442275,95.874819,-0.760176,-83.467535
44102,NaN,0.145724,9.841140,-0.955063,-0.055580,-0.021040,0.075583,0.007661,0.011874,-0.002756,0.503198,0.551082,-0.497527,-0.442230,95.880776,-0.762004,-83.465096
44103,NaN,0.123630,9.829894,-0.980050,-0.033299,0.003872,0.066659,0.007823,0.016752,-0.004129,0.503197,0.551131,-0.497526,-0.442171,95.886807,-0.763142,-83.458938
44104,NaN,0.136282,9.809229,-0.983198,-0.027922,-0.008409,0.046592,0.011763,0.019548,-0.005651,0.503185,0.551201,-0.497525,-0.442099,95.895519,-0.763430,-83.451428
44105,NaN,0.144877,9.840886,-0.957805,-0.056669,-0.019873,0.075579,0.010498,0.023942,-0.005436,0.503193,0.551275,-0.497507,-0.442017,95.903027,-0.764248,-83.441094
44106,NaN,0.121339,9.831408,-1.007637,-0.010716,0.009054,0.070958,0.015866,0.027221,-0.008547,0.503184,0.551376,-0.497489,-0.441922,95.913740,-0.763542,-83.429336
44107,NaN,0.122063,9.829441,-0.984779,-0.034747,0.005439,0.066653,0.014438,0.026738,-0.006960,0.503183,0.551471,-0.497469,-0.441827,95.923483,-0.763661,-83.417319
44108,NaN,0.133351,9.810570,-1.012526,-0.005646,-0.002840,0.050894,0.011665,0.030768,-0.008333,0.503197,0.551573,-0.497429,-0.441729,95.931880,-0.763057,-83.402713
44109,NaN,0.105362,9.853404,-1.033814,0.006138,0.026870,0.095324,0.016131,0.025993,-0.014968,0.503173,0.551690,-0.497393,-0.441651,95.942594,-0.758571,-83.390646
44110,NaN,0.139121,9.843908,-1.013133,-0.011087,-0.009893,0.084185,0.013274,0.025027,-0.011793,0.503158,0.551789,-0.497364,-0.441576,95.951925,-0.755828,-83.379699
44111,NaN,0.098174,9.815922,-0.990031,-0.037239,0.027478,0.053416,0.013735,0.023503,-0.010278,0.503145,0.551883,-0.497342,-0.441500,95.961290,-0.753871,-83.369329
44112,NaN,0.150459,9.823097,-1.017879,-0.006030,-0.021744,0.064126,0.013112,0.020150,-0.010419,0.503120,0.551966,-0.497331,-0.441436,95.970616,-0.751735,-83.361673
44113,NaN,0.085329,9.787512,-1.067477,0.037853,0.048128,0.033045,0.009133,0.017412,-0.010487,0.503104,0.552035,-0.497314,-0.441388,95.977390,-0.749299,-83.354761
44114,NaN,0.091016,9.822832,-1.090480,0.056452,0.044670,0.070646,0.007505,0.012111,-0.009108,0.503080,0.552086,-0.497310,-0.441355,95.983468,-0.747235,-83.350965
44115,NaN,0.084128,9.787358,-1.068984,0.037155,0.048889,0.033043,0.007074,0.008464,-0.001313,0.503067,0.552108,-0.497335,-0.441314,95.989136,-0.749493,-83.349701
44116,NaN,0.063351,9.774271,-1.069443,0.035690,0.069735,0.019808,0.003057,0.005784,-0.002967,0.503050,0.552118,-0.497358,-0.441295,95.993022,-0.750514,-83.350340
44117,NaN,0.104395,9.800317,-1.069748,0.037455,0.029150,0.046279,0.002013,0.003895,-0.003036,0.503036,0.552121,-0.497379,-0.441283,95.995823,-0.751517,-83.351577
44118,NaN,0.126014,9.811549,-1.045531,0.014433,0.005052,0.055204,-0.000461,0.001523,-0.001517,0.503024,0.552108,-0.497408,-0.441282,95.997456,-0.753237,-83.354753
44119,NaN,0.114207,9.830333,-1.018901,-0.015385,0.014114,0.070946,-0.002896,-0.000908,0.001589,0.503022,0.552076,-0.497443,-0.441284,95.997484,-0.756588,-83.359003
44120,NaN,0.105610,9.798568,-1.044962,0.012680,0.026308,0.041966,-0.004748,0.000074,0.003246,0.503028,0.552039,-0.497478,-0.441284,95.996665,-0.760872,-83.363005
44121,NaN,0.105788,9.798611,-1.044543,0.012345,0.026701,0.041965,-0.003780,0.002080,0.000142,0.503033,0.552015,-0.497499,-0.441284,95.996164,-0.763577,-83.365466
44122,NaN,0.107256,9.796844,-1.019873,-0.011725,0.023115,0.037649,-0.003404,-0.004437,0.006210,0.503029,0.551960,-0.497561,-0.441288,95.996153,-0.769444,-83.372925
44123,NaN,0.128052,9.809915,-1.019535,-0.011023,0.003024,0.050889,-0.004216,-0.007498,-0.001863,0.503007,0.551919,-0.497600,-0.441321,95.995474,-0.770434,-83.380725
44124,NaN,0.127043,9.811756,-1.043466,0.012345,0.007419,0.055205,-0.003826,-0.002973,0.006280,0.503012,0.551867,-0.497653,-0.441320,95.994936,-0.776397,-83.386757
44125,NaN,0.161027,9.804276,-1.045104,0.018827,-0.025343,0.048398,-0.007298,-0.002181,0.001592,0.503019,0.551822,-0.497681,-0.441337,95.992454,-0.779674,-83.391733
44126,NaN,0.150555,9.821285,-0.993773,-0.034682,-0.020250,0.059814,-0.003742,0.002022,0.001729,0.503026,0.551794,-0.497708,-0.441333,95.991936,-0.783270,-83.394360
44127,NaN,0.150635,9.821324,-0.993383,-0.035021,-0.019853,0.059814,-0.004041,0.008422,-0.001165,0.503045,0.551787,-0.497709,-0.441319,95.991236,-0.785610,-83.393129
44128,NaN,0.104073,9.849439,-0.988883,-0.047986,0.026370,0.086665,0.000821,0.008172,0.000349,0.503050,0.551788,-0.497728,-0.441291,95.993496,-0.788786,-83.392429
44129,NaN,0.129870,9.808302,-0.993266,-0.036754,0.001418,0.046566,0.000930,0.002065,-0.004691,0.503031,0.551788,-0.497747,-0.441291,95.995691,-0.788736,-83.394609
44130,NaN,0.129674,9.808297,-0.993339,-0.037129,0.001813,0.046565,0.000622,0.003354,0.000139,0.503023,0.551777,-0.497779,-0.441278,95.997923,-0.791533,-83.396877
44131,NaN,0.148920,9.823142,-1.017664,-0.012746,-0.014293,0.064133,-0.000798,0.007983,-0.005998,0.503021,0.551789,-0.497775,-0.441270,95.999080,-0.791093,-83.395607
44132,NaN,0.160299,9.804391,-1.044138,0.016339,-0.022635,0.048409,0.001130,0.006884,-0.004482,0.503011,0.551802,-0.497783,-0.441255,96.001709,-0.791284,-83.395067
44133,NaN,0.139218,9.791329,-1.044431,0.014981,-0.001762,0.035160,0.005493,0.008216,-0.006071,0.502991,0.551831,-0.497793,-0.441230,96.006469,-0.790817,-83.393660
44134,NaN,0.125653,9.811861,-1.042645,0.008860,0.011293,0.055205,0.002098,0.008890,-0.007587,0.502980,0.551858,-0.497787,-0.441215,96.009296,-0.789413,-83.391504
44135,NaN,0.104429,9.798799,-1.042918,0.007507,0.032166,0.041954,0.004026,0.007792,-0.006071,0.502964,0.551883,-0.497795,-0.441196,96.013219,-0.788921,-83.390339
44136,NaN,0.136351,9.793046,-1.069776,0.037613,0.003340,0.039487,0.003828,0.002973,-0.006280,0.502932,0.551897,-0.497815,-0.441190,96.017398,-0.787891,-83.392125
44137,NaN,0.136989,9.791216,-1.045779,0.013579,-0.000240,0.035163,0.002821,0.001025,-0.004762,0.502905,0.551900,-0.497840,-0.441189,96.020685,-0.787738,-83.394894
44138,NaN,0.156117,9.806031,-1.070420,0.037933,-0.016352,0.052743,0.003480,0.004320,-0.003036,0.502885,0.551905,-0.497867,-0.441175,96.024423,-0.788804,-83.396531
44139,NaN,0.111321,9.830486,-1.017743,-0.022376,0.021956,0.070919,0.001900,0.004072,-0.007797,0.502862,0.551920,-0.497874,-0.441175,96.027156,-0.787105,-83.397382
44140,NaN,0.131385,9.843533,-1.017800,-0.021768,0.001830,0.084173,-0.000959,0.003105,-0.004622,0.502849,0.551922,-0.497885,-0.441175,96.028652,-0.786936,-83.398616
44141,NaN,0.123244,9.809939,-1.019896,-0.017328,0.010014,0.050876,0.000470,0.003588,-0.006209,0.502831,0.551929,-0.497895,-0.441176,96.030571,-0.786112,-83.399838
44142,NaN,0.122667,9.809957,-1.019794,-0.017646,0.010405,0.050875,-0.002464,0.002739,-0.006208,0.502821,0.551926,-0.497900,-0.441187,96.030710,-0.785205,-83.401474
44143,NaN,0.120921,9.811788,-1.043891,0.005716,0.014763,0.055203,-0.002041,0.001274,-0.006278,0.502804,0.551921,-0.497909,-0.441200,96.031209,-0.784202,-83.404010
44144,NaN,0.107409,9.832373,-1.041531,-0.000404,0.027818,0.075240,-0.002426,0.002680,-0.004622,0.502796,0.551916,-0.497917,-0.441206,96.031497,-0.784046,-83.405469
44145,NaN,0.142931,9.821298,-0.994777,-0.041355,-0.012877,0.059801,-0.002850,0.004144,-0.004552,0.502793,0.551911,-0.497922,-0.441210,96.031510,-0.784199,-83.406474
44146,NaN,0.132461,9.791307,-1.045510,0.010484,0.003241,0.035166,0.002164,-0.002269,-0.006488,0.502754,0.551906,-0.497954,-0.441226,96.034462,-0.783006,-83.411740
44147,NaN,0.134119,9.787693,-0.997063,-0.037250,-0.004281,0.026502,0.001740,-0.000805,-0.006418,0.502721,0.551906,-0.497977,-0.441237,96.037142,-0.781798,-83.415453
44148,NaN,0.125823,9.845448,-1.041567,-0.000771,0.008938,0.088498,0.000893,0.002124,-0.006279,0.502698,0.551911,-0.497992,-0.441241,96.039383,-0.780796,-83.417652
44149,NaN,0.108646,9.780032,-1.070265,0.032172,0.028837,0.026236,0.001665,-0.000687,-0.009593,0.502659,0.551919,-0.498006,-0.441260,96.042017,-0.777786,-83.421106
44150,NaN,0.116569,9.811818,-1.044106,0.003356,0.017509,0.055200,0.004213,0.001569,-0.007937,0.502622,0.551933,-0.498025,-0.441262,96.046031,-0.775890,-83.423552
44151,NaN,0.162305,9.783716,-1.049083,0.015572,-0.027972,0.028399,0.010006,0.003387,-0.011113,0.502567,0.551975,-0.498042,-0.441252,96.053411,-0.772259,-83.424593
44152,NaN,0.149343,9.802412,-1.023321,-0.014288,-0.018843,0.044097,0.004296,0.006563,-0.012491,0.502529,0.552013,-0.498038,-0.441252,96.057739,-0.767972,-83.424129
44153,NaN,0.106952,9.776245,-1.023831,-0.016593,0.022494,0.017564,0.006806,0.008878,-0.012423,0.502494,0.552063,-0.498031,-0.441239,96.063242,-0.763927,-83.421961
44154,NaN,0.167518,9.815395,-1.024487,-0.013985,-0.038526,0.057365,0.006112,0.005640,-0.015736,0.502444,0.552110,-0.498023,-0.441245,96.068395,-0.757797,-83.421657
44155,NaN,0.118196,9.845151,-1.045262,-0.003168,0.011697,0.088494,0.008779,0.012833,-0.017048,0.502403,0.552185,-0.497998,-0.441227,96.074996,-0.751357,-83.416954
44156,NaN,0.095201,9.833790,-1.070432,0.019182,0.036478,0.079563,0.008928,0.012600,-0.010699,0.502373,0.552246,-0.497991,-0.441192,96.081904,-0.748377,-83.412600
44157,NaN,0.140740,9.805717,-1.075422,0.031386,-0.009014,0.052776,0.006501,0.015277,-0.015323,0.502348,0.552316,-0.497959,-0.441169,96.087184,-0.743069,-83.406608
44158,NaN,0.115629,9.843169,-1.023212,-0.027971,0.008924,0.084153,0.007544,0.017167,-0.015255,0.502320,0.552389,-0.497932,-0.441140,96.093373,-0.738026,-83.400499
44159,NaN,0.100279,9.774083,-1.003905,-0.042392,0.020896,0.013215,0.009010,0.017593,-0.015256,0.502294,0.552470,-0.497900,-0.441104,96.100074,-0.732899,-83.393190
44160,NaN,0.158374,9.816825,-1.053429,0.007572,-0.032254,0.061712,0.009361,0.016245,-0.018501,0.502256,0.552559,-0.497863,-0.441078,96.107088,-0.725743,-83.386361
44161,NaN,0.083184,9.796255,-1.027751,-0.025156,0.038317,0.037577,0.006269,0.021559,-0.015053,0.502247,0.552641,-0.497816,-0.441037,96.112192,-0.720975,-83.376804
44162,NaN,0.068858,9.816751,-1.026075,-0.031284,0.051416,0.057599,0.002719,0.017352,-0.015191,0.502238,0.552707,-0.497772,-0.441017,96.115375,-0.715828,-83.369666
44163,NaN,0.087091,9.831592,-1.050760,-0.006951,0.035279,0.075214,0.005071,0.014792,-0.013740,0.502219,0.552768,-0.497743,-0.440995,96.119844,-0.711396,-83.364044
44164,NaN,0.052531,9.838972,-1.049214,-0.014051,0.068845,0.081960,0.006067,0.011633,-0.007527,0.502201,0.552809,-0.497742,-0.440964,96.125038,-0.710259,-83.360852
44165,NaN,0.133190,9.801779,-1.031575,-0.018820,-0.013777,0.044098,0.002870,0.006076,-0.010908,0.502173,0.552838,-0.497738,-0.440964,96.128310,-0.706908,-83.360368
44166,NaN,0.131250,9.803538,-1.056133,0.004583,-0.009451,0.048443,0.002092,0.008889,-0.007597,0.502162,0.552863,-0.497733,-0.440950,96.130891,-0.705597,-83.358400
44167,NaN,0.108955,9.792199,-1.080618,0.026987,0.015336,0.039510,0.001087,0.006940,-0.006078,0.502152,0.552878,-0.497736,-0.440940,96.133139,-0.705051,-83.357719
44168,NaN,0.062799,9.818383,-1.052061,-0.009639,0.057681,0.061926,-0.002461,0.002732,-0.006216,0.502136,0.552876,-0.497745,-0.440951,96.133829,-0.704080,-83.359875
44169,NaN,0.062213,9.818412,-1.051825,-0.009973,0.058074,0.061923,-0.002380,-0.008427,-0.005105,0.502099,0.552846,-0.497781,-0.440990,96.134198,-0.703147,-83.368009
44170,NaN,0.082310,9.831548,-1.051561,-0.009334,0.037978,0.075202,-0.002770,-0.007021,-0.003450,0.502072,0.552817,-0.497814,-0.441020,96.134244,-0.703078,-83.374770
44171,NaN,0.137312,9.835516,-1.028865,-0.025686,-0.019203,0.077397,-0.006282,-0.011288,-0.002000,0.502046,0.552763,-0.497858,-0.441068,96.132401,-0.703739,-83.384724
44172,NaN,0.169270,9.829976,-1.054430,0.004400,-0.048056,0.075011,-0.011062,-0.006055,-0.008079,0.502029,0.552720,-0.497865,-0.441132,96.127796,-0.701354,-83.392035
44173,NaN,0.154190,9.852412,-1.075509,0.021982,-0.031014,0.099379,-0.012374,-0.001605,-0.009462,0.502027,0.552691,-0.497850,-0.441187,96.122388,-0.698357,-83.396016
44174,NaN,0.148896,9.813580,-1.003517,-0.044650,-0.034632,0.053030,-0.010638,0.008633,-0.013814,0.502034,0.552697,-0.497806,-0.441223,96.118009,-0.693610,-83.394513
44175,NaN,0.112651,9.822900,-1.024641,-0.028010,0.002873,0.064111,-0.011941,0.002040,-0.017265,0.502022,0.552696,-0.497761,-0.441287,96.112817,-0.686390,-83.395942
44176,NaN,0.179347,9.806426,-1.003738,-0.038604,-0.067004,0.046301,-0.003179,0.004662,-0.018850,0.501988,0.552723,-0.497730,-0.441329,96.112593,-0.678585,-83.396560
44177,NaN,0.092800,9.757594,-1.051957,0.004697,0.023064,0.001859,-0.007225,0.002032,-0.022097,0.501952,0.552746,-0.497682,-0.441393,96.110101,-0.668613,-83.397699
44178,NaN,0.166910,9.774740,-1.029285,-0.010714,-0.054571,0.017356,-0.000449,0.011742,-0.016987,0.501935,0.552795,-0.497639,-0.441401,96.111263,-0.662126,-83.393586
44179,NaN,0.118502,9.802645,-1.025117,-0.023545,-0.008252,0.044094,0.001132,0.017105,-0.019956,0.501919,0.552867,-0.497578,-0.441398,96.113461,-0.654293,-83.386268
44180,NaN,0.061905,9.798669,-1.047518,-0.007855,0.049670,0.041881,0.001722,0.026393,-0.010016,0.501946,0.552939,-0.497521,-0.441341,96.116122,-0.652491,-83.373908
44181,NaN,0.117543,9.800854,-1.001087,-0.047946,-0.011412,0.039738,0.002539,0.023524,-0.011742,0.501960,0.553008,-0.497470,-0.441296,96.119091,-0.649731,-83.363433
44182,NaN,0.045102,9.822733,-1.094226,0.033113,0.071004,0.070597,-0.003068,0.026514,-0.008366,0.502005,0.553062,-0.497408,-0.441248,96.118796,-0.649029,-83.351412
44183,NaN,0.114159,9.804488,-1.049279,-0.001207,-0.002812,0.048448,-0.004499,0.026027,-0.006780,0.502055,0.553107,-0.497348,-0.441201,96.117720,-0.649248,-83.339815
44184,NaN,0.079013,9.813694,-1.071027,0.015387,0.034691,0.059521,-0.005965,0.025599,-0.006783,0.502104,0.553144,-0.497294,-0.441160,96.116187,-0.649522,-83.329435
44185,NaN,0.078677,9.813758,-1.070466,0.015052,0.035083,0.059520,-0.005077,0.022614,-0.005332,0.502151,0.553176,-0.497246,-0.441120,96.114803,-0.650358,-83.319871
44186,NaN,0.077353,9.815621,-1.094147,0.038412,0.039348,0.063878,-0.007732,0.015417,-0.004022,0.502192,0.553186,-0.497211,-0.441102,96.112014,-0.651330,-83.313934
44187,NaN,0.110935,9.808385,-1.095131,0.044778,0.006540,0.057165,-0.013100,0.012123,-0.000922,0.502245,0.553164,-0.497184,-0.441100,96.106104,-0.654037,-83.310615
44188,NaN,0.080287,9.810500,-1.018784,-0.033350,0.028387,0.050799,-0.014394,0.005530,-0.004375,0.502279,0.553136,-0.497156,-0.441126,96.099434,-0.654142,-83.310120
44189,NaN,0.079036,9.812454,-1.041640,-0.009982,0.032682,0.055157,-0.015514,-0.001357,0.000112,0.502307,0.553076,-0.497160,-0.441165,96.092229,-0.656617,-83.314544
44190,NaN,0.089973,9.795730,-1.090852,0.042883,0.028156,0.043871,-0.015699,-0.006175,-0.000095,0.502323,0.553001,-0.497179,-0.441220,96.084834,-0.658841,-83.322355
44191,NaN,0.092100,9.792284,-1.040684,-0.004857,0.020751,0.035149,-0.015573,-0.017394,0.002598,0.502317,0.552899,-0.497231,-0.441297,96.077702,-0.661760,-83.336067
44192,NaN,0.077900,9.814753,-1.061365,0.012727,0.037776,0.059514,-0.016220,-0.020690,0.000870,0.502300,0.552793,-0.497283,-0.441388,96.070278,-0.663424,-83.351447
44193,NaN,0.086522,9.846755,-1.033191,-0.016175,0.026571,0.088453,-0.018194,-0.024651,0.005491,0.502290,0.552661,-0.497355,-0.441484,96.061696,-0.667555,-83.369468
44194,NaN,0.070520,9.781516,-1.059842,0.016877,0.046274,0.026208,-0.023737,-0.027650,0.000647,0.502273,0.552517,-0.497414,-0.441617,96.050222,-0.668851,-83.389778
44195,NaN,0.099666,9.826709,-1.031038,-0.011117,0.014623,0.068448,-0.022165,-0.027400,0.005412,0.502266,0.552369,-0.497484,-0.441731,96.039385,-0.672778,-83.409360
44196,NaN,0.112048,9.808263,-1.055389,0.017957,0.006121,0.052811,-0.021240,-0.030446,0.008447,0.502253,0.552211,-0.497574,-0.441843,96.029529,-0.678106,-83.431034
44197,NaN,0.140462,9.855286,-1.050767,0.013655,-0.021633,0.099419,-0.027604,-0.030576,0.005330,0.502254,0.552043,-0.497639,-0.441979,96.015600,-0.681804,-83.452419
44198,NaN,0.122275,9.838719,-0.999728,-0.035009,-0.008578,0.077383,-0.023055,-0.024413,0.003958,0.502253,0.551903,-0.497696,-0.442091,96.004333,-0.685015,-83.470317
44199,NaN,0.108082,9.861287,-1.019673,-0.017419,0.008463,0.101748,-0.022515,-0.020938,0.000922,0.502253,0.551780,-0.497736,-0.442199,95.993253,-0.686786,-83.485944
44200,NaN,0.135103,9.818644,-0.997796,-0.029966,-0.020545,0.057384,-0.016297,-0.020568,-0.002318,0.502226,0.551679,-0.497784,-0.442300,95.986066,-0.686743,-83.501833
44201,NaN,0.167164,9.813257,-1.023210,0.000075,-0.049473,0.055062,-0.005031,-0.015619,-0.003823,0.502182,0.551624,-0.497837,-0.442361,95.984965,-0.686133,-83.514145
44202,NaN,0.167392,9.811469,-0.998372,-0.024039,-0.052972,0.050694,-0.006068,-0.012389,-0.011622,0.502125,0.551590,-0.497862,-0.442438,95.983655,-0.681244,-83.524906
44203,NaN,0.158732,9.777901,-1.000152,-0.019497,-0.044889,0.017391,-0.003190,-0.000433,-0.011120,0.502097,0.551591,-0.497861,-0.442472,95.983499,-0.677383,-83.528128
44204,NaN,0.122819,9.787158,-1.021991,-0.002832,-0.007402,0.028448,-0.003895,0.007373,-0.012352,0.502084,0.551607,-0.497838,-0.442490,95.983088,-0.673322,-83.527504
44205,NaN,0.121626,9.787194,-1.021791,-0.003167,-0.007007,0.028448,0.000040,0.010183,-0.013865,0.502067,0.551646,-0.497809,-0.442494,95.984710,-0.668530,-83.524513
44206,NaN,0.134870,9.764853,-0.999722,-0.021465,-0.023280,0.004083,0.001801,0.015248,-0.008885,0.502068,0.551690,-0.497786,-0.442465,95.987519,-0.666750,-83.518888
44207,NaN,0.111433,9.755407,-1.048620,0.024723,0.005310,-0.000484,0.002877,0.017079,-0.007224,0.502075,0.551735,-0.497764,-0.442426,95.990726,-0.666154,-83.512364
44208,NaN,0.039269,9.822299,-1.016031,-0.023295,0.073330,0.061799,0.004452,0.017326,-0.002458,0.502089,0.551773,-0.497757,-0.442370,95.994822,-0.668204,-83.505892
44209,NaN,0.046983,9.855906,-1.014076,-0.028517,0.066051,0.095101,0.001238,0.017690,0.003961,0.502127,0.551787,-0.497762,-0.442304,95.997093,-0.674019,-83.499689
44210,NaN,0.100587,9.863565,-1.040578,0.002351,0.016627,0.106110,0.002056,0.014824,0.002231,0.502150,0.551803,-0.497770,-0.442249,96.000110,-0.678514,-83.495000
44211,NaN,0.137922,9.850626,-0.970028,-0.062447,-0.027800,0.086309,0.004710,0.022023,0.000931,0.502182,0.551843,-0.497763,-0.442170,96.004338,-0.682863,-83.486147
44212,NaN,0.136877,9.852458,-0.994581,-0.039079,-0.023510,0.090684,0.000631,0.019455,-0.003912,0.502207,0.551875,-0.497743,-0.442124,96.006217,-0.684420,-83.479202
44213,NaN,0.134433,9.856156,-1.043374,0.007993,-0.015378,0.099437,0.003100,0.021837,-0.005426,0.502229,0.551926,-0.497715,-0.442066,96.009518,-0.685137,-83.470074
44214,NaN,0.114609,9.841147,-1.019180,-0.016954,0.001577,0.081743,-0.001577,0.026893,-0.006740,0.502273,0.551981,-0.497661,-0.442010,96.010287,-0.685319,-83.458064
44215,NaN,0.132530,9.858044,-1.067492,0.030992,-0.010741,0.103817,-0.002651,0.025061,-0.008402,0.502312,0.552033,-0.497604,-0.441965,96.010269,-0.684534,-83.446920
44216,NaN,0.105052,9.809435,-1.045166,0.010994,0.013920,0.052814,-0.003506,0.027988,-0.008263,0.502361,0.552085,-0.497541,-0.441916,96.009648,-0.684125,-83.434708
44217,NaN,0.116439,9.790854,-1.071299,0.040138,0.005397,0.037207,-0.002538,0.030001,-0.011368,0.502406,0.552155,-0.497463,-0.441864,96.009660,-0.681946,-83.420572
44218,NaN,0.103796,9.809523,-1.044464,0.010301,0.014692,0.052813,-0.004510,0.026035,-0.006751,0.502456,0.552200,-0.497404,-0.441817,96.008713,-0.682081,-83.408988
44219,NaN,0.081830,9.798307,-1.068114,0.032807,0.039385,0.043871,-0.010950,0.020903,-0.005320,0.502515,0.552214,-0.497348,-0.441796,96.003971,-0.682802,-83.400399
44220,NaN,0.075229,9.762926,-1.044947,0.013610,0.043546,0.006183,-0.011247,0.011144,-0.002569,0.502553,0.552199,-0.497325,-0.441797,95.999538,-0.684368,-83.397849
44221,NaN,0.109853,9.753849,-1.021717,-0.003794,0.006860,-0.004859,-0.007609,0.004197,-0.001325,0.502570,0.552175,-0.497329,-0.441804,95.996827,-0.686364,-83.399019
44222,NaN,0.121839,9.735318,-1.047428,0.025302,-0.001681,-0.020459,-0.007609,0.004197,-0.001326,0.502583,0.552148,-0.497337,-0.441813,95.994403,-0.688373,-83.400831
44223,NaN,0.141269,9.750458,-1.070643,0.049532,-0.017877,-0.002749,-0.012434,0.004373,-0.001268,0.502614,0.552112,-0.497330,-0.441831,95.988926,-0.690413,-83.401904
44224,NaN,0.103445,9.765381,-1.164746,0.137434,0.031170,0.021444,-0.011179,0.011023,0.000607,0.502662,0.552084,-0.497316,-0.441826,95.983869,-0.694057,-83.399748
44225,NaN,0.086956,9.836370,-1.108289,0.073225,0.041779,0.085945,-0.014356,0.016446,0.000882,0.502733,0.552064,-0.497280,-0.441811,95.977209,-0.698042,-83.394069
44226,NaN,0.057621,9.927878,-1.049108,0.003232,0.065168,0.170421,-0.022536,0.028205,0.004672,0.502865,0.552042,-0.497206,-0.441773,95.965845,-0.704759,-83.381659
44227,NaN,0.127940,9.909780,-1.001570,-0.031272,-0.008581,0.148347,-0.035330,0.033919,0.006644,0.503050,0.551993,-0.497096,-0.441747,95.947047,-0.713065,-83.366363
44228,NaN,0.219735,9.902973,-0.928934,-0.088619,-0.106570,0.135220,-0.033878,0.050512,0.001006,0.503258,0.551994,-0.496935,-0.441689,95.928786,-0.719337,-83.342052
44229,NaN,0.234802,9.836262,-1.029885,0.022330,-0.108730,0.079508,-0.022807,0.066816,-0.006328,0.503462,0.552082,-0.496734,-0.441573,95.916915,-0.722186,-83.307234
44230,NaN,0.307241,9.859255,-1.078605,0.077652,-0.174788,0.108307,-0.002618,0.111559,-0.020422,0.503688,0.552357,-0.496426,-0.441318,95.916619,-0.719453,-83.245881
44231,NaN,0.490355,9.881957,-0.717182,-0.260859,-0.400657,0.095859,0.027178,0.183157,-0.038184,0.503972,0.552906,-0.495953,-0.440838,95.932540,-0.711029,-83.142873
44232,NaN,0.741687,9.931529,-0.456456,-0.496283,-0.685207,0.120989,0.060604,0.252998,-0.064058,0.504277,0.553754,-0.495310,-0.440148,95.967147,-0.692114,-82.999067
44233,NaN,0.636617,9.906948,-0.557630,-0.410968,-0.574891,0.105198,0.074947,0.317313,-0.091711,0.504641,0.554850,-0.494455,-0.439311,96.009565,-0.661322,-82.816398
44234,NaN,0.432207,9.765601,-0.715292,-0.271771,-0.359916,-0.021773,0.088821,0.361803,-0.105981,0.505040,0.556111,-0.493481,-0.438351,96.060086,-0.625221,-82.607996
44235,NaN,0.144779,9.665633,-0.967865,-0.056630,-0.050356,-0.097934,0.102305,0.380619,-0.118207,0.505423,0.557476,-0.492449,-0.437335,96.118012,-0.583502,-82.387597
44236,NaN,-0.086242,9.696172,-0.994793,-0.073786,0.173687,-0.067064,0.116028,0.355672,-0.109935,0.505719,0.558798,-0.491536,-0.436332,96.184465,-0.545199,-82.182397
44237,NaN,-0.286828,9.733236,-1.219376,0.105410,0.395173,-0.007702,0.103805,0.305446,-0.099393,0.505951,0.559952,-0.490747,-0.435471,96.243950,-0.510016,-82.005897
44238,NaN,-0.306097,9.753908,-1.252404,0.123051,0.412216,0.016649,0.092948,0.250663,-0.084160,0.506108,0.560916,-0.490119,-0.434754,96.297487,-0.480443,-81.862393
44239,NaN,-0.195414,9.800644,-1.283627,0.156354,0.301460,0.067757,0.064309,0.212871,-0.068244,0.506290,0.561691,-0.489563,-0.434168,96.334970,-0.457477,-81.740518
44240,NaN,-0.171756,9.759105,-1.292351,0.167599,0.276291,0.027809,0.039830,0.182435,-0.045637,0.506511,0.562273,-0.489102,-0.433676,96.358412,-0.445921,-81.638775
44241,NaN,-0.252305,9.781096,-1.121944,-0.017643,0.329152,0.030259,0.024922,0.135989,-0.029934,0.506697,0.562687,-0.488763,-0.433305,96.373741,-0.439992,-81.563094
44242,NaN,-0.092659,9.624288,-1.135819,0.035601,0.173475,-0.122784,-0.006736,0.081784,-0.025721,0.506843,0.562882,-0.488515,-0.433159,96.371162,-0.433462,-81.520419
44243,NaN,-0.175313,9.658707,-1.132233,0.016325,0.253131,-0.089573,-0.001397,0.021084,-0.021544,0.506841,0.562959,-0.488433,-0.433155,96.371924,-0.425011,-81.510702
44244,NaN,-0.134128,9.857671,-1.069055,-0.061173,0.200200,0.101481,-0.012978,-0.041765,-0.009564,0.506736,0.562834,-0.488530,-0.433330,96.366624,-0.419708,-81.539306
44245,NaN,-0.116169,9.785059,-1.097520,-0.021310,0.186398,0.032628,-0.012438,-0.086335,-0.006422,0.506535,0.562613,-0.488739,-0.433617,96.361513,-0.413045,-81.591720
44246,NaN,-0.077983,9.818830,-1.191706,0.074815,0.161299,0.076905,-0.022542,-0.116630,-0.001229,0.506292,0.562276,-0.489031,-0.434008,96.350722,-0.408033,-81.664176
44247,NaN,-0.086429,9.880151,-1.282303,0.158591,0.182144,0.147776,-0.034459,-0.130318,0.014123,0.506089,0.561853,-0.489361,-0.434419,96.333176,-0.410306,-81.742940
44248,NaN,-0.038792,9.851572,-1.256504,0.146838,0.132683,0.116794,-0.045958,-0.129266,0.022060,0.505933,0.561378,-0.489695,-0.434840,96.309336,-0.417479,-81.823098
44249,NaN,-0.038210,9.853962,-1.275815,0.170209,0.136871,0.121195,-0.055261,-0.135579,0.031321,0.505812,0.560849,-0.490041,-0.435273,96.279921,-0.429281,-81.905938
44250,NaN,-0.110917,9.835100,-1.269933,0.161643,0.211380,0.101112,-0.065705,-0.148780,0.045090,0.505713,0.560224,-0.490445,-0.435738,96.244862,-0.448433,-81.998599
44251,NaN,-0.127313,9.819162,-1.214758,0.113089,0.224560,0.078954,-0.074546,-0.172706,0.060024,0.505617,0.559494,-0.490922,-0.436249,96.204637,-0.474379,-82.104355
44252,NaN,-0.123663,9.820233,-1.206446,0.112656,0.224992,0.078949,-0.089974,-0.201206,0.060405,0.505484,0.558651,-0.491455,-0.436883,96.156361,-0.499292,-82.228929
44253,NaN,-0.058285,9.769943,-1.153110,0.083004,0.158868,0.023608,-0.100469,-0.230274,0.071885,0.505344,0.557699,-0.492053,-0.437588,96.101681,-0.528650,-82.368166
44254,NaN,-0.024990,9.814415,-1.091621,0.031016,0.123653,0.061457,-0.100378,-0.257472,0.075433,0.505137,0.556672,-0.492739,-0.438363,96.047632,-0.558792,-82.524667
44255,NaN,0.042302,9.851597,-1.031612,-0.014355,0.055164,0.092701,-0.101926,-0.273824,0.074620,0.504897,0.555612,-0.493449,-0.439184,95.992511,-0.587356,-82.688830
44256,NaN,0.202002,9.837225,-1.027646,0.012186,-0.097880,0.079639,-0.101437,-0.270223,0.068271,0.504642,0.554574,-0.494142,-0.440010,95.938563,-0.612673,-82.851705
44257,NaN,0.340735,9.809396,-1.025017,0.038062,-0.230486,0.053236,-0.099238,-0.245451,0.062858,0.504437,0.553610,-0.494751,-0.440773,95.884945,-0.636519,-82.998950
44258,NaN,0.338423,9.772615,-0.970354,-0.004869,-0.230135,0.011117,-0.089041,-0.210093,0.051551,0.504259,0.552777,-0.495268,-0.441441,95.837771,-0.656001,-83.126041
44259,NaN,0.290220,9.851033,-0.905892,-0.075704,-0.186018,0.082129,-0.073096,-0.177953,0.043290,0.504104,0.552074,-0.495710,-0.442002,95.798774,-0.672854,-83.233635
44260,NaN,0.306694,9.829119,-0.877499,-0.094149,-0.202289,0.057767,-0.063292,-0.141191,0.033723,0.503984,0.551503,-0.496059,-0.442459,95.766046,-0.686269,-83.320266
44261,NaN,0.243316,9.839997,-0.819732,-0.155016,-0.142970,0.062141,-0.051788,-0.115420,0.031622,0.503899,0.551020,-0.496357,-0.442822,95.738872,-0.700184,-83.391520
44262,NaN,0.190865,9.834326,-0.814041,-0.162798,-0.088893,0.055375,-0.034040,-0.100228,0.022618,0.503775,0.550635,-0.496640,-0.443125,95.722384,-0.709894,-83.454891
44263,NaN,0.258262,9.822006,-0.840172,-0.126343,-0.151202,0.046601,-0.014400,-0.086068,0.013554,0.503620,0.550356,-0.496897,-0.443360,95.716435,-0.715226,-83.508371
44264,NaN,0.281737,9.787166,-0.917462,-0.044149,-0.165150,0.019937,0.007492,-0.063305,0.004879,0.503436,0.550208,-0.497124,-0.443499,95.723602,-0.716694,-83.548516
44265,NaN,0.303778,9.796226,-0.869997,-0.091142,-0.192745,0.024475,0.017484,-0.032689,-0.008088,0.503278,0.550181,-0.497258,-0.443562,95.735529,-0.712731,-83.570326
44266,NaN,0.178747,9.808587,-0.915293,-0.064529,-0.064602,0.039711,0.035294,-0.017629,-0.013912,0.503091,0.550248,-0.497380,-0.443554,95.757995,-0.706244,-83.583589
44267,NaN,0.290696,9.857843,-0.968641,-0.007827,-0.171557,0.095408,0.034371,0.001539,-0.020956,0.502942,0.550371,-0.497430,-0.443513,95.779344,-0.696902,-83.585142
44268,NaN,0.312452,9.820665,-1.025267,0.050697,-0.189254,0.064350,0.038096,0.031827,-0.032302,0.502827,0.550596,-0.497388,-0.443411,95.803040,-0.682978,-83.569922
44269,NaN,0.239957,9.838741,-1.073822,0.084708,-0.114779,0.086360,0.046317,0.063212,-0.038874,0.502760,0.550931,-0.497260,-0.443216,95.830807,-0.667003,-83.535269
44270,NaN,0.240797,9.830451,-0.981269,-0.010592,-0.129520,0.068696,0.052924,0.089284,-0.044103,0.502720,0.551351,-0.497073,-0.442948,95.862823,-0.649591,-83.486453
44271,NaN,0.274831,9.815008,-0.891370,-0.099256,-0.177498,0.044447,0.061817,0.112925,-0.051073,0.502705,0.551865,-0.496820,-0.442608,95.899168,-0.629621,-83.422732
44272,NaN,0.289910,9.829734,-0.921733,-0.075200,-0.193758,0.062236,0.073109,0.139082,-0.062745,0.502696,0.552497,-0.496495,-0.442195,95.942256,-0.604493,-83.343371
44273,NaN,0.223687,9.879147,-0.946675,-0.069888,-0.130628,0.113128,0.072340,0.163055,-0.069665,0.502736,0.553194,-0.496088,-0.441736,95.984378,-0.577003,-83.249947
44274,NaN,0.067478,9.843636,-0.999153,-0.038962,0.025521,0.081648,0.062970,0.167952,-0.063062,0.502821,0.553857,-0.495673,-0.441273,96.021580,-0.553781,-83.155265
44275,NaN,0.020496,9.820265,-1.054292,0.006615,0.074293,0.063749,0.058654,0.166466,-0.058373,0.502931,0.554498,-0.495257,-0.440810,96.055926,-0.533054,-83.060542
44276,NaN,-0.037279,9.772511,-1.232840,0.175723,0.149464,0.034649,0.048717,0.157028,-0.055589,0.503048,0.555087,-0.494852,-0.440390,96.084939,-0.513335,-82.971558
44277,NaN,-0.087081,9.799365,-1.234003,0.163116,0.195958,0.061162,0.047646,0.160866,-0.041126,0.503212,0.555644,-0.494473,-0.439926,96.113074,-0.502193,-82.881055
44278,NaN,-0.006784,9.799853,-0.996315,-0.066407,0.084545,0.037097,0.048280,0.148063,-0.035343,0.503349,0.556159,-0.494148,-0.439481,96.142181,-0.493603,-82.798926
44279,NaN,0.061306,9.869414,-0.948277,-0.116936,0.008609,0.101675,0.036744,0.133307,-0.031176,0.503496,0.556604,-0.493842,-0.439095,96.164237,-0.486522,-82.724723
44280,NaN,0.051551,9.837275,-0.977809,-0.088606,0.020356,0.072781,0.022946,0.126097,-0.033055,0.503654,0.556998,-0.493525,-0.438770,96.178756,-0.478127,-82.655621
44281,NaN,-0.068151,9.887649,-1.095571,0.004335,0.152230,0.134540,0.024013,0.111836,-0.027299,0.503792,0.557353,-0.493255,-0.438464,96.193641,-0.471971,-82.593886
44282,NaN,-0.171297,9.908536,-1.093086,-0.015592,0.252453,0.154222,0.009267,0.075707,-0.030366,0.503868,0.557594,-0.493045,-0.438307,96.200715,-0.462080,-82.553959
44283,NaN,-0.085510,9.818147,-1.078113,-0.010081,0.164384,0.063472,0.000092,0.042364,-0.022165,0.503912,0.557724,-0.492911,-0.438241,96.202231,-0.454566,-82.532113
44284,NaN,0.005028,9.768875,-1.157145,0.085184,0.083859,0.023757,-0.009321,0.020474,-0.023050,0.503918,0.557774,-0.492825,-0.438268,96.198818,-0.445625,-82.524949
44285,NaN,0.028678,9.731911,-1.208548,0.143800,0.066034,-0.007257,-0.010741,0.003883,-0.017355,0.503908,0.557780,-0.492778,-0.438324,96.194305,-0.438469,-82.525322
44286,NaN,0.035948,9.760327,-1.131871,0.067242,0.047626,0.012770,-0.016297,-0.004200,-0.016087,0.503891,0.557746,-0.492751,-0.438416,96.186952,-0.431772,-82.531657
44287,NaN,0.048643,9.738364,-1.107566,0.048954,0.031390,-0.011594,-0.021181,-0.009164,-0.008317,0.503898,0.557675,-0.492740,-0.438512,96.176518,-0.428959,-82.540021
44288,NaN,-0.025483,9.715243,-1.056188,-0.006843,0.098357,-0.040665,-0.026396,-0.023707,-0.002537,0.503891,0.557544,-0.492776,-0.438647,96.163656,-0.428635,-82.557824
44289,NaN,-0.038129,9.732214,-1.002906,-0.060361,0.104104,-0.029600,-0.029628,-0.050255,-0.000448,0.503837,0.557342,-0.492871,-0.438858,96.148561,-0.427783,-82.590082
44290,NaN,-0.060820,9.724655,-1.073799,0.009625,0.136183,-0.029691,-0.023145,-0.077290,0.006377,0.503705,0.557073,-0.493081,-0.439116,96.137874,-0.429439,-82.640108
44291,NaN,-0.021769,9.757204,-1.143301,0.081884,0.107000,0.010372,-0.028752,-0.090495,0.015385,0.503584,0.556746,-0.493323,-0.439396,96.123463,-0.435160,-82.696260
44292,NaN,-0.019554,9.753822,-1.091798,0.034072,0.099948,0.001501,-0.028937,-0.100496,0.024511,0.503452,0.556365,-0.493628,-0.439688,96.109285,-0.445872,-82.760585
44293,NaN,0.017392,9.833055,-1.059225,0.000663,0.061115,0.077079,-0.033241,-0.102046,0.030813,0.503349,0.555963,-0.493933,-0.439973,96.092381,-0.459708,-82.824255
44294,NaN,0.061669,9.856344,-1.006359,-0.045726,0.013253,0.094977,-0.035736,-0.104378,0.030703,0.503240,0.555544,-0.494246,-0.440274,96.074388,-0.473638,-82.890677
44295,NaN,0.042562,9.845242,-1.027554,-0.023066,0.037794,0.086025,-0.037314,-0.109755,0.033643,0.503135,0.555107,-0.494569,-0.440583,96.055221,-0.488660,-82.958903
44296,NaN,0.003976,9.818953,-1.024735,-0.024937,0.079001,0.059246,-0.036399,-0.112802,0.036671,0.503019,0.554654,-0.494918,-0.440893,96.037246,-0.505356,-83.030414
44297,NaN,0.004610,9.823111,-1.069975,0.022158,0.086872,0.068119,-0.033253,-0.118089,0.033215,0.502880,0.554210,-0.495269,-0.441216,96.020486,-0.519676,-83.103354
44298,NaN,0.095467,9.820737,-1.045451,0.011703,-0.003419,0.063993,-0.033827,-0.121509,0.034636,0.502733,0.553749,-0.495637,-0.441548,96.003722,-0.534750,-83.179325
44299,NaN,0.146487,9.879445,-1.014764,-0.015988,-0.055089,0.119651,-0.036053,-0.114077,0.031769,0.502609,0.553309,-0.495967,-0.441870,95.985371,-0.548530,-83.249884
44300,NaN,0.087969,9.837932,-0.988059,-0.042214,0.002775,0.075038,-0.033994,-0.110286,0.031904,0.502485,0.552882,-0.496296,-0.442177,95.968509,-0.562645,-83.318752
44301,NaN,0.205258,9.884306,-0.985600,-0.033279,-0.111713,0.122072,-0.031945,-0.101299,0.022718,0.502361,0.552503,-0.496578,-0.442475,95.952467,-0.572068,-83.381482
44302,NaN,0.084860,9.892602,-0.977204,-0.053774,0.008929,0.128274,-0.033807,-0.084291,0.021896,0.502278,0.552159,-0.496814,-0.442734,95.935674,-0.582063,-83.434963
44303,NaN,0.180817,9.835976,-0.957640,-0.053396,-0.086731,0.070926,-0.035525,-0.073308,0.014435,0.502215,0.551853,-0.496994,-0.442985,95.917433,-0.588459,-83.481246
44304,NaN,0.168173,9.856662,-0.952319,-0.059611,-0.073419,0.090849,-0.031028,-0.067062,0.011492,0.502138,0.551573,-0.497173,-0.443219,95.902364,-0.593783,-83.525732
44305,NaN,0.125606,9.834321,-0.998464,-0.013912,-0.024767,0.072947,-0.031356,-0.060654,0.008598,0.502081,0.551320,-0.497315,-0.443440,95.886441,-0.597623,-83.564456
44306,NaN,0.159432,9.827505,-0.997474,-0.007888,-0.057677,0.066424,-0.030390,-0.058631,0.005491,0.502015,0.551083,-0.497448,-0.443660,95.871580,-0.599741,-83.602316
44307,NaN,0.164383,9.775702,-1.023730,0.026312,-0.058934,0.017635,-0.026555,-0.044707,0.004510,0.501976,0.550887,-0.497549,-0.443834,95.858314,-0.602205,-83.631709
44308,NaN,0.138801,9.814725,-0.992822,-0.009363,-0.036490,0.053030,-0.018697,-0.039055,0.001517,0.501915,0.550729,-0.497652,-0.443983,95.850134,-0.603326,-83.658771
44309,NaN,0.132396,9.779235,-0.969307,-0.028346,-0.032305,0.015266,-0.016030,-0.031909,0.001827,0.501873,0.550595,-0.497737,-0.444102,95.842821,-0.605017,-83.680712
44310,NaN,0.180307,9.839579,-0.965190,-0.032533,-0.080212,0.075383,-0.010103,-0.025163,-0.002689,0.501811,0.550500,-0.497815,-0.444202,95.839719,-0.604579,-83.700011
44311,NaN,0.220498,9.776486,-0.946914,-0.039319,-0.122206,0.011185,-0.004836,-0.010740,-0.005242,0.501774,0.550458,-0.497852,-0.444254,95.838689,-0.603478,-83.709474
44312,NaN,0.215708,9.826569,-0.893595,-0.098053,-0.123909,0.055521,0.004722,0.005178,-0.012543,0.501730,0.550500,-0.497851,-0.444253,95.843820,-0.598859,-83.709360
44313,NaN,0.213294,9.828532,-0.918601,-0.074680,-0.119790,0.059973,0.010088,0.024549,-0.018049,0.501712,0.550606,-0.497798,-0.444202,95.851123,-0.592516,-83.697960
44314,NaN,0.211534,9.828417,-0.920232,-0.075081,-0.119358,0.059976,0.024505,0.040242,-0.023816,0.501676,0.550794,-0.497728,-0.444089,95.866900,-0.584005,-83.678371
44315,NaN,0.167524,9.803653,-0.947245,-0.053058,-0.074455,0.037622,0.023476,0.054393,-0.026332,0.501676,0.551020,-0.497606,-0.443944,95.881700,-0.574697,-83.649473
44316,NaN,0.197931,9.798327,-0.976224,-0.023372,-0.103659,0.035567,0.033329,0.063967,-0.032350,0.501654,0.551308,-0.497471,-0.443762,95.902802,-0.562479,-83.615481
44317,NaN,0.161431,9.805139,-0.977436,-0.030141,-0.069968,0.042077,0.034128,0.077219,-0.038123,0.501656,0.551642,-0.497283,-0.443557,95.923585,-0.547818,-83.572871
44318,NaN,0.179765,9.816198,-0.956313,-0.053582,-0.093640,0.051031,0.038918,0.093169,-0.042219,0.501671,0.552028,-0.497061,-0.443308,95.947325,-0.531981,-83.521982
44319,NaN,0.167328,9.786085,-1.011308,-0.001402,-0.078340,0.026625,0.044873,0.099853,-0.045164,0.501683,0.552456,-0.496820,-0.443030,95.974167,-0.514690,-83.466043
44320,NaN,0.109745,9.779397,-1.014051,-0.008917,-0.024258,0.019722,0.046791,0.114806,-0.046113,0.501720,0.552922,-0.496550,-0.442711,96.002563,-0.497838,-83.402443
44321,NaN,0.079646,9.819675,-1.014389,-0.020765,0.001946,0.059542,0.048787,0.118725,-0.049164,0.501759,0.553411,-0.496259,-0.442381,96.031587,-0.479456,-83.335493
44322,NaN,0.000840,9.801449,-1.042104,-0.005234,0.080080,0.043678,0.045101,0.120524,-0.042713,0.501822,0.553880,-0.495977,-0.442039,96.059183,-0.464726,-83.268220
44323,NaN,0.077943,9.768568,-1.076257,0.036737,0.004671,0.015230,0.043344,0.110388,-0.041584,0.501872,0.554318,-0.495715,-0.441727,96.085167,-0.450222,-83.206462
44324,NaN,0.001337,9.836158,-1.072398,0.012658,0.077064,0.081449,0.038541,0.110478,-0.039984,0.501937,0.554741,-0.495449,-0.441421,96.108804,-0.436597,-83.144823
44325,NaN,0.040257,9.770976,-1.033464,-0.017843,0.031336,0.012807,0.036503,0.090642,-0.037671,0.501966,0.555108,-0.495232,-0.441170,96.130984,-0.423167,-83.094542
44326,NaN,0.055767,9.789644,-1.109368,0.053548,0.022398,0.039600,0.031725,0.090670,-0.034477,0.502011,0.555456,-0.495017,-0.440922,96.150922,-0.411489,-83.044711
44327,NaN,0.007170,9.814726,-1.084419,0.017333,0.065304,0.061536,0.029154,0.083332,-0.030014,0.502058,0.555769,-0.494823,-0.440691,96.168944,-0.402007,-82.999056
44328,NaN,-0.028592,9.821383,-1.085354,0.010545,0.099030,0.068024,0.021578,0.071386,-0.027319,0.502098,0.556024,-0.494659,-0.440508,96.182954,-0.393575,-82.961695
44329,NaN,-0.031909,9.824867,-1.136015,0.057648,0.106802,0.076945,0.018678,0.054472,-0.024849,0.502115,0.556234,-0.494530,-0.440369,96.195102,-0.385275,-82.932794
44330,NaN,-0.006554,9.784044,-1.141421,0.068767,0.081371,0.037138,0.012224,0.044181,-0.015704,0.502140,0.556380,-0.494443,-0.440254,96.203930,-0.381674,-82.911113
44331,NaN,-0.020561,9.802400,-1.116117,0.038964,0.090985,0.052575,0.007335,0.028530,-0.019542,0.502135,0.556492,-0.494368,-0.440202,96.209685,-0.374800,-82.897316
44332,NaN,-0.021319,9.800474,-1.092445,0.014810,0.087672,0.048108,0.006077,0.016813,-0.015251,0.502109,0.556563,-0.494337,-0.440176,96.215382,-0.369640,-82.891168
44333,NaN,0.031550,9.806962,-1.093717,0.021513,0.034371,0.055042,-0.001516,0.004924,-0.014137,0.502083,0.556587,-0.494317,-0.440198,96.216156,-0.364382,-82.891151
44334,NaN,-0.016169,9.832354,-1.065728,-0.014738,0.077341,0.076955,-0.003522,0.001006,-0.011108,0.502053,0.556583,-0.494321,-0.440233,96.216074,-0.360871,-82.895135
44335,NaN,-0.004275,9.813941,-1.091515,0.014400,0.068493,0.061519,-0.006069,-0.006391,-0.005035,0.502031,0.556548,-0.494345,-0.440275,96.214284,-0.360095,-82.902128
44336,NaN,-0.004106,9.812165,-1.066507,-0.009779,0.065209,0.057049,-0.007659,-0.011709,-0.003661,0.501996,0.556491,-0.494392,-0.440335,96.212341,-0.359902,-82.913619
44337,NaN,0.036384,9.839096,-1.064806,-0.008849,0.024832,0.083891,-0.009203,-0.017148,0.000896,0.501969,0.556409,-0.494453,-0.440400,96.208797,-0.361839,-82.927107
44338,NaN,0.051100,9.815183,-1.017102,-0.050993,0.004924,0.055053,-0.010666,-0.017586,0.000881,0.501939,0.556323,-0.494518,-0.440471,96.205144,-0.363704,-82.941784
44339,NaN,0.064229,9.794975,-1.018067,-0.045577,-0.007608,0.035154,-0.009399,-0.021846,-0.002493,0.501894,0.556239,-0.494580,-0.440558,96.201503,-0.363421,-82.957738
44340,NaN,0.029584,9.803823,-1.039939,-0.028599,0.029776,0.046095,-0.010182,-0.019168,0.004000,0.501870,0.556142,-0.494655,-0.440624,96.197540,-0.367068,-82.973069
44341,NaN,0.062712,9.798876,-1.065013,0.001161,0.000529,0.044095,-0.005840,-0.017732,0.000858,0.501833,0.556067,-0.494724,-0.440682,96.195926,-0.368951,-82.986887
44342,NaN,0.063322,9.797091,-1.039977,-0.022919,-0.002756,0.039623,-0.008766,-0.018608,0.000830,0.501800,0.555985,-0.494790,-0.440750,96.192789,-0.370755,-83.001301
44343,NaN,0.056311,9.763429,-1.041722,-0.018125,0.005086,0.006302,-0.004353,-0.017354,0.002462,0.501763,0.555911,-0.494866,-0.440800,96.192027,-0.373575,-83.015004
44344,NaN,0.062711,9.799051,-1.063406,0.000064,0.001725,0.044095,-0.001404,-0.016539,0.004081,0.501717,0.555836,-0.494961,-0.440840,96.193289,-0.377583,-83.030012
44345,NaN,0.062875,9.799051,-1.063399,-0.000273,0.002116,0.044095,0.001061,-0.014141,0.002580,0.501673,0.555783,-0.495041,-0.440867,96.195619,-0.380669,-83.041893
44346,NaN,0.070265,9.832778,-1.061009,-0.005829,-0.004963,0.077416,-0.001493,-0.005562,0.007739,0.501664,0.555730,-0.495112,-0.440864,96.196951,-0.387142,-83.049631
44347,NaN,0.011162,9.788800,-1.013552,-0.055444,0.049239,0.028172,0.000821,-0.007984,0.006033,0.501644,0.555682,-0.495185,-0.440866,96.199124,-0.392574,-83.058217
44348,NaN,0.051723,9.817484,-1.037145,-0.030907,0.012545,0.059507,0.000821,-0.007984,0.006032,0.501619,0.555630,-0.495266,-0.440869,96.201704,-0.398095,-83.067743
44349,NaN,0.085840,9.810533,-1.039160,-0.024884,-0.020377,0.053049,0.008375,-0.011952,0.002646,0.501560,0.555600,-0.495356,-0.440872,96.208221,-0.401352,-83.078381
44350,NaN,0.086898,9.808577,-1.015690,-0.049009,-0.023661,0.048570,0.009012,-0.008715,0.005970,0.501512,0.555572,-0.495452,-0.440855,96.215491,-0.406645,-83.087650
44351,NaN,0.039417,9.837560,-1.037392,-0.037735,0.026648,0.079390,0.009138,-0.003835,0.004584,0.501476,0.555556,-0.495530,-0.440828,96.222415,-0.411507,-83.093786
44352,NaN,0.087763,9.808383,-1.017485,-0.049750,-0.022850,0.048568,0.009138,-0.003835,0.004584,0.501433,0.555537,-0.495616,-0.440805,96.229693,-0.416543,-83.101215
44353,NaN,0.040938,9.835494,-1.015032,-0.062190,0.023806,0.074904,0.012628,0.000460,0.003159,0.501395,0.555543,-0.495686,-0.440761,96.238599,-0.420858,-83.104817
44354,NaN,0.074318,9.830320,-1.042052,-0.032568,-0.005465,0.072933,0.010290,0.002944,0.003274,0.501362,0.555547,-0.495753,-0.440717,96.246792,-0.425472,-83.108037
44355,NaN,0.101079,9.789555,-1.047179,-0.021406,-0.030962,0.033163,0.014558,0.004559,-0.004646,0.501312,0.555587,-0.495796,-0.440677,96.256784,-0.425597,-83.108819
44356,NaN,0.120680,9.804668,-1.072454,0.002507,-0.047298,0.051084,0.012906,0.010160,0.001975,0.501289,0.555617,-0.495845,-0.440610,96.266173,-0.429875,-83.107663
44357,NaN,0.127797,9.748616,-1.053899,-0.010646,-0.056077,-0.006603,0.017914,0.019952,-0.005601,0.501265,0.555701,-0.495854,-0.440521,96.278021,-0.430420,-83.099619
44358,NaN,0.079716,9.777492,-1.076503,0.000572,-0.005757,0.024209,0.018550,0.023191,-0.002279,0.501248,0.555782,-0.495873,-0.440416,96.290630,-0.433189,-83.091112
44359,NaN,0.033282,9.802677,-1.050572,-0.035573,0.037260,0.046047,0.020013,0.023629,-0.002268,0.501235,0.555872,-0.495887,-0.440303,96.303666,-0.435867,-83.081184
44360,NaN,0.006586,9.843103,-1.048686,-0.047419,0.063534,0.085806,0.020196,0.012410,0.000448,0.501199,0.555933,-0.495935,-0.440213,96.316942,-0.439277,-83.077544
44361,NaN,0.018709,9.826209,-1.101357,0.005436,0.058260,0.074895,0.022096,0.011388,0.000397,0.501155,0.555994,-0.495991,-0.440122,96.331226,-0.442704,-83.074756
44362,NaN,0.087139,9.810349,-1.082068,-0.006084,-0.011677,0.057532,0.019019,0.005692,0.000170,0.501098,0.556036,-0.496060,-0.440055,96.344554,-0.445524,-83.075862
44363,NaN,0.114246,9.857288,-1.081245,-0.011009,-0.039074,0.104299,0.019490,0.009348,-0.007652,0.501039,0.556107,-0.496093,-0.439997,96.357350,-0.444240,-83.073728
44364,NaN,0.153481,9.797953,-1.113028,0.029581,-0.073906,0.049155,0.016083,0.020795,-0.000788,0.501029,0.556174,-0.496113,-0.439900,96.368344,-0.447651,-83.066137
44365,NaN,0.085647,9.811579,-1.111667,0.016586,-0.006865,0.062023,0.017868,0.020068,-0.008796,0.500998,0.556267,-0.496113,-0.439818,96.380162,-0.446398,-83.057825
44366,NaN,0.045032,9.782769,-1.089736,-0.008707,0.030622,0.030641,0.015115,0.023952,-0.007033,0.500984,0.556355,-0.496107,-0.439729,96.390862,-0.446421,-83.048134
44367,NaN,0.058063,9.762293,-1.093062,-0.003294,0.018050,0.010763,0.014550,0.020534,-0.005579,0.500970,0.556433,-0.496107,-0.439647,96.400779,-0.447033,-83.039761
44368,NaN,0.016538,9.737093,-1.119622,0.018897,0.062821,-0.011641,0.014491,0.015480,0.000589,0.500953,0.556480,-0.496144,-0.439566,96.410978,-0.450957,-83.035706
44369,NaN,-0.023888,9.799697,-1.139548,0.025042,0.105722,0.052473,0.010481,0.007652,0.006657,0.500946,0.556488,-0.496201,-0.439499,96.418626,-0.457714,-83.035453
44370,NaN,-0.015380,9.831538,-1.113851,-0.004236,0.095085,0.081299,0.008325,-0.001081,0.009495,0.500926,0.556462,-0.496289,-0.439456,96.425350,-0.465618,-83.041118
44371,NaN,-0.006600,9.863424,-1.087781,-0.033472,0.084445,0.110125,0.002828,-0.009288,0.013959,0.500914,0.556396,-0.496392,-0.439436,96.428698,-0.475445,-83.050980
44372,NaN,0.020662,9.914152,-1.133703,0.008949,0.064330,0.165885,-0.004328,-0.022636,0.015029,0.500886,0.556277,-0.496522,-0.439471,96.428402,-0.485117,-83.069460
44373,NaN,0.063481,9.849647,-1.090239,-0.021590,0.018573,0.097276,-0.004328,-0.022636,0.015028,0.500863,0.556161,-0.496646,-0.439504,96.427718,-0.494697,-83.086991
44374,NaN,0.158935,9.795234,-1.096165,0.002148,-0.073626,0.044697,-0.012563,-0.021786,0.011901,0.500856,0.556032,-0.496745,-0.439563,96.422489,-0.502646,-83.104363
44375,NaN,0.130990,9.751828,-1.146157,0.053879,-0.038234,0.006917,-0.015798,-0.016322,0.010542,0.500871,0.555912,-0.496816,-0.439618,96.415203,-0.510080,-83.118010
44376,NaN,0.043816,9.752464,-1.141926,0.040273,0.049147,0.006296,-0.017851,-0.020119,0.010392,0.500877,0.555781,-0.496894,-0.439689,96.407388,-0.517047,-83.134101
44377,NaN,0.005340,9.811845,-1.110193,-0.001022,0.084827,0.061403,-0.017059,-0.028036,0.014842,0.500876,0.555622,-0.497003,-0.439768,96.399448,-0.526184,-83.154691
44378,NaN,0.019954,9.791748,-1.110017,0.004333,0.072261,0.041531,-0.025507,-0.037058,0.017685,0.500876,0.555410,-0.497132,-0.439890,96.387055,-0.536513,-83.181856
44379,NaN,0.055834,9.783252,-1.084890,-0.013425,0.035698,0.030618,-0.022274,-0.042523,0.019035,0.500862,0.555195,-0.497277,-0.440013,96.376215,-0.547123,-83.210960
44380,NaN,0.106185,9.842158,-1.055306,-0.041614,-0.015544,0.086355,-0.023050,-0.039838,0.025522,0.500863,0.554954,-0.497448,-0.440122,96.365046,-0.562162,-83.241725
44381,NaN,0.120633,9.823851,-1.079467,-0.012487,-0.024515,0.070990,-0.020788,-0.042145,0.020630,0.500850,0.554740,-0.497600,-0.440236,96.355069,-0.573716,-83.270711
44382,NaN,0.121357,9.825880,-1.101816,0.010802,-0.020511,0.075493,-0.020529,-0.032387,0.017850,0.500846,0.554551,-0.497729,-0.440332,96.345721,-0.584386,-83.295226
44383,NaN,0.116401,9.790547,-1.077708,-0.008057,-0.016347,0.037667,-0.022890,-0.029842,0.016372,0.500860,0.554369,-0.497834,-0.440427,96.334476,-0.594302,-83.316933
44384,NaN,0.103365,9.812981,-1.097694,0.009495,0.000632,0.062034,-0.026459,-0.033953,0.013023,0.500860,0.554174,-0.497939,-0.440553,96.321711,-0.602125,-83.341789
44385,NaN,0.118440,9.791071,-1.072712,-0.008821,-0.015564,0.037667,-0.027767,-0.029570,0.013214,0.500881,0.553989,-0.498023,-0.440668,96.307675,-0.610269,-83.363138
44386,NaN,0.119250,9.791336,-1.070199,-0.009200,-0.015194,0.037667,-0.024169,-0.020339,0.008808,0.500904,0.553846,-0.498079,-0.440757,96.295895,-0.616394,-83.378626
44387,NaN,0.139497,9.806810,-1.091815,0.014719,-0.031559,0.055638,-0.024473,-0.013999,0.007487,0.500942,0.553717,-0.498116,-0.440834,96.283651,-0.622264,-83.390743
44388,NaN,0.107820,9.810319,-1.039137,-0.039396,-0.004982,0.053022,-0.024211,-0.004239,0.004718,0.500991,0.553610,-0.498132,-0.440895,96.271767,-0.627465,-83.398714
44389,NaN,0.175720,9.796588,-1.040109,-0.027185,-0.071276,0.040232,-0.023209,-0.002281,0.003203,0.501045,0.553520,-0.498130,-0.440948,96.260173,-0.631634,-83.403887
44390,NaN,0.181866,9.832392,-1.060031,-0.009049,-0.074664,0.078067,-0.018382,0.002753,-0.006165,0.501076,0.553477,-0.498102,-0.440999,96.251478,-0.630746,-83.405837
44391,NaN,0.195263,9.810356,-1.036070,-0.027371,-0.090856,0.053702,-0.014783,0.011986,-0.010563,0.501112,0.553475,-0.498045,-0.441025,96.244613,-0.627965,-83.402024
44392,NaN,0.161133,9.815619,-1.008697,-0.057794,-0.060718,0.055585,-0.013110,0.022306,-0.016498,0.501151,0.553514,-0.497955,-0.441035,96.239146,-0.622460,-83.392548
44393,NaN,0.084879,9.796015,-1.006486,-0.065448,0.013737,0.035036,-0.013188,0.022491,-0.021273,0.501185,0.553565,-0.497845,-0.441055,96.233124,-0.614232,-83.382086
44394,NaN,0.149025,9.785981,-1.057446,-0.005847,-0.045344,0.031282,-0.005870,0.024673,-0.021213,0.501199,0.553633,-0.497755,-0.441056,96.231473,-0.606391,-83.371835
44395,NaN,0.119496,9.828651,-1.077027,0.006051,-0.015375,0.075507,-0.008282,0.027343,-0.025869,0.501221,0.553718,-0.497632,-0.441062,96.228233,-0.595845,-83.358324
44396,NaN,0.117094,9.828783,-1.076092,0.005636,-0.015016,0.075507,-0.009949,0.038191,-0.030174,0.501263,0.553837,-0.497467,-0.441051,96.224432,-0.583380,-83.338278
44397,NaN,0.128123,9.808582,-1.077200,0.011039,-0.027619,0.055654,-0.007256,0.045221,-0.026695,0.501325,0.553967,-0.497298,-0.441008,96.221683,-0.573474,-83.314535
44398,NaN,0.119769,9.773090,-1.054404,-0.007832,-0.023500,0.017815,-0.009440,0.052524,-0.026373,0.501412,0.554111,-0.497105,-0.440946,96.217887,-0.563980,-83.286145
44399,NaN,0.050063,9.787028,-1.050571,-0.020679,0.043593,0.030574,-0.003764,0.049516,-0.028124,0.501472,0.554262,-0.496930,-0.440886,96.217121,-0.553523,-83.259867
44400,NaN,0.109885,9.825402,-1.024509,-0.043303,-0.020679,0.066479,-0.004306,0.046034,-0.025089,0.501527,0.554398,-0.496774,-0.440828,96.216638,-0.544510,-83.236186
44401,NaN,0.020037,9.825842,-1.021621,-0.056652,0.066772,0.065754,-0.000180,0.053564,-0.023185,0.501598,0.554555,-0.496611,-0.440735,96.217916,-0.537118,-83.207909
44402,NaN,0.085249,9.813972,-1.048851,-0.020811,0.004046,0.057518,-0.002209,0.049706,-0.021757,0.501663,0.554692,-0.496461,-0.440656,96.218319,-0.530343,-83.182787
44403,NaN,0.084449,9.812114,-1.024246,-0.044873,0.000859,0.052999,-0.002475,0.055923,-0.019898,0.501753,0.554840,-0.496295,-0.440554,96.218278,-0.524970,-83.153370
44404,NaN,0.027512,9.809393,-1.071809,-0.004570,0.062086,0.054929,0.001326,0.053879,-0.020000,0.501826,0.554995,-0.496143,-0.440447,96.220791,-0.519288,-83.125108
44405,NaN,0.081016,9.814064,-1.048329,-0.021886,0.005195,0.057515,-0.003353,0.058843,-0.019782,0.501926,0.555147,-0.495968,-0.440338,96.220237,-0.514163,-83.094035
44406,NaN,0.059470,9.800699,-1.048296,-0.022803,0.025963,0.044035,-0.006675,0.059302,-0.016573,0.502036,0.555279,-0.495804,-0.440232,96.218229,-0.511096,-83.064394
44407,NaN,0.023916,9.809529,-1.070654,-0.005653,0.063285,0.054921,-0.003918,0.055422,-0.018344,0.502132,0.555418,-0.495640,-0.440130,96.217374,-0.506577,-83.035360
44408,NaN,0.050857,9.765179,-1.025474,-0.042023,0.030525,0.006182,-0.003607,0.049081,-0.017026,0.502210,0.555538,-0.495503,-0.440044,96.217125,-0.502520,-83.010878
44409,NaN,0.089821,9.794011,-1.048371,-0.017649,-0.006210,0.037666,-0.003168,0.047621,-0.017093,0.502288,0.555659,-0.495364,-0.439959,96.216744,-0.498228,-82.986365
44410,NaN,0.046745,9.770979,-1.097777,0.028392,0.042039,0.019747,-0.003295,0.042739,-0.015711,0.502350,0.555761,-0.495250,-0.439888,96.216808,-0.494627,-82.966130
44411,NaN,0.006173,9.830004,-1.067100,-0.012890,0.077895,0.074753,-0.008503,0.044155,-0.010867,0.502447,0.555846,-0.495126,-0.439810,96.213394,-0.493667,-82.943978
44412,NaN,0.039461,9.823241,-1.067781,-0.007048,0.044918,0.068391,-0.004951,0.032351,-0.008185,0.502510,0.555907,-0.495047,-0.439749,96.212367,-0.493483,-82.928805
44413,NaN,0.073864,9.812682,-1.019614,-0.048610,0.004819,0.052981,-0.011844,0.028756,-0.009935,0.502580,0.555947,-0.494957,-0.439720,96.207115,-0.492096,-82.915482
44414,NaN,0.045688,9.767513,-1.046000,-0.020538,0.036418,0.010691,-0.008531,0.023044,-0.002206,0.502641,0.555966,-0.494911,-0.439678,96.204326,-0.494629,-82.906064
44415,NaN,0.051444,9.805183,-1.091199,0.021316,0.036603,0.053071,-0.011161,0.015886,-0.002513,0.502694,0.555961,-0.494875,-0.439665,96.199532,-0.496671,-82.900533
44416,NaN,0.039635,9.819843,-1.015115,-0.056028,0.039284,0.059327,-0.012749,0.010565,-0.001147,0.502738,0.555940,-0.494853,-0.439665,96.194413,-0.498977,-82.898043
44417,NaN,0.072862,9.815052,-1.039643,-0.026424,0.009874,0.057501,-0.009968,0.006625,-0.001315,0.502768,0.555915,-0.494846,-0.439671,96.190349,-0.501129,-82.897861
44418,NaN,0.052375,9.801713,-1.039152,-0.027369,0.030559,0.044010,-0.012158,-0.001993,-0.001686,0.502776,0.555869,-0.494858,-0.439706,96.185859,-0.502340,-82.902826
44419,NaN,0.078207,9.765154,-1.090242,0.031223,0.012021,0.013393,-0.016491,-0.003500,0.003032,0.502808,0.555794,-0.494874,-0.439746,96.178112,-0.506343,-82.908680
44420,NaN,0.087108,9.793243,-1.013405,-0.045669,-0.005601,0.033127,-0.010767,-0.006624,0.004495,0.502814,0.555724,-0.494920,-0.439776,96.174318,-0.510933,-82.916953
44421,NaN,0.120022,9.790387,-1.062339,0.007650,-0.031468,0.035845,-0.010804,-0.006498,0.001310,0.502820,0.555661,-0.494951,-0.439814,96.169844,-0.513772,-82.924408
44422,NaN,0.087433,9.793459,-1.011285,-0.046452,-0.004825,0.033124,-0.011099,-0.000219,0.001581,0.502836,0.555610,-0.494973,-0.439836,96.165767,-0.517173,-82.929083
44423,NaN,0.074693,9.811890,-0.984178,-0.076257,0.005043,0.048424,-0.006272,-0.000361,0.001577,0.502844,0.555571,-0.494999,-0.439845,96.163860,-0.520542,-82.933058
44424,NaN,0.142420,9.798279,-0.986333,-0.064320,-0.061314,0.035739,-0.003804,0.002041,0.000087,0.502842,0.555548,-0.495028,-0.439845,96.164113,-0.523200,-82.936325
44425,NaN,0.100472,9.775276,-1.035991,-0.018137,-0.013145,0.017821,-0.000332,0.006406,-0.002913,0.502841,0.555550,-0.495038,-0.439832,96.165572,-0.524428,-82.936170
44426,NaN,0.107338,9.808969,-1.033853,-0.023835,-0.020080,0.051149,0.008480,0.008915,0.000390,0.502825,0.555573,-0.495074,-0.439782,96.172534,-0.527660,-82.935140
44427,NaN,0.121420,9.786676,-1.012149,-0.042163,-0.036264,0.026780,0.006121,0.011459,-0.001097,0.502822,0.555598,-0.495091,-0.439734,96.177664,-0.530234,-82.932219
44428,NaN,0.032872,9.788755,-1.035046,-0.031712,0.054768,0.030489,0.006121,0.011459,-0.001097,0.502812,0.555618,-0.495117,-0.439690,96.183288,-0.532964,-82.930802
44429,NaN,0.107911,9.806822,-1.011545,-0.048674,-0.022430,0.046610,0.009028,0.012401,-0.002650,0.502800,0.555656,-0.495134,-0.439637,96.190078,-0.534712,-82.927249
44430,NaN,0.061119,9.831900,-0.984964,-0.084828,0.020767,0.068230,0.010948,0.011317,-0.001101,0.502778,0.555698,-0.495164,-0.439575,96.198926,-0.537032,-82.924475
44431,NaN,0.093731,9.828814,-1.036084,-0.031528,-0.005132,0.070977,0.012688,0.005541,-0.002943,0.502738,0.555731,-0.495205,-0.439533,96.207850,-0.538189,-82.924811
44432,NaN,0.072531,9.817143,-1.062387,-0.008694,0.019100,0.062017,0.015156,0.007943,-0.004433,0.502690,0.555782,-0.495244,-0.439480,96.218786,-0.538521,-82.923989
44433,NaN,0.086080,9.794787,-1.041410,-0.027022,0.002918,0.037646,0.014554,0.004646,-0.006170,0.502636,0.555826,-0.495283,-0.439443,96.228782,-0.537785,-82.924635
44434,NaN,0.051699,9.801471,-1.041469,-0.033615,0.036663,0.043970,0.013092,0.004207,-0.006191,0.502581,0.555866,-0.495322,-0.439411,96.238365,-0.536942,-82.925848
44435,NaN,0.044494,9.767587,-1.045363,-0.028657,0.044350,0.010638,0.015361,-0.003343,-0.000132,0.502518,0.555879,-0.495399,-0.439380,96.248870,-0.539147,-82.931421
44436,NaN,0.098149,9.775978,-1.071838,0.001153,-0.005524,0.022361,0.014356,-0.005305,0.001379,0.502449,0.555888,-0.495486,-0.439349,96.260019,-0.541745,-82.938252
44437,NaN,0.071758,9.814457,-1.045319,-0.034390,0.017418,0.057466,0.018142,-0.007283,-0.000298,0.502368,0.555900,-0.495578,-0.439321,96.272140,-0.543606,-82.946060
44438,NaN,0.098163,9.775594,-1.075330,0.000378,-0.004759,0.022361,0.020520,-0.009888,0.002782,0.502276,0.555905,-0.495696,-0.439288,96.286198,-0.547055,-82.956125
44439,NaN,0.084793,9.795662,-1.075376,-0.005700,0.008673,0.042185,0.018869,0.000895,0.000047,0.502214,0.555936,-0.495770,-0.439235,96.298692,-0.549623,-82.959298
44440,NaN,0.078410,9.759792,-1.055681,-0.024583,0.012795,0.004307,0.025454,-0.005086,-0.000203,0.502112,0.555972,-0.495880,-0.439184,96.315714,-0.551594,-82.966613
44441,NaN,0.153403,9.777717,-1.034083,-0.041617,-0.064385,0.020457,0.028065,0.002134,-0.001494,0.502025,0.556032,-0.495967,-0.439109,96.333470,-0.553361,-82.968984
44442,NaN,0.051847,9.797908,-1.032893,-0.060538,0.036142,0.039398,0.026746,0.006514,-0.001312,0.501947,0.556097,-0.496046,-0.439025,96.350894,-0.555541,-82.969603
44443,NaN,0.092410,9.824489,-1.034943,-0.060022,-0.004130,0.066412,0.038724,0.003813,-0.003017,0.501830,0.556192,-0.496148,-0.438923,96.374746,-0.556546,-82.970924
44444,NaN,0.058389,9.830942,-1.037188,-0.066652,0.029622,0.072719,0.033161,0.011693,-0.002693,0.501743,0.556290,-0.496226,-0.438812,96.396113,-0.558196,-82.968528
44445,NaN,0.125596,9.816936,-1.043190,-0.054671,-0.036748,0.060099,0.037208,0.003555,-0.007815,0.501619,0.556392,-0.496312,-0.438726,96.419096,-0.556451,-82.969689
44446,NaN,0.131292,9.852137,-1.068853,-0.036719,-0.040124,0.097980,0.038956,0.013634,-0.007401,0.501510,0.556518,-0.496385,-0.438608,96.443684,-0.555626,-82.966161
44447,NaN,0.089750,9.824809,-1.073738,-0.037901,0.000927,0.070956,0.037709,0.023073,-0.013397,0.501421,0.556678,-0.496408,-0.438481,96.466843,-0.551959,-82.955849
44448,NaN,0.122513,9.817587,-1.078814,-0.032190,-0.032067,0.064650,0.040633,0.023953,-0.013363,0.501320,0.556846,-0.496442,-0.438345,96.492253,-0.548440,-82.946093
44449,NaN,0.100296,9.805508,-1.107703,-0.009221,-0.007837,0.055692,0.041146,0.027550,-0.019600,0.501219,0.557040,-0.496444,-0.438212,96.517355,-0.541541,-82.932827
44450,NaN,0.025459,9.869080,-1.056584,-0.080411,0.058108,0.112327,0.044243,0.017273,-0.018423,0.501083,0.557212,-0.496487,-0.438099,96.544480,-0.534796,-82.926368
44451,NaN,0.159017,9.841432,-1.065836,-0.056161,-0.075043,0.087125,0.044525,0.011052,-0.020271,0.500930,0.557380,-0.496535,-0.438005,96.571608,-0.526449,-82.922443
44452,NaN,0.074812,9.790596,-1.121270,-0.010759,0.013678,0.042175,0.047730,0.021572,-0.019854,0.500790,0.557575,-0.496572,-0.437875,96.600912,-0.519111,-82.913516
44453,NaN,0.085784,9.773361,-1.176204,0.042092,0.008015,0.031477,0.044275,0.017157,-0.015250,0.500664,0.557743,-0.496619,-0.437753,96.627870,-0.514028,-82.906440
44454,NaN,0.126125,9.796303,-1.130839,-0.004955,-0.039257,0.049396,0.046741,0.019556,-0.016753,0.500530,0.557924,-0.496666,-0.437622,96.656588,-0.508342,-82.898671
44455,NaN,-0.015882,9.783902,-1.059727,-0.095702,0.091436,0.027561,0.042951,0.021536,-0.015087,0.500419,0.558098,-0.496699,-0.437490,96.682766,-0.503650,-82.889109
44456,NaN,0.103920,9.778367,-1.091303,-0.053582,-0.025177,0.026759,0.044086,0.012508,-0.020226,0.500266,0.558268,-0.496747,-0.437393,96.710132,-0.495431,-82.884902
44457,NaN,0.053545,9.899656,-1.183803,0.012710,0.034213,0.157574,0.042312,0.013074,-0.007448,0.500152,0.558403,-0.496822,-0.437267,96.735992,-0.494528,-82.880663
44458,NaN,0.026400,9.760659,-1.148118,-0.013766,0.056667,0.015127,0.039340,0.012360,-0.012265,0.500030,0.558535,-0.496885,-0.437166,96.760302,-0.491055,-82.877753
44459,NaN,0.106315,9.815959,-1.174024,0.011207,-0.020747,0.073774,0.036889,0.009906,-0.009172,0.499920,0.558653,-0.496950,-0.437066,96.783071,-0.488959,-82.875200
44460,NaN,-0.002347,9.800351,-1.151886,-0.025907,0.083598,0.054737,0.033204,0.016819,-0.010510,0.499831,0.558776,-0.496992,-0.436963,96.803686,-0.486730,-82.869513
44461,NaN,0.064747,9.786464,-1.157385,-0.013991,0.017197,0.042165,0.032551,0.008417,-0.004449,0.499740,0.558869,-0.497064,-0.436867,96.823979,-0.487222,-82.868127
44462,NaN,0.030166,9.794525,-1.183784,0.003258,0.054521,0.053011,0.032567,0.008361,-0.002857,0.499647,0.558950,-0.497151,-0.436771,96.844348,-0.488944,-82.868499
44463,NaN,-0.004101,9.713127,-1.191449,0.013227,0.089722,-0.027179,0.023644,0.000948,-0.004736,0.499561,0.559004,-0.497222,-0.436719,96.859573,-0.488764,-82.871343
44464,NaN,0.022968,9.847900,-1.185472,-0.008552,0.061163,0.106143,0.032963,-0.014057,0.002684,0.499420,0.559023,-0.497384,-0.436672,96.880505,-0.492102,-82.885180
44465,NaN,0.070685,9.908385,-1.184894,-0.013474,0.013662,0.166525,0.020419,-0.014778,0.005840,0.499327,0.559009,-0.497517,-0.436644,96.893967,-0.496856,-82.897697
44466,NaN,0.083837,9.801679,-1.219143,0.032027,0.005856,0.064822,0.025213,-0.014805,0.002650,0.499211,0.559015,-0.497654,-0.436613,96.910486,-0.499758,-82.910262
44467,NaN,0.084933,9.798130,-1.172381,-0.015770,-0.000732,0.055686,0.014236,-0.010155,0.002818,0.499141,0.559003,-0.497753,-0.436596,96.920382,-0.503106,-82.919943
44468,NaN,0.091478,9.833394,-1.195939,0.002227,-0.004058,0.093586,0.013232,-0.012110,0.004340,0.499065,0.558973,-0.497870,-0.436588,96.929886,-0.507480,-82.932517
44469,NaN,0.071720,9.818103,-1.173185,-0.022218,0.013163,0.075487,0.008936,-0.008452,-0.000311,0.499007,0.558959,-0.497944,-0.436587,96.936736,-0.509162,-82.941014
44470,NaN,0.058549,9.836634,-1.147971,-0.052031,0.023151,0.090716,0.006895,-0.012254,-0.000451,0.498943,0.558932,-0.498026,-0.436603,96.942504,-0.510521,-82.951971
44471,NaN,0.106122,9.807892,-1.127051,-0.064265,-0.026423,0.060074,0.005859,-0.014102,-0.002115,0.498875,0.558903,-0.498103,-0.436630,96.947618,-0.510785,-82.963557
44472,NaN,0.084432,9.797595,-1.176886,-0.017504,0.001270,0.055683,0.006879,-0.012201,-0.002045,0.498807,0.558875,-0.498182,-0.436652,96.953198,-0.511414,-82.974894
44473,NaN,0.138270,9.804264,-1.178293,-0.011378,-0.052065,0.062951,0.007899,-0.010300,-0.001976,0.498743,0.558859,-0.498255,-0.436663,96.959463,-0.512018,-82.984328
44474,NaN,0.083160,9.799056,-1.202759,0.005529,0.005566,0.060255,0.008004,-0.005372,-0.004985,0.498678,0.558852,-0.498318,-0.436674,96.965817,-0.511588,-82.992741
44475,NaN,0.116991,9.790582,-1.180289,-0.012446,-0.030927,0.049420,0.006679,-0.000993,-0.004824,0.498635,0.558860,-0.498357,-0.436669,96.971334,-0.511218,-82.996685
44476,NaN,0.062340,9.783747,-1.180263,-0.019231,0.023209,0.042144,0.006679,-0.000993,-0.004824,0.498590,0.558864,-0.498399,-0.436666,96.976770,-0.511041,-83.001324
44477,NaN,0.048748,9.802281,-1.155129,-0.049028,0.033214,0.057363,0.010910,-0.004436,-0.006547,0.498522,0.558880,-0.498451,-0.436665,96.984727,-0.509451,-83.007105
44478,NaN,0.093856,9.780048,-1.231947,0.033584,-0.002511,0.045036,0.008429,-0.006778,-0.006632,0.498452,0.558884,-0.498506,-0.436676,96.991606,-0.507602,-83.014556
44479,NaN,0.060471,9.783460,-1.182740,-0.020300,0.024343,0.042139,0.005097,-0.006308,-0.003423,0.498403,0.558874,-0.498558,-0.436686,96.996244,-0.507656,-83.021619
44480,NaN,0.059490,9.785005,-1.207789,0.003040,0.028201,0.046715,0.009024,-0.003471,-0.004917,0.498342,0.558879,-0.498614,-0.436685,97.003412,-0.507161,-83.027892
44481,NaN,0.066141,9.729243,-1.187941,-0.009920,0.019243,-0.010990,0.006405,-0.010634,-0.005177,0.498274,0.558867,-0.498675,-0.436708,97.008820,-0.505913,-83.037293
44482,NaN,0.057705,9.786432,-1.233788,0.026074,0.032431,0.051292,0.011537,-0.017049,-0.005415,0.498173,0.558852,-0.498766,-0.436739,97.017317,-0.504129,-83.050845
44483,NaN,0.105577,9.843890,-1.183121,-0.026408,-0.021945,0.102549,0.009973,-0.022417,-0.002420,0.498072,0.558815,-0.498871,-0.436780,97.024829,-0.503621,-83.067140
44484,NaN,0.117739,9.825121,-1.210219,0.002701,-0.031150,0.087339,0.012062,-0.013529,-0.010074,0.497967,0.558816,-0.498947,-0.436814,97.033495,-0.499673,-83.079261
44485,NaN,0.102842,9.846887,-1.233909,0.020360,-0.014211,0.111711,0.007561,-0.003913,-0.004935,0.497913,0.558820,-0.498994,-0.436815,97.039531,-0.499030,-83.084857
44486,NaN,0.156742,9.764166,-1.216689,0.019156,-0.069671,0.027974,0.004280,0.001642,-0.009516,0.497867,0.558835,-0.499016,-0.436824,97.043895,-0.496291,-83.088255
44487,NaN,0.040194,9.806191,-1.236293,0.018614,0.047496,0.071078,0.004840,0.005056,-0.010987,0.497831,0.558867,-0.499018,-0.436822,97.048324,-0.492836,-83.088326
44488,NaN,0.026245,9.824799,-1.210644,-0.011208,0.057520,0.086281,0.002123,-0.007034,-0.008234,0.497775,0.558858,-0.499054,-0.436855,97.051423,-0.490062,-83.095796
44489,NaN,0.059601,9.816476,-1.187394,-0.029211,0.021041,0.075455,-0.003876,-0.013571,-0.010062,0.497718,0.558826,-0.499086,-0.436924,97.050949,-0.485824,-83.106524
44490,NaN,0.072041,9.796267,-1.188698,-0.023797,0.008350,0.055667,-0.003227,-0.026236,-0.007333,0.497632,0.558755,-0.499164,-0.437025,97.050739,-0.482397,-83.125570
44491,NaN,0.130677,9.752361,-1.241209,0.040839,-0.044000,0.019027,-0.011201,-0.015729,-0.011728,0.497586,0.558704,-0.499181,-0.437123,97.046076,-0.477060,-83.137409
44492,NaN,0.054850,9.819986,-1.233984,0.017236,0.029136,0.084621,-0.011085,-0.010856,-0.013146,0.497546,0.558664,-0.499187,-0.437213,97.041593,-0.471393,-83.147270
44493,NaN,0.074957,9.830422,-1.183830,-0.030235,0.002324,0.088997,-0.009471,-0.005645,-0.011363,0.497522,0.558638,-0.499184,-0.437278,97.037872,-0.466973,-83.153401
44494,NaN,-0.007268,9.776409,-1.184355,-0.031944,0.083954,0.034793,-0.015839,-0.010935,-0.006763,0.497506,0.558569,-0.499201,-0.437364,97.030897,-0.464967,-83.164086
44495,NaN,0.046151,9.783411,-1.183785,-0.025902,0.030616,0.042109,-0.011821,-0.024176,-0.004065,0.497458,0.558478,-0.499259,-0.437468,97.025918,-0.463399,-83.181267
44496,NaN,0.079156,9.776860,-1.183797,-0.020241,-0.002416,0.035877,-0.013319,-0.024512,-0.007267,0.497402,0.558389,-0.499310,-0.437587,97.020373,-0.460029,-83.199205
44497,NaN,0.118295,9.805731,-1.206123,0.003793,-0.039203,0.067572,-0.010821,-0.022221,-0.005592,0.497353,0.558309,-0.499361,-0.437686,97.015956,-0.457733,-83.215168
44498,NaN,0.070718,9.831199,-1.177627,-0.032024,0.004304,0.088991,-0.014494,-0.015367,-0.005333,0.497330,0.558230,-0.499391,-0.437778,97.009249,-0.456203,-83.227893
44499,NaN,0.023376,9.768867,-1.154668,-0.051318,0.049048,0.023955,-0.017822,-0.014900,-0.002120,0.497326,0.558140,-0.499418,-0.437867,97.000789,-0.456396,-83.239936
44500,NaN,0.029779,9.802860,-1.150852,-0.057079,0.042280,0.057285,-0.017052,-0.022692,-0.000817,0.497299,0.558027,-0.499477,-0.437975,96.992891,-0.456975,-83.257691
44501,NaN,0.096234,9.791315,-1.176075,-0.021609,-0.020743,0.049430,-0.017128,-0.022477,-0.007192,0.497263,0.557934,-0.499511,-0.438095,96.984860,-0.453759,-83.273690
44502,NaN,0.087389,9.848918,-1.218796,0.014381,-0.007552,0.111728,-0.027205,-0.020810,-0.005517,0.497264,0.557817,-0.499522,-0.438231,96.971024,-0.451653,-83.288739
44503,NaN,0.087419,9.759773,-1.197751,0.006863,-0.009357,0.020689,-0.027475,-0.014639,-0.002095,0.497288,0.557703,-0.499527,-0.438343,96.957031,-0.451888,-83.300636
44504,NaN,0.059814,9.800570,-1.191764,-0.004996,0.017233,0.060242,-0.025034,-0.012185,-0.005199,0.497302,0.557613,-0.499523,-0.438447,96.944881,-0.450371,-83.310652
44505,NaN,0.072674,9.780616,-1.191180,0.000392,0.004494,0.040465,-0.022245,-0.016120,-0.005355,0.497300,0.557517,-0.499534,-0.438557,96.933889,-0.448654,-83.323165
44506,NaN,0.118673,9.755622,-1.216543,0.035459,-0.038307,0.019072,-0.019343,-0.015179,-0.006922,0.497289,0.557442,-0.499541,-0.438657,96.925055,-0.445803,-83.334069
44507,NaN,0.064237,9.835120,-1.183458,-0.011505,0.011151,0.093574,-0.017635,-0.005041,-0.008135,0.497296,0.557389,-0.499528,-0.438732,96.916653,-0.443274,-83.340089
