// General information: 
//  MT Manager version: 2019.0.1 
//  XDA version: 2019.0.1 build 2740 rev 84096 built on 2019-01-30
// Device information: 
//  DeviceId: 00B4381A
//  ProductCode: MTW2-3A7G6
//  Firmware Version: 4.3.4
//  Hardware Version: 1.1.0
// Device settings: 
//  Filter Profile: human(46.1)
//  Option Flags: Orientation Smoother Disabled, AHS Disabled, ICC Disabled
// Coordinate system: ENU
PacketCounter,SampleTimeFine,Acc_X,Acc_Y,Acc_Z,FreeAcc_E,FreeAcc_N,FreeAcc_U,Gyr_X,Gyr_Y,Gyr_Z,Quat_q0,Quat_q1,Quat_q2,Quat_q3,Roll,Pitch,Yaw
59780,NaN,0.977953,9.388790,-2.944542,0.631419,0.208520,0.053106,-0.222069,-0.070284,0.041838,0.369682,0.376445,-0.695045,-0.488402,104.614062,-8.405498,-116.619355
59781,NaN,1.107141,9.361640,-3.046240,0.685808,0.038410,0.070318,-0.209816,-0.026131,0.018873,0.369974,0.375976,-0.694630,-0.489133,104.502753,-8.405920,-116.637158
59782,NaN,0.985357,9.350968,-3.122342,0.825409,0.104504,0.059915,-0.197401,0.027044,0.004308,0.370391,0.375708,-0.694122,-0.489743,104.394368,-8.406306,-116.623270
59783,NaN,0.958942,9.308712,-3.198626,0.926695,0.078911,0.033017,-0.175893,0.054326,-0.013271,0.370819,0.375610,-0.693580,-0.490263,104.295315,-8.400321,-116.591340
59784,NaN,1.019426,9.266718,-3.302048,1.011608,-0.034342,0.025517,-0.162190,0.066296,-0.028881,0.371224,0.375618,-0.693022,-0.490739,104.203199,-8.387764,-116.550686
59785,NaN,1.295935,9.204656,-3.383375,0.982762,-0.335556,0.024687,-0.145565,0.063607,-0.052704,0.371528,0.375735,-0.692462,-0.491208,104.120091,-8.361017,-116.508016
59786,NaN,1.524200,9.114692,-3.463551,0.976810,-0.600987,-0.010564,-0.131661,0.070790,-0.068124,0.371795,0.375947,-0.691897,-0.491642,104.044340,-8.327160,-116.459351
59787,NaN,1.595939,9.004147,-3.591449,1.083463,-0.751776,-0.077127,-0.104254,0.091539,-0.085489,0.372037,0.376323,-0.691325,-0.491975,103.982183,-8.285957,-116.396526
59788,NaN,1.556120,9.091986,-3.538175,1.046027,-0.683697,-0.012546,-0.068247,0.121078,-0.092191,0.372298,0.376858,-0.690776,-0.492139,103.938298,-8.245567,-116.316327
59789,NaN,1.549062,9.180197,-3.585334,1.080788,-0.683809,0.081479,-0.050970,0.107226,-0.090980,0.372479,0.377390,-0.690296,-0.492268,103.905577,-8.203402,-116.244073
59790,NaN,1.611722,9.201710,-3.532432,1.004930,-0.721091,0.097778,-0.036516,0.090476,-0.093297,0.372572,0.377913,-0.689879,-0.492381,103.882424,-8.158095,-116.180980
59791,NaN,1.621360,9.137068,-3.524372,1.003258,-0.749041,0.034567,-0.019191,0.071580,-0.096823,0.372555,0.378437,-0.689533,-0.492477,103.870921,-8.107754,-116.128061
59792,NaN,1.622320,9.108365,-3.472183,0.957949,-0.743314,-0.005542,0.009721,0.043030,-0.101501,0.372376,0.378957,-0.689302,-0.492535,103.877961,-8.051343,-116.090517
59793,NaN,1.736013,9.127565,-3.353066,0.793376,-0.800288,0.000534,0.032748,0.003977,-0.100789,0.372017,0.379424,-0.689203,-0.492586,103.901704,-7.989547,-116.075090
59794,NaN,1.898147,9.086942,-3.233141,0.613520,-0.913115,-0.044449,0.057646,-0.027678,-0.094161,0.371522,0.379833,-0.689235,-0.492599,103.941915,-7.927502,-116.078236
59795,NaN,2.099546,9.109396,-3.095804,0.388780,-1.037974,-0.027768,0.084840,-0.034260,-0.077243,0.370989,0.380221,-0.689380,-0.492498,103.999061,-7.873597,-116.087537
59796,NaN,2.202265,9.105766,-2.983501,0.231941,-1.087599,-0.043882,0.116152,-0.014737,-0.050117,0.370535,0.380619,-0.689615,-0.492203,104.072623,-7.837826,-116.089475
59797,NaN,2.137238,9.149261,-2.876012,0.143925,-0.975111,-0.036357,0.148662,0.020292,-0.023542,0.370201,0.381073,-0.689919,-0.491677,104.163265,-7.821473,-116.075666
59798,NaN,2.004557,9.260360,-2.824100,0.122793,-0.805558,0.040436,0.169312,0.020233,0.000671,0.369891,0.381480,-0.690316,-0.491037,104.265583,-7.818825,-116.065098
59799,NaN,1.948486,9.354992,-2.748412,0.049004,-0.696566,0.105912,0.168596,0.001685,0.012355,0.369543,0.381801,-0.690771,-0.490410,104.369821,-7.819915,-116.066831
59800,NaN,1.892795,9.451433,-2.649363,-0.046569,-0.577676,0.167066,0.175142,-0.019203,0.017793,0.369127,0.382062,-0.691286,-0.489793,104.478819,-7.821177,-116.080809
59801,NaN,1.945663,9.538382,-2.550598,-0.188223,-0.557652,0.233479,0.164665,-0.039844,0.018674,0.368657,0.382251,-0.691820,-0.489246,104.584126,-7.819873,-116.106737
59802,NaN,1.973052,9.591814,-2.351179,-0.401984,-0.483295,0.238616,0.160471,-0.054523,0.019219,0.368150,0.382392,-0.692366,-0.488744,104.687435,-7.816761,-116.140692
59803,NaN,1.963868,9.716324,-2.279400,-0.498818,-0.410010,0.338294,0.156338,-0.056372,0.031664,0.367671,0.382479,-0.692933,-0.488232,104.789475,-7.820231,-116.177780
59804,NaN,2.044206,9.851670,-2.110548,-0.721381,-0.374897,0.435612,0.143925,-0.048366,0.034069,0.367253,0.382554,-0.693456,-0.487747,104.883137,-7.826130,-116.210481
59805,NaN,2.145953,9.970991,-1.988020,-0.907966,-0.380655,0.531813,0.123728,-0.026024,0.039853,0.366961,0.382625,-0.693902,-0.487275,104.964303,-7.838578,-116.231833
59806,NaN,2.142974,10.007071,-1.929770,-0.975186,-0.337532,0.550367,0.116138,0.014656,0.050795,0.366855,0.382744,-0.694272,-0.486735,105.037594,-7.862987,-116.231848
59807,NaN,2.217359,10.029351,-1.820076,-1.116863,-0.344982,0.553162,0.107788,0.073375,0.059788,0.366988,0.382958,-0.694535,-0.486091,105.102346,-7.901306,-116.200685
59808,NaN,2.122305,10.100624,-1.711202,-1.189580,-0.190416,0.579792,0.091688,0.110336,0.064849,0.367295,0.383216,-0.694696,-0.485426,105.154562,-7.947795,-116.149446
59809,NaN,2.082816,10.159013,-1.697032,-1.197821,-0.124961,0.626334,0.068732,0.146472,0.082420,0.367812,0.383456,-0.694771,-0.484736,105.191589,-8.009753,-116.080947
59810,NaN,1.970425,10.233640,-1.705274,-1.153536,0.000984,0.684325,0.036634,0.173717,0.096818,0.368521,0.383654,-0.694743,-0.484081,105.207884,-8.083503,-115.999209
59811,NaN,1.880370,10.300082,-1.660269,-1.160681,0.125817,0.723961,-0.000162,0.191862,0.103004,0.369379,0.383804,-0.694605,-0.483504,105.201978,-8.163769,-115.908441
59812,NaN,1.713531,10.239373,-1.650364,-1.077916,0.274682,0.640411,-0.026361,0.203752,0.114078,0.370354,0.383898,-0.694401,-0.482978,105.179925,-8.251559,-115.812498
59813,NaN,1.653667,10.258485,-1.619728,-1.070748,0.354777,0.643041,-0.064891,0.191313,0.119020,0.371373,0.383871,-0.694136,-0.482597,105.136890,-8.340565,-115.724311
59814,NaN,1.759444,10.172217,-1.600727,-1.102815,0.256370,0.572398,-0.097822,0.180908,0.127409,0.372437,0.383730,-0.693825,-0.482337,105.075727,-8.432177,-115.642978
59815,NaN,1.837766,10.134605,-1.557846,-1.149132,0.202762,0.538777,-0.132865,0.181988,0.142680,0.373610,0.383470,-0.693457,-0.482165,104.994603,-8.532732,-115.563330
59816,NaN,1.790108,10.031386,-1.532244,-1.112166,0.239003,0.428742,-0.153069,0.178810,0.155310,0.374840,0.383123,-0.693068,-0.482047,104.902259,-8.639259,-115.487044
59817,NaN,1.782853,9.993561,-1.461825,-1.141978,0.273175,0.375932,-0.157124,0.175161,0.179939,0.376125,0.382670,-0.692723,-0.481901,104.808126,-8.759227,-115.416296
59818,NaN,1.710505,9.940451,-1.390839,-1.141148,0.364080,0.298592,-0.163383,0.160785,0.212397,0.377448,0.382061,-0.692449,-0.481744,104.712338,-8.894502,-115.358147
59819,NaN,1.586420,9.892895,-1.321345,-1.117238,0.504498,0.218725,-0.164086,0.143242,0.243614,0.378789,0.381296,-0.692264,-0.481562,104.617907,-9.044912,-115.314136
59820,NaN,1.361693,9.915135,-1.210320,-1.098991,0.770033,0.178717,-0.167408,0.096099,0.277264,0.380050,0.380297,-0.692224,-0.481417,104.526699,-9.206644,-115.301291
59821,NaN,1.111772,9.898974,-1.073392,-1.087056,1.060224,0.090445,-0.165171,0.035395,0.295355,0.381143,0.379090,-0.692335,-0.481345,104.442145,-9.370151,-115.324813
59822,NaN,0.856130,9.831427,-0.908916,-1.089251,1.353945,-0.055828,-0.177506,-0.061174,0.318647,0.381976,0.377548,-0.692645,-0.481452,104.360508,-9.532398,-115.405926
59823,NaN,0.771476,9.714837,-0.689906,-1.203835,1.505467,-0.234930,-0.184336,-0.205288,0.365532,0.382439,0.375479,-0.693296,-0.481764,104.289156,-9.700729,-115.574482
59824,NaN,0.556927,9.554339,-0.715697,-1.038412,1.671252,-0.419271,-0.164797,-0.386708,0.410476,0.382337,0.372855,-0.694423,-0.482259,104.248623,-9.868180,-115.851885
59825,NaN,0.952770,9.330571,-0.859540,-1.023899,1.235968,-0.532061,-0.124318,-0.509838,0.436396,0.381797,0.369916,-0.695921,-0.482792,104.243834,-10.033032,-116.202141
59826,NaN,1.333794,9.084638,-0.986606,-1.023619,0.818010,-0.671244,-0.077643,-0.526672,0.472771,0.381189,0.366896,-0.697626,-0.483115,104.270350,-10.215384,-116.567679
59827,NaN,0.940518,9.146644,-0.867350,-0.950399,1.262941,-0.713262,-0.040602,-0.514030,0.487421,0.380594,0.363920,-0.699410,-0.483256,104.317367,-10.407633,-116.928099
59828,NaN,0.332232,9.155536,-0.738895,-0.777448,1.885702,-0.850559,-0.045997,-0.564284,0.493724,0.379837,0.360787,-0.701284,-0.483484,104.368937,-10.595736,-117.318613
59829,NaN,0.229652,9.074919,-0.752656,-0.687481,1.982603,-0.948721,-0.064487,-0.642749,0.517870,0.378898,0.357338,-0.703288,-0.483871,104.418876,-10.785815,-117.756808
59830,NaN,0.348058,8.925351,-0.813590,-0.645676,1.848184,-1.059852,-0.085863,-0.716543,0.542738,0.377784,0.353577,-0.705419,-0.484404,104.467897,-10.978683,-118.241307
59831,NaN,0.202517,8.911875,-0.776002,-0.584304,2.020772,-1.115584,-0.110252,-0.831708,0.576594,0.376386,0.349363,-0.707743,-0.485158,104.516674,-11.173346,-118.795692
59832,NaN,0.166735,8.923824,-0.617610,-0.678500,2.157944,-1.156673,-0.130222,-0.956789,0.604772,0.374632,0.344699,-0.710292,-0.486127,104.572011,-11.365212,-119.426138
59833,NaN,0.169013,8.900097,-0.578885,-0.678415,2.203196,-1.195213,-0.145023,-1.100798,0.644080,0.372481,0.339505,-0.713106,-0.487314,104.636781,-11.557190,-120.143713
59834,NaN,0.213989,8.932490,-0.592618,-0.658054,2.206691,-1.159156,-0.180250,-1.250496,0.668438,0.369891,0.333778,-0.716131,-0.488804,104.703272,-11.740371,-120.951085
59835,NaN,0.374966,8.997126,-0.639848,-0.669526,2.107491,-1.060074,-0.203606,-1.370064,0.688140,0.366946,0.327628,-0.719303,-0.490524,104.771641,-11.915735,-121.828928
59836,NaN,0.453405,9.031871,-0.679617,-0.642709,2.072674,-1.007414,-0.223857,-1.455554,0.702721,0.363733,0.321156,-0.722572,-0.492389,104.843525,-12.085981,-122.759046
59837,NaN,0.457735,9.104045,-0.860819,-0.461746,2.041197,-0.898977,-0.237431,-1.520941,0.708803,0.360303,0.314457,-0.725873,-0.494375,104.916379,-12.248332,-123.726886
59838,NaN,0.633697,9.199834,-1.014411,-0.401590,1.887794,-0.738423,-0.238735,-1.553926,0.716008,0.356740,0.307623,-0.729201,-0.496357,104.997613,-12.409014,-124.716352
59839,NaN,0.778843,9.292438,-1.119426,-0.369618,1.782400,-0.598820,-0.227689,-1.552068,0.710374,0.353133,0.300814,-0.732478,-0.498282,105.085363,-12.564835,-125.703603
59840,NaN,0.861110,9.464205,-1.222357,-0.315300,1.754163,-0.398329,-0.214195,-1.522644,0.700308,0.349556,0.294114,-0.735681,-0.500081,105.181901,-12.718531,-126.674632
59841,NaN,1.089762,9.476479,-1.372258,-0.299507,1.533564,-0.303079,-0.198820,-1.479959,0.669213,0.346019,0.287645,-0.738737,-0.501796,105.281019,-12.859178,-127.616239
59842,NaN,1.007708,9.458377,-1.471351,-0.145587,1.569037,-0.317528,-0.172011,-1.438997,0.637540,0.342486,0.281420,-0.741711,-0.503360,105.393960,-12.987495,-128.531727
59843,NaN,0.817231,9.400063,-1.398059,-0.060892,1.763739,-0.438839,-0.144887,-1.430015,0.599257,0.338838,0.275394,-0.744622,-0.504862,105.519346,-13.093467,-129.435480
59844,NaN,0.870729,9.295185,-1.349025,-0.105485,1.742468,-0.542785,-0.118890,-1.444211,0.559137,0.334971,0.269503,-0.747539,-0.506308,105.664158,-13.173750,-130.342877
59845,NaN,0.749410,9.158474,-1.362938,0.006906,1.802150,-0.699565,-0.096004,-1.461536,0.532231,0.330929,0.263697,-0.750445,-0.507723,105.821799,-13.233376,-131.254827
59846,NaN,0.572538,9.054360,-1.287742,0.084097,1.962550,-0.862337,-0.070045,-1.474348,0.515672,0.326735,0.257942,-0.753386,-0.509037,105.999007,-13.280061,-132.173173
59847,NaN,0.514602,8.890530,-1.314997,0.166017,1.951751,-1.026414,-0.058765,-1.494366,0.507614,0.322418,0.252175,-0.756315,-0.510335,106.182799,-13.315435,-133.100298
59848,NaN,0.276333,8.681430,-1.341825,0.368630,2.049917,-1.274186,-0.034982,-1.519548,0.498493,0.317924,0.246394,-0.759304,-0.511539,106.386565,-13.339568,-134.041916
59849,NaN,0.317139,8.525752,-1.372484,0.382637,1.963837,-1.406164,-0.011078,-1.560399,0.489249,0.313209,0.240573,-0.762339,-0.512702,106.606238,-13.347611,-135.003582
59850,NaN,0.287347,8.331339,-1.281411,0.355466,1.989467,-1.624194,0.002252,-1.603315,0.491685,0.308292,0.234630,-0.765445,-0.513809,106.842352,-13.347166,-135.991527
59851,NaN,0.287335,8.104096,-1.327791,0.407270,1.894539,-1.827277,0.010503,-1.635372,0.509449,0.303273,0.228540,-0.768568,-0.514877,107.084847,-13.346010,-136.998864
59852,NaN,0.283894,7.894074,-1.426555,0.494878,1.772832,-1.999609,0.026226,-1.651159,0.525474,0.298187,0.222347,-0.771735,-0.515821,107.342251,-13.347737,-138.019567
59853,NaN,0.027525,7.795401,-1.538766,0.769250,1.843658,-2.122044,0.034832,-1.672039,0.548073,0.293054,0.216018,-0.774903,-0.516703,107.604929,-13.352571,-139.054229
59854,NaN,-0.177199,7.649713,-1.742015,1.070990,1.793582,-2.248287,0.032224,-1.698459,0.558881,0.287819,0.209548,-0.778073,-0.517545,107.873405,-13.355161,-140.107460
59855,NaN,-0.351566,7.611131,-1.927382,1.334879,1.765674,-2.271587,0.017160,-1.762412,0.578344,0.282384,0.202808,-0.781231,-0.518465,108.138862,-13.351009,-141.198213
59856,NaN,-0.573626,7.643509,-2.193882,1.685548,1.725899,-2.213637,-0.008231,-1.854175,0.584926,0.276601,0.195741,-0.784410,-0.519498,108.405105,-13.330266,-142.343243
59857,NaN,-0.494809,7.857163,-2.591584,1.881080,1.469909,-1.875619,-0.043641,-1.943001,0.599032,0.270520,0.188330,-0.787535,-0.520710,108.658942,-13.294574,-143.538393
59858,NaN,-0.198398,8.298254,-3.099756,1.959229,1.090190,-1.240537,-0.080382,-2.016702,0.618898,0.264200,0.180567,-0.790619,-0.522030,108.904690,-13.252364,-144.779893
59859,NaN,-0.137822,9.029889,-3.475866,2.128527,1.049401,-0.431450,-0.115038,-2.061320,0.651435,0.257795,0.172506,-0.793590,-0.523448,109.133184,-13.212944,-146.050206
59860,NaN,-0.194200,10.161079,-3.952154,2.448455,1.149712,0.750832,-0.150273,-2.089253,0.689251,0.251373,0.164143,-0.796464,-0.524895,109.349465,-13.185404,-147.344895
59861,NaN,-0.188553,11.674682,-4.307962,2.655668,1.449559,2.259529,-0.213917,-2.102015,0.719086,0.245002,0.155540,-0.799092,-0.526529,109.528100,-13.165563,-148.650447
59862,NaN,-0.205342,12.797146,-4.580508,2.845122,1.655336,3.376514,-0.367222,-2.103586,0.679067,0.238606,0.146873,-0.801209,-0.528735,109.620100,-13.122453,-149.950596
59863,NaN,-0.279043,13.050102,-4.786389,3.043082,1.563932,3.662685,-0.573779,-2.079499,0.614672,0.232259,0.138277,-0.802582,-0.531786,109.582872,-13.046748,-151.222535
59864,NaN,-0.174845,12.636681,-4.995961,3.074816,1.089921,3.379448,-0.761084,-2.019504,0.546797,0.226072,0.129864,-0.803261,-0.535535,109.429491,-12.949787,-152.449390
59865,NaN,0.143654,12.020018,-5.276030,2.935125,0.363707,2.977522,-0.898574,-1.916682,0.480044,0.220180,0.121838,-0.803296,-0.539807,109.175894,-12.838347,-153.604286
59866,NaN,0.255529,11.351862,-5.589468,2.967152,-0.324882,2.486144,-0.988356,-1.802190,0.422633,0.214625,0.114224,-0.802856,-0.544345,108.855750,-12.724933,-154.686407
59867,NaN,0.403007,10.674802,-5.923940,2.954461,-1.053848,1.992646,-1.045355,-1.677092,0.350567,0.209381,0.107183,-0.801982,-0.549087,108.479073,-12.599481,-155.683887
59868,NaN,0.606787,9.953469,-5.999273,2.748252,-1.601364,1.381608,-1.070575,-1.534649,0.238192,0.204399,0.100930,-0.800772,-0.553894,108.067441,-12.447470,-156.583278
59869,NaN,0.616466,8.998927,-5.795737,2.559430,-1.909045,0.422292,-1.039405,-1.407837,0.096005,0.199491,0.095638,-0.799364,-0.558636,107.647220,-12.244164,-157.385299
59870,NaN,0.578936,8.224862,-5.531685,2.385883,-2.059845,-0.397460,-0.940526,-1.319938,-0.070436,0.194415,0.091332,-0.798026,-0.563042,107.267329,-11.972890,-158.111113
59871,NaN,0.713823,7.666599,-4.993592,1.948929,-1.937062,-1.056499,-0.790892,-1.222003,-0.236415,0.189174,0.088120,-0.796874,-0.566957,106.949582,-11.629059,-158.753128
59872,NaN,0.908885,7.541421,-4.271838,1.415115,-1.498415,-1.345146,-0.612855,-1.071569,-0.398637,0.183993,0.086129,-0.795990,-0.570200,106.710692,-11.226781,-159.285624
59873,NaN,1.283178,7.902742,-3.964728,0.917790,-1.301439,-1.021653,-0.477814,-0.828967,-0.532943,0.179321,0.085501,-0.795167,-0.572925,106.512671,-10.789952,-159.659700
59874,NaN,1.597509,8.319341,-4.024977,0.619690,-1.382284,-0.556953,-0.423829,-0.475980,-0.646243,0.175709,0.086364,-0.794128,-0.575350,106.305965,-10.351833,-159.819874
59875,NaN,1.779829,8.891442,-4.302868,0.537167,-1.567304,0.086535,-0.432448,-0.040376,-0.756719,0.173499,0.088926,-0.792604,-0.577727,106.044967,-9.920559,-159.719264
59876,NaN,1.882252,9.488103,-4.524964,0.514894,-1.683725,0.720191,-0.481043,0.469113,-0.890130,0.172951,0.093428,-0.790433,-0.580151,105.708074,-9.497650,-159.315943
59877,NaN,1.927270,10.188427,-4.628350,0.515418,-1.664332,1.407985,-0.531959,1.013464,-1.013589,0.174201,0.099965,-0.787537,-0.582621,105.291025,-9.084777,-158.591428
59878,NaN,1.838580,11.043084,-4.605606,0.605532,-1.464659,2.188500,-0.640768,1.517034,-1.138720,0.177120,0.108342,-0.783773,-0.585312,104.773132,-8.674212,-157.571124
59879,NaN,1.226206,11.505857,-4.469456,1.111603,-1.107445,2.491813,-0.750918,1.910874,-1.287609,0.181173,0.118360,-0.779149,-0.588298,104.163003,-8.224937,-156.313004
59880,NaN,0.893060,11.568416,-4.609502,1.460860,-1.219427,2.526291,-0.865173,2.201410,-1.457123,0.185908,0.129754,-0.773705,-0.591593,103.474771,-7.709613,-154.875634
59881,NaN,0.656746,11.460415,-4.625208,1.666263,-1.310086,2.380357,-0.927286,2.414252,-1.590313,0.191060,0.142223,-0.767619,-0.595004,102.746461,-7.127346,-153.308894
59882,NaN,0.228306,11.269967,-4.548319,1.994711,-1.245993,2.112849,-0.932810,2.546071,-1.718353,0.196307,0.155521,-0.761123,-0.598305,102.023710,-6.472711,-151.662177
59883,NaN,-0.372743,11.188290,-4.369626,2.405818,-0.964432,1.921487,-0.886321,2.573682,-1.832674,0.201214,0.169356,-0.754440,-0.601375,101.344454,-5.734286,-149.996603
59884,NaN,-0.922769,11.378883,-4.386461,2.838730,-0.785504,2.057220,-0.831665,2.529229,-1.922686,0.205598,0.183391,-0.747696,-0.604192,100.722381,-4.924494,-148.357348
59885,NaN,-1.724473,11.901696,-4.514532,3.501917,-0.481221,2.536747,-0.767134,2.377348,-1.999708,0.209050,0.197291,-0.741028,-0.606837,100.167769,-4.035685,-146.806190
59886,NaN,-2.927689,12.842735,-4.332633,4.262943,0.385234,3.376518,-0.725998,2.086069,-2.059663,0.211168,0.210507,-0.734559,-0.609523,99.672820,-3.073296,-145.423998
59887,NaN,-3.261508,13.329882,-4.257647,4.327031,0.582270,3.876155,-0.745346,1.730210,-2.157425,0.211634,0.222951,-0.728138,-0.612633,99.199961,-2.007113,-144.243320
59888,NaN,-3.436103,13.112196,-4.362810,4.384022,0.403985,3.729196,-0.765750,1.362262,-2.267621,0.210425,0.234584,-0.721783,-0.616215,98.743777,-0.839673,-143.270660
59889,NaN,-3.936718,12.788944,-4.219063,4.552047,0.588532,3.445578,-0.743602,0.939387,-2.344474,0.207364,0.245194,-0.715714,-0.620189,98.321954,0.418596,-142.540311
59890,NaN,-3.745132,12.502365,-4.439217,4.376025,0.058654,3.259477,-0.731121,0.510892,-2.425383,0.202493,0.254714,-0.709912,-0.624614,97.918991,1.758725,-142.055450
59891,NaN,-4.435690,12.001954,-4.758925,4.975556,-0.044715,2.899626,-0.664050,-0.024586,-2.487189,0.195381,0.262830,-0.704659,-0.629446,97.553417,3.182791,-141.878777
59892,NaN,-5.515224,11.960263,-4.866261,5.690422,0.267165,3.020174,-0.623055,-0.769629,-2.490779,0.185573,0.268585,-0.700141,-0.635002,97.185633,4.660422,-142.135007
59893,NaN,-5.418309,11.888975,-4.886034,5.423051,-0.127717,3.037965,-0.619287,-1.478352,-2.476953,0.173253,0.272019,-0.696166,-0.641360,96.774862,6.182594,-142.807756
59894,NaN,-4.897807,11.774019,-4.579061,4.629151,-0.549238,2.908865,-0.577196,-2.074013,-2.432314,0.158937,0.273330,-0.692739,-0.648184,96.326236,7.708437,-143.838319
59895,NaN,-3.602350,11.489636,-4.756894,3.509635,-1.808464,2.516693,-0.530666,-2.445092,-2.402947,0.143286,0.273326,-0.689596,-0.655148,95.844001,9.237010,-145.100746
59896,NaN,-2.788202,10.498890,-4.634146,2.725740,-2.484231,1.406157,-0.446100,-2.614899,-2.332359,0.127158,0.272469,-0.686741,-0.661799,95.355444,10.718942,-146.483853
59897,NaN,-2.051180,9.570223,-4.227732,1.858533,-2.796279,0.305977,-0.360888,-2.671423,-2.212948,0.111037,0.271016,-0.684149,-0.667953,94.871097,12.129436,-147.925624
59898,NaN,-0.253920,8.828822,-4.321156,0.353080,-3.993579,-0.834703,-0.301818,-2.521643,-2.122538,0.095656,0.269677,-0.681599,-0.673459,94.399732,13.464083,-149.303241
59899,NaN,0.536067,7.548496,-4.551724,-0.105685,-4.668551,-2.317781,-0.189225,-2.105530,-2.024205,0.081810,0.269422,-0.679191,-0.677804,94.018405,14.720339,-150.457802
59900,NaN,0.517221,6.682895,-4.444423,-0.107610,-4.612990,-3.225812,0.018746,-1.616970,-1.902378,0.069780,0.270414,-0.677328,-0.680613,93.802913,15.876645,-151.340749
59901,NaN,0.516160,5.946008,-4.630607,0.022497,-4.792438,-3.973686,0.223335,-1.097604,-1.759962,0.059669,0.272755,-0.676082,-0.681878,93.773764,16.935106,-151.927366
59902,NaN,-0.455843,4.698172,-4.968607,1.231179,-4.600140,-4.884241,0.446781,-0.550965,-1.625183,0.051593,0.276516,-0.675554,-0.681545,93.956868,17.891083,-152.193466
59903,NaN,-1.905898,4.177497,-5.171660,2.600571,-4.116967,-4.901805,0.736408,-0.162817,-1.487675,0.044855,0.281216,-0.676054,-0.679600,94.376991,18.758492,-152.228083
59904,NaN,-3.032987,4.505867,-5.199909,3.355990,-3.676224,-4.176866,0.942311,-0.022515,-1.336682,0.038849,0.285883,-0.677386,-0.676690,94.940211,19.528544,-152.177586
59905,NaN,-3.795773,4.371451,-5.075079,3.880695,-3.213533,-3.991514,1.051380,-0.059002,-1.222149,0.032910,0.290067,-0.679217,-0.673381,95.562712,20.239531,-152.146886
59906,NaN,-4.840139,4.000618,-5.033784,4.755490,-2.688674,-3.902888,1.154788,-0.227488,-1.169400,0.026462,0.293475,-0.681449,-0.669925,96.207653,20.925086,-152.213616
59907,NaN,-5.301791,3.452623,-5.110020,5.263350,-2.527203,-4.151354,1.225216,-0.415404,-1.144364,0.019311,0.296184,-0.683936,-0.666434,96.856321,21.614458,-152.388749
59908,NaN,-5.811118,3.205395,-4.924076,5.592202,-2.149049,-4.120824,1.284647,-0.634187,-1.106108,0.011491,0.297987,-0.686636,-0.663025,97.485129,22.294349,-152.693657
59909,NaN,-6.168095,2.968385,-4.719536,5.787696,-1.843931,-4.135420,1.305513,-0.949772,-1.056838,0.002674,0.298580,-0.689444,-0.659931,98.052646,22.979226,-153.190350
59910,NaN,-5.888508,2.412284,-4.539121,5.609047,-1.834602,-4.687438,1.324382,-1.219224,-1.043124,-0.007010,0.298175,-0.692260,-0.657129,98.556800,23.677295,-153.850496
59911,NaN,-5.563282,1.909401,-4.190029,5.321553,-1.702569,-5.237447,1.387740,-1.332832,-1.033952,-0.017201,0.297362,-0.695222,-0.654176,99.066503,24.391618,-154.578402
59912,NaN,-5.317654,1.848664,-3.774110,4.900824,-1.489399,-5.374116,1.458606,-1.364028,-1.048418,-0.027601,0.296421,-0.698296,-0.650965,99.597768,25.116893,-155.321636
59913,NaN,-5.088906,1.735318,-3.492442,4.574130,-1.381763,-5.538109,1.517866,-1.347336,-1.088469,-0.038211,0.295661,-0.701422,-0.647404,100.166768,25.876237,-156.046409
59914,NaN,-4.579869,1.591353,-3.502729,4.134068,-1.635653,-5.811510,1.585393,-1.277289,-1.162222,-0.048855,0.295299,-0.704566,-0.643427,100.785903,26.669923,-156.715084
59915,NaN,-3.603463,1.536581,-3.558318,3.281114,-2.077188,-6.217410,1.662490,-1.132322,-1.253111,-0.059445,0.295699,-0.707768,-0.638822,101.495054,27.512649,-157.274797
59916,NaN,-2.624794,1.542927,-3.734717,2.433286,-2.602575,-6.568781,1.727861,-0.899586,-1.349358,-0.069550,0.297085,-0.710996,-0.633552,102.308352,28.381281,-157.666251
59917,NaN,-1.561494,1.645897,-3.949266,1.480401,-3.162100,-6.888213,1.773909,-0.583274,-1.434002,-0.078916,0.299753,-0.714262,-0.627496,103.257106,29.269627,-157.830929
59918,NaN,-0.730383,1.711347,-4.023413,0.708079,-3.490406,-7.173566,1.811441,-0.202839,-1.483283,-0.087064,0.303696,-0.717613,-0.620661,104.352636,30.128520,-157.728228
59919,NaN,-0.173148,1.877418,-4.043261,0.102371,-3.658505,-7.261834,1.867110,0.224889,-1.503641,-0.093872,0.309007,-0.721198,-0.612842,105.639674,30.940428,-157.324536
59920,NaN,0.086611,2.480627,-3.956781,-0.526007,-3.589282,-6.870433,1.898017,0.745101,-1.470223,-0.098676,0.315695,-0.725054,-0.604067,107.126953,31.634076,-156.567767
59921,NaN,0.207241,3.387704,-3.925788,-1.207201,-3.481064,-6.158179,1.877779,1.333509,-1.362446,-0.101031,0.323758,-0.729197,-0.594345,108.818250,32.153572,-155.426951
59922,NaN,0.240059,4.576180,-4.011640,-1.962601,-3.397311,-5.154593,1.780431,1.954707,-1.178519,-0.100339,0.332948,-0.733508,-0.583990,110.655227,32.416856,-153.910407
59923,NaN,-0.028475,5.597741,-4.061458,-2.399741,-3.148106,-4.141671,1.571612,2.529825,-0.954036,-0.096567,0.343053,-0.737717,-0.573378,112.553333,32.403392,-152.073742
59924,NaN,-1.257681,6.499994,-3.742600,-2.145457,-2.147374,-2.839699,1.413207,2.806873,-0.690466,-0.090666,0.352939,-0.741859,-0.562902,114.400945,32.131438,-150.142514
59925,NaN,-4.092033,8.187538,-2.427730,-1.513722,0.605408,-0.484636,1.308063,2.537026,-0.398515,-0.084790,0.360975,-0.745940,-0.553246,116.045532,31.729666,-148.475810
59926,NaN,-6.922297,10.188354,-1.130397,-1.155185,3.479429,2.000565,1.082920,1.835228,-0.184307,-0.080466,0.366280,-0.749352,-0.545743,117.279079,31.358056,-147.316878
59927,NaN,-8.059067,12.755548,0.408386,-2.469642,5.876874,3.868706,0.677198,0.872244,-0.021951,-0.078610,0.368510,-0.751526,-0.541506,117.954187,31.148348,-146.789285
59928,NaN,-8.073324,14.695388,1.629398,-4.055132,7.298783,4.818495,0.140162,-0.167722,0.150748,-0.079152,0.367456,-0.752130,-0.541306,117.965950,31.122974,-146.934898
59929,NaN,-7.923812,14.717207,2.294268,-4.299254,7.773694,4.530620,-0.356880,-1.181700,0.330360,-0.082155,0.363196,-0.751310,-0.544860,117.358760,31.280565,-147.736229
59930,NaN,-7.109493,13.399340,2.401552,-3.949373,7.176039,3.177899,-0.714324,-2.152457,0.453427,-0.087764,0.355919,-0.749267,-0.551560,116.211752,31.610308,-149.163199
59931,NaN,-5.546471,12.428169,1.995543,-4.213925,5.820055,1.916228,-0.885460,-2.826602,0.556414,-0.095342,0.346433,-0.746507,-0.560018,114.724075,32.030095,-151.043474
59932,NaN,-3.577278,11.982151,1.179991,-5.038800,4.040288,0.959600,-1.014906,-3.092160,0.659749,-0.103325,0.335769,-0.743246,-0.569358,113.032008,32.407545,-153.138878
59933,NaN,-1.673492,11.551480,0.444368,-5.911584,2.437785,-0.038137,-1.104386,-2.962723,0.656203,-0.110704,0.325467,-0.739592,-0.578636,111.315301,32.711270,-155.171339
59934,NaN,-0.293023,11.171091,0.085256,-6.562291,1.450269,-0.884233,-1.239492,-2.455105,0.586200,-0.116120,0.316869,-0.735545,-0.587439,109.686718,32.895246,-156.878873
59935,NaN,0.046305,10.880223,0.614618,-6.677940,1.688162,-1.368037,-1.388293,-1.666162,0.525323,-0.118596,0.310870,-0.731302,-0.595392,108.252955,32.931670,-158.070511
59936,NaN,-1.085146,10.720899,1.438367,-5.786879,2.675083,-1.007173,-1.547328,-0.912880,0.531232,-0.118003,0.307131,-0.726966,-0.602715,106.991284,32.805823,-158.774108
59937,NaN,-2.828798,10.216701,2.239053,-4.204212,3.775892,-0.568209,-1.703612,-0.360284,0.618916,-0.114920,0.304825,-0.722556,-0.609744,105.832396,32.534143,-159.128589
59938,NaN,-4.053293,9.497068,2.710881,-2.839706,4.395086,-0.507380,-1.809661,-0.026911,0.713469,-0.110139,0.303208,-0.718096,-0.616662,104.724297,32.149752,-159.274358
59939,NaN,-4.699417,9.066997,2.896920,-2.042895,4.602924,-0.467954,-1.880580,0.090442,0.805702,-0.104564,0.301649,-0.713547,-0.623638,103.615238,31.699383,-159.349029
59940,NaN,-5.012334,8.688071,2.685620,-1.444027,4.345778,-0.493628,-1.911611,0.026096,0.901387,-0.098832,0.299514,-0.708940,-0.630815,102.463866,31.198732,-159.469472
59941,NaN,-5.114243,8.993312,2.288764,-1.329004,3.865399,-0.037077,-1.953167,-0.137919,0.969999,-0.093421,0.296624,-0.704136,-0.638341,101.236723,30.680874,-159.693895
59942,NaN,-4.912969,9.721247,1.721573,-1.608922,3.109706,0.643887,-2.065205,-0.330365,1.034178,-0.088275,0.292890,-0.698898,-0.646501,99.886611,30.138889,-160.036797
59943,NaN,-4.232545,10.416851,1.295927,-2.257416,2.308181,1.035101,-2.251387,-0.369073,1.136060,-0.082677,0.288732,-0.693078,-0.655317,98.423505,29.539653,-160.398513
59944,NaN,-3.808601,11.428054,1.547083,-2.998012,2.180221,1.752306,-2.458481,-0.264608,1.234207,-0.076054,0.284594,-0.686653,-0.664627,96.884254,28.864766,-160.680074
59945,NaN,-4.155042,12.738423,2.068213,-3.279796,2.468166,3.108171,-2.608419,-0.023745,1.374538,-0.067935,0.280792,-0.679871,-0.674030,95.342335,28.092590,-160.792945
59946,NaN,-4.884002,14.461464,2.592445,-3.372303,2.789883,5.037802,-2.663263,0.349890,1.572458,-0.057760,0.277513,-0.673166,-0.683007,93.888923,27.184129,-160.651084
59947,NaN,-5.323402,15.564394,2.246131,-3.081482,2.215836,6.349360,-2.670367,0.881495,1.765454,-0.045135,0.275349,-0.666672,-0.691155,92.588376,26.154762,-160.153166
59948,NaN,-5.489219,15.809486,1.326563,-2.389257,1.125251,6.765600,-2.677946,1.550933,1.945505,-0.029610,0.274799,-0.660362,-0.698234,91.466116,25.014933,-159.214424
59949,NaN,-5.245721,15.115820,0.394006,-1.604143,0.075639,6.111087,-2.670143,2.328869,2.086281,-0.011045,0.276412,-0.654128,-0.703983,90.536884,23.805170,-157.774866
59950,NaN,-5.023512,13.886118,0.200922,-0.879610,-0.111028,4.928520,-2.609187,3.129379,2.095485,0.010111,0.280663,-0.647870,-0.708089,89.814764,22.604489,-155.830402
59951,NaN,-5.022848,12.364922,0.757732,-0.270298,0.603363,3.538405,-2.470674,3.762346,2.001864,0.032767,0.287324,-0.641563,-0.710470,89.280558,21.483035,-153.497615
59952,NaN,-4.941712,11.066620,1.333745,0.033024,1.324305,2.308048,-2.309799,4.123291,1.842496,0.055782,0.295610,-0.635153,-0.711396,88.875146,20.470855,-150.951989
59953,NaN,-4.191878,10.581349,0.916969,-0.075230,0.738877,1.581347,-2.216623,4.254484,1.649996,0.078337,0.304827,-0.628334,-0.711435,88.506611,19.589935,-148.337590
59954,NaN,-3.691487,10.327972,0.284862,0.077261,0.032850,1.158471,-2.056655,4.136484,1.370734,0.099254,0.314362,-0.621335,-0.710822,88.168668,18.878998,-145.806791
59955,NaN,-3.740289,10.207591,-0.284370,0.608975,-0.355899,1.039338,-1.918004,3.752475,1.047248,0.117542,0.323460,-0.614174,-0.710175,87.806317,18.363463,-143.519586
59956,NaN,-4.050628,9.889433,-0.586751,1.219529,-0.327021,0.815463,-1.787314,3.154455,0.694794,0.132501,0.331445,-0.607022,-0.710008,87.387584,18.046911,-141.603547
59957,NaN,-4.222022,9.647968,-0.182047,1.225633,0.144557,0.647640,-1.598235,2.377544,0.319314,0.143402,0.337866,-0.600257,-0.710615,86.922564,17.940494,-140.165873
59958,NaN,-3.895939,9.660750,-0.167165,1.031058,-0.082553,0.553893,-1.422667,1.556797,-0.026640,0.150310,0.342463,-0.594036,-0.712212,86.402030,18.013058,-139.233183
59959,NaN,-2.894915,9.290670,0.094398,0.246731,-0.491806,-0.096594,-1.224550,0.860360,-0.370962,0.153553,0.345743,-0.588394,-0.714616,85.862884,18.267109,-138.733166
59960,NaN,-2.605548,8.689916,0.692681,-0.235306,-0.171867,-0.718865,-0.935213,0.270938,-0.685374,0.153449,0.348027,-0.583678,-0.717391,85.374636,18.675857,-138.604252
59961,NaN,-2.863333,8.729362,0.867370,-0.186145,0.002932,-0.586793,-0.705703,-0.234401,-0.915400,0.150622,0.349354,-0.579742,-0.720531,84.915170,19.195741,-138.795206
59962,NaN,-2.922911,8.768042,1.180886,-0.385998,0.148345,-0.504392,-0.491836,-0.698227,-1.102413,0.145416,0.349679,-0.576584,-0.723968,84.477506,19.793004,-139.282458
59963,NaN,-3.048845,8.443756,1.685112,-0.606922,0.580291,-0.717309,-0.242412,-1.111680,-1.285539,0.137892,0.349214,-0.574264,-0.727500,84.085205,20.471008,-140.038316
59964,NaN,-2.804649,8.135705,2.073129,-1.021202,0.712336,-1.048989,0.011480,-1.465347,-1.459157,0.128284,0.348085,-0.572766,-0.730972,83.745883,21.218634,-141.029310
59965,NaN,-2.241262,7.917194,2.334036,-1.609494,0.561473,-1.431371,0.289398,-1.698650,-1.626490,0.116878,0.346736,-0.572058,-0.734073,83.492523,22.045123,-142.184049
59966,NaN,-2.503075,8.095169,2.668136,-1.739759,0.840310,-1.141905,0.545153,-1.897654,-1.734080,0.104064,0.345040,-0.572141,-0.736731,83.316350,22.912503,-143.479372
59967,NaN,-2.896205,8.251603,2.730482,-1.600735,0.992085,-0.846914,0.753810,-2.153493,-1.831191,0.089765,0.342738,-0.572833,-0.739145,83.170589,23.817623,-144.951564
59968,NaN,-3.091841,8.344396,2.749619,-1.569838,1.020340,-0.688954,0.904787,-2.404858,-1.919147,0.074156,0.339729,-0.573921,-0.741417,83.017697,24.748860,-146.600265
59969,NaN,-3.027577,8.480728,2.680754,-1.703308,0.832249,-0.610482,1.022767,-2.590567,-1.997455,0.057489,0.336220,-0.575209,-0.743495,82.847745,25.710247,-148.387451
59970,NaN,-3.124083,8.759566,2.233082,-1.560521,0.363804,-0.383601,1.063791,-2.689272,-2.033609,0.040332,0.332342,-0.576456,-0.745399,82.638310,26.676752,-150.257982
59971,NaN,-2.949877,8.785102,1.845850,-1.612170,-0.100751,-0.502686,1.099761,-2.634287,-2.034952,0.023242,0.328590,-0.577628,-0.746883,82.426802,27.644665,-152.113744
59972,NaN,-2.934837,8.997032,1.710084,-1.756147,-0.341144,-0.363765,1.072338,-2.440081,-1.953347,0.007070,0.325215,-0.578656,-0.747892,82.226533,28.572422,-153.857154
59973,NaN,-3.174973,9.028635,1.521294,-1.616303,-0.464076,-0.269014,1.040892,-2.206915,-1.787968,-0.007773,0.322161,-0.579665,-0.748425,82.054579,29.422005,-155.453121
59974,NaN,-3.131673,9.077237,0.987340,-1.545869,-0.995569,-0.336607,1.022131,-1.950730,-1.571949,-0.021020,0.319362,-0.580857,-0.748446,81.939853,30.163507,-156.876247
59975,NaN,-2.705421,9.452579,0.821097,-2.089550,-1.425652,-0.276198,0.969364,-1.609892,-1.385332,-0.032503,0.317260,-0.582075,-0.747983,81.895001,30.827019,-158.069473
59976,NaN,-2.647786,9.543171,1.135780,-2.433779,-1.188258,-0.219125,0.944988,-1.195063,-1.220495,-0.042108,0.316186,-0.583479,-0.746864,81.972801,31.428504,-158.979401
59977,NaN,-3.240581,10.163125,1.433458,-2.474050,-0.916627,0.622009,0.927253,-0.833459,-1.110574,-0.050226,0.316128,-0.585003,-0.745193,82.160739,31.999793,-159.642568
59978,NaN,-3.402982,11.511903,1.432340,-3.071324,-1.260923,1.811907,0.847979,-0.559387,-1.058116,-0.057208,0.316928,-0.586361,-0.743279,82.399487,32.562695,-160.117889
59979,NaN,-3.797112,12.408549,1.306879,-3.259015,-1.508741,2.725203,0.721935,-0.359990,-1.070329,-0.063457,0.318532,-0.587245,-0.741386,82.632573,33.150470,-160.460392
59980,NaN,-5.796533,13.489730,1.263160,-2.325086,-1.311720,4.680046,0.526518,-0.456218,-1.126625,-0.069875,0.319986,-0.587272,-0.740161,82.713440,33.762586,-160.873146
59981,NaN,-7.624408,13.911874,1.337914,-1.276882,-0.929142,6.029203,0.279074,-0.946193,-1.180519,-0.077537,0.319858,-0.586082,-0.740396,82.453831,34.369567,-161.631522
59982,NaN,-8.329484,13.939066,1.712061,-1.013671,-0.551547,6.474525,0.055177,-1.653347,-1.233997,-0.087099,0.317325,-0.583667,-0.742328,81.774438,34.945151,-162.893643
59983,NaN,-6.929748,13.930346,1.591197,-2.163635,-1.191987,5.630810,-0.100226,-2.094948,-1.178146,-0.097489,0.313020,-0.580486,-0.745352,80.811083,35.436658,-164.474770
59984,NaN,-5.201530,14.110381,1.090601,-3.518395,-2.271448,4.672017,-0.185054,-2.076925,-1.012476,-0.107059,0.308296,-0.577187,-0.748563,79.799042,35.813202,-166.041722
59985,NaN,-4.080105,13.930424,1.009591,-4.352159,-2.650376,3.816541,-0.161806,-1.722780,-0.815976,-0.114897,0.304284,-0.574392,-0.751188,78.942866,36.096030,-167.351193
59986,NaN,-4.222611,13.582232,0.865139,-4.066853,-2.747352,3.565201,-0.087068,-1.267409,-0.573959,-0.120622,0.301222,-0.572477,-0.752985,78.329179,36.280360,-168.317487
59987,NaN,-4.667280,13.350471,0.823589,-3.619702,-2.703097,3.614435,0.046624,-0.927029,-0.366873,-0.124788,0.298754,-0.571554,-0.753990,77.944771,36.381610,-169.020833
59988,NaN,-5.070888,13.058293,0.953679,-3.211013,-2.460433,3.632685,0.152975,-0.726776,-0.216603,-0.127973,0.296542,-0.571377,-0.754463,77.717393,36.420107,-169.563058
59989,NaN,-5.155995,12.216888,1.217296,-2.788354,-1.947010,3.061810,0.244156,-0.565765,-0.105098,-0.130407,0.294551,-0.571799,-0.754506,77.617358,36.413934,-169.976938
59990,NaN,-5.831656,11.346901,1.400238,-1.846310,-1.400244,2.810762,0.381995,-0.478327,-0.014367,-0.132455,0.292543,-0.572933,-0.754071,77.641993,36.368210,-170.315691
59991,NaN,-5.804006,10.989046,1.586239,-1.727038,-1.092853,2.547923,0.509596,-0.448601,0.051959,-0.134347,0.290363,-0.574654,-0.753268,77.757366,36.288299,-170.623781
59992,NaN,-6.358893,10.337829,1.923676,-1.023254,-0.464241,2.424306,0.623667,-0.402366,0.095250,-0.136112,0.288159,-0.576894,-0.752084,77.962313,36.191423,-170.892971
59993,NaN,-7.280671,10.190016,2.262600,-0.285425,0.064912,2.910442,0.715990,-0.468347,0.146215,-0.138000,0.285485,-0.579498,-0.750757,78.197081,36.057809,-171.200733
59994,NaN,-8.289692,9.889548,2.224826,0.722279,0.278707,3.259132,0.852178,-0.843056,0.131602,-0.141226,0.281352,-0.582321,-0.749532,78.357606,35.890821,-171.770145
59995,NaN,-7.837908,9.590401,1.853585,0.654144,-0.027145,2.693936,0.969591,-1.257390,0.073201,-0.146028,0.275732,-0.585176,-0.748476,78.413888,35.708517,-172.633869
59996,NaN,-6.885640,9.376346,1.646924,0.086508,-0.261307,1.933138,0.998299,-1.422464,0.015134,-0.151567,0.269631,-0.587900,-0.747462,78.419468,35.541361,-173.617858
59997,NaN,-6.545006,8.978361,1.919201,-0.006039,0.077438,1.462299,0.959198,-1.362066,-0.046556,-0.157089,0.263940,-0.590395,-0.746386,78.424058,35.414707,-174.567278
59998,NaN,-6.770760,8.705678,2.177703,0.297754,0.415203,1.417331,0.877381,-1.211382,-0.060705,-0.162107,0.258907,-0.592649,-0.745289,78.443713,35.314612,-175.413535
59999,NaN,-6.765431,8.299316,2.288525,0.520344,0.623110,1.106469,0.808458,-1.035362,-0.037596,-0.166413,0.254498,-0.594787,-0.744154,78.496575,35.221005,-176.134704
60000,NaN,-6.681142,8.119607,2.458279,0.545794,0.833988,0.939769,0.776496,-0.830713,0.017550,-0.169865,0.250710,-0.597026,-0.742866,78.618677,35.121725,-176.706809
60001,NaN,-6.293376,8.062865,2.318321,0.310212,0.716004,0.645895,0.764105,-0.551748,0.098964,-0.172155,0.247712,-0.599538,-0.741320,78.850355,35.008294,-177.076037
60002,NaN,-6.042440,8.153414,1.877236,0.149641,0.302548,0.502301,0.791601,-0.167238,0.213147,-0.172907,0.245775,-0.602616,-0.739292,79.258957,34.875224,-177.166303
60003,NaN,-6.082453,8.320559,1.317974,0.199670,-0.202072,0.574015,0.849601,0.223523,0.320977,-0.172144,0.244896,-0.606362,-0.736694,79.860167,34.721585,-176.976238
60004,NaN,-6.455652,8.433982,0.921753,0.527984,-0.492849,0.823772,0.922504,0.505954,0.407925,-0.170295,0.244730,-0.610714,-0.733577,80.618103,34.545481,-176.584509
60005,NaN,-6.751522,8.357272,0.857360,0.849874,-0.399750,0.924092,1.017710,0.653174,0.451502,-0.167941,0.244876,-0.615568,-0.730005,81.486302,34.352293,-176.091123
60006,NaN,-6.760138,8.545087,0.959671,0.766329,-0.195298,1.096568,1.051751,0.641572,0.449174,-0.165672,0.244953,-0.620510,-0.726304,82.366170,34.154289,-175.610522
60007,NaN,-6.501387,8.476798,1.327314,0.563315,0.293968,0.933512,1.009303,0.480757,0.433512,-0.163894,0.244515,-0.625118,-0.722896,83.154352,33.946940,-175.246444
60008,NaN,-6.343455,8.005277,1.493275,0.692492,0.636466,0.466817,0.938593,0.282530,0.382062,-0.162836,0.243577,-0.629228,-0.719879,83.821581,33.753058,-175.026153
60009,NaN,-6.298008,7.440867,1.707036,0.956366,1.022993,-0.015566,0.922248,0.127614,0.331832,-0.162417,0.242242,-0.633072,-0.717049,84.415533,33.575921,-174.918726
60010,NaN,-6.325633,7.101958,1.560525,1.209679,1.011182,-0.304781,0.949097,0.089352,0.334143,-0.162144,0.240738,-0.636972,-0.714158,85.009751,33.395311,-174.839563
60011,NaN,-6.244823,7.146605,1.199968,1.195838,0.725407,-0.349349,0.971115,0.166949,0.383485,-0.161465,0.239327,-0.641050,-0.711130,85.644622,33.188808,-174.707371
60012,NaN,-6.447495,7.424602,0.890111,1.286975,0.489487,-0.035649,0.966725,0.244775,0.426450,-0.160379,0.238055,-0.645214,-0.708031,86.305929,32.960280,-174.522910
60013,NaN,-6.749833,7.783123,0.939709,1.374516,0.612338,0.422316,0.855208,0.232344,0.430130,-0.159179,0.236806,-0.648954,-0.705297,86.895293,32.727070,-174.350499
60014,NaN,-7.084224,7.958644,0.523866,1.647872,0.288874,0.723025,0.661665,0.171812,0.395585,-0.158069,0.235609,-0.651914,-0.703214,87.349835,32.511056,-174.223076
60015,NaN,-6.935070,7.977236,0.229051,1.577188,0.040631,0.641717,0.474602,0.072855,0.264561,-0.157517,0.234634,-0.653972,-0.701752,87.656659,32.366570,-174.168907
60016,NaN,-6.455074,8.101590,0.346349,1.105653,0.138382,0.491780,0.246938,0.013922,0.054439,-0.157630,0.234320,-0.654940,-0.700929,87.809258,32.341156,-174.160748
60017,NaN,-6.328079,8.144612,0.765538,0.917507,0.554367,0.474011,0.044459,0.095618,-0.146220,-0.157940,0.235107,-0.655021,-0.700519,87.871685,32.432245,-174.102702
60018,NaN,-6.834886,7.931931,1.250506,1.369100,1.106303,0.584260,-0.062388,0.222460,-0.307586,-0.158275,0.236952,-0.654642,-0.700176,87.918321,32.618485,-173.962034
60019,NaN,-7.530907,7.852059,1.508652,1.916968,1.439367,0.906390,-0.098193,0.318420,-0.439353,-0.158713,0.239590,-0.654048,-0.699734,87.977660,32.882046,-173.759069
60020,NaN,-7.910588,7.759938,1.623741,2.209667,1.608306,1.048296,-0.146928,0.408432,-0.494520,-0.158991,0.242761,-0.653289,-0.699287,88.044401,33.178785,-173.494567
60021,NaN,-7.947347,7.306943,1.798907,2.398289,1.842530,0.705903,-0.177919,0.450344,-0.487256,-0.159068,0.246078,-0.652448,-0.698895,88.109782,33.472197,-173.200356
60022,NaN,-7.785065,6.665426,1.770447,2.555599,1.874554,0.093083,-0.160780,0.391478,-0.489073,-0.159362,0.249177,-0.651619,-0.698504,88.165895,33.765009,-172.944811
60023,NaN,-7.209137,6.278552,1.735347,2.239873,1.829009,-0.536873,-0.104513,0.296164,-0.521420,-0.160151,0.252004,-0.650854,-0.698022,88.217408,34.075027,-172.755128
60024,NaN,-6.462876,6.162730,1.499126,1.669440,1.535253,-1.046212,-0.082380,0.275505,-0.550831,-0.161133,0.254832,-0.650116,-0.697457,88.276223,34.400769,-172.578693
60025,NaN,-5.957794,5.945790,1.221603,1.362301,1.238396,-1.509057,-0.063735,0.420476,-0.575886,-0.161758,0.258232,-0.649509,-0.696626,88.402525,34.743894,-172.301314
60026,NaN,-5.598365,5.810292,1.065280,1.111969,1.078435,-1.822934,-0.027138,0.649052,-0.592482,-0.161738,0.262445,-0.649194,-0.695349,88.645603,35.098298,-171.861312
60027,NaN,-5.578579,5.720338,0.831238,1.124038,0.887070,-1.908069,0.026059,0.828678,-0.587423,-0.161190,0.267222,-0.649189,-0.693660,88.994743,35.451096,-171.291861
60028,NaN,-5.682414,5.384890,0.632182,1.372270,0.783456,-2.119241,0.129907,0.911075,-0.577506,-0.160468,0.272157,-0.649618,-0.691504,89.445144,35.794558,-170.657952
60029,NaN,-5.671701,5.425280,0.510438,1.301733,0.709171,-2.088411,0.203723,0.897951,-0.595850,-0.159956,0.277043,-0.650234,-0.689099,89.937193,36.145467,-170.028032
60030,NaN,-5.642523,5.716750,0.356672,1.074227,0.573153,-1.865138,0.183144,0.811616,-0.654037,-0.159883,0.281825,-0.650623,-0.686805,90.390164,36.524407,-169.452026
60031,NaN,-5.777193,5.809210,-0.027967,1.131150,0.249479,-1.702112,0.180894,0.743434,-0.674049,-0.160103,0.286437,-0.650891,-0.684588,90.817808,36.913048,-168.919042
60032,NaN,-5.766469,5.978742,-0.430664,1.032881,-0.121597,-1.560361,0.231483,0.703141,-0.660839,-0.160468,0.290815,-0.651316,-0.682250,91.265540,37.289859,-168.407873
60033,NaN,-5.911624,6.429597,-0.699293,0.865867,-0.361819,-1.100919,0.273690,0.668092,-0.581780,-0.160745,0.294781,-0.651943,-0.679879,91.725503,37.620217,-167.918262
60034,NaN,-6.214007,6.349757,-0.970936,1.141986,-0.524963,-0.964192,0.253116,0.590964,-0.566281,-0.161177,0.298440,-0.652460,-0.677681,92.146595,37.938642,-167.478650
60035,NaN,-6.215129,6.292808,-1.215349,1.165802,-0.719827,-0.990744,0.258774,0.471713,-0.615136,-0.162181,0.301850,-0.652803,-0.675597,92.521451,38.287060,-167.120463
60036,NaN,-6.158825,6.883432,-1.405796,0.734377,-0.942614,-0.546578,0.221650,0.339251,-0.663633,-0.163711,0.304989,-0.652843,-0.673778,92.822133,38.663436,-166.852152
60037,NaN,-6.743251,7.282628,-1.685712,0.919387,-1.135979,0.147917,0.110715,0.143446,-0.659885,-0.165707,0.307550,-0.652333,-0.672618,92.970741,39.044263,-166.725405
60038,NaN,-7.435583,7.128877,-2.032786,1.539094,-1.346787,0.485756,0.007909,-0.139710,-0.664098,-0.168470,0.309248,-0.651240,-0.672212,92.931252,39.434004,-166.805662
60039,NaN,-6.189114,5.817309,-2.276360,1.403715,-1.709334,-1.301797,0.060610,-0.378951,-0.834577,-0.172676,0.310654,-0.649838,-0.671854,92.809755,39.929926,-167.059477
60040,NaN,-4.734349,6.596437,-2.036594,-0.303205,-1.813194,-1.646011,0.445338,-0.186275,-0.866318,-0.176943,0.312463,-0.649841,-0.669899,93.001360,40.436684,-167.168434
60041,NaN,-6.458776,7.859005,-2.125643,0.103510,-1.715274,0.436448,0.339329,0.043062,-0.620164,-0.179484,0.314337,-0.650053,-0.668138,93.237557,40.797622,-167.113570
60042,NaN,-5.558765,7.127580,-2.593552,-0.071758,-2.235829,-0.679004,0.409567,0.266301,-0.693704,-0.181641,0.317119,-0.650585,-0.665719,93.630503,41.190873,-166.882571
60043,NaN,-5.325528,6.984428,-2.710499,-0.198255,-2.331248,-0.923618,0.533794,0.649904,-0.667927,-0.182668,0.320982,-0.651896,-0.662295,94.291232,41.554384,-166.355159
60044,NaN,-6.289892,7.237276,-2.570724,0.239449,-1.973276,-0.086569,0.572444,0.804203,-0.625502,-0.183097,0.325164,-0.653531,-0.658515,95.059971,41.879699,-165.702975
60045,NaN,-6.623257,7.255898,-2.798292,0.437529,-2.057723,0.183283,0.531805,0.719784,-0.623008,-0.183732,0.329094,-0.654931,-0.654985,95.770157,42.203580,-165.107263
60046,NaN,-6.559482,7.219296,-2.996414,0.382265,-2.190595,0.146124,0.502884,0.593159,-0.599462,-0.184641,0.332542,-0.656148,-0.651762,96.405026,42.514786,-164.602665
60047,NaN,-6.750012,7.357893,-3.052455,0.363329,-2.159368,0.396290,0.451684,0.439548,-0.591742,-0.185952,0.335512,-0.657049,-0.648953,96.936085,42.829721,-164.211025
60048,NaN,-6.901678,7.427876,-2.856474,0.311678,-1.898185,0.544200,0.419184,0.245448,-0.621844,-0.187928,0.337968,-0.657608,-0.646539,97.353160,43.171496,-163.961539
60049,NaN,-7.064140,7.748562,-2.783879,0.114019,-1.789114,0.886744,0.338810,0.049754,-0.638406,-0.190474,0.339924,-0.657681,-0.644691,97.624738,43.537862,-163.858967
60050,NaN,-6.863184,7.601691,-2.939052,0.028834,-1.964053,0.659573,0.255878,-0.094695,-0.626989,-0.193303,0.341443,-0.657364,-0.643368,97.771415,43.906886,-163.868629
60051,NaN,-6.549920,7.351094,-2.881610,-0.095113,-1.958012,0.257093,0.214036,-0.134388,-0.604643,-0.196128,0.342806,-0.656903,-0.642259,97.871885,44.267943,-163.910870
60052,NaN,-6.491745,7.309745,-2.433478,-0.255518,-1.534078,0.141100,0.188108,-0.113847,-0.620194,-0.198878,0.344299,-0.656346,-0.641183,97.969780,44.634647,-163.934618
60053,NaN,-6.587788,7.283518,-1.859923,-0.342480,-0.959223,0.130658,0.160085,-0.120813,-0.644645,-0.201689,0.345882,-0.655642,-0.640172,98.050848,45.017328,-163.960211
60054,NaN,-6.765503,6.904638,-1.415845,-0.099760,-0.477729,-0.055018,0.162016,-0.168145,-0.681881,-0.204765,0.347422,-0.654825,-0.639198,98.108331,45.423444,-164.019512
60055,NaN,-6.775736,6.481928,-0.953808,0.060442,-0.011182,-0.387637,0.197314,-0.216048,-0.687171,-0.208083,0.348792,-0.654052,-0.638170,98.159464,45.837948,-164.116541
60056,NaN,-6.393011,6.284245,-0.606893,-0.178086,0.254950,-0.833066,0.241670,-0.250309,-0.674458,-0.211537,0.349953,-0.653399,-0.637068,98.213192,46.246635,-164.243630
60057,NaN,-6.120075,6.053763,-0.559715,-0.259090,0.254490,-1.193841,0.288682,-0.234302,-0.604042,-0.214804,0.350887,-0.653025,-0.635843,98.297528,46.615640,-164.365750
60058,NaN,-6.106364,6.140347,-0.978515,-0.313778,-0.164442,-1.105028,0.332703,-0.139434,-0.496895,-0.217485,0.351714,-0.653075,-0.634422,98.453595,46.914710,-164.422446
60059,NaN,-6.257059,6.443707,-1.393501,-0.416586,-0.549129,-0.749645,0.349613,0.018048,-0.396183,-0.219369,0.352698,-0.653520,-0.632766,98.707583,47.144816,-164.359191
60060,NaN,-6.835923,6.579973,-1.776693,-0.118842,-0.803420,-0.193814,0.329688,0.163001,-0.338918,-0.220553,0.353966,-0.654158,-0.630985,99.034066,47.328059,-164.180977
60061,NaN,-7.345764,6.790858,-1.883315,0.033003,-0.794347,0.335741,0.316732,0.200530,-0.327292,-0.221562,0.355332,-0.654813,-0.629181,99.378092,47.501928,-163.970314
60062,NaN,-7.635820,6.644210,-1.765534,0.269270,-0.588877,0.441526,0.334009,0.141297,-0.349956,-0.222856,0.356558,-0.655412,-0.627404,99.698762,47.692046,-163.804354
60063,NaN,-7.741416,6.453886,-1.737148,0.427239,-0.509844,0.393052,0.367363,0.030355,-0.419041,-0.224797,0.357630,-0.655865,-0.625626,99.980116,47.932772,-163.718849
60064,NaN,-7.849480,6.228043,-1.633628,0.596280,-0.364514,0.315635,0.391543,-0.086713,-0.477451,-0.227338,0.358490,-0.656150,-0.623915,100.208907,48.216611,-163.721933
60065,NaN,-7.672473,6.060708,-1.690918,0.558709,-0.441286,0.084335,0.424603,-0.192630,-0.522101,-0.230430,0.359131,-0.656332,-0.622218,100.397022,48.537850,-163.805852
60066,NaN,-7.380780,6.106539,-1.769499,0.288667,-0.573164,-0.092363,0.425972,-0.264468,-0.535391,-0.233790,0.359579,-0.656401,-0.620631,100.540446,48.872847,-163.948784
60067,NaN,-7.041743,6.116674,-1.999118,0.037523,-0.861653,-0.312573,0.409820,-0.249061,-0.525537,-0.237046,0.360063,-0.656448,-0.619063,100.684517,49.202302,-164.079032
60068,NaN,-7.193548,6.317113,-1.978172,-0.083954,-0.817375,-0.071498,0.403295,-0.200540,-0.522116,-0.240108,0.360682,-0.656529,-0.617434,100.854751,49.523472,-164.168095
60069,NaN,-7.529538,6.253951,-1.890157,0.101536,-0.668338,0.133229,0.390642,-0.236224,-0.527252,-0.243287,0.361227,-0.656512,-0.615888,100.996531,49.852928,-164.285757
60070,NaN,-7.385410,6.038799,-1.675485,0.089465,-0.479810,-0.139007,0.423380,-0.288467,-0.554004,-0.246765,0.361645,-0.656474,-0.614297,101.123808,50.201984,-164.445017
60071,NaN,-7.360042,5.893051,-1.431086,0.094704,-0.245641,-0.279763,0.471487,-0.369449,-0.569391,-0.250649,0.361808,-0.656447,-0.612656,101.226661,50.570241,-164.672196
60072,NaN,-7.118684,5.756131,-1.353577,-0.017680,-0.215206,-0.560989,0.508693,-0.428700,-0.578482,-0.254809,0.361758,-0.656429,-0.610987,101.308025,50.949119,-164.952174
60073,NaN,-6.793123,5.717478,-1.428905,-0.239388,-0.349774,-0.829487,0.531706,-0.457701,-0.569979,-0.259083,0.361563,-0.656447,-0.609283,101.380547,51.328080,-165.260192
60074,NaN,-6.456593,5.662320,-1.500105,-0.452184,-0.477361,-1.119750,0.543395,-0.404372,-0.557114,-0.263150,0.361457,-0.656579,-0.607458,101.491433,51.692714,-165.524915
60075,NaN,-6.564521,5.834734,-1.470316,-0.585828,-0.429448,-0.937385,0.526776,-0.326777,-0.537428,-0.266876,0.361545,-0.656787,-0.605552,101.645568,52.039065,-165.722497
60076,NaN,-6.741119,5.727009,-1.186093,-0.475188,-0.117486,-0.901554,0.510383,-0.287131,-0.512383,-0.270353,0.361679,-0.657031,-0.603662,101.812812,52.365787,-165.889460
60077,NaN,-6.748722,5.688097,-0.894488,-0.515694,0.179018,-0.958220,0.513596,-0.241265,-0.497714,-0.273646,0.361901,-0.657365,-0.601679,102.014799,52.680420,-166.015466
60078,NaN,-6.919912,5.694926,-0.833003,-0.475465,0.274007,-0.828818,0.497572,-0.230051,-0.489070,-0.276834,0.362138,-0.657670,-0.599741,102.213035,52.987899,-166.132922
60079,NaN,-6.949944,5.534824,-0.845979,-0.377517,0.271960,-0.900056,0.506747,-0.219723,-0.486255,-0.280000,0.362385,-0.658015,-0.597740,102.425929,53.293969,-166.239298
60080,NaN,-7.130791,5.516299,-0.887322,-0.304132,0.266127,-0.762740,0.508358,-0.214426,-0.474376,-0.283104,0.362595,-0.658383,-0.595742,102.640610,53.591798,-166.343044
60081,NaN,-7.112626,5.415324,-0.831117,-0.284693,0.326022,-0.845056,0.502639,-0.221472,-0.474485,-0.286226,0.362794,-0.658715,-0.593759,102.848911,53.891947,-166.451311
60082,NaN,-7.251169,5.435671,-0.774279,-0.273612,0.410233,-0.730720,0.496248,-0.238669,-0.476542,-0.289387,0.362947,-0.658990,-0.591825,103.039469,54.194532,-166.575492
60083,NaN,-7.320684,5.417142,-0.753562,-0.268246,0.445625,-0.689367,0.475100,-0.261737,-0.464943,-0.292554,0.363025,-0.659182,-0.590003,103.199617,54.494984,-166.722710
60084,NaN,-7.051905,5.416382,-0.930813,-0.458378,0.238209,-0.887109,0.425850,-0.254865,-0.443928,-0.295537,0.363115,-0.659268,-0.588363,103.331234,54.781915,-166.868783
60085,NaN,-7.041730,5.544085,-1.094258,-0.608824,0.083798,-0.804780,0.336271,-0.202142,-0.444025,-0.298188,0.363495,-0.659162,-0.586908,103.454539,55.063172,-166.962706
60086,NaN,-6.969361,5.627256,-1.178274,-0.759922,-0.000983,-0.809983,0.269758,-0.125555,-0.441468,-0.300448,0.364181,-0.658973,-0.585540,103.599270,55.331785,-166.982895
60087,NaN,-7.293342,5.645268,-1.078410,-0.643364,0.147265,-0.550448,0.250505,-0.057039,-0.452600,-0.302484,0.365137,-0.658807,-0.584082,103.793039,55.598331,-166.930970
60088,NaN,-7.592379,5.781577,-1.025330,-0.641092,0.256019,-0.239526,0.262505,-0.007412,-0.472024,-0.304427,0.366275,-0.658709,-0.582468,104.038573,55.867731,-166.824026
60089,NaN,-7.541666,5.921584,-0.920474,-0.838101,0.376780,-0.223915,0.271663,0.048038,-0.486118,-0.306248,0.367610,-0.658692,-0.580689,104.342183,56.137798,-166.654513
60090,NaN,-7.886070,6.023204,-0.941044,-0.787633,0.426746,0.114644,0.275291,0.090373,-0.502355,-0.307975,0.369106,-0.658715,-0.578798,104.688849,56.409334,-166.435458
60091,NaN,-8.103302,6.032827,-1.112308,-0.729219,0.309350,0.319834,0.279328,0.104029,-0.506918,-0.309681,0.370653,-0.658756,-0.576849,105.056038,56.681451,-166.195995
60092,NaN,-8.237670,6.148533,-1.128172,-0.811292,0.344052,0.490687,0.287905,0.134285,-0.528560,-0.311356,0.372337,-0.658822,-0.574784,105.462291,56.959249,-165.915759
60093,NaN,-8.605216,5.898174,-0.858798,-0.468749,0.668538,0.623247,0.298779,0.059198,-0.551580,-0.313368,0.373864,-0.658753,-0.572774,105.822909,57.261049,-165.698864
60094,NaN,-8.541350,5.410622,-0.366105,-0.154771,1.131630,0.240108,0.335783,-0.091176,-0.562978,-0.315968,0.374932,-0.658526,-0.570906,106.081413,57.591435,-165.628417
60095,NaN,-8.161576,4.865597,0.102588,0.052733,1.513267,-0.431700,0.363938,-0.207942,-0.534932,-0.318926,0.375529,-0.658239,-0.569197,106.250825,57.925587,-165.683176
60096,NaN,-7.322718,4.451271,0.091548,-0.069901,1.365052,-1.352428,0.362671,-0.176727,-0.476765,-0.321605,0.376017,-0.658101,-0.567525,106.432043,58.222099,-165.722441
60097,NaN,-7.007309,4.398550,-0.152010,-0.222402,1.088247,-1.612756,0.334732,-0.002121,-0.394134,-0.323425,0.376775,-0.658312,-0.565740,106.733194,58.445523,-165.602265
60098,NaN,-7.098011,4.743812,-0.479433,-0.505286,0.824929,-1.316841,0.283560,0.236682,-0.322610,-0.324154,0.378049,-0.658897,-0.563790,107.201658,58.588640,-165.251363
60099,NaN,-7.696617,4.981066,-0.819840,-0.436524,0.624271,-0.639870,0.243777,0.425156,-0.277679,-0.324062,0.379771,-0.659753,-0.561680,107.807581,58.673734,-164.713486
60100,NaN,-8.542821,5.045340,-1.031063,-0.094642,0.586371,0.144483,0.235923,0.485544,-0.267130,-0.323718,0.381634,-0.660701,-0.559497,108.462360,58.738499,-164.113314
60101,NaN,-9.349354,5.063665,-0.968042,0.261368,0.816995,0.829311,0.250350,0.403598,-0.308792,-0.323791,0.383382,-0.661469,-0.557347,109.067883,58.838248,-163.581143
60102,NaN,-9.786459,4.706202,-0.849671,0.752218,1.009643,1.006722,0.295097,0.196062,-0.337640,-0.324710,0.384569,-0.661968,-0.555399,109.525347,58.989618,-163.252278
60103,NaN,-9.664925,4.529864,-0.826375,0.805428,1.023958,0.813505,0.350800,-0.009123,-0.353396,-0.326462,0.385148,-0.662251,-0.553630,109.838796,59.188734,-163.129227
60104,NaN,-9.317921,4.128471,-1.042339,0.942114,0.731647,0.362349,0.360604,-0.167105,-0.365744,-0.328782,0.385309,-0.662278,-0.552111,110.020711,59.424284,-163.165794
60105,NaN,-8.679445,3.986076,-1.139854,0.713093,0.527006,-0.234876,0.362667,-0.213486,-0.362419,-0.331255,0.385328,-0.662232,-0.550674,110.161151,59.668147,-163.251860
60106,NaN,-8.640363,3.744763,-0.871522,0.870154,0.758293,-0.426187,0.379261,-0.237502,-0.348916,-0.333793,0.385202,-0.662215,-0.549248,110.284489,59.908684,-163.368398
60107,NaN,-8.550593,3.455073,-0.686494,1.048353,0.891913,-0.667919,0.376284,-0.268477,-0.327499,-0.336373,0.384925,-0.662171,-0.547920,110.369640,60.145017,-163.526843
60108,NaN,-8.171320,3.340167,-0.867307,0.930796,0.643099,-1.014996,0.395527,-0.208698,-0.308276,-0.338729,0.384709,-0.662315,-0.546443,110.514842,60.358195,-163.628393
60109,NaN,-8.076078,3.367604,-0.752242,0.834629,0.747016,-1.102064,0.398663,-0.128752,-0.274649,-0.340741,0.384596,-0.662658,-0.544854,110.725807,60.538529,-163.656248
60110,NaN,-7.984676,3.241152,-0.769438,0.876009,0.708900,-1.234682,0.392666,-0.096784,-0.245771,-0.342546,0.384478,-0.663096,-0.543270,110.954480,60.695769,-163.659755
60111,NaN,-7.953895,3.135397,-0.681297,0.933903,0.785973,-1.323320,0.383019,-0.080173,-0.234272,-0.344254,0.384386,-0.663548,-0.541702,111.190128,60.844728,-163.648934
60112,NaN,-7.703764,3.049453,-0.733748,0.868775,0.698111,-1.569911,0.375606,-0.046466,-0.214589,-0.345771,0.384326,-0.664079,-0.540126,111.447949,60.974852,-163.607889
60113,NaN,-7.510415,3.630570,-1.060209,0.230609,0.432568,-1.417982,0.339816,0.006068,-0.186782,-0.346978,0.384380,-0.664647,-0.538611,111.726135,61.080398,-163.520144
60114,NaN,-7.491537,3.760608,-1.367069,0.074560,0.159853,-1.321337,0.270393,0.068553,-0.160885,-0.347763,0.384632,-0.665191,-0.537252,112.016349,61.157219,-163.373344
60115,NaN,-7.735657,3.909366,-1.479355,0.034126,0.118339,-1.020826,0.221098,0.080878,-0.145046,-0.348380,0.384952,-0.665646,-0.536059,112.284638,61.224051,-163.219388
60116,NaN,-7.723012,4.299761,-1.769288,-0.347555,-0.099747,-0.805333,0.194589,0.133567,-0.149125,-0.348770,0.385469,-0.666119,-0.534845,112.591582,61.279722,-163.004154
60117,NaN,-7.887969,4.690291,-1.897138,-0.640491,-0.125258,-0.464319,0.194840,0.266384,-0.170034,-0.348782,0.386413,-0.666776,-0.533335,113.035897,61.317649,-162.632522
60118,NaN,-8.171473,4.932983,-2.100700,-0.753941,-0.212195,-0.070687,0.223814,0.428302,-0.206456,-0.348397,0.387853,-0.667725,-0.531350,113.669069,61.334880,-162.064700
60119,NaN,-8.426446,5.120918,-2.268775,-0.833757,-0.257222,0.267711,0.244049,0.595805,-0.256993,-0.347631,0.389872,-0.668909,-0.528879,114.495938,61.337221,-161.289357
60120,NaN,-8.661510,4.800021,-2.461631,-0.476272,-0.380134,0.373069,0.290974,0.734560,-0.321955,-0.346651,0.392384,-0.670327,-0.525861,115.510531,61.332403,-160.330742
60121,NaN,-9.155431,4.542608,-2.410480,-0.052275,-0.199040,0.686096,0.356738,0.789399,-0.379863,-0.345769,0.395116,-0.671881,-0.522402,116.640529,61.336190,-159.283527
60122,NaN,-9.299063,4.326294,-2.362483,0.171466,-0.064902,0.710442,0.409635,0.771449,-0.397572,-0.345082,0.397756,-0.673496,-0.518760,117.792943,61.342477,-158.245372
60123,NaN,-9.466554,3.701748,-1.841352,0.792653,0.471985,0.476012,0.468554,0.692055,-0.399966,-0.344786,0.400091,-0.675103,-0.515060,118.907456,61.362938,-157.289025
60124,NaN,-8.995918,3.290014,-1.764395,0.919859,0.482286,-0.128451,0.510086,0.666267,-0.375711,-0.344582,0.402194,-0.676811,-0.511303,120.010780,61.368471,-156.372633
60125,NaN,-8.962734,3.296785,-1.912407,0.856560,0.415746,-0.119933,0.514765,0.696029,-0.351137,-0.344226,0.404277,-0.678611,-0.507500,121.130261,61.346017,-155.440854
60126,NaN,-9.216641,3.576267,-2.164631,0.669431,0.352835,0.279310,0.518166,0.711005,-0.328913,-0.343752,0.406304,-0.680481,-0.503684,122.250670,61.298165,-154.509884
60127,NaN,-9.580469,3.963827,-2.263106,0.439679,0.485138,0.779269,0.524245,0.671642,-0.324780,-0.343417,0.408202,-0.682286,-0.499922,123.334257,61.253379,-153.624530
60128,NaN,-10.037126,3.998479,-2.134481,0.577544,0.797161,1.156273,0.528255,0.541522,-0.327858,-0.343525,0.409767,-0.683865,-0.496398,124.306482,61.242504,-152.868514
60129,NaN,-10.158804,3.864680,-1.775465,0.734680,1.216483,1.108362,0.528832,0.368591,-0.329107,-0.344234,0.410903,-0.685128,-0.493216,125.131299,61.284456,-152.281156
60130,NaN,-9.902856,3.509574,-1.467354,0.928783,1.443510,0.655846,0.525751,0.187703,-0.313671,-0.345503,0.411537,-0.686102,-0.490437,125.792894,61.374159,-151.878128
60131,NaN,-9.275379,3.336798,-1.371398,0.791004,1.399795,0.008835,0.527390,0.141967,-0.293561,-0.346892,0.411986,-0.687028,-0.487776,126.407135,61.469498,-151.530447
60132,NaN,-8.965447,3.522956,-1.351792,0.462633,1.418921,-0.200703,0.517117,0.200755,-0.269054,-0.347982,0.412505,-0.688083,-0.485068,127.052745,61.529940,-151.140632
60133,NaN,-9.177399,3.798129,-1.331510,0.275318,1.582518,0.078871,0.508595,0.287530,-0.251059,-0.348722,0.413186,-0.689288,-0.482236,127.756335,61.551603,-150.679391
60134,NaN,-9.513166,4.039004,-1.234923,0.176968,1.851507,0.428367,0.517092,0.343071,-0.268168,-0.349313,0.414037,-0.690577,-0.479225,128.523156,61.556693,-150.151907
60135,NaN,-9.580577,4.192743,-1.290725,0.030682,1.903415,0.551105,0.544002,0.379709,-0.295575,-0.349907,0.415021,-0.691920,-0.475993,129.353318,61.559228,-149.569757
60136,NaN,-9.441903,4.487530,-1.704957,-0.363867,1.602165,0.651274,0.553115,0.439349,-0.332706,-0.350384,0.416251,-0.693310,-0.472532,130.262793,61.550091,-148.903509
60137,NaN,-9.457584,4.778519,-2.143479,-0.699234,1.325674,0.893743,0.520274,0.540557,-0.364980,-0.350526,0.417884,-0.694712,-0.468913,131.254899,61.513851,-148.121408
60138,NaN,-8.891965,4.813504,-2.728836,-1.053595,0.720491,0.582192,0.438997,0.658533,-0.401680,-0.350154,0.420054,-0.696050,-0.465254,132.316919,61.439548,-147.206636
60139,NaN,-8.949932,4.652405,-2.824185,-0.931472,0.696675,0.597328,0.322279,0.727512,-0.455506,-0.349429,0.422769,-0.697099,-0.461756,133.397218,61.354813,-146.193780
60140,NaN,-9.221931,4.140821,-2.765922,-0.392094,0.796926,0.630071,0.236723,0.696689,-0.504331,-0.348721,0.425722,-0.697790,-0.458522,134.436013,61.291526,-145.172046
60141,NaN,-9.206453,3.698657,-2.412181,-0.003862,1.104801,0.337991,0.171584,0.657025,-0.521527,-0.348060,0.428751,-0.698202,-0.455567,135.415402,61.244626,-144.174498
60142,NaN,-9.164755,3.325119,-2.095038,0.308863,1.377740,0.058699,0.140322,0.602862,-0.510519,-0.347476,0.431663,-0.698470,-0.452843,136.327356,61.205708,-143.233499
60143,NaN,-8.975320,3.228125,-2.375504,0.258502,1.105174,-0.048903,0.107427,0.614414,-0.463235,-0.346683,0.434488,-0.698764,-0.450289,137.188553,61.138504,-142.327935
60144,NaN,-8.647780,3.397621,-2.774129,-0.091196,0.737638,-0.144651,0.088410,0.625853,-0.380403,-0.345602,0.437075,-0.699216,-0.447908,137.979889,61.026053,-141.489460
60145,NaN,-8.501463,3.377023,-3.180973,-0.188684,0.370972,-0.136726,0.076080,0.587863,-0.312844,-0.344486,0.439357,-0.699701,-0.445772,138.678413,60.901048,-140.747556
60146,NaN,-8.687399,3.276876,-3.437703,-0.068127,0.222092,0.085415,0.073845,0.483043,-0.256071,-0.343588,0.441206,-0.700132,-0.443960,139.256626,60.793799,-140.141648
60147,NaN,-8.726812,3.176889,-3.270111,0.037149,0.410552,0.024662,0.094475,0.346992,-0.205402,-0.343112,0.442538,-0.700469,-0.442467,139.711842,60.726491,-139.689184
60148,NaN,-8.754847,2.928999,-2.848815,0.298791,0.784398,-0.187849,0.087650,0.195549,-0.162136,-0.343039,0.443393,-0.700638,-0.441399,140.029356,60.705862,-139.390463
60149,NaN,-8.980479,2.804744,-2.410634,0.522648,1.245355,-0.194857,0.041600,-0.007640,-0.113295,-0.343483,0.443707,-0.700451,-0.441034,140.147615,60.758273,-139.289394
60150,NaN,-8.969584,2.655624,-2.305639,0.654308,1.298054,-0.288578,-0.024524,-0.207756,-0.067893,-0.344366,0.443534,-0.699888,-0.441414,140.062224,60.879700,-139.378832
60151,NaN,-8.841090,3.030367,-2.651545,0.219731,0.993281,-0.151233,-0.131108,-0.318226,-0.038244,-0.345349,0.443197,-0.698950,-0.442471,139.816411,61.040907,-139.581169
60152,NaN,-9.314144,3.508518,-2.916051,-0.079109,0.958985,0.513987,-0.272125,-0.419835,-0.034783,-0.346349,0.442863,-0.697542,-0.444241,139.417155,61.242226,-139.866716
60153,NaN,-9.761597,3.824223,-2.901640,-0.213211,1.116315,1.005856,-0.382209,-0.582243,-0.048962,-0.347716,0.442405,-0.695557,-0.446735,138.847168,61.520516,-140.273558
60154,NaN,-10.133775,3.931783,-2.444300,-0.148401,1.591479,1.213248,-0.478049,-0.780851,-0.093797,-0.349640,0.441818,-0.692915,-0.449907,138.108861,61.896342,-140.808620
60155,NaN,-10.423652,3.767371,-1.792672,0.145351,2.139654,1.208139,-0.557916,-1.022402,-0.143115,-0.352342,0.440986,-0.689529,-0.453801,137.166585,62.392230,-141.519646
60156,NaN,-10.365225,3.611193,-1.669430,0.251269,2.070145,1.092126,-0.639388,-1.246130,-0.177601,-0.355683,0.439891,-0.685473,-0.458380,136.004833,62.986137,-142.422415
60157,NaN,-9.351312,4.033959,-2.097349,-0.571874,1.319965,0.485250,-0.713410,-1.250252,-0.176502,-0.358872,0.438890,-0.681192,-0.463211,134.748207,63.575057,-143.378219
60158,NaN,-8.591103,4.969442,-2.787119,-1.792353,0.503976,0.326474,-0.791544,-0.944482,-0.174669,-0.360810,0.438713,-0.677267,-0.467607,133.659561,64.029524,-144.093565
60159,NaN,-8.270108,5.841720,-3.519818,-2.787559,-0.227281,0.535582,-0.831290,-0.447586,-0.195413,-0.361031,0.439824,-0.674063,-0.471010,132.964500,64.294912,-144.343042
60160,NaN,-8.899127,6.125902,-3.527276,-2.836504,-0.093150,1.192231,-0.771104,0.081396,-0.258369,-0.359728,0.442277,-0.671820,-0.472910,132.814862,64.377105,-144.026379
60161,NaN,-9.590957,5.981115,-3.799740,-2.483075,-0.220177,1.848533,-0.622228,0.420593,-0.307146,-0.357737,0.445419,-0.670406,-0.473479,133.083305,64.349449,-143.339476
60162,NaN,-9.936049,5.856847,-4.090630,-2.276902,-0.406957,2.204423,-0.413110,0.597227,-0.383182,-0.355781,0.448855,-0.669637,-0.472795,133.688708,64.279405,-142.412534
60163,NaN,-10.106584,5.338267,-4.017711,-1.756687,-0.325862,2.170203,-0.189649,0.580999,-0.476042,-0.354605,0.452156,-0.669134,-0.471242,134.477425,64.251202,-141.422582
60164,NaN,-9.427931,4.534724,-4.090777,-1.279031,-0.643582,1.328835,-0.012026,0.545692,-0.550273,-0.354108,0.455303,-0.668824,-0.469021,135.403070,64.258912,-140.394775
60165,NaN,-8.742378,3.843241,-3.871228,-0.896771,-0.672703,0.430796,0.085847,0.490682,-0.569857,-0.354068,0.458203,-0.668578,-0.466572,136.352958,64.291653,-139.401212
60166,NaN,-8.314457,2.830474,-2.917467,-0.088435,0.010753,-0.558222,0.113360,0.410962,-0.570182,-0.354344,0.460867,-0.668258,-0.464191,137.260580,64.348906,-138.473680
60167,NaN,-7.862428,2.037106,-2.368811,0.495437,0.323894,-1.373004,0.054190,0.374494,-0.516586,-0.354486,0.463363,-0.667839,-0.462196,138.057439,64.396805,-137.630572
60168,NaN,-7.809309,1.837144,-2.359775,0.633601,0.323963,-1.480679,-0.063478,0.441481,-0.431267,-0.353922,0.465936,-0.667471,-0.460570,138.769278,64.376856,-136.808310
60169,NaN,-7.912570,2.332543,-3.349465,0.131153,-0.467935,-0.922690,-0.208271,0.622056,-0.359710,-0.352259,0.468934,-0.667235,-0.459143,139.467841,64.249459,-135.907031
60170,NaN,-8.352205,3.390726,-4.171881,-0.780062,-0.907023,0.047810,-0.332641,0.846483,-0.358390,-0.349535,0.472656,-0.667112,-0.457584,140.258506,64.016194,-134.824021
60171,NaN,-9.035017,3.689136,-4.386484,-0.867072,-0.787451,0.822638,-0.451640,0.931466,-0.397974,-0.346339,0.476896,-0.666741,-0.456153,141.059092,63.755050,-133.650622
60172,NaN,-9.578118,3.390517,-4.816235,-0.437609,-0.980976,1.380068,-0.520102,0.894522,-0.476758,-0.343260,0.481422,-0.665954,-0.454874,141.849696,63.529487,-132.443258
60173,NaN,-10.612150,3.489271,-5.156758,-0.248589,-0.877995,2.457268,-0.498473,0.718058,-0.590787,-0.341080,0.485871,-0.664608,-0.453751,142.614871,63.418467,-131.275322
60174,NaN,-10.890173,3.336897,-5.393768,-0.065269,-0.971342,2.752159,-0.421400,0.455928,-0.694159,-0.340175,0.489929,-0.662732,-0.452809,143.336217,63.454401,-130.206451
60175,NaN,-10.401899,3.019377,-5.495594,0.039453,-1.237596,2.269702,-0.300039,0.271680,-0.758225,-0.340325,0.493563,-0.660638,-0.451810,144.062741,63.592899,-129.209305
60176,NaN,-9.761650,2.302125,-4.948496,0.481537,-1.005103,1.315415,-0.149737,0.147176,-0.800904,-0.341339,0.496795,-0.658564,-0.450528,144.844776,63.795987,-128.248758
60177,NaN,-8.446027,1.296737,-4.766911,1.019798,-1.377253,-0.179248,0.009837,0.162374,-0.783585,-0.342663,0.499720,-0.656898,-0.448717,145.722654,63.981811,-127.284046
60178,NaN,-7.981353,0.923732,-4.836258,1.192093,-1.615174,-0.652207,0.102024,0.302855,-0.741638,-0.343647,0.502660,-0.655783,-0.446304,146.718107,64.078658,-126.249321
60179,NaN,-8.078944,0.480327,-4.647259,1.587493,-1.413052,-0.725342,0.149693,0.351088,-0.655113,-0.344404,0.505331,-0.655056,-0.443766,147.690267,64.119312,-125.270801
60180,NaN,-8.101469,0.127151,-4.699449,1.881461,-1.451379,-0.752441,0.160679,0.319861,-0.584543,-0.345120,0.507679,-0.654478,-0.441376,148.582650,64.145162,-124.388865
60181,NaN,-8.439333,0.201958,-4.498669,1.841822,-1.106141,-0.491474,0.153449,0.229889,-0.554507,-0.346052,0.509735,-0.653789,-0.439293,149.386729,64.202297,-123.600313
60182,NaN,-8.482472,0.071370,-4.245018,1.929692,-0.848310,-0.564226,0.144057,0.081348,-0.525038,-0.347368,0.511382,-0.652900,-0.437659,150.071344,64.318282,-122.939408
60183,NaN,-8.315359,0.239162,-4.308716,1.678055,-0.946706,-0.644529,0.131250,-0.047426,-0.495059,-0.349015,0.512667,-0.651823,-0.436449,150.647462,64.488429,-122.391246
60184,NaN,-8.268148,0.433045,-4.188689,1.432775,-0.838985,-0.683723,0.113242,-0.132145,-0.470843,-0.350825,0.513717,-0.650625,-0.435550,151.145765,64.690317,-121.918875
60185,NaN,-8.362377,0.352626,-3.752124,1.491521,-0.420967,-0.772217,0.090394,-0.234273,-0.448756,-0.352870,0.514510,-0.649241,-0.435027,151.555765,64.937569,-121.530442
60186,NaN,-8.280597,0.382272,-3.644297,1.402858,-0.369040,-0.874515,0.091181,-0.307867,-0.424626,-0.355090,0.515058,-0.647796,-0.434726,151.904404,65.212617,-121.211046
60187,NaN,-8.376059,0.915616,-3.619429,0.861794,-0.289101,-0.687419,0.091862,-0.329797,-0.398969,-0.357336,0.515472,-0.646366,-0.434525,152.220290,65.492827,-120.928905
60188,NaN,-8.613708,1.372243,-3.433617,0.429236,-0.016952,-0.448712,0.070165,-0.306901,-0.372339,-0.359379,0.515884,-0.645002,-0.434376,152.513000,65.751977,-120.659088
60189,NaN,-9.014701,1.689763,-3.277230,0.166173,0.272709,-0.078304,0.075833,-0.293290,-0.358346,-0.361374,0.516268,-0.643699,-0.434199,152.808004,66.001687,-120.390986
60190,NaN,-9.378280,2.172993,-3.184056,-0.270249,0.503330,0.310834,0.092667,-0.312628,-0.356505,-0.363455,0.516569,-0.642407,-0.434016,153.103893,66.258476,-120.132861
60191,NaN,-9.402402,2.510097,-2.999699,-0.634163,0.684397,0.327982,0.107699,-0.334009,-0.367873,-0.365679,0.516831,-0.641066,-0.433819,153.416218,66.530346,-119.866830
60192,NaN,-9.556500,2.583105,-2.688779,-0.712908,1.005282,0.371103,0.120795,-0.319723,-0.391912,-0.367928,0.517172,-0.639722,-0.433494,153.778882,66.798612,-119.554584
60193,NaN,-9.518224,2.460986,-1.956865,-0.630465,1.635800,0.056901,0.171022,-0.367006,-0.407425,-0.370501,0.517365,-0.638346,-0.433102,154.170014,67.096107,-119.243361
60194,NaN,-9.050744,2.121185,-1.292194,-0.413944,2.039265,-0.660912,0.195538,-0.369406,-0.402526,-0.373119,0.517486,-0.637035,-0.432640,154.576009,67.390971,-118.931905
60195,NaN,-8.609647,1.918230,-1.073403,-0.330581,2.052161,-1.173415,0.193861,-0.309610,-0.370680,-0.375483,0.517634,-0.635898,-0.432089,154.985818,67.648162,-118.615818
60196,NaN,-8.481930,1.812756,-1.144981,-0.286382,1.915904,-1.281134,0.139492,-0.176952,-0.320748,-0.377162,0.518009,-0.635030,-0.431455,155.386091,67.821534,-118.276951
60197,NaN,-9.004829,1.707248,-1.161082,-0.119542,2.055595,-0.806583,0.088641,-0.097656,-0.283257,-0.378388,0.518529,-0.634284,-0.430852,155.760608,67.945935,-117.934604
60198,NaN,-9.391714,1.572739,-1.187285,0.052925,2.139557,-0.458176,0.047623,-0.109108,-0.247445,-0.379454,0.518989,-0.633532,-0.430469,156.062280,68.065039,-117.645959
60199,NaN,-9.744435,1.389515,-1.075461,0.272096,2.331106,-0.193269,-0.006427,-0.196521,-0.245268,-0.380664,0.519353,-0.632489,-0.430495,156.282743,68.231331,-117.411454
60200,NaN,-10.166922,1.036893,-0.919231,0.668197,2.557747,0.101831,-0.039683,-0.388707,-0.278760,-0.382452,0.519472,-0.630931,-0.431052,156.421052,68.503543,-117.245465
60201,NaN,-9.872492,1.001575,-0.843472,0.623187,2.483599,-0.188566,-0.051946,-0.581164,-0.313873,-0.384904,0.519303,-0.628868,-0.432086,156.490124,68.887429,-117.146275
60202,NaN,-9.201679,1.270204,-0.824904,0.213375,2.252916,-0.765964,-0.076830,-0.657295,-0.353301,-0.387594,0.519138,-0.626509,-0.433305,156.557292,69.317622,-117.034480
60203,NaN,-8.785938,1.509627,-0.793826,-0.125631,2.116260,-1.117450,-0.107402,-0.599680,-0.392579,-0.390122,0.519269,-0.624068,-0.434399,156.701139,69.729299,-116.822031
60204,NaN,-8.576462,1.769505,-0.552036,-0.445432,2.255740,-1.344834,-0.119640,-0.475342,-0.438730,-0.392308,0.519836,-0.621732,-0.435103,156.990023,70.082655,-116.448618
60205,NaN,-8.485553,2.041964,-0.295254,-0.761895,2.457724,-1.467613,-0.117130,-0.344962,-0.489736,-0.394221,0.520830,-0.619501,-0.435367,157.447447,70.380762,-115.897904
60206,NaN,-8.435014,2.416245,-0.617365,-1.196898,2.140901,-1.365641,-0.126470,-0.196252,-0.544907,-0.395747,0.522336,-0.617411,-0.435148,158.089677,70.607006,-115.146856
60207,NaN,-8.357765,3.074345,-0.976148,-1.921475,1.810073,-1.251844,-0.173717,-0.059835,-0.601446,-0.396866,0.524397,-0.615316,-0.434617,158.886963,70.772598,-114.203113
60208,NaN,-8.280174,3.361813,-1.124497,-2.275967,1.657111,-1.256915,-0.248486,0.052730,-0.679505,-0.397589,0.527090,-0.613088,-0.433846,159.842711,70.885443,-113.047666
60209,NaN,-8.079938,3.522056,-1.362793,-2.525957,1.374376,-1.370069,-0.304063,0.109346,-0.740854,-0.398137,0.530190,-0.610663,-0.432985,160.903662,70.976299,-111.747180
60210,NaN,-8.066709,3.752631,-1.443356,-2.819402,1.301652,-1.351385,-0.364282,0.132577,-0.790222,-0.398537,0.533608,-0.608031,-0.432123,162.032928,71.051926,-110.339362
60211,NaN,-7.874910,3.796294,-1.506551,-2.947422,1.175676,-1.528612,-0.424148,0.129261,-0.800924,-0.398818,0.537151,-0.605203,-0.431441,163.150277,71.125716,-108.907629
60212,NaN,-7.297230,3.877454,-1.774446,-3.151095,0.736299,-2.004931,-0.482542,0.161724,-0.806785,-0.398832,0.540895,-0.602303,-0.430808,164.269993,71.170000,-107.439430
60213,NaN,-7.127472,3.906876,-1.829023,-3.250008,0.620823,-2.166667,-0.541359,0.224854,-0.805957,-0.398501,0.544867,-0.599374,-0.430195,165.383129,71.173529,-105.941763
60214,NaN,-7.045853,3.580377,-1.607736,-2.979895,0.784221,-2.359301,-0.594963,0.269767,-0.788280,-0.397825,0.548986,-0.596468,-0.429622,166.456977,71.136857,-104.454034
60215,NaN,-7.093653,3.060814,-1.455997,-2.505423,0.922321,-2.418067,-0.629538,0.291081,-0.756709,-0.396927,0.553099,-0.593585,-0.429170,167.457485,71.079072,-103.021303
60216,NaN,-7.386855,2.600252,-1.288356,-2.071534,1.162199,-2.240062,-0.660859,0.266018,-0.710856,-0.395894,0.557082,-0.590713,-0.428936,168.352887,71.018580,-101.681378
60217,NaN,-7.524915,2.126564,-1.194610,-1.634922,1.286288,-2.180778,-0.701398,0.193140,-0.657898,-0.394853,0.560806,-0.587727,-0.429144,169.104536,70.990533,-100.467302
60218,NaN,-8.060945,1.858785,-1.345696,-1.374696,1.306743,-1.648907,-0.771746,0.080679,-0.610793,-0.393822,0.564288,-0.584502,-0.429931,169.707574,71.012511,-99.369007
60219,NaN,-8.472126,1.824997,-1.333807,-1.358080,1.431617,-1.269122,-0.878814,-0.070291,-0.568753,-0.392842,0.567506,-0.580836,-0.431557,170.135509,71.116059,-98.390065
60220,NaN,-8.619426,1.595316,-1.094555,-1.166556,1.678640,-1.218579,-1.007692,-0.201077,-0.545491,-0.391802,0.570623,-0.576700,-0.433933,170.427676,71.285376,-97.478660
60221,NaN,-8.931139,1.471998,-1.035037,-1.069399,1.796169,-0.945151,-1.109972,-0.294991,-0.550508,-0.390750,0.573716,-0.572106,-0.436875,170.650498,71.510960,-96.578274
60222,NaN,-9.583589,1.676789,-0.960235,-1.293269,2.012761,-0.333517,-1.210679,-0.355230,-0.573225,-0.389601,0.576928,-0.567101,-0.440184,170.857181,71.767582,-95.636740
60223,NaN,-9.875426,1.663113,-0.759691,-1.328463,2.231558,-0.111044,-1.256248,-0.420467,-0.615998,-0.388593,0.580162,-0.561698,-0.443737,171.106593,72.068074,-94.622873
60224,NaN,-8.636830,1.893432,-0.222169,-1.681820,2.281142,-1.434347,-1.288877,-0.385644,-0.701085,-0.387548,0.583759,-0.556031,-0.447059,171.524398,72.350070,-93.415612
60225,NaN,-6.793325,1.235325,0.183780,-1.149174,2.111784,-3.337464,-1.340816,-0.196925,-0.752120,-0.385931,0.587970,-0.550413,-0.449883,172.070852,72.530711,-92.042276
60226,NaN,-5.573105,0.070281,-0.388870,0.012704,1.299502,-4.378841,-1.388871,0.208888,-0.709222,-0.382923,0.593049,-0.545581,-0.451669,172.626186,72.469005,-90.632687
60227,NaN,-5.913182,0.026960,-1.594839,0.170956,0.286631,-3.697263,-1.463623,0.676646,-0.656677,-0.378287,0.599126,-0.541575,-0.452375,173.126671,72.138585,-89.232720
60228,NaN,-6.868697,1.300820,-2.535327,-0.987661,-0.425838,-2.454563,-1.533724,0.980076,-0.631940,-0.372518,0.605923,-0.538032,-0.452337,173.568669,71.625458,-87.850169
60229,NaN,-7.312677,2.093559,-3.200890,-1.686015,-0.972643,-1.793025,-1.626954,1.156543,-0.620671,-0.365943,0.613185,-0.534568,-0.452025,173.914006,71.013082,-86.507322
60230,NaN,-7.804439,1.955323,-3.843065,-1.453736,-1.326327,-1.116207,-1.708245,1.206377,-0.623138,-0.358936,0.620662,-0.530963,-0.451687,174.175147,70.365277,-85.200671
60231,NaN,-8.063840,1.655908,-4.148079,-1.104651,-1.395049,-0.767956,-1.748353,1.170339,-0.594830,-0.351807,0.627965,-0.527209,-0.451599,174.310666,69.739707,-83.996581
60232,NaN,-7.948023,0.997333,-4.467566,-0.379819,-1.516386,-0.774960,-1.742569,1.115104,-0.549719,-0.344686,0.634958,-0.523470,-0.451662,174.337120,69.137697,-82.909190
60233,NaN,-8.321549,0.634449,-4.333595,-0.056637,-1.096937,-0.473331,-1.695590,1.032794,-0.499597,-0.337792,0.641468,-0.519780,-0.451934,174.271293,68.584547,-81.943995
60234,NaN,-8.182555,0.263964,-4.291511,0.314367,-0.934683,-0.622050,-1.659848,0.940446,-0.418122,-0.331022,0.647450,-0.516241,-0.452469,174.077762,68.075448,-81.136158
60235,NaN,-8.279025,0.194548,-4.315269,0.400622,-0.817817,-0.519051,-1.617417,0.853801,-0.318427,-0.324371,0.652835,-0.512915,-0.453331,173.740946,67.615562,-80.505169
60236,NaN,-8.224723,0.154795,-4.394165,0.489317,-0.815271,-0.535081,-1.625358,0.777654,-0.220619,-0.317628,0.657770,-0.509740,-0.454550,173.252054,67.189892,-80.033319
60237,NaN,-8.472929,0.344788,-4.553548,0.370837,-0.834049,-0.230916,-1.662574,0.738038,-0.142625,-0.310673,0.662407,-0.506616,-0.456113,172.629409,66.787434,-79.680895
60238,NaN,-8.643891,0.272588,-4.748936,0.530822,-0.835668,0.003759,-1.717916,0.696266,-0.071044,-0.303439,0.666813,-0.503512,-0.457996,171.881227,66.400451,-79.430962
60239,NaN,-9.003887,0.156166,-4.669001,0.643472,-0.506640,0.297821,-1.745999,0.635159,-0.036488,-0.296173,0.670965,-0.500307,-0.460196,171.066558,66.050812,-79.234162
60240,NaN,-9.229953,0.076728,-4.813781,0.805149,-0.435224,0.557072,-1.775142,0.517783,-0.010177,-0.289004,0.674781,-0.496923,-0.462834,170.188550,65.762024,-79.089205
60241,NaN,-9.528642,0.426707,-4.801566,0.514758,-0.355973,0.847507,-1.790338,0.362358,0.005053,-0.282125,0.678152,-0.493273,-0.466045,169.254473,65.564438,-78.994788
60242,NaN,-9.656998,0.561219,-4.705670,0.417949,-0.220599,0.934029,-1.803180,0.189155,0.027846,-0.275539,0.681039,-0.489402,-0.469841,168.251127,65.458164,-78.969456
60243,NaN,-9.760113,0.682892,-4.548178,0.318552,-0.061446,0.971848,-1.782430,-0.002970,0.048452,-0.269438,0.683329,-0.485328,-0.474258,167.185585,65.461238,-79.024435
60244,NaN,-9.110710,0.834637,-4.398192,0.256702,-0.245590,0.332208,-1.750532,-0.127516,0.070724,-0.263660,0.685186,-0.481219,-0.478990,166.076541,65.526265,-79.148412
60245,NaN,-8.371230,0.815050,-4.266388,0.364465,-0.420287,-0.398137,-1.733814,-0.099682,0.113220,-0.257765,0.686923,-0.477278,-0.483632,164.929291,65.572772,-79.323734
60246,NaN,-8.147633,1.271413,-4.656209,0.217856,-0.995967,-0.397777,-1.728821,0.092924,0.149530,-0.251307,0.688992,-0.473703,-0.487585,163.806133,65.501921,-79.476841
60247,NaN,-8.487319,1.724353,-4.791431,-0.069132,-1.122780,0.020908,-1.721918,0.312597,0.159964,-0.244322,0.691501,-0.470405,-0.490767,162.755715,65.311536,-79.553394
60248,NaN,-8.853022,1.823053,-5.192710,0.078768,-1.282498,0.531965,-1.712330,0.464739,0.137025,-0.237035,0.694384,-0.467217,-0.493309,161.804895,65.037678,-79.527469
60249,NaN,-9.196795,2.216682,-5.642049,-0.005456,-1.606044,1.084424,-1.699016,0.561404,0.078722,-0.229708,0.697560,-0.463921,-0.495401,160.974070,64.725937,-79.376331
60250,NaN,-9.311986,2.281740,-5.814209,0.088579,-1.649801,1.277569,-1.699416,0.592487,0.016010,-0.222431,0.700914,-0.460421,-0.497249,160.235472,64.406500,-79.123473
60251,NaN,-9.196448,1.903189,-5.887627,0.531675,-1.499580,1.156755,-1.650548,0.613837,-0.050288,-0.215436,0.704355,-0.456781,-0.498821,159.610610,64.093446,-78.773739
60252,NaN,-8.941757,1.765257,-5.715132,0.641562,-1.332735,0.843079,-1.576696,0.639122,-0.086394,-0.208705,0.707820,-0.453208,-0.500035,159.081752,63.772162,-78.364316
60253,NaN,-8.660639,1.436081,-5.951329,1.117537,-1.384695,0.642943,-1.509510,0.688578,-0.079984,-0.202081,0.711266,-0.449830,-0.500916,158.604066,63.428032,-77.938627
60254,NaN,-8.657225,1.646353,-6.229796,1.131656,-1.609539,0.798449,-1.447118,0.769489,-0.085053,-0.195484,0.714824,-0.446657,-0.501308,158.201892,63.040018,-77.467980
60255,NaN,-8.797275,1.472546,-6.019746,1.185816,-1.210358,0.813968,-1.404958,0.771385,-0.087456,-0.189039,0.718296,-0.443540,-0.501584,157.824374,62.656045,-76.994343
60256,NaN,-8.999410,1.463257,-6.209508,1.309046,-1.157174,1.079282,-1.362392,0.742572,-0.091666,-0.182798,0.721630,-0.440474,-0.501815,157.462490,62.286579,-76.529781
60257,NaN,-9.256162,1.652603,-6.227491,1.167592,-1.068466,1.353497,-1.323916,0.661128,-0.102701,-0.176904,0.724700,-0.437352,-0.502234,157.097470,61.966850,-76.091556
60258,NaN,-9.366812,1.690262,-6.178020,1.130287,-0.926786,1.440092,-1.285212,0.519999,-0.094323,-0.171418,0.727333,-0.434223,-0.503043,156.687129,61.718122,-75.729412
60259,NaN,-9.348144,1.964587,-6.505471,1.145390,-1.250132,1.619430,-1.241435,0.384794,-0.074817,-0.166338,0.729509,-0.431128,-0.504260,156.226001,61.539962,-75.452210
60260,NaN,-9.086610,2.386760,-6.556837,0.922003,-1.595028,1.494858,-1.203394,0.286765,-0.091987,-0.161635,0.731419,-0.427980,-0.505702,155.762558,61.415473,-75.202611
60261,NaN,-8.878697,2.327529,-6.395405,0.951159,-1.508561,1.231272,-1.161243,0.206434,-0.107984,-0.157303,0.733095,-0.424787,-0.507330,155.304515,61.340114,-74.973687
60262,NaN,-8.672204,2.282121,-6.266770,0.984561,-1.460051,0.984822,-1.075164,0.164986,-0.131608,-0.153418,0.734630,-0.421693,-0.508878,154.900530,61.290341,-74.739674
60263,NaN,-8.496609,2.346660,-6.215178,0.970074,-1.520134,0.821012,-0.982633,0.148233,-0.141378,-0.149940,0.736048,-0.418762,-0.510284,154.551710,61.254622,-74.502764
60264,NaN,-8.565443,2.510647,-6.337552,0.952560,-1.643946,0.968065,-0.905412,0.136995,-0.148687,-0.146775,0.737382,-0.415995,-0.511540,154.248895,61.224921,-74.264123
60265,NaN,-8.643121,2.483886,-6.363666,1.015507,-1.590374,1.041290,-0.817706,0.113545,-0.182844,-0.144075,0.738645,-0.413290,-0.512676,154.018148,61.218382,-74.000296
60266,NaN,-8.985544,2.404464,-6.221861,0.969561,-1.281968,1.262034,-0.723657,0.051156,-0.214225,-0.141921,0.739737,-0.410670,-0.513807,153.841932,61.250305,-73.736020
60267,NaN,-8.839836,2.462021,-5.995469,0.823348,-1.239839,1.047089,-0.630172,0.035544,-0.244927,-0.140231,0.740774,-0.408150,-0.514783,153.741641,61.300098,-73.446188
60268,NaN,-8.653385,2.387529,-5.647248,0.692045,-1.060797,0.716726,-0.556683,0.103383,-0.289474,-0.138778,0.742020,-0.405708,-0.515314,153.756511,61.324654,-73.073340
60269,NaN,-8.538073,2.468725,-5.739448,0.708607,-1.219083,0.672839,-0.516843,0.240732,-0.318440,-0.137276,0.743641,-0.403343,-0.515235,153.885490,61.287267,-72.596326
60270,NaN,-8.644237,2.462913,-5.662695,0.634861,-1.108547,0.733540,-0.465479,0.364903,-0.366009,-0.135828,0.745636,-0.401023,-0.514546,154.143311,61.195516,-72.005701
60271,NaN,-9.024240,2.164599,-5.253095,0.503085,-0.478449,0.828521,-0.426479,0.408089,-0.403621,-0.134541,0.747781,-0.398680,-0.513592,154.476026,61.090739,-71.354510
60272,NaN,-8.701384,1.899071,-4.922045,0.496369,-0.243292,0.348090,-0.405678,0.384343,-0.459334,-0.133513,0.749954,-0.396168,-0.512635,154.858088,61.008567,-70.659969
60273,NaN,-8.592211,1.856721,-4.900526,0.495915,-0.247545,0.236260,-0.428994,0.386904,-0.497066,-0.132496,0.752212,-0.393444,-0.511687,155.261190,60.933191,-69.925608
60274,NaN,-9.075541,1.810095,-4.887018,0.404936,0.014595,0.644872,-0.463305,0.356888,-0.510860,-0.131433,0.754433,-0.390562,-0.510898,155.641013,60.873001,-69.194856
60275,NaN,-9.195868,2.022163,-5.078938,0.325611,-0.186543,0.878797,-0.481571,0.308196,-0.519147,-0.130425,0.756546,-0.387557,-0.510320,155.996826,60.839183,-68.479386
60276,NaN,-9.331158,2.188370,-5.174542,0.216494,-0.299869,1.073015,-0.489555,0.243083,-0.552515,-0.129587,0.758552,-0.384365,-0.509970,156.350504,60.843807,-67.760911
60277,NaN,-9.530291,2.036145,-4.740672,-0.032875,0.129473,1.023748,-0.435408,0.159471,-0.596663,-0.129234,0.760383,-0.381076,-0.509801,156.744698,60.901355,-67.031935
60278,NaN,-8.786513,1.869994,-4.197414,-0.170586,0.201107,0.099342,-0.410734,0.128898,-0.619284,-0.129081,0.762153,-0.377746,-0.509675,157.163367,60.976391,-66.291455
60279,NaN,-7.800458,1.566129,-4.036121,0.098874,0.040422,-0.891999,-0.379507,0.173732,-0.605951,-0.128934,0.763981,-0.374563,-0.509324,157.608927,61.023255,-65.541277
60280,NaN,-7.198698,1.528693,-4.199988,0.328142,-0.307885,-1.351275,-0.370728,0.303345,-0.581178,-0.128506,0.766077,-0.371583,-0.508467,158.085905,60.991866,-64.760833
60281,NaN,-7.329942,1.691381,-4.554704,0.395791,-0.569632,-1.046108,-0.390359,0.440068,-0.557087,-0.127693,0.768476,-0.368720,-0.507135,158.579460,60.880517,-63.948207
60282,NaN,-8.072208,1.917975,-4.608848,0.077078,-0.430417,-0.331691,-0.403139,0.480564,-0.544120,-0.126713,0.770949,-0.365901,-0.505666,159.061538,60.740354,-63.139153
60283,NaN,-8.904857,2.273808,-4.743850,-0.300985,-0.393248,0.518113,-0.417167,0.386257,-0.540412,-0.125848,0.773174,-0.362988,-0.504583,159.494014,60.647879,-62.377067
60284,NaN,-9.111538,2.686940,-4.814334,-0.615657,-0.645469,0.799656,-0.443239,0.221339,-0.541617,-0.125175,0.774990,-0.359903,-0.504175,159.850422,60.640646,-61.684521
60285,NaN,-8.758799,2.851763,-4.973578,-0.554013,-1.026016,0.590480,-0.472483,0.084268,-0.545224,-0.124650,0.776474,-0.356634,-0.504344,160.147635,60.706974,-61.041044
60286,NaN,-8.240707,2.420871,-4.731278,-0.314081,-0.832394,-0.047275,-0.516145,0.024532,-0.538233,-0.124035,0.777813,-0.353245,-0.504817,160.393580,60.801686,-60.427969
60287,NaN,-7.857527,1.423994,-4.249470,0.110256,-0.036054,-0.767634,-0.521703,-0.002545,-0.488102,-0.123325,0.778987,-0.350011,-0.505433,160.582369,60.901183,-59.877421
60288,NaN,-7.993061,1.191502,-4.370063,0.313880,0.106920,-0.631392,-0.501160,0.007704,-0.402768,-0.122454,0.780017,-0.347168,-0.506017,160.704542,60.977314,-59.416871
60289,NaN,-8.671668,1.251240,-4.183673,-0.025526,0.435359,-0.113391,-0.506338,-0.006727,-0.318139,-0.121378,0.780858,-0.344625,-0.506716,160.738770,61.045805,-59.053963
60290,NaN,-9.319281,0.958692,-4.138497,-0.022521,0.932538,0.386582,-0.506771,-0.039890,-0.255963,-0.120193,0.781503,-0.342306,-0.507576,160.700272,61.119605,-58.773933
60291,NaN,-9.573835,0.711981,-4.251093,0.162755,1.147664,0.622512,-0.488039,-0.107842,-0.240916,-0.119165,0.781931,-0.340044,-0.508678,160.636397,61.228348,-58.535553
60292,NaN,-9.268850,0.763344,-4.339439,0.277498,0.924081,0.404653,-0.465164,-0.103149,-0.258430,-0.118256,0.782383,-0.337778,-0.509704,160.604020,61.337043,-58.276264
60293,NaN,-8.866973,0.548704,-4.385367,0.552828,0.885228,0.039545,-0.459971,0.025442,-0.299496,-0.117261,0.783222,-0.335431,-0.510195,160.662299,61.385032,-57.917492
60294,NaN,-9.028794,0.534702,-4.754917,0.774875,0.764720,0.347480,-0.444573,0.190502,-0.346957,-0.116162,0.784547,-0.333039,-0.509978,160.832301,61.351335,-57.441281
60295,NaN,-9.308525,0.751321,-4.903873,0.646273,0.639092,0.696114,-0.420749,0.279504,-0.400638,-0.115153,0.786167,-0.330538,-0.509339,161.100150,61.279644,-56.869160
60296,NaN,-9.557329,0.816297,-4.921774,0.519566,0.681980,0.934293,-0.405371,0.295666,-0.431104,-0.114245,0.787862,-0.327969,-0.508585,161.408329,61.202365,-56.260374
60297,NaN,-9.739190,0.757355,-5.029587,0.551532,0.741128,1.135764,-0.376942,0.252682,-0.449443,-0.113575,0.789452,-0.325365,-0.507941,161.736633,61.151206,-55.647209
60298,NaN,-9.628169,0.774873,-4.880569,0.430067,0.749024,0.975081,-0.340519,0.161578,-0.476909,-0.113255,0.790828,-0.322697,-0.507573,162.080339,61.151766,-55.039761
60299,NaN,-9.076889,0.563480,-4.840030,0.657682,0.694595,0.444906,-0.291573,0.086150,-0.500254,-0.113320,0.792015,-0.320008,-0.507410,162.454154,61.196805,-54.430530
60300,NaN,-8.846927,0.850046,-4.801180,0.491296,0.382201,0.269699,-0.280606,0.093703,-0.485900,-0.113368,0.793186,-0.317413,-0.507201,162.821373,61.232290,-53.835790
60301,NaN,-8.960769,0.850313,-4.330916,0.091285,0.642849,0.154941,-0.313874,0.113091,-0.441389,-0.113151,0.794348,-0.314911,-0.506991,163.134551,61.249045,-53.281605
60302,NaN,-8.993157,0.667168,-4.040541,-0.040287,0.926335,0.025411,-0.342089,0.110346,-0.412433,-0.112741,0.795467,-0.312456,-0.506846,163.399598,61.260130,-52.763446
60303,NaN,-8.977579,0.910363,-4.061873,-0.187534,0.705901,0.056001,-0.385163,0.100809,-0.387538,-0.112122,0.796542,-0.309975,-0.506820,163.615246,61.272472,-52.274072
60304,NaN,-9.043217,1.337351,-4.100526,-0.452140,0.363607,0.189609,-0.435095,0.087599,-0.393262,-0.111326,0.797613,-0.307343,-0.506913,163.801742,61.291066,-51.784853
60305,NaN,-9.093493,1.442175,-3.877004,-0.706604,0.392399,0.144689,-0.478864,0.051126,-0.413251,-0.110474,0.798639,-0.304488,-0.507206,163.976124,61.333341,-51.281534
60306,NaN,-9.023400,1.518171,-3.793238,-0.800012,0.326527,0.054864,-0.492869,0.002212,-0.411583,-0.109623,0.799538,-0.301584,-0.507709,164.125095,61.400456,-50.797753
60307,NaN,-8.372207,1.557175,-3.465762,-0.872966,0.189831,-0.662168,-0.486664,-0.025391,-0.396578,-0.108811,0.800333,-0.298727,-0.508320,164.258858,61.481112,-50.336169
60308,NaN,-8.060593,1.484796,-3.124372,-0.991579,0.277883,-1.101831,-0.518264,0.008598,-0.340557,-0.107666,0.801141,-0.296040,-0.508863,164.325927,61.532708,-49.929665
60309,NaN,-8.071586,1.545872,-3.230076,-0.950787,0.170866,-1.035421,-0.558340,0.047427,-0.283429,-0.106169,0.801976,-0.293487,-0.509341,164.326198,61.555245,-49.573606
60310,NaN,-8.346693,1.802558,-3.343516,-1.095091,0.003571,-0.707944,-0.605601,0.038736,-0.245374,-0.104385,0.802750,-0.290970,-0.509934,164.255773,61.575458,-49.266776
60311,NaN,-8.310919,1.900228,-3.435405,-1.060404,-0.137914,-0.683572,-0.657331,-0.022938,-0.235286,-0.102468,0.803370,-0.288315,-0.510854,164.130408,61.629741,-48.989197
60312,NaN,-8.324455,1.964974,-3.351124,-1.149292,-0.155567,-0.699917,-0.707936,-0.071597,-0.243601,-0.100426,0.803894,-0.285479,-0.512026,163.968339,61.711073,-48.720174
60313,NaN,-8.424314,1.816330,-3.184033,-1.204205,0.066770,-0.704912,-0.757431,-0.114505,-0.227861,-0.098216,0.804297,-0.282544,-0.513448,163.751670,61.815395,-48.481472
60314,NaN,-8.389295,1.743593,-3.292476,-1.043425,0.057178,-0.693000,-0.794511,-0.153019,-0.172928,-0.095758,0.804530,-0.279721,-0.515090,163.443497,61.931049,-48.322381
60315,NaN,-8.441770,1.690965,-3.167499,-1.096106,0.167971,-0.706309,-0.819571,-0.203651,-0.135824,-0.093182,0.804577,-0.276944,-0.516987,163.068405,62.070357,-48.223234
60316,NaN,-8.542929,1.533578,-3.142364,-1.025471,0.339938,-0.645317,-0.832351,-0.246889,-0.092763,-0.090492,0.804446,-0.274292,-0.519078,162.624224,62.224829,-48.193854
60317,NaN,-8.596208,1.510682,-3.289071,-0.873107,0.311448,-0.531769,-0.856827,-0.279687,-0.062569,-0.087678,0.804181,-0.271667,-0.521347,162.123334,62.393745,-48.212882
60318,NaN,-8.727358,1.590122,-3.580851,-0.678778,0.166010,-0.271761,-0.845143,-0.296699,-0.044043,-0.084875,0.803828,-0.269145,-0.523658,161.599124,62.566860,-48.265567
60319,NaN,-8.704468,1.665374,-3.661704,-0.598035,0.062274,-0.242547,-0.834878,-0.290565,-0.025604,-0.082064,0.803444,-0.266710,-0.525937,161.061885,62.734783,-48.339567
60320,NaN,-8.658576,1.331622,-3.672996,-0.356377,0.328498,-0.325856,-0.827515,-0.259699,-0.006089,-0.079179,0.803099,-0.264392,-0.528071,160.514422,62.880237,-48.429594
60321,NaN,-8.894394,1.219711,-3.634035,-0.359300,0.527134,-0.148473,-0.795284,-0.227603,0.002505,-0.076367,0.802798,-0.262190,-0.530037,159.987013,63.008136,-48.517803
60322,NaN,-9.172994,0.846622,-3.425354,-0.384866,1.030628,-0.046256,-0.772212,-0.249423,0.002186,-0.073665,0.802421,-0.260046,-0.532043,159.460255,63.145635,-48.619929
60323,NaN,-9.408917,0.755581,-3.588663,-0.237006,1.129019,0.219567,-0.753342,-0.272715,-0.024961,-0.071151,0.801994,-0.257820,-0.534108,158.962422,63.302625,-48.701700
60324,NaN,-9.574820,0.871516,-3.662287,-0.241075,1.058966,0.418118,-0.737570,-0.301696,-0.054990,-0.068806,0.801514,-0.255512,-0.536241,158.488740,63.479093,-48.766381
60325,NaN,-9.610304,1.015626,-3.978205,-0.016512,0.822585,0.605492,-0.736661,-0.333091,-0.108303,-0.066659,0.801001,-0.252966,-0.538482,158.057873,63.685383,-48.783800
60326,NaN,-9.697542,1.151936,-4.223508,0.142711,0.632256,0.807434,-0.725305,-0.365827,-0.182335,-0.064785,0.800480,-0.250151,-0.540795,157.694109,63.922920,-48.733583
60327,NaN,-9.746131,1.327813,-4.355672,0.203505,0.429392,0.934221,-0.707944,-0.387626,-0.258898,-0.063225,0.799972,-0.247052,-0.543150,157.413648,64.190965,-48.601987
60328,NaN,-9.843568,1.455374,-4.394567,0.194901,0.311280,1.058884,-0.698095,-0.381585,-0.339636,-0.061904,0.799567,-0.243667,-0.545424,157.227537,64.471787,-48.372186
60329,NaN,-9.881445,1.480145,-4.101352,-0.032616,0.375390,0.981415,-0.659575,-0.369683,-0.418734,-0.060949,0.799260,-0.240057,-0.547577,157.160766,64.766204,-48.035386
60330,NaN,-9.789964,1.375245,-3.616399,-0.333440,0.572584,0.693204,-0.602395,-0.381469,-0.449697,-0.060308,0.798930,-0.236485,-0.549680,157.157580,65.071723,-47.665272
60331,NaN,-9.091645,1.465349,-3.616722,-0.143229,0.232093,0.077275,-0.527706,-0.358276,-0.468783,-0.060002,0.798647,-0.233032,-0.551597,157.237711,65.371262,-47.251547
60332,NaN,-8.775849,1.820625,-3.652134,-0.152501,-0.233548,-0.138479,-0.473028,-0.307320,-0.484901,-0.059886,0.798498,-0.229690,-0.553224,157.396490,65.644928,-46.786658
60333,NaN,-8.842298,1.813767,-3.376326,-0.381584,-0.155580,-0.184315,-0.408977,-0.297509,-0.504825,-0.060081,0.798366,-0.226433,-0.554735,157.630207,65.919228,-46.280955
60334,NaN,-9.147494,1.903992,-3.479606,-0.396005,-0.231133,0.147181,-0.341405,-0.337360,-0.523914,-0.060631,0.798118,-0.223285,-0.556306,157.912416,66.215748,-45.765572
60335,NaN,-9.313778,2.157565,-3.567649,-0.449409,-0.497078,0.369663,-0.279030,-0.405540,-0.550762,-0.061592,0.797676,-0.220167,-0.558073,158.242912,66.555240,-45.237841
60336,NaN,-9.243475,2.265705,-3.223735,-0.742922,-0.559183,0.192445,-0.252456,-0.467231,-0.577540,-0.062788,0.797077,-0.217007,-0.560031,158.602081,66.929861,-44.696808
60337,NaN,-9.271519,2.476700,-2.958117,-1.036819,-0.717713,0.149993,-0.230851,-0.485763,-0.579654,-0.064107,0.796404,-0.213877,-0.562039,158.984561,67.315517,-44.145483
60338,NaN,-9.141328,2.489500,-2.633997,-1.256130,-0.720222,-0.086310,-0.244611,-0.462064,-0.564712,-0.065292,0.795778,-0.210785,-0.563955,159.364666,67.681922,-43.589660
60339,NaN,-9.014283,2.511551,-2.511757,-1.307568,-0.795599,-0.245502,-0.290808,-0.411338,-0.562527,-0.066242,0.795290,-0.207572,-0.565720,159.757579,68.021317,-42.992809
60340,NaN,-9.146742,2.810656,-2.382082,-1.552129,-1.050606,-0.131584,-0.343581,-0.350693,-0.584755,-0.066971,0.795009,-0.204151,-0.567272,160.192861,68.328694,-42.319131
60341,NaN,-8.992645,2.592774,-2.309118,-1.464077,-0.927881,-0.330210,-0.393548,-0.293820,-0.597812,-0.067489,0.794901,-0.200542,-0.568648,160.662221,68.608025,-41.579303
60342,NaN,-8.880249,2.385958,-2.321320,-1.323734,-0.830830,-0.458689,-0.429885,-0.239566,-0.651671,-0.067951,0.795007,-0.196641,-0.569806,161.226039,68.863460,-40.717237
60343,NaN,-8.979438,2.293658,-1.934125,-1.642891,-0.657143,-0.512109,-0.455235,-0.207226,-0.692591,-0.068404,0.795232,-0.192502,-0.570850,161.867168,69.107615,-39.758069
60344,NaN,-8.970657,2.091275,-1.966262,-1.524542,-0.547512,-0.534327,-0.499512,-0.197047,-0.692993,-0.068662,0.795495,-0.188246,-0.571871,162.505261,69.340263,-38.776712
60345,NaN,-9.079819,2.155045,-2.134137,-1.419376,-0.699089,-0.371385,-0.549786,-0.191929,-0.696098,-0.068731,0.795768,-0.183821,-0.572921,163.140399,69.569022,-37.769004
60346,NaN,-9.485226,2.310482,-2.171975,-1.538647,-0.830984,0.034493,-0.616229,-0.261283,-0.664640,-0.068500,0.795828,-0.179314,-0.574293,163.677680,69.824822,-36.826862
60347,NaN,-9.859884,2.081028,-2.216360,-1.493416,-0.618671,0.377838,-0.668536,-0.318358,-0.626096,-0.068007,0.795679,-0.174777,-0.575953,164.121316,70.105455,-35.953827
60348,NaN,-10.202059,1.764287,-2.166489,-1.489392,-0.300017,0.655347,-0.716827,-0.324839,-0.548873,-0.067096,0.795452,-0.170411,-0.577680,164.432825,70.373349,-35.193586
60349,NaN,-10.091090,1.249465,-2.199380,-1.220189,0.098912,0.518318,-0.741006,-0.293400,-0.455458,-0.065797,0.795216,-0.166344,-0.579337,164.611940,70.610957,-34.559961
60350,NaN,-9.787413,0.840242,-1.964378,-1.185686,0.456103,0.124327,-0.707045,-0.226605,-0.394096,-0.064393,0.795107,-0.162648,-0.580693,164.751301,70.799313,-33.990237
60351,NaN,-9.734054,0.616855,-2.089590,-0.968958,0.588717,0.097568,-0.647711,-0.134144,-0.357739,-0.063049,0.795194,-0.159286,-0.581652,164.913164,70.933200,-33.432879
60352,NaN,-9.632472,0.773215,-2.786242,-0.357737,0.201572,0.236039,-0.595638,0.008063,-0.345060,-0.061755,0.795669,-0.156179,-0.581985,165.149372,70.983254,-32.829102
60353,NaN,-9.687757,1.105409,-3.481926,0.145958,-0.313078,0.535213,-0.538539,0.126632,-0.344195,-0.060598,0.796450,-0.153266,-0.581812,165.468500,70.969212,-32.171934
60354,NaN,-9.979066,1.363422,-3.896461,0.347261,-0.634508,0.962277,-0.483371,0.178754,-0.367325,-0.059683,0.797387,-0.150445,-0.581359,165.876138,70.925457,-31.454806
60355,NaN,-10.143098,1.388631,-4.340410,0.680130,-0.767263,1.259736,-0.432616,0.181641,-0.399761,-0.059066,0.798323,-0.147633,-0.580858,166.363939,70.885345,-30.683112
60356,NaN,-10.207602,1.182130,-4.515626,0.865030,-0.629637,1.360434,-0.356043,0.148911,-0.450694,-0.058921,0.799183,-0.144838,-0.580394,166.962158,70.865206,-29.841173
60357,NaN,-9.876947,0.777143,-4.509889,1.055940,-0.327627,1.016655,-0.280032,0.114400,-0.501894,-0.059259,0.799939,-0.142039,-0.580009,167.673421,70.870106,-28.925353
60358,NaN,-9.683421,0.681844,-4.585271,1.186675,-0.324289,0.852430,-0.206443,0.126384,-0.551704,-0.060021,0.800748,-0.139265,-0.579487,168.510950,70.867665,-27.920809
60359,NaN,-9.719508,0.665825,-4.645554,1.210408,-0.362162,0.906308,-0.140938,0.149966,-0.584837,-0.061129,0.801611,-0.136546,-0.578825,169.447377,70.852771,-26.851033
60360,NaN,-9.958460,0.621854,-4.433995,0.929785,-0.279445,1.062746,-0.055830,0.171375,-0.607525,-0.062624,0.802527,-0.133995,-0.577991,170.472284,70.819793,-25.739278
60361,NaN,-9.558237,0.000330,-3.617819,0.450415,0.413488,0.388996,0.017088,0.168075,-0.609737,-0.064424,0.803395,-0.131637,-0.577129,171.539038,70.784322,-24.627058
60362,NaN,-8.859455,-0.654674,-3.804694,0.980122,0.846216,-0.235778,0.065841,0.250761,-0.612333,-0.066368,0.804488,-0.129441,-0.575882,172.649393,70.693099,-23.497975
60363,NaN,-9.009571,-0.211273,-3.977479,0.920737,0.349343,-0.011302,0.115191,0.354512,-0.593646,-0.068394,0.805833,-0.127487,-0.574198,173.767020,70.536365,-22.390215
60364,NaN,-9.359074,0.045652,-4.038644,0.745459,0.085184,0.353022,0.129794,0.348732,-0.558798,-0.070376,0.807133,-0.125721,-0.572519,174.816386,70.372020,-21.362756
60365,NaN,-9.491994,0.198406,-4.092560,0.664428,-0.106690,0.503959,0.143433,0.244564,-0.536746,-0.072422,0.808099,-0.124036,-0.571267,175.811295,70.261901,-20.400533
60366,NaN,-9.416381,0.535546,-4.050869,0.523305,-0.478238,0.427516,0.157716,0.081341,-0.513208,-0.074552,0.808581,-0.122436,-0.570656,176.749048,70.236919,-19.507348
60367,NaN,-9.307177,0.626516,-3.834305,0.324188,-0.575251,0.251194,0.169226,-0.137471,-0.492249,-0.076808,0.808407,-0.120862,-0.570938,177.645589,70.333497,-18.665155
60368,NaN,-9.246847,0.334089,-3.499913,0.132916,-0.270870,0.075378,0.189992,-0.359982,-0.463376,-0.079193,0.807574,-0.119386,-0.572101,178.503954,70.550839,-17.876917
60369,NaN,-9.121935,0.324169,-3.063612,-0.191536,-0.217913,-0.188969,0.234552,-0.529192,-0.416821,-0.081731,0.806194,-0.118150,-0.573944,179.328858,70.862382,-17.152478
60370,NaN,-8.894002,0.080019,-2.226597,-0.769170,0.160399,-0.677610,0.282259,-0.637057,-0.378101,-0.084407,0.804458,-0.117168,-0.576190,-179.860730,71.230516,-16.473739
60371,NaN,-8.155548,-0.843635,-1.191620,-1.172203,1.206333,-1.700044,0.346393,-0.657885,-0.344570,-0.087261,0.802593,-0.116488,-0.578498,-179.038453,71.609297,-15.822754
60372,NaN,-6.881340,-1.427790,-1.334146,-0.451390,1.574609,-2.849352,0.361906,-0.497547,-0.307080,-0.089968,0.801160,-0.116078,-0.580150,-178.253577,71.892101,-15.221755
60373,NaN,-6.785199,-1.164847,-1.721350,-0.129098,1.174504,-2.815356,0.310636,-0.165944,-0.277618,-0.092198,0.800679,-0.115778,-0.580524,-177.550373,71.985029,-14.676436
60374,NaN,-7.666979,-1.033834,-2.255912,0.048758,0.941858,-1.809502,0.229216,0.146541,-0.276681,-0.093911,0.801147,-0.115397,-0.579679,-176.921876,71.895346,-14.160602
60375,NaN,-8.902898,-0.945876,-2.695440,0.024557,0.802812,-0.497301,0.168791,0.266001,-0.303317,-0.095398,0.801992,-0.114781,-0.578388,-176.296814,71.736547,-13.611653
60376,NaN,-9.684437,-0.533297,-2.927899,-0.156594,0.372394,0.310650,0.141700,0.219794,-0.343307,-0.096910,0.802745,-0.113912,-0.577264,-175.626397,71.598773,-12.998028
60377,NaN,-10.084706,-0.340180,-2.886405,-0.400699,0.192132,0.673051,0.128207,0.084260,-0.402107,-0.098622,0.803133,-0.112693,-0.576672,-174.848277,71.535010,-12.262480
60378,NaN,-9.782329,-0.298148,-2.997503,-0.234497,0.054207,0.420091,0.114123,-0.052960,-0.465377,-0.100529,0.803173,-0.111120,-0.576593,-173.955335,71.540744,-11.397136
60379,NaN,-9.188355,0.020159,-3.204161,0.036382,-0.397509,-0.089860,0.146447,-0.108501,-0.480366,-0.102648,0.803031,-0.109542,-0.576720,-173.002120,71.574554,-10.488009
60380,NaN,-9.436034,0.297187,-2.884170,-0.413721,-0.608130,0.031309,0.217101,-0.160649,-0.489683,-0.105096,0.802710,-0.108113,-0.576995,-171.981212,71.630505,-9.550312
60381,NaN,-9.272102,0.027435,-2.217033,-0.882143,-0.222625,-0.322703,0.264072,-0.267744,-0.536207,-0.107932,0.802063,-0.106566,-0.577658,-170.814506,71.739291,-8.487963
60382,NaN,-8.214090,-0.250666,-2.151492,-0.522954,-0.046807,-1.334063,0.307834,-0.294510,-0.548173,-0.110983,0.801322,-0.105090,-0.578379,-169.585256,71.853240,-7.386723
60383,NaN,-7.309615,-0.451854,-2.141403,-0.187107,0.056146,-2.184983,0.336280,-0.225511,-0.565582,-0.114168,0.800753,-0.103656,-0.578805,-168.315669,71.920792,-6.260893
60384,NaN,-6.868382,-0.362016,-2.327218,0.087114,-0.150040,-2.553803,0.365118,-0.065691,-0.538308,-0.117299,0.800617,-0.102513,-0.578571,-167.134898,71.892869,-5.245878
60385,NaN,-6.990943,-0.111240,-2.563566,0.172498,-0.501450,-2.384623,0.377704,0.115152,-0.504505,-0.120295,0.800961,-0.101638,-0.577634,-166.079268,71.764281,-4.369860
60386,NaN,-7.466545,0.310439,-2.784044,0.070316,-1.000010,-1.901214,0.338890,0.188020,-0.493688,-0.123059,0.801534,-0.100745,-0.576412,-165.114219,71.590230,-3.564917
60387,NaN,-8.152249,0.440302,-2.743965,-0.250072,-1.139534,-1.279161,0.297219,0.165908,-0.513466,-0.125729,0.802061,-0.099632,-0.575294,-164.142608,71.422860,-2.727238
60388,NaN,-7.877122,-0.296549,-2.314290,-0.349085,-0.353905,-1.612345,0.268623,0.077866,-0.547841,-0.128420,0.802372,-0.098249,-0.574504,-163.109080,71.292016,-1.806032
60389,NaN,-7.175213,-0.747214,-2.726004,0.360661,-0.109905,-2.110041,0.219119,0.128081,-0.567879,-0.130950,0.802851,-0.096668,-0.573530,-162.107410,71.126784,-0.887866
60390,NaN,-7.038925,-0.888870,-2.891149,0.567359,-0.070640,-2.172780,0.187385,0.265800,-0.582242,-0.133319,0.803754,-0.095034,-0.571991,-161.195692,70.877461,-0.044312
60391,NaN,-7.040075,-1.070905,-3.005213,0.687360,0.026262,-2.114156,0.142407,0.361718,-0.597845,-0.135511,0.804950,-0.093265,-0.570083,-160.356802,70.570733,0.750623
60392,NaN,-7.119986,-0.869615,-3.104140,0.643351,-0.234366,-2.026996,0.126833,0.429493,-0.637791,-0.137715,0.806365,-0.091342,-0.567861,-159.534058,70.214327,1.539703
60393,NaN,-6.741430,0.172430,-3.059109,0.369226,-1.239207,-2.521424,0.128964,0.422460,-0.649816,-0.139969,0.807743,-0.089365,-0.565662,-158.713109,69.856926,2.327120
60394,NaN,-5.624110,2.132124,-2.856348,-0.057999,-3.041370,-3.889696,0.127106,0.385067,-0.596348,-0.142072,0.808990,-0.087576,-0.563631,-157.979442,69.525691,3.024568
60395,NaN,-4.577477,3.588702,-2.177282,-0.761882,-4.196259,-5.297879,0.074432,0.394806,-0.472298,-0.143612,0.810230,-0.086143,-0.561678,-157.473999,69.215050,3.511694
60396,NaN,-4.189071,3.214005,-1.938313,-0.743571,-3.765563,-5.701386,-0.053417,0.440204,-0.271862,-0.144045,0.811605,-0.085199,-0.559723,-157.359635,68.922166,3.659685
60397,NaN,-5.124507,1.209602,-2.382023,-0.107898,-2.036807,-4.405521,-0.183622,0.522610,0.036890,-0.143051,0.813158,-0.085201,-0.557720,-157.786285,68.654816,3.307636
60398,NaN,-6.108835,-0.815975,-2.954839,0.617103,-0.305085,-3.012639,-0.276666,0.576415,0.376561,-0.140705,0.814783,-0.086363,-0.555762,-158.744033,68.427823,2.441636
60399,NaN,-6.980011,-2.106398,-3.811672,1.409894,0.677718,-1.735637,-0.343943,0.525858,0.669141,-0.137292,0.816167,-0.088493,-0.554248,-160.090185,68.282076,1.198176
60400,NaN,-8.325507,-2.890259,-4.838027,2.030470,1.160605,-0.034979,-0.387051,0.403624,0.805187,-0.133378,0.817172,-0.090973,-0.553321,-161.572919,68.215277,-0.166707
60401,NaN,-9.996887,-3.323134,-5.086763,1.755148,1.590539,1.643529,-0.376554,0.185324,0.778048,-0.129678,0.817554,-0.093223,-0.553262,-162.910685,68.251703,-1.382105
60402,NaN,-10.906225,-3.285817,-5.141506,1.474040,1.639007,2.488432,-0.345145,-0.039393,0.666385,-0.126518,0.817339,-0.094956,-0.554015,-163.991219,68.382530,-2.339359
60403,NaN,-10.930343,-2.365936,-5.591676,1.619440,0.701412,2.565595,-0.318100,-0.076231,0.504777,-0.123934,0.817068,-0.096078,-0.554806,-164.825877,68.503920,-3.048139
60404,NaN,-11.068112,-1.275756,-6.253804,1.847814,-0.475487,2.820599,-0.340350,0.098072,0.315650,-0.121697,0.817384,-0.096475,-0.554766,-165.479575,68.496557,-3.548381
60405,NaN,-11.251232,-0.756647,-6.381082,1.725090,-0.954387,2.993321,-0.335090,0.350789,0.112726,-0.119925,0.818488,-0.096207,-0.553571,-165.932087,68.319207,-3.835906
60406,NaN,-10.938600,-0.562855,-6.322529,1.681121,-1.094297,2.674107,-0.290172,0.566284,-0.096587,-0.118808,0.820259,-0.095339,-0.551335,-166.138317,67.991684,-3.886237
60407,NaN,-10.339708,-0.165731,-6.158667,1.568170,-1.420623,2.035865,-0.200254,0.747574,-0.232486,-0.118350,0.822527,-0.094265,-0.548230,-166.165331,67.545176,-3.798833
60408,NaN,-8.922571,-0.261748,-4.964583,0.996517,-1.007436,0.302609,-0.051472,0.811444,-0.371964,-0.118850,0.824937,-0.093064,-0.544695,-165.947471,67.043298,-3.538015
60409,NaN,-7.850601,-0.948206,-3.968335,0.651910,-0.095391,-0.989757,0.032067,0.774709,-0.471036,-0.119982,0.827224,-0.091657,-0.541206,-165.552775,66.547652,-3.135959
60410,NaN,-7.370504,-1.033749,-3.968612,0.789925,-0.046229,-1.415295,0.088156,0.785940,-0.540607,-0.121524,0.829524,-0.090120,-0.537588,-165.059980,66.034122,-2.660275
60411,NaN,-7.390698,-0.915476,-4.210536,0.880338,-0.254051,-1.306865,0.024732,0.830941,-0.539763,-0.122779,0.831961,-0.088439,-0.533802,-164.638749,65.494548,-2.221334
60412,NaN,-8.041461,-0.757286,-4.003818,0.305516,-0.349671,-0.809747,-0.140739,0.826561,-0.484876,-0.123197,0.834446,-0.086542,-0.530126,-164.393675,64.964527,-1.870049
60413,NaN,-8.788650,-0.629219,-4.004941,-0.127726,-0.469348,-0.146320,-0.338163,0.791684,-0.423800,-0.122643,0.836913,-0.084352,-0.526707,-164.331632,64.462923,-1.594667
60414,NaN,-9.390050,-0.035059,-4.283954,-0.387545,-1.109844,0.441291,-0.502888,0.742347,-0.370135,-0.121275,0.839310,-0.081922,-0.523584,-164.415110,63.996715,-1.374899
60415,NaN,-9.692396,0.258127,-4.255857,-0.693410,-1.370429,0.664059,-0.615440,0.648004,-0.329678,-0.119365,0.841491,-0.079307,-0.520917,-164.580691,63.589165,-1.173958
60416,NaN,-9.714508,0.039322,-4.439975,-0.551409,-1.199415,0.786540,-0.677642,0.578964,-0.297408,-0.117134,0.843500,-0.076623,-0.518572,-164.797126,63.224782,-0.989346
60417,NaN,-9.537072,0.453103,-5.050047,-0.115905,-1.746802,0.845587,-0.672927,0.701546,-0.254428,-0.114760,0.845786,-0.074204,-0.515723,-165.093256,62.799599,-0.896485
60418,NaN,-9.695294,0.568041,-5.140311,-0.216409,-1.855896,1.015624,-0.566374,0.857135,-0.257688,-0.112786,0.848393,-0.072132,-0.512158,-165.365915,62.287701,-0.845653
60419,NaN,-9.546971,-0.259971,-5.146313,-0.038268,-1.039480,0.986106,-0.406617,0.916956,-0.272931,-0.111501,0.851044,-0.070438,-0.508262,-165.545359,61.740803,-0.792478
60420,NaN,-9.356642,-0.547745,-5.493767,0.312120,-0.841617,1.014205,-0.228883,0.942921,-0.298537,-0.111028,0.853649,-0.069098,-0.504164,-165.601853,61.175622,-0.715183
60421,NaN,-9.352927,-0.438848,-5.534280,0.223491,-0.956966,1.019284,-0.107328,0.826135,-0.345205,-0.111225,0.855889,-0.067801,-0.500486,-165.514964,60.668812,-0.552854
60422,NaN,-8.426382,-1.445088,-4.625115,0.060971,0.232623,-0.095401,-0.039573,0.588352,-0.397795,-0.111927,0.857500,-0.066312,-0.497763,-165.281113,60.285773,-0.265806
60423,NaN,-6.953591,-2.310953,-4.550954,0.866628,1.067172,-1.297173,-0.033740,0.474245,-0.379026,-0.112639,0.858808,-0.064857,-0.495534,-165.040305,59.968337,0.026710
60424,NaN,-6.278768,-2.031779,-4.691997,1.212759,0.750502,-1.842012,-0.104491,0.506426,-0.281069,-0.112798,0.860197,-0.063662,-0.493240,-164.945119,59.646965,0.198298
60425,NaN,-6.279473,-1.590867,-4.996463,1.322637,0.249302,-1.743266,-0.229543,0.558937,-0.143682,-0.112059,0.861734,-0.062781,-0.490832,-165.066431,59.316997,0.202539
60426,NaN,-6.897675,-0.827736,-5.264976,1.017525,-0.540785,-1.172375,-0.304723,0.560646,-0.012794,-0.110677,0.863268,-0.062277,-0.488509,-165.349930,59.005159,0.067845
60427,NaN,-7.550562,-0.073692,-5.263692,0.473881,-1.243867,-0.704951,-0.322670,0.512377,0.064092,-0.109040,0.864662,-0.062036,-0.486437,-165.699577,58.730638,-0.132300
60428,NaN,-8.437231,0.483158,-5.291879,-0.120176,-1.760981,0.001008,-0.281305,0.416796,0.065506,-0.107610,0.865794,-0.061847,-0.484764,-165.999770,58.508933,-0.303035
60429,NaN,-8.916970,0.700503,-5.019940,-0.670787,-1.882165,0.247645,-0.183573,0.269875,0.025878,-0.106740,0.866527,-0.061647,-0.483671,-166.173891,58.362986,-0.391516
60430,NaN,-8.865799,0.890464,-4.983448,-0.733855,-2.047683,0.162206,-0.090466,0.176703,-0.023821,-0.106426,0.866997,-0.061404,-0.482928,-166.227127,58.262126,-0.401091
60431,NaN,-8.381092,1.180327,-5.264331,-0.326298,-2.396157,-0.143097,-0.050949,0.214664,-0.054756,-0.106340,0.867548,-0.061147,-0.481990,-166.240004,58.135897,-0.389319
60432,NaN,-8.227264,0.964400,-5.374883,-0.133969,-2.214534,-0.190571,-0.031896,0.301207,-0.099283,-0.106424,0.868308,-0.060785,-0.480646,-166.219413,57.955457,-0.351462
60433,NaN,-8.327192,0.487328,-5.236002,-0.234163,-1.720591,-0.118361,-0.019932,0.344848,-0.138241,-0.106631,0.869176,-0.060311,-0.479087,-166.169839,57.745408,-0.286681
60434,NaN,-8.062540,-0.315242,-4.809748,-0.309576,-0.845464,-0.462453,-0.024449,0.312103,-0.177414,-0.106931,0.869977,-0.059632,-0.477650,-166.079755,57.548136,-0.171444
60435,NaN,-7.495124,-0.866887,-4.726259,0.009297,-0.298110,-0.914548,-0.062287,0.305443,-0.191903,-0.107091,0.870785,-0.058803,-0.476244,-166.001240,57.352529,-0.043137
60436,NaN,-7.101779,-0.861912,-4.792776,0.244138,-0.322773,-1.211235,-0.138020,0.340059,-0.168117,-0.106866,0.871704,-0.057908,-0.474720,-165.992458,57.140868,0.053316
60437,NaN,-7.187129,-0.606262,-5.074490,0.344158,-0.634611,-1.023401,-0.240221,0.360619,-0.124340,-0.106073,0.872711,-0.056980,-0.473157,-166.087366,56.923905,0.097067
60438,NaN,-7.522920,-0.145437,-5.489592,0.374519,-1.169382,-0.579959,-0.355251,0.372774,-0.113366,-0.104760,0.873798,-0.055826,-0.471577,-166.256814,56.701701,0.129749
60439,NaN,-8.237247,0.203914,-5.866250,0.190017,-1.580372,0.175952,-0.448079,0.314966,-0.127113,-0.103077,0.874797,-0.054371,-0.470264,-166.458117,56.509874,0.189007
60440,NaN,-8.829094,0.394139,-5.975672,-0.104875,-1.773927,0.706773,-0.484071,0.178954,-0.159072,-0.101360,0.875496,-0.052612,-0.469538,-166.622212,56.389694,0.316811
60441,NaN,-8.981780,0.307836,-5.980262,-0.175694,-1.676966,0.849750,-0.501046,0.024634,-0.179352,-0.099642,0.875841,-0.050656,-0.469476,-166.751700,56.353054,0.499075
60442,NaN,-8.878904,-0.108088,-5.929268,-0.077823,-1.249264,0.790902,-0.482847,-0.091599,-0.185185,-0.098060,0.875899,-0.048649,-0.469914,-166.839499,56.380690,0.717796
60443,NaN,-8.617307,-0.703026,-5.447818,-0.204388,-0.555772,0.389286,-0.424248,-0.198041,-0.176667,-0.096725,0.875671,-0.046775,-0.470804,-166.883455,56.468992,0.949916
60444,NaN,-8.335089,-1.273463,-5.135998,-0.184762,0.073486,0.058195,-0.373214,-0.248003,-0.140859,-0.095555,0.875287,-0.045143,-0.471916,-166.914079,56.589882,1.161464
60445,NaN,-8.239608,-1.667860,-4.701631,-0.401208,0.555206,-0.204931,-0.343930,-0.236254,-0.087426,-0.094369,0.874901,-0.043830,-0.472993,-166.978765,56.711300,1.313080
60446,NaN,-8.064397,-1.938953,-4.584440,-0.339653,0.854668,-0.380547,-0.379000,-0.202596,-0.035623,-0.092915,0.874594,-0.042666,-0.473953,-167.110163,56.820651,1.407539
60447,NaN,-7.952593,-1.963328,-4.819948,-0.068644,0.847836,-0.346606,-0.464039,-0.154121,-0.006610,-0.090994,0.874433,-0.041460,-0.474730,-167.328423,56.906883,1.457498
60448,NaN,-7.923221,-1.674788,-5.127837,0.162827,0.528620,-0.243412,-0.562257,-0.088446,0.021519,-0.088578,0.874459,-0.040163,-0.475251,-167.636464,56.959874,1.466286
60449,NaN,-7.936451,-1.207857,-5.373504,0.289599,0.054979,-0.156926,-0.635025,-0.023541,0.016474,-0.085828,0.874665,-0.038709,-0.475495,-167.997864,56.976055,1.462235
60450,NaN,-8.193471,-0.905205,-5.532307,0.237033,-0.239914,0.109254,-0.681876,-0.010041,0.003064,-0.082915,0.874917,-0.037081,-0.475679,-168.373656,56.982965,1.471954
60451,NaN,-8.273923,-0.748283,-5.736873,0.341531,-0.394461,0.269825,-0.688814,-0.005973,-0.001284,-0.079967,0.875173,-0.035427,-0.475839,-168.753931,56.987214,1.482149
60452,NaN,-8.263000,-0.572978,-6.228954,0.732251,-0.612683,0.506887,-0.678298,0.009722,0.005271,-0.077059,0.875450,-0.033825,-0.475926,-169.133065,56.983323,1.485438
60453,NaN,-8.256289,-0.569260,-6.808920,1.216757,-0.670466,0.813769,-0.645454,0.024383,0.008928,-0.074269,0.875740,-0.032331,-0.475939,-169.502514,56.971581,1.478950
60454,NaN,-8.504203,-0.439853,-7.237209,1.419927,-0.828709,1.241228,-0.562117,0.038851,0.011103,-0.071849,0.876025,-0.031041,-0.475873,-169.824668,56.951893,1.470804
60455,NaN,-8.602031,-0.538284,-7.320195,1.447234,-0.709224,1.379826,-0.462542,0.015520,-0.003912,-0.069890,0.876217,-0.029923,-0.475882,-170.076814,56.943651,1.479280
60456,NaN,-8.391746,-0.566285,-7.414466,1.644070,-0.665273,1.258481,-0.349354,0.006221,-0.013630,-0.068466,0.876343,-0.029018,-0.475913,-170.250433,56.939924,1.502905
60457,NaN,-8.291163,-0.377600,-7.542861,1.782745,-0.849561,1.227275,-0.259088,0.033058,-0.029518,-0.067456,0.876506,-0.028279,-0.475801,-170.366506,56.919118,1.534700
60458,NaN,-8.341535,-0.562513,-7.309566,1.580422,-0.622193,1.161943,-0.192268,0.019136,-0.068319,-0.066848,0.876614,-0.027513,-0.475733,-170.404609,56.902912,1.612656
60459,NaN,-8.426142,-0.912175,-6.626924,1.007074,-0.175381,0.897266,-0.165612,-0.044039,-0.098176,-0.066420,0.876571,-0.026669,-0.475920,-170.396462,56.918886,1.728846
60460,NaN,-8.137899,-1.007010,-6.027105,0.682324,0.007260,0.341122,-0.135238,-0.097624,-0.104633,-0.066165,0.876386,-0.025841,-0.476342,-170.353112,56.965151,1.864974
60461,NaN,-7.875882,-0.997236,-5.663446,0.530618,0.050212,-0.075412,-0.122618,-0.119126,-0.110521,-0.065965,0.876150,-0.025020,-0.476848,-170.298138,57.022146,2.007514
60462,NaN,-7.776009,-1.216209,-5.324211,0.336255,0.311535,-0.321504,-0.129606,-0.136242,-0.121342,-0.065778,0.875871,-0.024119,-0.477432,-170.230594,57.088456,2.168451
60463,NaN,-7.591695,-1.453247,-5.044755,0.241188,0.583154,-0.604155,-0.119070,-0.196466,-0.127216,-0.065644,0.875450,-0.023208,-0.478268,-170.146368,57.187245,2.343136
60464,NaN,-7.523975,-1.556414,-4.772232,0.079175,0.716676,-0.796763,-0.120018,-0.268434,-0.140133,-0.065559,0.874851,-0.022205,-0.479422,-170.035211,57.326048,2.549029
60465,NaN,-7.246750,-1.504928,-4.699892,0.185425,0.673907,-1.073088,-0.121908,-0.317909,-0.147687,-0.065475,0.874137,-0.021157,-0.480780,-169.913287,57.490942,2.769789
60466,NaN,-6.970369,-1.448953,-4.760737,0.403662,0.609075,-1.279449,-0.119282,-0.325890,-0.142171,-0.065405,0.873395,-0.020127,-0.482182,-169.787710,57.661475,2.991534
60467,NaN,-6.445144,-1.511124,-5.096323,0.993911,0.633802,-1.541878,-0.105472,-0.266335,-0.129970,-0.065345,0.872792,-0.019213,-0.483316,-169.676908,57.798562,3.187147
60468,NaN,-6.200219,-1.413727,-5.487720,1.459175,0.488269,-1.555036,-0.110766,-0.159660,-0.108518,-0.065215,0.872441,-0.018404,-0.483999,-169.600951,57.878433,3.343873
60469,NaN,-6.319340,-1.493775,-5.681251,1.573092,0.537545,-1.346374,-0.138711,-0.053477,-0.094144,-0.064904,0.872359,-0.017635,-0.484217,-169.574757,57.898833,3.461681
60470,NaN,-6.484010,-1.689364,-5.776878,1.584489,0.714052,-1.138117,-0.107881,0.010210,-0.073635,-0.064686,0.872413,-0.017041,-0.484170,-169.556122,57.886499,3.548689
60471,NaN,-6.825690,-1.626236,-5.771430,1.389467,0.640871,-0.857088,-0.063538,0.027973,-0.053973,-0.064599,0.872501,-0.016655,-0.484036,-169.536248,57.864899,3.608133
60472,NaN,-6.941952,-1.577754,-5.896694,1.425503,0.570616,-0.697132,-0.003163,0.032491,-0.032892,-0.064738,0.872572,-0.016499,-0.483896,-169.497965,57.844219,3.647522
60473,NaN,-7.001089,-1.009165,-6.127854,1.533776,-0.029839,-0.580629,0.079899,0.029308,-0.019671,-0.065195,0.872614,-0.016609,-0.483754,-169.426815,57.825202,3.670423
60474,NaN,-7.290859,-0.042730,-6.188709,1.339043,-1.014591,-0.398011,0.117550,0.031617,-0.036098,-0.065867,0.872643,-0.016732,-0.483607,-169.316487,57.804622,3.713234
60475,NaN,-8.268384,0.737286,-6.273256,0.813995,-1.842652,0.395424,0.119734,0.023232,-0.023022,-0.066506,0.872658,-0.016922,-0.483485,-169.218773,57.788415,3.740603
60476,NaN,-9.363785,1.543790,-6.244901,0.130276,-2.686876,1.224806,0.130802,-0.026609,-0.019312,-0.067201,0.872540,-0.017130,-0.483595,-169.106037,57.802327,3.777295
60477,NaN,-9.959946,2.212943,-5.933179,-0.508646,-3.341517,1.495530,0.147339,-0.096954,-0.038997,-0.068007,0.872256,-0.017278,-0.483989,-168.958111,57.851878,3.845480
60478,NaN,-9.877641,1.931943,-5.539280,-0.758255,-3.026115,1.244050,0.173992,-0.163720,-0.111299,-0.069124,0.871798,-0.017144,-0.484662,-168.713743,57.932546,4.008320
60479,NaN,-9.234033,1.549896,-5.423226,-0.462484,-2.636097,0.671487,0.196429,-0.194596,-0.217065,-0.070580,0.871272,-0.016603,-0.485415,-168.359923,58.016473,4.286341
60480,NaN,-9.050944,1.670034,-5.862113,0.008572,-2.847286,0.721338,0.201217,-0.171468,-0.327623,-0.072340,0.870798,-0.015589,-0.486040,-167.901630,58.074921,4.682653
60481,NaN,-8.967442,2.008922,-6.296772,0.401379,-3.288675,0.823259,0.179107,-0.174292,-0.461618,-0.074309,0.870339,-0.013951,-0.486614,-167.339436,58.115157,5.217690
60482,NaN,-9.086457,1.931221,-6.638852,0.653551,-3.325382,1.090614,0.112644,-0.198232,-0.594318,-0.076334,0.869840,-0.011550,-0.487257,-166.683918,58.150097,5.905609
60483,NaN,-9.074169,1.887647,-6.817527,0.837845,-3.374057,1.155251,0.075459,-0.229164,-0.707205,-0.078448,0.869284,-0.008572,-0.487973,-165.947270,58.181135,6.715767
60484,NaN,-8.947981,1.906417,-6.694772,0.825761,-3.441827,0.957274,0.087445,-0.270828,-0.790130,-0.080841,0.868602,-0.005231,-0.488844,-165.111415,58.218909,7.632356
60485,NaN,-8.603008,1.664836,-6.423676,0.826469,-3.218296,0.531679,0.142084,-0.293569,-0.807320,-0.083485,0.867837,-0.001957,-0.489780,-164.229365,58.258063,8.568290
60486,NaN,-8.130919,1.636929,-5.996228,0.735650,-3.167528,-0.108502,0.212187,-0.218256,-0.734651,-0.086281,0.867201,0.000817,-0.490427,-163.381673,58.261228,9.414167
60487,NaN,-7.805038,1.453403,-5.306287,0.345010,-2.922278,-0.728161,0.280501,-0.097829,-0.594144,-0.088996,0.866830,0.002741,-0.490589,-162.661363,58.214575,10.066893
60488,NaN,-7.422472,0.820791,-4.868826,0.222595,-2.252071,-1.190003,0.331487,0.028901,-0.419103,-0.091535,0.866730,0.003746,-0.490292,-162.094571,58.126420,10.502521
60489,NaN,-7.091727,0.556563,-4.695917,0.257438,-1.972603,-1.524355,0.366951,0.147078,-0.225373,-0.093720,0.866915,0.003748,-0.489552,-161.722858,58.005357,10.687575
60490,NaN,-6.966587,0.477851,-5.022040,0.586470,-1.961676,-1.458625,0.350098,0.241222,-0.068042,-0.095483,0.867323,0.003088,-0.488492,-161.516608,57.862151,10.686292
60491,NaN,-7.296927,0.611666,-4.775298,0.168443,-2.101771,-1.328769,0.273182,0.253674,-0.010363,-0.096735,0.867809,0.002336,-0.487385,-161.418526,57.721554,10.612189
60492,NaN,-8.152357,0.455147,-4.331658,-0.659027,-1.969459,-0.806120,0.168163,0.092854,-0.014760,-0.097576,0.867939,0.001960,-0.486988,-161.320298,57.668659,10.606430
