// General information: 
//  MT Manager version: 2019.0.1 
//  XDA version: 2019.0.1 build 2740 rev 84096 built on 2019-01-30
// Device information: 
//  DeviceId: 00B43876
//  ProductCode: MTW2-3A7G6
//  Firmware Version: 4.3.4
//  Hardware Version: 1.1.0
// Device settings: 
//  Filter Profile: human(46.1)
//  Option Flags: Orientation Smoother Disabled, AHS Disabled, ICC Disabled
// Coordinate system: ENU
PacketCounter,SampleTimeFine,Acc_X,Acc_Y,Acc_Z,FreeAcc_E,FreeAcc_N,FreeAcc_U,Gyr_X,Gyr_Y,Gyr_Z,Quat_q0,Quat_q1,Quat_q2,Quat_q3,Roll,Pitch,Yaw
49444,NaN,2.577185,8.713662,-3.876295,-0.007571,0.006152,0.066349,-0.001635,0.008022,-0.003332,0.443222,0.502894,-0.666066,-0.327122,114.032377,-15.153986,-96.024562
49445,NaN,2.582218,8.692637,-3.864855,-0.010574,-0.004459,0.044633,-0.001819,0.009702,-0.003740,0.443235,0.502897,-0.666061,-0.327109,114.032117,-15.155401,-96.022783
49446,NaN,2.605363,8.700782,-3.913277,0.028677,-0.023425,0.076898,-0.003215,0.010938,0.000245,0.443263,0.502882,-0.666063,-0.327090,114.031059,-15.159457,-96.021723
49447,NaN,2.586230,8.690744,-3.923509,0.044023,-0.007316,0.067067,-0.003048,0.008264,-0.002635,0.443276,0.502877,-0.666062,-0.327082,114.030369,-15.161115,-96.020990
49448,NaN,2.602220,8.703308,-3.852620,-0.027390,-0.019597,0.054464,-0.002003,0.011380,-0.004147,0.443296,0.502885,-0.666050,-0.327066,114.029615,-15.162710,-96.017921
49449,NaN,2.563799,8.721124,-3.855032,-0.027900,0.022404,0.061069,-0.002202,0.012066,-0.007842,0.443311,0.502906,-0.666029,-0.327058,114.028541,-15.162530,-96.013868
49450,NaN,2.568527,8.700199,-3.843564,-0.030870,0.011782,0.039352,-0.000605,0.010143,-0.008131,0.443318,0.502929,-0.666011,-0.327049,114.028441,-15.161714,-96.010328
49451,NaN,2.596156,8.687212,-3.881175,0.005727,-0.018082,0.049911,0.001523,0.010276,-0.007532,0.443319,0.502954,-0.666000,-0.327032,114.029774,-15.161278,-96.007320
49452,NaN,2.587358,8.710706,-3.832475,-0.047345,-0.003597,0.049180,0.001707,0.008596,-0.007125,0.443314,0.502972,-0.665997,-0.327018,114.031462,-15.160817,-96.005604
49453,NaN,2.581382,8.694098,-3.862127,-0.013505,-0.002543,0.044630,0.001346,0.003869,-0.010893,0.443288,0.502997,-0.665992,-0.327025,114.033390,-15.157128,-96.005257
49454,NaN,2.561633,8.722033,-3.854415,-0.029733,0.023598,0.061060,0.003658,0.002322,-0.009887,0.443253,0.503021,-0.665996,-0.327026,114.036913,-15.153663,-96.005966
49455,NaN,2.599416,8.704563,-3.851679,-0.029989,-0.017937,0.054459,0.002259,0.003558,-0.005903,0.443232,0.503030,-0.666006,-0.327019,114.039724,-15.152513,-96.006994
49456,NaN,2.555178,8.705420,-3.884386,0.003787,0.024914,0.056512,0.001729,0.001503,-0.006791,0.443206,0.503035,-0.666018,-0.327023,114.042180,-15.150662,-96.009091
49457,NaN,2.579088,8.694581,-3.862572,-0.014952,-0.001568,0.044628,0.000132,0.003425,-0.006502,0.443189,0.503042,-0.666023,-0.327026,114.043752,-15.149168,-96.010046
49458,NaN,2.568211,8.699126,-3.903275,0.021516,0.010324,0.061799,0.001361,0.004861,-0.007606,0.443172,0.503058,-0.666024,-0.327023,114.045758,-15.147448,-96.009897
49459,NaN,2.562471,8.682495,-3.932816,0.055358,0.011360,0.057258,-0.000936,0.007400,-0.005325,0.443173,0.503065,-0.666021,-0.327016,114.046230,-15.147497,-96.008982
49460,NaN,2.586759,8.671670,-3.910729,0.036639,-0.015130,0.045376,-0.001267,0.004661,-0.002518,0.443172,0.503059,-0.666029,-0.327011,114.046922,-15.148349,-96.009870
49461,NaN,2.578375,8.695135,-3.861802,-0.016428,-0.000643,0.044626,-0.002850,0.007576,0.001058,0.443188,0.503040,-0.666039,-0.326996,114.046675,-15.151779,-96.010404
49462,NaN,2.548763,8.689424,-3.912957,0.035806,0.027155,0.051972,-0.001451,0.006339,-0.002925,0.443191,0.503031,-0.666047,-0.326990,114.047071,-15.153191,-96.011264
49463,NaN,2.593094,8.726786,-3.861273,-0.030280,-0.005127,0.076166,-0.003933,0.010557,-0.001052,0.443217,0.503022,-0.666044,-0.326976,114.045648,-15.156212,-96.009671
49464,NaN,2.579017,8.695567,-3.860399,-0.017530,0.000111,0.044624,-0.003748,0.008878,-0.000645,0.443238,0.503010,-0.666044,-0.326964,114.044573,-15.159047,-96.008966
49465,NaN,2.607632,8.720592,-3.878943,-0.012561,-0.019725,0.081458,-0.005875,0.008744,-0.001245,0.443262,0.502995,-0.666041,-0.326962,114.042282,-15.161545,-96.008310
49466,NaN,2.593803,8.727447,-3.859302,-0.031406,-0.004418,0.076163,-0.006404,0.006689,-0.002133,0.443280,0.502978,-0.666040,-0.326968,114.039926,-15.163155,-96.008603
49467,NaN,2.603858,8.685378,-3.836479,-0.037034,-0.025886,0.032738,-0.005175,0.008125,-0.003236,0.443297,0.502969,-0.666034,-0.326969,114.037998,-15.164466,-96.007800
49468,NaN,2.584462,8.675425,-3.846698,-0.021617,-0.009812,0.022910,-0.003577,0.006205,-0.003525,0.443306,0.502965,-0.666031,-0.326970,114.037000,-15.165139,-96.007484
49469,NaN,2.603673,8.685875,-3.835478,-0.037748,-0.025430,0.032736,-0.002877,0.005587,-0.005517,0.443305,0.502965,-0.666029,-0.326975,114.036604,-15.164664,-96.007506
49470,NaN,2.584160,8.675858,-3.845924,-0.022325,-0.009300,0.022908,-0.001450,0.006338,-0.002925,0.443309,0.502956,-0.666036,-0.326969,114.036855,-15.166025,-96.008152
49471,NaN,2.583762,8.676039,-3.845783,-0.022700,-0.009068,0.022908,0.000307,0.000752,-0.009382,0.443278,0.502969,-0.666040,-0.326984,114.038724,-15.162400,-96.009860
49472,NaN,2.592103,8.690832,-3.875776,-0.001970,-0.013047,0.049920,0.001549,0.003182,-0.007197,0.443256,0.502980,-0.666046,-0.326984,114.040986,-15.160538,-96.010717
49473,NaN,2.597046,8.707708,-3.846163,-0.036567,-0.013588,0.054444,0.002262,0.003558,-0.005901,0.443235,0.502990,-0.666055,-0.326978,114.043798,-15.159389,-96.011745
49474,NaN,2.567178,8.739989,-3.879097,-0.015929,0.024195,0.088038,-0.000393,0.001369,-0.007390,0.443211,0.502996,-0.666061,-0.326989,114.045289,-15.156941,-96.013484
49475,NaN,2.566628,8.740154,-3.879090,-0.016304,0.024429,0.088037,0.001549,0.003182,-0.007197,0.443189,0.503008,-0.666067,-0.326989,114.047663,-15.155026,-96.014403
49476,NaN,2.557430,8.725560,-3.849221,-0.037700,0.028931,0.061019,0.002987,0.004928,-0.001317,0.443180,0.503002,-0.666088,-0.326967,114.050661,-15.156902,-96.016016
49477,NaN,2.552087,8.708802,-3.878835,-0.003853,0.029928,0.056498,-0.001450,0.006337,-0.002925,0.443183,0.502998,-0.666093,-0.326960,114.051140,-15.157959,-96.016258
49478,NaN,2.566113,8.702390,-3.897374,0.014256,0.015079,0.061806,-0.003909,0.003464,-0.000719,0.443187,0.502978,-0.666104,-0.326963,114.050581,-15.159501,-96.018295
49479,NaN,2.551894,8.671072,-3.896834,0.027026,0.020291,0.030271,0.001205,0.008526,-0.001436,0.443193,0.502978,-0.666112,-0.326938,114.052365,-15.161848,-96.017710
49480,NaN,2.609781,8.663857,-3.882777,0.010934,-0.037085,0.033522,-0.003048,0.008257,-0.002637,0.443206,0.502973,-0.666111,-0.326930,114.051698,-15.163518,-96.016926
49481,NaN,2.615331,8.680812,-3.852570,-0.023666,-0.037609,0.038037,-0.002704,0.011989,-0.002155,0.443232,0.502973,-0.666103,-0.326910,114.050706,-15.166298,-96.014290
49482,NaN,2.596243,8.670753,-3.862824,-0.008278,-0.021514,0.028212,-0.002704,0.011988,-0.002155,0.443257,0.502971,-0.666097,-0.326891,114.049782,-15.169238,-96.011948
49483,NaN,2.601778,8.687705,-3.832620,-0.042876,-0.022031,0.032723,-0.002002,0.011370,-0.004147,0.443276,0.502978,-0.666087,-0.326876,114.049153,-15.170831,-96.009166
49484,NaN,2.582925,8.715606,-3.824316,-0.058991,0.004154,0.049117,-0.002519,0.010309,-0.001748,0.443300,0.502975,-0.666081,-0.326860,114.048036,-15.173540,-96.007105
49485,NaN,2.577944,8.698842,-3.853730,-0.025144,0.005133,0.044606,0.001401,0.007840,0.002260,0.443309,0.502962,-0.666101,-0.326827,114.050263,-15.177661,-96.007786
49486,NaN,2.559176,8.726590,-3.845723,-0.041312,0.031363,0.060997,-0.001449,0.006336,-0.002925,0.443312,0.502954,-0.666108,-0.326821,114.050613,-15.179035,-96.008476
49487,NaN,2.557648,8.707745,-3.934766,0.047828,0.028847,0.079009,-0.002484,0.004215,0.001872,0.443318,0.502928,-0.666128,-0.326811,114.051105,-15.182106,-96.011029
49488,NaN,2.586924,8.637659,-3.920263,0.058054,-0.018558,0.019204,0.000344,0.003732,0.000482,0.443314,0.502910,-0.666152,-0.326798,114.053032,-15.184541,-96.013766
49489,NaN,2.563162,8.686588,-3.923317,0.044485,0.018477,0.057303,-0.001438,0.007329,0.000363,0.443325,0.502896,-0.666163,-0.326781,114.053585,-15.187550,-96.014266
49490,NaN,2.568951,8.703351,-3.893356,0.009888,0.017977,0.061806,-0.000013,0.008081,0.002955,0.443339,0.502879,-0.666181,-0.326751,114.055009,-15.192114,-96.014958
49491,NaN,2.569532,8.703283,-3.893123,0.009513,0.018208,0.061806,0.000849,0.012873,0.001039,0.443364,0.502878,-0.666185,-0.326710,114.056128,-15.196772,-96.012616
49492,NaN,2.575784,8.758016,-3.844410,-0.056686,0.027838,0.092514,-0.001461,0.014415,0.000030,0.443399,0.502878,-0.666178,-0.326675,114.055621,-15.201226,-96.008943
49493,NaN,2.590359,8.751506,-3.862809,-0.038626,0.012979,0.097835,-0.003370,0.006509,0.003456,0.443417,0.502849,-0.666196,-0.326660,114.055381,-15.205662,-96.010636
49494,NaN,2.591222,8.789559,-3.843599,-0.070597,0.023361,0.124038,-0.003586,0.014280,-0.000572,0.443456,0.502846,-0.666186,-0.326634,114.053612,-15.209860,-96.007105
49495,NaN,2.557775,8.710121,-3.872120,-0.010410,0.034231,0.056480,-0.006198,0.006991,0.004845,0.443485,0.502806,-0.666201,-0.326623,114.051771,-15.215136,-96.008873
49496,NaN,2.572360,8.703741,-3.890232,0.007678,0.019391,0.061806,-0.006575,0.009353,0.000743,0.443518,0.502782,-0.666201,-0.326618,114.048952,-15.218982,-96.008487
49497,NaN,2.611192,8.686346,-3.886616,0.007315,-0.022153,0.055249,-0.001092,0.011058,0.000845,0.443541,0.502774,-0.666205,-0.326589,114.049203,-15.223115,-96.007081
49498,NaN,2.626834,8.660879,-3.834252,-0.032513,-0.044308,0.016328,-0.004642,0.010172,-0.002350,0.443566,0.502762,-0.666201,-0.326582,114.047250,-15.225675,-96.005926
49499,NaN,2.618327,8.684327,-3.785245,-0.085545,-0.029685,0.015489,0.001025,0.010200,-0.001840,0.443577,0.502766,-0.666204,-0.326554,114.048666,-15.228202,-96.004336
49500,NaN,2.626958,8.661166,-3.833520,-0.033189,-0.043825,0.016328,-0.002533,0.008320,-0.008324,0.443583,0.502780,-0.666187,-0.326558,114.047433,-15.227047,-96.001965
49501,NaN,2.626472,8.661437,-3.833240,-0.033567,-0.043592,0.016328,0.000479,0.006160,-0.009305,0.443570,0.502802,-0.666180,-0.326559,114.048636,-15.224725,-96.000759
49502,NaN,2.587559,8.679121,-3.836265,-0.033914,-0.001603,0.022880,0.000694,-0.001610,-0.005279,0.443539,0.502800,-0.666197,-0.326569,114.051129,-15.222604,-96.004184
49503,NaN,2.615018,8.704190,-3.855498,-0.029046,-0.021418,0.059739,0.001197,-0.002535,-0.014253,0.443486,0.502825,-0.666197,-0.326600,114.053667,-15.215663,-96.006495
49504,NaN,2.570529,8.743189,-3.869654,-0.026752,0.031428,0.087994,-0.001440,-0.002738,-0.009169,0.443451,0.502831,-0.666203,-0.326629,114.054760,-15.211204,-96.009467
49505,NaN,2.593603,8.694544,-3.866436,-0.013951,-0.005174,0.049918,0.000159,-0.004657,-0.009457,0.443402,0.502834,-0.666218,-0.326659,114.057309,-15.206276,-96.014088
49506,NaN,2.587665,8.715934,-3.877661,-0.011650,0.005925,0.071623,0.000870,-0.004281,-0.008160,0.443357,0.502836,-0.666235,-0.326682,114.059967,-15.202162,-96.018527
49507,NaN,2.562467,8.727140,-3.899563,0.006405,0.032825,0.083508,-0.002854,-0.002498,-0.008475,0.443325,0.502833,-0.666243,-0.326714,114.060544,-15.198252,-96.022215
49508,NaN,2.561946,8.727381,-3.899365,0.006105,0.033116,0.083507,-0.000745,0.005716,-0.004916,0.443323,0.502830,-0.666247,-0.326712,114.060980,-15.198511,-96.022704
49509,NaN,2.518077,8.728265,-3.931864,0.039975,0.075813,0.085572,-0.000928,0.007393,-0.005323,0.443324,0.502837,-0.666245,-0.326705,114.061454,-15.198561,-96.021793
49510,NaN,2.546443,8.753265,-3.950675,0.044897,0.056006,0.122437,-0.001967,0.005272,-0.000527,0.443331,0.502822,-0.666255,-0.326698,114.061529,-15.200711,-96.022886
49511,NaN,2.518486,8.728560,-3.930948,0.039300,0.076280,0.085571,-0.008512,0.008529,0.003834,0.443369,0.502784,-0.666261,-0.326693,114.058078,-15.205817,-96.023575
49512,NaN,2.587412,8.716995,-3.875443,-0.013751,0.007395,0.071619,-0.004620,0.013147,0.007514,0.443420,0.502749,-0.666271,-0.326656,114.056369,-15.213974,-96.022584
49513,NaN,2.569273,8.706838,-3.885339,0.001690,0.023423,0.061800,-0.007481,0.019719,0.005283,0.443496,0.502726,-0.666257,-0.326617,114.052007,-15.222451,-96.017556
49514,NaN,2.599901,8.674828,-3.851196,-0.019653,-0.013855,0.028210,-0.008000,0.018657,0.007681,0.443577,0.502691,-0.666249,-0.326578,114.047107,-15.232105,-96.013479
49515,NaN,2.591144,8.679300,-3.890850,0.016822,-0.002081,0.045441,-0.006577,0.019408,0.010275,0.443658,0.502653,-0.666250,-0.326526,114.043623,-15.243121,-96.009826
49516,NaN,2.583284,8.626683,-3.878649,0.027095,-0.007725,-0.007784,-0.004275,0.016873,0.007998,0.443722,0.502617,-0.666257,-0.326479,114.041291,-15.252814,-96.007592
49517,NaN,2.618349,8.668289,-3.867085,-0.002303,-0.028206,0.033558,-0.004824,0.021903,0.006777,0.443801,0.502599,-0.666246,-0.326422,114.038231,-15.262582,-96.001738
49518,NaN,2.624506,8.647100,-3.855230,-0.005256,-0.038863,0.011855,-0.002683,0.013962,0.004423,0.443846,0.502583,-0.666247,-0.326383,114.037094,-15.269180,-95.999013
49519,NaN,2.645110,8.695346,-3.824813,-0.053067,-0.044213,0.047844,-0.008004,0.017660,0.004392,0.443915,0.502558,-0.666235,-0.326353,114.032664,-15.276710,-95.994881
49520,NaN,2.646016,8.733502,-3.805226,-0.084965,-0.033754,0.074013,-0.004637,0.010166,-0.002351,0.443943,0.502550,-0.666225,-0.326346,114.030274,-15.279113,-95.992907
49521,NaN,2.640800,8.717043,-3.834260,-0.051114,-0.032856,0.069545,-0.005875,0.007738,-0.004539,0.443959,0.502544,-0.666216,-0.326353,114.027912,-15.279653,-95.991997
49522,NaN,2.631478,8.702728,-3.803733,-0.072465,-0.028306,0.042488,-0.004805,0.003768,-0.005717,0.443958,0.502532,-0.666216,-0.326371,114.026390,-15.279026,-95.993498
49523,NaN,2.615656,8.728616,-3.855421,-0.033369,-0.005672,0.081428,0.001925,-0.001162,-0.009667,0.443916,0.502546,-0.666227,-0.326386,114.029443,-15.274807,-95.996176
49524,NaN,2.614283,8.652952,-3.892847,0.029486,-0.025850,0.029100,0.001193,0.005544,-0.011293,0.443896,0.502573,-0.666218,-0.326391,114.030949,-15.271462,-95.995014
49525,NaN,2.585149,8.666204,-3.855390,-0.007686,0.004637,0.018388,0.005460,-0.002259,-0.013044,0.443836,0.502604,-0.666228,-0.326405,114.035968,-15.265220,-95.997469
49526,NaN,2.593183,8.680884,-3.885956,0.012949,0.000597,0.045447,0.010920,0.006530,-0.013263,0.443792,0.502664,-0.666225,-0.326377,114.042884,-15.260831,-95.994829
49527,NaN,2.564090,8.693906,-3.848977,-0.024218,0.031090,0.034730,0.008979,0.004717,-0.013461,0.443745,0.502716,-0.666224,-0.326363,114.048896,-15.255998,-95.993399
49528,NaN,2.582487,8.704047,-3.838908,-0.040383,0.015564,0.044545,0.013046,0.006665,-0.012658,0.443698,0.502776,-0.666227,-0.326328,114.056747,-15.252160,-95.991042
49529,NaN,2.614159,8.764528,-3.900011,-0.011949,0.002377,0.130185,0.015356,0.005123,-0.011647,0.443640,0.502836,-0.666240,-0.326287,114.066470,-15.248372,-95.989829
49530,NaN,2.581152,8.741514,-3.822411,-0.072745,0.026303,0.070696,0.011477,0.002490,-0.008754,0.443588,0.502871,-0.666262,-0.326260,114.074557,-15.245687,-95.991168
49531,NaN,2.603390,8.711506,-3.890666,-0.002107,-0.003096,0.076966,0.009352,0.002354,-0.009359,0.443539,0.502906,-0.666278,-0.326241,114.081381,-15.242449,-95.992010
49532,NaN,2.602657,8.711378,-3.891444,-0.002389,-0.002775,0.076966,0.008488,-0.002435,-0.007444,0.443483,0.502916,-0.666310,-0.326235,114.087998,-15.239660,-95.996618
49533,NaN,2.578542,8.665325,-3.861786,-0.010550,0.006613,0.018384,0.001223,-0.000551,-0.007676,0.443448,0.502923,-0.666323,-0.326246,114.090685,-15.236623,-95.999443
49534,NaN,2.601082,8.673484,-3.910848,0.028462,-0.012546,0.050817,0.005474,-0.000279,-0.006466,0.443405,0.502934,-0.666346,-0.326240,114.095896,-15.234353,-96.002574
49535,NaN,2.600581,8.673542,-3.911052,0.028085,-0.012317,0.050818,0.000150,0.003417,-0.006500,0.443388,0.502941,-0.666351,-0.326243,114.097477,-15.232859,-96.003532
49536,NaN,2.585811,8.642264,-3.910838,0.040933,-0.007184,0.019305,0.001566,0.003177,-0.007193,0.443365,0.502951,-0.666358,-0.326243,114.099897,-15.231031,-96.004631
49537,NaN,2.580343,8.663579,-3.921912,0.043178,0.003920,0.041006,0.001198,0.006529,-0.008008,0.443353,0.502970,-0.666354,-0.326237,114.101540,-15.229476,-96.003537
49538,NaN,2.585198,8.680501,-3.892125,0.008547,0.003577,0.045452,0.001724,0.008582,-0.007117,0.443347,0.502987,-0.666353,-0.326223,114.103412,-15.229133,-96.002245
49539,NaN,2.604371,8.690830,-3.881164,-0.007682,-0.011952,0.055266,0.002776,0.012687,-0.005337,0.443356,0.503010,-0.666345,-0.326191,114.105252,-15.230416,-95.998461
49540,NaN,2.585058,8.680645,-3.891898,0.007872,0.004043,0.045452,0.000835,0.010874,-0.005535,0.443367,0.503028,-0.666334,-0.326171,114.105775,-15.231249,-95.995266
49541,NaN,2.551936,8.714992,-3.865007,-0.026640,0.045444,0.056404,-0.000239,0.014842,-0.004359,0.443393,0.503045,-0.666319,-0.326141,114.105643,-15.233548,-95.990550
49542,NaN,2.599886,8.750173,-3.872917,-0.037678,0.009937,0.103103,0.001915,0.008893,-0.000134,0.443402,0.503040,-0.666331,-0.326111,114.107566,-15.236942,-95.990320
49543,NaN,2.571703,8.725266,-3.853770,-0.043191,0.030197,0.066213,-0.000551,0.005027,-0.001222,0.443400,0.503030,-0.666345,-0.326100,114.108852,-15.238584,-95.991685
49544,NaN,2.605074,8.691134,-3.880009,-0.009376,-0.010747,0.055266,-0.003567,0.007183,-0.000245,0.443418,0.503014,-0.666349,-0.326092,114.107798,-15.241281,-95.991792
49545,NaN,2.619576,8.722680,-3.879799,-0.022995,-0.015389,0.086777,-0.001967,0.005267,-0.000530,0.443422,0.502999,-0.666362,-0.326084,114.108283,-15.243342,-95.993195
49546,NaN,2.624571,8.663660,-3.886984,0.005632,-0.036334,0.038946,-0.002334,0.008618,-0.001345,0.443438,0.502994,-0.666362,-0.326070,114.107961,-15.245657,-95.992294
49547,NaN,2.596052,8.600913,-3.886315,0.031745,-0.026363,-0.024075,0.001020,0.009197,-0.005127,0.443440,0.503007,-0.666359,-0.326052,114.109304,-15.246234,-95.990452
49548,NaN,2.624776,8.663792,-3.886553,0.004893,-0.035862,0.038948,0.001732,0.010567,-0.000541,0.443453,0.503008,-0.666366,-0.326018,114.111059,-15.249609,-95.989030
49549,NaN,2.591395,8.660082,-3.878566,0.002014,-0.004729,0.023755,0.004009,0.013125,-0.009723,0.443453,0.503050,-0.666348,-0.325991,114.113261,-15.248702,-95.983943
49550,NaN,2.582277,8.683451,-3.830020,-0.050914,0.010052,0.022801,0.005060,0.017230,-0.007942,0.443470,0.503097,-0.666324,-0.325945,114.115277,-15.249632,-95.976528
49551,NaN,2.582407,8.759349,-3.792940,-0.114523,0.030872,0.075050,0.007735,0.011346,-0.009400,0.443456,0.503143,-0.666316,-0.325909,114.119888,-15.248477,-95.972484
49552,NaN,2.590872,8.735982,-3.841922,-0.062232,0.016562,0.076004,0.006529,0.002832,-0.007969,0.443421,0.503166,-0.666328,-0.325896,114.124749,-15.246254,-95.973379
49553,NaN,2.570988,8.725719,-3.853221,-0.046735,0.032540,0.066190,0.002307,-0.003527,-0.005561,0.443377,0.503163,-0.666355,-0.325907,114.128615,-15.243624,-95.978328
49554,NaN,2.607721,8.727359,-3.921060,0.010641,-0.001811,0.104045,0.002307,-0.003527,-0.005561,0.443334,0.503159,-0.666380,-0.325918,114.132229,-15.241106,-95.983215
49555,NaN,2.603005,8.691686,-3.880163,-0.013337,-0.008183,0.055264,-0.001418,-0.001750,-0.005884,0.443305,0.503152,-0.666396,-0.325937,114.133686,-15.238724,-95.987121
49556,NaN,2.583035,8.643619,-3.909676,0.033845,-0.002495,0.019334,0.000523,0.000063,-0.005685,0.443280,0.503149,-0.666411,-0.325947,114.135648,-15.237049,-95.990134
49557,NaN,2.601511,8.654174,-3.898684,0.017592,-0.018005,0.029146,-0.004068,-0.004936,-0.010668,0.443238,0.503147,-0.666417,-0.325993,114.135734,-15.231419,-95.994605
49558,NaN,2.595713,8.675823,-3.909226,0.019868,-0.006927,0.050843,-0.009052,0.003479,-0.006936,0.443246,0.503138,-0.666402,-0.326027,114.131785,-15.229533,-95.994757
49559,NaN,2.609383,8.669848,-3.927140,0.037848,-0.021863,0.056236,-0.009236,0.005154,-0.007343,0.443257,0.503130,-0.666386,-0.326058,114.127686,-15.228004,-95.994567
49560,NaN,2.600073,8.693695,-3.877626,-0.015057,-0.007065,0.055262,-0.008895,0.008881,-0.006860,0.443283,0.503130,-0.666358,-0.326078,114.122873,-15.227471,-95.991721
49561,NaN,2.579522,8.702985,-3.958214,0.058280,0.016066,0.089822,-0.010127,0.007445,-0.005761,0.443307,0.503118,-0.666339,-0.326103,114.118037,-15.227306,-95.990674
49562,NaN,2.551305,8.716492,-3.919489,0.021220,0.046671,0.079034,-0.009603,0.010491,-0.001583,0.443347,0.503095,-0.666327,-0.326110,114.113228,-15.230285,-95.989341
49563,NaN,2.565612,8.710413,-3.937234,0.039198,0.031731,0.084429,-0.009942,0.006763,-0.002066,0.443373,0.503070,-0.666319,-0.326128,114.108831,-15.231892,-95.989560
49564,NaN,2.591289,8.718748,-3.824979,-0.069152,0.008429,0.054275,-0.005353,0.010767,-0.000369,0.443405,0.503065,-0.666308,-0.326114,114.106677,-15.234817,-95.986859
49565,NaN,2.576586,8.744494,-3.876151,-0.030052,0.030992,0.093253,-0.005693,0.008034,0.002435,0.443433,0.503037,-0.666316,-0.326105,114.104821,-15.239076,-95.987481
49566,NaN,2.587024,8.702388,-3.853175,-0.035617,0.009531,0.049860,-0.007477,0.010628,-0.000976,0.443469,0.503013,-0.666311,-0.326104,114.101126,-15.242632,-95.986646
49567,NaN,2.592348,8.681396,-3.841475,-0.038610,-0.001122,0.028164,-0.001444,0.007316,0.000361,0.443480,0.502999,-0.666322,-0.326087,114.101674,-15.245639,-95.987153
49568,NaN,2.596569,8.679348,-3.900824,0.016296,-0.004641,0.050851,-0.001784,0.003589,-0.000123,0.443482,0.502982,-0.666336,-0.326082,114.102059,-15.247500,-95.989012
49569,NaN,2.596791,8.679341,-3.900692,0.015920,-0.004411,0.050852,0.001048,0.004104,0.001783,0.443479,0.502964,-0.666361,-0.326061,114.104584,-15.250499,-95.991605
49570,NaN,2.597063,8.717243,-3.882036,-0.016027,0.006174,0.076952,0.002097,0.006221,-0.003011,0.443474,0.502967,-0.666371,-0.326043,114.106800,-15.251585,-95.991793
49571,NaN,2.602184,8.696075,-3.870868,-0.019021,-0.004481,0.055257,-0.001076,0.003966,0.001175,0.443474,0.502947,-0.666392,-0.326031,114.108089,-15.254233,-95.994313
49572,NaN,2.602322,8.696156,-3.870595,-0.019370,-0.004221,0.055256,-0.001627,0.007997,-0.003334,0.443483,0.502944,-0.666393,-0.326022,114.108052,-15.255646,-95.993756
49573,NaN,2.611351,8.710969,-3.900234,0.001212,-0.008280,0.082356,-0.000550,0.004031,-0.004509,0.443473,0.502944,-0.666401,-0.326021,114.109270,-15.255337,-95.994863
49574,NaN,2.616290,8.727978,-3.870090,-0.033353,-0.008581,0.086756,-0.005691,0.006044,-0.004142,0.443485,0.502934,-0.666394,-0.326031,114.106961,-15.255740,-95.994682
49575,NaN,2.587919,8.703318,-3.850473,-0.038783,0.011661,0.049846,-0.004643,0.010148,-0.002359,0.443510,0.502927,-0.666387,-0.326024,114.105098,-15.257987,-95.992994
49576,NaN,2.621349,8.669360,-3.876436,-0.005045,-0.029331,0.038970,-0.003043,0.008235,-0.002643,0.443525,0.502919,-0.666386,-0.326018,114.104086,-15.259851,-95.992427
49577,NaN,2.602083,8.659286,-3.886933,0.010483,-0.013388,0.029163,-0.002334,0.007618,-0.004632,0.443531,0.502921,-0.666383,-0.326014,114.103762,-15.260317,-95.991559
49578,NaN,2.626189,8.648639,-3.864459,-0.008363,-0.039694,0.017278,-0.003225,0.008915,-0.006338,0.443543,0.502922,-0.666373,-0.326015,114.102344,-15.260608,-95.990195
49579,NaN,2.620830,8.670087,-3.875162,-0.006122,-0.028572,0.038971,0.000134,0.009496,-0.010116,0.443540,0.502951,-0.666356,-0.326010,114.102815,-15.258646,-95.986980
49580,NaN,2.592067,8.683362,-3.837220,-0.043081,0.001959,0.028145,-0.002515,0.008298,-0.008327,0.443548,0.502974,-0.666332,-0.326013,114.101510,-15.256956,-95.983377
49581,NaN,2.605908,8.715058,-3.837071,-0.056750,-0.002624,0.059642,-0.000023,0.005088,-0.006905,0.443536,0.502984,-0.666332,-0.326013,114.102725,-15.255641,-95.983329
49582,NaN,2.561882,8.715853,-3.869975,-0.022628,0.039936,0.061721,0.000870,0.002797,-0.008488,0.443514,0.502996,-0.666334,-0.326020,114.104357,-15.253116,-95.984163
49583,NaN,2.551280,8.720375,-3.910858,0.013859,0.051575,0.079022,0.002284,0.003553,-0.005890,0.443493,0.503006,-0.666344,-0.326013,114.107177,-15.251973,-95.985194
49584,NaN,2.536781,8.726945,-3.892102,-0.004783,0.066970,0.073604,0.000868,0.003791,-0.005200,0.443480,0.503013,-0.666349,-0.326010,114.108823,-15.251123,-95.985581
49585,NaN,2.545872,8.741661,-3.921939,0.015788,0.062901,0.100713,0.000339,0.003726,0.000485,0.443475,0.502998,-0.666371,-0.325996,114.110910,-15.253355,-95.988063
49586,NaN,2.584477,8.724326,-3.918494,0.015284,0.021330,0.094245,-0.002153,0.006935,-0.000937,0.443488,0.502988,-0.666374,-0.325985,114.110546,-15.255565,-95.987885
49587,NaN,2.599972,8.698850,-3.866116,-0.024569,-0.000731,0.055246,-0.002707,0.012952,0.001130,0.443523,0.502979,-0.666373,-0.325956,114.109614,-15.260293,-95.985523
49588,NaN,2.590432,8.703358,-3.906337,0.012007,0.010901,0.072553,-0.005512,0.006353,0.002839,0.443549,0.502947,-0.666382,-0.325951,114.107578,-15.264442,-95.986703
49589,NaN,2.581880,8.650916,-3.894271,0.022320,0.005041,0.019366,-0.007325,0.017014,0.002387,0.443610,0.502929,-0.666367,-0.325924,114.103499,-15.270778,-95.982443
49590,NaN,2.596855,8.644554,-3.912250,0.040277,-0.009917,0.024790,-0.000084,0.021222,-0.000986,0.443663,0.502946,-0.666346,-0.325870,114.102695,-15.276406,-95.975090
49591,NaN,2.621697,8.633745,-3.889626,0.021361,-0.036279,0.012904,-0.001313,0.018791,-0.003177,0.443706,0.502963,-0.666323,-0.325832,114.101451,-15.280248,-95.968516
49592,NaN,2.617925,8.635906,-3.829594,-0.034166,-0.032230,-0.009832,0.003989,0.021185,-0.006750,0.443739,0.503008,-0.666294,-0.325777,114.102502,-15.282849,-95.959679
49593,NaN,2.651388,8.639762,-3.837244,-0.032152,-0.062893,0.005398,0.005228,0.021626,-0.011135,0.443763,0.503071,-0.666255,-0.325728,114.104091,-15.283192,-95.949638
49594,NaN,2.656154,8.694531,-3.788924,-0.098354,-0.052733,0.035841,0.008091,0.014076,-0.012186,0.443754,0.503131,-0.666234,-0.325690,114.108039,-15.281307,-95.943274
49595,NaN,2.611844,8.733138,-3.803744,-0.095885,0.000190,0.063988,0.008653,0.007067,-0.017540,0.443710,0.503199,-0.666217,-0.325679,114.113261,-15.274893,-95.939572
49596,NaN,2.620598,8.728798,-3.763678,-0.133049,-0.010906,0.046668,0.010461,-0.002597,-0.013798,0.443638,0.503239,-0.666234,-0.325680,114.120726,-15.268490,-95.942243
49597,NaN,2.593727,8.758753,-3.857622,-0.057086,0.022987,0.102989,0.011920,-0.011897,-0.020734,0.443517,0.503295,-0.666257,-0.325714,114.130322,-15.255967,-95.948044
49598,NaN,2.567388,8.731774,-3.899480,-0.007228,0.039358,0.088812,0.006091,-0.015351,-0.014765,0.443412,0.503315,-0.666288,-0.325762,114.137105,-15.245619,-95.956458
49599,NaN,2.551371,8.738366,-3.881657,-0.025913,0.054797,0.083379,0.007847,-0.011865,-0.014970,0.443310,0.503342,-0.666318,-0.325796,114.144727,-15.236115,-95.963636
49600,NaN,2.568925,8.710799,-3.890263,-0.010530,0.028964,0.067120,0.006952,-0.009575,-0.013389,0.443224,0.503362,-0.666346,-0.325826,114.151260,-15.228243,-95.970211
49601,NaN,2.605002,8.712633,-3.958401,0.046635,-0.005537,0.105112,0.003933,-0.007427,-0.012417,0.443151,0.503379,-0.666367,-0.325856,114.156168,-15.221113,-95.975603
49602,NaN,2.528043,8.690404,-3.913256,0.020642,0.060791,0.047514,0.002135,-0.001851,-0.005966,0.443115,0.503380,-0.666387,-0.325864,114.159422,-15.218704,-95.979362
49603,NaN,2.536806,8.705193,-3.943142,0.041193,0.056707,0.074639,-0.001781,0.002589,-0.003413,0.443105,0.503370,-0.666398,-0.325868,114.160206,-15.218629,-95.981514
49604,NaN,2.536868,8.705425,-3.942588,0.040901,0.056962,0.074639,-0.009396,0.002722,0.002432,0.443127,0.503323,-0.666411,-0.325886,114.156518,-15.221849,-95.984996
49605,NaN,2.556661,8.716056,-3.930562,0.024585,0.041513,0.084440,-0.013469,0.002757,0.008197,0.443166,0.503249,-0.666432,-0.325903,114.151322,-15.227884,-95.989877
49606,NaN,2.528453,8.710513,-3.980792,0.077046,0.068786,0.091966,-0.020035,0.005998,0.012537,0.443240,0.503151,-0.666446,-0.325925,114.142025,-15.237004,-95.994022
49607,NaN,2.573243,8.672567,-3.964385,0.073796,0.016321,0.063832,-0.023574,0.006093,0.012618,0.443323,0.503046,-0.666454,-0.325957,114.130847,-15.246134,-95.998168
49608,NaN,2.565554,8.658494,-3.932190,0.052554,0.020888,0.036704,-0.024837,0.011727,0.013386,0.443431,0.502943,-0.666450,-0.325979,114.117921,-15.257155,-95.999499
49609,NaN,2.596529,8.627136,-3.896416,0.031001,-0.016360,0.003130,-0.029088,0.012437,0.015455,0.443553,0.502826,-0.666443,-0.326007,114.102861,-15.269255,-96.000890
49610,NaN,2.617488,8.638178,-3.882611,0.014724,-0.031803,0.012932,-0.028558,0.013492,0.013060,0.443676,0.502721,-0.666426,-0.326037,114.087507,-15.280373,-96.000877
49611,NaN,2.619013,8.639006,-3.879740,0.014348,-0.031574,0.012933,-0.029968,0.012734,0.010461,0.443793,0.502619,-0.666404,-0.326079,114.071578,-15.289930,-96.000890
49612,NaN,2.639482,8.650157,-3.865962,-0.001946,-0.047018,0.022735,-0.026604,0.013316,0.006687,0.443899,0.502539,-0.666375,-0.326117,114.057038,-15.297643,-95.999407
49613,NaN,2.631392,8.712017,-3.796233,-0.086499,-0.021550,0.047683,-0.021646,0.012980,0.005918,0.443989,0.502472,-0.666354,-0.326140,114.045551,-15.304881,-95.998182
49614,NaN,2.637322,8.767374,-3.745431,-0.152750,-0.011319,0.078071,-0.023056,0.012224,0.003319,0.444076,0.502411,-0.666324,-0.326176,114.033139,-15.310449,-95.996355
49615,NaN,2.647341,8.782865,-3.772944,-0.132222,-0.015398,0.105201,-0.022350,0.012600,0.004618,0.444165,0.502346,-0.666300,-0.326206,114.021219,-15.316918,-95.995019
49616,NaN,2.623591,8.756597,-3.811764,-0.082365,0.000891,0.091048,-0.017013,0.006938,-0.001917,0.444212,0.502311,-0.666276,-0.326245,114.012550,-15.318356,-95.994276
49617,NaN,2.614335,8.704645,-3.799100,-0.072011,-0.005016,0.037873,-0.015067,0.007762,-0.005001,0.444250,0.502286,-0.666250,-0.326284,114.004881,-15.318662,-95.993238
49618,NaN,2.623295,8.682101,-3.846489,-0.019789,-0.019533,0.038975,-0.007459,0.008630,-0.007552,0.444270,0.502284,-0.666229,-0.326303,114.000949,-15.318107,-95.991371
49619,NaN,2.627745,8.661338,-3.834845,-0.022780,-0.030204,0.017289,-0.001262,0.008746,-0.012703,0.444264,0.502317,-0.666205,-0.326311,114.000557,-15.314610,-95.987937
49620,NaN,2.650911,8.650775,-3.812683,-0.041677,-0.056501,0.005401,0.003181,0.005375,-0.017655,0.444230,0.502368,-0.666182,-0.326324,114.002549,-15.307962,-95.985230
49621,NaN,2.640134,8.598402,-3.802061,-0.031318,-0.062421,-0.047770,0.011664,0.010038,-0.025399,0.444175,0.502474,-0.666144,-0.326313,114.008569,-15.298122,-95.978027
49622,NaN,2.633341,8.619762,-3.813962,-0.029057,-0.051310,-0.026084,0.013971,0.008504,-0.024382,0.444113,0.502582,-0.666112,-0.326296,114.016046,-15.288320,-95.971380
49623,NaN,2.640478,8.672455,-3.826377,-0.040173,-0.044920,0.027086,0.021772,0.006708,-0.029816,0.444014,0.502720,-0.666087,-0.326270,114.028055,-15.275393,-95.964914
49624,NaN,2.613762,8.721197,-3.831525,-0.053599,-0.007681,0.064999,0.023905,0.005855,-0.032494,0.443904,0.502874,-0.666057,-0.326244,114.041194,-15.260636,-95.957685
49625,NaN,2.567732,8.759504,-3.848033,-0.051057,0.045255,0.093112,0.028336,0.004462,-0.030865,0.443780,0.503026,-0.666044,-0.326205,114.057218,-15.246639,-95.952177
49626,NaN,2.526781,8.776445,-3.853806,-0.051130,0.087236,0.099538,0.030461,0.004599,-0.030254,0.443652,0.503186,-0.666033,-0.326155,114.074489,-15.232719,-95.946129
49627,NaN,2.552871,8.763163,-3.893849,-0.014947,0.056998,0.110456,0.028701,0.002100,-0.026764,0.443525,0.503321,-0.666036,-0.326111,114.091320,-15.220318,-95.942888
49628,NaN,2.545688,8.783891,-3.907313,-0.012713,0.068157,0.132139,0.026756,0.001274,-0.023680,0.443406,0.503440,-0.666048,-0.326068,114.107398,-15.209438,-95.941042
49629,NaN,2.568292,8.734600,-3.906229,-0.000038,0.031335,0.094230,0.026922,0.001588,-0.016697,0.443299,0.503537,-0.666075,-0.326008,114.123923,-15.202184,-95.940513
49630,NaN,2.566983,8.696097,-3.927097,0.031338,0.021086,0.068212,0.024616,0.003114,-0.017715,0.443206,0.503633,-0.666089,-0.325957,114.138185,-15.194946,-95.938625
49631,NaN,2.556647,8.680825,-3.899230,0.010079,0.025647,0.041063,0.024754,0.009504,-0.014348,0.443134,0.503730,-0.666101,-0.325879,114.152492,-15.190776,-95.934373
49632,NaN,2.541828,8.648690,-3.900992,0.023087,0.030629,0.009583,0.023511,0.009062,-0.009964,0.443072,0.503808,-0.666124,-0.325798,114.166355,-15.188910,-95.931554
49633,NaN,2.594015,8.662355,-3.899345,0.009023,-0.015671,0.034641,0.019256,0.009770,-0.007900,0.443025,0.503872,-0.666142,-0.325724,114.177885,-15.188174,-95.928725
49634,NaN,2.555507,8.679054,-3.903918,0.008982,0.026355,0.041062,0.014989,0.011476,-0.002547,0.443005,0.503911,-0.666164,-0.325648,114.187030,-15.190658,-95.926257
49635,NaN,2.569981,8.672213,-3.923386,0.026877,0.011338,0.046531,0.007045,0.006882,-0.000484,0.442992,0.503919,-0.666187,-0.325605,114.192445,-15.193121,-95.926795
49636,NaN,2.579629,8.686630,-3.953561,0.047393,0.007233,0.073686,0.003332,0.003573,0.006091,0.442988,0.503891,-0.666229,-0.325569,114.196561,-15.198269,-95.930700
49637,NaN,2.560923,8.714089,-3.945844,0.031365,0.033618,0.089900,-0.005131,-0.003071,0.007263,0.442985,0.503829,-0.666274,-0.325575,114.196908,-15.202444,-95.938514
49638,NaN,2.561489,8.714202,-3.945226,0.031099,0.033842,0.089900,-0.010276,-0.001070,0.007619,0.443007,0.503760,-0.666303,-0.325593,114.193394,-15.207312,-95.944700
49639,NaN,2.586670,8.665792,-3.940470,0.043763,-0.003002,0.052007,-0.018974,0.002022,0.011339,0.443063,0.503662,-0.666325,-0.325624,114.185347,-15.214813,-95.950747
49640,NaN,2.596909,8.681067,-3.968387,0.064356,-0.007003,0.079166,-0.023588,0.005077,0.009301,0.443139,0.503555,-0.666333,-0.325669,114.173604,-15.222679,-95.955712
49641,NaN,2.583814,8.650278,-3.966063,0.077359,-0.002057,0.047691,-0.023957,0.008420,0.008486,0.443224,0.503467,-0.666325,-0.325706,114.161611,-15.230192,-95.957597
49642,NaN,2.609075,8.640253,-3.941545,0.058492,-0.028378,0.035805,-0.025214,0.013054,0.005964,0.443328,0.503392,-0.666294,-0.325743,114.147385,-15.237523,-95.955785
49643,NaN,2.576800,8.637124,-3.931362,0.055853,0.002731,0.020537,-0.021707,0.020026,0.005561,0.443441,0.503337,-0.666257,-0.325750,114.134839,-15.246228,-95.950666
49644,NaN,2.602063,8.627092,-3.906807,0.036903,-0.023549,0.008650,-0.023631,0.017214,0.002067,0.443545,0.503282,-0.666216,-0.325779,114.121193,-15.252669,-95.946504
49645,NaN,2.607806,8.682638,-3.855799,-0.029368,-0.013149,0.038962,-0.024345,0.017827,0.004055,0.443655,0.503223,-0.666176,-0.325803,114.107350,-15.260069,-95.942207
49646,NaN,2.618494,8.716890,-3.793964,-0.098233,-0.013628,0.047587,-0.018301,0.013538,0.002118,0.443732,0.503174,-0.666151,-0.325823,114.097360,-15.265600,-95.939943
49647,NaN,2.595021,8.728380,-3.814101,-0.079995,0.013147,0.059472,-0.019535,0.012100,0.003212,0.443810,0.503119,-0.666129,-0.325847,114.087036,-15.271218,-95.938544
49648,NaN,2.609851,8.760502,-3.812223,-0.093697,0.008753,0.090944,-0.018797,0.005412,0.004836,0.443867,0.503042,-0.666130,-0.325885,114.077862,-15.276597,-95.941802
49649,NaN,2.586216,8.771966,-3.832559,-0.075456,0.035527,0.102829,-0.019315,0.003360,0.003942,0.443916,0.502971,-0.666130,-0.325929,114.068958,-15.280553,-95.945317
49650,NaN,2.610901,8.761632,-3.808906,-0.094329,0.009253,0.090937,-0.013653,0.003410,0.004481,0.443956,0.502908,-0.666137,-0.325955,114.062627,-15.285014,-95.948693
49651,NaN,2.606526,8.707403,-3.856234,-0.028808,-0.000714,0.060639,-0.012753,0.001124,0.002898,0.443979,0.502851,-0.666150,-0.325986,114.057736,-15.287904,-95.953167
49652,NaN,2.645242,8.690469,-3.851918,-0.029539,-0.042283,0.054235,-0.006929,0.005578,0.000232,0.443999,0.502824,-0.666155,-0.325991,114.055264,-15.290417,-95.954364
49653,NaN,2.650197,8.631687,-3.859051,-0.000887,-0.063532,0.006569,-0.001781,0.007670,-0.010312,0.443995,0.502847,-0.666137,-0.325998,114.054880,-15.287924,-95.952089
49654,NaN,2.673805,8.658894,-3.818125,-0.051532,-0.079240,0.020666,0.006336,0.011587,-0.008670,0.443986,0.502885,-0.666131,-0.325964,114.058708,-15.287347,-95.948414
49655,NaN,2.639692,8.655031,-3.810807,-0.054142,-0.048125,0.005385,0.007966,0.007695,-0.015529,0.443949,0.502946,-0.666116,-0.325950,114.063572,-15.282130,-95.944862
49656,NaN,2.623485,8.718617,-3.844652,-0.046655,-0.015189,0.070424,0.012038,0.008661,-0.017997,0.443902,0.503031,-0.666096,-0.325925,114.070284,-15.275582,-95.939408
49657,NaN,2.607859,8.724970,-3.826955,-0.065273,0.000315,0.064931,0.015429,0.003175,-0.018154,0.443827,0.503110,-0.666097,-0.325903,114.079903,-15.267937,-95.937669
49658,NaN,2.557987,8.746495,-3.872574,-0.028306,0.053627,0.088707,0.015983,-0.001841,-0.016936,0.443739,0.503176,-0.666111,-0.325891,114.090131,-15.259928,-95.938811
49659,NaN,2.580512,8.735552,-3.851798,-0.047308,0.027334,0.076816,0.013345,-0.004037,-0.018444,0.443645,0.503240,-0.666124,-0.325894,114.099565,-15.250445,-95.940909
49660,NaN,2.554801,8.708261,-3.894214,0.002613,0.043555,0.062727,0.018845,-0.008385,-0.014698,0.443528,0.503292,-0.666168,-0.325883,114.112921,-15.242171,-95.946735
49661,NaN,2.581846,8.695267,-3.933075,0.038713,0.013238,0.073718,0.008742,-0.006064,-0.013582,0.443446,0.503326,-0.666190,-0.325897,114.120315,-15.234755,-95.951108
49662,NaN,2.566049,8.701627,-3.915442,0.020156,0.028748,0.068222,0.011950,-0.009878,-0.014144,0.443345,0.503362,-0.666223,-0.325911,114.129741,-15.226218,-95.957267
49663,NaN,2.589074,8.652877,-3.912950,0.032793,-0.008138,0.030362,0.005188,-0.004981,-0.010220,0.443281,0.503379,-0.666246,-0.325927,114.135157,-15.220813,-95.961867
49664,NaN,2.578171,8.657385,-3.954210,0.069325,0.003370,0.047751,0.001979,-0.001168,-0.009659,0.443240,0.503389,-0.666257,-0.325943,114.138030,-15.216822,-95.964834
49665,NaN,2.572385,8.678798,-3.965214,0.071563,0.014517,0.069432,-0.002834,0.004551,-0.008816,0.443231,0.503399,-0.666249,-0.325957,114.137584,-15.214384,-95.964609
49666,NaN,2.591030,8.689547,-3.953642,0.055211,-0.000881,0.079223,-0.005857,0.006692,-0.007848,0.443240,0.503405,-0.666230,-0.325974,114.134849,-15.212838,-95.962811
49667,NaN,2.590783,8.689946,-3.952927,0.054835,-0.000654,0.079225,-0.003960,0.015573,-0.007967,0.443272,0.503427,-0.666197,-0.325963,114.132243,-15.213426,-95.956820
49668,NaN,2.572084,8.698802,-3.873617,-0.018859,0.018893,0.050830,-0.008919,0.015896,-0.007206,0.443318,0.503437,-0.666157,-0.325966,114.126753,-15.214462,-95.950691
49669,NaN,2.591074,8.709689,-3.861482,-0.035263,0.003529,0.060617,-0.005733,0.018153,-0.011380,0.443357,0.503471,-0.666108,-0.325962,114.122547,-15.213868,-95.942472
49670,NaN,2.609806,8.720575,-3.849517,-0.051609,-0.011784,0.070404,-0.004830,0.015866,-0.012962,0.443386,0.503504,-0.666062,-0.325966,114.118744,-15.212223,-95.935486
49671,NaN,2.614225,8.699944,-3.837675,-0.054596,-0.022472,0.048725,-0.002877,0.016687,-0.016042,0.443405,0.503558,-0.666009,-0.325966,114.116086,-15.208847,-95.926931
49672,NaN,2.632338,8.710834,-3.826122,-0.070963,-0.037819,0.058512,0.000350,0.011880,-0.019892,0.443396,0.503622,-0.665961,-0.325977,114.115452,-15.202420,-95.919967
49673,NaN,2.616718,8.679791,-3.826067,-0.057914,-0.032917,0.027045,0.004812,0.008511,-0.024834,0.443354,0.503709,-0.665916,-0.325992,114.117805,-15.192532,-95.913711
49674,NaN,2.628878,8.673766,-3.845443,-0.040062,-0.047944,0.032552,0.014235,0.004818,-0.030534,0.443267,0.503826,-0.665882,-0.325997,114.125693,-15.178961,-95.908365
49675,NaN,2.712861,8.635451,-3.798894,-0.078172,-0.142535,0.002393,0.016226,0.003645,-0.040191,0.443155,0.503981,-0.665828,-0.326021,114.134302,-15.159905,-95.901017
49676,NaN,2.633865,8.575012,-3.774083,-0.072059,-0.086812,-0.081344,0.025387,0.010676,-0.040045,0.443045,0.504168,-0.665772,-0.325995,114.147000,-15.142591,-95.889737
49677,NaN,2.644199,8.606693,-3.776394,-0.085865,-0.091241,-0.049881,0.030640,-0.001376,-0.049934,0.442865,0.504379,-0.665728,-0.326005,114.163963,-15.117267,-95.882734
49678,NaN,2.619821,8.653357,-3.842346,-0.044099,-0.057968,0.010874,0.034887,-0.001089,-0.048705,0.442679,0.504598,-0.665689,-0.325996,114.183088,-15.092527,-95.875244
49679,NaN,2.534755,8.613543,-3.830150,-0.035379,0.008671,-0.051190,0.036154,-0.005726,-0.046181,0.442476,0.504802,-0.665673,-0.325990,114.204061,-15.068148,-95.871492
49680,NaN,2.586747,8.701517,-3.852698,-0.057798,-0.020387,0.048711,0.045709,-0.003034,-0.048512,0.442256,0.505041,-0.665657,-0.325950,114.229701,-15.043059,-95.865127
49681,NaN,2.529109,8.743372,-3.912167,-0.018245,0.043783,0.094166,0.044786,0.000243,-0.043645,0.442055,0.505265,-0.665648,-0.325894,114.254941,-15.021412,-95.858744
49682,NaN,2.452701,8.831457,-3.874842,-0.083594,0.137942,0.137125,0.047457,-0.003623,-0.038518,0.441845,0.505475,-0.665661,-0.325828,114.282331,-15.001370,-95.855037
49683,NaN,2.434512,8.855774,-3.931159,-0.044480,0.160312,0.176202,0.047076,-0.004346,-0.029140,0.441647,0.505648,-0.665702,-0.325744,114.310440,-14.986222,-95.854654
49684,NaN,2.455664,8.862961,-3.983710,-0.005808,0.140893,0.208910,0.040841,-0.003461,-0.020713,0.441481,0.505779,-0.665753,-0.325660,114.335334,-14.975782,-95.855994
49685,NaN,2.430339,8.834361,-4.028033,0.044137,0.156976,0.194857,0.037614,-0.003705,-0.009962,0.441340,0.505869,-0.665826,-0.325563,114.359140,-14.970796,-95.859940
49686,NaN,2.488233,8.750749,-4.053482,0.090583,0.078510,0.146392,0.027265,0.002280,-0.002694,0.441258,0.505922,-0.665885,-0.325470,114.376488,-14.970967,-95.862102
49687,NaN,2.461061,8.648606,-4.073599,0.148756,0.077366,0.057536,0.017483,0.003261,0.005804,0.441217,0.505926,-0.665950,-0.325388,114.388783,-14.975854,-95.866143
49688,NaN,2.458453,8.574072,-4.052119,0.156720,0.060401,-0.017272,0.011018,0.011883,0.010193,0.441232,0.505912,-0.665995,-0.325298,114.395848,-14.985313,-95.866531
49689,NaN,2.536549,8.558286,-4.116208,0.213107,-0.016167,0.014613,0.004078,0.012396,0.017318,0.441273,0.505863,-0.666047,-0.325212,114.399918,-14.998369,-95.868459
49690,NaN,2.601037,8.568400,-4.071331,0.162024,-0.073558,0.022298,-0.008728,0.019561,0.016576,0.441373,0.505796,-0.666059,-0.325154,114.395144,-15.012974,-95.866357
49691,NaN,2.598784,8.570710,-4.010205,0.106575,-0.069230,-0.000636,-0.015625,0.018061,0.017128,0.441483,0.505713,-0.666066,-0.325120,114.387120,-15.027272,-95.865176
49692,NaN,2.634199,8.613162,-3.996970,0.076753,-0.089172,0.040611,-0.025606,0.025760,0.018299,0.441649,0.505613,-0.666043,-0.325098,114.371983,-15.044293,-95.860290
49693,NaN,2.612507,8.643647,-3.926737,0.005715,-0.058593,0.033816,-0.032457,0.022247,0.012277,0.441807,0.505516,-0.666001,-0.325120,114.353416,-15.057048,-95.855652
49694,NaN,2.594794,8.672204,-3.915727,-0.010147,-0.032074,0.049962,-0.035786,0.019655,0.009470,0.441965,0.505411,-0.665952,-0.325168,114.332554,-15.068096,-95.851988
49695,NaN,2.601387,8.652389,-3.900740,-0.013132,-0.042778,0.028289,-0.041771,0.015863,0.008442,0.442119,0.505296,-0.665899,-0.325246,114.309300,-15.077339,-95.849855
49696,NaN,2.602452,8.653774,-3.896955,-0.013445,-0.042488,0.028290,-0.036247,0.015586,0.002006,0.442251,0.505208,-0.665842,-0.325322,114.288497,-15.083549,-95.846803
49697,NaN,2.607212,8.709912,-3.845375,-0.079736,-0.031824,0.058466,-0.030161,0.010305,-0.003203,0.442338,0.505148,-0.665790,-0.325401,114.271935,-15.085400,-95.844828
49698,NaN,2.588922,8.643684,-3.801778,-0.090078,-0.033526,-0.021872,-0.024076,0.005027,-0.008413,0.442384,0.505111,-0.665747,-0.325484,114.259364,-15.083218,-95.844318
49699,NaN,2.587763,8.682667,-3.781331,-0.122105,-0.022604,0.004047,-0.014500,0.006726,-0.014024,0.442403,0.505116,-0.665702,-0.325543,114.251594,-15.078573,-95.841641
49700,NaN,2.605899,8.693871,-3.769202,-0.138541,-0.037931,0.013825,-0.007388,0.000500,-0.010542,0.442389,0.505115,-0.665690,-0.325587,114.248927,-15.074253,-95.843043
49701,NaN,2.604290,8.732230,-3.750463,-0.170569,-0.027000,0.039740,0.004172,-0.003037,-0.015613,0.442326,0.505151,-0.665693,-0.325613,114.253127,-15.066479,-95.845261
49702,NaN,2.573569,8.764130,-3.784437,-0.149494,0.010707,0.073299,0.006321,-0.008945,-0.011377,0.442250,0.505163,-0.665721,-0.325640,114.258769,-15.059895,-95.851636
49703,NaN,2.537786,8.816969,-3.829863,-0.125959,0.059299,0.128528,0.007773,-0.015237,-0.008443,0.442149,0.505162,-0.665775,-0.325668,114.267200,-15.052995,-95.862199
49704,NaN,2.508068,8.772679,-3.901531,-0.041647,0.075542,0.110256,0.007239,-0.016289,-0.006048,0.442052,0.505152,-0.665832,-0.325696,114.275162,-15.047102,-95.873382
49705,NaN,2.516614,8.749292,-3.951054,0.010431,0.060683,0.111551,0.007938,-0.015906,-0.004747,0.441954,0.505139,-0.665897,-0.325718,114.284012,-15.041971,-95.885206
49706,NaN,2.520412,8.746901,-4.011693,0.065160,0.056785,0.134522,0.008748,-0.009129,-0.000083,0.441886,0.505120,-0.665961,-0.325710,114.292438,-15.041087,-95.894746
49707,NaN,2.549533,8.714911,-3.979058,0.043485,0.019594,0.100961,0.004963,-0.000317,-0.000755,0.441853,0.505112,-0.665997,-0.325694,114.297648,-15.041713,-95.899113
49708,NaN,2.550044,8.676793,-3.997951,0.074764,0.009099,0.075053,0.002443,0.003873,0.001099,0.441844,0.505100,-0.666023,-0.325670,114.300956,-15.044252,-95.901537
49709,NaN,2.560687,8.634522,-3.975558,0.069173,-0.012549,0.031713,-0.000965,0.009347,0.001244,0.441863,0.505088,-0.666032,-0.325644,114.301539,-15.048200,-95.901166
49710,NaN,2.599685,8.617713,-3.971351,0.068396,-0.054098,0.025369,-0.007892,0.013901,-0.001829,0.441913,0.505075,-0.666011,-0.325639,114.296647,-15.051872,-95.897474
49711,NaN,2.596377,8.582251,-3.929036,0.044625,-0.060422,-0.023515,-0.012233,0.022663,0.003181,0.442007,0.505054,-0.665978,-0.325613,114.289026,-15.059970,-95.890374
49712,NaN,2.558340,8.637621,-3.912414,0.013183,-0.007624,0.008736,-0.011644,0.016653,0.001119,0.442078,0.505026,-0.665955,-0.325606,114.282105,-15.065875,-95.886328
49713,NaN,2.592245,8.680147,-3.899782,-0.016763,-0.027538,0.049967,-0.015209,0.017737,0.004475,0.442166,0.504986,-0.665931,-0.325599,114.273551,-15.073487,-95.882206
49714,NaN,2.559817,8.676465,-3.890564,-0.019119,0.003556,0.034638,-0.013223,0.012496,0.005015,0.442236,0.504940,-0.665919,-0.325599,114.266321,-15.080186,-95.880538
49715,NaN,2.560275,8.714855,-3.870360,-0.051148,0.014517,0.060538,-0.016388,0.009240,0.005899,0.442300,0.504878,-0.665916,-0.325615,114.258377,-15.086541,-95.881357
49716,NaN,2.550957,8.757533,-3.891007,-0.046245,0.036640,0.103876,-0.016548,0.004850,0.009110,0.442358,0.504797,-0.665929,-0.325635,114.250835,-15.093657,-95.885225
49717,NaN,2.547796,8.722058,-3.848526,-0.070005,0.030329,0.054981,-0.016359,0.003181,0.009518,0.442408,0.504714,-0.665948,-0.325658,114.243991,-15.100476,-95.890203
49718,NaN,2.562722,8.753916,-3.847282,-0.083760,0.026010,0.086428,-0.011744,0.000143,0.011567,0.442443,0.504625,-0.665985,-0.325670,114.239748,-15.107953,-95.897334
49719,NaN,2.554248,8.720434,-3.905890,-0.015599,0.026637,0.077973,-0.010833,-0.002143,0.009988,0.442462,0.504543,-0.666026,-0.325687,114.236851,-15.113766,-95.905306
49720,NaN,2.574603,8.693167,-3.912405,-0.000325,0.000559,0.061858,-0.013863,-0.000008,0.010950,0.442502,0.504459,-0.666054,-0.325707,114.231416,-15.120451,-95.911525
49721,NaN,2.609462,8.659555,-3.937489,0.033022,-0.040826,0.051300,-0.011070,0.006584,0.009252,0.442549,0.504393,-0.666074,-0.325704,114.227106,-15.127933,-95.914595
49722,NaN,2.572441,8.638803,-3.958633,0.064929,-0.009524,0.031745,-0.009137,0.008402,0.009462,0.442602,0.504333,-0.666091,-0.325691,114.223221,-15.136115,-95.916583
49723,NaN,2.602877,8.607188,-3.924115,0.043233,-0.046707,-0.001812,-0.010771,0.016362,0.006124,0.442676,0.504295,-0.666082,-0.325669,114.217500,-15.144261,-95.913596
49724,NaN,2.598898,8.628555,-3.933964,0.045501,-0.035518,0.019860,-0.010210,0.011355,0.007346,0.442735,0.504243,-0.666088,-0.325656,114.212701,-15.152022,-95.913731
49725,NaN,2.585578,8.635108,-3.914147,0.026967,-0.019951,0.014302,-0.007927,0.015895,0.004755,0.442798,0.504215,-0.666080,-0.325629,114.208587,-15.159343,-95.910663
49726,NaN,2.605543,8.645800,-3.901879,0.010522,-0.035255,0.024081,-0.009323,0.015129,0.002151,0.442860,0.504192,-0.666063,-0.325615,114.203386,-15.165096,-95.907041
49727,NaN,2.557704,8.705349,-3.926542,0.015928,0.028663,0.073748,-0.006692,0.017329,0.003664,0.442923,0.504172,-0.666052,-0.325582,114.199707,-15.172183,-95.902929
49728,NaN,2.568000,8.739074,-3.865995,-0.052881,0.028576,0.082177,-0.006132,0.012322,0.004885,0.442974,0.504138,-0.666055,-0.325560,114.196565,-15.178992,-95.901812
49729,NaN,2.597110,8.764395,-3.883928,-0.048603,0.008889,0.119183,-0.003800,0.009806,0.002622,0.443003,0.504116,-0.666062,-0.325539,114.195542,-15.183768,-95.901519
49730,NaN,2.582830,8.808771,-3.845973,-0.098722,0.035255,0.139497,-0.004312,0.007754,0.001727,0.443028,0.504092,-0.666069,-0.325529,114.194054,-15.187707,-95.901927
49731,NaN,2.588830,8.749850,-3.852914,-0.070046,0.013774,0.091946,-0.006782,0.004882,0.003908,0.443050,0.504051,-0.666086,-0.325528,114.192103,-15.191998,-95.904613
49732,NaN,2.565632,8.722782,-3.893165,-0.019930,0.029740,0.077957,-0.007644,0.000109,0.005813,0.443066,0.503990,-0.666116,-0.325539,114.189865,-15.196522,-95.910480
49733,NaN,2.590634,8.674198,-3.889239,-0.007370,-0.007266,0.040189,-0.002309,-0.003544,0.005877,0.443052,0.503938,-0.666164,-0.325540,114.191798,-15.199864,-95.918209
49734,NaN,2.572106,8.663794,-3.899961,0.008445,0.008469,0.030412,-0.006269,0.006933,0.004804,0.443085,0.503900,-0.666176,-0.325531,114.189488,-15.205112,-95.919579
49735,NaN,2.611144,8.646824,-3.895862,0.007491,-0.033109,0.024092,-0.003566,0.001080,0.003354,0.443085,0.503862,-0.666205,-0.325530,114.189884,-15.208221,-95.924190
49736,NaN,2.602153,8.632139,-3.865630,-0.013568,-0.028436,-0.003145,-0.005871,0.002599,0.002329,0.443098,0.503821,-0.666224,-0.325536,114.188276,-15.211411,-95.927850
49737,NaN,2.601614,8.689394,-3.917008,0.012030,-0.010724,0.067427,-0.005008,0.007372,0.000425,0.443118,0.503800,-0.666230,-0.325531,114.186765,-15.214467,-95.928340
49738,NaN,2.607073,8.668465,-3.905181,0.009082,-0.021452,0.045761,-0.007665,0.006168,0.002200,0.443146,0.503765,-0.666236,-0.325533,114.183798,-15.218124,-95.929657
49739,NaN,2.593028,8.675072,-3.885694,-0.009436,-0.005866,0.040188,-0.007127,0.007222,-0.000193,0.443170,0.503741,-0.666237,-0.325537,114.181054,-15.220822,-95.930078
49740,NaN,2.574125,8.664996,-3.895956,0.006338,0.009869,0.030413,-0.008709,0.008126,-0.003204,0.443197,0.503725,-0.666224,-0.325549,114.176970,-15.222174,-95.929113
49741,NaN,2.583655,8.680054,-3.925019,0.026715,0.005686,0.057654,-0.002889,0.007520,0.001044,0.443214,0.503707,-0.666234,-0.325535,114.176691,-15.225589,-95.929673
49742,NaN,2.593477,8.675864,-3.883625,-0.010448,-0.005170,0.040187,-0.003209,0.008865,-0.006346,0.443228,0.503714,-0.666219,-0.325536,114.175035,-15.225536,-95.927358
49743,NaN,2.593020,8.714032,-3.864348,-0.042483,0.005868,0.066049,-0.003420,0.011529,-0.003463,0.443252,0.503716,-0.666208,-0.325523,114.173593,-15.227536,-95.924649
49744,NaN,2.617181,8.703539,-3.841561,-0.061567,-0.020370,0.054157,-0.003560,0.006142,-0.003547,0.443260,0.503711,-0.666205,-0.325525,114.172631,-15.228109,-95.924376
49745,NaN,2.592955,8.714469,-3.863404,-0.043199,0.006310,0.066046,-0.003188,0.002805,-0.002734,0.443255,0.503697,-0.666216,-0.325532,114.172610,-15.228443,-95.926571
49746,NaN,2.587699,8.735849,-3.874094,-0.040989,0.017486,0.087709,-0.004072,0.004091,-0.004443,0.443253,0.503690,-0.666218,-0.325541,114.171933,-15.228135,-95.927646
49747,NaN,2.568105,8.763600,-3.865986,-0.056889,0.044032,0.103790,-0.006031,0.003269,-0.001367,0.443260,0.503665,-0.666226,-0.325553,114.170304,-15.229292,-95.929922
49748,NaN,2.553288,8.789385,-3.917446,-0.017673,0.066330,0.142926,-0.005659,-0.000068,-0.000555,0.443260,0.503631,-0.666243,-0.325573,114.168838,-15.230354,-95.934163
49749,NaN,2.577925,8.740999,-3.913334,-0.005130,0.029297,0.105179,-0.006755,0.003882,0.000619,0.443273,0.503599,-0.666254,-0.325581,114.166834,-15.232693,-95.936589
49750,NaN,2.587936,8.736775,-3.871845,-0.042323,0.018472,0.087702,-0.002889,0.007519,0.001045,0.443292,0.503579,-0.666263,-0.325568,114.166204,-15.236239,-95.937109
49751,NaN,2.583829,8.720187,-3.900944,-0.008425,0.018827,0.083513,-0.007711,0.013218,0.001877,0.443341,0.503556,-0.666254,-0.325554,114.162403,-15.241426,-95.934783
49752,NaN,2.590018,8.661385,-3.907588,0.020277,-0.002707,0.035998,-0.006660,0.016322,0.000382,0.443396,0.503545,-0.666237,-0.325531,114.158558,-15.246670,-95.930463
49753,NaN,2.634233,8.623401,-3.891995,0.016669,-0.055239,0.008032,-0.004003,0.017526,-0.001391,0.443445,0.503548,-0.666217,-0.325501,114.156059,-15.251158,-95.925008
49754,NaN,2.620314,8.629951,-3.872505,-0.001836,-0.039642,0.002445,-0.004699,0.017144,-0.002694,0.443492,0.503554,-0.666193,-0.325476,114.153155,-15.254853,-95.919418
49755,NaN,2.615628,8.651327,-3.882834,0.000397,-0.028461,0.024109,-0.003091,0.015244,-0.002971,0.443528,0.503561,-0.666175,-0.325452,114.151401,-15.257980,-95.914815
49756,NaN,2.634766,8.662082,-3.870845,-0.016100,-0.043664,0.033882,-0.008165,0.009176,-0.005599,0.443554,0.503551,-0.666159,-0.325467,114.147304,-15.258621,-95.913365
49757,NaN,2.610868,8.635369,-3.911021,0.033948,-0.027844,0.019931,-0.007069,0.005227,-0.006773,0.443561,0.503546,-0.666147,-0.325489,114.144457,-15.257412,-95.913267
49758,NaN,2.596509,8.604169,-3.910552,0.047130,-0.023051,-0.011501,-0.004394,0.000373,-0.004935,0.443548,0.503529,-0.666158,-0.325512,114.143910,-15.256252,-95.916588
49759,NaN,2.609952,8.636185,-3.909830,0.033210,-0.027351,0.019935,-0.009513,0.001358,-0.007885,0.443546,0.503516,-0.666148,-0.325555,114.140143,-15.253556,-95.918316
49760,NaN,2.594863,8.643059,-3.890382,0.014769,-0.011755,0.014341,-0.008091,0.001127,-0.008568,0.443541,0.503508,-0.666137,-0.325595,114.136870,-15.250424,-95.919615
49761,NaN,2.626999,8.685587,-3.878495,-0.015310,-0.031526,0.055546,-0.004708,0.001719,-0.012325,0.443521,0.503521,-0.666123,-0.325631,114.135521,-15.245490,-95.920069
49762,NaN,2.606938,8.675713,-3.889141,0.000475,-0.015800,0.045776,-0.006825,0.001568,-0.012945,0.443505,0.503529,-0.666105,-0.325676,114.132937,-15.240308,-95.920581
49763,NaN,2.600361,8.735388,-3.880726,-0.028959,0.006247,0.093272,-0.008433,0.003466,-0.012668,0.443500,0.503538,-0.666081,-0.325720,114.129182,-15.235604,-95.920006
49764,NaN,2.566080,8.731865,-3.872453,-0.031214,0.037365,0.077902,-0.008276,0.002792,-0.008973,0.443501,0.503530,-0.666067,-0.325759,114.125442,-15.232889,-95.920714
49765,NaN,2.565740,8.694638,-3.890291,0.000081,0.026732,0.052068,-0.011786,0.001877,-0.012200,0.443500,0.503527,-0.666041,-0.325818,114.120022,-15.228057,-95.921114
49766,NaN,2.564451,8.733271,-3.870360,-0.031936,0.037898,0.077897,-0.013237,0.003101,-0.008228,0.443513,0.503503,-0.666025,-0.325871,114.113763,-15.225981,-95.922520
49767,NaN,2.588539,8.685367,-3.865635,-0.019413,0.000833,0.040175,-0.012726,0.005150,-0.007330,0.443533,0.503487,-0.666003,-0.325914,114.107650,-15.224463,-95.922329
49768,NaN,2.587789,8.723838,-3.845684,-0.051440,0.011964,0.066001,-0.010638,0.006295,-0.003420,0.443558,0.503462,-0.665992,-0.325939,114.102758,-15.225397,-95.922657
49769,NaN,2.587311,8.762192,-3.825790,-0.083481,0.023078,0.091825,-0.011177,0.005238,-0.001029,0.443585,0.503429,-0.665989,-0.325962,114.097921,-15.227196,-95.923946
49770,NaN,2.568467,8.752186,-3.835906,-0.067596,0.038818,0.082053,-0.010481,0.005620,0.000275,0.443616,0.503389,-0.665988,-0.325981,114.093007,-15.230034,-95.925431
49771,NaN,2.583356,8.746149,-3.853698,-0.049864,0.023664,0.087656,-0.006089,0.005248,0.005211,0.443640,0.503346,-0.666008,-0.325974,114.091480,-15.235099,-95.928227
49772,NaN,2.574839,8.712947,-3.912507,0.018370,0.024034,0.079331,-0.012796,0.002069,0.006144,0.443674,0.503281,-0.666025,-0.325996,114.086277,-15.239904,-95.932604
49773,NaN,2.566275,8.679730,-3.971412,0.086548,0.024403,0.071011,-0.005531,0.000244,0.006425,0.443682,0.503226,-0.666060,-0.325996,114.085862,-15.244434,-95.938406
49774,NaN,2.620010,8.637274,-3.915100,0.046030,-0.039147,0.025570,-0.009598,0.004333,0.001983,0.443707,0.503183,-0.666069,-0.326011,114.082116,-15.247722,-95.941012
49775,NaN,2.606108,8.643726,-3.895705,0.027556,-0.023525,0.019962,-0.003107,0.010172,0.003936,0.443738,0.503159,-0.666080,-0.325984,114.081515,-15.253271,-95.940829
49776,NaN,2.602192,8.627132,-3.924898,0.061524,-0.023230,0.015807,-0.006106,0.011307,0.001607,0.443779,0.503137,-0.666075,-0.325970,114.078494,-15.257934,-95.939177
49777,NaN,2.611387,8.698517,-3.845706,-0.039070,-0.012222,0.049935,-0.001330,0.012666,0.000458,0.443808,0.503133,-0.666075,-0.325939,114.078333,-15.262247,-95.936798
49778,NaN,2.597213,8.724200,-3.897216,0.000091,0.010036,0.089099,-0.001516,0.014333,0.000054,0.443844,0.503127,-0.666071,-0.325906,114.077557,-15.267037,-95.933790
49779,NaN,2.582736,8.768424,-3.859250,-0.050047,0.036573,0.109296,-0.002025,0.012284,-0.000846,0.443871,0.503125,-0.666067,-0.325881,114.076969,-15.270579,-95.931303
49780,NaN,2.617171,8.734896,-3.884738,-0.016813,-0.004967,0.098865,-0.008222,0.011153,0.000984,0.443915,0.503103,-0.666058,-0.325876,114.072935,-15.274736,-95.929487
49781,NaN,2.583688,8.768767,-3.857831,-0.050767,0.037028,0.109290,-0.000958,0.009329,0.001268,0.443933,0.503091,-0.666067,-0.325850,114.073515,-15.278692,-95.929113
49782,NaN,2.589196,8.747718,-3.846209,-0.053721,0.026286,0.087629,-0.005564,0.012361,-0.000785,0.443971,0.503082,-0.666055,-0.325836,114.070728,-15.282201,-95.926214
49783,NaN,2.576069,8.678506,-3.864473,-0.008843,0.020092,0.030395,-0.004651,0.010082,-0.002366,0.443995,0.503075,-0.666048,-0.325829,114.068852,-15.284432,-95.924551
49784,NaN,2.619315,8.678404,-3.830316,-0.044170,-0.021483,0.028268,-0.003415,0.011520,-0.003453,0.444019,0.503072,-0.666039,-0.325817,114.067276,-15.286733,-95.922342
49785,NaN,2.614866,8.661906,-3.859693,-0.010267,-0.021208,0.024122,-0.001807,0.009623,-0.003730,0.444033,0.503076,-0.666034,-0.325804,114.067008,-15.288144,-95.920598
49786,NaN,2.653402,8.645023,-3.855723,-0.011325,-0.062777,0.017852,-0.000200,0.007726,-0.004008,0.444036,0.503079,-0.666035,-0.325792,114.067761,-15.289054,-95.919865
49787,NaN,2.619827,8.640894,-3.848357,-0.013594,-0.031696,0.002464,0.005998,0.008856,-0.005835,0.444023,0.503105,-0.666039,-0.325760,114.071940,-15.289185,-95.918027
49788,NaN,2.624263,8.657547,-3.818634,-0.048252,-0.031525,0.006606,0.003154,0.009315,-0.004472,0.444022,0.503124,-0.666040,-0.325733,114.074538,-15.289978,-95.915919
49789,NaN,2.603795,8.742189,-3.863069,-0.038203,0.012564,0.093235,0.006726,0.008245,-0.007821,0.444002,0.503158,-0.666041,-0.325704,114.079094,-15.288927,-95.913931
49790,NaN,2.613026,8.737532,-3.822802,-0.075445,0.001802,0.075715,0.011702,0.001880,-0.004957,0.443955,0.503183,-0.666071,-0.325668,114.087496,-15.287875,-95.915936
49791,NaN,2.554948,8.763285,-3.909021,-0.001329,0.065835,0.117017,0.004623,0.002035,-0.004839,0.443924,0.503192,-0.666091,-0.325656,114.091926,-15.286931,-95.918037
49792,NaN,2.564733,8.720959,-3.887119,-0.006875,0.044150,0.073701,0.001270,0.000445,-0.004376,0.443900,0.503188,-0.666109,-0.325658,114.094481,-15.285953,-95.921075
49793,NaN,2.578930,8.714730,-3.905835,0.010831,0.028969,0.079329,-0.000324,-0.003715,-0.000495,0.443870,0.503162,-0.666144,-0.325667,114.097176,-15.285936,-95.927348
49794,NaN,2.593766,8.670684,-3.943196,0.060183,0.002815,0.059169,-0.003863,-0.003638,-0.000436,0.443849,0.503131,-0.666172,-0.325686,114.097966,-15.285808,-95.933317
49795,NaN,2.598729,8.649790,-3.931609,0.057204,-0.007923,0.037514,-0.010247,-0.003102,0.000986,0.443849,0.503079,-0.666194,-0.325723,114.094983,-15.286709,-95.939616
49796,NaN,2.623032,8.639449,-3.908272,0.038047,-0.034062,0.025623,-0.012629,0.006454,0.002935,0.443890,0.503028,-0.666196,-0.325740,114.089256,-15.291064,-95.941460
49797,NaN,2.604413,8.629434,-3.918358,0.053878,-0.018404,0.015862,-0.011530,0.002509,0.001758,0.443913,0.502980,-0.666205,-0.325766,114.084785,-15.293683,-95.944903
49798,NaN,2.623354,8.678192,-3.886901,0.005614,-0.022630,0.051412,-0.016029,0.011912,0.003085,0.443980,0.502931,-0.666190,-0.325779,114.076541,-15.299300,-95.943829
49799,NaN,2.580476,8.716919,-3.899926,0.008588,0.030383,0.079327,-0.014976,0.015016,0.001595,0.444053,0.502896,-0.666165,-0.325785,114.068295,-15.304757,-95.940450
49800,NaN,2.599707,8.765702,-3.868158,-0.039603,0.026207,0.114871,-0.014281,0.015396,0.002900,0.444130,0.502854,-0.666146,-0.325787,114.060114,-15.311348,-95.937607
49801,NaN,2.600696,8.746755,-3.795914,-0.097534,0.019926,0.070045,-0.014095,0.013728,0.003304,0.444199,0.502813,-0.666129,-0.325789,114.052666,-15.317398,-95.935339
49802,NaN,2.577358,8.757912,-3.816825,-0.079098,0.046554,0.081934,-0.010880,0.009936,0.002749,0.444246,0.502775,-0.666125,-0.325791,114.047621,-15.322255,-95.934966
49803,NaN,2.573463,8.741647,-3.845390,-0.045190,0.046790,0.077808,-0.014234,0.008345,0.003211,0.444298,0.502726,-0.666120,-0.325807,114.040859,-15.326999,-95.935594
49804,NaN,2.598535,8.693360,-3.840883,-0.032704,0.009733,0.040135,-0.007111,0.001143,0.003406,0.444307,0.502673,-0.666148,-0.325819,114.039244,-15.330572,-95.941041
49805,NaN,2.599382,8.655809,-3.858889,-0.001401,-0.001009,0.014359,-0.011528,0.002506,0.001755,0.444330,0.502625,-0.666157,-0.325844,114.034777,-15.333192,-95.944484
49806,NaN,2.638043,8.639053,-3.854523,-0.002510,-0.042575,0.008109,-0.003539,0.000077,0.000058,0.444323,0.502595,-0.666180,-0.325853,114.034983,-15.334473,-95.948921
49807,NaN,2.652534,8.632937,-3.872851,0.015175,-0.057772,0.013753,-0.002486,0.003182,-0.001431,0.444320,0.502578,-0.666194,-0.325854,114.035395,-15.335584,-95.951227
49808,NaN,2.681403,8.601122,-3.839350,-0.006608,-0.094856,-0.019792,0.001444,0.004840,-0.007571,0.444303,0.502590,-0.666197,-0.325852,114.037306,-15.334127,-95.951534
49809,NaN,2.637235,8.639413,-3.854269,-0.003611,-0.041839,0.008111,0.007816,0.010365,-0.012591,0.444280,0.502645,-0.666184,-0.325825,114.041877,-15.331075,-95.947242
49810,NaN,2.645433,8.692098,-3.865725,-0.014923,-0.035044,0.061181,0.014524,0.013545,-0.013512,0.444252,0.502720,-0.666172,-0.325771,114.049324,-15.328519,-95.941113
49811,NaN,2.625043,8.719353,-3.859100,-0.030750,-0.008407,0.077187,0.015797,0.013991,-0.017887,0.444213,0.502817,-0.666150,-0.325720,114.057608,-15.323543,-95.933570
49812,NaN,2.627863,8.773642,-3.811612,-0.096970,0.002811,0.107062,0.020944,0.012018,-0.018221,0.444158,0.502926,-0.666134,-0.325659,114.068405,-15.317795,-95.926071
49813,NaN,2.564802,8.763170,-3.858045,-0.046056,0.060249,0.099433,0.020587,0.009293,-0.015427,0.444095,0.503018,-0.666137,-0.325599,114.080264,-15.313010,-95.921670
49814,NaN,2.587873,8.752117,-3.837081,-0.065248,0.034085,0.087536,0.015812,0.007929,-0.014286,0.444042,0.503095,-0.666136,-0.325555,114.089558,-15.308405,-95.917902
49815,NaN,2.563358,8.724733,-3.879551,-0.015108,0.049698,0.073666,0.016045,-0.000785,-0.013569,0.443959,0.503153,-0.666158,-0.325531,114.100377,-15.302237,-95.919415
49816,NaN,2.600747,8.707513,-3.877142,-0.016285,0.008130,0.067423,0.013386,-0.001995,-0.011804,0.443882,0.503197,-0.666185,-0.325514,114.110078,-15.296786,-95.922240
49817,NaN,2.590049,8.711859,-3.919129,0.020227,0.019301,0.084970,0.008102,-0.005405,-0.011562,0.443807,0.503224,-0.666210,-0.325524,114.117134,-15.290585,-95.926743
49818,NaN,2.608643,8.684421,-3.927380,0.035388,-0.006850,0.068973,0.006272,-0.000852,-0.008402,0.443761,0.503240,-0.666228,-0.325523,114.122163,-15.287341,-95.929574
49819,NaN,2.612916,8.663344,-3.916667,0.032410,-0.017596,0.047322,0.001853,0.000507,-0.010055,0.443724,0.503258,-0.666234,-0.325535,114.124889,-15.283312,-95.931237
49820,NaN,2.612306,8.663537,-3.916645,0.032087,-0.017345,0.047323,-0.000163,0.006726,-0.007299,0.443720,0.503270,-0.666229,-0.325533,114.125449,-15.282341,-95.930243
49821,NaN,2.607522,8.647115,-3.946122,0.065995,-0.017161,0.043225,-0.005125,0.007030,-0.006562,0.443728,0.503271,-0.666217,-0.325544,114.123469,-15.281666,-95.929217
49822,NaN,2.592848,8.653812,-3.926637,0.047572,-0.001495,0.037568,-0.008714,0.014150,-0.006820,0.443768,0.503277,-0.666182,-0.325549,114.118439,-15.282488,-95.924204
49823,NaN,2.578154,8.660563,-3.907035,0.029158,0.014177,0.031910,-0.007427,0.008541,-0.007591,0.443786,0.503279,-0.666161,-0.325567,114.114858,-15.281629,-95.922110
49824,NaN,2.591798,8.692652,-3.905923,0.015172,0.010012,0.063320,-0.007105,0.012255,-0.007095,0.443817,0.503284,-0.666134,-0.325573,114.110826,-15.282055,-95.918289
49825,NaN,2.582178,8.678236,-3.875254,-0.005843,0.014713,0.036007,-0.009035,0.010434,-0.007316,0.443845,0.503285,-0.666106,-0.325590,114.106071,-15.281783,-95.915236
49826,NaN,2.595837,8.710403,-3.873942,-0.019870,0.010513,0.067414,-0.010272,0.008996,-0.006231,0.443873,0.503278,-0.666082,-0.325612,114.100947,-15.281639,-95.913047
49827,NaN,2.624238,8.716825,-3.820764,-0.073378,-0.015564,0.059611,-0.006398,0.006582,-0.002187,0.443890,0.503261,-0.666080,-0.325619,114.098580,-15.283147,-95.913326
49828,NaN,2.576854,8.700665,-3.883637,-0.004347,0.026368,0.057656,-0.006027,0.003251,-0.001379,0.443897,0.503237,-0.666087,-0.325632,114.096830,-15.284310,-95.915492
49829,NaN,2.580720,8.755526,-3.834121,-0.070683,0.037703,0.087485,-0.011162,-0.000835,0.002554,0.443909,0.503181,-0.666106,-0.325662,114.093098,-15.286563,-95.920943
49830,NaN,2.596587,8.673861,-3.889775,0.010404,0.000447,0.041671,-0.005097,-0.005078,0.000643,0.443891,0.503134,-0.666140,-0.325689,114.092959,-15.287135,-95.928535
49831,NaN,2.610392,8.705706,-3.889075,-0.003619,-0.003729,0.073077,-0.007078,0.000147,0.000110,0.443892,0.503098,-0.666157,-0.325710,114.091270,-15.288340,-95.932860
49832,NaN,2.591484,8.695544,-3.899690,0.012345,0.011874,0.063322,-0.007449,0.003478,-0.000698,0.443908,0.503070,-0.666161,-0.325725,114.088327,-15.289875,-95.934628
49833,NaN,2.630238,8.678907,-3.895134,0.011142,-0.029713,0.057097,-0.009417,0.002650,0.002371,0.443927,0.503024,-0.666174,-0.325742,114.085084,-15.292848,-95.938144
49834,NaN,2.635559,8.658006,-3.883329,0.008235,-0.040412,0.035449,-0.005519,0.005298,-0.000477,0.443943,0.502996,-0.666182,-0.325747,114.083117,-15.295278,-95.939870
49835,NaN,2.650138,8.652145,-3.901089,0.025885,-0.055639,0.041122,-0.009577,0.009377,-0.004924,0.443972,0.502986,-0.666162,-0.325764,114.078354,-15.296009,-95.937969
49836,NaN,2.626297,8.643843,-3.851803,-0.013090,-0.035462,0.008128,-0.005582,0.018396,-0.004387,0.444025,0.502996,-0.666128,-0.325744,114.074309,-15.299220,-95.931187
49837,NaN,2.630758,8.680286,-3.891711,0.009765,-0.028729,0.057102,-0.003563,0.012179,-0.007146,0.444046,0.503011,-0.666106,-0.325738,114.072448,-15.299442,-95.927228
49838,NaN,2.620700,8.703364,-3.842739,-0.042882,-0.012961,0.055507,0.001682,0.016583,-0.004092,0.444075,0.503036,-0.666089,-0.325697,114.072941,-15.302262,-95.921352
49839,NaN,2.605945,8.709746,-3.823920,-0.061278,0.002735,0.049829,0.000933,0.008839,-0.012072,0.444065,0.503072,-0.666069,-0.325696,114.073819,-15.299127,-95.918011
49840,NaN,2.605267,8.709977,-3.823856,-0.061656,0.002975,0.049827,0.001997,0.005890,-0.009959,0.444045,0.503098,-0.666063,-0.325694,114.075898,-15.296430,-95.916819
49841,NaN,2.614130,8.725002,-3.853737,-0.041408,-0.001271,0.077151,0.006413,0.004534,-0.008303,0.444014,0.503126,-0.666071,-0.325677,114.080773,-15.294261,-95.916726
49842,NaN,2.561116,8.710310,-3.858149,-0.027223,0.045238,0.051963,0.004484,0.002713,-0.008525,0.443981,0.503142,-0.666083,-0.325672,114.084588,-15.291960,-95.918203
49843,NaN,2.613556,8.687131,-3.873511,-0.010433,-0.011814,0.051427,0.009447,0.002414,-0.009258,0.443933,0.503177,-0.666098,-0.325653,114.091443,-15.288795,-95.919028
49844,NaN,2.593099,8.714458,-3.866647,-0.026177,0.014900,0.067394,0.006825,0.000211,-0.010786,0.443883,0.503204,-0.666111,-0.325652,114.096775,-15.284518,-95.920876
49845,NaN,2.592775,8.676638,-3.886123,0.005134,0.004048,0.041674,0.007557,-0.000400,-0.012770,0.443825,0.503242,-0.666121,-0.325653,114.102725,-15.278858,-95.922373
49846,NaN,2.611272,8.649220,-3.894510,0.020165,-0.022158,0.025710,0.012334,0.000966,-0.013907,0.443757,0.503295,-0.666134,-0.325637,114.111190,-15.273015,-95.923018
49847,NaN,2.619819,8.664056,-3.925006,0.040405,-0.026415,0.053044,0.009075,0.005742,-0.010067,0.443719,0.503338,-0.666139,-0.325612,114.117304,-15.270206,-95.921840
49848,NaN,2.566763,8.649224,-3.929672,0.054577,0.019977,0.027856,0.009075,0.005742,-0.010067,0.443682,0.503383,-0.666142,-0.325587,114.123374,-15.267199,-95.920187
49849,NaN,2.565444,8.687077,-3.911229,0.022522,0.031299,0.053570,0.003926,0.007705,-0.009739,0.443665,0.503416,-0.666135,-0.325573,114.126279,-15.265022,-95.918025
49850,NaN,2.588956,8.676454,-3.889080,0.003370,0.005223,0.041674,0.006042,0.007861,-0.009113,0.443647,0.503448,-0.666133,-0.325552,114.129837,-15.263501,-95.915993
49851,NaN,2.578354,8.718808,-3.911379,0.008202,0.027425,0.084968,0.001957,0.006877,-0.006671,0.443637,0.503465,-0.666133,-0.325541,114.131927,-15.262734,-95.915024
49852,NaN,2.582487,8.735654,-3.881311,-0.026411,0.027761,0.089030,-0.001077,0.008996,-0.005717,0.443645,0.503477,-0.666123,-0.325532,114.131753,-15.262916,-95.912765
49853,NaN,2.567930,8.742010,-3.862409,-0.044788,0.043471,0.083337,-0.001983,0.005222,-0.000535,0.443649,0.503462,-0.666135,-0.325524,114.132214,-15.264970,-95.914183
49854,NaN,2.587102,8.752642,-3.850594,-0.061438,0.028399,0.093085,-0.005204,0.009005,0.000014,0.443675,0.503440,-0.666138,-0.325516,114.130327,-15.268482,-95.914196
49855,NaN,2.559794,8.708939,-3.921086,0.023049,0.043739,0.075216,-0.005882,0.002573,0.002311,0.443685,0.503402,-0.666158,-0.325521,114.129114,-15.271404,-95.917741
49856,NaN,2.617628,8.702731,-3.905321,0.005541,-0.013192,0.078764,-0.006255,0.005902,0.001502,0.443707,0.503371,-0.666166,-0.325522,114.126937,-15.274769,-95.919272
49857,NaN,2.618019,8.702953,-3.904562,0.005166,-0.012961,0.078765,-0.006627,0.009232,0.000694,0.443738,0.503348,-0.666165,-0.325516,114.124243,-15.278405,-95.918814
49858,NaN,2.590215,8.677724,-3.885405,0.000475,0.007135,0.041674,-0.006669,0.010224,0.003984,0.443777,0.503314,-0.666172,-0.325502,114.121649,-15.284108,-95.918923
49859,NaN,2.601076,8.654987,-3.933096,0.052386,-0.008252,0.043318,-0.004884,0.012716,0.000512,0.443815,0.503301,-0.666166,-0.325482,114.119445,-15.288464,-95.916532
49860,NaN,2.616179,8.629425,-3.880542,0.012507,-0.029857,0.004081,0.000770,0.012801,0.001087,0.443840,0.503298,-0.666172,-0.325442,114.120600,-15.293183,-95.914415
49861,NaN,2.639745,8.656652,-3.838970,-0.038449,-0.044834,0.017881,0.000297,0.015809,-0.006706,0.443863,0.503326,-0.666149,-0.325413,114.120459,-15.294489,-95.908595
49862,NaN,2.620750,8.646204,-3.850283,-0.022502,-0.029248,0.008132,0.006191,0.007188,-0.005414,0.443847,0.503348,-0.666158,-0.325384,114.124860,-15.294518,-95.907794
49863,NaN,2.629508,8.698897,-3.861295,-0.033970,-0.022380,0.061170,0.004352,0.011737,-0.002254,0.443854,0.503363,-0.666162,-0.325343,114.127910,-15.297200,-95.905263
49864,NaN,2.609856,8.726218,-3.853881,-0.049698,0.004375,0.077112,0.002838,0.005594,-0.004958,0.443841,0.503370,-0.666172,-0.325328,114.130610,-15.297300,-95.905790
49865,NaN,2.585545,8.736918,-3.876428,-0.031171,0.030941,0.089006,0.002520,0.001882,-0.005455,0.443815,0.503376,-0.666187,-0.325325,114.133815,-15.296000,-95.907824
49866,NaN,2.575563,8.741459,-3.917591,0.005415,0.042051,0.106605,0.001511,-0.002213,-0.007258,0.443776,0.503375,-0.666205,-0.325340,114.136525,-15.293048,-95.911859
49867,NaN,2.614262,8.686901,-3.932650,0.035812,-0.010683,0.074726,-0.000286,0.001343,-0.007389,0.443752,0.503381,-0.666212,-0.325351,114.138075,-15.290610,-95.913715
49868,NaN,2.603981,8.672242,-3.902902,0.014841,-0.005905,0.047378,-0.002171,-0.001472,-0.010902,0.443717,0.503385,-0.666217,-0.325384,114.138813,-15.285945,-95.916876
49869,NaN,2.584194,8.662121,-3.914002,0.030773,0.009660,0.037631,-0.001174,0.008670,-0.012701,0.443711,0.503418,-0.666192,-0.325392,114.138467,-15.282447,-95.913470
49870,NaN,2.627207,8.624463,-3.898749,0.026936,-0.042907,0.009800,-0.001721,0.007616,-0.010312,0.443709,0.503438,-0.666174,-0.325400,114.137749,-15.280093,-95.911218
49871,NaN,2.617227,8.629271,-3.939329,0.063452,-0.031850,0.027408,-0.001041,0.014045,-0.012608,0.443720,0.503479,-0.666139,-0.325393,114.136717,-15.277903,-95.904922
49872,NaN,2.601954,8.635892,-3.920291,0.045216,-0.016120,0.021700,-0.001183,0.014715,-0.016303,0.443733,0.503533,-0.666088,-0.325395,114.134569,-15.274041,-95.896952
49873,NaN,2.576208,8.665444,-3.852801,-0.025404,0.015271,0.014315,0.000056,0.016151,-0.017385,0.443741,0.503597,-0.666037,-0.325390,114.133560,-15.269846,-95.888354
49874,NaN,2.613137,8.686855,-3.829771,-0.058397,-0.015169,0.033807,0.001119,0.013206,-0.015270,0.443740,0.503652,-0.665999,-0.325384,114.133696,-15.265986,-95.881641
49875,NaN,2.588208,8.697853,-3.852023,-0.039856,0.011387,0.045701,0.002042,0.010931,-0.016849,0.443727,0.503710,-0.665964,-0.325384,114.134605,-15.260848,-95.876003
49876,NaN,2.572500,8.704365,-3.833478,-0.058224,0.027100,0.039985,0.002789,0.004275,-0.015231,0.443691,0.503755,-0.665948,-0.325394,114.137104,-15.254863,-95.874133
49877,NaN,2.571520,8.704618,-3.833561,-0.058595,0.027334,0.039982,0.001505,0.003831,-0.010859,0.443665,0.503780,-0.665944,-0.325401,114.139102,-15.251193,-95.873797
49878,NaN,2.580027,8.719823,-3.863297,-0.038320,0.023103,0.067338,0.000874,-0.003592,-0.011854,0.443617,0.503791,-0.665953,-0.325432,114.141328,-15.245554,-95.877479
49879,NaN,2.574967,8.703275,-3.893379,-0.004401,0.023155,0.063308,0.002522,0.001881,-0.005454,0.443591,0.503797,-0.665967,-0.325428,114.144531,-15.244254,-95.879513
49880,NaN,2.588276,8.734955,-3.893369,-0.018497,0.019110,0.094695,0.004134,-0.000008,-0.005727,0.443553,0.503800,-0.665992,-0.325425,114.148968,-15.242648,-95.883098
49881,NaN,2.568950,8.724448,-3.904984,-0.002549,0.034662,0.084949,0.001471,-0.001220,-0.003967,0.443521,0.503793,-0.666016,-0.325429,114.152105,-15.241398,-95.887173
49882,NaN,2.568753,8.724471,-3.905064,-0.002910,0.034936,0.084948,0.000000,0.000000,-0.000000,0.443504,0.503768,-0.666047,-0.325427,114.154447,-15.242756,-95.892031
49883,NaN,2.540567,8.718431,-3.957250,0.049934,0.061289,0.092821,-0.003037,0.002115,0.000951,0.443503,0.503741,-0.666068,-0.325427,114.154841,-15.244859,-95.895494
49884,NaN,2.565794,8.670039,-3.953227,0.062376,0.024046,0.055261,-0.003644,0.008100,0.003027,0.443528,0.503712,-0.666082,-0.325411,114.153901,-15.249670,-95.896454
49885,NaN,2.566325,8.670210,-3.952506,0.062005,0.024272,0.055263,-0.005957,0.015649,-0.001608,0.443575,0.503709,-0.666062,-0.325392,114.150529,-15.253609,-95.891961
49886,NaN,2.600339,8.655380,-3.888134,0.005846,-0.012548,0.025746,-0.007055,0.013541,0.003168,0.443627,0.503678,-0.666060,-0.325373,114.146972,-15.259932,-95.890391
49887,NaN,2.596122,8.676775,-3.898060,0.008074,-0.001320,0.047387,-0.010278,0.017319,0.003714,0.443699,0.503650,-0.666043,-0.325352,114.141225,-15.267044,-95.886286
49888,NaN,2.587502,8.662182,-3.867008,-0.012840,0.003452,0.020020,-0.012894,0.015112,0.002183,0.443769,0.503615,-0.666024,-0.325350,114.134096,-15.273002,-95.883298
49889,NaN,2.597646,8.677580,-3.895251,0.007348,-0.000833,0.047388,-0.011597,0.009512,0.001412,0.443814,0.503579,-0.666016,-0.325359,114.128560,-15.277081,-95.882864
49890,NaN,2.603267,8.656854,-3.882891,0.004418,-0.011641,0.025748,-0.012835,0.008073,0.002494,0.443863,0.503538,-0.666009,-0.325374,114.122306,-15.281189,-95.882819
49891,NaN,2.602850,8.695079,-3.862871,-0.027647,-0.000199,0.051401,-0.009799,0.005959,0.001544,0.443892,0.503500,-0.666012,-0.325385,114.118317,-15.284504,-95.884342
49892,NaN,2.597850,8.716693,-3.872831,-0.025333,0.011061,0.073040,-0.012553,0.004423,-0.003683,0.443918,0.503468,-0.666000,-0.325423,114.112128,-15.284934,-95.885485
49893,NaN,2.597981,8.717164,-3.871681,-0.025706,0.011294,0.073039,-0.012089,0.001418,0.004110,0.443943,0.503409,-0.666017,-0.325448,114.107639,-15.288529,-95.890091
49894,NaN,2.603528,8.715958,-3.929965,0.028829,0.006780,0.096401,-0.015766,0.002155,0.000463,0.443976,0.503356,-0.666013,-0.325492,114.100323,-15.290373,-95.893068
49895,NaN,2.618006,8.690862,-3.876676,-0.011038,-0.014771,0.057131,-0.011491,0.001480,-0.001568,0.443990,0.503317,-0.666016,-0.325527,114.095804,-15.291014,-95.896263
49896,NaN,2.637744,8.664073,-3.882972,0.004026,-0.041006,0.041227,-0.014527,0.003592,-0.000618,0.444023,0.503266,-0.666013,-0.325567,114.088815,-15.293024,-95.898927
49897,NaN,2.618072,8.691897,-3.874312,-0.011698,-0.014250,0.057131,-0.009750,0.004964,-0.001746,0.444044,0.503237,-0.666010,-0.325589,114.084784,-15.294388,-95.900190
49898,NaN,2.637833,8.665058,-3.880712,0.003302,-0.040527,0.041229,-0.012049,0.006469,-0.002779,0.444075,0.503208,-0.665998,-0.325616,114.079007,-15.295677,-95.900468
49899,NaN,2.604366,8.661262,-3.872308,0.001327,-0.009475,0.025751,-0.013288,0.005029,-0.001698,0.444105,0.503171,-0.665990,-0.325649,114.072943,-15.297081,-95.901706
49900,NaN,2.599172,8.682977,-3.882184,0.003616,0.001780,0.047390,-0.010074,0.007299,-0.005843,0.444130,0.503158,-0.665971,-0.325675,114.067773,-15.297003,-95.900702
49901,NaN,2.598805,8.683572,-3.881099,0.003243,0.002011,0.047390,-0.011264,0.004868,-0.008053,0.444144,0.503146,-0.665950,-0.325716,114.062484,-15.295045,-95.900488
49902,NaN,2.612154,8.715747,-3.879876,-0.010775,-0.002014,0.078769,-0.005110,0.007008,-0.006566,0.444156,0.503144,-0.665937,-0.325729,114.059901,-15.294602,-95.899446
49903,NaN,2.611808,8.716157,-3.879187,-0.011149,-0.001781,0.078768,-0.007037,0.005185,-0.006793,0.444163,0.503139,-0.665925,-0.325752,114.057070,-15.293377,-95.899365
49904,NaN,2.597581,8.684890,-3.878967,0.002244,0.002803,0.047390,-0.002948,0.006176,-0.009227,0.444158,0.503146,-0.665917,-0.325765,114.056245,-15.291502,-95.898913
49905,NaN,2.606330,8.680648,-3.837738,-0.035022,-0.007725,0.029749,0.000777,0.004447,-0.008870,0.444139,0.503164,-0.665914,-0.325768,114.057863,-15.289018,-95.898730
49906,NaN,2.629863,8.689715,-3.885896,0.003074,-0.027500,0.062875,0.003254,0.007325,-0.011030,0.444119,0.503194,-0.665908,-0.325761,114.060420,-15.286373,-95.897114
49907,NaN,2.613431,8.714222,-3.778100,-0.104361,-0.006705,0.037733,0.006793,0.007260,-0.011076,0.444091,0.503237,-0.665904,-0.325742,114.064943,-15.283393,-95.894871
49908,NaN,2.627518,8.727605,-3.867789,-0.029295,-0.015814,0.088506,0.008778,0.002046,-0.010544,0.444045,0.503277,-0.665911,-0.325729,114.070918,-15.279309,-95.894852
49909,NaN,2.602712,8.718646,-3.820257,-0.068138,0.004487,0.055372,0.007117,0.004924,-0.006979,0.444015,0.503303,-0.665923,-0.325705,114.076221,-15.277926,-95.894867
49910,NaN,2.598217,8.721443,-3.921302,0.023214,0.010643,0.096412,0.007668,0.005979,-0.009366,0.443983,0.503344,-0.665924,-0.325682,114.081485,-15.275295,-95.893165
49911,NaN,2.592916,8.685233,-3.881320,-0.000290,0.004399,0.047390,0.010068,0.002492,-0.014914,0.443925,0.503400,-0.665926,-0.325673,114.088320,-15.269193,-95.892576
49912,NaN,2.572076,8.712465,-3.874689,-0.015960,0.031195,0.063274,0.010392,0.000157,-0.010816,0.443865,0.503436,-0.665944,-0.325660,114.095749,-15.264812,-95.894327
49913,NaN,2.571306,8.712368,-3.875421,-0.016331,0.031428,0.063273,0.006803,0.001213,-0.007480,0.443823,0.503458,-0.665962,-0.325648,114.101370,-15.262299,-95.896233
49914,NaN,2.576005,8.710691,-3.935433,0.038155,0.026882,0.086676,0.004691,0.001053,-0.008110,0.443785,0.503474,-0.665976,-0.325646,114.105572,-15.259559,-95.898220
49915,NaN,2.604589,8.678958,-3.902151,0.016216,-0.010179,0.053143,0.001289,0.000446,-0.004370,0.443759,0.503471,-0.665995,-0.325647,114.108341,-15.258493,-95.901295
49916,NaN,2.581275,8.651866,-3.943448,0.066580,0.005118,0.039424,-0.000698,0.005658,-0.004905,0.443756,0.503468,-0.666000,-0.325646,114.108800,-15.258787,-95.901958
49917,NaN,2.586142,8.630899,-3.932153,0.063609,-0.005665,0.017791,-0.002437,0.002172,-0.004728,0.443745,0.503461,-0.666008,-0.325656,114.109165,-15.257938,-95.904010
49918,NaN,2.585017,8.668955,-3.912871,0.031537,0.005844,0.043408,-0.003736,0.007769,-0.003955,0.443756,0.503458,-0.666003,-0.325655,114.108060,-15.258779,-95.903200
49919,NaN,2.623570,8.652429,-3.908478,0.030114,-0.035752,0.037270,-0.002311,0.007544,-0.004632,0.443762,0.503459,-0.666000,-0.325651,114.107737,-15.259237,-95.902364
49920,NaN,2.602746,8.717894,-3.881374,-0.017194,0.002350,0.078760,-0.009575,0.009333,-0.004944,0.443795,0.503446,-0.665979,-0.325669,114.102491,-15.260141,-95.900474
49921,NaN,2.612967,8.676036,-3.858275,-0.022765,-0.019438,0.035490,-0.007461,0.009493,-0.004313,0.443821,0.503439,-0.665963,-0.325677,114.098959,-15.261222,-95.898659
49922,NaN,2.564918,8.697683,-3.902395,0.014865,0.033337,0.059285,-0.006536,0.007223,-0.005893,0.443837,0.503435,-0.665948,-0.325691,114.095881,-15.260920,-95.897370
49923,NaN,2.602432,8.719135,-3.878796,-0.018264,0.003041,0.078758,-0.006035,0.009269,-0.004989,0.443857,0.503433,-0.665934,-0.325697,114.093155,-15.261594,-95.895512
49924,NaN,2.596999,8.740726,-3.889072,-0.015998,0.014290,0.100391,-0.006671,0.007892,-0.009587,0.443869,0.503441,-0.665909,-0.325718,114.089728,-15.259591,-95.893192
49925,NaN,2.597440,8.703354,-3.907337,0.015327,0.003220,0.074785,-0.004183,0.004728,-0.008150,0.443865,0.503446,-0.665900,-0.325735,114.088509,-15.257551,-95.893030
49926,NaN,2.591636,8.705273,-3.847421,-0.039823,0.008273,0.051356,-0.002435,0.002172,-0.004728,0.443854,0.503440,-0.665906,-0.325746,114.088674,-15.256641,-95.894781
49927,NaN,2.587004,8.688883,-3.877095,-0.005898,0.008211,0.047385,-0.002570,0.002842,-0.008422,0.443839,0.503446,-0.665903,-0.325763,114.088631,-15.254017,-95.895575
49928,NaN,2.601103,8.683043,-3.895383,0.011585,-0.007141,0.053152,-0.001696,0.001564,-0.006712,0.443819,0.503450,-0.665908,-0.325776,114.089700,-15.251792,-95.897334
49929,NaN,2.600611,8.683235,-3.895284,0.011213,-0.006910,0.053153,0.000417,0.001725,-0.006080,0.443796,0.503453,-0.665918,-0.325781,114.091677,-15.250132,-95.899301
49930,NaN,2.600260,8.683373,-3.895211,0.010863,-0.006649,0.053154,0.000541,0.007096,-0.005982,0.443792,0.503462,-0.665919,-0.325772,114.092846,-15.249969,-95.898663
49931,NaN,2.604100,8.700195,-3.865092,-0.023807,-0.006112,0.057118,-0.000145,0.006711,-0.007290,0.443785,0.503476,-0.665914,-0.325769,114.093713,-15.248842,-95.897634
49932,NaN,2.622575,8.710951,-3.853414,-0.040557,-0.021109,0.066851,-0.000520,0.010035,-0.008096,0.443790,0.503495,-0.665900,-0.325762,114.093768,-15.248200,-95.894828
49933,NaN,2.579519,8.711201,-3.887101,-0.005547,0.020641,0.069015,-0.000509,0.003994,-0.004500,0.443780,0.503494,-0.665908,-0.325761,114.094992,-15.247896,-95.895948
49934,NaN,2.593930,8.705342,-3.905240,0.011995,0.005337,0.074788,-0.005109,0.006995,-0.006570,0.443788,0.503493,-0.665898,-0.325772,114.092974,-15.247368,-95.895224
49935,NaN,2.583017,8.728439,-3.856260,-0.040577,0.021447,0.072972,-0.002257,0.006549,-0.007921,0.443785,0.503504,-0.665888,-0.325778,114.092613,-15.245873,-95.894129
49936,NaN,2.564890,8.680373,-3.886164,0.007190,0.025616,0.037648,-0.004235,0.005717,-0.004859,0.443791,0.503497,-0.665885,-0.325787,114.091198,-15.245930,-95.894334
49937,NaN,2.570119,8.679064,-3.945155,0.061615,0.020976,0.061100,-0.004422,0.007379,-0.005262,0.443801,0.503496,-0.665877,-0.325792,114.089648,-15.246020,-95.893434
49938,NaN,2.597918,8.685355,-3.892354,0.007970,-0.004774,0.053157,0.000044,0.005048,-0.006886,0.443791,0.503510,-0.665874,-0.325791,114.090735,-15.244488,-95.892825
49939,NaN,2.621583,8.674925,-3.869666,-0.011402,-0.030802,0.041259,-0.000884,0.007317,-0.005306,0.443791,0.503517,-0.665871,-0.325785,114.091218,-15.244540,-95.891948
49940,NaN,2.583718,8.654026,-3.892262,0.020970,-0.000083,0.021795,-0.000519,0.010034,-0.008095,0.443793,0.503538,-0.665859,-0.325775,114.091706,-15.243760,-95.889173
49941,NaN,2.629400,8.728271,-3.879708,-0.023417,-0.023539,0.094254,-0.001703,0.007602,-0.010308,0.443789,0.503560,-0.665842,-0.325782,114.091361,-15.241263,-95.886929
49942,NaN,2.581930,8.692346,-3.872710,-0.011418,0.011743,0.047377,-0.001436,0.006262,-0.002920,0.443793,0.503554,-0.665846,-0.325776,114.091514,-15.242449,-95.887205
49943,NaN,2.615185,8.696934,-3.879645,-0.010304,-0.018834,0.062891,0.002522,0.007926,-0.009043,0.443781,0.503582,-0.665839,-0.325765,114.093624,-15.240689,-95.885093
49944,NaN,2.581323,8.692614,-3.872514,-0.012094,0.012242,0.047376,0.000543,0.007094,-0.005981,0.443778,0.503590,-0.665838,-0.325757,114.094540,-15.240574,-95.884360
49945,NaN,2.599879,8.703305,-3.860928,-0.028875,-0.002761,0.057106,0.000543,0.007093,-0.005981,0.443774,0.503602,-0.665836,-0.325748,114.095829,-15.240221,-95.883441
49946,NaN,2.590065,8.688377,-3.831254,-0.049742,0.002059,0.029688,0.000731,0.005432,-0.005578,0.443763,0.503608,-0.665842,-0.325742,114.097561,-15.239859,-95.883886
49947,NaN,2.585019,8.729164,-3.912834,0.009865,0.019432,0.096421,0.000365,0.002716,-0.002789,0.443749,0.503601,-0.665859,-0.325737,114.099576,-15.240151,-95.886114
49948,NaN,2.556289,8.703739,-3.894546,0.005508,0.039455,0.059272,-0.003615,-0.000264,-0.006942,0.443732,0.503594,-0.665862,-0.325764,114.098968,-15.237648,-95.888675
49949,NaN,2.575799,8.676699,-3.901769,0.020425,0.013088,0.043431,-0.001061,0.002938,-0.002114,0.443724,0.503583,-0.665877,-0.325762,114.100176,-15.238346,-95.890946
49950,NaN,2.570323,8.698067,-3.912554,0.022711,0.024369,0.065061,-0.003803,0.001398,-0.007345,0.443711,0.503577,-0.665878,-0.325786,114.099367,-15.236153,-95.892924
49951,NaN,2.594124,8.687730,-3.889582,0.003325,-0.001648,0.053161,-0.004843,0.005651,0.000816,0.443726,0.503552,-0.665889,-0.325783,114.098210,-15.239018,-95.894435
49952,NaN,2.575278,8.677477,-3.900382,0.019378,0.013839,0.043432,-0.007031,0.005165,-0.006801,0.443732,0.503544,-0.665879,-0.325807,114.095365,-15.237969,-95.894718
49953,NaN,2.608647,8.682345,-3.906643,0.020467,-0.016737,0.058955,-0.006777,0.009865,-0.003008,0.443760,0.503534,-0.665867,-0.325808,114.092255,-15.239820,-95.893017
49954,NaN,2.574072,8.716008,-3.879930,-0.013044,0.025654,0.068996,-0.004609,0.009035,-0.005666,0.443776,0.503539,-0.665852,-0.325811,114.090188,-15.239938,-95.890707
49955,NaN,2.579304,8.695175,-3.868108,-0.016012,0.014865,0.047366,-0.006467,0.013572,-0.002506,0.443816,0.503534,-0.665833,-0.325801,114.086759,-15.242918,-95.887118
49956,NaN,2.589173,8.710491,-3.896906,0.004148,0.010600,0.074790,-0.002928,0.013512,-0.002548,0.443849,0.503531,-0.665824,-0.325781,114.085055,-15.246270,-95.884121
49957,NaN,2.579865,8.695574,-3.866836,-0.016695,0.015395,0.047364,-0.002365,0.008528,-0.001339,0.443864,0.503523,-0.665826,-0.325768,114.084769,-15.248681,-95.883549
49958,NaN,2.594855,8.689653,-3.884796,0.000868,0.000086,0.053162,-0.003115,0.015173,-0.002950,0.443902,0.503526,-0.665810,-0.325745,114.082669,-15.252103,-95.879334
49959,NaN,2.589499,8.691321,-3.824954,-0.054274,0.005256,0.029663,0.003154,0.009302,-0.004440,0.443901,0.503542,-0.665812,-0.325719,114.085237,-15.253072,-95.877591
49960,NaN,2.627135,8.712497,-3.801843,-0.087509,-0.024892,0.049117,-0.001126,0.009967,-0.002417,0.443915,0.503538,-0.665814,-0.325700,114.085443,-15.255519,-95.876540
49961,NaN,2.609422,8.664199,-3.832111,-0.039748,-0.020844,0.013832,0.001794,0.002494,-0.003463,0.443896,0.503537,-0.665831,-0.325693,114.088265,-15.255408,-95.878725
49962,NaN,2.600129,8.668659,-3.873306,-0.003165,-0.009956,0.031534,0.003351,0.001603,-0.000443,0.443877,0.503526,-0.665860,-0.325677,114.091964,-15.256760,-95.882054
49963,NaN,2.594858,8.689743,-3.884591,-0.000940,0.001301,0.053162,0.003220,0.002272,-0.004137,0.443852,0.503530,-0.665878,-0.325667,114.095592,-15.256245,-95.884196
49964,NaN,2.584877,8.674648,-3.855366,-0.021768,0.006165,0.025730,0.005389,0.001443,-0.006794,0.443815,0.503540,-0.665899,-0.325659,114.100409,-15.254521,-95.886902
49965,NaN,2.541795,8.674521,-3.889940,0.013333,0.047838,0.027902,0.008870,0.002377,-0.003543,0.443777,0.503555,-0.665928,-0.325628,114.107297,-15.254341,-95.889131
49966,NaN,2.607266,8.721181,-3.885618,-0.015876,-0.002084,0.084515,0.005757,0.004157,-0.009583,0.443744,0.503582,-0.665935,-0.325618,114.111694,-15.251629,-95.889320
49967,NaN,2.587995,8.710670,-3.897287,0.000191,0.013354,0.074788,0.001973,0.006869,-0.006655,0.443734,0.503599,-0.665935,-0.325606,114.113790,-15.250872,-95.888359
49968,NaN,2.597165,8.725843,-3.926874,0.020263,0.009072,0.102223,0.002716,0.006261,-0.008637,0.443715,0.503618,-0.665937,-0.325598,114.116389,-15.249263,-95.887987
49969,NaN,2.569332,8.662533,-3.927798,0.047581,0.017652,0.039519,0.003271,0.007314,-0.011023,0.443696,0.503653,-0.665927,-0.325590,114.118888,-15.246327,-95.885725
49970,NaN,2.602137,8.667168,-3.934972,0.048691,-0.012909,0.055057,0.004698,0.007092,-0.011697,0.443674,0.503691,-0.665917,-0.325582,114.121801,-15.243096,-95.883351
49971,NaN,2.595982,8.668888,-3.875572,-0.006437,-0.007704,0.031535,0.003580,0.011020,-0.010521,0.443667,0.503731,-0.665900,-0.325562,114.123980,-15.241291,-95.879202
49972,NaN,2.600763,8.647808,-3.864618,-0.009352,-0.018455,0.009909,0.006187,0.013230,-0.008981,0.443665,0.503771,-0.665889,-0.325527,114.127145,-15.241113,-95.874632
49973,NaN,2.599062,8.685704,-3.845894,-0.041429,-0.006787,0.035446,0.004016,0.006705,-0.013005,0.443639,0.503813,-0.665877,-0.325523,114.130030,-15.236998,-95.872219
49974,NaN,2.559511,8.702442,-3.850310,-0.040576,0.035349,0.041529,0.006691,0.001887,-0.011160,0.443594,0.503840,-0.665888,-0.325520,114.135115,-15.233161,-95.873679
49975,NaN,2.577506,8.713070,-3.839256,-0.057396,0.020390,0.051252,0.004521,0.002716,-0.008504,0.443560,0.503862,-0.665897,-0.325514,114.139144,-15.230465,-95.874520
49976,NaN,2.591586,8.707021,-3.858124,-0.039891,0.005036,0.057067,0.004897,-0.000605,-0.007698,0.443517,0.503875,-0.665916,-0.325514,114.143772,-15.227534,-95.877516
49977,NaN,2.580531,8.749359,-3.880614,-0.035069,0.027331,0.100314,0.002786,-0.000770,-0.008332,0.443476,0.503886,-0.665930,-0.325523,114.147314,-15.224111,-95.880287
49978,NaN,2.584860,8.728349,-3.869813,-0.038050,0.016579,0.078688,0.002291,-0.002817,-0.009237,0.443428,0.503893,-0.665949,-0.325540,114.150907,-15.219983,-95.884540
49979,NaN,2.574761,8.732893,-3.911276,-0.001522,0.027422,0.096407,0.005829,-0.002874,-0.009276,0.443371,0.503911,-0.665970,-0.325546,114.156432,-15.215574,-95.888221
49980,NaN,2.551108,8.705783,-3.952929,0.048975,0.042433,0.082780,-0.002675,-0.002540,-0.008524,0.443342,0.503906,-0.665976,-0.325580,114.156455,-15.211796,-95.891781
49981,NaN,2.594089,8.668215,-3.937977,0.044796,-0.010200,0.055079,0.006692,0.001886,-0.011161,0.443296,0.503940,-0.665984,-0.325575,114.161676,-15.207517,-95.892425
49982,NaN,2.569048,8.659284,-3.890280,0.006128,0.010211,0.021810,0.005005,0.010794,-0.011196,0.443283,0.503986,-0.665968,-0.325552,114.164744,-15.205235,-95.888157
49983,NaN,2.583145,8.653314,-3.908969,0.023599,-0.005173,0.027634,0.007850,0.016384,-0.016140,0.443275,0.504063,-0.665933,-0.325518,114.168252,-15.201754,-95.879736
49984,NaN,2.615844,8.657939,-3.916314,0.024698,-0.035709,0.043183,0.009467,0.014501,-0.016410,0.443258,0.504138,-0.665903,-0.325486,114.172397,-15.197934,-95.872382
49985,NaN,2.600165,8.664029,-3.898408,0.006486,-0.019863,0.037359,0.012324,0.014057,-0.017757,0.443228,0.504226,-0.665875,-0.325446,114.178696,-15.193063,-95.864828
49986,NaN,2.584540,8.670019,-3.880686,-0.011676,-0.003965,0.031532,0.013691,0.014829,-0.015140,0.443202,0.504305,-0.665858,-0.325395,114.185579,-15.190066,-95.857967
49987,NaN,2.578332,8.691107,-3.892537,-0.009450,0.007301,0.053155,0.011338,0.009959,-0.019566,0.443157,0.504391,-0.665833,-0.325373,114.191780,-15.183289,-95.852191
49988,NaN,2.577100,8.691081,-3.893410,-0.009805,0.007561,0.053154,0.014321,0.008852,-0.017218,0.443106,0.504470,-0.665824,-0.325339,114.199922,-15.177657,-95.847880
49989,NaN,2.554747,8.756110,-3.867910,-0.057120,0.045929,0.094459,0.007433,0.007300,-0.016738,0.443067,0.504534,-0.665806,-0.325330,114.204444,-15.171735,-95.844231
49990,NaN,2.554742,8.718388,-3.887352,-0.025741,0.034686,0.068944,0.008190,0.000661,-0.015121,0.443008,0.504581,-0.665808,-0.325333,114.210196,-15.165158,-95.844511
49991,NaN,2.544398,8.722850,-3.929058,0.010790,0.045502,0.086676,0.007445,0.001270,-0.013140,0.442955,0.504623,-0.665813,-0.325332,114.215808,-15.159700,-95.845002
49992,NaN,2.583121,8.668589,-3.944360,0.040958,-0.007531,0.055098,0.006080,0.000493,-0.015757,0.442900,0.504663,-0.665812,-0.325344,114.220197,-15.153065,-95.845774
49993,NaN,2.585780,8.685439,-3.914959,0.006282,-0.006847,0.058986,0.008862,0.007076,-0.017412,0.442856,0.504731,-0.665796,-0.325333,114.225527,-15.146739,-95.842081
49994,NaN,2.589954,8.664347,-3.904493,0.003332,-0.017634,0.037365,0.011770,0.012996,-0.015373,0.442828,0.504806,-0.665777,-0.325293,114.231719,-15.142995,-95.835868
49995,NaN,2.593129,8.680981,-3.875253,-0.031344,-0.016944,0.041249,0.012453,0.013383,-0.014065,0.442801,0.504882,-0.665761,-0.325246,114.238427,-15.139903,-95.829575
49996,NaN,2.582757,8.665900,-3.846304,-0.052121,-0.012045,0.013789,0.008611,0.009729,-0.014527,0.442770,0.504937,-0.665750,-0.325224,114.243372,-15.136159,-95.826039
49997,NaN,2.567552,8.691436,-3.898924,-0.012994,0.009797,0.053148,0.006324,0.005193,-0.011967,0.442735,0.504978,-0.665747,-0.325213,114.247861,-15.132237,-95.824690
49998,NaN,2.538440,8.665726,-3.881385,-0.017298,0.029792,0.015967,0.008625,0.003701,-0.010926,0.442690,0.505018,-0.665755,-0.325197,114.253944,-15.128566,-95.824545
49999,NaN,2.503361,8.718348,-3.926727,0.006607,0.078298,0.071108,0.003670,-0.002051,-0.006616,0.442646,0.505024,-0.665777,-0.325202,114.258275,-15.125735,-95.828419
50000,NaN,2.541472,8.701908,-3.922847,0.005030,0.036737,0.065047,0.001002,-0.003268,-0.004866,0.442609,0.505012,-0.665804,-0.325216,114.261076,-15.123798,-95.833733
50001,NaN,2.570682,8.689838,-3.959873,0.040298,0.005698,0.076732,-0.000302,-0.003707,-0.000498,0.442579,0.504986,-0.665839,-0.325225,114.263754,-15.123772,-95.839996
50002,NaN,2.570507,8.689871,-3.959913,0.040000,0.005981,0.076734,-0.000492,-0.002048,-0.000903,0.442557,0.504958,-0.665871,-0.325233,114.265656,-15.124288,-95.845723
50003,NaN,2.560842,8.674912,-3.930226,0.019217,0.010805,0.049270,-0.003349,-0.001606,0.000442,0.442544,0.504925,-0.665899,-0.325245,114.266351,-15.125247,-95.851078
50004,NaN,2.571828,8.652251,-3.978246,0.071047,-0.005087,0.051243,-0.004667,0.003981,0.001208,0.442556,0.504896,-0.665912,-0.325247,114.265071,-15.127973,-95.853366
50005,NaN,2.553360,8.641720,-3.989271,0.087169,0.010290,0.041527,-0.002379,0.008515,-0.001352,0.442571,0.504888,-0.665915,-0.325233,114.264778,-15.130379,-95.852806
50006,NaN,2.568505,8.635865,-4.007054,0.104647,-0.005118,0.047378,-0.005997,0.015592,-0.001627,0.442619,0.504883,-0.665895,-0.325216,114.261188,-15.134375,-95.848356
50007,NaN,2.600740,8.659117,-3.923762,0.016573,-0.030105,0.043219,-0.001598,0.020294,-0.003550,0.442668,0.504904,-0.665867,-0.325175,114.259538,-15.138405,-95.840886
50008,NaN,2.581326,8.686431,-3.915697,0.000990,-0.003217,0.058990,-0.001485,0.025658,-0.003456,0.442734,0.504935,-0.665826,-0.325120,114.257170,-15.143612,-95.830247
50009,NaN,2.585683,8.703373,-3.884977,-0.033687,-0.002492,0.062856,-0.001910,0.022610,-0.007650,0.442785,0.504972,-0.665782,-0.325083,114.254752,-15.146045,-95.820524
50010,NaN,2.608484,8.731054,-3.842759,-0.084818,-0.016958,0.076438,-0.002959,0.019513,-0.006168,0.442832,0.505001,-0.665742,-0.325055,114.251963,-15.148274,-95.812119
50011,NaN,2.569762,8.747883,-3.846161,-0.083900,0.025110,0.082484,-0.005672,0.011932,-0.007803,0.442856,0.505013,-0.665716,-0.325059,114.248889,-15.148113,-95.808136
50012,NaN,2.608160,8.731768,-3.841356,-0.085446,-0.016475,0.076433,-0.002433,0.008174,-0.008337,0.442863,0.505025,-0.665699,-0.325064,114.247470,-15.146922,-95.805836
50013,NaN,2.551559,8.700110,-3.875406,-0.036310,0.029187,0.047280,-0.003985,0.009053,-0.011360,0.442867,0.505048,-0.665672,-0.325077,114.245543,-15.144226,-95.802544
50014,NaN,2.589579,8.683912,-3.871058,-0.037931,-0.012370,0.041233,0.003854,0.002317,-0.009809,0.442833,0.505068,-0.665679,-0.325079,114.248913,-15.141029,-95.803653
50015,NaN,2.570340,8.673320,-3.882741,-0.021797,0.003001,0.031515,0.002167,0.005194,-0.006252,0.442818,0.505081,-0.665684,-0.325070,114.251381,-15.140093,-95.803695
50016,NaN,2.573639,8.690132,-3.852982,-0.056429,0.003784,0.035373,0.004044,0.000658,-0.009404,0.442779,0.505098,-0.665695,-0.325074,114.255125,-15.136702,-95.805790
50017,NaN,2.563734,8.694568,-3.894450,-0.019896,0.014547,0.053131,0.005474,0.000437,-0.010075,0.442732,0.505123,-0.665707,-0.325074,114.259917,-15.132649,-95.807474
50018,NaN,2.596401,8.699267,-3.901793,-0.018947,-0.015922,0.068706,0.004234,-0.001001,-0.008999,0.442687,0.505132,-0.665727,-0.325082,114.264130,-15.129340,-95.811164
50019,NaN,2.546218,8.758010,-3.928701,-0.012815,0.048232,0.117980,0.004683,-0.005317,-0.011478,0.442621,0.505151,-0.665746,-0.325102,114.269191,-15.123200,-95.815619
50020,NaN,2.589232,8.720597,-3.913691,-0.017051,-0.004428,0.090322,0.001185,0.001097,-0.008061,0.442594,0.505162,-0.665751,-0.325112,114.271282,-15.120301,-95.817149
50021,NaN,2.503174,8.700727,-3.911331,-0.003467,0.072506,0.049450,-0.001061,0.002927,-0.002119,0.442585,0.505150,-0.665767,-0.325110,114.272484,-15.120991,-95.819426
50022,NaN,2.552642,8.661637,-3.955355,0.046971,0.014769,0.045424,-0.002042,-0.001169,-0.003927,0.442563,0.505131,-0.665787,-0.325127,114.273475,-15.120063,-95.824012
50023,NaN,2.511410,8.623638,-4.008070,0.113943,0.044722,0.022146,-0.003798,0.002708,0.002919,0.442569,0.505097,-0.665811,-0.325123,114.273460,-15.123332,-95.827636
50024,NaN,2.555724,8.586171,-3.992355,0.109688,-0.007906,-0.005503,-0.003798,0.002708,0.002919,0.442576,0.505059,-0.665836,-0.325121,114.273268,-15.126801,-95.831560
50025,NaN,2.559885,8.603018,-3.961964,0.075012,-0.007151,-0.001652,-0.002571,0.010168,-0.001758,0.442596,0.505055,-0.665834,-0.325105,114.272606,-15.129385,-95.830007
50026,NaN,2.592450,8.645689,-3.949359,0.044184,-0.026092,0.039395,-0.005320,0.015972,-0.000321,0.442644,0.505046,-0.665821,-0.325081,114.269735,-15.134290,-95.826171
50027,NaN,2.596898,8.662639,-3.918530,0.009504,-0.025327,0.043242,-0.005320,0.015971,-0.000321,0.442693,0.505040,-0.665805,-0.325056,114.266769,-15.138991,-95.821828
50028,NaN,2.605798,8.715788,-3.928230,-0.002091,-0.018049,0.096188,-0.007129,0.019506,-0.000460,0.442761,0.505029,-0.665779,-0.325032,114.261648,-15.144937,-95.816113
50029,NaN,2.552944,8.738555,-3.912933,-0.018908,0.039678,0.096347,-0.006938,0.017847,-0.000055,0.442821,0.505022,-0.665757,-0.325008,114.257505,-15.150218,-95.810820
50030,NaN,2.534983,8.728078,-3.923530,-0.002668,0.055036,0.086633,-0.004638,0.016358,0.000988,0.442874,0.505012,-0.665743,-0.324979,114.254466,-15.155786,-95.806452
50031,NaN,2.550552,8.722198,-3.941136,0.014743,0.039601,0.092504,-0.003588,0.019453,-0.000492,0.442930,0.505017,-0.665721,-0.324940,114.251986,-15.161216,-95.800182
50032,NaN,2.580293,8.690864,-3.906531,-0.007328,0.002701,0.058987,-0.003217,0.022158,-0.003282,0.442989,0.505027,-0.665693,-0.324901,114.249094,-15.166333,-95.792773
50033,NaN,2.582190,8.653200,-3.924688,0.024013,-0.008674,0.033535,-0.000167,0.020059,-0.004218,0.443032,0.505053,-0.665666,-0.324857,114.248249,-15.169959,-95.785266
50034,NaN,2.639295,8.628143,-3.837705,-0.051440,-0.071256,-0.008046,-0.000845,0.019669,-0.005528,0.443076,0.505078,-0.665635,-0.324822,114.246521,-15.172924,-95.777586
50035,NaN,2.600563,8.644732,-3.841646,-0.050459,-0.029192,-0.002022,0.002844,0.011601,-0.008539,0.443077,0.505111,-0.665621,-0.324799,114.248323,-15.172303,-95.773603
50036,NaN,2.595046,8.665870,-3.852893,-0.048205,-0.017869,0.019591,0.006574,0.009894,-0.008165,0.443063,0.505144,-0.665620,-0.324769,114.252377,-15.171720,-95.771050
50037,NaN,2.590630,8.649193,-3.883163,-0.014267,-0.018201,0.015758,0.004426,0.003364,-0.012189,0.443026,0.505179,-0.665617,-0.324770,114.256019,-15.167253,-95.770635
50038,NaN,2.589499,8.649283,-3.883717,-0.014550,-0.017950,0.015758,0.008607,-0.002657,-0.014295,0.442958,0.505218,-0.665629,-0.324779,114.262255,-15.160445,-95.772987
50039,NaN,2.583120,8.670384,-3.895609,-0.012324,-0.006667,0.037371,0.008345,-0.000001,-0.011410,0.442901,0.505253,-0.665642,-0.324774,114.268668,-15.155594,-95.774582
50040,NaN,2.543249,8.686685,-3.900901,-0.011294,0.035377,0.043391,0.014257,-0.002537,-0.013685,0.442819,0.505307,-0.665663,-0.324761,114.278472,-15.148870,-95.776697
50041,NaN,2.559206,8.735044,-3.871755,-0.059917,0.032130,0.078541,0.012827,-0.002318,-0.013015,0.442740,0.505354,-0.665685,-0.324751,114.287677,-15.142634,-95.779152
50042,NaN,2.567576,8.749982,-3.902409,-0.039881,0.027738,0.106036,0.010908,-0.004147,-0.013249,0.442661,0.505394,-0.665706,-0.324752,114.295764,-15.135858,-95.782410
50043,NaN,2.567702,8.712057,-3.922290,-0.008539,0.016339,0.080595,0.010909,-0.004148,-0.013249,0.442581,0.505434,-0.665728,-0.324753,114.304113,-15.129068,-95.785796
50044,NaN,2.550031,8.755753,-3.886349,-0.058320,0.043893,0.100145,0.015879,-0.004417,-0.013950,0.442489,0.505486,-0.665755,-0.324741,114.314910,-15.121941,-95.789097
50045,NaN,2.545235,8.738815,-3.917370,-0.024380,0.043545,0.096319,0.008084,0.002652,-0.008527,0.442446,0.505516,-0.665770,-0.324724,114.320980,-15.119219,-95.789957
50046,NaN,2.522047,8.711149,-3.959751,0.026161,0.058320,0.082786,0.011707,-0.004415,-0.008245,0.442373,0.505538,-0.665807,-0.324713,114.329850,-15.115192,-95.794970
50047,NaN,2.574833,8.688584,-3.974726,0.042168,0.001031,0.082661,0.007405,0.002260,-0.009837,0.442328,0.505570,-0.665818,-0.324702,114.335502,-15.111695,-95.795721
50048,NaN,2.562086,8.618990,-3.994299,0.087447,-0.006348,0.025910,0.001946,0.000480,-0.010040,0.442290,0.505587,-0.665824,-0.324713,114.338380,-15.107668,-95.797482
50049,NaN,2.559966,8.657065,-3.975425,0.055363,0.005523,0.051343,-0.002048,0.004844,-0.007532,0.442282,0.505595,-0.665820,-0.324722,114.338399,-15.105983,-95.797399
50050,NaN,2.559395,8.657410,-3.975040,0.055055,0.005791,0.051345,-0.004645,0.002624,-0.009075,0.442273,0.505593,-0.665814,-0.324750,114.336797,-15.103258,-95.798514
50051,NaN,2.540191,8.647157,-3.985894,0.071241,0.021106,0.041638,-0.009128,0.004939,-0.007470,0.442283,0.505585,-0.665798,-0.324782,114.332750,-15.101628,-95.798394
50052,NaN,2.573495,8.652364,-3.991808,0.072098,-0.009435,0.057243,-0.008713,0.007988,-0.003277,0.442310,0.505567,-0.665786,-0.324796,114.328611,-15.102999,-95.797750
50053,NaN,2.553344,8.679929,-3.983571,0.056571,0.017536,0.072962,-0.008343,0.010690,-0.006068,0.442339,0.505565,-0.665763,-0.324807,114.324293,-15.103459,-95.794863
50054,NaN,2.548919,8.644308,-3.941771,0.033305,0.011351,0.023845,-0.011204,0.011128,-0.004728,0.442381,0.505552,-0.665736,-0.324826,114.318091,-15.104836,-95.792142
50055,NaN,2.577199,8.670666,-3.958528,0.036721,-0.008141,0.061062,-0.009964,0.012565,-0.005804,0.442421,0.505548,-0.665706,-0.324837,114.312596,-15.105875,-95.788307
50056,NaN,2.547460,8.683256,-3.920485,0.000905,0.023491,0.049267,-0.011394,0.012783,-0.005134,0.442469,0.505538,-0.665675,-0.324853,114.305997,-15.107465,-95.784641
50057,NaN,2.566141,8.694502,-3.907758,-0.016027,0.008638,0.058973,-0.007854,0.012736,-0.005163,0.442505,0.505537,-0.665650,-0.324856,114.301728,-15.108878,-95.780869
50058,NaN,2.566147,8.694983,-3.906683,-0.016348,0.008866,0.058973,-0.010820,0.007812,-0.003918,0.442537,0.505518,-0.665633,-0.324879,114.296239,-15.109798,-95.779925
50059,NaN,2.569794,8.712220,-3.875679,-0.051029,0.009712,0.062777,-0.008149,0.009031,-0.005662,0.442561,0.505512,-0.665614,-0.324893,114.292290,-15.110077,-95.778035
50060,NaN,2.565837,8.695960,-3.904713,-0.016997,0.009322,0.058971,-0.007587,0.010077,-0.008047,0.442587,0.505517,-0.665585,-0.324910,114.287817,-15.109382,-95.774703
50061,NaN,2.584040,8.707136,-3.892437,-0.033935,-0.005525,0.068677,-0.004153,0.004671,-0.008171,0.442582,0.505522,-0.665576,-0.324927,114.286613,-15.107323,-95.774559
50062,NaN,2.588643,8.686422,-3.880898,-0.036949,-0.016371,0.047066,-0.003208,0.002405,-0.009745,0.442563,0.505532,-0.665569,-0.324950,114.286444,-15.103781,-95.775210
50063,NaN,2.549319,8.703052,-3.884951,-0.035893,0.025695,0.053063,-0.000126,0.006672,-0.007294,0.442557,0.505546,-0.665565,-0.324947,114.287321,-15.102651,-95.774197
50064,NaN,2.582209,8.707981,-3.891761,-0.035072,-0.004824,0.068673,0.004052,0.006673,-0.012997,0.442531,0.505586,-0.665553,-0.324943,114.290101,-15.098688,-95.772022
50065,NaN,2.601566,8.681056,-3.899194,-0.020301,-0.031355,0.052970,0.004538,0.008719,-0.012092,0.442512,0.505629,-0.665539,-0.324930,114.293058,-15.095536,-95.768731
50066,NaN,2.587426,8.649320,-3.899946,-0.006638,-0.027108,0.021656,0.008450,0.011376,-0.014910,0.442489,0.505694,-0.665518,-0.324905,114.297375,-15.091619,-95.763283
50067,NaN,2.585008,8.686992,-3.882044,-0.038725,-0.015182,0.047061,0.019261,0.009583,-0.014589,0.442431,0.505780,-0.665520,-0.324846,114.308486,-15.087367,-95.758913
50068,NaN,2.578797,8.707868,-3.894275,-0.036419,-0.003865,0.068669,0.011505,0.009280,-0.015843,0.442392,0.505849,-0.665506,-0.324819,114.314641,-15.082571,-95.754471
50069,NaN,2.514424,8.714907,-3.851824,-0.073407,0.058549,0.041229,0.018777,0.007534,-0.015493,0.442327,0.505933,-0.665509,-0.324769,114.325706,-15.077365,-95.750988
50070,NaN,2.506223,8.681044,-3.913033,-0.005033,0.057512,0.033641,0.014789,0.005877,-0.009386,0.442281,0.505984,-0.665523,-0.324726,114.334423,-15.075099,-95.749746
50071,NaN,2.587344,8.684312,-3.946142,0.014627,-0.019510,0.070787,0.012284,-0.003359,-0.010619,0.442204,0.506020,-0.665552,-0.324714,114.343609,-15.069866,-95.753343
50072,NaN,2.552923,8.679345,-3.940364,0.013190,0.011504,0.055170,0.009907,-0.000876,-0.008377,0.442148,0.506045,-0.665577,-0.324701,114.350758,-15.066526,-95.756131
50073,NaN,2.553730,8.641384,-3.959920,0.044537,0.000018,0.029774,0.006558,-0.002487,-0.007943,0.442093,0.506061,-0.665602,-0.324701,114.356710,-15.062896,-95.759909
50074,NaN,2.581292,8.667236,-3.978303,0.047952,-0.019419,0.067003,0.001216,-0.004925,-0.004456,0.442051,0.506045,-0.665634,-0.324718,114.359905,-15.060795,-95.766284
50075,NaN,2.510005,8.641035,-3.994732,0.079618,0.041693,0.031977,-0.002324,-0.004881,-0.004428,0.442016,0.506026,-0.665658,-0.324745,114.361326,-15.058433,-95.772216
50076,NaN,2.546930,8.662774,-3.971359,0.046136,0.011816,0.051385,-0.003732,0.001700,-0.000378,0.442015,0.505998,-0.665675,-0.324753,114.360914,-15.059860,-95.775609
50077,NaN,2.537964,8.667336,-4.011889,0.082675,0.022448,0.069210,-0.008141,0.003007,-0.002066,0.442025,0.505971,-0.665679,-0.324774,114.358045,-15.060595,-95.777855
50078,NaN,2.543284,8.646640,-3.999899,0.079784,0.011638,0.047605,-0.006991,0.011459,-0.003455,0.442060,0.505961,-0.665663,-0.324776,114.354144,-15.062836,-95.775410
50079,NaN,2.580924,8.668529,-3.975724,0.046229,-0.018244,0.067013,-0.008207,0.016383,0.001002,0.442120,0.505945,-0.665644,-0.324757,114.349553,-15.068333,-95.771176
50080,NaN,2.575678,8.670583,-3.914964,-0.008724,-0.012695,0.043267,-0.010698,0.019519,-0.000451,0.442196,0.505933,-0.665611,-0.324742,114.342738,-15.073878,-95.764872
50081,NaN,2.595105,8.681787,-3.901872,-0.025689,-0.027516,0.052969,-0.011644,0.021783,0.001122,0.442282,0.505918,-0.665575,-0.324721,114.335425,-15.080712,-95.757746
50082,NaN,2.575723,8.709326,-3.893049,-0.041188,-0.000417,0.068651,-0.013853,0.016249,0.000387,0.442353,0.505884,-0.665552,-0.324723,114.327667,-15.086320,-95.754451
50083,NaN,2.554075,8.682353,-3.932984,0.009353,0.014188,0.055171,-0.016435,0.008015,0.002440,0.442408,0.505832,-0.665543,-0.324750,114.319629,-15.090591,-95.755091
50084,NaN,2.552827,8.720867,-3.912407,-0.022692,0.026224,0.080552,-0.020753,0.002308,0.001062,0.442454,0.505759,-0.665538,-0.324810,114.309620,-15.093190,-95.759158
50085,NaN,2.553237,8.721582,-3.910547,-0.023061,0.026455,0.080550,-0.020155,0.003699,0.005662,0.442509,0.505680,-0.665541,-0.324852,114.300262,-15.098127,-95.762917
50086,NaN,2.553876,8.722225,-3.908694,-0.023379,0.026726,0.080549,-0.020154,0.003698,0.005662,0.442566,0.505598,-0.665544,-0.324896,114.290625,-15.103320,-95.767039
50087,NaN,2.578310,8.712581,-3.884044,-0.042947,0.000847,0.068643,-0.022070,0.001867,0.005424,0.442619,0.505513,-0.665546,-0.324950,114.280413,-15.107702,-95.771730
50088,NaN,2.569978,8.717614,-3.923269,-0.006369,0.011539,0.086476,-0.019962,0.002040,0.006067,0.442670,0.505423,-0.665558,-0.324997,114.271233,-15.112924,-95.777314
50089,NaN,2.548439,8.690759,-3.963046,0.044181,0.026119,0.073006,-0.019667,0.005741,0.006568,0.442732,0.505346,-0.665558,-0.325031,114.261925,-15.118817,-95.780187
50090,NaN,2.536021,8.659395,-3.961911,0.057871,0.030339,0.041702,-0.012676,0.012668,0.006210,0.442801,0.505294,-0.665555,-0.325026,114.255367,-15.126337,-95.779457
50091,NaN,2.522343,8.665558,-3.942298,0.039800,0.046294,0.035770,-0.006440,0.020202,0.007832,0.442880,0.505266,-0.665548,-0.324977,114.251675,-15.136295,-95.774811
50092,NaN,2.566113,8.666007,-3.906934,0.003540,0.005403,0.033566,-0.004443,0.021031,0.004780,0.442948,0.505252,-0.665539,-0.324924,114.249283,-15.144932,-95.769463
50093,NaN,2.577841,8.623873,-3.883751,-0.002019,-0.016511,-0.009642,-0.004633,0.022685,0.004376,0.443025,0.505243,-0.665521,-0.324870,114.246053,-15.153668,-95.762629
50094,NaN,2.636450,8.618365,-3.866726,-0.020445,-0.073137,-0.005910,-0.006734,0.016497,0.007329,0.443094,0.505208,-0.665520,-0.324833,114.242286,-15.162606,-95.759877
50095,NaN,2.589888,8.639096,-3.911480,0.017604,-0.020702,0.017900,-0.002543,0.010489,0.005227,0.443127,0.505181,-0.665534,-0.324801,114.242033,-15.168917,-95.759851
50096,NaN,2.618084,8.645541,-3.857991,-0.036259,-0.045804,0.009757,-0.009726,0.005219,0.005176,0.443160,0.505123,-0.665552,-0.324807,114.238240,-15.174360,-95.763389
50097,NaN,2.574666,8.683229,-3.872528,-0.032518,0.007336,0.037324,-0.010211,0.003173,0.004269,0.443186,0.505070,-0.665568,-0.324821,114.234569,-15.178450,-95.767090
50098,NaN,2.596148,8.676105,-3.949199,0.039435,-0.013503,0.067050,-0.016528,-0.003362,0.005933,0.443210,0.504983,-0.665595,-0.324870,114.228199,-15.182123,-95.775204
50099,NaN,2.561293,8.709694,-3.922153,0.006272,0.029275,0.076771,-0.019120,-0.005582,0.004382,0.443229,0.504897,-0.665616,-0.324935,114.220673,-15.184215,-95.783671
50100,NaN,2.554185,8.676966,-3.980657,0.074535,0.028205,0.069260,-0.018068,-0.002489,0.002907,0.443253,0.504809,-0.665637,-0.324994,114.213279,-15.187038,-95.791731
50101,NaN,2.567787,8.709431,-3.978570,0.060137,0.024485,0.100562,-0.016721,0.004305,0.001936,0.443295,0.504752,-0.665634,-0.325032,114.205570,-15.190177,-95.794249
50102,NaN,2.606090,8.674219,-3.901757,0.001097,-0.022763,0.049208,-0.020157,0.015718,-0.001532,0.443380,0.504712,-0.665593,-0.325062,114.193736,-15.194489,-95.790201
50103,NaN,2.616261,8.690125,-3.929274,0.021009,-0.027200,0.076757,-0.014135,0.018552,-0.003697,0.443455,0.504702,-0.665548,-0.325068,114.185125,-15.198030,-95.783631
50104,NaN,2.600898,8.677072,-3.838638,-0.054183,-0.016856,0.025410,-0.013649,0.020596,-0.002789,0.443537,0.504688,-0.665504,-0.325067,114.176233,-15.202851,-95.776663
50105,NaN,2.616327,8.671683,-3.855434,-0.036869,-0.032367,0.031357,-0.010595,0.018507,-0.003721,0.443603,0.504686,-0.665465,-0.325061,114.169655,-15.206368,-95.770111
50106,NaN,2.578013,8.688484,-3.858490,-0.035594,0.009788,0.037312,-0.009730,0.017241,-0.002006,0.443667,0.504669,-0.665438,-0.325055,114.163290,-15.211034,-95.765442
50107,NaN,2.559867,8.678086,-3.869162,-0.019331,0.025034,0.027613,-0.003328,0.016766,-0.003362,0.443708,0.504680,-0.665416,-0.325029,114.161143,-15.214329,-95.759920
50108,NaN,2.590566,8.758648,-3.837138,-0.082040,0.018237,0.093953,-0.007916,0.007698,0.001723,0.443741,0.504638,-0.665424,-0.325031,114.157745,-15.218760,-95.761635
50109,NaN,2.557170,8.754081,-3.829879,-0.083455,0.049234,0.078300,-0.002971,0.001092,-0.002360,0.443731,0.504620,-0.665440,-0.325041,114.158096,-15.218903,-95.764849
50110,NaN,2.553560,8.737624,-3.859482,-0.049478,0.048776,0.074553,-0.006401,0.000473,0.001356,0.443734,0.504577,-0.665463,-0.325057,114.156658,-15.221129,-95.769823
50111,NaN,2.548548,8.758860,-3.870165,-0.047250,0.060089,0.096150,-0.003241,-0.002274,0.004119,0.443724,0.504531,-0.665502,-0.325061,114.157746,-15.223870,-95.776433
50112,NaN,2.559950,8.736364,-3.918346,0.004417,0.043833,0.098362,-0.003644,-0.005313,-0.000082,0.443699,0.504492,-0.665536,-0.325085,114.158509,-15.223777,-95.783703
50113,NaN,2.579948,8.709407,-3.925532,0.019126,0.017232,0.082718,-0.000485,-0.002045,-0.000909,0.443675,0.504470,-0.665566,-0.325092,114.160823,-15.223943,-95.788968
50114,NaN,2.586781,8.650451,-3.933560,0.047869,-0.005436,0.035780,0.004023,0.002003,0.000887,0.443655,0.504457,-0.665600,-0.325068,114.165329,-15.226065,-95.792698
50115,NaN,2.590611,8.666895,-3.903822,0.013183,-0.004453,0.039519,0.005561,0.007142,0.000324,0.443648,0.504459,-0.665623,-0.325029,114.169879,-15.229030,-95.793286
50116,NaN,2.567234,8.677198,-3.926543,0.032149,0.021901,0.051424,-0.001219,0.010925,0.000874,0.443675,0.504445,-0.665628,-0.325003,114.169496,-15.233479,-95.792290
50117,NaN,2.592927,8.628927,-3.922756,0.044258,-0.015789,0.014186,0.007560,0.007976,-0.002725,0.443661,0.504463,-0.665645,-0.324961,114.174878,-15.235046,-95.791685
50118,NaN,2.591459,8.666585,-3.903947,0.012234,-0.003637,0.039521,0.002022,0.013197,-0.003245,0.443679,0.504470,-0.665643,-0.324928,114.175962,-15.238080,-95.788979
50119,NaN,2.585576,8.668027,-3.844341,-0.042715,0.002038,0.015692,0.002697,0.013586,-0.001933,0.443697,0.504483,-0.665641,-0.324887,114.177810,-15.241378,-95.785528
50120,NaN,2.586848,8.687654,-3.914744,0.014076,0.007919,0.061120,0.000970,0.010103,-0.001772,0.443707,0.504486,-0.665646,-0.324859,114.179261,-15.244012,-95.784247
50121,NaN,2.607173,8.660615,-3.921885,0.028773,-0.018695,0.045487,0.000864,0.004749,-0.001875,0.443700,0.504481,-0.665661,-0.324846,114.181320,-15.245266,-95.785597
50122,NaN,2.586958,8.687790,-3.914370,0.013407,0.008435,0.061121,-0.004591,0.002962,-0.002097,0.443703,0.504455,-0.665673,-0.324858,114.180099,-15.246343,-95.788396
50123,NaN,2.581680,8.709141,-3.924982,0.015632,0.019749,0.082719,-0.004591,0.002961,-0.002097,0.443704,0.504436,-0.665682,-0.324868,114.179272,-15.247062,-95.790661
50124,NaN,2.581475,8.709361,-3.924629,0.015304,0.019999,0.082719,-0.004319,-0.005702,-0.001395,0.443678,0.504398,-0.665713,-0.324898,114.179639,-15.246249,-95.797972
50125,NaN,2.577629,8.692963,-3.954288,0.049250,0.019450,0.078995,-0.005266,0.002572,-0.003409,0.443677,0.504381,-0.665719,-0.324914,114.178398,-15.246191,-95.800129
50126,NaN,2.604854,8.699483,-3.900948,-0.004656,-0.005586,0.070815,-0.003728,0.007710,-0.003972,0.443689,0.504375,-0.665715,-0.324914,114.177074,-15.247193,-95.799589
50127,NaN,2.571235,8.694920,-3.893845,-0.006024,0.025399,0.055151,-0.002296,0.007494,-0.004639,0.443695,0.504376,-0.665712,-0.324911,114.176755,-15.247647,-95.798780
50128,NaN,2.604711,8.699883,-3.900152,-0.005437,-0.005108,0.070815,-0.000379,0.009323,-0.004395,0.443701,0.504383,-0.665710,-0.324895,114.177520,-15.248710,-95.797339
50129,NaN,2.589634,8.705966,-3.881521,-0.023462,0.010895,0.064842,-0.000000,0.012027,-0.007180,0.443712,0.504406,-0.665694,-0.324878,114.177707,-15.248900,-95.793456
50130,NaN,2.622985,8.710932,-3.887906,-0.022818,-0.019585,0.080507,0.001432,0.011811,-0.007846,0.443718,0.504429,-0.665681,-0.324859,114.178562,-15.248929,-95.789977
50131,NaN,2.594435,8.685164,-3.870001,-0.026771,0.000314,0.043243,0.000379,0.008717,-0.006374,0.443719,0.504445,-0.665675,-0.324847,114.179490,-15.248763,-95.788084
50132,NaN,2.588926,8.706453,-3.880900,-0.024452,0.011660,0.064838,-0.000105,0.006672,-0.007284,0.443715,0.504455,-0.665670,-0.324847,114.179830,-15.247849,-95.787211
50133,NaN,2.593722,8.685502,-3.869720,-0.027418,0.000807,0.043241,0.000464,0.001709,-0.006075,0.443693,0.504458,-0.665681,-0.324852,114.181824,-15.246195,-95.789187
50134,NaN,2.602930,8.700840,-3.899206,-0.007577,-0.003640,0.070814,0.001411,-0.000550,-0.007651,0.443656,0.504464,-0.665695,-0.324862,114.184773,-15.243223,-95.792240
50135,NaN,2.550353,8.685423,-3.904344,0.007749,0.042316,0.045453,-0.000105,0.000660,-0.003694,0.443635,0.504456,-0.665713,-0.324866,114.186743,-15.242568,-95.795363
50136,NaN,2.583422,8.690365,-3.910988,0.008360,0.011799,0.061123,0.000169,-0.001990,-0.006582,0.443601,0.504453,-0.665730,-0.324883,114.189020,-15.239798,-95.799283
50137,NaN,2.582806,8.690547,-3.910990,0.007990,0.012030,0.061123,-0.001263,-0.001775,-0.005916,0.443571,0.504447,-0.665746,-0.324902,114.190531,-15.237409,-95.803184
50138,NaN,2.602522,8.663696,-3.918166,0.022752,-0.014559,0.045510,-0.000779,0.000269,-0.005006,0.443551,0.504435,-0.665761,-0.324915,114.191600,-15.236309,-95.806621
50139,NaN,2.581925,8.690916,-3.910751,0.007336,0.012541,0.061123,-0.002401,0.002139,-0.004743,0.443539,0.504428,-0.665769,-0.324926,114.191976,-15.235452,-95.808688
50140,NaN,2.605488,8.680758,-3.887592,-0.012201,-0.013269,0.049218,-0.003539,0.006052,-0.003570,0.443549,0.504418,-0.665768,-0.324930,114.190589,-15.236266,-95.808900
50141,NaN,2.601956,8.664389,-3.917009,0.021745,-0.013856,0.045513,-0.006592,0.008136,-0.002641,0.443571,0.504405,-0.665761,-0.324935,114.187844,-15.237916,-95.808229
50142,NaN,2.586947,8.670571,-3.898085,0.003829,0.002166,0.039528,-0.003348,0.004398,-0.003167,0.443575,0.504392,-0.665765,-0.324941,114.186912,-15.238512,-95.809388
50143,NaN,2.559675,8.664528,-3.950428,0.057055,0.027626,0.047731,-0.003434,0.011404,-0.003466,0.443599,0.504393,-0.665754,-0.324929,114.185458,-15.240498,-95.806747
50144,NaN,2.565063,8.643645,-3.938725,0.054138,0.016794,0.026138,-0.003623,0.013058,-0.003868,0.443629,0.504395,-0.665740,-0.324916,114.183368,-15.242869,-95.803437
50145,NaN,2.583599,8.654652,-3.926404,0.037085,0.002062,0.035828,-0.003348,0.010409,-0.006757,0.443644,0.504406,-0.665723,-0.324913,114.181894,-15.242901,-95.800534
50146,NaN,2.583390,8.654939,-3.925910,0.036830,0.002332,0.035829,-0.001915,0.010194,-0.007423,0.443657,0.504416,-0.665707,-0.324910,114.180565,-15.242840,-95.797858
50147,NaN,2.585053,8.709594,-3.876431,-0.029579,0.015319,0.064819,-0.002674,0.010798,-0.005444,0.443674,0.504425,-0.665694,-0.324901,114.179505,-15.243649,-95.795062
50148,NaN,2.569838,8.715659,-3.857881,-0.047565,0.031405,0.058826,0.002192,0.005192,-0.006233,0.443658,0.504432,-0.665703,-0.324893,114.181940,-15.243090,-95.795857
50149,NaN,2.568990,8.773265,-3.909225,-0.022518,0.049124,0.129596,-0.003727,0.007704,-0.003973,0.443669,0.504429,-0.665698,-0.324892,114.180811,-15.243942,-95.795096
50150,NaN,2.579377,8.731204,-3.886709,-0.027984,0.027268,0.086408,-0.001052,0.002918,-0.002118,0.443663,0.504407,-0.665718,-0.324894,114.181505,-15.245235,-95.798340
50151,NaN,2.592558,8.763262,-3.885689,-0.042451,0.023645,0.117687,-0.005453,0.004220,-0.003815,0.443668,0.504394,-0.665718,-0.324907,114.179894,-15.245353,-95.799505
50152,NaN,2.595812,8.688121,-3.922916,0.020693,0.000078,0.067116,-0.007748,0.005698,-0.004865,0.443683,0.504373,-0.665713,-0.324929,114.176315,-15.245751,-95.800393
50153,NaN,2.577104,8.677752,-3.933951,0.037019,0.015256,0.057430,-0.004400,0.007313,-0.005286,0.443692,0.504372,-0.665705,-0.324935,114.174773,-15.245826,-95.799525
50154,NaN,2.620877,8.640709,-3.917748,0.032408,-0.037383,0.029932,-0.005262,0.008576,-0.007001,0.443706,0.504370,-0.665693,-0.324945,114.172319,-15.245691,-95.798337
50155,NaN,2.602105,8.630437,-3.928622,0.048735,-0.022209,0.020247,-0.008989,0.010268,-0.007386,0.443734,0.504370,-0.665665,-0.324963,114.167592,-15.245361,-95.795357
50156,NaN,2.592351,8.615650,-3.898226,0.028196,-0.017297,-0.007343,-0.005625,0.018228,-0.004409,0.443786,0.504382,-0.665631,-0.324944,114.163557,-15.248357,-95.788525
50157,NaN,2.581902,8.658297,-3.919479,0.033019,0.005122,0.035842,-0.007365,0.008399,-0.007649,0.443802,0.504384,-0.665610,-0.324961,114.160009,-15.247452,-95.786494
50158,NaN,2.569965,8.681201,-3.870501,-0.019295,0.022032,0.033524,-0.002205,0.006494,-0.007929,0.443799,0.504393,-0.665602,-0.324967,114.159745,-15.246046,-95.785692
50159,NaN,2.606602,8.703004,-3.846550,-0.053072,-0.007614,0.052895,-0.004881,0.005267,-0.006197,0.443802,0.504391,-0.665596,-0.324981,114.158160,-15.245165,-95.785711
50160,NaN,2.553681,8.745226,-3.902638,-0.012164,0.055885,0.098295,-0.006884,0.004431,-0.003151,0.443813,0.504362,-0.665601,-0.325000,114.155341,-15.246292,-95.788016
50161,NaN,2.558632,8.724488,-3.890887,-0.015129,0.045022,0.076702,-0.007659,-0.001310,-0.004571,0.443803,0.504337,-0.665608,-0.325037,114.153205,-15.244720,-95.791994
50162,NaN,2.573301,8.718935,-3.908708,0.002101,0.029438,0.082707,-0.004692,-0.002397,-0.002207,0.443786,0.504310,-0.665629,-0.325060,114.153139,-15.244052,-95.797050
50163,NaN,2.545901,8.712923,-3.961205,0.055357,0.054828,0.090934,-0.005452,-0.001793,-0.000229,0.443776,0.504275,-0.665652,-0.325081,114.152614,-15.244636,-95.802344
50164,NaN,2.551007,8.692073,-3.949615,0.052423,0.044002,0.069344,-0.007557,-0.001970,-0.000877,0.443771,0.504232,-0.665673,-0.325111,114.150718,-15.245105,-95.808072
