// General information: 
//  MT Manager version: 2019.0.1 
//  XDA version: 2019.0.1 build 2740 rev 84096 built on 2019-01-30
// Device information: 
//  DeviceId: 00B4381A
//  ProductCode: MTW2-3A7G6
//  Firmware Version: 4.3.4
//  Hardware Version: 1.1.0
// Device settings: 
//  Filter Profile: human(46.1)
//  Option Flags: Orientation Smoother Disabled, AHS Disabled, ICC Disabled
// Coordinate system: ENU
PacketCounter,SampleTimeFine,Acc_X,Acc_Y,Acc_Z,FreeAcc_E,FreeAcc_N,FreeAcc_U,Gyr_X,Gyr_Y,Gyr_Z,Quat_q0,Quat_q1,Quat_q2,Quat_q3,Roll,Pitch,Yaw
20734,NaN,-3.524173,4.591523,7.911783,-0.042251,-0.213111,-0.012127,-0.050812,-0.060911,0.033435,-0.333141,0.089489,-0.286320,-0.893884,28.877039,20.533523,144.460495
20735,NaN,-3.501294,4.567460,7.894793,-0.041957,-0.202212,-0.045096,-0.047073,-0.051556,0.035259,-0.333105,0.089276,-0.286078,-0.893997,28.854830,20.500312,144.456167
20736,NaN,-3.530232,4.558106,7.962707,-0.009136,-0.178817,0.016428,-0.037128,-0.043908,0.033451,-0.333090,0.089076,-0.285905,-0.894078,28.840097,20.471767,144.450918
20737,NaN,-3.588875,4.584234,7.999854,0.022459,-0.210196,0.079137,-0.026348,-0.043773,0.026497,-0.333091,0.088875,-0.285765,-0.894142,28.828936,20.444881,144.444213
20738,NaN,-3.597093,4.546936,7.972848,0.055135,-0.210810,0.042896,-0.014705,-0.047981,0.024831,-0.333122,0.088636,-0.285680,-0.894181,28.824871,20.416710,144.434076
20739,NaN,-3.565994,4.527696,7.986990,0.047692,-0.177366,0.034882,-0.012031,-0.046665,0.020368,-0.333162,0.088407,-0.285596,-0.894216,28.820482,20.390064,144.423244
20740,NaN,-3.549208,4.514158,8.040347,0.048557,-0.132082,0.066679,-0.005882,-0.040076,0.016271,-0.333226,0.088200,-0.285561,-0.894224,28.820848,20.368298,144.410625
20741,NaN,-3.519245,4.495326,8.053679,0.041139,-0.098632,0.058653,-0.001756,-0.036058,0.010304,-0.333299,0.088016,-0.285537,-0.894222,28.821567,20.349757,144.397534
20742,NaN,-3.479686,4.436898,8.030596,0.050481,-0.055556,-0.000495,0.002140,-0.032677,0.002969,-0.333417,0.087847,-0.285544,-0.894193,28.824816,20.335357,144.379860
20743,NaN,-3.431106,4.380943,8.040315,0.052045,0.009876,-0.034702,0.004931,-0.029317,-0.000767,-0.333533,0.087698,-0.285556,-0.894160,28.828005,20.323259,144.362829
20744,NaN,-3.475078,4.387436,8.054350,0.084043,-0.011138,-0.004980,0.001666,-0.037402,0.000145,-0.333665,0.087514,-0.285551,-0.894130,28.829888,20.307308,144.342861
20745,NaN,-3.425651,4.423463,8.111819,0.027672,0.024646,0.041365,0.003169,-0.046451,-0.000993,-0.333806,0.087292,-0.285526,-0.894108,28.830284,20.286672,144.320665
20746,NaN,-3.447884,4.442825,8.101584,0.035095,-0.007208,0.049411,0.004158,-0.052205,0.004933,-0.333944,0.087029,-0.285511,-0.894087,28.833057,20.261914,144.298233
20747,NaN,-3.443007,4.535438,8.150704,-0.022887,-0.036113,0.129981,0.002796,-0.059764,0.006986,-0.334068,0.086736,-0.285465,-0.894083,28.833380,20.232393,144.276391
20748,NaN,-3.454159,4.607176,8.152152,-0.056766,-0.088159,0.167486,-0.002046,-0.053948,0.008492,-0.334192,0.086470,-0.285421,-0.894077,28.833135,20.205762,144.255078
20749,NaN,-3.495308,4.621341,8.076230,-0.034028,-0.165397,0.125670,-0.004358,-0.048856,0.004801,-0.334307,0.086241,-0.285361,-0.894075,28.830087,20.182318,144.235286
20750,NaN,-3.503590,4.684706,8.004822,-0.068525,-0.251671,0.098456,-0.002881,-0.042707,0.003385,-0.334432,0.086037,-0.285328,-0.894059,28.829500,20.162811,144.215352
20751,NaN,-3.523387,4.687672,8.013045,-0.052605,-0.261914,0.113341,-0.003215,-0.041940,0.001380,-0.334553,0.085842,-0.285283,-0.894047,28.827194,20.143784,144.195773
20752,NaN,-3.589336,4.746653,8.012801,-0.038319,-0.336669,0.162493,-0.007234,-0.043637,-0.002259,-0.334704,0.085647,-0.285227,-0.894027,28.822988,20.125316,144.172277
20753,NaN,-3.601693,4.725388,7.967141,-0.014353,-0.359377,0.119455,-0.005529,-0.058952,-0.002214,-0.334864,0.085385,-0.285142,-0.894019,28.816991,20.098739,144.145781
20754,NaN,-3.534081,4.696769,7.935051,-0.045887,-0.326362,0.056749,-0.012352,-0.060280,-0.012363,-0.335089,0.085136,-0.285033,-0.893993,28.806472,20.074648,144.111071
20755,NaN,-3.479679,4.723319,7.920937,-0.102828,-0.324678,0.038361,-0.010803,-0.062436,-0.013324,-0.335301,0.084883,-0.284913,-0.893976,28.795093,20.049380,144.077631
20756,NaN,-3.446073,4.687320,7.953298,-0.101460,-0.269174,0.037114,-0.005661,-0.057272,-0.013201,-0.335529,0.084637,-0.284838,-0.893937,28.788602,20.027017,144.043309
20757,NaN,-3.372357,4.719087,8.004765,-0.173736,-0.222210,0.068571,-0.008407,-0.057188,-0.009364,-0.335717,0.084398,-0.284740,-0.893921,28.779879,20.003282,144.013543
20758,NaN,-3.315746,4.680158,8.030083,-0.188282,-0.155690,0.052433,-0.008013,-0.047609,-0.007086,-0.335900,0.084192,-0.284674,-0.893893,28.774240,19.984207,143.985740
20759,NaN,-3.275910,4.712806,8.054653,-0.236909,-0.142289,0.073828,-0.009785,-0.034622,0.002491,-0.336002,0.084039,-0.284612,-0.893888,28.769179,19.968530,143.968944
20760,NaN,-3.362909,4.708485,8.101445,-0.164401,-0.163410,0.140134,-0.015737,-0.032277,0.007527,-0.336098,0.083892,-0.284544,-0.893887,28.763375,19.953075,143.952984
20761,NaN,-3.369760,4.704934,8.070363,-0.156766,-0.185309,0.115229,-0.021688,-0.029931,0.012563,-0.336144,0.083766,-0.284441,-0.893915,28.753810,19.936975,143.942952
20762,NaN,-3.379842,4.667114,8.043008,-0.124066,-0.186059,0.078989,-0.025067,-0.032047,0.022647,-0.336164,0.083616,-0.284337,-0.893955,28.745294,19.917432,143.935696
20763,NaN,-3.389973,4.629306,8.015639,-0.091431,-0.187049,0.042743,-0.026573,-0.022995,0.023797,-0.336147,0.083513,-0.284228,-0.894005,28.735675,19.901717,143.933707
20764,NaN,-3.384019,4.611978,8.035889,-0.082684,-0.164324,0.049543,-0.028452,-0.020074,0.022758,-0.336155,0.083419,-0.284129,-0.894042,28.726484,19.888028,143.929126
20765,NaN,-3.378053,4.594702,8.056095,-0.074013,-0.141816,0.056335,-0.026095,-0.021725,0.026530,-0.336125,0.083317,-0.284026,-0.894096,28.717765,19.872199,143.928975
20766,NaN,-3.467652,4.605850,8.085299,-0.010232,-0.184831,0.115870,-0.033276,-0.028352,0.034258,-0.336082,0.083182,-0.283896,-0.894166,28.706993,19.851325,143.929239
20767,NaN,-3.495646,4.655076,8.040357,-0.020413,-0.260453,0.110435,-0.039540,-0.047352,0.037366,-0.336034,0.082972,-0.283694,-0.894268,28.689995,19.819635,143.927389
20768,NaN,-3.512642,4.656083,8.051078,-0.004464,-0.270497,0.125342,-0.047445,-0.062794,0.040803,-0.336003,0.082699,-0.283445,-0.894384,28.668916,19.779732,143.921455
20769,NaN,-3.531900,4.672546,8.044291,0.002726,-0.302554,0.133471,-0.051602,-0.069983,0.036348,-0.335986,0.082410,-0.283150,-0.894510,28.642601,19.736942,143.912480
20770,NaN,-3.530716,4.651682,8.034558,0.019074,-0.302500,0.115371,-0.050111,-0.081394,0.044797,-0.335965,0.082050,-0.282860,-0.894642,28.618943,19.686539,143.902838
20771,NaN,-3.518862,4.633241,8.057983,0.027751,-0.280007,0.122161,-0.049026,-0.084827,0.041092,-0.335950,0.081684,-0.282554,-0.894778,28.593531,19.634974,143.892117
20772,NaN,-3.473791,4.621934,8.016688,0.003536,-0.279772,0.067520,-0.054571,-0.084366,0.038440,-0.335954,0.081330,-0.282235,-0.894910,28.565749,19.584791,143.878921
20773,NaN,-3.445847,4.581652,8.018525,0.012633,-0.247186,0.041290,-0.051445,-0.081778,0.036693,-0.335953,0.080987,-0.281921,-0.895040,28.538499,19.535955,143.866795
20774,NaN,-3.431022,4.597045,8.038311,-0.003644,-0.245336,0.059443,-0.047126,-0.077115,0.032072,-0.335988,0.080658,-0.281647,-0.895143,28.514808,19.491110,143.851093
20775,NaN,-3.361006,4.566904,8.007302,-0.035089,-0.212524,-0.003332,-0.039364,-0.070628,0.027704,-0.336016,0.080358,-0.281402,-0.895236,28.493992,19.450336,143.837450
20776,NaN,-3.335247,4.527506,8.007507,-0.025910,-0.179718,-0.029571,-0.029700,-0.061252,0.014851,-0.336104,0.080098,-0.281224,-0.895283,28.478691,19.418317,143.818383
20777,NaN,-3.294444,4.467365,7.985086,-0.016357,-0.137065,-0.088838,-0.019425,-0.047477,0.015178,-0.336164,0.079886,-0.281103,-0.895317,28.469329,19.392618,143.804784
20778,NaN,-3.296749,4.440138,8.063245,0.009520,-0.080904,-0.035538,-0.003158,-0.044359,0.010859,-0.336263,0.079660,-0.281071,-0.895310,28.470191,19.370057,143.787693
20779,NaN,-3.291821,4.481817,8.134325,-0.014792,-0.066635,0.040502,-0.003153,-0.044361,0.010858,-0.336343,0.079440,-0.281026,-0.895314,28.469700,19.347106,143.772697
20780,NaN,-3.311015,4.434795,8.164561,0.035020,-0.034115,0.050775,-0.005210,-0.053834,0.008793,-0.336463,0.079179,-0.280967,-0.895310,28.468074,19.320324,143.751904
20781,NaN,-3.322392,4.405512,8.210160,0.068447,-0.000877,0.079171,-0.013190,-0.064419,0.011700,-0.336564,0.078885,-0.280844,-0.895337,28.460078,19.287039,143.731560
20782,NaN,-3.309397,4.422964,8.227749,0.052227,0.000985,0.097300,-0.014255,-0.067911,0.015208,-0.336672,0.078566,-0.280724,-0.895362,28.453091,19.251378,143.709907
20783,NaN,-3.292873,4.424356,8.263545,0.044690,0.024417,0.122176,-0.015659,-0.067172,0.016819,-0.336754,0.078256,-0.280587,-0.895402,28.444348,19.215304,143.691517
20784,NaN,-3.286395,4.473613,8.245029,0.010918,-0.017248,0.126814,-0.017210,-0.066105,0.008088,-0.336880,0.077965,-0.280451,-0.895422,28.434427,19.182579,143.667860
20785,NaN,-3.231100,4.449926,8.251975,-0.012085,0.027280,0.103766,-0.021430,-0.060424,0.013031,-0.336967,0.077701,-0.280298,-0.895460,28.422381,19.150932,143.649418
20786,NaN,-3.246340,4.494501,8.167556,-0.030773,-0.059795,0.058671,-0.023758,-0.048394,0.009593,-0.337058,0.077498,-0.280165,-0.895485,28.410770,19.126823,143.631891
20787,NaN,-3.202698,4.518743,8.119601,-0.080092,-0.080549,0.015401,-0.020147,-0.037624,0.010782,-0.337123,0.077337,-0.280055,-0.895509,28.401242,19.107273,143.618846
20788,NaN,-3.226031,4.536558,8.110628,-0.072895,-0.112371,0.023571,-0.023664,-0.027670,0.010224,-0.337191,0.077222,-0.279959,-0.895523,28.391933,19.093341,143.606466
20789,NaN,-3.229970,4.567312,8.076296,-0.090449,-0.155160,0.010109,-0.017272,-0.028750,0.007868,-0.337258,0.077100,-0.279875,-0.895535,28.384391,19.079054,143.594434
20790,NaN,-3.259464,4.608752,8.121811,-0.091259,-0.174313,0.076185,-0.019850,-0.026633,0.012464,-0.337311,0.076983,-0.279797,-0.895549,28.377573,19.065024,143.584283
20791,NaN,-3.306260,4.630005,8.119759,-0.068273,-0.217389,0.099269,-0.019976,-0.028677,0.011728,-0.337359,0.076860,-0.279703,-0.895571,28.369168,19.049719,143.574336
20792,NaN,-3.296345,4.646737,8.136494,-0.084557,-0.215457,0.117419,-0.022123,-0.029829,0.009241,-0.337426,0.076739,-0.279608,-0.895586,28.360150,19.035001,143.562014
20793,NaN,-3.274167,4.658138,8.113110,-0.109240,-0.225441,0.095805,-0.021949,-0.017422,0.010299,-0.337464,0.076672,-0.279524,-0.895604,28.351429,19.025758,143.554552
20794,NaN,-3.311606,4.681006,8.143799,-0.093748,-0.245538,0.143764,-0.026907,-0.013633,0.011151,-0.337503,0.076626,-0.279436,-0.895620,28.341679,19.018676,143.547277
20795,NaN,-3.375207,4.723000,8.163789,-0.071242,-0.298648,0.199902,-0.026700,-0.023368,0.012195,-0.337539,0.076538,-0.279321,-0.895650,28.330012,19.005915,143.539120
20796,NaN,-3.363271,4.681811,8.129323,-0.054429,-0.288678,0.148765,-0.027114,-0.036409,0.009765,-0.337621,0.076390,-0.279193,-0.895672,28.317713,18.987567,143.523994
20797,NaN,-3.343201,4.709093,8.088564,-0.087943,-0.320407,0.120440,-0.023445,-0.040872,0.011155,-0.337687,0.076219,-0.279063,-0.895702,28.306103,18.966257,143.510260
20798,NaN,-3.330035,4.718433,8.033020,-0.105096,-0.352921,0.073998,-0.025097,-0.040762,0.011405,-0.337765,0.076047,-0.278938,-0.895726,28.294922,18.945386,143.495122
20799,NaN,-3.349674,4.669803,8.063971,-0.055282,-0.320736,0.084235,-0.022154,-0.043661,0.008799,-0.337846,0.075866,-0.278808,-0.895751,28.283398,18.923303,143.479343
20800,NaN,-3.356538,4.616154,8.054859,-0.013793,-0.300100,0.054720,-0.019212,-0.046559,0.006193,-0.337952,0.075668,-0.278696,-0.895763,28.273993,18.900925,143.460556
20801,NaN,-3.348543,4.648811,8.054279,-0.038950,-0.320093,0.066159,-0.024073,-0.051095,0.007462,-0.338049,0.075458,-0.278545,-0.895791,28.260465,18.875448,143.441945
20802,NaN,-3.310401,4.645861,8.082761,-0.062274,-0.285332,0.076120,-0.023947,-0.052511,0.008091,-0.338153,0.075239,-0.278402,-0.895815,28.248153,18.849553,143.422462
20803,NaN,-3.295777,4.595599,8.139725,-0.035770,-0.219352,0.096268,-0.027986,-0.050722,0.004601,-0.338260,0.075041,-0.278232,-0.895844,28.231946,18.825031,143.402451
20804,NaN,-3.248991,4.553071,8.131317,-0.042288,-0.175615,0.055042,-0.023009,-0.051061,0.003846,-0.338382,0.074832,-0.278095,-0.895858,28.219606,18.801000,143.381051
20805,NaN,-3.230345,4.587377,8.163675,-0.074909,-0.172789,0.091316,-0.025567,-0.048953,0.008453,-0.338471,0.074633,-0.277940,-0.895889,28.205632,18.776319,143.363619
20806,NaN,-3.256059,4.570797,8.158888,-0.042661,-0.183935,0.088116,-0.025073,-0.051154,0.011076,-0.338564,0.074415,-0.277797,-0.895916,28.193462,18.750250,143.345535
20807,NaN,-3.286759,4.577336,8.209165,-0.018397,-0.182505,0.142790,-0.026863,-0.056545,0.010476,-0.338653,0.074181,-0.277624,-0.895955,28.178417,18.721180,143.327029
20808,NaN,-3.288485,4.607645,8.176349,-0.036049,-0.225071,0.129408,-0.030165,-0.056325,0.010983,-0.338747,0.073951,-0.277447,-0.895994,28.162654,18.692480,143.308110
20809,NaN,-3.264209,4.568185,8.175378,-0.026719,-0.192597,0.103077,-0.027585,-0.054981,0.006486,-0.338852,0.073731,-0.277273,-0.896026,28.146681,18.665269,143.287945
20810,NaN,-3.235371,4.505818,8.119079,-0.009406,-0.172752,0.018871,-0.021794,-0.045531,0.001081,-0.338981,0.073548,-0.277149,-0.896031,28.135171,18.644696,143.266302
20811,NaN,-3.204660,4.535209,8.111036,-0.050420,-0.181633,0.015402,-0.018237,-0.048586,0.001824,-0.339102,0.073347,-0.277026,-0.896040,28.124363,18.621968,143.245493
20812,NaN,-3.158512,4.493171,8.101824,-0.056863,-0.137915,-0.025855,-0.020768,-0.039566,0.006668,-0.339197,0.073181,-0.276919,-0.896050,28.114948,18.602932,143.228756
20813,NaN,-3.192219,4.459045,8.081730,-0.008361,-0.150405,-0.047187,-0.018373,-0.044711,0.010285,-0.339274,0.072986,-0.276804,-0.896072,28.105872,18.579871,143.213575
20814,NaN,-3.196603,4.497515,8.120795,-0.025073,-0.158380,0.004008,-0.009346,-0.046847,0.012993,-0.339354,0.072760,-0.276738,-0.896081,28.103378,18.555439,143.198300
20815,NaN,-3.220230,4.473131,8.206244,0.016969,-0.113481,0.072051,-0.008865,-0.055967,0.015381,-0.339427,0.072491,-0.276649,-0.896102,28.099610,18.525311,143.182640
20816,NaN,-3.226188,4.528105,8.227910,-0.008637,-0.143179,0.116560,-0.016046,-0.071606,0.022182,-0.339493,0.072155,-0.276512,-0.896147,28.092506,18.485923,143.165851
20817,NaN,-3.212237,4.494798,8.267040,0.009171,-0.098973,0.129935,-0.023289,-0.074460,0.019734,-0.339567,0.071822,-0.276329,-0.896202,28.079567,18.445269,143.147266
20818,NaN,-3.158878,4.487107,8.255722,-0.022418,-0.075922,0.100098,-0.025202,-0.075979,0.027597,-0.339616,0.071472,-0.276146,-0.896268,28.067793,18.402099,143.131541
20819,NaN,-3.144516,4.503857,8.273904,-0.038689,-0.074076,0.118234,-0.023121,-0.068970,0.020593,-0.339678,0.071162,-0.275973,-0.896322,28.055621,18.363982,143.115001
20820,NaN,-3.111608,4.483200,8.287467,-0.045536,-0.040341,0.109994,-0.022836,-0.061431,0.022195,-0.339730,0.070882,-0.275824,-0.896371,28.045643,18.329677,143.100752
20821,NaN,-3.181866,4.524249,8.276774,-0.015796,-0.116273,0.141423,-0.018232,-0.057525,0.019541,-0.339783,0.070616,-0.275691,-0.896412,28.037141,18.297626,143.086919
20822,NaN,-3.144317,4.531262,8.213991,-0.048890,-0.137771,0.080105,-0.019894,-0.064334,0.019565,-0.339850,0.070323,-0.275549,-0.896454,28.028138,18.262604,143.070787
20823,NaN,-3.127686,4.532198,8.249354,-0.056254,-0.114174,0.104917,-0.013755,-0.055665,0.016142,-0.339917,0.070062,-0.275439,-0.896483,28.021820,18.232405,143.055687
20824,NaN,-3.163881,4.565793,8.190334,-0.050775,-0.190630,0.081718,-0.005578,-0.044438,0.014567,-0.339986,0.069839,-0.275393,-0.896488,28.021986,18.208711,143.042139
20825,NaN,-3.205740,4.572318,8.206933,-0.019095,-0.212039,0.111590,-0.003027,-0.043085,0.010060,-0.340067,0.069625,-0.275350,-0.896487,28.021931,18.186510,143.027371
20826,NaN,-3.274525,4.598426,8.212975,0.019516,-0.266079,0.149733,-0.000089,-0.039063,0.007664,-0.340159,0.069428,-0.275335,-0.896472,28.024530,18.167438,143.012051
20827,NaN,-3.311749,4.582134,8.174553,0.059050,-0.300422,0.121758,-0.000632,-0.054158,0.004453,-0.340281,0.069168,-0.275282,-0.896462,28.023952,18.141147,142.991164
20828,NaN,-3.240624,4.588079,8.136638,0.002705,-0.287989,0.070330,-0.014685,-0.082816,0.001501,-0.340456,0.068807,-0.275124,-0.896472,28.013319,18.101600,142.960189
20829,NaN,-3.122195,4.536376,8.105545,-0.051131,-0.211257,-0.015779,-0.020403,-0.092289,0.006923,-0.340612,0.068407,-0.274918,-0.896506,27.998504,18.055349,142.929843
20830,NaN,-3.007630,4.550802,8.035503,-0.148023,-0.198363,-0.103739,-0.028993,-0.070176,0.006971,-0.340741,0.068119,-0.274721,-0.896540,27.981736,18.020664,142.905187
20831,NaN,-3.151286,4.516138,8.072577,-0.011540,-0.244722,-0.043727,-0.027043,-0.055824,0.008554,-0.340838,0.067891,-0.274547,-0.896573,27.966619,17.992411,142.886053
20832,NaN,-3.127333,4.584144,8.102279,-0.069348,-0.262050,0.004034,-0.032752,-0.061837,0.014099,-0.340921,0.067638,-0.274349,-0.896622,27.949622,17.960043,142.867698
20833,NaN,-3.198088,4.580717,8.186836,-0.004487,-0.261054,0.095231,-0.025380,-0.077725,0.016531,-0.341013,0.067298,-0.274149,-0.896674,27.934890,17.918552,142.846652
20834,NaN,-3.153091,4.612195,8.212168,-0.052857,-0.246709,0.116581,-0.014060,-0.079150,0.013298,-0.341128,0.066937,-0.274004,-0.896701,27.926945,17.877648,142.823287
20835,NaN,-3.166218,4.706131,8.271589,-0.095395,-0.285159,0.212349,-0.005677,-0.069742,0.003979,-0.341271,0.066616,-0.273901,-0.896702,27.922180,17.843561,142.797837
20836,NaN,-3.191452,4.697631,8.339905,-0.062108,-0.261790,0.273676,-0.007574,-0.066797,0.003002,-0.341419,0.066313,-0.273803,-0.896698,27.917406,17.811639,142.772271
20837,NaN,-3.128562,4.685442,8.286623,-0.102149,-0.250634,0.204105,-0.010510,-0.059428,-0.003199,-0.341579,0.066057,-0.273694,-0.896690,27.909624,17.784695,142.745926
20838,NaN,-3.120300,4.661595,8.233607,-0.094236,-0.262681,0.146285,-0.008487,-0.045473,-0.009961,-0.341755,0.065868,-0.273624,-0.896657,27.904088,17.767036,142.719450
20839,NaN,-3.208217,4.616730,8.214217,0.002118,-0.298778,0.136731,-0.003531,-0.049278,-0.010891,-0.341938,0.065656,-0.273561,-0.896623,27.899951,17.747288,142.691884
20840,NaN,-3.226307,4.613327,8.150748,0.016843,-0.343671,0.087219,0.010458,-0.069086,-0.009682,-0.342151,0.065329,-0.273535,-0.896573,27.903311,17.717614,142.658980
20841,NaN,-3.216397,4.597863,8.170582,0.025840,-0.321214,0.093881,0.014810,-0.091057,-0.005611,-0.342373,0.064891,-0.273484,-0.896535,27.906990,17.675297,142.622469
20842,NaN,-3.158441,4.520004,8.122948,0.036401,-0.268896,0.001325,0.035826,-0.112121,-0.003506,-0.342626,0.064320,-0.273501,-0.896475,27.922233,17.622186,142.580794
20843,NaN,-3.095491,4.484448,8.144845,0.022813,-0.202534,-0.015275,0.048869,-0.125072,0.001559,-0.342873,0.063661,-0.273546,-0.896414,27.943747,17.560743,142.538514
20844,NaN,-3.050788,4.379543,8.140198,0.067184,-0.117928,-0.079646,0.050826,-0.124577,0.002652,-0.343119,0.062999,-0.273611,-0.896347,27.967603,17.499687,142.496488
20845,NaN,-2.953082,4.343426,8.186262,0.030539,-0.017542,-0.086451,0.051923,-0.115157,0.008354,-0.343323,0.062370,-0.273689,-0.896289,27.992865,17.441468,142.460581
20846,NaN,-2.936172,4.315036,8.223148,0.048641,0.026776,-0.073195,0.040121,-0.101142,0.009387,-0.343504,0.061823,-0.273747,-0.896240,28.013697,17.390510,142.428768
20847,NaN,-2.935179,4.307039,8.282784,0.066209,0.061042,-0.026869,0.028980,-0.094215,0.013540,-0.343648,0.061320,-0.273760,-0.896215,28.028454,17.341511,142.401493
20848,NaN,-2.972355,4.315993,8.300396,0.097908,0.039730,0.003019,0.017977,-0.095635,0.018087,-0.343775,0.060824,-0.273731,-0.896209,28.038475,17.291017,142.375846
20849,NaN,-2.910542,4.386338,8.353082,0.017003,0.056508,0.060595,0.011114,-0.085416,0.018182,-0.343881,0.060385,-0.273680,-0.896214,28.044505,17.245227,142.353508
20850,NaN,-2.864979,4.470508,8.355321,-0.065578,0.028849,0.086798,0.001878,-0.071033,0.023671,-0.343944,0.060018,-0.273623,-0.896231,28.048267,17.205675,142.337750
20851,NaN,-2.920056,4.542202,8.301839,-0.069980,-0.079416,0.090223,-0.008134,-0.055479,0.016838,-0.344010,0.059749,-0.273537,-0.896251,28.045584,17.175387,142.323147
20852,NaN,-2.892882,4.531206,8.223077,-0.086864,-0.102140,0.010836,-0.023103,-0.043043,0.010727,-0.344085,0.059568,-0.273412,-0.896272,28.035357,17.153463,142.308413
20853,NaN,-2.848092,4.532303,8.118495,-0.128592,-0.135626,-0.090114,-0.024460,-0.032317,0.004376,-0.344170,0.059447,-0.273288,-0.896285,28.023314,17.138242,142.293753
20854,NaN,-2.800135,4.580684,8.156318,-0.193168,-0.119812,-0.050655,-0.031893,-0.012939,0.002109,-0.344240,0.059428,-0.273173,-0.896294,28.009219,17.133838,142.282889
20855,NaN,-2.841510,4.669403,8.149686,-0.221235,-0.203847,-0.004304,-0.028604,0.000698,0.002025,-0.344289,0.059466,-0.273087,-0.896299,27.997178,17.135943,142.276287
20856,NaN,-2.864485,4.727560,8.210753,-0.238497,-0.221341,0.080021,-0.027369,0.011776,0.000115,-0.344336,0.059553,-0.273034,-0.896292,27.987397,17.144583,142.271398
20857,NaN,-2.926329,4.810280,8.302129,-0.240552,-0.259959,0.212386,-0.026839,0.023429,0.003204,-0.344349,0.059687,-0.272996,-0.896289,27.978436,17.157870,142.271814
20858,NaN,-2.981235,4.853642,8.356150,-0.225755,-0.289801,0.293543,-0.029834,0.020409,-0.003342,-0.344398,0.059822,-0.272946,-0.896277,27.967433,17.171806,142.267492
20859,NaN,-2.970995,4.903275,8.368651,-0.267350,-0.308134,0.323230,-0.028741,0.009047,0.001636,-0.344437,0.059897,-0.272874,-0.896278,27.955941,17.178237,142.263029
20860,NaN,-2.960616,4.895898,8.329300,-0.275788,-0.318986,0.283573,-0.028168,0.009893,-0.003983,-0.344505,0.059983,-0.272813,-0.896265,27.944927,17.187026,142.255410
20861,NaN,-2.980703,4.880652,8.356015,-0.250933,-0.307599,0.305156,-0.024331,0.014382,-0.001689,-0.344553,0.060079,-0.272769,-0.896254,27.935882,17.197048,142.250682
20862,NaN,-3.012399,4.864141,8.349993,-0.218796,-0.319026,0.302013,-0.017994,0.009832,-0.004292,-0.344625,0.060147,-0.272753,-0.896227,27.930620,17.205878,142.242927
20863,NaN,-3.024635,4.810538,8.339034,-0.177106,-0.299108,0.272368,-0.015798,0.004036,-0.002085,-0.344691,0.060183,-0.272729,-0.896206,27.925540,17.210768,142.235079
20864,NaN,-3.017558,4.770422,8.302126,-0.160197,-0.289596,0.221173,-0.007142,0.002671,-0.001493,-0.344763,0.060197,-0.272750,-0.896171,27.926341,17.215234,142.226834
20865,NaN,-2.999023,4.726262,8.224320,-0.151847,-0.292130,0.130287,0.004951,-0.000342,-0.000837,-0.344836,0.060176,-0.272812,-0.896125,27.932980,17.217573,142.218417
20866,NaN,-3.014586,4.634359,8.142389,-0.086045,-0.286563,0.024690,0.016601,0.001308,0.006304,-0.344883,0.060131,-0.272940,-0.896071,27.948529,17.219231,142.213769
20867,NaN,-3.060047,4.586342,8.105098,-0.021362,-0.300855,-0.014725,0.038026,-0.003241,0.010906,-0.344917,0.060024,-0.273149,-0.896002,27.975720,17.216953,142.210760
20868,NaN,-3.138305,4.497553,8.136892,0.102083,-0.272216,-0.004455,0.047783,-0.022904,0.016229,-0.344961,0.059804,-0.273378,-0.895930,28.008657,17.203715,142.204650
20869,NaN,-3.154207,4.375229,8.057503,0.193218,-0.246560,-0.121615,0.057010,-0.047288,0.018705,-0.345026,0.059456,-0.273598,-0.895860,28.044276,17.177063,142.193355
20870,NaN,-3.156374,4.312291,8.063064,0.244054,-0.204955,-0.144700,0.060042,-0.065078,0.024530,-0.345095,0.059015,-0.273811,-0.895798,28.082025,17.140269,142.179693
20871,NaN,-3.180033,4.202534,8.098117,0.345080,-0.132628,-0.157807,0.059232,-0.073491,0.028547,-0.345152,0.058532,-0.273999,-0.895750,28.118277,17.097731,142.166171
20872,NaN,-3.237002,4.252178,8.119121,0.367039,-0.185550,-0.101345,0.054449,-0.084976,0.029657,-0.345223,0.058004,-0.274154,-0.895710,28.151970,17.049523,142.149545
20873,NaN,-3.307902,4.322256,8.163721,0.388400,-0.248439,-0.011776,0.038272,-0.100952,0.024899,-0.345328,0.057439,-0.274199,-0.895692,28.173385,16.994114,142.126289
20874,NaN,-3.361897,4.319727,8.208082,0.444812,-0.259325,0.039717,0.030352,-0.127501,0.026742,-0.345464,0.056766,-0.274172,-0.895691,28.189335,16.925229,142.096020
20875,NaN,-3.182451,4.317390,8.169216,0.318376,-0.179277,-0.046909,0.030439,-0.149169,0.009349,-0.345702,0.056021,-0.274094,-0.895670,28.199963,16.849694,142.050902
20876,NaN,-2.998449,4.354995,8.200018,0.167968,-0.084463,-0.057606,0.015901,-0.141410,-0.003196,-0.345986,0.055352,-0.273970,-0.895640,28.201974,16.781923,142.000977
20877,NaN,-2.859427,4.317166,8.140110,0.089905,-0.018199,-0.165552,-0.003910,-0.120045,-0.015778,-0.346287,0.054830,-0.273781,-0.895613,28.191583,16.727899,141.950870
20878,NaN,-2.703350,4.347834,8.105688,-0.046086,0.030627,-0.225671,-0.020729,-0.088286,-0.013242,-0.346533,0.054476,-0.273581,-0.895601,28.175507,16.689669,141.910688
20879,NaN,-2.678882,4.358397,8.082811,-0.070838,0.020855,-0.247207,-0.029562,-0.064255,-0.005375,-0.346703,0.054235,-0.273377,-0.895612,28.156594,16.660985,141.881868
20880,NaN,-2.752422,4.428532,8.202565,-0.048077,-0.006845,-0.093252,-0.022149,-0.052429,-0.002090,-0.346849,0.054029,-0.273236,-0.895611,28.144320,16.637819,141.857728
20881,NaN,-2.860779,4.551159,8.276933,-0.036989,-0.110867,0.056003,-0.017433,-0.059935,0.003799,-0.346977,0.053773,-0.273096,-0.895620,28.134120,16.608826,141.834986
20882,NaN,-2.849662,4.698443,8.379880,-0.128560,-0.144296,0.206344,-0.014800,-0.066950,-0.000361,-0.347136,0.053487,-0.272963,-0.895615,28.125169,16.577856,141.807706
20883,NaN,-2.827138,4.789958,8.463597,-0.194193,-0.147764,0.312001,-0.023171,-0.068422,0.000345,-0.347289,0.053208,-0.272781,-0.895628,28.110509,16.545498,141.780771
20884,NaN,-2.786697,4.893461,8.521477,-0.284647,-0.161534,0.396137,-0.034230,-0.049413,-0.002663,-0.347431,0.053037,-0.272591,-0.895641,28.091536,16.523984,141.757163
20885,NaN,-2.779760,4.924134,8.521252,-0.309990,-0.180976,0.407735,-0.045161,-0.028352,-0.004924,-0.347546,0.052982,-0.272379,-0.895664,28.066720,16.513286,141.738750
20886,NaN,-2.787958,4.945464,8.415789,-0.329588,-0.258252,0.330316,-0.054011,-0.011672,-0.005604,-0.347644,0.053019,-0.272165,-0.895689,28.038998,16.511638,141.724267
20887,NaN,-2.751361,4.909070,8.314890,-0.346117,-0.271447,0.217910,-0.064330,-0.006714,-0.005726,-0.347728,0.053096,-0.271905,-0.895731,28.004811,16.512084,141.711517
20888,NaN,-2.689726,4.795877,8.171347,-0.336053,-0.244683,0.027697,-0.060108,0.003518,-0.009583,-0.347822,0.053216,-0.271689,-0.895753,27.974226,16.519164,141.699151
20889,NaN,-2.702670,4.738764,8.162497,-0.294264,-0.224997,-0.002007,-0.057798,0.017116,-0.006038,-0.347877,0.053389,-0.271500,-0.895778,27.945631,16.531740,141.692913
20890,NaN,-2.746800,4.667865,8.146652,-0.220431,-0.217732,-0.034865,-0.040897,0.018636,-0.006837,-0.347943,0.053540,-0.271396,-0.895775,27.927644,16.545713,141.686267
20891,NaN,-2.831267,4.645454,8.216434,-0.139180,-0.218261,0.038155,-0.029895,0.020449,-0.003124,-0.347988,0.053675,-0.271338,-0.895767,27.915735,16.559190,141.682491
20892,NaN,-2.855040,4.596212,8.246293,-0.088749,-0.186552,0.048098,-0.021328,0.013956,0.004889,-0.348013,0.053755,-0.271318,-0.895759,27.910364,16.567655,141.680708
20893,NaN,-2.900816,4.550707,8.284415,-0.022632,-0.166194,0.073012,-0.021304,0.007013,0.004640,-0.348043,0.053805,-0.271277,-0.895756,27.903473,16.572246,141.677271
20894,NaN,-2.908957,4.531214,8.270613,-0.006228,-0.166672,0.054893,-0.021015,0.004167,0.005880,-0.348078,0.053839,-0.271242,-0.895752,27.897674,16.575482,141.673195
20895,NaN,-2.912590,4.444993,8.295366,0.053937,-0.103770,0.038230,-0.022252,0.006955,0.008278,-0.348092,0.053885,-0.271197,-0.895757,27.890783,16.579067,141.671662
20896,NaN,-2.890198,4.440294,8.287712,0.038357,-0.091673,0.023254,-0.019506,0.012811,0.013571,-0.348080,0.053944,-0.271186,-0.895762,27.887673,16.584628,141.674146
20897,NaN,-2.871978,4.451777,8.262387,0.013563,-0.101401,0.001749,-0.025411,0.009232,0.009602,-0.348084,0.054004,-0.271131,-0.895773,27.879353,16.589012,141.673948
20898,NaN,-2.860754,4.394577,8.243642,0.039736,-0.070520,-0.042974,-0.026740,-0.003913,0.010751,-0.348106,0.054005,-0.271058,-0.895786,27.870351,16.586842,141.670188
20899,NaN,-2.837081,4.389485,8.236638,0.024128,-0.058591,-0.057955,-0.025897,-0.005511,0.014717,-0.348107,0.053993,-0.270977,-0.895811,27.861347,16.582388,141.668573
20900,NaN,-2.866758,4.424276,8.210565,0.021578,-0.112161,-0.056005,-0.012968,-0.006665,0.019383,-0.348097,0.053947,-0.270962,-0.895822,27.861292,16.576534,141.668719
20901,NaN,-2.902941,4.448422,8.242420,0.036786,-0.132307,-0.007884,-0.007891,-0.004962,0.019259,-0.348082,0.053900,-0.270964,-0.895830,27.863334,16.571142,141.669658
20902,NaN,-2.915450,4.526512,8.317935,0.003187,-0.147913,0.094649,-0.004461,-0.003146,0.019425,-0.348070,0.053854,-0.270994,-0.895829,27.868451,16.567048,141.670749
20903,NaN,-2.955759,4.567513,8.331803,0.009183,-0.189695,0.136260,-0.004174,-0.005993,0.020661,-0.348051,0.053794,-0.271011,-0.895835,27.872751,16.560759,141.672140
20904,NaN,-2.954579,4.618365,8.311353,-0.025390,-0.230596,0.141388,-0.000064,-0.008212,0.015697,-0.348063,0.053723,-0.271050,-0.895822,27.879423,16.555091,141.669822
20905,NaN,-2.903764,4.595857,8.312658,-0.047495,-0.185798,0.117935,-0.002533,-0.002638,0.020499,-0.348041,0.053675,-0.271081,-0.895824,27.884907,16.550544,141.672064
20906,NaN,-2.898616,4.579590,8.330691,-0.038168,-0.163197,0.124462,-0.007636,-0.004727,0.012274,-0.348062,0.053637,-0.271091,-0.895815,27.886993,16.547574,141.668970
20907,NaN,-2.796043,4.561003,8.257462,-0.109472,-0.129620,0.024868,-0.012712,-0.006428,0.012399,-0.348079,0.053601,-0.271068,-0.895818,27.885123,16.543278,141.665873
20908,NaN,-2.723198,4.533985,8.250847,-0.147193,-0.073461,-0.013593,-0.014246,0.006148,0.013820,-0.348076,0.053622,-0.271068,-0.895818,27.884518,16.545389,141.666617
20909,NaN,-2.655651,4.472861,8.246772,-0.159433,0.002700,-0.063698,-0.010046,0.026803,0.010373,-0.348057,0.053733,-0.271113,-0.895805,27.886517,16.558465,141.671739
20910,NaN,-2.673081,4.493751,8.269000,-0.159877,-0.006048,-0.030565,-0.003361,0.049210,0.010731,-0.348013,0.053931,-0.271236,-0.895773,27.895124,16.583200,141.682858
20911,NaN,-2.768196,4.507450,8.300542,-0.097040,-0.050020,0.029420,0.005548,0.065804,0.013274,-0.347933,0.054186,-0.271420,-0.895733,27.909619,16.615245,141.700430
20912,NaN,-2.844648,4.591348,8.357696,-0.092237,-0.110986,0.137325,0.004710,0.074340,0.009565,-0.347861,0.054484,-0.271623,-0.895681,27.924699,16.653022,141.718039
20913,NaN,-2.990895,4.628147,8.387240,-0.007308,-0.198997,0.220823,0.003336,0.071217,0.002740,-0.347820,0.054781,-0.271803,-0.895625,27.936792,16.690625,141.731585
20914,NaN,-2.981800,4.657818,8.341415,-0.041357,-0.230143,0.192858,0.001028,0.068421,0.007900,-0.347764,0.055062,-0.271978,-0.895576,27.949068,16.725827,141.746621
20915,NaN,-3.032446,4.715166,8.335202,-0.044699,-0.293524,0.228027,-0.002249,0.061710,0.008218,-0.347709,0.055318,-0.272119,-0.895539,27.958049,16.757143,141.760416
20916,NaN,-3.087457,4.731736,8.259363,-0.024134,-0.371725,0.187314,-0.005530,0.055000,0.008535,-0.347666,0.055550,-0.272241,-0.895504,27.965590,16.785395,141.772114
20917,NaN,-3.080366,4.726650,8.217511,-0.032743,-0.382908,0.147718,-0.007026,0.046752,0.009182,-0.347626,0.055746,-0.272335,-0.895479,27.970784,16.808878,141.782232
20918,NaN,-3.148497,4.713738,8.185881,0.021964,-0.429050,0.134998,-0.005366,0.032757,0.008382,-0.347614,0.055878,-0.272419,-0.895450,27.976615,16.825905,141.787553
20919,NaN,-3.097650,4.668081,8.131325,0.007530,-0.397738,0.053751,-0.001372,0.018469,0.010645,-0.347608,0.055936,-0.272489,-0.895427,27.982981,16.834683,141.790509
20920,NaN,-3.094104,4.601421,8.169481,0.051664,-0.333426,0.055095,-0.001641,0.003970,0.008764,-0.347634,0.055931,-0.272541,-0.895401,27.988671,16.837043,141.787934
20921,NaN,-3.028295,4.563670,8.221063,0.031909,-0.243814,0.062690,-0.003009,-0.005697,0.010029,-0.347663,0.055885,-0.272561,-0.895387,27.992039,16.833760,141.783776
20922,NaN,-2.958922,4.503256,8.217576,0.019825,-0.167542,0.012517,-0.001360,-0.009283,0.009614,-0.347704,0.055819,-0.272591,-0.895366,27.996950,16.829187,141.777902
20923,NaN,-2.873681,4.478570,8.243435,-0.024814,-0.088350,-0.001397,-0.002318,-0.005875,0.013378,-0.347719,0.055766,-0.272615,-0.895356,28.001213,16.824913,141.775464
20924,NaN,-2.864956,4.446156,8.278981,-0.006136,-0.044150,0.011559,-0.000672,0.000946,0.013350,-0.347729,0.055741,-0.272667,-0.895338,28.007904,16.824527,141.774534
20925,NaN,-2.868521,4.462946,8.261170,-0.015326,-0.065020,0.005091,0.000432,0.006905,0.018941,-0.347701,0.055733,-0.272727,-0.895331,28.015633,16.825222,141.778627
20926,NaN,-2.883166,4.535295,8.263026,-0.050650,-0.115448,0.043440,0.002219,0.008834,0.019402,-0.347674,0.055729,-0.272807,-0.895317,28.025542,16.827195,141.783126
20927,NaN,-2.932554,4.559146,8.261265,-0.028544,-0.158728,0.066998,0.003729,0.010139,0.018499,-0.347646,0.055730,-0.272887,-0.895304,28.035356,16.829643,141.787896
20928,NaN,-2.947509,4.631566,8.262954,-0.063899,-0.209130,0.105367,0.000436,0.013842,0.019198,-0.347612,0.055752,-0.272968,-0.895291,28.044618,16.834202,141.793710
20929,NaN,-2.966495,4.669685,8.267705,-0.073742,-0.239622,0.132067,0.001393,0.010434,0.015435,-0.347596,0.055763,-0.273038,-0.895275,28.052650,16.837623,141.796945
20930,NaN,-2.975055,4.652075,8.252663,-0.057380,-0.240246,0.113953,-0.006157,0.020866,0.012247,-0.347582,0.055838,-0.273099,-0.895257,28.057648,16.847602,141.801048
20931,NaN,-2.994922,4.689644,8.257399,-0.067238,-0.270730,0.140661,-0.001353,0.018467,0.010645,-0.347576,0.055896,-0.273169,-0.895235,28.064030,16.856375,141.804016
20932,NaN,-3.015816,4.670491,8.209804,-0.043922,-0.294570,0.097954,-0.004092,0.023415,0.014075,-0.347551,0.055976,-0.273245,-0.895216,28.070730,16.867148,141.809715
20933,NaN,-3.017054,4.670435,8.209381,-0.043870,-0.293793,0.097977,-0.004240,0.017518,0.004849,-0.347571,0.056042,-0.273299,-0.895188,28.074493,16.877003,141.809356
20934,NaN,-2.980735,4.544498,8.219593,0.010980,-0.188686,0.039380,-0.007673,0.015708,0.004671,-0.347599,0.056106,-0.273342,-0.895160,28.077081,16.886394,141.807820
20935,NaN,-2.906852,4.494955,8.157325,-0.018999,-0.146233,-0.056939,-0.004648,0.021787,0.002994,-0.347622,0.056195,-0.273401,-0.895127,28.080676,16.898908,141.807686
20936,NaN,-2.899731,4.518857,8.244538,-0.033390,-0.108482,0.025404,-0.004095,0.023030,0.005726,-0.347636,0.056284,-0.273474,-0.895094,28.086071,16.911714,141.808778
20937,NaN,-2.748921,4.489526,8.318258,-0.123000,0.039704,0.030540,-0.005879,0.030744,-0.011049,-0.347709,0.056434,-0.273539,-0.895036,28.087536,16.932543,141.803751
20938,NaN,-2.294243,4.547432,8.405262,-0.498380,0.322817,-0.002564,-0.002429,0.049129,-0.026922,-0.347833,0.056682,-0.273655,-0.894937,28.090973,16.967359,141.795091
20939,NaN,-1.720337,4.720182,8.570409,-1.034456,0.650844,0.046211,0.003137,0.107823,-0.047890,-0.347967,0.057212,-0.273884,-0.894781,28.098264,17.037089,141.792341
20940,NaN,-1.258766,4.848786,8.682770,-1.467759,0.917464,0.060996,0.008819,0.222349,-0.058437,-0.347998,0.058259,-0.274343,-0.894561,28.117630,17.167953,141.815948
20941,NaN,-0.992959,4.898693,8.827276,-1.707874,1.142195,0.121214,0.036827,0.369757,-0.067992,-0.347872,0.059929,-0.275171,-0.894245,28.163077,17.375455,141.876740
20942,NaN,-1.086618,5.069288,9.050534,-1.757674,1.135524,0.405510,0.086187,0.491777,-0.058356,-0.347552,0.062045,-0.276442,-0.893833,28.250035,17.642257,141.977274
20943,NaN,-1.208163,5.591227,9.222343,-2.025427,0.883159,0.812306,0.122293,0.585734,0.002487,-0.346835,0.064435,-0.278047,-0.893445,28.375471,17.939373,142.137869
20944,NaN,-1.270861,6.138528,9.331687,-2.358787,0.621594,1.161213,0.116192,0.619885,0.115825,-0.345562,0.066828,-0.279725,-0.893238,28.521091,18.222703,142.369043
20945,NaN,-1.252919,6.752838,9.321636,-2.801573,0.296863,1.417915,0.070736,0.594653,0.210928,-0.343878,0.069054,-0.281177,-0.893263,28.654678,18.466422,142.644706
20946,NaN,-1.167649,7.022667,9.093351,-3.081830,0.091352,1.316739,0.022883,0.633822,0.294033,-0.341750,0.071419,-0.282517,-0.893471,28.780843,18.706604,142.976517
20947,NaN,-1.550396,7.062655,9.419041,-2.816310,0.049947,1.722868,-0.083646,0.465362,0.368472,-0.339483,0.073109,-0.283109,-0.894011,28.843229,18.840886,143.299707
20948,NaN,-1.009775,7.020556,9.597289,-3.191285,0.475946,1.676653,-0.152670,0.198556,0.551644,-0.336750,0.073461,-0.283011,-0.895047,28.873384,18.790488,143.641979
20949,NaN,0.362338,6.772919,9.614154,-4.059811,1.370442,1.145195,-0.227450,0.023225,0.846971,-0.332908,0.072737,-0.282380,-0.896740,28.892667,18.570151,144.089406
20950,NaN,0.950985,6.436127,9.566207,-4.269278,1.818502,0.784773,-0.239453,0.013129,1.169614,-0.327625,0.071527,-0.281798,-0.898964,28.956819,18.255092,144.703030
20951,NaN,1.413919,6.454358,9.515654,-4.603243,1.953703,0.637089,-0.275416,0.016174,1.485796,-0.320884,0.069945,-0.281150,-0.901718,29.047038,17.852876,145.482992
20952,NaN,1.572876,6.466749,9.351576,-4.698371,1.845828,0.495648,-0.296408,0.080360,1.741536,-0.312877,0.068316,-0.280590,-0.904826,29.166377,17.410070,146.412901
20953,NaN,1.146240,6.650493,9.086653,-4.430884,1.253059,0.526847,-0.334604,0.163878,1.916237,-0.303917,0.066879,-0.280015,-0.908159,29.289138,16.958359,147.455981
20954,NaN,0.561716,7.097654,8.843866,-4.169931,0.416367,0.739227,-0.424240,0.246143,2.073615,-0.294072,0.065719,-0.279190,-0.911732,29.383323,16.501452,148.601229
20955,NaN,-0.203222,7.319986,8.491139,-3.607484,-0.422592,0.795261,-0.557534,0.300574,2.217315,-0.283410,0.064800,-0.277843,-0.915578,29.415610,16.030304,149.834488
20956,NaN,-0.977029,7.327019,8.111897,-2.889993,-1.122872,0.714792,-0.680209,0.361900,2.331642,-0.272067,0.064160,-0.276028,-0.919604,29.389195,15.557203,151.141360
20957,NaN,-1.762083,7.219967,7.823165,-2.074592,-1.675748,0.642973,-0.738615,0.422029,2.419055,-0.260172,0.063753,-0.274002,-0.923672,29.333746,15.090811,152.509052
20958,NaN,-2.612335,6.889930,7.605131,-1.067720,-2.022857,0.526551,-0.758737,0.457317,2.435353,-0.248110,0.063495,-0.271898,-0.927621,29.261517,14.638520,153.892246
20959,NaN,-3.435162,6.371079,7.347039,0.014836,-2.194799,0.264579,-0.774744,0.436536,2.356115,-0.236393,0.063265,-0.269617,-0.931355,29.156340,14.200497,155.227181
20960,NaN,-3.866529,5.811566,7.025015,0.767223,-2.168883,-0.180378,-0.808888,0.328969,2.216152,-0.225433,0.062746,-0.266974,-0.934862,28.997477,13.750091,156.456656
20961,NaN,-3.709705,5.062957,6.470222,1.063918,-1.871513,-1.059178,-0.851613,0.223271,2.043028,-0.215375,0.062012,-0.263914,-0.938146,28.775421,13.299027,157.566669
20962,NaN,-3.373076,4.392496,5.947235,1.134624,-1.537972,-1.914078,-0.846489,0.186415,1.875671,-0.206134,0.061305,-0.260766,-0.941144,28.527346,12.879360,158.578973
20963,NaN,-3.004807,3.915589,5.420805,1.066913,-1.335260,-2.683572,-0.805290,0.223162,1.734018,-0.197497,0.060915,-0.257771,-0.943842,28.281209,12.521564,159.529455
20964,NaN,-3.007016,3.593032,5.141171,1.252700,-1.241940,-3.084255,-0.688714,0.316761,1.646282,-0.189179,0.060952,-0.255380,-0.946191,28.093744,12.237811,160.459870
20965,NaN,-3.565315,3.456149,5.266804,1.862961,-1.249834,-2.930627,-0.468688,0.380199,1.613058,-0.180983,0.061127,-0.254050,-0.948139,28.026997,11.997590,161.391147
20966,NaN,-3.876497,3.489249,5.513366,2.181460,-1.223967,-2.647348,-0.168950,0.381937,1.598631,-0.172939,0.061045,-0.254130,-0.949623,28.127769,11.761391,162.313713
20967,NaN,-4.421419,3.609933,5.725133,2.695738,-1.328084,-2.307604,0.128761,0.346552,1.547164,-0.165257,0.060606,-0.255551,-0.950637,28.386516,11.518937,163.199239
20968,NaN,-5.140095,3.713953,6.083893,3.385187,-1.359900,-1.817818,0.413962,0.320414,1.451082,-0.158148,0.059919,-0.258271,-0.951154,28.794604,11.284189,164.025103
20969,NaN,-5.221694,4.022461,6.606984,3.404876,-1.270106,-1.216704,0.622796,0.383803,1.301674,-0.151715,0.059566,-0.261966,-0.951214,29.306509,11.116709,164.790967
20970,NaN,-5.079853,4.360249,7.199559,3.185558,-1.087296,-0.575862,0.716448,0.753059,1.129547,-0.145643,0.061113,-0.266329,-0.950853,29.875858,11.174432,165.573311
20971,NaN,-5.174267,4.392361,8.220264,3.212557,-0.458901,0.341383,0.654125,1.495905,0.905753,-0.139609,0.066537,-0.270840,-0.950120,30.433004,11.657433,166.462747
20972,NaN,-6.190198,4.388350,8.854835,4.042990,-0.169530,1.123672,0.580474,2.340257,0.562347,-0.134028,0.076475,-0.275453,-0.948849,30.978568,12.648109,167.438172
20973,NaN,-7.195276,5.262725,8.927054,4.537250,-0.844275,1.928331,0.452553,2.839795,0.142220,-0.129674,0.089438,-0.279574,-0.947113,31.458678,14.000093,168.368834
20974,NaN,-7.789075,5.518509,8.371836,4.820183,-1.279994,1.863280,0.121997,2.961397,-0.287881,-0.127015,0.103769,-0.281966,-0.945301,31.731378,15.534264,169.134577
20975,NaN,-7.411221,5.100104,7.565659,4.404224,-1.180427,1.021358,-0.132051,2.914409,-0.656225,-0.125999,0.118541,-0.282864,-0.943430,31.824022,17.154591,169.710216
20976,NaN,-7.013082,4.706591,7.425946,3.883102,-0.777947,0.712893,-0.296514,2.777877,-0.893522,-0.126174,0.133077,-0.282708,-0.941513,31.790136,18.779618,170.126454
20977,NaN,-6.775701,4.576920,7.397930,3.429725,-0.588243,0.650195,-0.349163,2.455689,-0.929495,-0.126910,0.146159,-0.282011,-0.939681,31.695629,20.259131,170.423501
20978,NaN,-6.617887,4.656419,7.709846,2.949890,-0.413657,0.959632,-0.380458,1.949209,-0.807800,-0.127751,0.156686,-0.280904,-0.938202,31.555259,21.455440,170.620148
20979,NaN,-6.483897,4.447482,7.894541,2.666444,-0.109246,1.004933,-0.436185,1.240807,-0.576808,-0.128445,0.163591,-0.279231,-0.937427,31.344362,22.237109,170.708084
20980,NaN,-5.984224,4.257792,8.061746,2.122626,0.193510,0.882543,-0.514684,0.496973,-0.310145,-0.128863,0.166679,-0.276931,-0.937508,31.052027,22.575384,170.694882
20981,NaN,-5.088200,4.253964,8.180179,1.243855,0.347737,0.638767,-0.593311,-0.168721,-0.059860,-0.128958,0.166352,-0.274028,-0.938406,30.682504,22.512672,170.601297
20982,NaN,-4.059540,4.072797,8.353438,0.351795,0.674363,0.300082,-0.709227,-0.682348,0.144970,-0.128701,0.163404,-0.270426,-0.940003,30.228569,22.136166,170.456139
20983,NaN,-3.283536,3.629580,8.547841,-0.186734,1.176121,-0.035083,-0.749799,-1.025499,0.319320,-0.128048,0.158630,-0.266536,-0.942018,29.748096,21.538369,170.302459
20984,NaN,-2.207494,3.500882,8.283823,-0.981021,1.220850,-0.685982,-0.701643,-1.072901,0.455826,-0.126851,0.153412,-0.262949,-0.944051,29.321178,20.877272,170.212817
20985,NaN,-1.377298,3.803514,7.869277,-1.666186,0.806400,-1.160413,-0.608321,-0.841873,0.565850,-0.124894,0.149075,-0.260013,-0.945818,28.994200,20.300527,170.256229
20986,NaN,-1.284620,4.029315,7.824343,-1.747842,0.551948,-1.109475,-0.501935,-0.505857,0.588945,-0.122470,0.146225,-0.257810,-0.947182,28.768127,19.886131,170.413445
20987,NaN,-1.408389,4.418801,7.986593,-1.743949,0.250646,-0.746781,-0.361167,-0.167104,0.561275,-0.119838,0.144929,-0.256446,-0.948087,28.649640,19.650069,170.656329
20988,NaN,-1.594861,4.900337,8.142739,-1.728774,-0.125605,-0.333414,-0.263311,0.158545,0.486394,-0.117218,0.145210,-0.255695,-0.948575,28.606209,19.598570,170.953873
20989,NaN,-1.744753,5.063646,8.208506,-1.657035,-0.263978,-0.156148,-0.223737,0.449040,0.403700,-0.114641,0.146952,-0.255229,-0.948747,28.598178,19.716098,171.292345
20990,NaN,-1.937442,5.098332,8.260025,-1.529574,-0.298788,-0.037941,-0.219823,0.706617,0.337361,-0.112056,0.149993,-0.254888,-0.948672,28.608129,19.981247,171.670439
20991,NaN,-2.402275,5.233084,8.332597,-1.205551,-0.438294,0.234326,-0.247124,0.913034,0.290603,-0.109403,0.154089,-0.254482,-0.948434,28.615816,20.363138,172.085059
20992,NaN,-3.127746,5.210656,8.475241,-0.628172,-0.437123,0.588144,-0.311197,0.995417,0.257848,-0.106753,0.158645,-0.253796,-0.948168,28.593314,20.795319,172.506833
20993,NaN,-3.638141,5.182499,8.571096,-0.245692,-0.428523,0.832198,-0.417424,0.958131,0.258814,-0.104053,0.163078,-0.252570,-0.948044,28.508302,21.209027,172.919368
20994,NaN,-4.143960,5.167960,8.565123,0.157029,-0.490069,1.002872,-0.542277,0.854135,0.268354,-0.101340,0.167063,-0.250709,-0.948138,28.346274,21.568350,173.306305
20995,NaN,-4.516314,5.035636,8.451883,0.506501,-0.501796,0.989180,-0.687096,0.719773,0.285255,-0.098586,0.170462,-0.248091,-0.948511,28.090900,21.856782,173.663118
20996,NaN,-4.768815,4.767343,8.192725,0.835394,-0.467050,0.754885,-0.778005,0.572099,0.301333,-0.095864,0.173178,-0.244987,-0.949105,27.772949,22.067585,173.984630
20997,NaN,-4.859890,4.422046,7.886957,1.062358,-0.376938,0.390555,-0.822867,0.438750,0.291787,-0.093305,0.175294,-0.241581,-0.949845,27.412381,22.215185,174.262162
20998,NaN,-4.920013,4.151666,7.653598,1.230372,-0.312219,0.107437,-0.808816,0.325982,0.255159,-0.091071,0.176905,-0.238162,-0.950626,27.041507,22.316373,174.486422
20999,NaN,-4.888640,3.862084,7.541119,1.289628,-0.161410,-0.117660,-0.762449,0.243416,0.195730,-0.089253,0.178173,-0.234859,-0.951383,26.674901,22.392276,174.654547
21000,NaN,-4.787540,3.523099,7.538997,1.266061,0.095560,-0.296543,-0.680027,0.197764,0.129559,-0.087879,0.179260,-0.231876,-0.952038,26.337859,22.462470,174.772552
21001,NaN,-4.670278,3.416857,7.503795,1.179431,0.140291,-0.411492,-0.552919,0.154595,0.064953,-0.086972,0.180161,-0.229408,-0.952549,26.054238,22.527579,174.842802
21002,NaN,-4.424123,3.335590,7.493516,0.962964,0.192939,-0.545153,-0.431803,0.108533,0.026104,-0.086416,0.180830,-0.227471,-0.952937,25.827976,22.578833,174.878246
21003,NaN,-4.150562,3.209973,7.467533,0.741292,0.287789,-0.720780,-0.296683,0.052172,0.017337,-0.086082,0.181185,-0.226134,-0.953218,25.670252,22.603441,174.893764
21004,NaN,-3.774941,3.115397,7.448279,0.421562,0.377441,-0.918164,-0.150846,0.009691,0.041019,-0.085821,0.181246,-0.225505,-0.953379,25.597881,22.600136,174.910744
21005,NaN,-3.424634,3.117673,7.483666,0.089995,0.417192,-1.022289,0.016008,-0.019144,0.087843,-0.085515,0.181046,-0.225692,-0.953401,25.627095,22.570469,174.946521
21006,NaN,-3.451927,3.344258,7.593476,0.030740,0.276935,-0.830311,0.164240,0.030002,0.152972,-0.084982,0.180942,-0.226675,-0.953235,25.761337,22.549827,175.031554
21007,NaN,-3.562836,3.763594,7.762449,-0.013896,0.000271,-0.479211,0.268602,0.004422,0.202065,-0.084334,0.180618,-0.228178,-0.952995,25.962051,22.503620,175.137305
21008,NaN,-3.499750,4.314602,8.004981,-0.266779,-0.336657,-0.078257,0.295379,-0.049175,0.224151,-0.083670,0.179998,-0.229816,-0.952777,26.178116,22.423787,175.240199
21009,NaN,-3.411157,4.373564,8.237916,-0.416510,-0.241103,0.106768,0.268083,-0.051570,0.244767,-0.082881,0.179357,-0.231330,-0.952601,26.381285,22.337271,175.353835
21010,NaN,-3.582418,4.489734,8.403927,-0.320430,-0.246519,0.358540,0.260671,-0.021576,0.239671,-0.082080,0.178865,-0.232826,-0.952398,26.583075,22.266930,175.472202
21011,NaN,-3.537449,4.806230,8.417924,-0.427182,-0.484972,0.485714,0.223586,-0.025562,0.212788,-0.081373,0.178402,-0.234110,-0.952231,26.756235,22.201241,175.574618
21012,NaN,-3.373131,4.941564,8.409522,-0.596576,-0.571771,0.474890,0.146131,0.016052,0.200265,-0.080612,0.178181,-0.235040,-0.952108,26.887714,22.159666,175.681167
21013,NaN,-3.455032,4.908113,8.403194,-0.504760,-0.532981,0.487876,0.088413,0.078011,0.184710,-0.079797,0.178298,-0.235696,-0.951992,26.988259,22.153726,175.796735
21014,NaN,-3.408205,4.920233,8.292066,-0.516107,-0.579872,0.384385,0.036199,0.106520,0.165784,-0.078996,0.178592,-0.236107,-0.951902,27.059089,22.166937,175.909528
21015,NaN,-3.243614,4.702332,8.182390,-0.586277,-0.421130,0.140372,0.004269,0.138780,0.156407,-0.078169,0.179065,-0.236361,-0.951819,27.112050,22.199105,176.026630
21016,NaN,-3.207397,4.559030,8.086275,-0.563503,-0.330213,-0.013024,0.010432,0.194880,0.163833,-0.077249,0.179790,-0.236683,-0.951677,27.177319,22.257638,176.163377
21017,NaN,-3.372423,4.454023,8.077688,-0.394812,-0.242111,-0.002178,0.011486,0.240777,0.164799,-0.076267,0.180736,-0.237018,-0.951494,27.247413,22.339338,176.314157
21018,NaN,-3.638713,4.331983,8.057246,-0.127908,-0.148703,0.030433,0.015390,0.257838,0.171424,-0.075242,0.181749,-0.237393,-0.951289,27.324394,22.427606,176.473273
21019,NaN,-3.903886,4.293622,8.110721,0.095248,-0.092008,0.159361,0.009571,0.243624,0.167804,-0.074240,0.182704,-0.237721,-0.951103,27.394903,22.509605,176.626930
21020,NaN,-4.104227,4.274530,8.101890,0.274951,-0.079061,0.221008,-0.006135,0.205472,0.150315,-0.073357,0.183501,-0.237955,-0.950959,27.449930,22.576454,176.759876
21021,NaN,-4.190576,4.199137,8.105315,0.361037,-0.007687,0.225211,-0.021935,0.153381,0.123303,-0.072646,0.184091,-0.238059,-0.950874,27.483490,22.624070,176.863509
21022,NaN,-4.161174,4.075436,8.088319,0.360275,0.099020,0.147526,-0.031934,0.108788,0.086989,-0.072155,0.184513,-0.238075,-0.950825,27.499924,22.658384,176.934065
21023,NaN,-4.066204,3.919870,8.033662,0.319779,0.216092,0.000068,-0.028055,0.073336,0.049850,-0.071882,0.184812,-0.238053,-0.950793,27.505690,22.684695,176.974377
21024,NaN,-4.006795,3.707813,7.962955,0.331162,0.372462,-0.170979,-0.011820,0.047598,0.025086,-0.071777,0.185009,-0.238086,-0.950755,27.513791,22.704282,176.993330
21025,NaN,-3.919828,3.534600,7.921688,0.300402,0.511043,-0.312152,0.023118,0.025866,0.010163,-0.071796,0.185111,-0.238254,-0.950691,27.535211,22.716968,176.998178
21026,NaN,-3.788182,3.347079,7.842531,0.245478,0.648986,-0.508006,0.072500,0.005475,0.003021,-0.071924,0.185105,-0.238652,-0.950583,27.582258,22.721000,176.992906
21027,NaN,-3.758196,3.179222,7.795213,0.271627,0.784402,-0.630762,0.140100,-0.006014,0.017670,-0.072054,0.185004,-0.239370,-0.950412,27.668763,22.715500,176.992728
21028,NaN,-3.634011,3.033245,7.703323,0.222620,0.889443,-0.817850,0.212218,-0.024222,0.030309,-0.072217,0.184773,-0.240447,-0.950173,27.798327,22.697217,176.993898
21029,NaN,-3.522703,3.007255,7.620040,0.158470,0.899656,-0.942317,0.306679,-0.038480,0.068908,-0.072296,0.184396,-0.241992,-0.949848,27.987471,22.661543,177.012381
21030,NaN,-3.253745,3.296578,7.442841,-0.090327,0.605325,-1.067661,0.411351,-0.039497,0.106203,-0.072300,0.183928,-0.244077,-0.949405,28.245326,22.615043,177.050511
21031,NaN,-2.906183,4.020487,7.369377,-0.542226,-0.002964,-0.945685,0.508362,-0.012888,0.165162,-0.072076,0.183481,-0.246675,-0.948837,28.572945,22.565877,177.128729
21032,NaN,-2.794843,4.818440,7.374552,-0.817615,-0.636473,-0.629079,0.555735,0.036336,0.250420,-0.071434,0.183140,-0.249602,-0.948186,28.951973,22.517298,177.267323
21033,NaN,-2.873407,5.358946,7.400169,-0.864344,-1.035155,-0.330163,0.589612,0.088833,0.351354,-0.070274,0.182912,-0.252788,-0.947472,29.376059,22.466091,177.476342
21034,NaN,-3.164640,5.788252,7.446541,-0.691699,-1.326309,0.022545,0.607224,0.109781,0.458158,-0.068601,0.182636,-0.256168,-0.946740,29.835314,22.393387,177.748467
21035,NaN,-3.469180,6.063021,7.431616,-0.445497,-1.507521,0.264650,0.616155,0.094491,0.549935,-0.066516,0.182167,-0.259656,-0.946028,30.314790,22.284903,178.064556
21036,NaN,-3.779010,6.402655,7.478327,-0.217318,-1.705308,0.591365,0.621495,0.033916,0.623811,-0.064168,0.181307,-0.263222,-0.945370,30.804925,22.122302,178.399282
21037,NaN,-4.002230,6.643197,7.489488,-0.024170,-1.828983,0.812557,0.616926,-0.045216,0.674708,-0.061674,0.180007,-0.266771,-0.944789,31.290212,21.903422,178.734139
21038,NaN,-4.198144,6.646485,7.561263,0.186357,-1.716218,0.957268,0.601353,-0.127820,0.685069,-0.059230,0.178301,-0.270236,-0.944285,31.757610,21.638266,179.044879
21039,NaN,-4.501596,6.435211,7.767947,0.504186,-1.357744,1.138066,0.515857,-0.206456,0.562765,-0.057389,0.176414,-0.273149,-0.943914,32.139719,21.370080,179.263773
21040,NaN,-4.574833,6.416477,8.077580,0.535737,-1.116846,1.403941,0.424217,-0.292035,0.399641,-0.056357,0.174366,-0.275468,-0.943683,32.427919,21.108921,179.367319
21041,NaN,-4.557102,6.269159,8.330868,0.523643,-0.813952,1.524680,0.308494,-0.367806,0.239691,-0.056078,0.172216,-0.277067,-0.943626,32.609134,20.860279,179.362175
21042,NaN,-4.444546,6.216158,8.463245,0.435024,-0.673513,1.561763,0.189014,-0.398417,0.076661,-0.056512,0.170176,-0.277963,-0.943707,32.689514,20.647035,179.261805
21043,NaN,-4.159193,6.149685,8.580260,0.182659,-0.546923,1.518941,0.056130,-0.388917,-0.088399,-0.057594,0.168451,-0.278082,-0.943916,32.664092,20.489717,179.079964
21044,NaN,-3.803863,6.056585,8.670670,-0.135218,-0.428892,1.418066,-0.087100,-0.341360,-0.253476,-0.059272,0.167217,-0.277409,-0.944230,32.534075,20.405855,178.828715
21045,NaN,-3.571725,6.213553,8.790328,-0.412659,-0.524142,1.509422,-0.241479,-0.263287,-0.394259,-0.061373,0.166595,-0.275900,-0.944647,32.298282,20.402471,178.531162
21046,NaN,-3.296571,6.346436,8.954076,-0.753434,-0.592192,1.606656,-0.416418,-0.190595,-0.500135,-0.063732,0.166511,-0.273507,-0.945202,31.952443,20.464983,178.201975
21047,NaN,-2.747249,6.372307,9.017964,-1.311268,-0.633288,1.472538,-0.593065,-0.131748,-0.524156,-0.065972,0.166795,-0.270264,-0.945931,31.505768,20.561499,177.879007
21048,NaN,-2.405599,5.991832,8.826004,-1.518639,-0.485374,1.006034,-0.744616,-0.101913,-0.483887,-0.067858,0.167209,-0.266353,-0.946833,30.983385,20.657867,177.585100
21049,NaN,-1.934110,5.547945,8.522274,-1.798605,-0.340044,0.375457,-0.843186,-0.066205,-0.385398,-0.069141,0.167695,-0.262054,-0.947853,30.424722,20.740650,177.353516
21050,NaN,-1.673877,5.086272,8.234867,-1.873287,-0.172904,-0.171872,-0.861266,-0.091466,-0.236579,-0.069741,0.167865,-0.257790,-0.948948,29.881624,20.765734,177.191635
21051,NaN,-1.460745,4.674501,7.236248,-1.712784,-0.399566,-1.253814,-0.817881,0.156007,-0.079661,-0.069307,0.168993,-0.253935,-0.949818,29.418213,20.868507,177.188532
21052,NaN,-1.817669,4.226431,6.556011,-1.107780,-0.430157,-1.892113,-0.638011,0.349648,0.051655,-0.068160,0.170804,-0.251120,-0.950326,29.104764,21.030960,177.312569
21053,NaN,-2.264914,4.204737,6.658594,-0.741108,-0.413216,-1.662446,-0.397560,0.436106,0.076029,-0.066988,0.172917,-0.249483,-0.950458,28.941967,21.230749,177.475355
21054,NaN,-2.647258,4.311527,6.954882,-0.521781,-0.386796,-1.236808,-0.149704,0.410316,0.115644,-0.065879,0.174768,-0.249060,-0.950308,28.927895,21.406515,177.651193
21055,NaN,-2.774019,4.223900,7.061276,-0.439588,-0.256506,-1.144409,0.079528,0.336955,0.119579,-0.065038,0.176194,-0.249692,-0.949937,29.037204,21.544626,177.808084
21056,NaN,-2.545758,4.217489,7.037016,-0.666050,-0.232866,-1.251746,0.235210,0.424424,0.102693,-0.064309,0.178001,-0.251088,-0.949281,29.243978,21.730456,177.982251
21057,NaN,-2.613840,4.206462,7.213763,-0.690298,-0.102212,-1.090440,0.355050,0.649915,0.069778,-0.063555,0.180884,-0.253082,-0.948257,29.538111,22.037759,178.208686
21058,NaN,-2.986374,4.240114,7.562227,-0.516305,0.081417,-0.657881,0.432156,0.877296,0.053884,-0.062661,0.184832,-0.255507,-0.946904,29.903212,22.461117,178.498387
21059,NaN,-3.486282,4.337972,7.884217,-0.249256,0.205715,-0.167595,0.444097,0.953528,0.051280,-0.061687,0.189140,-0.257991,-0.945442,30.286035,22.921640,178.814813
21060,NaN,-3.842099,4.480956,7.828142,-0.013158,0.108370,-0.009233,0.414454,1.007003,0.059740,-0.060579,0.193689,-0.260363,-0.943942,30.665767,23.403746,179.156664
21061,NaN,-4.724140,4.614646,8.565853,0.436110,0.418277,0.986400,0.254630,0.965862,0.058130,-0.059371,0.198094,-0.261949,-0.942665,30.951276,23.864655,179.489195
21062,NaN,-5.536592,4.530780,8.605360,1.104592,0.547823,1.309961,0.099974,0.756822,0.069598,-0.058233,0.201536,-0.262761,-0.941780,31.127863,24.217904,179.762923
21063,NaN,-5.174479,4.561779,7.983316,0.928444,0.225134,0.694717,-0.062852,0.531277,0.124844,-0.056962,0.203894,-0.262782,-0.941344,31.193716,24.444079,179.994858
21064,NaN,-4.940122,4.050547,7.494177,0.963818,0.418730,-0.021360,-0.159784,0.394097,0.181836,-0.055508,0.205552,-0.262376,-0.941183,31.200387,24.585573,-179.787151
21065,NaN,-4.954037,3.759330,7.222936,1.113196,0.533652,-0.361664,-0.124555,0.322981,0.203190,-0.054078,0.206842,-0.262125,-0.941054,31.221580,24.686230,-179.580235
21066,NaN,-5.089428,3.760236,7.140865,1.249184,0.501392,-0.366962,-0.044177,0.277721,0.200062,-0.052809,0.207896,-0.262247,-0.940860,31.283603,24.765130,-179.389957
21067,NaN,-5.172030,3.754711,6.989713,1.367419,0.444535,-0.451258,0.057162,0.226660,0.175101,-0.051826,0.208719,-0.262795,-0.940579,31.390041,24.826606,-179.229290
21068,NaN,-5.383357,3.905458,7.118833,1.468442,0.405802,-0.190325,0.149445,0.221383,0.113814,-0.051238,0.209570,-0.263722,-0.940163,31.536289,24.903158,-179.103477
21069,NaN,-5.484162,4.047496,7.382947,1.420089,0.446865,0.124604,0.216956,0.174393,0.047894,-0.051089,0.210274,-0.264873,-0.939690,31.698703,24.976627,-179.028055
21070,NaN,-5.580383,4.283769,7.347188,1.460947,0.252806,0.250821,0.237972,0.095190,0.018030,-0.051211,0.210635,-0.266082,-0.939261,31.856674,25.020022,-178.995101
21071,NaN,-5.431889,4.221091,7.124817,1.418204,0.210630,-0.013181,0.256248,-0.020327,0.009979,-0.051539,0.210463,-0.267328,-0.938927,32.005760,25.009921,-179.004651
21072,NaN,-4.811076,4.232468,6.970437,0.916426,0.133236,-0.389865,0.336164,-0.145308,0.001082,-0.052164,0.209692,-0.268917,-0.938612,32.182146,24.941610,-179.061252
21073,NaN,-4.231452,4.352480,7.007745,0.365238,0.070236,-0.548816,0.425797,-0.197584,0.014692,-0.052885,0.208636,-0.270915,-0.938232,32.404251,24.844269,-179.128162
21074,NaN,-3.815785,4.453171,7.081334,-0.044024,0.055610,-0.618611,0.536052,-0.198154,0.040547,-0.053605,0.207509,-0.273466,-0.937701,32.696390,24.738699,-179.182215
21075,NaN,-3.688434,4.659789,7.198107,-0.230249,-0.010384,-0.481152,0.615588,-0.156682,0.075624,-0.054181,0.206508,-0.276424,-0.937021,33.046375,24.642710,-179.203822
21076,NaN,-3.715401,5.082080,7.397239,-0.354502,-0.201085,-0.107819,0.651811,-0.102751,0.100939,-0.054605,0.205709,-0.279601,-0.936229,33.431425,24.564485,-179.194403
21077,NaN,-3.728842,5.572732,7.549822,-0.493002,-0.467715,0.261900,0.625617,-0.052412,0.109275,-0.054888,0.205143,-0.282663,-0.935417,33.809078,24.507834,-179.163350
21078,NaN,-3.812151,5.965615,7.831409,-0.595508,-0.579483,0.711633,0.538612,-0.010480,0.120050,-0.054975,0.204776,-0.285349,-0.934677,34.146390,24.467209,-179.112610
21079,NaN,-4.088946,6.241754,8.071478,-0.480293,-0.621428,1.151377,0.381849,-0.048056,0.136645,-0.054874,0.204255,-0.287296,-0.934200,34.390550,24.403475,-179.066510
21080,NaN,-3.691792,6.049380,7.803633,-0.694939,-0.582317,0.689641,0.239926,-0.055790,0.122936,-0.054707,0.203752,-0.288575,-0.933925,34.550434,24.340097,-179.030845
21081,NaN,-3.528092,5.992846,7.747790,-0.806115,-0.546711,0.552694,0.137892,0.052544,0.109363,-0.054339,0.203806,-0.289382,-0.933686,34.663545,24.332434,-178.963387
21082,NaN,-3.492774,5.755733,7.685831,-0.767019,-0.371604,0.369332,0.047513,0.130616,0.090376,-0.053858,0.204272,-0.289779,-0.933488,34.733646,24.367331,-178.878118
21083,NaN,-3.340761,5.643033,7.540130,-0.838091,-0.354747,0.138685,-0.001313,0.195344,0.098545,-0.053192,0.205046,-0.289963,-0.933300,34.785919,24.430257,-178.765019
21084,NaN,-3.304311,5.414122,7.466884,-0.808693,-0.201150,-0.050972,-0.034034,0.279850,0.122854,-0.052260,0.206182,-0.290052,-0.933074,34.838727,24.524551,-178.609175
21085,NaN,-3.371165,5.379892,7.321999,-0.706066,-0.246646,-0.150375,-0.055613,0.353779,0.179582,-0.050930,0.207591,-0.290107,-0.932818,34.901501,24.635211,-178.396818
21086,NaN,-3.767924,5.435650,7.301297,-0.368312,-0.286278,0.027782,-0.076709,0.393212,0.233330,-0.049274,0.209106,-0.290139,-0.932559,34.971557,24.746164,-178.142439
21087,NaN,-4.299281,5.513807,7.314616,0.075324,-0.319133,0.300766,-0.117925,0.393822,0.275249,-0.047373,0.210576,-0.290009,-0.932367,35.026443,24.843744,-177.865487
21088,NaN,-4.768653,5.716480,7.357903,0.429719,-0.440309,0.636159,-0.184461,0.336780,0.297750,-0.045385,0.211757,-0.289590,-0.932329,35.041166,24.906626,-177.597665
21089,NaN,-4.989301,5.792537,7.388748,0.596149,-0.478669,0.791825,-0.263074,0.253170,0.278696,-0.043519,0.212598,-0.288752,-0.932486,34.992843,24.936993,-177.369602
21090,NaN,-5.158352,5.803032,7.442672,0.726602,-0.461040,0.908162,-0.316725,0.145644,0.210987,-0.042071,0.213041,-0.287579,-0.932814,34.883959,24.938979,-177.215859
21091,NaN,-4.805099,5.988899,7.692777,0.279420,-0.516506,1.040412,-0.390097,0.043615,0.104556,-0.041183,0.213181,-0.285916,-0.933333,34.692911,24.928492,-177.153818
21092,NaN,-4.077807,5.879185,7.769051,-0.383358,-0.455167,0.732318,-0.502842,0.036235,0.013944,-0.040612,0.213433,-0.283639,-0.933995,34.417626,24.943828,-177.141840
21093,NaN,-3.468928,5.937582,7.882371,-0.992536,-0.521769,0.587431,-0.600242,0.117785,-0.022859,-0.039990,0.214141,-0.280870,-0.934696,34.089304,25.010083,-177.119851
21094,NaN,-2.949228,6.197319,7.868797,-1.515930,-0.834193,0.484319,-0.742469,0.181089,0.036325,-0.038853,0.215084,-0.277522,-0.935527,33.703285,25.087265,-177.045230
21095,NaN,-2.999487,5.526127,7.516797,-1.209056,-0.525927,-0.101952,-0.866111,0.153180,0.198256,-0.036860,0.215695,-0.273747,-0.936578,33.276987,25.100786,-176.895173
21096,NaN,-3.443468,4.847377,7.158089,-0.533195,-0.184937,-0.524311,-0.860556,0.095372,0.366409,-0.034168,0.215796,-0.270176,-0.937694,32.884418,25.034501,-176.676438
21097,NaN,-4.054547,4.650873,7.109215,0.095570,-0.065607,-0.400078,-0.807337,0.014544,0.516614,-0.030933,0.215306,-0.266984,-0.938832,32.542767,24.884450,-176.404829
21098,NaN,-4.839718,4.631390,7.188260,0.815291,-0.006884,-0.020921,-0.749911,-0.107312,0.620344,-0.027440,0.214087,-0.264161,-0.940017,32.240647,24.644536,-176.119001
21099,NaN,-5.197876,4.523608,7.322060,1.159922,0.139082,0.173718,-0.715501,-0.304027,0.690173,-0.023910,0.211845,-0.261529,-0.941357,31.943992,24.289695,-175.860676
21100,NaN,-4.947669,4.237459,7.395324,1.016991,0.372172,-0.017128,-0.655784,-0.442804,0.677351,-0.020689,0.208950,-0.259153,-0.942736,31.660278,23.871909,-175.654261
21101,NaN,-4.008705,4.153961,7.664439,0.137058,0.478764,-0.230396,-0.581393,-0.413643,0.553074,-0.018088,0.206346,-0.256982,-0.943957,31.394377,23.506945,-175.502671
21102,NaN,-3.376766,4.047706,7.937810,-0.487383,0.625763,-0.317107,-0.480964,-0.102599,0.292843,-0.016424,0.205528,-0.255054,-0.944688,31.172176,23.371878,-175.388053
21103,NaN,-3.092104,5.032147,8.380757,-1.049878,-0.070426,0.386006,-0.426578,0.301873,0.020685,-0.015582,0.206965,-0.253122,-0.944908,30.973983,23.516599,-175.287739
21104,NaN,-2.980545,6.614800,9.067451,-1.667498,-1.173700,1.619687,-0.549000,0.585174,-0.141055,-0.015022,0.209949,-0.250476,-0.944964,30.708766,23.848115,-175.184261
21105,NaN,-2.023908,7.920229,9.281188,-2.857556,-2.371332,1.984615,-0.923098,0.736589,-0.161548,-0.013972,0.213701,-0.246033,-0.945307,30.242801,24.261405,-175.045340
21106,NaN,-1.944105,5.927912,7.917209,-2.178556,-1.389530,-0.069824,-1.339870,0.690940,-0.057070,-0.012043,0.217122,-0.239731,-0.946172,29.556218,24.622908,-174.868276
21107,NaN,-1.198028,2.269985,5.657423,-1.509862,0.648002,-3.821492,-1.270647,0.644472,0.174357,-0.009145,0.220036,-0.233979,-0.946971,28.954482,24.898703,-174.581797
21108,NaN,-2.491427,0.313062,4.655272,0.272148,2.011392,-4.928338,-0.642241,0.769424,0.537059,-0.005079,0.223074,-0.231610,-0.946873,28.815829,25.137881,-174.058133
21109,NaN,-5.471220,0.370562,5.091837,2.728783,2.456884,-3.292302,0.041698,0.616305,0.942662,-0.000028,0.224898,-0.232908,-0.946137,29.144844,25.187522,-173.355358
21110,NaN,-7.278435,1.529185,5.216990,4.168600,1.756079,-1.934315,0.549122,0.154509,1.238460,0.005310,0.224180,-0.236942,-0.945290,29.772748,24.917544,-172.633905
21111,NaN,-7.607277,2.600550,5.582472,4.238914,1.135391,-1.064094,0.912207,-0.223418,1.334315,0.010250,0.221564,-0.242784,-0.944384,30.572350,24.425209,-171.985566
21112,NaN,-7.292722,4.829323,6.792081,3.319901,-0.165099,0.750757,1.205279,-0.564757,1.187960,0.013755,0.217508,-0.249859,-0.943436,31.453665,23.799409,-171.537530
21113,NaN,-5.005273,7.079574,8.363548,0.510699,-1.546032,2.123300,1.143427,-0.800065,0.905239,0.015703,0.212679,-0.256321,-0.942773,32.198304,23.139208,-171.328655
21114,NaN,-3.020881,7.411918,9.138380,-1.536863,-1.600594,2.130785,0.835541,-0.650980,0.641110,0.016920,0.208852,-0.261037,-0.942313,32.727842,22.629790,-171.217818
21115,NaN,-2.000247,7.311926,9.092353,-2.365434,-1.584896,1.677662,0.487949,-0.460139,0.519467,0.018179,0.206052,-0.263953,-0.942094,33.054798,22.249711,-171.110216
21116,NaN,-1.419765,6.790655,8.776170,-2.672018,-1.319111,0.970158,0.217851,-0.295956,0.530389,0.019979,0.203978,-0.265601,-0.942045,33.249916,21.944021,-170.943950
21117,NaN,-2.292735,5.919882,8.540434,-1.671668,-0.530013,0.683269,0.054103,-0.092624,0.576508,0.022438,0.202788,-0.266491,-0.941996,33.383215,21.721227,-170.685835
21118,NaN,-3.826697,5.652268,8.535645,-0.214236,-0.051046,1.114362,-0.030701,0.036338,0.519913,0.024884,0.202263,-0.266919,-0.941926,33.473591,21.576920,-170.414273
21119,NaN,-4.057596,6.140785,8.614681,-0.043207,-0.385260,1.511434,-0.142672,0.042946,0.306834,0.026453,0.202045,-0.266590,-0.942023,33.458530,21.503504,-170.249832
21120,NaN,-4.060660,5.319708,7.497258,0.454599,-0.240828,0.223867,-0.258277,0.108851,0.045405,0.026990,0.202464,-0.265456,-0.942238,33.337408,21.543659,-170.197837
21121,NaN,-3.626863,4.229892,6.278133,0.589984,0.014057,-1.439351,-0.121303,0.250267,-0.059075,0.027089,0.203712,-0.264829,-0.942143,33.291329,21.685061,-170.151377
21122,NaN,-4.545735,3.454567,5.901091,1.611073,0.643339,-1.787031,0.129637,0.125016,0.037464,0.027216,0.204271,-0.265512,-0.941826,33.393154,21.735513,-170.097953
21123,NaN,-4.039045,4.085821,4.976594,1.476638,-0.406116,-2.367636,0.445951,0.012255,0.229660,0.027780,0.204091,-0.267882,-0.941177,33.697278,21.671665,-169.983558
21124,NaN,-4.259997,4.373788,5.861425,1.319830,-0.125973,-1.453523,0.756901,-0.171710,0.427846,0.028709,0.202815,-0.271953,-0.940257,34.194374,21.455692,-169.832154
21125,NaN,-3.667706,4.850510,6.827660,0.394184,-0.060205,-0.678329,0.967109,-0.313983,0.578725,0.029943,0.200695,-0.277165,-0.939151,34.818749,21.122736,-169.656015
21126,NaN,-4.094539,5.442156,8.591529,0.107238,0.519502,1.137827,0.957220,-0.464188,0.629842,0.031214,0.197785,-0.282407,-0.938165,35.426400,20.700278,-169.511921
21127,NaN,-3.230095,5.156312,8.612915,-0.613498,0.735643,0.688953,0.826258,-0.610245,0.650734,0.032509,0.194137,-0.287055,-0.937472,35.940336,20.202080,-169.414004
21128,NaN,-1.924074,5.415978,7.715173,-1.418498,-0.077662,-0.297463,0.814540,-0.552735,0.683958,0.034049,0.190697,-0.291672,-0.936698,36.458972,19.717897,-169.284546
21129,NaN,-2.118277,5.966763,6.762025,-0.851560,-0.912431,-0.633596,0.855789,-0.311302,0.698345,0.035972,0.188373,-0.296433,-0.935601,37.028974,19.339017,-169.065087
21130,NaN,-3.547325,5.965023,6.827220,0.483763,-0.519147,-0.103340,0.927301,-0.151650,0.605577,0.037624,0.186934,-0.301416,-0.934232,37.643147,19.062416,-168.836690
21131,NaN,-4.431955,5.827494,7.526410,1.073554,0.246149,0.629277,0.976978,-0.181103,0.416352,0.038305,0.185652,-0.306437,-0.932825,38.249499,18.837459,-168.712670
21132,NaN,-3.982657,6.491724,7.758144,0.561006,-0.136578,1.043576,1.003106,-0.264022,0.237946,0.037998,0.184250,-0.311434,-0.931459,38.833673,18.637275,-168.707419
21133,NaN,-1.679426,7.179314,7.675731,-1.568262,-1.064852,0.660415,0.834248,-0.314192,0.016763,0.036741,0.182928,-0.315431,-0.930425,39.280046,18.495132,-168.826529
21134,NaN,-1.350004,6.373323,7.985310,-1.948945,-0.225319,0.304495,0.682614,-0.139258,-0.028932,0.035681,0.182456,-0.318655,-0.929460,39.655249,18.447251,-168.901255
21135,NaN,-1.706987,6.434595,7.632104,-1.501883,-0.346735,0.196838,0.624574,0.100239,0.087073,0.035598,0.182905,-0.321657,-0.928340,40.042176,18.463169,-168.829345
21136,NaN,-2.910909,6.434005,7.296899,-0.279252,-0.261004,0.334635,0.517619,0.257528,0.130342,0.036063,0.183987,-0.324183,-0.927229,40.395023,18.530829,-168.676489
21137,NaN,-4.186346,6.518807,7.237980,0.900684,-0.069812,0.751038,0.482823,0.241589,0.125706,0.036516,0.185002,-0.326531,-0.926185,40.724271,18.593035,-168.531040
21138,NaN,-4.737165,6.706647,7.131813,1.423505,-0.126633,0.968780,0.415785,0.078893,0.046585,0.036395,0.185372,-0.328536,-0.925406,40.984575,18.613056,-168.486231
21139,NaN,-4.031699,6.142563,6.565396,1.001129,-0.117556,-0.010956,0.393224,-0.128246,-0.000235,0.035742,0.184862,-0.330417,-0.924864,41.197621,18.561706,-168.544472
21140,NaN,-3.226088,5.931603,6.372317,0.338407,-0.183738,-0.536396,0.487598,-0.226191,-0.023239,0.034729,0.183948,-0.332740,-0.924252,41.450342,18.476556,-168.652898
21141,NaN,-2.614239,5.372392,6.178060,-0.122912,0.063983,-1.219326,0.614920,-0.183099,0.041712,0.033975,0.183150,-0.335689,-0.923371,41.789452,18.386260,-168.714647
21142,NaN,-2.635200,4.904648,6.044420,-0.023060,0.408695,-1.604954,0.841030,-0.089305,0.218859,0.033984,0.182518,-0.339836,-0.921978,42.296231,18.267758,-168.660214
21143,NaN,-1.848991,5.473063,6.154101,-0.824649,-0.024476,-1.412402,1.046835,-0.078998,0.342672,0.034397,0.181760,-0.345021,-0.920185,42.937530,18.105632,-168.547443
21144,NaN,-1.876469,5.722308,6.832080,-1.055423,0.316019,-0.772308,1.155869,0.044822,0.382849,0.035104,0.181508,-0.350724,-0.918050,43.662993,17.977487,-168.368500
21145,NaN,-1.668694,6.244800,7.183231,-1.413773,0.222392,-0.255941,1.212404,0.167763,0.402128,0.036067,0.181796,-0.356656,-0.915667,44.437051,17.890664,-168.131133
21146,NaN,-0.551754,6.239667,7.429767,-2.559031,0.284481,-0.442062,1.158877,0.459593,0.527866,0.038168,0.183171,-0.362401,-0.913048,45.235622,17.867880,-167.718064
21147,NaN,-1.415720,6.497172,6.434688,-1.437504,-0.257034,-0.675456,1.185629,0.717551,0.683000,0.041423,0.185444,-0.368330,-0.910070,46.102193,17.879724,-167.128536
21148,NaN,-2.645129,6.541590,5.446659,0.041901,-0.546213,-0.915863,1.275356,0.707357,0.882540,0.045478,0.187303,-0.374842,-0.906831,47.045017,17.794932,-166.461449
21149,NaN,-3.620474,6.252518,4.541293,1.294311,-0.575586,-1.397426,1.428412,0.494734,1.044969,0.049727,0.187921,-0.382207,-0.903400,48.063124,17.549113,-165.824469
21150,NaN,-5.011653,5.585923,4.367209,2.695545,0.265146,-1.563270,1.716342,0.087948,1.130587,0.053307,0.186584,-0.391029,-0.899689,49.197512,17.100348,-165.343468
21151,NaN,-4.399904,5.911390,4.633469,2.046063,0.258590,-1.355963,2.033907,-0.304697,1.165393,0.055976,0.183481,-0.401357,-0.895608,50.457055,16.482459,-165.039288
21152,NaN,-4.107574,6.079954,5.071304,1.646494,0.585205,-1.066344,2.333594,-0.411796,1.112597,0.057907,0.180054,-0.412958,-0.890895,51.862562,15.842368,-164.821180
21153,NaN,-4.560208,6.728344,6.085867,1.699523,1.246996,0.119794,2.630476,-0.331822,0.994779,0.059204,0.177285,-0.425662,-0.885368,53.428616,15.279189,-164.625184
21154,NaN,-5.291592,8.275400,7.326373,1.876087,1.680459,2.179169,2.920187,-0.215574,0.860424,0.059880,0.175357,-0.439415,-0.878965,55.158164,14.811569,-164.437556
21155,NaN,-5.789500,10.253976,8.665075,1.769369,2.014152,4.558870,3.025458,-0.197437,0.908333,0.060703,0.173399,-0.453548,-0.872091,56.947637,14.322250,-164.239987
21156,NaN,-5.554822,12.013311,9.099702,1.339369,1.740773,6.097497,2.976976,-0.271289,1.267050,0.062947,0.170240,-0.467697,-0.865052,58.722943,13.630152,-163.983366
21157,NaN,-4.644515,12.692709,8.633077,0.712906,1.264355,6.158408,2.800825,-0.295033,1.767291,0.067434,0.165713,-0.481380,-0.858059,60.418620,12.677354,-163.611749
21158,NaN,-3.821041,11.294236,7.609617,0.499101,1.447158,4.247979,2.750697,-0.153595,2.218296,0.074215,0.160636,-0.495042,-0.850659,62.115553,11.526097,-163.071447
21159,NaN,-3.677715,10.967234,7.327401,0.619598,1.816082,3.744341,2.832045,0.145599,2.494352,0.082824,0.156130,-0.508985,-0.842436,63.883068,10.296809,-162.339935
21160,NaN,-4.085878,12.235369,7.519966,1.053787,2.016158,4.943552,2.850214,0.429131,2.601772,0.092559,0.152490,-0.522794,-0.833586,65.669082,9.058859,-161.475124
21161,NaN,-4.136831,13.080019,7.550564,1.226355,2.235260,5.636694,2.722963,0.628845,2.611818,0.102924,0.149546,-0.535784,-0.824608,67.372598,7.836339,-160.542827
21162,NaN,-3.791630,12.957237,7.394154,1.078937,2.562680,5.326213,2.494711,0.812738,2.430531,0.113166,0.147671,-0.547428,-0.815910,68.930232,6.723182,-159.589480
21163,NaN,-3.661195,12.501736,7.308475,1.050015,3.074100,4.766181,2.224828,1.005569,2.010784,0.122394,0.147543,-0.557387,-0.807818,70.314577,5.850517,-158.646678
21164,NaN,-2.810552,11.717479,6.782465,0.430665,2.954178,3.688379,1.940786,1.459030,1.453566,0.130815,0.150587,-0.565394,-0.800338,71.537539,5.342921,-157.583830
21165,NaN,-2.637975,10.953486,7.045150,0.069228,3.641571,2.966218,1.691693,1.300780,0.817461,0.136412,0.154613,-0.571926,-0.793969,72.591021,5.133704,-156.730779
21166,NaN,-1.858124,10.546453,6.090253,-0.380635,2.829089,2.171456,1.417108,0.985965,0.176660,0.138760,0.159013,-0.577037,-0.788980,73.461331,5.208313,-156.162745
21167,NaN,-1.914266,10.382203,5.571206,-0.237313,2.578778,1.839971,1.127490,0.590021,-0.351204,0.138108,0.163169,-0.580818,-0.785463,74.138482,5.502856,-155.896689
21168,NaN,-1.221586,10.089931,5.229451,-0.843214,2.161075,1.379443,0.815407,0.003694,-0.714037,0.134576,0.165850,-0.583466,-0.783550,74.601563,5.904012,-156.009358
21169,NaN,0.107608,9.655782,4.532187,-1.856382,1.183547,0.624694,0.570539,-0.608502,-0.849594,0.128928,0.166362,-0.585430,-0.782926,74.884792,6.288947,-156.479953
21170,NaN,1.306198,9.533527,3.601243,-2.633743,-0.033089,0.118330,0.438821,-0.987954,-0.785812,0.122521,0.165106,-0.587157,-0.782928,75.067978,6.583697,-157.151442
21171,NaN,2.528064,9.669377,2.818792,-3.490911,-1.183180,-0.104610,0.372187,-1.030852,-0.531432,0.117035,0.162892,-0.588829,-0.782975,75.211375,6.733602,-157.808276
21172,NaN,3.527326,9.436121,2.337043,-4.251555,-1.860942,-0.571204,0.322370,-0.893205,-0.152842,0.113472,0.160062,-0.590522,-0.782808,75.341771,6.694791,-158.332957
21173,NaN,4.031453,9.191405,2.152600,-4.644858,-2.082597,-0.898879,0.297055,-0.533674,0.302882,0.112774,0.157283,-0.592260,-0.782158,75.488816,6.456940,-158.590270
21174,NaN,3.520828,9.311504,2.154960,-4.139880,-1.876764,-0.697710,0.253595,-0.107893,0.731773,0.115046,0.154865,-0.593924,-0.781047,75.645631,6.041908,-158.549327
21175,NaN,2.529523,9.477736,2.139384,-3.149702,-1.536125,-0.404081,0.103938,0.219817,1.018391,0.119525,0.152793,-0.595019,-0.779949,75.738097,5.514746,-158.285108
21176,NaN,2.080652,9.133386,1.970716,-2.586843,-1.406865,-0.704461,-0.056280,0.463130,1.096777,0.125151,0.151328,-0.595391,-0.779068,75.750367,4.977317,-157.875479
21177,NaN,1.224304,9.006351,1.985950,-1.718886,-1.028110,-0.727254,-0.163771,0.673398,1.046779,0.131286,0.150766,-0.595147,-0.778353,75.705810,4.498291,-157.355288
21178,NaN,0.158092,8.827158,1.824682,-0.601613,-0.710951,-0.845785,-0.283676,0.711608,0.934925,0.137184,0.150592,-0.594311,-0.778008,75.589635,4.086583,-156.830128
21179,NaN,-0.598194,8.709717,1.790013,0.169668,-0.413587,-0.912071,-0.352795,0.637738,0.804774,0.142405,0.150475,-0.593133,-0.777992,75.425665,3.738690,-156.363268
21180,NaN,-0.694971,8.359086,1.708369,0.334378,-0.360029,-1.266686,-0.383874,0.524564,0.675473,0.146806,0.150266,-0.591810,-0.778222,75.236914,3.446530,-155.977901
21181,NaN,-0.149087,7.766817,1.458942,-0.043530,-0.656818,-1.936095,-0.363034,0.471047,0.547278,0.150533,0.150249,-0.590493,-0.778513,75.054897,3.219706,-155.639505
21182,NaN,-0.292565,7.984429,1.564384,0.090300,-0.567974,-1.691530,-0.201438,0.637889,0.416497,0.154118,0.151378,-0.589579,-0.778286,74.969159,3.089811,-155.228317
21183,NaN,-0.594705,8.258519,1.523449,0.421174,-0.551541,-1.422450,-0.225511,0.802129,0.356765,0.157971,0.153310,-0.588382,-0.778041,74.872594,3.019063,-154.734136
21184,NaN,-0.759682,7.979003,1.538959,0.560808,-0.402680,-1.680448,-0.262232,0.916209,0.259388,0.161806,0.155931,-0.586872,-0.777872,74.757949,3.019210,-154.192063
21185,NaN,-0.348174,7.646305,1.418541,0.227467,-0.610890,-2.055464,-0.240044,1.063055,0.178570,0.165735,0.159384,-0.585244,-0.777572,74.659321,3.088202,-153.580176
21186,NaN,-0.840080,7.834061,1.398653,0.685894,-0.467400,-1.853696,-0.131863,1.245453,0.076054,0.169708,0.163920,-0.583790,-0.776865,74.629275,3.241203,-152.883704
21187,NaN,-1.226995,8.073381,1.501057,0.984268,-0.271664,-1.572812,-0.138764,1.332888,-0.001203,0.173634,0.169017,-0.582140,-0.776143,74.598919,3.451535,-152.149816
21188,NaN,-1.272268,8.034569,1.553186,0.973193,-0.205438,-1.591011,-0.198378,1.354269,-0.094334,0.177304,0.174401,-0.580142,-0.775618,74.537998,3.716153,-151.419044
21189,NaN,-1.180060,8.047064,1.636219,0.824622,-0.200502,-1.560131,-0.228213,1.317098,-0.186838,0.180525,0.179883,-0.577947,-0.775261,74.460598,4.028028,-150.722383
21190,NaN,-1.085199,8.290954,1.599264,0.746432,-0.367559,-1.340213,-0.273683,1.253764,-0.241588,0.183383,0.185220,-0.575566,-0.775105,74.358559,4.360463,-150.070153
21191,NaN,-1.121699,8.442211,1.565468,0.775572,-0.450509,-1.200185,-0.340775,1.173213,-0.276168,0.185931,0.190284,-0.572935,-0.775221,74.217224,4.701845,-149.467574
21192,NaN,-1.089092,8.361447,1.523377,0.736835,-0.517478,-1.291555,-0.402817,1.081548,-0.287497,0.188224,0.194951,-0.570125,-0.775579,74.040081,5.035782,-148.918840
21193,NaN,-1.059368,8.333861,1.477055,0.711562,-0.605224,-1.334221,-0.449211,1.001930,-0.287343,0.190331,0.199269,-0.567183,-0.776125,73.834726,5.359830,-148.414248
21194,NaN,-0.995670,8.321233,1.437688,0.659877,-0.711685,-1.365256,-0.479789,0.945146,-0.275275,0.192381,0.203317,-0.564163,-0.776770,73.611783,5.669568,-147.935290
21195,NaN,-0.921717,8.412166,1.411342,0.603668,-0.845336,-1.296422,-0.498468,0.926402,-0.270880,0.194376,0.207235,-0.561084,-0.777468,73.379525,5.976143,-147.471705
21196,NaN,-0.916612,8.523964,1.415163,0.592747,-0.926435,-1.193466,-0.500719,0.930376,-0.264094,0.196437,0.211161,-0.557976,-0.778130,73.148804,6.281064,-147.001173
21197,NaN,-0.893489,8.631989,1.448863,0.550257,-0.993516,-1.088084,-0.483163,0.955545,-0.259883,0.198528,0.215164,-0.554907,-0.778698,72.932037,6.590137,-146.521599
21198,NaN,-0.829920,8.648272,1.504316,0.454375,-1.038092,-1.068545,-0.455371,0.992372,-0.265768,0.200691,0.219364,-0.551880,-0.779122,72.736182,6.909866,-146.019477
21199,NaN,-0.690759,8.626581,1.546458,0.298211,-1.123655,-1.098628,-0.419271,1.056483,-0.283794,0.202886,0.223876,-0.548896,-0.779378,72.567555,7.252486,-145.489875
21200,NaN,-0.552493,8.732632,1.545259,0.173954,-1.283229,-1.022080,-0.381895,1.132009,-0.302664,0.205191,0.228778,-0.545937,-0.779429,72.428780,7.619256,-144.918858
21201,NaN,-0.395895,8.840510,1.532796,0.039451,-1.464246,-0.951818,-0.345604,1.219214,-0.313711,0.207616,0.234065,-0.542999,-0.779270,72.320453,8.008985,-144.305595
21202,NaN,-0.289364,9.003044,1.536833,-0.061356,-1.623078,-0.820357,-0.310043,1.306436,-0.306012,0.210282,0.239709,-0.540091,-0.778860,72.244069,8.410081,-143.639393
21203,NaN,-0.251009,9.097139,1.567622,-0.129092,-1.699941,-0.736802,-0.274640,1.394938,-0.275904,0.213226,0.245629,-0.537239,-0.778187,72.200389,8.811539,-142.922292
21204,NaN,-0.339788,9.150173,1.558534,-0.075584,-1.713148,-0.684194,-0.221391,1.456957,-0.230893,0.216459,0.251725,-0.534552,-0.777196,72.199170,9.198895,-142.158965
21205,NaN,-0.445957,9.154079,1.662363,-0.084702,-1.611036,-0.638990,-0.163510,1.495817,-0.189299,0.219848,0.257897,-0.532073,-0.775922,72.240582,9.570783,-141.369201
21206,NaN,-0.544598,9.163868,1.716549,-0.072347,-1.544308,-0.602402,-0.096991,1.503736,-0.151519,0.223332,0.264070,-0.529858,-0.774365,72.327494,9.921824,-140.563746
21207,NaN,-0.677802,9.188074,1.800361,-0.056449,-1.432482,-0.535505,-0.026257,1.489250,-0.112206,0.226797,0.270134,-0.527958,-0.772561,72.459287,10.248109,-139.761256
21208,NaN,-0.840596,9.207379,1.925542,-0.051676,-1.263721,-0.453716,0.042718,1.449005,-0.083655,0.230185,0.276040,-0.526379,-0.770547,72.632536,10.548932,-138.971502
21209,NaN,-0.981108,9.150925,1.962844,-0.016200,-1.136471,-0.471232,0.109633,1.394181,-0.056951,0.233404,0.281719,-0.525132,-0.768371,72.843088,10.824064,-138.208859
21210,NaN,-1.146267,9.036395,2.050215,-0.005207,-0.931665,-0.522609,0.181265,1.316160,-0.042319,0.236383,0.287137,-0.524247,-0.766055,73.091160,11.074150,-137.482885
21211,NaN,-1.310878,8.923729,2.128566,0.005729,-0.727044,-0.574001,0.254793,1.213039,-0.030958,0.238999,0.292198,-0.523761,-0.763658,73.373326,11.298602,-136.813482
21212,NaN,-1.450887,8.848241,2.193947,0.005148,-0.552638,-0.598341,0.340298,1.097331,-0.019032,0.241246,0.296885,-0.523737,-0.761156,73.695282,11.493290,-136.202639
21213,NaN,-1.564092,8.835289,2.324246,-0.061445,-0.368147,-0.551410,0.421492,0.974205,-0.011258,0.243051,0.301165,-0.524167,-0.758600,74.051841,11.661525,-135.660780
21214,NaN,-1.659859,8.811083,2.421302,-0.121543,-0.207390,-0.528566,0.497746,0.843207,-0.005279,0.244431,0.305022,-0.525042,-0.756006,74.439537,11.801574,-135.188252
21215,NaN,-1.742047,8.820322,2.549331,-0.214686,-0.041682,-0.470112,0.565341,0.715425,0.001763,0.245377,0.308448,-0.526326,-0.753413,74.852092,11.916184,-134.787651
21216,NaN,-1.816772,8.821838,2.615003,-0.269947,0.086127,-0.438091,0.613559,0.579494,0.002740,0.245909,0.311419,-0.527950,-0.750877,75.277759,12.006286,-134.460368
21217,NaN,-1.866449,8.852984,2.747220,-0.389664,0.233066,-0.368132,0.650631,0.448490,0.003604,0.246017,0.313930,-0.529866,-0.748442,75.709308,12.075751,-134.208935
21218,NaN,-1.786967,8.824115,2.793617,-0.535230,0.256054,-0.404704,0.654247,0.332094,0.006478,0.245837,0.316003,-0.531936,-0.746157,76.130010,12.124500,-134.020380
21219,NaN,-1.708635,8.821466,2.755783,-0.613223,0.217641,-0.436745,0.638377,0.240812,0.008624,0.245425,0.317701,-0.534055,-0.744055,76.530474,12.159451,-133.885412
21220,NaN,-1.658736,8.761361,2.782243,-0.715666,0.256839,-0.502730,0.597491,0.176330,0.012304,0.244934,0.319099,-0.536102,-0.742144,76.900468,12.181861,-133.784456
21221,NaN,-1.617795,8.703522,2.781678,-0.786747,0.281718,-0.571057,0.554663,0.119824,0.015746,0.244353,0.320219,-0.538059,-0.740435,77.238779,12.195618,-133.717201
21222,NaN,-1.637103,8.665326,2.754062,-0.791281,0.323661,-0.613678,0.506480,0.071664,0.026849,0.243776,0.321073,-0.539912,-0.738905,77.544455,12.195630,-133.674086
21223,NaN,-1.655804,8.621101,2.804700,-0.848577,0.415115,-0.645417,0.462249,0.026996,0.043358,0.243191,0.321658,-0.541677,-0.737550,77.819353,12.181881,-133.656392
21224,NaN,-1.727704,8.647536,2.846982,-0.857485,0.517176,-0.600344,0.424083,-0.032090,0.063795,0.242599,0.321925,-0.543405,-0.736357,78.066201,12.148351,-133.668345
21225,NaN,-1.787937,8.694529,2.837802,-0.830271,0.571974,-0.548344,0.387476,-0.100932,0.098255,0.241988,0.321796,-0.545133,-0.735336,78.284190,12.088647,-133.717561
21226,NaN,-1.873114,8.755490,2.897877,-0.830748,0.686333,-0.463700,0.359132,-0.178377,0.130154,0.241344,0.321262,-0.546901,-0.734468,78.477880,12.001089,-133.805862
21227,NaN,-1.852727,8.902340,2.952087,-0.891486,0.699756,-0.319819,0.331412,-0.260395,0.171447,0.240654,0.320276,-0.548728,-0.733762,78.646635,11.882489,-133.938490
21228,NaN,-1.853491,9.036667,2.926988,-0.872871,0.682410,-0.198305,0.294970,-0.334237,0.204965,0.239958,0.318884,-0.550563,-0.733222,78.787258,11.735913,-134.108277
21229,NaN,-1.807363,9.154135,2.872865,-0.858023,0.619666,-0.107134,0.262949,-0.403270,0.259516,0.239305,0.317046,-0.552444,-0.732817,78.902831,11.552612,-134.313392
21230,NaN,-1.806223,9.286579,2.895634,-0.860793,0.637828,0.022948,0.226042,-0.460094,0.316168,0.238775,0.314798,-0.554346,-0.732523,78.993083,11.330347,-134.543337
21231,NaN,-1.835340,9.474004,2.883257,-0.809020,0.642332,0.205849,0.197394,-0.505657,0.382560,0.238389,0.312160,-0.556294,-0.732301,79.063859,11.067315,-134.793758
21232,NaN,-1.966153,9.614701,2.856249,-0.667243,0.724551,0.360606,0.162068,-0.547236,0.457322,0.238229,0.309118,-0.558273,-0.732137,79.112997,10.756740,-135.058102
21233,NaN,-2.162937,9.742489,2.842747,-0.478794,0.867969,0.516523,0.127314,-0.599158,0.529732,0.238223,0.305636,-0.560290,-0.732060,79.139438,10.401211,-135.345796
21234,NaN,-2.353932,9.806808,2.761088,-0.234204,0.979896,0.595123,0.077417,-0.643526,0.602823,0.238450,0.301725,-0.562279,-0.732083,79.136426,9.998611,-135.648806
21235,NaN,-2.470875,9.836909,2.661001,-0.018296,1.036683,0.621643,0.030906,-0.682807,0.661521,0.238829,0.297440,-0.564221,-0.732219,79.106053,9.559860,-135.969047
21236,NaN,-2.617728,9.784668,2.557763,0.227758,1.130454,0.570179,-0.011390,-0.709630,0.688265,0.239300,0.292923,-0.566071,-0.732458,79.052393,9.101624,-136.299864
21237,NaN,-2.723074,9.834624,2.488400,0.427118,1.189796,0.614602,-0.045873,-0.725459,0.690769,0.239768,0.288294,-0.567799,-0.732804,78.980044,8.641188,-136.639508
21238,NaN,-2.824196,9.867471,2.440164,0.611724,1.260944,0.643535,-0.078390,-0.727377,0.677137,0.240235,0.283651,-0.569380,-0.733237,78.891840,8.186515,-136.979409
21239,NaN,-2.881316,9.882628,2.320844,0.813904,1.251134,0.633662,-0.108543,-0.717792,0.643914,0.240631,0.279094,-0.570775,-0.733770,78.789056,7.752240,-137.317729
21240,NaN,-2.900067,9.872301,2.316382,0.907173,1.295746,0.614961,-0.139963,-0.694214,0.597768,0.240975,0.274710,-0.571953,-0.734394,78.672329,7.344670,-137.645814
21241,NaN,-2.916894,9.898852,2.201598,1.072609,1.245877,0.610334,-0.166545,-0.655931,0.545837,0.241258,0.270579,-0.572901,-0.735095,78.544332,6.971128,-137.957891
21242,NaN,-2.915400,9.918893,2.152472,1.175351,1.224621,0.610151,-0.198868,-0.599661,0.473002,0.241485,0.266818,-0.573559,-0.735883,78.403006,6.643022,-138.244605
21243,NaN,-2.943619,9.870749,2.070889,1.312869,1.206999,0.541266,-0.232563,-0.531222,0.403627,0.241683,0.263466,-0.573905,-0.736755,78.247084,6.362209,-138.500559
21244,NaN,-2.909404,9.743395,1.989368,1.392336,1.157895,0.389096,-0.258674,-0.457132,0.313327,0.241800,0.260607,-0.573946,-0.737701,78.081285,6.138844,-138.724227
21245,NaN,-2.944041,9.635317,1.953326,1.485452,1.175120,0.273666,-0.268206,-0.388855,0.239609,0.241845,0.258202,-0.573764,-0.738673,77.913523,5.965465,-138.917759
21246,NaN,-2.970800,9.542365,1.890223,1.583414,1.159605,0.167458,-0.260240,-0.322410,0.171219,0.241823,0.256242,-0.573444,-0.739610,77.754374,5.836757,-139.081381
21247,NaN,-2.952475,9.527456,1.864675,1.619730,1.121334,0.141483,-0.237014,-0.268927,0.116628,0.241715,0.254668,-0.573068,-0.740480,77.610751,5.745823,-139.221493
21248,NaN,-2.899861,9.608256,1.902410,1.588033,1.084618,0.219692,-0.198981,-0.219346,0.075030,0.241552,0.253438,-0.572724,-0.741222,77.491911,5.682928,-139.338466
21249,NaN,-2.900880,9.711217,1.941149,1.591223,1.078723,0.326110,-0.163928,-0.169153,0.041502,0.241357,0.252537,-0.572400,-0.741843,77.395119,5.645855,-139.431496
21250,NaN,-2.858727,9.703813,1.981185,1.548227,1.071689,0.322195,-0.146143,-0.111071,0.021416,0.241235,0.251924,-0.572052,-0.742359,77.312098,5.626158,-139.494397
21251,NaN,-2.835505,9.631822,1.941864,1.561418,1.032762,0.241082,-0.143440,-0.050943,-0.026781,0.241100,0.251680,-0.571574,-0.742853,77.232772,5.641894,-139.529586
21252,NaN,-2.866844,9.581448,1.906703,1.609680,1.025014,0.188148,-0.147471,0.010919,-0.063190,0.241012,0.251760,-0.570968,-0.743321,77.154713,5.684823,-139.534999
21253,NaN,-2.889479,9.526068,1.902282,1.626512,1.031305,0.137417,-0.170936,0.063217,-0.123495,0.240877,0.252183,-0.570128,-0.743866,77.064726,5.769068,-139.518581
21254,NaN,-2.971693,9.389861,1.857128,1.705105,1.060286,0.006566,-0.195154,0.089642,-0.186751,0.240613,0.252850,-0.569092,-0.744518,76.962206,5.891173,-139.495974
21255,NaN,-2.993466,9.245937,1.782121,1.753406,1.025154,-0.143215,-0.215334,0.087917,-0.253318,0.240121,0.253680,-0.567891,-0.745311,76.846499,6.051130,-139.482939
21256,NaN,-3.002446,9.197615,1.787457,1.743670,1.012889,-0.182559,-0.218104,0.056884,-0.311917,0.239323,0.254550,-0.566649,-0.746216,76.727252,6.238877,-139.496062
21257,NaN,-2.967386,9.178913,1.775541,1.711880,0.948824,-0.201265,-0.213685,0.001133,-0.355306,0.238200,0.255346,-0.565424,-0.747232,76.605625,6.444279,-139.545928
21258,NaN,-2.904617,9.173190,1.771452,1.653423,0.866224,-0.208630,-0.207168,-0.071192,-0.409043,0.236658,0.256021,-0.564248,-0.748379,76.482863,6.669040,-139.645168
21259,NaN,-2.723590,9.122304,1.745232,1.514884,0.700206,-0.278808,-0.190038,-0.133013,-0.451489,0.234764,0.256613,-0.563142,-0.749605,76.363854,6.909756,-139.784223
21260,NaN,-2.632271,9.090575,1.817852,1.378877,0.657753,-0.297550,-0.164799,-0.191158,-0.494744,0.232503,0.257126,-0.562150,-0.750877,76.254819,7.165593,-139.963746
21261,NaN,-2.512145,9.073437,1.895707,1.216135,0.596471,-0.304961,-0.142983,-0.244476,-0.527442,0.229946,0.257564,-0.561243,-0.752191,76.152132,7.432810,-140.176874
21262,NaN,-2.354643,9.074271,1.937325,1.047956,0.481141,-0.309527,-0.129816,-0.292742,-0.541525,0.227174,0.257863,-0.560430,-0.753536,76.053032,7.700110,-140.421046
21263,NaN,-2.124877,9.055532,1.960526,0.834690,0.313402,-0.348740,-0.123877,-0.319908,-0.541545,0.224323,0.258073,-0.559652,-0.754895,75.953125,7.963973,-140.679684
21264,NaN,-1.961323,9.029040,1.955812,0.689615,0.171609,-0.395132,-0.127365,-0.325579,-0.525973,0.221508,0.258201,-0.558895,-0.756243,75.850849,8.217207,-140.941678
21265,NaN,-1.851023,8.934571,2.007774,0.547224,0.125862,-0.486994,-0.131372,-0.312294,-0.496956,0.218852,0.258302,-0.558127,-0.757547,75.745745,8.456457,-141.190982
21266,NaN,-1.749251,8.923098,1.918735,0.506369,-0.037349,-0.533401,-0.126519,-0.289674,-0.457003,0.216391,0.258369,-0.557413,-0.758756,75.646174,8.675552,-141.424396
21267,NaN,-1.671624,8.923701,1.939191,0.416459,-0.105689,-0.538933,-0.125687,-0.261263,-0.416690,0.214171,0.258441,-0.556706,-0.759880,75.548402,8.876664,-141.634607
21268,NaN,-1.663105,8.967408,1.921082,0.407580,-0.168758,-0.502683,-0.114028,-0.231816,-0.369477,0.212182,0.258491,-0.556085,-0.760875,75.461377,9.054706,-141.824233
21269,NaN,-1.632845,9.077796,1.937812,0.363536,-0.235788,-0.397813,-0.100891,-0.208801,-0.327580,0.210412,0.258539,-0.555525,-0.761759,75.383127,9.213335,-141.992791
21270,NaN,-1.655514,9.396211,2.001942,0.338306,-0.292786,-0.074256,-0.063470,-0.194772,-0.280405,0.208798,0.258535,-0.555167,-0.762465,75.329436,9.346906,-142.149117
21271,NaN,-1.700155,9.781707,2.121236,0.298025,-0.311148,0.330601,-0.024110,-0.197891,-0.225959,0.207345,0.258421,-0.555017,-0.763009,75.297785,9.450482,-142.297015
21272,NaN,-1.713953,10.137673,2.181203,0.270632,-0.377094,0.687419,0.021283,-0.208873,-0.168846,0.206003,0.258137,-0.555140,-0.763379,75.293583,9.519966,-142.445504
21273,NaN,-1.807808,10.507681,2.340112,0.245710,-0.319892,1.095701,0.054900,-0.222372,-0.122615,0.204774,0.257724,-0.555447,-0.763626,75.307069,9.562674,-142.592011
21274,NaN,-1.730283,10.763597,2.341031,0.183395,-0.443895,1.327270,0.063091,-0.236911,-0.089511,0.203599,0.257151,-0.555862,-0.763832,75.326058,9.584096,-142.745219
21275,NaN,-1.610065,11.007515,2.261308,0.138709,-0.648987,1.520043,0.038695,-0.217900,-0.076463,0.202578,0.256609,-0.556160,-0.764068,75.331679,9.601945,-142.882420
21276,NaN,-1.552832,11.016314,2.114973,0.180298,-0.797985,1.482191,-0.008742,-0.164689,-0.067674,0.201782,0.256181,-0.556252,-0.764356,75.316672,9.621823,-142.991300
21277,NaN,-1.606501,10.686457,1.916877,0.334522,-0.821922,1.126607,-0.041789,-0.105354,-0.065141,0.201220,0.255956,-0.556142,-0.764659,75.286944,9.649694,-143.063591
21278,NaN,-1.735504,10.249719,1.786704,0.503755,-0.719118,0.698740,-0.039514,-0.060879,-0.063565,0.200765,0.255880,-0.556018,-0.764894,75.264222,9.682260,-143.114010
21279,NaN,-1.923612,9.816276,1.645177,0.724827,-0.588376,0.281598,0.015844,-0.051264,-0.060736,0.200297,0.255907,-0.556080,-0.764963,75.272664,9.715529,-143.155272
21280,NaN,-2.104486,9.443065,1.616444,0.868216,-0.389945,-0.050138,0.115954,-0.096686,-0.074414,0.199499,0.255878,-0.556574,-0.764822,75.335386,9.748901,-143.227699
21281,NaN,-2.176702,9.262520,1.737014,0.833063,-0.195574,-0.178517,0.244918,-0.200816,-0.103966,0.198156,0.255682,-0.557604,-0.764486,75.459693,9.784628,-143.359369
21282,NaN,-2.069533,9.279666,1.929206,0.609998,-0.104131,-0.131056,0.385198,-0.337052,-0.139566,0.196092,0.255180,-0.559279,-0.763962,75.652048,9.820106,-143.576582
21283,NaN,-1.910653,9.451416,2.156178,0.320889,-0.053228,0.062688,0.511510,-0.486210,-0.176744,0.193331,0.254356,-0.561508,-0.763305,75.899710,9.856931,-143.879309
21284,NaN,-1.651532,9.533347,2.449451,-0.093330,0.028132,0.167412,0.604604,-0.634294,-0.188239,0.189962,0.253061,-0.564234,-0.762571,76.187734,9.880192,-144.271060
21285,NaN,-1.267445,9.571406,2.644977,-0.549611,-0.012094,0.182895,0.656340,-0.742257,-0.182065,0.186268,0.251403,-0.567231,-0.761807,76.493234,9.888273,-144.718879
21286,NaN,-0.861229,9.565970,2.761003,-0.976185,-0.102365,0.132610,0.663120,-0.793557,-0.164630,0.182454,0.249476,-0.570332,-0.761048,76.799872,9.881288,-145.197698
21287,NaN,-0.479901,9.547205,2.868862,-1.375896,-0.174342,0.070936,0.625791,-0.788085,-0.130599,0.178854,0.247455,-0.573290,-0.760339,77.084707,9.859344,-145.664587
21288,NaN,-0.201317,9.482403,2.936240,-1.663861,-0.204277,-0.026596,0.557613,-0.741076,-0.083664,0.175620,0.245388,-0.576013,-0.759705,77.338111,9.818372,-146.103109
21289,NaN,-0.049845,9.594541,2.973526,-1.827303,-0.237508,0.061718,0.479701,-0.665726,-0.020829,0.172961,0.243377,-0.578417,-0.759135,77.554068,9.754321,-146.486744
21290,NaN,0.046461,9.808968,3.056565,-1.966520,-0.233326,0.268919,0.389515,-0.570853,0.054025,0.170939,0.241400,-0.580504,-0.758631,77.731350,9.660287,-146.811951
21291,NaN,0.047586,10.112654,3.069671,-1.980879,-0.259774,0.565145,0.306848,-0.469058,0.146345,0.169689,0.239496,-0.582271,-0.758161,77.871544,9.528771,-147.063536
21292,NaN,-0.020359,10.451583,3.056897,-1.914457,-0.280772,0.903491,0.222252,-0.363329,0.242000,0.169180,0.237612,-0.583762,-0.757721,77.977510,9.355751,-147.248498
21293,NaN,-0.118859,10.755979,2.993598,-1.783383,-0.322047,1.204686,0.117684,-0.244969,0.310016,0.169428,0.235916,-0.584810,-0.757387,78.034390,9.160074,-147.353319
21294,NaN,-0.215706,10.975190,2.756579,-1.546829,-0.490019,1.388523,0.003148,-0.118937,0.341489,0.170271,0.234481,-0.585376,-0.757206,78.039577,8.960630,-147.387332
21295,NaN,-0.247803,11.000614,2.462702,-1.323889,-0.701384,1.362959,-0.122942,0.033853,0.333328,0.171704,0.233567,-0.585300,-0.757224,77.984128,8.785080,-147.331091
21296,NaN,-0.162655,10.863792,2.157541,-1.189434,-0.956639,1.158794,-0.226956,0.213415,0.280254,0.173556,0.233370,-0.584636,-0.757376,77.885163,8.659600,-147.183861
21297,NaN,-0.111641,10.589552,1.828758,-1.015270,-1.190869,0.819640,-0.306185,0.399447,0.213091,0.175816,0.234032,-0.583404,-0.757600,77.753431,8.595775,-146.934665
21298,NaN,-0.127794,10.230828,1.554837,-0.821137,-1.331214,0.417522,-0.343416,0.575510,0.135297,0.178308,0.235523,-0.581805,-0.757784,77.615470,8.596238,-146.600049
21299,NaN,-0.086434,9.919178,1.384612,-0.739624,-1.435262,0.072028,-0.328321,0.702455,0.083040,0.180980,0.237688,-0.580057,-0.757816,77.494330,8.643728,-146.195336
21300,NaN,-0.030338,9.709185,1.285310,-0.716921,-1.515810,-0.163361,-0.279837,0.793279,0.041822,0.183669,0.240324,-0.578378,-0.757621,77.410217,8.724812,-145.749453
21301,NaN,-0.104920,9.659816,1.244634,-0.626948,-1.516854,-0.211739,-0.217175,0.827891,0.010494,0.186291,0.243268,-0.576830,-0.757221,77.363290,8.829733,-145.282932
21302,NaN,-0.066733,9.603694,1.250788,-0.661504,-1.538101,-0.273479,-0.160295,0.812017,-0.010597,0.188685,0.246228,-0.575504,-0.756680,77.349905,8.943105,-144.833015
21303,NaN,0.019644,9.596379,1.287289,-0.756263,-1.572967,-0.288937,-0.096801,0.762123,-0.013082,0.190875,0.249095,-0.574426,-0.756011,77.367469,9.053185,-144.406484
21304,NaN,0.177575,9.582879,1.399142,-0.955255,-1.585414,-0.305078,-0.053403,0.711662,-0.000242,0.192883,0.251740,-0.573596,-0.755255,77.408300,9.147861,-144.011734
21305,NaN,0.375396,9.452408,1.382902,-1.109017,-1.687961,-0.468052,-0.039227,0.670846,0.009863,0.194820,0.254245,-0.572837,-0.754495,77.452529,9.233201,-143.633645
21306,NaN,0.462146,9.275446,1.366042,-1.172045,-1.713043,-0.658162,-0.039083,0.647919,0.022953,0.196708,0.256588,-0.572142,-0.753739,77.497532,9.306210,-143.272270
21307,NaN,0.625786,9.147459,1.334524,-1.284252,-1.808717,-0.816699,-0.050596,0.629307,0.034151,0.198628,0.258850,-0.571400,-0.753024,77.532936,9.372266,-142.914394
21308,NaN,0.723666,9.142301,1.329759,-1.357920,-1.878641,-0.840488,-0.062862,0.623089,0.046714,0.200562,0.261002,-0.570660,-0.752330,77.563386,9.428310,-142.563908
21309,NaN,0.695275,9.092606,1.291768,-1.309289,-1.886679,-0.893397,-0.072589,0.617073,0.074803,0.202625,0.263075,-0.569890,-0.751638,77.586590,9.469743,-142.207708
21310,NaN,0.599708,9.076888,1.330361,-1.253585,-1.803660,-0.885497,-0.085427,0.597684,0.105717,0.204733,0.264933,-0.569159,-0.750968,77.603524,9.489174,-141.864485
21311,NaN,0.557814,9.061787,1.304780,-1.196926,-1.799452,-0.898715,-0.080045,0.557006,0.142225,0.206885,0.266576,-0.568500,-0.750295,77.618469,9.485271,-141.533896
21312,NaN,0.512567,9.160899,1.423443,-1.227054,-1.711798,-0.769732,-0.048118,0.506578,0.178776,0.208957,0.267919,-0.568091,-0.749553,77.649667,9.452295,-141.232996
21313,NaN,0.476523,9.383829,1.487695,-1.227936,-1.699020,-0.533569,-0.018252,0.453551,0.211913,0.210991,0.269037,-0.567857,-0.748760,77.691453,9.396388,-140.952530
21314,NaN,0.442169,9.552565,1.603062,-1.262489,-1.629241,-0.338064,0.012438,0.405261,0.251153,0.212961,0.269853,-0.567872,-0.747896,77.748872,9.309928,-140.700617
21315,NaN,0.457838,9.618885,1.647475,-1.289648,-1.611409,-0.263505,0.039559,0.367293,0.284007,0.214939,0.270502,-0.568036,-0.746970,77.816482,9.202650,-140.460481
21316,NaN,0.489309,9.648528,1.719141,-1.346009,-1.569465,-0.220297,0.057544,0.371980,0.315854,0.216992,0.271052,-0.568339,-0.745947,77.897058,9.075155,-140.220341
21317,NaN,0.414490,9.688243,1.726246,-1.277856,-1.507812,-0.163475,0.065480,0.389674,0.359106,0.219277,0.271595,-0.568671,-0.744827,77.981803,8.927830,-139.958875
21318,NaN,0.345318,9.655469,1.802070,-1.257766,-1.377376,-0.163047,0.057832,0.425334,0.405870,0.221813,0.272082,-0.569031,-0.743622,78.067530,8.755358,-139.678451
21319,NaN,0.151140,9.567832,1.778795,-1.077418,-1.223839,-0.217290,0.048249,0.472563,0.446267,0.224677,0.272662,-0.569316,-0.742330,78.149415,8.568189,-139.360250
21320,NaN,0.015157,9.442562,1.764213,-0.946459,-1.088738,-0.315666,0.047823,0.516702,0.483567,0.227774,0.273253,-0.569631,-0.740927,78.236317,8.361946,-139.019186
21321,NaN,-0.244838,9.327843,1.765144,-0.733233,-0.862594,-0.383874,0.052058,0.559528,0.513881,0.231127,0.273960,-0.569910,-0.739411,78.326234,8.146017,-138.644642
21322,NaN,-0.477295,9.210726,1.825569,-0.582415,-0.607171,-0.448394,0.064989,0.593173,0.537733,0.234647,0.274721,-0.570237,-0.737766,78.426239,7.917759,-138.249404
21323,NaN,-0.723584,9.099533,1.849991,-0.400381,-0.366635,-0.514694,0.080818,0.603616,0.553022,0.238223,0.275505,-0.570607,-0.736040,78.533545,7.683617,-137.846533
21324,NaN,-0.970600,8.991744,1.869628,-0.218146,-0.125751,-0.580923,0.103238,0.602211,0.558158,0.241784,0.276277,-0.571074,-0.734225,78.653041,7.443368,-137.445172
21325,NaN,-1.157539,8.915285,1.899455,-0.089928,0.077747,-0.624878,0.127999,0.587311,0.555481,0.245249,0.277042,-0.571621,-0.732359,78.782732,7.204361,-137.052689
21326,NaN,-1.254317,8.882823,1.948514,-0.042408,0.226151,-0.635462,0.148340,0.569985,0.537467,0.248572,0.277800,-0.572245,-0.730462,78.921997,6.970347,-136.673422
21327,NaN,-1.368637,8.922503,2.007219,0.010641,0.377493,-0.573078,0.163157,0.556035,0.516457,0.251749,0.278596,-0.572888,-0.728564,79.065857,6.747994,-136.304515
21328,NaN,-1.462786,8.961380,2.054945,0.053706,0.508153,-0.517117,0.164044,0.549978,0.486180,0.254764,0.279407,-0.573528,-0.726699,79.209943,6.537965,-135.949542
21329,NaN,-1.473363,8.957535,2.065137,0.058090,0.562219,-0.520032,0.159559,0.557235,0.454112,0.257715,0.280374,-0.574054,-0.724869,79.348249,6.349017,-135.588073
21330,NaN,-1.520856,9.011616,2.038120,0.116347,0.602732,-0.469282,0.146234,0.572214,0.436744,0.260668,0.281410,-0.574493,-0.723062,79.479416,6.168284,-135.221157
21331,NaN,-1.494577,9.017217,2.090736,0.062462,0.652795,-0.459345,0.113387,0.601427,0.398612,0.263604,0.282629,-0.574701,-0.721355,79.590980,6.013602,-134.841553
21332,NaN,-1.504229,8.959358,2.077499,0.075973,0.692337,-0.519484,0.092461,0.638877,0.378701,0.266573,0.283961,-0.574784,-0.719672,79.693340,5.870168,-134.449602
21333,NaN,-1.583397,9.014691,2.060978,0.144256,0.753664,-0.462257,0.090353,0.676391,0.345978,0.269560,0.285563,-0.574719,-0.717976,79.793539,5.751438,-134.033673
21334,NaN,-1.692395,9.038900,2.049190,0.225273,0.845701,-0.431906,0.093144,0.688848,0.330720,0.272491,0.287206,-0.574653,-0.716265,79.896802,5.638695,-133.619101
21335,NaN,-1.742529,9.086236,2.126505,0.199690,0.950491,-0.369449,0.106922,0.704336,0.323523,0.275446,0.288987,-0.574561,-0.714490,80.006138,5.533925,-133.190186
21336,NaN,-1.776444,9.097216,2.192173,0.166485,1.043533,-0.346750,0.122194,0.719045,0.317532,0.278368,0.290807,-0.574520,-0.712649,80.125848,5.430035,-132.760191
21337,NaN,-1.819603,9.043457,2.179601,0.190044,1.103670,-0.400384,0.135424,0.724851,0.312880,0.281295,0.292722,-0.574468,-0.710756,80.250920,5.331513,-132.321272
21338,NaN,-1.840988,8.915856,2.187840,0.177078,1.175497,-0.525322,0.145977,0.739038,0.305724,0.284190,0.294673,-0.574448,-0.708811,80.383541,5.234356,-131.881478
21339,NaN,-1.885814,8.773124,2.217956,0.159628,1.279753,-0.659545,0.149205,0.762526,0.289070,0.287111,0.296799,-0.574337,-0.706834,80.516749,5.150874,-131.424047
21340,NaN,-1.866131,8.549518,2.256382,0.085188,1.353060,-0.877931,0.149120,0.797192,0.264877,0.290047,0.299099,-0.574143,-0.704821,80.651513,5.081100,-130.950044
21341,NaN,-1.906896,8.456453,2.303343,0.048699,1.451150,-0.961419,0.161800,0.827494,0.239059,0.292949,0.301606,-0.573887,-0.702758,80.793645,5.029733,-130.460872
21342,NaN,-2.033898,8.445391,2.377707,0.048659,1.616725,-0.952744,0.170006,0.835356,0.215590,0.295748,0.304171,-0.573636,-0.700682,80.941643,4.988170,-129.975484
21343,NaN,-2.179951,8.454075,2.473451,0.041736,1.805823,-0.920067,0.175252,0.798788,0.200984,0.298403,0.306695,-0.573391,-0.698653,81.089024,4.953293,-129.506372
21344,NaN,-2.239689,8.415473,2.541150,-0.003309,1.919424,-0.946485,0.187425,0.738122,0.190786,0.300802,0.309008,-0.573286,-0.696689,81.241264,4.914763,-129.078389
21345,NaN,-2.319085,8.433396,2.600286,-0.026363,2.033093,-0.917320,0.192827,0.662001,0.179170,0.302952,0.311134,-0.573257,-0.694832,81.391289,4.877954,-128.689173
21346,NaN,-2.489056,8.536949,2.652326,0.018292,2.199656,-0.797654,0.202051,0.561910,0.153619,0.304687,0.312955,-0.573396,-0.693139,81.542462,4.843305,-128.364789
21347,NaN,-2.607635,8.564067,2.651536,0.067997,2.305438,-0.765372,0.194216,0.436093,0.123251,0.305988,0.314455,-0.573617,-0.691703,81.681600,4.817309,-128.109005
21348,NaN,-2.723624,8.675660,2.711979,0.075407,2.432302,-0.641091,0.208326,0.296973,0.081078,0.306698,0.315573,-0.574061,-0.690510,81.822818,4.800474,-127.941503
21349,NaN,-2.800066,8.781774,2.730010,0.093266,2.501739,-0.531231,0.206955,0.144250,0.041666,0.306858,0.316315,-0.574640,-0.689617,81.954651,4.795933,-127.858601
21350,NaN,-2.763479,8.937494,2.765070,0.034537,2.483365,-0.379082,0.211720,0.006714,-0.006152,0.306428,0.316688,-0.575399,-0.689004,82.083242,4.804851,-127.863133
21351,NaN,-2.618174,8.953813,2.715706,-0.030581,2.346771,-0.384412,0.200829,-0.094844,-0.049570,0.305595,0.316858,-0.576177,-0.688645,82.199550,4.832997,-127.923609
21352,NaN,-2.398695,8.991261,2.653864,-0.128438,2.138001,-0.375953,0.178642,-0.146389,-0.094236,0.304473,0.316906,-0.576914,-0.688503,82.301149,4.880204,-128.022158
21353,NaN,-2.091878,9.063915,2.629014,-0.307866,1.873621,-0.334451,0.149090,-0.119006,-0.119517,0.303410,0.317115,-0.577439,-0.688436,82.386083,4.946439,-128.101672
21354,NaN,-1.788822,9.260404,2.524036,-0.417405,1.541929,-0.180765,0.117861,-0.038215,-0.151804,0.302501,0.317612,-0.577706,-0.688383,82.457469,5.034975,-128.142158
21355,NaN,-1.662746,9.712338,2.386088,-0.383241,1.284957,0.236672,0.079798,0.081770,-0.182994,0.301909,0.318589,-0.577587,-0.688292,82.512207,5.152507,-128.111805
21356,NaN,-1.565631,10.273032,2.191018,-0.283578,0.993566,0.757048,0.029176,0.178054,-0.206884,0.301577,0.319857,-0.577131,-0.688232,82.543383,5.288613,-128.032549
21357,NaN,-1.388756,10.836077,2.033324,-0.263152,0.655497,1.277155,-0.004177,0.245389,-0.210526,0.301495,0.321348,-0.576429,-0.688161,82.558694,5.433905,-127.910737
21358,NaN,-0.982976,11.329928,1.823304,-0.342507,0.114666,1.699368,-0.025472,0.320313,-0.172600,0.301778,0.322924,-0.575622,-0.687975,82.566917,5.561088,-127.747442
21359,NaN,-0.522851,11.850185,1.712153,-0.528738,-0.413012,2.153162,-0.010159,0.453422,-0.111271,0.302644,0.324834,-0.574742,-0.687431,82.591684,5.665323,-127.499361
21360,NaN,-0.241645,12.348731,1.585476,-0.592814,-0.800470,2.599850,0.036964,0.636024,-0.042956,0.304196,0.327233,-0.573859,-0.686345,82.654612,5.742522,-127.142269
21361,NaN,-0.060158,12.687784,1.539167,-0.666536,-1.029453,2.909280,0.079937,0.820826,0.034350,0.306464,0.330117,-0.572956,-0.684707,82.753846,5.790191,-126.673379
21362,NaN,0.031661,12.867314,1.500168,-0.697107,-1.149822,3.071846,0.113671,1.025304,0.111323,0.309525,0.333513,-0.571975,-0.682501,82.884915,5.806279,-126.082443
21363,NaN,-0.187349,12.957020,1.443928,-0.532819,-1.009392,3.175831,0.108189,1.212362,0.179919,0.313348,0.337343,-0.570777,-0.679873,83.024306,5.796650,-125.379251
21364,NaN,-0.488513,12.731540,1.296526,-0.256327,-0.798923,2.966504,0.037127,1.351650,0.233749,0.317864,0.341356,-0.569191,-0.677097,83.130948,5.762910,-124.593216
21365,NaN,-0.890588,12.174980,1.114107,0.096660,-0.471395,2.436106,-0.060648,1.436191,0.260598,0.322857,0.345418,-0.567151,-0.674381,83.186216,5.720170,-123.756629
21366,NaN,-1.335161,11.541207,0.880133,0.513426,-0.121918,1.826826,-0.155831,1.444123,0.242543,0.327965,0.349374,-0.564722,-0.671912,83.186522,5.686195,-122.917299
21367,NaN,-1.858239,10.915884,0.790842,0.846106,0.370448,1.249946,-0.217844,1.354880,0.186663,0.332718,0.353081,-0.562099,-0.669834,83.145757,5.679863,-122.132355
21368,NaN,-2.335424,10.299450,0.704166,1.141891,0.823453,0.677629,-0.242073,1.158450,0.094335,0.336646,0.356322,-0.559541,-0.668295,83.079309,5.711675,-121.466517
21369,NaN,-2.642843,9.749881,0.768654,1.212557,1.195132,0.174153,-0.201675,0.860803,-0.030366,0.339236,0.358988,-0.557376,-0.667367,83.018955,5.796115,-120.979017
21370,NaN,-2.755369,9.333945,0.921075,1.105658,1.417627,-0.203796,-0.091221,0.480104,-0.163072,0.340127,0.360925,-0.555985,-0.667029,82.999432,5.928303,-120.718861
21371,NaN,-2.466647,9.264148,1.160319,0.731501,1.279438,-0.268947,0.037388,0.072258,-0.319661,0.339121,0.362165,-0.555426,-0.667334,83.028906,6.122611,-120.702386
21372,NaN,-1.957477,9.403583,1.390779,0.257971,0.909148,-0.153489,0.137681,-0.288956,-0.452726,0.336491,0.362727,-0.555576,-0.668235,83.092246,6.366176,-120.902088
21373,NaN,-1.304789,9.715594,1.632137,-0.296503,0.390723,0.112954,0.149899,-0.570399,-0.556098,0.332701,0.362663,-0.556040,-0.669780,83.142807,6.650823,-121.269517
21374,NaN,-0.341508,10.062762,1.769125,-0.926512,-0.450139,0.358073,0.090563,-0.758695,-0.603396,0.328336,0.361983,-0.556526,-0.671895,83.144153,6.948287,-121.748563
21375,NaN,0.714747,10.179259,1.526072,-1.298141,-1.522756,0.309216,-0.009973,-0.783188,-0.593411,0.324105,0.361029,-0.556714,-0.674302,83.083946,7.239520,-122.241014
21376,NaN,1.179509,10.231217,1.224366,-1.313622,-2.118434,0.254812,-0.130992,-0.644592,-0.561778,0.320583,0.360239,-0.556320,-0.676729,82.962155,7.520157,-122.652969
21377,NaN,1.432285,10.192195,0.937178,-1.222908,-2.520671,0.135229,-0.298064,-0.428247,-0.509278,0.318130,0.359773,-0.555094,-0.679137,82.759780,7.786670,-122.937687
21378,NaN,1.803428,9.888774,0.477263,-1.043819,-3.069448,-0.286060,-0.443819,-0.147429,-0.427118,0.317001,0.359784,-0.553074,-0.681304,82.495302,8.024341,-123.056940
21379,NaN,1.662299,9.700827,0.124187,-0.659257,-3.158412,-0.513538,-0.528139,0.163525,-0.347128,0.317146,0.360508,-0.550406,-0.683012,82.208151,8.241383,-122.992422
21380,NaN,1.515047,9.756962,-0.162831,-0.303294,-3.252995,-0.493578,-0.616658,0.451473,-0.277372,0.318484,0.361865,-0.547105,-0.684323,81.895004,8.440132,-122.758791
21381,NaN,1.171388,9.941070,-0.402790,0.136830,-3.184116,-0.315245,-0.696818,0.649940,-0.230866,0.320656,0.363652,-0.543279,-0.685409,81.554142,8.632053,-122.408037
21382,NaN,0.618540,9.923059,-0.612114,0.660100,-2.879871,-0.299830,-0.735027,0.716638,-0.208265,0.323155,0.365521,-0.539251,-0.686420,81.198444,8.816968,-122.018621
21383,NaN,0.054606,9.902254,-0.756595,1.131000,-2.525557,-0.274763,-0.723214,0.651802,-0.191303,0.325501,0.367146,-0.535377,-0.687477,80.845083,8.990906,-121.665283
21384,NaN,-0.447078,9.828970,-0.783098,1.459267,-2.145912,-0.289715,-0.680401,0.469759,-0.171954,0.327347,0.368142,-0.531981,-0.688703,80.501044,9.136961,-121.415781
21385,NaN,-0.762079,9.592106,-0.786748,1.653514,-1.870915,-0.486728,-0.600649,0.193457,-0.154037,0.328362,0.368277,-0.529327,-0.690190,80.178059,9.249925,-121.322908
21386,NaN,-0.962058,9.331753,-0.868261,1.844996,-1.718986,-0.735136,-0.478564,-0.132203,-0.114641,0.328430,0.367368,-0.527709,-0.691879,79.895926,9.306637,-121.413350
21387,NaN,-0.998138,9.076009,-0.839061,1.847473,-1.644928,-0.983463,-0.306863,-0.444662,-0.077352,0.327478,0.365574,-0.527251,-0.693628,79.683572,9.312424,-121.678285
21388,NaN,-0.838802,9.004560,-0.789378,1.731560,-1.758079,-1.076576,-0.109182,-0.709959,-0.038414,0.325604,0.363063,-0.527992,-0.695264,79.561206,9.265873,-122.091084
21389,NaN,-0.638092,8.951607,-0.655524,1.508978,-1.857775,-1.138600,0.091393,-0.887886,-0.015381,0.322964,0.360206,-0.529740,-0.696650,79.537889,9.189584,-122.602465
21390,NaN,-0.383275,9.058425,-0.458084,1.200634,-1.993936,-1.038039,0.254895,-0.960896,0.006615,0.319912,0.357280,-0.532216,-0.697677,79.603415,9.091229,-123.153499
21391,NaN,-0.174393,9.135824,-0.275123,0.915250,-2.079037,-0.957790,0.376376,-0.945226,0.033210,0.316763,0.354536,-0.535112,-0.698298,79.740734,8.982740,-123.692443
21392,NaN,0.002665,9.211147,-0.030732,0.587910,-2.092091,-0.861512,0.461748,-0.846820,0.060558,0.313820,0.352176,-0.538200,-0.698448,79.937940,8.867980,-124.172930
21393,NaN,0.038582,9.286847,0.208413,0.338809,-1.981229,-0.743499,0.524218,-0.703097,0.093618,0.311255,0.350332,-0.541312,-0.698118,80.184116,8.752960,-124.567948
21394,NaN,-0.141313,9.298792,0.488558,0.172911,-1.649552,-0.648898,0.557729,-0.555405,0.125712,0.309145,0.348950,-0.544373,-0.697367,80.464404,8.633396,-124.876219
21395,NaN,-0.310113,9.439380,0.726260,0.044487,-1.371692,-0.440295,0.578840,-0.428852,0.164798,0.307467,0.347943,-0.547357,-0.696276,80.767750,8.507546,-125.108588
21396,NaN,-0.514866,9.595297,0.865696,0.020052,-1.116159,-0.229485,0.566224,-0.330020,0.195128,0.306191,0.347160,-0.550207,-0.694982,81.074041,8.372187,-125.282613
21397,NaN,-0.786324,9.724174,1.051638,-0.002355,-0.773907,-0.030836,0.526689,-0.272667,0.208216,0.305175,0.346489,-0.552832,-0.693679,81.361867,8.237835,-125.422932
21398,NaN,-1.017899,9.719634,1.118662,0.048987,-0.502703,0.010932,0.480950,-0.256778,0.214904,0.304311,0.345768,-0.555297,-0.692448,81.626190,8.099154,-125.554553
21399,NaN,-1.214281,9.727058,1.238831,0.041826,-0.235653,0.064933,0.436785,-0.282761,0.202488,0.303398,0.344935,-0.557607,-0.691407,81.862129,7.968500,-125.702274
21400,NaN,-1.351517,9.732625,1.283595,0.066520,-0.060957,0.096395,0.394633,-0.340144,0.183861,0.302338,0.343876,-0.559837,-0.690596,82.070569,7.841816,-125.885197
21401,NaN,-1.428278,9.698305,1.284930,0.094318,0.044094,0.073525,0.356917,-0.411071,0.166706,0.301076,0.342573,-0.561994,-0.690043,82.250937,7.722512,-126.110111
21402,NaN,-1.457438,9.639841,1.298221,0.087492,0.119108,0.021646,0.333068,-0.495857,0.141721,0.299534,0.340996,-0.564165,-0.689723,82.412458,7.609018,-126.386189
21403,NaN,-1.427688,9.589305,1.357331,0.011911,0.168824,-0.024598,0.314487,-0.570243,0.129386,0.297761,0.339179,-0.566340,-0.689604,82.556965,7.500246,-126.705688
21404,NaN,-1.351161,9.551097,1.392811,-0.069772,0.164859,-0.068104,0.302340,-0.629151,0.118653,0.295810,0.337154,-0.568553,-0.689617,82.691780,7.391474,-127.060284
21405,NaN,-1.244129,9.614368,1.393792,-0.138710,0.097629,-0.019948,0.289314,-0.655670,0.113540,0.293775,0.335042,-0.570727,-0.689720,82.816609,7.287027,-127.430248
21406,NaN,-1.109938,9.794163,1.449039,-0.263929,0.021397,0.146585,0.262006,-0.651974,0.119483,0.291821,0.332868,-0.572820,-0.689867,82.927968,7.177698,-127.798153
21407,NaN,-1.053338,9.828276,1.462012,-0.309733,0.005524,0.174604,0.211091,-0.626204,0.120921,0.290019,0.330713,-0.574679,-0.690117,83.011482,7.072501,-128.150928
21408,NaN,-0.975353,9.808515,1.382905,-0.293772,-0.075373,0.136116,0.156541,-0.574870,0.127651,0.288483,0.328621,-0.576297,-0.690411,83.069242,6.964952,-128.474225
21409,NaN,-0.972021,9.744839,1.340842,-0.258699,-0.072410,0.068222,0.096585,-0.511684,0.137303,0.287251,0.326643,-0.577612,-0.690765,83.096478,6.859031,-128.760294
21410,NaN,-0.974024,9.646213,1.303428,-0.220754,-0.059972,-0.032876,0.039749,-0.443483,0.144788,0.286340,0.324781,-0.578657,-0.691145,83.097593,6.751094,-129.007101
21411,NaN,-1.004232,9.499991,1.185532,-0.100711,-0.071191,-0.187275,0.000130,-0.377175,0.151088,0.285698,0.323086,-0.579462,-0.691531,83.079734,6.646634,-129.215063
21412,NaN,-1.052983,9.372990,1.093481,0.012741,-0.057951,-0.317748,-0.029159,-0.307944,0.156240,0.285329,0.321559,-0.580089,-0.691870,83.051304,6.541422,-129.383307
21413,NaN,-1.074468,9.276973,0.997604,0.113123,-0.075329,-0.421552,-0.040954,-0.255791,0.163367,0.285146,0.320187,-0.580595,-0.692157,83.018630,6.438219,-129.520745
21414,NaN,-1.125150,9.254297,0.948589,0.197375,-0.053256,-0.444337,-0.042456,-0.216667,0.170576,0.285111,0.318914,-0.581066,-0.692364,82.989151,6.331051,-129.635567
21415,NaN,-1.224180,9.256622,0.895075,0.316239,-0.001157,-0.437998,-0.036199,-0.208917,0.178808,0.285108,0.317665,-0.581543,-0.692538,82.962778,6.222211,-129.744936
21416,NaN,-1.331693,9.399296,0.922747,0.382149,0.087075,-0.282841,-0.025838,-0.234499,0.194884,0.285078,0.316282,-0.582134,-0.692688,82.942395,6.099880,-129.868090
21417,NaN,-1.488047,9.515553,0.961977,0.471184,0.226164,-0.147687,-0.004160,-0.297708,0.220262,0.284909,0.314649,-0.582912,-0.692847,82.929834,5.961137,-130.025163
21418,NaN,-1.558998,9.706839,1.073370,0.454792,0.337616,0.060734,0.020568,-0.390347,0.245697,0.284525,0.312642,-0.583961,-0.693029,82.927924,5.798907,-130.233676
21419,NaN,-1.497192,9.949834,1.153241,0.381427,0.324821,0.302631,0.048332,-0.471481,0.279964,0.283970,0.310304,-0.585256,-0.693215,82.936880,5.613956,-130.485720
21420,NaN,-1.394161,10.239838,1.242225,0.278031,0.285205,0.588386,0.059467,-0.505800,0.298399,0.283366,0.307795,-0.586678,-0.693379,82.952638,5.413740,-130.756366
21421,NaN,-1.294794,10.391458,1.289358,0.206628,0.245265,0.733324,0.034039,-0.481536,0.314554,0.282919,0.305296,-0.587981,-0.693563,82.954840,5.208507,-131.011611
21422,NaN,-1.230835,10.461909,1.254972,0.220342,0.191587,0.791843,-0.016374,-0.404896,0.321922,0.282805,0.302955,-0.589024,-0.693751,82.934374,5.002054,-131.222810
21423,NaN,-1.219752,10.416991,1.287093,0.217460,0.233277,0.749333,-0.081141,-0.292544,0.323322,0.283116,0.300918,-0.589667,-0.693964,82.881691,4.805003,-131.369255
21424,NaN,-1.214224,10.303486,1.177374,0.324704,0.192350,0.621862,-0.145302,-0.165943,0.312865,0.283867,0.299248,-0.589905,-0.694178,82.799994,4.620411,-131.444304
21425,NaN,-1.263058,10.093648,1.043974,0.481833,0.184384,0.400082,-0.194400,-0.030199,0.299505,0.285037,0.298030,-0.589742,-0.694361,82.695097,4.455464,-131.442267
21426,NaN,-1.349663,9.853743,0.991267,0.600028,0.257588,0.160977,-0.215290,0.081949,0.275728,0.286492,0.297228,-0.589326,-0.694459,82.584380,4.309941,-131.378095
21427,NaN,-1.471873,9.760566,0.919740,0.758549,0.321923,0.066679,-0.205766,0.158262,0.249579,0.288059,0.296794,-0.588777,-0.694462,82.480684,4.187399,-131.271807
21428,NaN,-1.587564,9.717194,0.935953,0.845137,0.431111,0.032111,-0.184782,0.179302,0.224053,0.289574,0.296525,-0.588247,-0.694396,82.390931,4.078843,-131.155604
21429,NaN,-1.630086,9.695735,0.929989,0.898077,0.467389,0.010973,-0.164296,0.151051,0.204464,0.290901,0.296256,-0.587782,-0.694349,82.310087,3.981708,-131.056510
21430,NaN,-1.665411,9.741452,0.997057,0.893206,0.536674,0.065457,-0.137652,0.080713,0.194754,0.291953,0.295799,-0.587513,-0.694330,82.242964,3.882583,-130.998392
21431,NaN,-1.634910,9.880626,1.052389,0.859165,0.536218,0.206368,-0.119621,-0.009401,0.193776,0.292704,0.295069,-0.587420,-0.694404,82.181232,3.779297,-130.991206
21432,NaN,-1.566601,9.906966,1.125057,0.782056,0.535618,0.235667,-0.111282,-0.094942,0.203838,0.293232,0.294014,-0.587511,-0.694552,82.122599,3.661475,-131.032074
21433,NaN,-1.458575,9.978320,1.209507,0.674711,0.507295,0.308804,-0.108346,-0.169563,0.214440,0.293567,0.292683,-0.587720,-0.694795,82.061699,3.533851,-131.114114
21434,NaN,-1.283936,10.160499,1.267315,0.552407,0.398273,0.484229,-0.105064,-0.204327,0.219051,0.293816,0.291211,-0.588013,-0.695061,82.003158,3.398695,-131.215687
21435,NaN,-1.167017,10.477664,1.300496,0.497412,0.298682,0.793817,-0.124546,-0.205343,0.227069,0.294112,0.289693,-0.588234,-0.695382,81.932255,3.260866,-131.316747
21436,NaN,-0.999443,10.748464,1.354708,0.393547,0.180982,1.058185,-0.157122,-0.169247,0.232803,0.294585,0.288226,-0.588311,-0.695726,81.845583,3.120544,-131.396907
21437,NaN,-0.941875,10.903588,1.289902,0.446454,0.082224,1.197899,-0.191264,-0.102219,0.242655,0.295333,0.286921,-0.588168,-0.696069,81.740152,2.982003,-131.437678
21438,NaN,-0.866292,10.914245,1.209589,0.490480,-0.022360,1.191545,-0.217491,-0.016662,0.240363,0.296367,0.285872,-0.587819,-0.696357,81.623758,2.849787,-131.430069
21439,NaN,-0.801121,10.840527,1.070763,0.578302,-0.148155,1.093681,-0.225023,0.076619,0.235673,0.297664,0.285159,-0.587281,-0.696550,81.504108,2.730074,-131.369386
21440,NaN,-0.844256,10.805262,0.983598,0.700341,-0.164901,1.046234,-0.223671,0.158630,0.223847,0.299162,0.284759,-0.586623,-0.696626,81.388771,2.622208,-131.263220
21441,NaN,-0.878443,10.748777,0.943633,0.777025,-0.155533,0.984084,-0.210597,0.216227,0.216968,0.300781,0.284607,-0.585897,-0.696602,81.280662,2.525384,-131.124528
21442,NaN,-1.015925,10.664874,0.836598,0.966889,-0.105612,0.888969,-0.180927,0.235774,0.226114,0.302451,0.284531,-0.585272,-0.696435,81.191392,2.423383,-130.974061
21443,NaN,-1.117518,10.537157,0.781876,1.087061,-0.038849,0.756541,-0.126352,0.210992,0.248035,0.304041,0.284396,-0.584888,-0.696121,81.131051,2.308930,-130.835326
21444,NaN,-1.343730,10.398509,0.826283,1.209309,0.193674,0.633237,-0.058229,0.139950,0.266784,0.305395,0.284052,-0.584891,-0.695666,81.109548,2.175776,-130.735357
21445,NaN,-1.528346,10.181442,0.879131,1.285824,0.416189,0.431523,0.031042,0.038540,0.282152,0.306375,0.283456,-0.585363,-0.695081,81.135278,2.026855,-130.691241
21446,NaN,-1.679173,9.920744,0.981521,1.292731,0.656466,0.192411,0.138561,-0.085765,0.276314,0.306821,0.282600,-0.586406,-0.694353,81.221742,1.868451,-130.718439
21447,NaN,-1.791754,9.679357,1.282700,1.119843,0.996902,0.000451,0.258607,-0.213567,0.250747,0.306629,0.281567,-0.588008,-0.693502,81.373052,1.715327,-130.820364
21448,NaN,-1.707295,9.449388,1.540131,0.845010,1.162520,-0.194362,0.363633,-0.327037,0.196489,0.305770,0.280453,-0.590084,-0.692569,81.584493,1.581931,-130.991908
21449,NaN,-1.512532,9.090139,1.746386,0.517723,1.227938,-0.528710,0.435551,-0.377483,0.141218,0.304463,0.279441,-0.592388,-0.691586,81.834897,1.478102,-131.196940
21450,NaN,-1.345127,8.880337,1.934705,0.230291,1.285305,-0.718313,0.478246,-0.387501,0.087217,0.302880,0.278611,-0.594789,-0.690555,82.111506,1.403463,-131.412642
21451,NaN,-1.149710,8.700388,2.115657,-0.070276,1.312205,-0.881415,0.476398,-0.368912,0.056456,0.301243,0.277937,-0.597092,-0.689554,82.385799,1.350350,-131.620312
21452,NaN,-0.916250,8.496024,2.194375,-0.322071,1.243701,-1.084195,0.431269,-0.330657,0.028143,0.299686,0.277404,-0.599151,-0.688661,82.636480,1.315632,-131.808782
21453,NaN,-0.683836,8.557874,2.172845,-0.476833,1.076905,-1.035506,0.367235,-0.254906,-0.009424,0.298310,0.277152,-0.600806,-0.687917,82.849824,1.310008,-131.956853
21454,NaN,-0.543193,8.763150,2.104162,-0.523201,0.926624,-0.847034,0.262072,-0.157368,-0.020867,0.297335,0.277106,-0.601949,-0.687358,83.005724,1.316807,-132.050455
21455,NaN,-0.535828,9.191347,2.047285,-0.467669,0.852338,-0.431102,0.117471,-0.060515,-0.027596,0.296826,0.277204,-0.602428,-0.687119,83.078459,1.335783,-132.089228
21456,NaN,-0.594546,9.595786,1.984586,-0.357607,0.814896,-0.036224,-0.050315,0.026715,-0.035041,0.296789,0.277369,-0.602203,-0.687266,83.057686,1.363631,-132.079060
21457,NaN,-0.598811,9.895592,1.785466,-0.182152,0.642271,0.238356,-0.218339,0.106124,-0.083660,0.297054,0.277709,-0.601202,-0.687890,82.940182,1.426098,-132.026971
21458,NaN,-0.530050,9.820287,1.548262,-0.048258,0.412029,0.134366,-0.373111,0.183855,-0.155683,0.297522,0.278297,-0.599464,-0.688966,82.736510,1.533822,-131.936171
