// General information: 
//  MT Manager version: 2019.0.1 
//  XDA version: 2019.0.1 build 2740 rev 84096 built on 2019-01-30
// Device information: 
//  DeviceId: 00B43876
//  ProductCode: MTW2-3A7G6
//  Firmware Version: 4.3.4
//  Hardware Version: 1.1.0
// Device settings: 
//  Filter Profile: human(46.1)
//  Option Flags: Orientation Smoother Disabled, AHS Disabled, ICC Disabled
// Coordinate system: ENU
PacketCounter,SampleTimeFine,Acc_X,Acc_Y,Acc_Z,FreeAcc_E,FreeAcc_N,FreeAcc_U,Gyr_X,Gyr_Y,Gyr_Z,Quat_q0,Quat_q1,Quat_q2,Quat_q3,Roll,Pitch,Yaw
35924,NaN,-4.566541,8.619530,-1.048238,-0.047570,-0.007411,-0.002179,0.000217,0.006539,-0.007482,0.236984,0.561443,-0.490246,-0.623121,97.220479,27.861282,-106.916017
35925,NaN,-4.567121,8.619198,-1.048439,-0.047299,-0.006827,-0.002177,-0.002776,0.007127,-0.007658,0.236989,0.561449,-0.490241,-0.623118,97.220723,27.861411,-106.914831
35926,NaN,-4.567709,8.618883,-1.048468,-0.046971,-0.006207,-0.002175,-0.004272,0.007421,-0.007746,0.236999,0.561452,-0.490232,-0.623118,97.219910,27.861280,-106.913723
35927,NaN,-4.577214,8.596015,-1.051204,-0.036075,0.010148,-0.017485,-0.004272,0.007421,-0.007746,0.237008,0.561457,-0.490221,-0.623118,97.219390,27.861438,-106.912340
35928,NaN,-4.583211,8.574648,-1.077897,-0.003970,0.014558,-0.030456,-0.006223,0.004764,-0.009560,0.237015,0.561455,-0.490202,-0.623133,97.216698,27.862523,-106.912414
35929,NaN,-4.571523,8.598332,-1.099022,0.006821,-0.012605,-0.012801,-0.004327,0.006019,-0.010932,0.237011,0.561464,-0.490184,-0.623140,97.215845,27.864594,-106.911674
35930,NaN,-4.602050,8.604006,-1.053447,-0.029154,0.026217,0.001384,-0.004612,0.004519,-0.011021,0.237005,0.561466,-0.490167,-0.623154,97.214111,27.866731,-106.912005
35931,NaN,-4.571410,8.617012,-1.047714,-0.045510,-0.003248,-0.002167,-0.003745,0.002578,-0.006373,0.237005,0.561454,-0.490167,-0.623165,97.212385,27.866458,-106.913848
35932,NaN,-4.603538,8.603257,-1.053060,-0.028468,0.027394,0.001383,-0.004497,0.004569,-0.012569,0.236993,0.561455,-0.490148,-0.623184,97.210202,27.869277,-106.914903
35933,NaN,-4.604382,8.602828,-1.052876,-0.028195,0.027978,0.001382,-0.003630,0.002627,-0.007922,0.236988,0.561447,-0.490145,-0.623196,97.208615,27.869880,-106.916589
35934,NaN,-4.605024,8.602502,-1.052732,-0.027860,0.028611,0.001381,-0.003346,0.004127,-0.007833,0.236990,0.561441,-0.490141,-0.623203,97.207346,27.869943,-106.917359
35935,NaN,-4.601988,8.603762,-1.076668,-0.006445,0.017211,0.003722,-0.004957,0.004372,-0.006373,0.236998,0.561433,-0.490136,-0.623211,97.205464,27.869539,-106.918050
35936,NaN,-4.602531,8.603487,-1.076542,-0.006135,0.017819,0.003721,-0.004274,0.007421,-0.007744,0.237009,0.561437,-0.490126,-0.623211,97.204756,27.869487,-106.916617
35937,NaN,-4.606602,8.601702,-1.052360,-0.027002,0.030388,0.001378,-0.004788,0.005823,-0.004735,0.237025,0.561429,-0.490124,-0.623213,97.203345,27.868048,-106.916507
35938,NaN,-4.553198,8.605683,-1.044053,-0.049314,-0.013310,-0.021016,-0.002609,0.008579,-0.006018,0.237040,0.561432,-0.490124,-0.623205,97.203700,27.866733,-106.914954
35939,NaN,-4.585180,8.591954,-1.049687,-0.032397,0.017316,-0.017483,-0.004044,0.007520,-0.010842,0.237039,0.561446,-0.490106,-0.623207,97.203457,27.868643,-106.913257
35940,NaN,-4.577005,8.614121,-1.047062,-0.042630,0.002174,-0.002154,0.000215,0.006542,-0.007478,0.237035,0.561447,-0.490113,-0.623202,97.204473,27.868362,-106.913254
35941,NaN,-4.595267,8.568683,-1.052977,-0.021092,0.034253,-0.032812,-0.000829,0.009786,-0.005840,0.237047,0.561459,-0.490116,-0.623185,97.206563,27.867265,-106.910508
35942,NaN,-4.600422,8.622706,-1.050522,-0.036011,0.017656,0.016703,-0.000997,0.008335,-0.007478,0.237051,0.561468,-0.490116,-0.623175,97.207872,27.866996,-106.908852
35943,NaN,-4.594706,8.587474,-1.002758,-0.073396,0.043680,-0.022169,0.002111,0.007798,-0.008849,0.237040,0.561485,-0.490122,-0.623159,97.211163,27.867753,-106.907139
35944,NaN,-4.614176,8.597804,-1.030131,-0.045932,0.046541,-0.000973,0.002925,0.004455,-0.007389,0.237024,0.561489,-0.490136,-0.623150,97.213609,27.867999,-106.907535
35945,NaN,-4.651002,8.638246,-1.033337,-0.044244,0.059975,0.052065,0.002988,0.003104,-0.012125,0.236988,0.561500,-0.490141,-0.623150,97.216116,27.870956,-106.908573
35946,NaN,-4.670481,8.723621,-1.030888,-0.063741,0.041917,0.135773,-0.000588,0.007132,-0.016860,0.236959,0.561529,-0.490116,-0.623155,97.217424,27.876279,-106.906983
35947,NaN,-4.620609,8.669670,-0.977392,-0.113174,0.039358,0.059199,-0.003015,0.010718,-0.016860,0.236944,0.561568,-0.490080,-0.623153,97.218961,27.881379,-106.902740
35948,NaN,-4.630870,8.646343,-0.980261,-0.102172,0.055670,0.043862,-0.010746,0.018525,-0.018586,0.236965,0.561623,-0.490006,-0.623154,97.217895,27.886845,-106.893893
35949,NaN,-4.588691,8.683016,-0.995994,-0.108070,-0.001508,0.058036,-0.007688,0.016589,-0.023142,0.236959,0.561691,-0.489931,-0.623155,97.218761,27.895094,-106.885361
35950,NaN,-4.661044,8.670666,-1.105958,0.016168,0.025472,0.093271,-0.014108,0.008365,-0.020847,0.236958,0.561715,-0.489854,-0.623193,97.213012,27.902308,-106.882815
35951,NaN,-4.694501,8.656226,-1.110428,0.033116,0.056089,0.096772,-0.014293,-0.003682,-0.029216,0.236901,0.561727,-0.489765,-0.623274,97.204225,27.915468,-106.886828
35952,NaN,-4.677624,8.682181,-1.178235,0.086201,0.004943,0.119141,-0.014426,-0.014327,-0.034397,0.236804,0.561715,-0.489674,-0.623393,97.192008,27.932157,-106.897510
35953,NaN,-4.664092,8.687869,-1.074056,-0.014713,0.023524,0.106266,-0.018433,-0.019694,-0.036480,0.236697,0.561690,-0.489571,-0.623538,97.176291,27.950592,-106.911245
35954,NaN,-4.664184,8.725276,-0.969558,-0.120155,0.040672,0.127585,-0.021912,-0.012867,-0.034838,0.236623,0.561676,-0.489451,-0.623672,97.160087,27.967589,-106.920789
35955,NaN,-4.627073,8.665839,-0.841080,-0.232988,0.074132,0.043996,-0.023881,-0.009080,-0.041028,0.236543,0.561688,-0.489306,-0.623805,97.144610,27.987845,-106.927341
35956,NaN,-4.568509,8.615770,-0.857293,-0.219042,0.035541,-0.025529,-0.023203,-0.006028,-0.042394,0.236470,0.561717,-0.489151,-0.623929,97.130355,28.008574,-106.931097
35957,NaN,-4.579026,8.648736,-0.903242,-0.181115,0.010696,0.013352,-0.025597,0.002655,-0.051497,0.236391,0.561789,-0.488957,-0.624046,97.117831,28.033946,-106.929262
35958,NaN,-4.571071,8.745947,-0.892678,-0.217343,-0.037279,0.093600,-0.029326,0.013079,-0.059048,0.236325,0.561907,-0.488717,-0.624152,97.106478,28.062788,-106.920074
35959,NaN,-4.666017,8.930171,-0.842295,-0.286901,-0.021130,0.294061,-0.031164,0.024765,-0.067964,0.236264,0.562082,-0.488433,-0.624240,97.098091,28.095957,-106.902679
35960,NaN,-4.802394,9.039685,-0.703868,-0.408964,0.090278,0.439089,-0.043407,0.033428,-0.069938,0.236256,0.562274,-0.488094,-0.624336,97.085156,28.129470,-106.879359
35961,NaN,-4.767353,8.978917,-0.575577,-0.521787,0.123788,0.355514,-0.047874,0.038435,-0.059086,0.236303,0.562450,-0.487766,-0.624415,97.071032,28.156632,-106.853865
35962,NaN,-4.704843,9.024508,-0.534960,-0.586564,0.060666,0.361581,-0.049477,0.046520,-0.058799,0.236377,0.562647,-0.487423,-0.624478,97.057888,28.183030,-106.823346
35963,NaN,-4.697482,9.046353,-0.553490,-0.575800,0.033578,0.379295,-0.059801,0.049989,-0.057772,0.236490,0.562841,-0.487048,-0.624553,97.040422,28.208644,-106.790506
35964,NaN,-4.656475,8.989162,-0.670846,-0.460610,-0.023063,0.322653,-0.058869,0.038854,-0.056686,0.236578,0.562994,-0.486693,-0.624659,97.019367,28.234204,-106.765640
35965,NaN,-4.624881,8.946305,-0.664839,-0.461792,-0.035341,0.269644,-0.045680,0.019072,-0.053630,0.236588,0.563099,-0.486410,-0.624781,97.000414,28.259644,-106.753092
35966,NaN,-4.515967,8.862457,-0.774004,-0.364811,-0.134918,0.156510,-0.022604,-0.022811,-0.050993,0.236443,0.563089,-0.486258,-0.624963,96.981259,28.286125,-106.768154
35967,NaN,-4.153453,8.588875,-0.981700,-0.192458,-0.403591,-0.232304,-0.002486,-0.082539,-0.054128,0.236084,0.562928,-0.486228,-0.625267,96.955956,28.318920,-106.821216
35968,NaN,-3.454107,8.375664,-2.673899,1.258920,-1.489404,-0.569900,0.114529,-0.071032,-0.070466,0.235374,0.562978,-0.486505,-0.625274,97.001292,28.359914,-106.865843
35969,NaN,-5.198472,9.315485,-0.971767,-0.132849,0.169229,0.897140,0.145306,-0.065375,-0.049374,0.234655,0.563032,-0.486931,-0.625164,97.065704,28.388854,-106.908184
35970,NaN,-5.046452,9.110820,0.991493,-1.952264,0.799587,0.434561,-0.021735,-0.128235,-0.034133,0.234303,0.562651,-0.486950,-0.625624,97.013432,28.413294,-106.993199
35971,NaN,-4.996449,9.000844,0.658104,-1.615187,0.681790,0.352897,0.016657,-0.369787,-0.050916,0.233199,0.561605,-0.487325,-0.626684,96.910355,28.464205,-107.232374
35972,NaN,-3.991146,8.427964,0.067753,-1.162810,-0.139231,-0.561047,0.032784,-0.670647,-0.040609,0.231351,0.559602,-0.488125,-0.628535,96.722162,28.528908,-107.667642
35973,NaN,-3.522620,9.396206,-0.728983,-0.786223,-1.223629,0.142891,0.293473,-0.681376,0.014450,0.228914,0.557730,-0.489906,-0.629705,96.678224,28.562490,-108.114141
35974,NaN,-4.174343,10.423098,0.050159,-1.588412,-0.826237,1.271665,0.132711,-0.760835,0.031526,0.226786,0.555371,-0.491307,-0.631466,96.515710,28.590888,-108.613615
35975,NaN,-3.562591,9.680321,-0.518128,-1.020248,-1.239208,0.389887,0.062434,-0.856426,0.103483,0.224837,0.552446,-0.492791,-0.633568,96.281525,28.582890,-109.180468
35976,NaN,-3.684404,10.243004,-0.055960,-1.529518,-1.191664,0.898873,0.120693,-0.954293,0.213588,0.222834,0.548986,-0.494861,-0.635666,96.045837,28.515775,-109.818986
35977,NaN,-3.448278,10.318816,0.320013,-1.926866,-1.258844,0.825606,0.004924,-1.097922,0.273439,0.220973,0.544785,-0.496875,-0.638354,95.700049,28.420500,-110.553002
35978,NaN,-2.364136,10.147121,0.145011,-2.013382,-2.129579,0.186574,0.001099,-1.169189,0.369805,0.219253,0.540089,-0.499191,-0.641125,95.327567,28.270190,-111.337786
35979,NaN,-1.871839,10.175242,0.309067,-2.286168,-2.449639,-0.019461,-0.054100,-1.198419,0.442945,0.217827,0.535038,-0.501550,-0.643998,94.917591,28.074880,-112.143181
35980,NaN,-1.340352,9.952674,-0.160827,-1.938040,-2.955543,-0.411270,-0.065994,-1.168648,0.506011,0.216708,0.529880,-0.503977,-0.646740,94.509839,27.837004,-112.930639
35981,NaN,-0.914631,10.070513,-0.454425,-1.811230,-3.436437,-0.465584,-0.086349,-1.086691,0.594188,0.216119,0.524732,-0.506472,-0.649181,94.120623,27.540483,-113.664522
35982,NaN,-0.573140,10.040758,-0.815534,-1.561117,-3.817544,-0.604030,-0.135053,-1.027610,0.657724,0.216017,0.519531,-0.508877,-0.651513,93.721936,27.200808,-114.359657
35983,NaN,0.304071,9.960075,-0.797995,-1.841170,-4.444061,-1.049562,-0.147710,-0.937829,0.751127,0.216461,0.514362,-0.511382,-0.653502,93.350089,26.800469,-114.995083
35984,NaN,0.634868,10.000040,-0.727583,-2.001541,-4.642485,-1.130874,-0.149545,-0.756071,0.829162,0.217632,0.509550,-0.513855,-0.654941,93.030477,26.345825,-115.513818
35985,NaN,-0.418560,10.274343,-0.792360,-1.556147,-3.863683,-0.377919,-0.199103,-0.613210,0.886831,0.219469,0.505006,-0.516153,-0.656040,92.731661,25.852040,-115.936632
35986,NaN,-1.570087,9.980873,-0.607657,-1.133804,-2.677736,-0.117551,-0.299601,-0.564159,0.916358,0.221787,0.500401,-0.518121,-0.657236,92.390728,25.336830,-116.325913
35987,NaN,-2.444985,9.737449,-0.716038,-0.551596,-1.870022,0.061845,-0.369372,-0.581620,0.964258,0.224374,0.495540,-0.519986,-0.658567,92.013185,24.793555,-116.720515
35988,NaN,-2.593861,8.874474,-0.665678,-0.262992,-1.353406,-0.646130,-0.282870,-0.532929,1.058175,0.227184,0.490664,-0.522300,-0.659423,91.702344,24.191880,-117.081230
35989,NaN,-2.892731,9.091456,-0.491567,-0.258541,-1.034703,-0.319237,-0.243818,-0.548042,1.129696,0.230075,0.485586,-0.524911,-0.660106,91.415811,23.549351,-117.447205
35990,NaN,-2.131899,8.642093,-0.419646,-0.469373,-1.392213,-1.023641,-0.275175,-0.638975,1.155227,0.232889,0.480074,-0.527566,-0.661034,91.094279,22.889929,-117.864904
35991,NaN,-0.950679,8.385805,-0.641210,-0.660261,-2.301572,-1.694642,-0.183074,-0.668363,1.200700,0.235533,0.474439,-0.530639,-0.661706,90.825599,22.204413,-118.295348
35992,NaN,-1.425181,9.130446,-0.994541,-0.221794,-2.249903,-0.797525,-0.070344,-0.673747,1.169411,0.237791,0.468969,-0.533998,-0.662095,90.626499,21.533495,-118.723971
35993,NaN,-2.914223,9.568209,-0.983498,0.419517,-1.087693,0.169824,-0.043236,-0.648819,1.115314,0.239851,0.463748,-0.537260,-0.662390,90.455163,20.893905,-119.132514
35994,NaN,-3.960790,9.147566,-0.721982,0.819864,0.103177,0.147395,-0.084169,-0.628250,1.105051,0.242029,0.458544,-0.540322,-0.662730,90.270034,20.257113,-119.524731
35995,NaN,-4.295692,8.526090,-0.495001,0.962356,0.754144,-0.331319,0.033478,-0.565745,1.152502,0.244243,0.453552,-0.543779,-0.662526,90.170945,19.593913,-119.875491
35996,NaN,-4.127114,8.969577,-0.129128,0.560891,0.761450,0.016222,0.117827,-0.472866,1.213032,0.246718,0.448777,-0.547522,-0.661777,90.143085,18.893754,-120.167861
35997,NaN,-3.559513,9.259483,-0.241301,0.407759,0.262234,0.098420,0.107156,-0.415079,1.270446,0.249543,0.444013,-0.551257,-0.660830,90.124447,18.162279,-120.423713
35998,NaN,-2.980810,8.936242,-0.558990,0.519550,-0.181010,-0.391954,0.127195,-0.376315,1.304109,0.252541,0.439279,-0.555064,-0.659667,90.127625,17.409719,-120.655213
35999,NaN,-3.245901,9.263173,-0.695569,0.773028,-0.008105,-0.003145,0.249868,-0.347518,1.292520,0.255289,0.434816,-0.559183,-0.658086,90.209432,16.665630,-120.868956
36000,NaN,-4.202868,9.814363,-0.393543,0.957869,0.913403,0.788610,0.229016,-0.327719,1.218340,0.257893,0.430571,-0.563027,-0.656583,90.284944,15.962585,-121.071044
36001,NaN,-4.484781,9.319566,-0.014325,0.899555,1.570333,0.370208,0.308661,-0.278238,1.185943,0.260337,0.426673,-0.566971,-0.654766,90.416466,15.279970,-121.244097
36002,NaN,-4.594523,9.448455,0.505278,0.545730,2.013534,0.496765,0.212517,-0.255338,1.170269,0.262999,0.422745,-0.570519,-0.653166,90.497992,14.604953,-121.404334
36003,NaN,-4.035273,8.866197,0.523634,0.384762,1.788660,-0.230484,0.175241,-0.225694,1.166943,0.265795,0.418866,-0.573874,-0.651592,90.564417,13.933473,-121.547351
36004,NaN,-4.044832,8.789487,0.340501,0.607584,1.814508,-0.322214,0.203236,-0.203387,1.122126,0.268449,0.415204,-0.577180,-0.649926,90.651280,13.286252,-121.677533
36005,NaN,-4.475260,8.816481,0.162716,1.023895,2.167065,-0.218977,0.193162,-0.199041,1.079678,0.270981,0.411659,-0.580337,-0.648317,90.734507,12.664977,-121.805423
36006,NaN,-4.849104,9.042954,0.295207,1.126514,2.596814,0.054560,0.131239,-0.221654,1.023816,0.273394,0.408098,-0.583195,-0.646989,90.780488,12.074684,-121.946624
36007,NaN,-4.347229,8.506373,0.305648,0.977415,2.357048,-0.601907,0.055543,-0.263203,0.958086,0.275613,0.404489,-0.585711,-0.646041,90.779869,11.523761,-122.111489
36008,NaN,-3.906601,8.688082,0.495177,0.617104,2.134935,-0.536368,0.103581,-0.275756,0.899030,0.277507,0.401061,-0.588269,-0.645042,90.806713,11.005637,-122.283080
36009,NaN,-3.587690,8.931865,0.521598,0.445580,1.915617,-0.375891,0.116477,-0.323968,0.814320,0.278947,0.397743,-0.590750,-0.644207,90.837542,10.537695,-122.482000
36010,NaN,-3.287618,9.147533,0.569355,0.263740,1.724170,-0.233167,0.147769,-0.367148,0.705828,0.279850,0.394637,-0.593168,-0.643504,90.883152,10.131362,-122.705198
36011,NaN,-3.821407,9.427214,0.504754,0.608132,2.148231,0.124377,0.139763,-0.384856,0.605901,0.280383,0.391759,-0.595376,-0.642991,90.924282,9.783649,-122.937782
36012,NaN,-4.103423,9.354698,0.553404,0.764562,2.463414,0.086882,0.038025,-0.389285,0.526791,0.280851,0.388949,-0.597103,-0.642891,90.907817,9.480414,-123.172090
36013,NaN,-3.956676,8.901244,0.500165,0.815838,2.409881,-0.396518,0.041445,-0.357948,0.523157,0.281385,0.386257,-0.598782,-0.642719,90.897852,9.179857,-123.387857
36014,NaN,-3.659275,8.929609,0.124966,1.002847,1.990834,-0.422562,-0.006217,-0.335443,0.543185,0.282145,0.383502,-0.600309,-0.642612,90.863433,8.866762,-123.590473
36015,NaN,-4.679044,9.510712,-1.137599,2.590978,2.093382,0.313793,0.083829,-0.418197,0.495017,0.282321,0.380753,-0.602143,-0.642454,90.874827,8.582725,-123.840372
36016,NaN,-5.477628,8.873276,0.435924,1.828419,3.715608,-0.232478,-0.108136,-0.581315,0.206927,0.281447,0.378068,-0.603036,-0.643584,90.763182,8.464229,-124.182014
36017,NaN,-4.667107,7.749738,-0.399496,2.206081,2.706353,-1.457524,0.077198,-0.480904,0.105097,0.280191,0.376275,-0.604186,-0.644104,90.767250,8.403613,-124.464503
36018,NaN,-6.896248,8.882159,-1.225685,4.041753,3.922399,-0.002880,0.218263,-0.454377,0.044999,0.278558,0.374942,-0.605636,-0.644228,90.854343,8.377030,-124.731166
36019,NaN,-6.449924,8.348452,-1.782188,4.305523,3.282982,-0.584535,0.118306,-0.482040,-0.122480,0.276484,0.373887,-0.606484,-0.644935,90.882253,8.447303,-125.012409
36020,NaN,-4.041336,10.101618,-2.504161,3.349829,0.701602,0.814270,0.296064,-0.383880,-0.117446,0.274391,0.373377,-0.607775,-0.644910,91.019824,8.514066,-125.236794
36021,NaN,-2.118060,10.594277,-2.026540,1.797661,-0.636617,1.012970,0.066386,-0.138353,-0.045219,0.273704,0.373123,-0.608123,-0.645021,91.046848,8.537329,-125.319635
36022,NaN,-1.170680,10.324871,-1.041423,0.477322,-0.802834,0.588545,-0.027846,0.078374,-0.036677,0.273879,0.373413,-0.607884,-0.645004,91.038379,8.553444,-125.277019
36023,NaN,-0.838208,10.019808,-0.157796,-0.399012,-0.528376,0.221537,-0.075402,0.132515,-0.006692,0.274404,0.373721,-0.607475,-0.644988,91.007402,8.551852,-125.203352
36024,NaN,-1.246148,9.320417,0.439267,-0.577394,0.220098,-0.419382,-0.103276,0.069568,-0.010443,0.274778,0.373799,-0.607054,-0.645180,90.954946,8.553040,-125.166115
36025,NaN,-0.445776,8.469535,0.724475,-1.175826,-0.172005,-1.383901,-0.079483,-0.006697,-0.022720,0.274835,0.373701,-0.606793,-0.645458,90.909658,8.562042,-125.172943
36026,NaN,-1.005241,8.642359,0.624835,-0.792122,0.201710,-1.128037,0.041546,-0.009369,-0.011043,0.274697,0.373724,-0.606946,-0.645359,90.933336,8.564312,-125.181433
36027,NaN,-2.282820,9.184927,-0.017369,0.403535,0.802510,-0.391032,0.022613,-0.064147,-0.026837,0.274377,0.373594,-0.607085,-0.645440,90.941589,8.576212,-125.221506
36028,NaN,-2.720809,9.445504,-1.061926,1.476845,0.521323,-0.050762,0.067672,-0.178388,-0.016364,0.273660,0.373124,-0.607545,-0.645584,90.965607,8.583164,-125.327866
36029,NaN,-2.851105,10.271890,-0.579716,1.073379,0.816392,0.777778,0.100513,-0.158974,0.044011,0.273134,0.372578,-0.608196,-0.645508,91.010205,8.555449,-125.423573
36030,NaN,-2.771849,10.406986,0.302563,0.298524,1.260541,0.883198,0.043506,-0.060653,0.117768,0.273252,0.372047,-0.608666,-0.645322,91.030428,8.484556,-125.463090
36031,NaN,-2.785739,10.910273,0.582041,0.037352,1.393653,1.376123,0.001682,-0.003977,0.168760,0.273784,0.371487,-0.609018,-0.645087,91.031600,8.383849,-125.470321
36032,NaN,-1.886498,11.010967,0.713031,-0.581666,0.751576,1.341031,-0.019989,-0.015632,0.206265,0.274441,0.370745,-0.609385,-0.644888,91.019184,8.261869,-125.484674
36033,NaN,-1.314859,10.809999,0.722017,-0.876121,0.332132,1.060595,-0.140841,-0.054019,0.217467,0.275241,0.369678,-0.609435,-0.645112,90.934542,8.133741,-125.521250
36034,NaN,-0.880096,9.852165,0.309072,-0.673135,-0.148466,0.059498,-0.158281,-0.061803,0.199011,0.275990,0.368618,-0.609403,-0.645428,90.839200,8.016292,-125.561945
36035,NaN,-0.603860,9.437124,-0.030585,-0.496073,-0.516779,-0.383387,-0.096053,-0.031946,0.193532,0.276697,0.367757,-0.609521,-0.645506,90.782220,7.901594,-125.585159
36036,NaN,-0.951018,9.398658,-0.355066,-0.012965,-0.411150,-0.368322,-0.039558,-0.016267,0.184953,0.277321,0.367049,-0.609782,-0.645394,90.758693,7.791731,-125.599147
36037,NaN,-0.838284,9.677914,-0.319510,-0.120307,-0.498049,-0.106798,-0.012140,-0.039737,0.145013,0.277692,0.366426,-0.610092,-0.645296,90.749337,7.704865,-125.626370
36038,NaN,-0.609850,10.019108,-0.146761,-0.413585,-0.604637,0.199271,-0.002187,-0.050119,0.134368,0.277980,0.365815,-0.610427,-0.645202,90.744727,7.624206,-125.659494
36039,NaN,-0.897624,9.913536,0.251103,-0.552010,-0.120375,0.128528,-0.026924,-0.058106,0.108083,0.278204,0.365224,-0.610646,-0.645233,90.725612,7.558625,-125.697021
36040,NaN,-0.847623,9.810620,0.266135,-0.576115,-0.133933,0.020303,-0.006631,-0.062702,0.095110,0.278335,0.364685,-0.610912,-0.645230,90.717616,7.500500,-125.737084
36041,NaN,-0.963730,9.821479,0.085733,-0.356715,-0.140197,0.048888,-0.014907,-0.069159,0.084125,0.278425,0.364148,-0.611141,-0.645277,90.704659,7.448707,-125.780788
36042,NaN,-1.204738,9.773887,-0.280620,0.090829,-0.151056,0.037589,-0.022432,-0.077537,0.071416,0.278463,0.363611,-0.611333,-0.645381,90.686584,7.404220,-125.829220
36043,NaN,-1.282964,9.748416,-0.417117,0.255733,-0.161921,0.023977,-0.027713,-0.076990,0.063594,0.278486,0.363094,-0.611494,-0.645510,90.665799,7.364216,-125.877268
36044,NaN,-1.383482,10.047848,-0.503490,0.365328,-0.157137,0.334658,-0.020195,-0.050394,0.066689,0.278588,0.362662,-0.611647,-0.645564,90.651103,7.322225,-125.909951
36045,NaN,-1.204028,10.166575,-0.165245,-0.014744,-0.111584,0.425650,-0.069895,-0.040295,0.052315,0.278763,0.362239,-0.611600,-0.645771,90.608926,7.288414,-125.936690
36046,NaN,-0.822532,10.026970,0.208020,-0.516989,-0.185467,0.235112,-0.093098,-0.030945,0.044260,0.278983,0.361837,-0.611449,-0.646044,90.553959,7.259117,-125.957947
36047,NaN,-0.966422,9.973240,0.428205,-0.596479,0.063086,0.198460,-0.092826,-0.024343,0.034468,0.279191,0.361487,-0.611273,-0.646317,90.499852,7.235399,-125.975313
36048,NaN,-1.403336,9.706965,0.173305,-0.105105,0.287415,-0.008051,-0.078325,-0.034882,0.020106,0.279295,0.361166,-0.611131,-0.646585,90.453081,7.219899,-125.998671
36049,NaN,-1.663996,9.850319,0.050698,0.142738,0.408222,0.167954,-0.075493,-0.049254,0.024657,0.279363,0.360790,-0.611028,-0.646863,90.407120,7.201881,-126.030340
36050,NaN,-1.542858,9.934675,-0.097585,0.193073,0.213998,0.237418,-0.055879,-0.058809,0.029674,0.279384,0.360394,-0.611009,-0.647092,90.371484,7.180974,-126.067527
36051,NaN,-1.482339,9.915814,-0.050458,0.128201,0.194550,0.210733,-0.052099,-0.045518,0.031242,0.279443,0.360043,-0.610988,-0.647282,90.339219,7.159128,-126.097035
36052,NaN,-1.370039,9.881174,-0.011324,0.040305,0.130745,0.162081,-0.048518,-0.040336,0.029412,0.279506,0.359718,-0.610967,-0.647456,90.309160,7.138284,-126.123526
36053,NaN,-1.222080,9.914353,0.053108,-0.094538,0.046777,0.176285,-0.048336,-0.043681,0.027712,0.279553,0.359388,-0.610949,-0.647636,90.279210,7.118424,-126.151936
36054,NaN,-1.342519,9.794567,0.014656,0.022661,0.132133,0.072562,-0.048329,-0.048701,0.032591,0.279600,0.359026,-0.610945,-0.647820,90.248680,7.095756,-126.183241
36055,NaN,-1.420132,9.835057,-0.065401,0.136479,0.143048,0.122619,-0.053605,-0.049918,0.034633,0.279659,0.358648,-0.610931,-0.648017,90.215289,7.071914,-126.215244
36056,NaN,-1.427940,9.808828,-0.158782,0.225553,0.096374,0.097770,-0.056242,-0.043900,0.033289,0.279737,0.358288,-0.610896,-0.648215,90.180596,7.048809,-126.243748
36057,NaN,-1.592053,9.938433,-0.072993,0.250177,0.266342,0.246084,-0.048636,-0.027369,0.046156,0.279894,0.357954,-0.610887,-0.648341,90.151676,7.018292,-126.262722
36058,NaN,-1.600553,10.020805,-0.007211,0.205638,0.303282,0.328520,-0.112362,-0.008322,0.039823,0.280202,0.357612,-0.610631,-0.648637,90.087370,6.991378,-126.270660
36059,NaN,-1.061278,9.812449,-0.078607,-0.026528,-0.152675,0.056083,-0.108363,0.004826,0.044700,0.280559,0.357303,-0.610381,-0.648889,90.026512,6.961641,-126.270989
36060,NaN,-0.543817,9.700722,0.130355,-0.480758,-0.434448,-0.117489,-0.087307,0.003268,0.026585,0.280814,0.357073,-0.610166,-0.649106,89.977388,6.942302,-126.272180
36061,NaN,-0.720067,9.569114,0.223239,-0.435156,-0.228644,-0.226519,-0.081188,-0.005353,0.001249,0.280950,0.356902,-0.609940,-0.649355,89.931395,6.937455,-126.278350
36062,NaN,-1.172706,9.629643,0.242410,-0.182203,0.134728,-0.111519,-0.084093,-0.032127,-0.003925,0.280993,0.356654,-0.609731,-0.649668,89.881638,6.935532,-126.299967
36063,NaN,-1.363149,9.914466,0.324919,-0.148134,0.302418,0.194659,-0.114752,-0.047951,0.001502,0.281060,0.356296,-0.609456,-0.650093,89.813448,6.930463,-126.330714
36064,NaN,-1.314712,9.595202,0.227479,-0.067433,0.232699,-0.128194,-0.076468,-0.051844,0.005050,0.281059,0.355968,-0.609315,-0.650406,89.766680,6.923317,-126.363687
36065,NaN,-1.276740,10.137876,0.374897,-0.239813,0.233574,0.406661,-0.034274,-0.042525,0.011805,0.281032,0.355710,-0.609312,-0.650562,89.744990,6.912310,-126.391267
36066,NaN,-1.271177,9.688930,0.171372,-0.040127,0.149823,-0.040453,-0.138350,-0.048723,0.019941,0.281198,0.355259,-0.608992,-0.651036,89.662990,6.896598,-126.422382
36067,NaN,-1.370450,9.714587,0.069357,0.105455,0.164114,-0.003606,0.011034,-0.024478,0.013492,0.281151,0.355118,-0.609114,-0.651019,89.668525,6.884641,-126.439523
36068,NaN,-1.378668,9.755583,0.000679,0.164496,0.127208,0.037637,-0.017885,-0.014531,0.014339,0.281189,0.354965,-0.609127,-0.651073,89.657920,6.872239,-126.450911
36069,NaN,-1.337639,9.821239,0.051975,0.096859,0.119915,0.098163,-0.001653,0.011756,0.023447,0.281308,0.354893,-0.609175,-0.651017,89.658697,6.854701,-126.447105
36070,NaN,-1.341137,9.864072,0.156695,0.014727,0.182352,0.141691,-0.030765,0.016808,0.025868,0.281502,0.354789,-0.609123,-0.651038,89.642884,6.835811,-126.440363
36071,NaN,-1.188592,9.994689,0.278167,-0.175694,0.119414,0.254030,-0.073851,0.015947,0.027645,0.281774,0.354617,-0.608936,-0.651189,89.602583,6.815885,-126.434112
36072,NaN,-0.859177,9.512861,0.299922,-0.349148,-0.085010,-0.263157,-0.073407,0.004620,0.007603,0.281947,0.354468,-0.608730,-0.651387,89.561486,6.807421,-126.434458
36073,NaN,-0.744236,9.949212,0.478672,-0.583928,-0.115988,0.158040,-0.033013,0.009715,0.012733,0.282080,0.354378,-0.608659,-0.651445,89.544149,6.796018,-126.431845
36074,NaN,-1.038583,9.549214,0.258480,-0.205326,0.028436,-0.205919,-0.007833,0.001554,-0.002641,0.282094,0.354344,-0.608653,-0.651464,89.540393,6.793389,-126.434001
36075,NaN,-1.219690,9.789688,0.253340,-0.109638,0.146644,0.054242,0.010455,-0.002536,-0.000888,0.282068,0.354317,-0.608716,-0.651431,89.547119,6.789735,-126.438518
36076,NaN,-1.289521,9.818703,0.114969,0.040149,0.118793,0.090206,0.020239,-0.006419,-0.003398,0.282006,0.354298,-0.608811,-0.651379,89.558895,6.787502,-126.445278
36077,NaN,-1.237946,9.802885,0.105298,0.017323,0.075118,0.068315,0.018561,-0.007497,0.001663,0.281959,0.354258,-0.608912,-0.651326,89.569928,6.782367,-126.452648
36078,NaN,-1.254245,9.750889,0.101357,0.032810,0.092393,0.018570,0.008473,-0.003392,-0.000746,0.281936,0.354225,-0.608969,-0.651302,89.575171,6.778635,-126.457650
36079,NaN,-1.268509,9.765457,0.128847,0.018291,0.119609,0.034913,-0.000665,-0.006396,0.003223,0.281931,0.354157,-0.609009,-0.651303,89.575265,6.772612,-126.464379
36080,NaN,-1.129810,9.870029,0.146560,-0.083442,0.009330,0.122521,-0.013032,-0.007973,0.000881,0.281937,0.354073,-0.609005,-0.651350,89.567876,6.767935,-126.472016
36081,NaN,-0.949414,9.833532,0.196541,-0.226410,-0.102110,0.065404,-0.021050,0.007012,-0.009719,0.281967,0.354059,-0.608937,-0.651408,89.557196,6.769384,-126.471065
36082,NaN,-1.017896,9.762835,0.200001,-0.183329,-0.039390,0.003315,-0.011413,0.014695,-0.010333,0.282003,0.354086,-0.608887,-0.651425,89.552268,6.771223,-126.465673
36083,NaN,-1.105651,9.811959,0.215839,-0.147416,0.034456,0.062569,-0.004086,0.013513,-0.015890,0.282003,0.354136,-0.608854,-0.651428,89.551747,6.776237,-126.460998
36084,NaN,-1.247288,9.810291,0.208521,-0.058341,0.142671,0.077574,-0.002377,0.017775,-0.015939,0.282013,0.354202,-0.608819,-0.651421,89.552198,6.781296,-126.453855
36085,NaN,-1.333729,9.756210,0.214212,-0.009047,0.219810,0.034137,-0.003516,0.014933,-0.015905,0.282016,0.354258,-0.608786,-0.651420,89.552101,6.786325,-126.448361
36086,NaN,-1.356552,9.843711,0.199298,0.009686,0.220523,0.123604,0.016410,0.018368,-0.010826,0.282012,0.354337,-0.608820,-0.651347,89.563355,6.788463,-126.440852
36087,NaN,-1.308327,9.795638,0.162389,0.012330,0.165791,0.069872,0.014529,0.017438,-0.009044,0.282013,0.354406,-0.608854,-0.651277,89.573772,6.789571,-126.433881
36088,NaN,-1.232898,9.821625,0.079241,0.031269,0.054610,0.086134,0.021217,0.018094,-0.011210,0.281999,0.354492,-0.608903,-0.651190,89.587757,6.791934,-126.426530
36089,NaN,-1.113371,9.773210,0.058162,-0.021011,-0.047832,0.023769,0.011402,0.018788,-0.013714,0.281994,0.354575,-0.608917,-0.651134,89.596474,6.795720,-126.418800
36090,NaN,-1.118269,9.809619,0.035710,-0.004078,-0.060437,0.060344,0.014796,0.019079,-0.013975,0.281985,0.354664,-0.608939,-0.651069,89.606849,6.799669,-126.410890
36091,NaN,-1.103141,9.827089,0.034140,-0.014472,-0.075272,0.075886,0.001602,0.032760,-0.020895,0.282017,0.354800,-0.608889,-0.651028,89.610904,6.807622,-126.395125
36092,NaN,-1.016558,9.605723,0.003909,-0.027584,-0.142427,-0.154412,-0.022139,0.026130,-0.037289,0.282018,0.354930,-0.608739,-0.651096,89.600595,6.824952,-126.383239
36093,NaN,-1.155430,10.045453,0.283069,-0.200445,0.087750,0.300591,0.003649,0.035407,-0.029236,0.282028,0.355104,-0.608677,-0.651056,89.606007,6.837696,-126.365979
36094,NaN,-1.210676,9.755809,0.213384,-0.094840,0.118113,0.019105,0.000415,0.023548,-0.030870,0.282002,0.355238,-0.608616,-0.651051,89.608450,6.851333,-126.355557
36095,NaN,-1.257222,9.798968,0.296731,-0.138909,0.198532,0.068088,-0.005267,0.009336,-0.030713,0.281943,0.355318,-0.608559,-0.651086,89.606966,6.864820,-126.353346
36096,NaN,-1.249357,9.820620,0.247919,-0.107168,0.159360,0.088325,0.005748,0.000002,-0.031769,0.281834,0.355386,-0.608547,-0.651108,89.610834,6.878883,-126.356515
36097,NaN,-1.243684,9.810101,0.171381,-0.049994,0.109127,0.076690,0.005088,-0.006394,-0.028550,0.281716,0.355423,-0.608549,-0.651136,89.614197,6.891069,-126.363372
36098,NaN,-1.201745,9.832763,0.118395,-0.035206,0.040030,0.093805,-0.000593,-0.002281,-0.037906,0.281591,0.355493,-0.608509,-0.651190,89.614263,6.908644,-126.367880
36099,NaN,-1.248888,9.872203,0.053576,0.040721,0.033070,0.138204,-0.005850,-0.000324,-0.030859,0.281503,0.355542,-0.608463,-0.651244,89.611776,6.922176,-126.371244
36100,NaN,-1.304495,9.786497,0.028455,0.098619,0.069067,0.059675,-0.011684,0.005258,-0.028636,0.281451,0.355593,-0.608392,-0.651305,89.606016,6.934470,-126.371367
36101,NaN,-1.361893,9.803909,0.013237,0.143168,0.101910,0.083811,-0.014411,0.006308,-0.026750,0.281412,0.355638,-0.608316,-0.651368,89.599085,6.945674,-126.370888
36102,NaN,-1.292769,9.803531,0.030742,0.088574,0.054869,0.075213,-0.019482,0.013163,-0.021265,0.281421,0.355682,-0.608222,-0.651428,89.589417,6.953784,-126.366422
36103,NaN,-1.200786,9.816558,0.096439,-0.018832,0.016717,0.077477,-0.022409,0.014360,-0.022656,0.281434,0.355729,-0.608116,-0.651495,89.578470,6.962676,-126.361282
36104,NaN,-1.244555,9.756513,0.172252,-0.049513,0.100300,0.023757,-0.023541,0.011516,-0.022624,0.281442,0.355766,-0.608009,-0.651573,89.566363,6.971563,-126.357776
36105,NaN,-1.284558,9.791685,0.157350,-0.015647,0.117666,0.063438,-0.018820,0.006277,-0.019808,0.281433,0.355784,-0.607931,-0.651639,89.556907,6.978789,-126.357292
36106,NaN,-1.351251,9.752660,0.187930,0.002015,0.191338,0.033071,-0.013533,0.002462,-0.017007,0.281413,0.355788,-0.607879,-0.651694,89.549900,6.984422,-126.358989
36107,NaN,-1.361492,9.759039,0.116635,0.065425,0.155492,0.040111,-0.009560,-0.000867,-0.012447,0.281390,0.355773,-0.607854,-0.651735,89.545253,6.987399,-126.362597
36108,NaN,-1.308517,9.775535,0.136963,0.017082,0.122901,0.050206,-0.003324,-0.006739,-0.008119,0.281353,0.355734,-0.607864,-0.651763,89.543451,6.987905,-126.369565
36109,NaN,-1.298319,9.797579,0.088733,0.048757,0.083747,0.070463,-0.004922,-0.002847,-0.006263,0.281336,0.355701,-0.607868,-0.651784,89.541326,6.987330,-126.374288
36110,NaN,-1.244367,9.779754,0.105877,0.004834,0.052199,0.046344,-0.009362,-0.001016,-0.009170,0.281324,0.355676,-0.607848,-0.651822,89.536466,6.988470,-126.377957
36111,NaN,-1.213846,9.782963,0.078582,0.009199,0.010781,0.045597,-0.009828,0.005720,-0.007342,0.281338,0.355667,-0.607823,-0.651844,89.532130,6.988551,-126.377740
36112,NaN,-1.245965,9.779530,0.107761,0.005479,0.053493,0.046337,-0.012756,0.015149,-0.008557,0.281383,0.355688,-0.607770,-0.651863,89.526462,6.989417,-126.372075
36113,NaN,-1.310049,9.807129,0.168686,-0.006757,0.137301,0.082037,-0.018781,0.024053,-0.004597,0.281478,0.355717,-0.607695,-0.651876,89.518286,6.988014,-126.361263
36114,NaN,-1.342296,9.838107,0.201703,-0.014886,0.178991,0.116992,-0.021215,0.033108,0.002381,0.281628,0.355751,-0.607609,-0.651873,89.509037,6.982706,-126.345179
36115,NaN,-1.378244,9.804876,0.179936,0.027850,0.198414,0.088190,-0.021954,0.046428,0.009321,0.281842,0.355807,-0.607516,-0.651836,89.500619,6.973443,-126.321382
36116,NaN,-1.287643,9.754003,0.190547,-0.028641,0.137985,0.026776,-0.019876,0.047213,0.010829,0.282060,0.355864,-0.607429,-0.651792,89.493121,6.963379,-126.297112
36117,NaN,-1.087808,9.802861,0.271018,-0.212454,0.021369,0.051757,-0.014601,0.056681,0.008986,0.282291,0.355964,-0.607345,-0.651715,89.489625,6.954365,-126.267398
36118,NaN,-1.102632,9.747633,0.120192,-0.077119,-0.049052,-0.002578,-0.010067,0.063003,0.013724,0.282549,0.356077,-0.607273,-0.651609,89.488838,6.942725,-126.233998
36119,NaN,-1.115274,9.693352,0.141635,-0.082735,-0.019731,-0.054729,-0.008675,0.061136,-0.001242,0.282749,0.356232,-0.607184,-0.651521,89.489032,6.939595,-126.201766
36120,NaN,-1.119780,9.764304,0.123459,-0.070206,-0.033309,0.016084,0.006412,0.061700,-0.000738,0.282927,0.356407,-0.607142,-0.651387,89.497580,6.936229,-126.169194
36121,NaN,-1.112477,9.791920,0.198126,-0.137400,0.002907,0.043258,0.000089,0.067648,-0.006697,0.283114,0.356612,-0.607062,-0.651268,89.503243,6.936251,-126.133232
36122,NaN,-1.125662,9.703130,0.216187,-0.138560,0.033190,-0.043128,-0.018015,0.063300,-0.005403,0.283324,0.356772,-0.606930,-0.651212,89.497901,6.935557,-126.099761
36123,NaN,-1.213379,9.987783,0.302416,-0.175342,0.124467,0.250777,-0.004439,0.058146,-0.016431,0.283458,0.356969,-0.606831,-0.651137,89.500302,6.941109,-126.069332
36124,NaN,-1.185948,9.722760,0.175804,-0.072600,0.054465,-0.016709,-0.009530,0.045347,-0.016336,0.283564,0.357116,-0.606732,-0.651103,89.498560,6.946588,-126.046277
36125,NaN,-1.190255,9.825596,0.185939,-0.085532,0.052142,0.085978,-0.006225,0.034316,-0.023427,0.283606,0.357254,-0.606649,-0.651086,89.498276,6.956029,-126.029637
36126,NaN,-1.123508,9.793199,0.175131,-0.114769,-0.006026,0.045632,-0.003673,0.025191,-0.028771,0.283600,0.357382,-0.606576,-0.651088,89.498476,6.968532,-126.018277
36127,NaN,-1.185858,9.780672,0.107079,-0.023711,0.003420,0.040165,-0.008670,0.025600,-0.031675,0.283593,0.357513,-0.606482,-0.651106,89.496182,6.982655,-126.006709
36128,NaN,-1.258362,9.812320,0.118657,0.006216,0.062854,0.080501,-0.011785,0.030123,-0.031330,0.283608,0.357652,-0.606371,-0.651127,89.492084,6.996648,-125.992517
36129,NaN,-1.318180,9.797444,0.075078,0.076259,0.084478,0.072665,-0.010277,0.034540,-0.034626,0.283621,0.357819,-0.606254,-0.651138,89.489502,7.012509,-125.975804
36130,NaN,-1.476877,9.843219,0.097373,0.146501,0.218158,0.137717,-0.004811,0.030577,-0.028542,0.283634,0.357962,-0.606170,-0.651133,89.489442,7.024911,-125.961335
36131,NaN,-1.371933,9.977071,0.171822,0.015131,0.161793,0.258423,-0.008215,0.038502,-0.028093,0.283677,0.358124,-0.606066,-0.651121,89.488334,7.037050,-125.942302
36132,NaN,-1.186986,9.868371,0.264879,-0.161424,0.076876,0.128735,-0.020839,0.026995,-0.025777,0.283716,0.358224,-0.605939,-0.651167,89.478843,7.047863,-125.929887
36133,NaN,-1.096455,9.780635,0.296813,-0.234669,0.029660,0.030847,-0.011403,0.026640,-0.029777,0.283724,0.358349,-0.605838,-0.651189,89.475074,7.060908,-125.917711
36134,NaN,-1.136572,9.781301,0.276893,-0.196305,0.047994,0.036246,-0.004706,0.027326,-0.031902,0.283715,0.358491,-0.605752,-0.651194,89.474843,7.075229,-125.905139
36135,NaN,-1.269434,9.734073,0.188530,-0.045806,0.105960,0.004943,-0.004798,0.027402,-0.033535,0.283701,0.358639,-0.605666,-0.651200,89.474916,7.090432,-125.892543
36136,NaN,-1.347693,9.770010,0.150659,0.026194,0.141000,0.049944,0.003970,0.028879,-0.034146,0.283674,0.358806,-0.605602,-0.651179,89.479767,7.106046,-125.879084
36137,NaN,-1.350098,9.836025,0.180634,-0.003313,0.151933,0.116043,0.003480,0.035609,-0.032296,0.283674,0.358988,-0.605532,-0.651143,89.485178,7.120580,-125.861740
36138,NaN,-1.245044,9.834906,0.217070,-0.096038,0.087294,0.102240,0.003499,0.027379,-0.032494,0.283649,0.359144,-0.605472,-0.651124,89.489657,7.135244,-125.849135
36139,NaN,-0.905541,9.781609,0.321184,-0.376888,-0.121319,0.008019,0.005606,0.026871,-0.045819,0.283574,0.359342,-0.605398,-0.651116,89.495660,7.157478,-125.836902
36140,NaN,-0.795819,9.741778,0.401857,-0.507272,-0.160569,-0.044682,0.022306,0.028643,-0.051932,0.283456,0.359588,-0.605362,-0.651066,89.510996,7.183274,-125.823660
36141,NaN,-1.070884,9.691161,0.300755,-0.267681,0.004694,-0.061577,0.033769,0.022813,-0.066064,0.283253,0.359874,-0.605348,-0.651009,89.532843,7.217081,-125.813855
36142,NaN,-1.353379,9.779719,0.187342,-0.024581,0.153861,0.060779,0.048342,0.010594,-0.070703,0.282972,0.360154,-0.605389,-0.650938,89.561778,7.253524,-125.811101
36143,NaN,-1.512443,9.919648,0.112971,0.110302,0.221442,0.219185,0.062184,-0.007946,-0.073787,0.282599,0.360403,-0.605497,-0.650861,89.597668,7.291617,-125.819060
36144,NaN,-1.241078,10.026122,0.160172,-0.101744,0.016756,0.290699,0.056190,-0.033226,-0.087078,0.282118,0.360601,-0.605595,-0.650869,89.627877,7.337279,-125.841640
36145,NaN,-0.851307,9.922344,0.273586,-0.422647,-0.222989,0.138398,0.062614,-0.046826,-0.105917,0.281522,0.360822,-0.605702,-0.650906,89.661112,7.393652,-125.872133
36146,NaN,-0.606849,9.852242,0.355753,-0.637786,-0.368590,0.037127,0.073500,-0.065425,-0.126817,0.280782,0.361060,-0.605830,-0.650974,89.698772,7.461991,-125.913399
36147,NaN,-0.494111,9.768872,0.352958,-0.707159,-0.457916,-0.061287,0.056705,-0.093043,-0.140932,0.279943,0.361227,-0.605918,-0.651161,89.725059,7.538328,-125.970644
36148,NaN,-0.741276,9.515357,0.180806,-0.416168,-0.341450,-0.281979,0.032120,-0.094653,-0.153876,0.279101,0.361393,-0.605902,-0.651445,89.736655,7.622088,-126.028832
36149,NaN,-1.192193,9.514014,0.004662,-0.022413,-0.092113,-0.224737,0.073111,-0.077804,-0.154844,0.278232,0.361674,-0.605997,-0.651572,89.773354,7.706476,-126.077266
36150,NaN,-1.478030,9.727278,-0.003452,0.119223,0.102100,0.024988,0.128154,-0.063168,-0.153628,0.277313,0.362075,-0.606249,-0.651507,89.842271,7.790215,-126.117158
36151,NaN,-1.596072,10.087733,0.152884,0.017399,0.243208,0.398763,0.089683,-0.041890,-0.142064,0.276564,0.362457,-0.606370,-0.651500,89.891179,7.867422,-126.144657
36152,NaN,-1.678183,9.918535,0.237077,-0.003928,0.371597,0.242745,0.087984,-0.021626,-0.138209,0.275894,0.362890,-0.606461,-0.651459,89.940298,7.942446,-126.160363
36153,NaN,-1.623640,9.986710,0.249817,-0.067447,0.322872,0.302854,0.112551,-0.008093,-0.143003,0.275202,0.363416,-0.606607,-0.651322,90.004969,8.020250,-126.168175
36154,NaN,-1.414687,10.112898,0.273598,-0.235176,0.150497,0.398528,0.082317,0.015010,-0.140284,0.274646,0.363966,-0.606624,-0.651233,90.053782,8.096497,-126.162536
36155,NaN,-1.441197,9.757069,0.141403,-0.096341,0.126944,0.049971,0.042213,0.009189,-0.142295,0.274137,0.364450,-0.606518,-0.651277,90.079564,8.173897,-126.160219
36156,NaN,-1.213990,9.630289,-0.098880,-0.036090,-0.190125,-0.107609,0.054688,-0.016819,-0.148541,0.273507,0.364883,-0.606473,-0.651341,90.109933,8.254899,-126.172910
36157,NaN,-1.113052,9.788043,-0.081353,-0.136164,-0.285953,0.033680,0.074710,0.009909,-0.149509,0.272917,0.365435,-0.606458,-0.651293,90.154416,8.336429,-126.170076
36158,NaN,-1.301454,9.711209,-0.123264,0.000189,-0.158567,-0.015168,0.060325,0.076120,-0.155479,0.272536,0.366199,-0.606291,-0.651179,90.195846,8.421247,-126.128822
36159,NaN,-1.406726,9.918635,-0.201213,0.092355,-0.152536,0.205639,0.033801,0.156659,-0.155412,0.272446,0.367190,-0.605931,-0.650994,90.229429,8.505843,-126.040852
36160,NaN,-1.463958,10.081131,-0.335529,0.207577,-0.214417,0.375339,-0.008563,0.226904,-0.160894,0.272629,0.368366,-0.605323,-0.650817,90.244526,8.593359,-125.912112
36161,NaN,-1.639959,9.958223,-0.450549,0.404935,-0.137270,0.280669,-0.056258,0.289035,-0.151367,0.273118,0.369652,-0.604494,-0.650654,90.238296,8.675274,-125.747355
36162,NaN,-1.875485,9.601799,-0.303893,0.448734,0.169338,-0.036477,-0.096389,0.361159,-0.133954,0.273956,0.371062,-0.603464,-0.650455,90.215235,8.747077,-125.540819
36163,NaN,-1.836538,9.297616,-0.181927,0.351653,0.236062,-0.343145,-0.120438,0.400760,-0.106720,0.275044,0.372486,-0.602352,-0.650213,90.182500,8.803311,-125.311380
36164,NaN,-1.654274,9.259731,-0.029730,0.124072,0.173776,-0.408724,-0.084278,0.411196,-0.088941,0.276154,0.373937,-0.601372,-0.649817,90.171242,8.849436,-125.075912
36165,NaN,-1.739821,9.458191,0.215633,-0.050353,0.353289,-0.200014,-0.062189,0.376355,-0.074447,0.277163,0.375261,-0.600538,-0.649395,90.170065,8.887332,-124.860651
36166,NaN,-1.614029,9.405648,0.099805,-0.025528,0.187290,-0.270909,-0.042552,0.289949,-0.049604,0.277956,0.376255,-0.599930,-0.649043,90.172123,8.911165,-124.695524
36167,NaN,-1.549022,9.409458,-0.104806,0.102266,0.015860,-0.276565,-0.000052,0.191885,-0.033110,0.278428,0.376941,-0.599629,-0.648721,90.190141,8.925672,-124.587289
36168,NaN,-1.418335,9.488671,-0.532943,0.369845,-0.341715,-0.217010,0.048278,0.107759,-0.006909,0.278641,0.377342,-0.599648,-0.648378,90.227913,8.925323,-124.527891
36169,NaN,-1.718805,9.493100,-0.610366,0.597003,-0.136601,-0.165371,0.060468,0.053576,0.018883,0.278752,0.377507,-0.599833,-0.648063,90.268154,8.910258,-124.499983
36170,NaN,-2.018292,9.368903,-0.598788,0.764049,0.135425,-0.241571,0.042637,0.002595,0.041633,0.278818,0.377414,-0.600073,-0.647867,90.293242,8.882323,-124.501715
36171,NaN,-1.976995,8.915778,-0.541911,0.737048,0.196446,-0.696140,0.009003,-0.026245,0.070735,0.278955,0.377093,-0.600300,-0.647784,90.296811,8.837762,-124.520265
36172,NaN,-1.750318,9.243888,-0.141718,0.255404,0.204751,-0.409177,-0.007317,-0.020534,0.089814,0.279202,0.376711,-0.600500,-0.647715,90.291233,8.782320,-124.535556
36173,NaN,-1.366350,9.305807,0.029536,-0.098099,-0.011628,-0.407580,-0.050926,-0.035625,0.111686,0.279555,0.376153,-0.600624,-0.647772,90.259661,8.714316,-124.559637
36174,NaN,-1.167545,9.532890,-0.037762,-0.163424,-0.232181,-0.212690,-0.046986,-0.045773,0.132496,0.279939,0.375505,-0.600811,-0.647809,90.229179,8.634473,-124.589605
36175,NaN,-1.200862,9.966578,-0.042797,-0.167088,-0.251996,0.221511,-0.047401,-0.034226,0.134466,0.280364,0.374888,-0.600985,-0.647821,90.199817,8.553389,-124.612842
36176,NaN,-1.486334,9.809400,0.002562,-0.016603,0.033125,0.108609,-0.086342,0.000013,0.140934,0.280986,0.374307,-0.600996,-0.647877,90.150812,8.468580,-124.616189
36177,NaN,-1.748757,9.796646,0.011544,0.141349,0.260436,0.134408,-0.123339,0.038291,0.153965,0.281834,0.373759,-0.600859,-0.647953,90.084179,8.376199,-124.597297
36178,NaN,-1.859538,9.813154,0.183446,0.079734,0.453082,0.166183,-0.136331,0.054488,0.161779,0.282780,0.373221,-0.600668,-0.648027,90.011139,8.279422,-124.568917
36179,NaN,-1.800149,9.614103,0.150322,0.110069,0.416829,-0.039858,-0.139033,0.040318,0.179677,0.283746,0.372579,-0.600524,-0.648108,89.935652,8.172358,-124.548620
36180,NaN,-1.603239,9.554003,0.190639,-0.008308,0.294358,-0.127702,-0.130537,0.018894,0.185245,0.284649,0.371863,-0.600445,-0.648197,89.862948,8.062194,-124.540575
36181,NaN,-1.415392,9.469613,0.105653,-0.017444,0.111566,-0.237966,-0.115839,0.014941,0.182704,0.285505,0.371162,-0.600416,-0.648249,89.798665,7.953403,-124.534698
36182,NaN,-1.333018,9.381477,0.003015,0.045692,0.006044,-0.337092,-0.095305,0.038071,0.185466,0.286401,0.370556,-0.600422,-0.648194,89.747670,7.843182,-124.515318
36183,NaN,-1.454756,9.708311,0.003776,0.106459,0.078576,0.003121,-0.094972,0.052898,0.177759,0.287314,0.370022,-0.600396,-0.648120,89.698322,7.737341,-124.487301
36184,NaN,-1.543503,9.971531,0.144019,0.039339,0.210939,0.276341,-0.099044,0.062448,0.184930,0.288288,0.369491,-0.600353,-0.648030,89.647026,7.627544,-124.453643
36185,NaN,-1.747828,10.111306,0.259582,0.068254,0.438605,0.442249,-0.118245,0.061207,0.200918,0.289344,0.368879,-0.600281,-0.647975,89.584903,7.508517,-124.420549
36186,NaN,-1.923381,10.196347,0.245812,0.193760,0.576832,0.548538,-0.118301,0.037808,0.215088,0.290376,0.368149,-0.600265,-0.647943,89.520631,7.381418,-124.400777
36187,NaN,-1.837744,9.979293,0.059110,0.337195,0.437973,0.319514,-0.129210,0.003945,0.226302,0.291362,0.367259,-0.600285,-0.647987,89.447919,7.247628,-124.400371
36188,NaN,-1.585871,9.941421,-0.122866,0.373402,0.145548,0.247196,-0.139367,-0.031812,0.235766,0.292289,0.366209,-0.600338,-0.648115,89.366515,7.108349,-124.420361
36189,NaN,-1.179646,10.053522,-0.030775,0.088582,-0.135656,0.308553,-0.151293,-0.040042,0.228160,0.293189,0.365137,-0.600351,-0.648301,89.278084,6.973198,-124.444954
36190,NaN,-1.146897,9.911510,0.043770,0.043306,-0.094911,0.164505,-0.162069,-0.037271,0.222494,0.294097,0.364075,-0.600312,-0.648523,89.183441,6.841426,-124.467752
36191,NaN,-1.103482,9.754146,0.260781,-0.127902,0.019403,0.006287,-0.107378,-0.017327,0.208401,0.294919,0.363199,-0.600396,-0.648562,89.121860,6.717716,-124.478991
36192,NaN,-1.189363,10.150784,0.619097,-0.373747,0.261187,0.416111,-0.147213,0.001518,0.214960,0.295892,0.362306,-0.600332,-0.648678,89.038455,6.590554,-124.479124
36193,NaN,-1.050846,9.638335,0.593147,-0.380679,0.197057,-0.108574,-0.123783,-0.001131,0.211877,0.296803,0.361447,-0.600344,-0.648730,88.968626,6.464985,-124.480661
36194,NaN,-0.980841,9.827397,0.646164,-0.450873,0.160638,0.073068,-0.130530,-0.021323,0.206745,0.297649,0.360528,-0.600351,-0.648848,88.893319,6.342283,-124.493713
36195,NaN,-0.837069,9.816410,0.474708,-0.367844,-0.043029,0.043820,-0.121323,-0.065582,0.189806,0.298289,0.359529,-0.600425,-0.649039,88.820847,6.228618,-124.532324
36196,NaN,-0.881820,9.981215,0.407061,-0.277451,-0.050343,0.211704,-0.024222,-0.065626,0.162264,0.298666,0.358757,-0.600762,-0.648982,88.803705,6.130832,-124.571170
36197,NaN,-0.752735,9.775635,0.256336,-0.204012,-0.210073,-0.009138,-0.065529,-0.054980,0.145595,0.299094,0.358007,-0.600920,-0.649052,88.763941,6.042572,-124.604053
36198,NaN,-0.886495,9.679111,0.339079,-0.178776,-0.036302,-0.088864,-0.072550,-0.025268,0.132390,0.299582,0.357383,-0.600985,-0.649111,88.721630,5.962346,-124.619899
36199,NaN,-1.074774,10.039435,0.524779,-0.228332,0.195814,0.293266,-0.029690,-0.007611,0.123728,0.300017,0.356906,-0.601149,-0.649021,88.705292,5.887181,-124.625667
36200,NaN,-0.922375,9.768884,0.485745,-0.261836,0.083593,0.007814,-0.037696,-0.008773,0.109382,0.300416,0.356457,-0.601260,-0.648980,88.683928,5.820332,-124.632243
36201,NaN,-0.533936,9.980097,0.506098,-0.496892,-0.236568,0.179344,-0.046277,-0.011343,0.095012,0.300776,0.356029,-0.601324,-0.648988,88.657850,5.761562,-124.640485
36202,NaN,-0.530862,9.648277,0.373747,-0.369378,-0.276895,-0.153617,-0.021913,-0.011885,0.067004,0.301001,0.355720,-0.601416,-0.648969,88.645297,5.718925,-124.649375
36203,NaN,-0.585213,9.844461,0.328199,-0.304314,-0.272657,0.046148,0.000335,-0.021404,0.037116,0.301060,0.355504,-0.601543,-0.648942,88.645287,5.693177,-124.664169
36204,NaN,-0.619869,9.983942,0.323508,-0.283216,-0.257632,0.188383,-0.016534,-0.023848,0.021615,0.301092,0.355300,-0.601590,-0.648996,88.635078,5.676351,-124.680555
36205,NaN,-0.691861,10.056881,0.289611,-0.215393,-0.223371,0.267348,0.001960,-0.012655,0.007632,0.301079,0.355204,-0.601657,-0.648993,88.636466,5.667609,-124.690713
36206,NaN,-0.840710,9.622615,0.278402,-0.104878,-0.066205,-0.150201,-0.015345,0.002958,-0.000528,0.301117,0.355155,-0.601627,-0.649028,88.628436,5.663813,-124.691972
36207,NaN,-0.770929,9.779445,0.735544,-0.525224,0.120742,0.009862,-0.014848,0.012779,-0.003477,0.301174,0.355149,-0.601581,-0.649048,88.621624,5.661781,-124.687640
36208,NaN,-0.633556,9.876676,0.958380,-0.788764,0.124651,0.098464,-0.019613,0.009950,-0.008228,0.301217,0.355141,-0.601514,-0.649095,88.611523,5.662484,-124.684980
36209,NaN,-0.849707,9.715203,0.834965,-0.559176,0.246989,-0.043826,0.022057,-0.005338,-0.008263,0.301138,0.355146,-0.601607,-0.649043,88.624821,5.662944,-124.691144
36210,NaN,-1.018662,9.854107,0.518795,-0.209636,0.192820,0.103417,0.002561,-0.018261,-0.024003,0.301005,0.355126,-0.601625,-0.649098,88.625767,5.672281,-124.704938
36211,NaN,-0.867424,9.718212,0.045701,0.097623,-0.187198,-0.058018,0.013093,-0.020923,-0.023147,0.300847,0.355112,-0.601686,-0.649123,88.633020,5.681054,-124.720278
36212,NaN,-0.734172,9.485940,-0.043603,0.101550,-0.324993,-0.304374,0.029308,-0.001017,-0.025082,0.300716,0.355192,-0.601764,-0.649068,88.650269,5.691246,-124.724159
36213,NaN,-0.767719,9.846256,0.296155,-0.173797,-0.141220,0.065354,-0.037223,0.025040,-0.042801,0.300721,0.355310,-0.601557,-0.649192,88.631288,5.711905,-124.713307
36214,NaN,-1.242221,9.957367,0.497592,-0.076514,0.347665,0.227888,0.020604,0.052466,-0.035610,0.300732,0.355582,-0.601507,-0.649085,88.646610,5.728844,-124.686546
36215,NaN,-1.648843,9.442037,0.099128,0.496020,0.504732,-0.253411,0.059236,0.059151,-0.016403,0.300754,0.355876,-0.601609,-0.648818,88.684899,5.734832,-124.655693
36216,NaN,-1.628990,9.764920,0.006521,0.545214,0.407165,0.063763,0.002044,0.075375,-0.007089,0.300959,0.356109,-0.601516,-0.648683,88.690949,5.735736,-124.615351
36217,NaN,-1.807258,9.704032,-0.088688,0.723768,0.509400,0.018841,0.061769,0.119011,0.030401,0.301309,0.356461,-0.601619,-0.648231,88.734186,5.715660,-124.549428
36218,NaN,-1.118645,10.087597,0.112575,0.151316,0.030020,0.336197,0.042094,0.113288,0.043024,0.301718,0.356726,-0.601687,-0.647832,88.765406,5.688329,-124.486633
36219,NaN,0.480072,10.416677,0.878075,-1.395222,-0.875628,0.521492,0.020978,0.123076,0.011761,0.302092,0.357085,-0.601618,-0.647523,88.785429,5.678908,-124.418627
36220,NaN,0.067821,9.525271,0.734573,-1.014044,-0.534006,-0.327882,0.047888,0.124061,-0.039366,0.302257,0.357641,-0.601541,-0.647211,88.820457,5.698807,-124.350648
36221,NaN,-0.707091,9.813535,0.254201,-0.201464,-0.194718,0.025583,0.079591,0.120371,-0.062882,0.302276,0.358304,-0.601532,-0.646844,88.873859,5.732029,-124.285071
36222,NaN,-1.195912,9.779187,0.032960,0.246624,0.086899,0.035937,0.076880,0.124361,-0.052610,0.302347,0.358944,-0.601524,-0.646463,88.925559,5.759371,-124.217027
36223,NaN,-1.266802,9.781521,-0.167940,0.442508,0.034406,0.041963,0.081229,0.125513,-0.042879,0.302443,0.359566,-0.601547,-0.646050,88.980286,5.781067,-124.148211
36224,NaN,-1.439849,9.968900,0.145732,0.257662,0.341633,0.251617,0.188167,0.129031,-0.016035,0.302446,0.360279,-0.601957,-0.645270,89.096124,5.787351,-124.077054
36225,NaN,-1.440758,10.216378,-0.234508,0.550356,0.111410,0.492159,0.028764,0.104536,-0.062012,0.302511,0.360811,-0.601808,-0.645081,89.119599,5.819636,-124.020427
36226,NaN,-1.229897,9.717672,-0.749180,0.876752,-0.305992,-0.032874,-0.004104,0.129373,-0.062424,0.302711,0.361373,-0.601512,-0.644949,89.125331,5.852417,-123.949466
36227,NaN,-1.282133,10.241554,-0.789902,0.913437,-0.335831,0.493140,-0.006839,0.192014,-0.033420,0.303196,0.362047,-0.601167,-0.644665,89.133634,5.869062,-123.842192
36228,NaN,-1.769224,9.791213,-0.703329,1.132658,0.155648,0.096174,-0.095797,0.222192,-0.013954,0.303996,0.362624,-0.600521,-0.644565,89.092438,5.874922,-123.717347
36229,NaN,-1.730509,9.821828,-0.646791,1.069534,0.150300,0.122845,-0.119001,0.222186,0.013832,0.304926,0.363082,-0.599853,-0.644490,89.038316,5.864899,-123.592269
36230,NaN,-1.382900,9.918588,-0.355464,0.640112,0.012520,0.187674,-0.113580,0.184829,0.026963,0.305777,0.363387,-0.599280,-0.644448,88.984787,5.847209,-123.488549
36231,NaN,-1.204211,9.701944,-0.084605,0.335231,0.030537,-0.041726,-0.142162,0.108008,0.010539,0.306396,0.363451,-0.598704,-0.644653,88.910640,5.838126,-123.429242
36232,NaN,-1.154120,9.891997,-0.057459,0.286100,-0.017584,0.142449,-0.065259,0.057043,0.014179,0.306735,0.363457,-0.598459,-0.644717,88.877288,5.826573,-123.399216
36233,NaN,-0.796496,9.864962,0.392164,-0.277193,-0.066944,0.088037,-0.086374,0.007400,0.024724,0.306997,0.363239,-0.598242,-0.644916,88.829225,5.808308,-123.397665
36234,NaN,-0.743198,10.272809,1.402341,-1.158746,0.402402,0.509371,-0.066214,0.056779,0.029110,0.307384,0.363198,-0.598021,-0.644960,88.795316,5.788240,-123.367598
36235,NaN,-0.866694,10.043620,1.565319,-1.210642,0.612876,0.298415,-0.116163,0.046746,0.003328,0.307749,0.363125,-0.597609,-0.645209,88.732444,5.782720,-123.343629
36236,NaN,-0.984408,9.664266,1.219553,-0.834757,0.551816,-0.073433,-0.103054,0.048808,-0.013740,0.308041,0.363129,-0.597202,-0.645444,88.676840,5.787138,-123.318669
36237,NaN,-0.949423,9.443712,0.877299,-0.555601,0.353311,-0.303679,-0.021181,0.074672,-0.003726,0.308294,0.363313,-0.597040,-0.645369,88.670002,5.786067,-123.278708
36238,NaN,-0.918404,9.750340,0.934576,-0.632087,0.330013,-0.000573,0.021801,0.109220,0.015374,0.308634,0.363618,-0.596996,-0.645076,88.689433,5.774615,-123.218580
36239,NaN,-1.018783,9.596683,0.598353,-0.292811,0.249280,-0.151197,0.043731,0.140744,0.033837,0.309087,0.364003,-0.597010,-0.644629,88.723640,5.752859,-123.140094
36240,NaN,-1.233367,9.950196,0.518893,-0.127519,0.360207,0.219800,0.108576,0.198591,0.071140,0.309715,0.364562,-0.597208,-0.643827,88.797918,5.710487,-123.027840
36241,NaN,-1.404840,10.046709,0.111345,0.299897,0.284875,0.323941,0.036246,0.205805,0.083468,0.310535,0.364996,-0.597186,-0.643206,88.831493,5.660924,-122.911361
36242,NaN,-1.524988,9.950593,-0.121854,0.563995,0.281594,0.235065,0.056061,0.200807,0.125252,0.311439,0.365319,-0.597308,-0.642472,88.875648,5.587416,-122.797298
36243,NaN,-1.773584,10.336868,-0.019108,0.601983,0.522406,0.644918,-0.051545,0.172089,0.119321,0.312434,0.365400,-0.597121,-0.642117,88.856808,5.516829,-122.699888
36244,NaN,-1.602572,9.777326,-0.551685,0.991632,0.152769,0.059596,-0.132106,0.148881,0.150212,0.313605,0.365188,-0.596764,-0.641999,88.790047,5.428506,-122.615399
36245,NaN,-1.745734,9.953343,-0.245113,0.821683,0.433663,0.252770,-0.094327,0.173206,0.217417,0.314995,0.364911,-0.596615,-0.641614,88.746561,5.301906,-122.516042
36246,NaN,-1.624641,10.284959,0.093996,0.482561,0.500147,0.576999,-0.165017,0.176471,0.267289,0.316683,0.364385,-0.596320,-0.641357,88.662211,5.147091,-122.414011
36247,NaN,-1.731681,9.917085,0.019687,0.640705,0.603088,0.215939,-0.153452,0.204114,0.346106,0.318683,0.363728,-0.596163,-0.640885,88.586043,4.947453,-122.294834
36248,NaN,-1.567506,10.505791,0.682763,0.005178,0.796610,0.801459,-0.074661,0.230428,0.425360,0.320871,0.363044,-0.596354,-0.640002,88.555592,4.703147,-122.159215
36249,NaN,-1.730549,10.134743,0.651923,0.155841,0.983768,0.441119,-0.123886,0.187509,0.463852,0.323141,0.362026,-0.596525,-0.639277,88.494773,4.436029,-122.047576
36250,NaN,-1.783342,10.385947,0.667028,0.198743,1.056741,0.691439,-0.059062,0.145046,0.535582,0.325394,0.360761,-0.597095,-0.638316,88.468446,4.127548,-121.959035
36251,NaN,-1.010945,10.944439,0.794532,-0.287242,0.472143,1.193143,-0.161313,0.126208,0.541224,0.327791,0.359249,-0.597377,-0.637678,88.382693,3.815345,-121.880991
36252,NaN,-1.158820,10.998365,0.723285,-0.104168,0.601766,1.253328,-0.131944,0.158478,0.602315,0.330423,0.357703,-0.597801,-0.636791,88.314205,3.469106,-121.782979
36253,NaN,-1.045165,11.169433,0.384363,0.169513,0.370785,1.404695,-0.104507,0.247177,0.676997,0.333505,0.356257,-0.598295,-0.635530,88.264190,3.081400,-121.632532
36254,NaN,-1.142279,11.693552,0.341602,0.307141,0.464075,1.928279,-0.127699,0.351591,0.768537,0.337226,0.354825,-0.598692,-0.633992,88.202501,2.643596,-121.420223
36255,NaN,-1.792299,12.093003,0.526395,0.555276,1.162484,2.355696,-0.310254,0.425380,0.830137,0.341680,0.353126,-0.598486,-0.632749,88.036781,2.171991,-121.163722
36256,NaN,-1.724472,11.414628,0.269593,0.813052,1.078742,1.655287,-0.362047,0.519435,0.942250,0.346851,0.351292,-0.598132,-0.631289,87.840667,1.639326,-120.849560
36257,NaN,-1.636910,12.335146,0.719823,0.487385,1.283555,2.575480,-0.328802,0.612871,1.151490,0.352891,0.349170,-0.598069,-0.629175,87.662121,0.989611,-120.475597
36258,NaN,-2.226160,12.459275,1.214414,0.465967,2.144480,2.711137,-0.436808,0.672193,1.260935,0.359623,0.346701,-0.597719,-0.627058,87.417307,0.280549,-120.062587
36259,NaN,-2.750945,11.800936,1.497816,0.568631,2.867506,2.041649,-0.494801,0.591167,1.324251,0.366391,0.343663,-0.597412,-0.625102,87.134470,-0.465504,-119.691061
36260,NaN,-3.290349,11.820496,1.114367,1.286576,3.257422,1.999328,-0.605233,0.510409,1.414613,0.373367,0.339881,-0.597021,-0.623414,86.783532,-1.263060,-119.358740
36261,NaN,-3.240776,11.398060,1.064625,1.402196,3.314716,1.527313,-0.504643,0.425750,1.530103,0.380254,0.335652,-0.597261,-0.621308,86.487006,-2.128215,-119.066460
36262,NaN,-3.033119,12.140076,1.669334,0.955215,3.567150,2.259071,-0.503801,0.324988,1.664620,0.387227,0.330689,-0.597873,-0.619070,86.188104,-3.071674,-118.822135
36263,NaN,-2.438152,11.894883,1.021306,1.357009,2.884241,1.947894,-0.529278,0.264682,1.844210,0.394586,0.324922,-0.598772,-0.616603,85.872179,-4.119622,-118.600029
36264,NaN,-3.331938,12.074946,0.506657,2.403613,3.599690,1.952603,-0.485949,0.205950,2.048923,0.402287,0.318416,-0.600186,-0.613639,85.577908,-5.284905,-118.396764
36265,NaN,-3.657002,12.644633,0.046915,3.185196,3.892610,2.351083,-0.455005,0.152752,2.229892,0.410287,0.311224,-0.602023,-0.610224,85.299165,-6.555889,-118.209643
36266,NaN,-3.382080,13.503684,0.760309,2.725040,4.284922,3.170742,-0.483977,0.126380,2.482901,0.418962,0.303091,-0.604125,-0.606334,84.998529,-7.970457,-118.018189
36267,NaN,-6.720125,16.607193,1.620473,4.190791,8.173818,5.653074,-0.445346,0.064257,2.799618,0.428278,0.293832,-0.606850,-0.601642,84.717192,-9.569148,-117.838337
36268,NaN,-8.243458,18.016762,0.439120,6.428909,9.455377,6.373266,-0.608464,-0.120512,3.024623,0.437851,0.282930,-0.609671,-0.597109,84.352163,-11.303680,-117.742895
36269,NaN,-7.504034,16.573773,-0.858375,7.256240,8.396157,4.628910,-0.479745,-0.034695,3.208606,0.447947,0.271925,-0.612801,-0.591503,84.043128,-13.139081,-117.575662
36270,NaN,-7.018793,16.929247,-0.124493,6.738178,8.802692,4.780186,-0.411028,0.112048,3.568854,0.459325,0.260337,-0.616108,-0.584514,83.738262,-15.167760,-117.287883
36271,NaN,-8.389346,19.061014,1.277535,6.861231,11.549349,6.150221,-0.232129,0.222676,3.989609,0.471881,0.248080,-0.620015,-0.575643,83.495873,-17.429734,-116.893731
36272,NaN,-10.082890,18.981085,1.632325,7.522431,13.710382,5.019169,-0.174543,0.260071,4.140365,0.484709,0.235513,-0.623921,-0.565962,83.255881,-19.770698,-116.451339
36273,NaN,-9.970621,19.666922,2.821304,6.854405,14.925123,5.165529,-0.194173,0.251224,4.247457,0.497631,0.222419,-0.627649,-0.555832,82.980278,-22.174007,-115.988764
36274,NaN,-8.357771,20.219542,3.308008,6.210105,14.553975,5.652268,-0.505597,0.259576,4.434874,0.511195,0.207900,-0.630391,-0.545953,82.489609,-24.676747,-115.480308
36275,NaN,-7.289110,21.368661,1.720113,7.888857,13.891604,6.231206,-0.812475,0.151278,4.637667,0.525033,0.191531,-0.632459,-0.536332,81.807633,-27.301701,-114.983760
36276,NaN,-3.508454,20.810735,1.433860,7.003541,11.136046,6.749400,-1.039322,-0.200150,4.752467,0.537968,0.173179,-0.634577,-0.527173,81.054807,-30.011542,-114.653155
36277,NaN,-3.249999,18.701089,0.773873,7.198140,10.378781,4.375206,-0.805056,-0.411454,4.504895,0.549091,0.155560,-0.637321,-0.517805,80.485893,-32.601611,-114.443744
36278,NaN,-8.298901,16.332742,-1.312902,10.181311,12.661013,-1.248813,-0.461736,-0.700927,4.347674,0.558321,0.138589,-0.641290,-0.507758,80.209653,-35.124312,-114.420151
36279,NaN,-13.368547,9.543080,-1.687760,9.754091,13.310264,-10.357151,-1.302501,-1.130179,3.533066,0.564460,0.120699,-0.643488,-0.502733,79.674000,-37.235180,-114.774885
36280,NaN,6.573463,-0.441745,-5.098634,1.940439,-7.534119,-6.834227,-0.671703,-0.890812,2.607679,0.568478,0.108170,-0.645838,-0.498022,79.473513,-38.795795,-115.071594
36281,NaN,-17.541159,9.796291,-2.148315,11.777678,15.944072,-13.729580,0.659303,-0.716094,1.361534,0.569179,0.103830,-0.650253,-0.492368,80.070886,-39.640957,-115.416914
36282,NaN,-23.129376,7.261780,-4.122538,14.295126,17.422004,-19.652071,-0.419701,-1.001718,0.324968,0.566909,0.099122,-0.652245,-0.493321,80.278512,-39.920839,-116.114503
36283,NaN,-10.658520,0.721425,-1.492712,5.188679,6.865834,-16.315746,-0.543356,-0.851847,0.237797,0.564978,0.094674,-0.653452,-0.494810,80.355318,-40.141821,-116.715954
36284,NaN,-6.182954,1.852676,-3.170634,5.576458,3.423312,-12.795678,0.310751,-0.222424,-0.228343,0.563514,0.095763,-0.654755,-0.494548,80.661126,-40.031491,-116.911576
36285,NaN,-10.793788,5.522378,-3.947834,9.422538,7.977557,-13.000216,0.259176,0.080292,-1.177153,0.560731,0.100513,-0.654618,-0.496944,80.865031,-39.362956,-116.996334
36286,NaN,-11.444135,3.028159,-2.992376,7.831479,7.781109,-15.029083,-0.104030,0.126409,-1.832967,0.556592,0.106549,-0.653072,-0.502345,80.885902,-38.311813,-117.121589
36287,NaN,-8.807621,2.217423,-1.903367,5.700204,6.212593,-13.688380,0.093026,0.132992,-2.488164,0.550684,0.115227,-0.651584,-0.508831,81.056661,-36.896458,-117.311984
36288,NaN,-5.943253,3.444033,-0.918449,4.367476,5.311840,-10.668826,0.233552,0.322006,-3.037120,0.543777,0.126591,-0.649480,-0.516195,81.256350,-35.145435,-117.420538
36289,NaN,-6.910112,4.549703,-0.591615,4.904832,6.684587,-10.038571,0.155021,0.474231,-3.568015,0.535922,0.139771,-0.646253,-0.524985,81.375228,-33.088064,-117.471840
36290,NaN,-7.191126,4.577796,-0.828165,5.228607,6.782480,-9.873917,0.086190,0.429106,-4.111752,0.526310,0.154406,-0.642331,-0.535320,81.495361,-30.718284,-117.601755
36291,NaN,-6.138257,5.118215,-0.439684,4.674378,6.356897,-8.472324,0.103129,0.418152,-4.566538,0.515214,0.170389,-0.637839,-0.546520,81.639794,-28.099527,-117.772910
36292,NaN,-5.167541,5.854831,-0.117784,4.218746,5.925104,-6.970289,0.126476,0.415404,-4.949406,0.502713,0.187604,-0.632713,-0.558353,81.802482,-25.255019,-117.969093
36293,NaN,-5.017844,7.018154,-0.001219,4.350466,6.054443,-5.472991,0.221350,0.401731,-5.287477,0.488842,0.205909,-0.627166,-0.570349,82.018972,-22.227782,-118.188504
36294,NaN,-4.551473,8.574911,-0.124774,4.576546,5.763913,-3.482705,0.257487,0.411221,-5.567105,0.473764,0.225111,-0.620929,-0.582512,82.246077,-19.031475,-118.408233
36295,NaN,-3.241529,9.715065,-1.170510,4.979120,4.033796,-1.740028,0.285667,0.557967,-5.803859,0.458073,0.245301,-0.613671,-0.594478,82.451228,-15.697644,-118.542741
36296,NaN,-3.043476,11.296999,-1.740886,5.474788,3.399711,0.104201,0.462697,0.733114,-5.945944,0.441837,0.266696,-0.605806,-0.605519,82.724861,-12.260453,-118.568858
36297,NaN,-2.424964,12.822822,-1.701643,5.111667,2.535681,2.044466,0.537168,0.889399,-5.989868,0.425481,0.288559,-0.597230,-0.615643,83.019632,-8.796277,-118.490266
36298,NaN,-1.954977,13.854005,-1.310882,4.302665,1.776295,3.444303,0.708677,0.968415,-5.975977,0.408716,0.310781,-0.588458,-0.624566,83.410250,-5.325761,-118.345120
36299,NaN,-2.439072,15.196175,-0.569850,3.573485,1.915769,5.042830,0.945256,0.990858,-5.936199,0.391442,0.333093,-0.579919,-0.632073,83.941483,-1.887175,-118.157754
36300,NaN,-3.041252,16.464959,0.273290,2.666096,2.080694,6.585374,1.136281,0.879814,-5.885472,0.373277,0.355031,-0.571724,-0.638552,84.594665,1.523586,-117.995342
36301,NaN,-1.631136,17.305731,0.966979,0.797642,0.314055,7.572801,1.262661,0.734984,-5.927333,0.354045,0.376477,-0.563627,-0.644392,85.326290,4.939165,-117.876698
36302,NaN,-0.164770,18.507369,0.828023,-0.443242,-2.022820,8.594795,1.388248,0.666347,-6.072045,0.333527,0.398028,-0.555217,-0.649667,86.138483,8.442230,-117.756376
36303,NaN,-1.131230,19.430155,0.625880,-0.613609,-2.324965,9.507977,1.478308,0.576810,-6.279130,0.311623,0.419553,-0.546302,-0.654538,87.007294,12.048900,-117.642559
36304,NaN,-0.828334,19.696345,0.787700,-1.744549,-3.513902,9.519231,1.586051,0.329018,-6.333494,0.288255,0.440193,-0.537403,-0.659043,87.925172,15.687722,-117.616180
36305,NaN,2.355455,20.304209,1.564639,-4.753916,-6.953426,8.873050,1.564833,0.097592,-6.369186,0.263939,0.459610,-0.528145,-0.663444,88.807201,19.332863,-117.669750
36306,NaN,6.240300,22.888049,2.995776,-8.901310,-11.236445,9.320903,1.330421,0.286471,-6.228184,0.240798,0.478542,-0.517599,-0.667162,89.615684,22.908242,-117.548932
36307,NaN,6.135477,25.258210,3.259114,-10.240309,-12.872598,10.569717,0.436563,0.609532,-6.339524,0.220070,0.497227,-0.502923,-0.671865,90.021319,26.537490,-117.180543
36308,NaN,11.096204,20.982831,0.736139,-9.655874,-17.191712,3.415661,0.658448,1.318289,-5.914428,0.201735,0.517028,-0.488748,-0.673135,90.818753,29.924862,-116.297772
36309,NaN,7.119018,26.633829,2.031028,-11.000185,-16.791024,9.188913,0.789525,2.394830,-4.884757,0.189037,0.537591,-0.476211,-0.669690,92.148993,32.683330,-114.611422
36310,NaN,12.449940,24.733081,1.783668,-12.256815,-20.911885,3.686201,-0.777034,2.657582,-4.353488,0.182774,0.555943,-0.459242,-0.668294,92.799475,35.113056,-112.651667
36311,NaN,17.345372,21.254451,3.178437,-13.854466,-22.902739,-3.020653,0.229269,2.918367,-3.403196,0.177427,0.573545,-0.447800,-0.662602,94.230971,36.953095,-110.444160
36312,NaN,17.414485,23.751220,5.124357,-16.062538,-23.990302,-2.064908,0.328865,2.413200,-2.647987,0.173054,0.587664,-0.439093,-0.657191,95.583462,38.348374,-108.543076
36313,NaN,20.117338,20.688435,6.601736,-16.937327,-24.105037,-6.925517,-0.133350,1.584915,-1.820597,0.170936,0.596680,-0.431936,-0.654359,96.319250,39.287990,-107.249502
36314,NaN,23.511312,19.939815,9.223923,-19.682819,-25.452099,-10.287066,0.054017,0.917262,-0.766249,0.170224,0.601361,-0.429052,-0.652153,96.822033,39.664267,-106.511183
36315,NaN,23.750661,18.269987,9.277126,-19.154399,-24.759045,-11.824801,-0.122775,0.393196,0.223265,0.172170,0.602027,-0.429021,-0.651047,96.922317,39.506585,-106.245408
36316,NaN,21.610985,16.921773,8.280964,-17.366374,-22.768031,-11.217199,-0.064369,-0.325028,1.071172,0.175139,0.598587,-0.432333,-0.651235,96.674939,38.917866,-106.581535
36317,NaN,19.584143,14.980443,7.207591,-15.511499,-20.443943,-10.959976,0.076856,-1.102583,1.778472,0.178312,0.591156,-0.438881,-0.652781,96.128857,37.971892,-107.532640
36318,NaN,16.425294,14.153099,7.751827,-15.285872,-17.208343,-9.205116,0.231471,-1.698695,2.343326,0.181528,0.580588,-0.448060,-0.655139,95.418459,36.731160,-108.924693
36319,NaN,10.963991,18.558563,2.163039,-10.228921,-17.158017,-1.432491,0.993461,-1.839270,3.086426,0.184607,0.568418,-0.461897,-0.655341,95.109448,35.062983,-110.424574
36320,NaN,-39.469014,5.865058,-2.149392,12.119548,26.644376,17.387523,1.329204,-2.162689,3.018652,0.185695,0.555445,-0.476770,-0.655507,94.926451,33.444441,-112.105043
36321,NaN,-31.052066,1.838705,-8.011213,16.774140,19.665135,9.257214,-0.379331,-1.947524,0.896468,0.185037,0.546507,-0.479829,-0.660951,93.953257,33.014831,-113.486593
36322,NaN,3.305284,23.272471,10.303907,-16.864145,-8.806495,7.412906,0.632238,0.025105,2.441909,0.191421,0.541247,-0.488555,-0.657057,94.260701,31.615761,-113.591923
36323,NaN,1.652532,34.769955,6.232631,-15.520581,-13.904409,18.756846,-0.863116,-0.968238,2.636337,0.200036,0.530708,-0.493760,-0.659193,93.374254,30.141611,-114.357904
36324,NaN,6.035501,23.282189,1.577290,-9.519284,-13.930670,7.399550,-0.390209,-0.771955,2.593907,0.207699,0.521288,-0.500110,-0.659553,92.855298,28.678143,-114.961423
36325,NaN,-5.456079,9.084475,6.020061,-5.528362,3.372297,0.511790,-0.058323,-0.872936,2.383638,0.213516,0.512313,-0.507028,-0.659446,92.521623,27.333395,-115.603517
36326,NaN,1.450030,6.223949,8.865535,-9.922529,0.454466,-5.255114,0.344997,-0.438142,2.510715,0.219788,0.504794,-0.515051,-0.656961,92.560741,25.903462,-115.959179
36327,NaN,1.958607,8.079443,4.392738,-6.529000,-2.531830,-3.538184,0.432154,0.561525,2.312828,0.227728,0.501087,-0.521685,-0.651841,92.929631,24.560451,-115.677691
36328,NaN,-0.157589,14.516314,-1.088391,-2.219331,-5.328158,3.551803,0.493344,0.707936,2.086343,0.235132,0.498444,-0.527708,-0.646367,93.361979,23.340474,-115.310179
36329,NaN,-0.642956,12.627034,-5.056399,2.042766,-5.833398,2.320553,-0.537845,0.464119,1.781296,0.243446,0.494555,-0.529871,-0.644505,93.141055,22.302487,-115.088517
36330,NaN,-3.323131,4.664971,-5.074271,4.871725,-0.888696,-3.979289,0.540856,0.625763,1.774792,0.249482,0.492466,-0.535245,-0.639335,93.569405,21.262002,-114.770935
36331,NaN,-2.642073,11.380061,-2.473841,0.903571,-2.206415,1.888544,0.216692,0.327345,1.458997,0.254485,0.489831,-0.539138,-0.636109,93.744515,20.411882,-114.631267
36332,NaN,-2.794320,9.298029,-2.246721,1.242352,-1.233183,-0.002299,-0.116751,-0.122628,1.361702,0.258772,0.485572,-0.542275,-0.634976,93.633287,19.633482,-114.762999
36333,NaN,-2.321154,10.912652,-0.575414,-0.702388,-1.235234,1.268108,0.118405,-0.202298,1.266688,0.261955,0.481605,-0.546008,-0.633491,93.644682,18.912626,-114.937854
36334,NaN,-2.463253,10.699453,-0.015314,-1.048052,-0.697149,1.094219,-0.117510,-0.103023,1.044220,0.265267,0.478230,-0.548309,-0.632682,93.544544,18.314825,-115.043218
36335,NaN,-3.479105,9.541403,0.540880,-0.861364,0.808958,0.288697,-0.064864,-0.161908,0.930357,0.267921,0.475042,-0.550568,-0.632003,93.466774,17.784515,-115.178366
36336,NaN,-2.520777,10.110805,0.759471,-1.499749,0.018561,0.527001,-0.019697,-0.201359,0.889708,0.270229,0.471887,-0.552914,-0.631336,93.409163,17.278186,-115.334779
36337,NaN,-1.716141,10.305769,0.623898,-1.696023,-0.704529,0.491183,-0.075037,0.008592,0.839289,0.273080,0.469455,-0.554672,-0.630380,93.359236,16.793925,-115.362781
36338,NaN,-2.685326,9.816409,-0.419657,-0.235705,-0.140646,0.369312,-0.078276,0.075789,0.774516,0.275920,0.467397,-0.556166,-0.629355,93.319322,16.343943,-115.348081
36339,NaN,-2.745303,9.966181,-1.100291,0.412717,-0.354736,0.568805,-0.081021,0.087060,0.753509,0.278723,0.465427,-0.557579,-0.628329,93.280429,15.906122,-115.325542
36340,NaN,-1.952855,10.852731,-1.256952,0.124193,-1.244542,1.215027,-0.204123,0.087635,0.700742,0.281649,0.463423,-0.558473,-0.627711,93.171030,15.497997,-115.300459
36341,NaN,-2.894626,8.461501,-1.260477,0.961103,0.152284,-0.833975,-0.359318,0.175214,0.754671,0.285339,0.461322,-0.558873,-0.627236,92.986567,15.056886,-115.224016
36342,NaN,-4.175425,8.759004,-1.371981,1.580303,1.220893,-0.218509,0.088618,0.068651,0.760916,0.287718,0.459496,-0.560835,-0.625737,93.041596,14.614999,-115.210576
36343,NaN,-2.988538,9.859143,-1.309414,0.909424,0.043679,0.532316,-0.345478,-0.137622,0.725295,0.290395,0.456497,-0.561645,-0.625969,92.818393,14.200052,-115.317189
36344,NaN,-2.123073,9.053133,-1.458292,0.863733,-0.563356,-0.456975,-0.188317,-0.114281,0.820529,0.293075,0.453520,-0.563120,-0.625558,92.688654,13.729213,-115.411286
36345,NaN,-2.882125,10.354045,-0.885901,0.533744,0.166900,0.956912,-0.193640,-0.044074,0.831222,0.295990,0.450720,-0.564489,-0.624975,92.566907,13.250642,-115.463023
36346,NaN,-2.746215,9.737510,-1.101143,0.817131,0.137675,0.330584,-0.288272,0.003065,0.855179,0.299323,0.447848,-0.565536,-0.624505,92.397394,12.756649,-115.486386
36347,NaN,-2.818896,9.509845,-1.031014,0.877826,0.342371,0.114940,-0.265044,0.028584,0.903301,0.302817,0.444948,-0.566713,-0.623827,92.245069,12.234865,-115.494401
36348,NaN,-2.146816,9.950503,-0.198219,-0.142511,0.114465,0.367009,-0.312160,0.200655,1.030168,0.307294,0.442139,-0.567750,-0.622691,92.086047,11.636326,-115.403110
36349,NaN,-4.178365,9.474596,-1.783044,2.263456,1.378747,0.354953,-0.242675,-0.184775,0.950685,0.310265,0.438452,-0.569403,-0.622314,91.922535,11.091649,-115.533730
36350,NaN,-1.348732,10.314484,0.021189,-0.578504,-0.388471,0.566199,-0.253754,0.106033,1.148763,0.314697,0.435074,-0.570988,-0.621006,91.785013,10.427507,-115.496883
36351,NaN,-3.465731,10.003658,-1.169022,1.500116,1.116311,0.673170,-0.334615,0.043256,1.159139,0.319144,0.431331,-0.572423,-0.620026,91.594917,9.758901,-115.494848
36352,NaN,-2.273090,10.348247,-0.103602,0.082559,0.573066,0.766875,-0.241895,0.055287,1.255361,0.323713,0.427479,-0.574311,-0.618577,91.458869,9.034731,-115.485419
36353,NaN,-3.462673,10.327110,0.013808,0.566476,1.802036,0.914356,-0.252170,0.051159,1.339407,0.328536,0.423339,-0.576329,-0.617003,91.316803,8.262778,-115.477778
36354,NaN,-2.641733,10.627846,-0.135547,0.413876,1.096192,1.076439,-0.207009,0.050784,1.481114,0.333685,0.418840,-0.578756,-0.615036,91.200204,7.409463,-115.470426
36355,NaN,-3.059692,10.932861,0.062669,0.486288,1.667538,1.406632,-0.259531,0.071975,1.601969,0.339354,0.413946,-0.581204,-0.612936,91.055209,6.486910,-115.450256
36356,NaN,-3.237676,10.776195,-0.475976,1.163424,1.768052,1.248622,-0.270937,0.112971,1.760798,0.345629,0.408664,-0.583833,-0.610470,90.905619,5.472878,-115.405696
36357,NaN,-2.967242,11.534797,0.260205,0.457336,1.961743,1.928763,-0.272296,0.143481,1.945880,0.352529,0.402897,-0.586732,-0.607571,90.756277,4.352821,-115.342556
36358,NaN,-3.562129,11.318213,0.616202,0.531726,2.860661,1.706824,-0.410901,0.114692,2.078293,0.359989,0.396367,-0.589464,-0.604841,90.525087,3.157253,-115.293156
36359,NaN,-2.768241,11.266254,1.259170,-0.245773,2.627200,1.554326,-0.335364,0.101517,2.228844,0.367672,0.389443,-0.592677,-0.601569,90.336197,1.875723,-115.247642
36360,NaN,-3.224828,11.629947,1.313941,0.043303,3.273403,1.877386,-0.427234,-0.003365,2.332841,0.375487,0.381673,-0.595928,-0.598503,90.092164,0.535075,-115.257619
36361,NaN,-3.499591,11.645742,0.912692,0.690036,3.583050,1.822660,-0.424220,-0.107496,2.468109,0.383333,0.373138,-0.599553,-0.595281,89.850555,-0.883198,-115.321562
36362,NaN,-3.476326,12.819409,1.271638,0.550479,3.992907,2.906668,-0.382482,-0.201436,2.668749,0.391353,0.363738,-0.603753,-0.591625,89.635547,-2.416714,-115.433151
36363,NaN,-1.943131,13.243286,1.998165,-0.546476,3.236180,3.316255,-0.440225,-0.155865,2.830446,0.400016,0.353801,-0.607871,-0.587627,89.389001,-4.043286,-115.511797
36364,NaN,-2.997415,13.733678,2.356461,-0.174048,4.695686,3.643034,-0.430196,-0.080371,2.998429,0.409297,0.343518,-0.612028,-0.583004,89.145701,-5.765534,-115.538895
36365,NaN,-3.593505,14.440739,2.424834,0.295801,5.681973,4.149281,-0.387446,0.029260,3.221452,0.419389,0.332874,-0.616320,-0.577457,88.919690,-7.614913,-115.493659
36366,NaN,-5.350866,16.558133,1.867100,1.971129,7.670336,5.793080,-0.410620,-0.005006,3.450302,0.429955,0.321285,-0.620820,-0.571400,88.679811,-9.595078,-115.457548
36367,NaN,-7.178537,15.150996,0.966848,3.715693,9.152123,3.767381,-0.518259,-0.069140,3.721476,0.441129,0.308333,-0.625385,-0.565004,88.381824,-11.731836,-115.445224
36368,NaN,-5.170786,15.871777,2.211302,2.097068,8.506631,4.565917,-0.153248,0.307073,3.953768,0.453405,0.296411,-0.630270,-0.556169,88.240025,-13.994345,-115.199171
36369,NaN,-7.296103,18.101601,1.345200,4.298615,11.006968,5.776553,-0.179999,0.520169,4.192375,0.466867,0.284139,-0.634691,-0.546322,88.036852,-16.389675,-114.812712
36370,NaN,-9.758453,21.063873,3.320424,4.219665,15.367216,7.388818,-0.166547,0.627933,4.584459,0.481489,0.270817,-0.639135,-0.535102,87.797855,-19.004532,-114.337934
36371,NaN,-15.707937,24.467330,2.591579,8.010115,21.905694,7.735107,0.063964,0.714018,4.785913,0.496345,0.257477,-0.643908,-0.522236,87.644570,-21.732483,-113.788728
36372,NaN,-13.309947,24.013239,2.907065,6.939604,20.659040,7.132437,0.067927,0.636529,4.929828,0.511017,0.243337,-0.648672,-0.508796,87.478302,-24.541205,-113.264592
36373,NaN,-12.759851,22.716828,2.219002,7.324564,20.188007,5.102160,-0.247757,0.627917,4.933093,0.525743,0.228196,-0.652266,-0.496055,87.099016,-27.351759,-112.719491
36374,NaN,-11.498050,24.264891,2.272162,7.510425,20.484334,5.998379,-0.701411,0.208411,4.984050,0.539406,0.210531,-0.655475,-0.484841,86.546813,-30.197800,-112.405667
36375,NaN,-10.175130,21.815100,3.452525,5.835664,19.447136,3.565481,-0.979064,-0.460374,5.078593,0.551053,0.190030,-0.659494,-0.474653,86.034968,-33.122886,-112.497029
36376,NaN,-6.968000,18.307402,0.295074,7.115495,14.481099,1.295377,-0.464036,-0.872826,4.919456,0.560104,0.170393,-0.665279,-0.463306,85.979864,-35.970177,-112.867109
36377,NaN,-8.926757,18.267517,-1.425756,9.619156,15.542709,-0.799084,-0.894548,-1.185989,4.453352,0.567079,0.150251,-0.670165,-0.454670,85.848089,-38.568041,-113.493777
36378,NaN,-13.462784,7.186720,-3.115998,9.338917,12.039406,-13.039196,-1.710212,-1.415471,3.298466,0.570993,0.131100,-0.672650,-0.452020,85.419698,-40.514298,-114.358566
36379,NaN,5.711551,0.377224,-11.729389,8.699206,-9.158987,-6.529624,-1.679306,-0.694877,2.231679,0.574738,0.117186,-0.672256,-0.451680,84.711829,-41.826820,-114.742978
36380,NaN,-4.384639,7.053427,-5.966850,9.136557,4.203635,-7.960899,0.873999,1.007272,1.287907,0.580480,0.117636,-0.672077,-0.444428,84.633342,-42.508028,-113.878347
36381,NaN,-33.620655,13.915877,-4.545916,19.021832,28.643676,-22.555240,-1.097666,0.669132,-0.589645,0.582047,0.117886,-0.667357,-0.449399,83.692053,-42.137355,-113.412534
36382,NaN,-19.060759,-2.200330,-3.306823,7.678664,10.254943,-24.474236,-2.004619,0.577957,-0.645912,0.583652,0.115503,-0.660767,-0.457598,82.292384,-41.729045,-113.034635
36383,NaN,-6.890402,-0.672550,-0.382018,2.077345,4.212808,-14.912903,-0.797368,0.773503,-0.891881,0.584611,0.117860,-0.656179,-0.462352,81.515040,-41.165218,-112.548563
36384,NaN,-13.283606,3.429045,-3.414681,8.165280,9.570319,-16.262764,-0.492285,0.608788,-2.101688,0.581984,0.124721,-0.651998,-0.469721,81.097260,-39.921403,-112.337429
36385,NaN,-13.398065,3.078302,-5.111367,9.622717,8.799572,-16.526130,-0.827979,0.149657,-2.918338,0.576066,0.132133,-0.647748,-0.480740,80.771293,-38.261246,-112.570839
36386,NaN,-9.906065,2.615933,-3.346779,6.970190,6.963309,-14.182227,-0.552667,-0.136340,-3.542592,0.567362,0.141672,-0.644384,-0.492746,80.764514,-36.269223,-113.079856
36387,NaN,-6.105587,3.130564,-1.188966,4.178278,5.453312,-10.947930,-0.406236,-0.116408,-4.226052,0.556735,0.153786,-0.640601,-0.505991,80.852587,-33.894152,-113.635798
36388,NaN,-5.417042,3.116848,-1.088800,3.922106,4.964130,-10.272262,-0.370249,-0.220918,-4.936412,0.543632,0.167967,-0.636302,-0.520933,81.007384,-31.119796,-114.315428
36389,NaN,-6.310133,4.164705,-1.792597,5.277688,5.697201,-9.590127,-0.252968,-0.340169,-5.472610,0.528305,0.183709,-0.631760,-0.536679,81.249053,-28.056282,-115.095630
36390,NaN,-7.308599,6.264720,-1.002028,5.721868,7.498492,-7.651127,-0.331245,-0.440750,-5.873332,0.511207,0.200129,-0.626380,-0.553411,81.437553,-24.765939,-115.942366
36391,NaN,-5.413133,8.296875,-0.410099,5.089543,6.592603,-4.435805,-0.330439,-0.544077,-6.177852,0.492497,0.216997,-0.620401,-0.570493,81.603698,-21.315398,-116.847095
36392,NaN,-4.089145,9.870000,-0.153507,4.663027,5.591603,-1.995259,-0.287728,-0.513695,-6.426239,0.472609,0.234648,-0.613562,-0.587471,81.733388,-17.713171,-117.724338
36393,NaN,-3.062066,11.120223,-0.654667,4.770339,4.169728,-0.154909,-0.321900,-0.366648,-6.602228,0.452216,0.252900,-0.605431,-0.604149,81.764207,-14.004136,-118.507226
36394,NaN,-2.290417,11.777386,-2.559352,5.913734,1.999529,0.745614,-0.212441,-0.055848,-6.767430,0.431593,0.272595,-0.596022,-0.619820,81.769947,-10.169352,-119.109609
36395,NaN,-2.385209,12.811309,-3.277848,6.433911,1.093790,1.930659,-0.053502,0.233915,-6.858293,0.410862,0.293445,-0.585684,-0.634079,81.802843,-6.265494,-119.545179
36396,NaN,-2.923482,14.327040,-3.410203,6.652230,0.741281,3.624460,0.044718,0.470439,-6.876279,0.390108,0.314992,-0.574433,-0.647010,81.852034,-2.325463,-119.841466
36397,NaN,-2.268020,15.208486,-3.602966,6.117062,-0.802685,4.722485,0.264837,0.709822,-6.879697,0.369249,0.337338,-0.562758,-0.658150,82.006035,1.629864,-119.994648
36398,NaN,-1.823323,17.113919,-4.252865,6.060598,-2.578271,6.643717,0.632493,1.196664,-6.785424,0.348976,0.361334,-0.550859,-0.666489,82.379468,5.576652,-119.845497
36399,NaN,-1.833991,19.665089,-4.236797,5.512020,-3.898637,9.221900,0.842032,1.757612,-6.659766,0.329902,0.386747,-0.538268,-0.672205,82.930622,9.485389,-119.332730
36400,NaN,-1.257179,21.010816,-3.465565,3.776718,-5.338663,10.488327,0.972616,2.178131,-6.601629,0.310291,0.412227,-0.525665,-0.676362,83.656445,13.380163,-118.726094
36401,NaN,-0.516389,21.759726,-2.677406,1.866060,-6.859471,10.929026,1.232584,2.327171,-6.669157,0.291124,0.439234,-0.512173,-0.678232,84.620537,17.313163,-117.758232
36402,NaN,-0.128959,24.196414,-2.333495,0.269756,-8.904624,12.800237,1.518942,2.264193,-6.736117,0.269462,0.465243,-0.499729,-0.679124,85.837873,21.259990,-116.916100
36403,NaN,2.087804,25.472130,-1.592806,-2.453794,-12.062090,12.636582,1.482946,2.171887,-6.661840,0.248656,0.490926,-0.486056,-0.678905,87.120017,25.141957,-115.823081
36404,NaN,6.369505,25.124326,3.891030,-9.942016,-14.249634,9.803476,1.217170,2.459365,-6.292929,0.229393,0.515247,-0.472027,-0.677562,88.468492,28.794116,-114.527299
36405,NaN,5.096728,25.692502,5.814396,-11.979084,-13.816819,9.815034,0.831597,2.642454,-5.835160,0.213608,0.538620,-0.456570,-0.675132,89.806138,32.155938,-112.832920
36406,NaN,5.502262,21.812134,0.374095,-6.790116,-15.229465,5.287750,0.806401,2.358686,-5.257281,0.198415,0.558820,-0.442950,-0.672419,91.189081,35.151912,-111.277415
36407,NaN,9.451709,27.220216,1.393538,-10.485438,-21.440342,6.386534,1.021813,2.038756,-4.830603,0.183772,0.577154,-0.430742,-0.669016,92.707734,37.874506,-109.711904
36408,NaN,18.355405,23.802886,1.423296,-12.138916,-26.666934,-2.963473,0.366002,1.814342,-4.054248,0.172664,0.591909,-0.418846,-0.666632,93.868030,40.130592,-108.267643
36409,NaN,24.138104,20.799099,4.616149,-15.481682,-28.225036,-10.196497,0.774173,1.737720,-2.653320,0.165152,0.603816,-0.412052,-0.662076,95.272901,41.562893,-106.800007
36410,NaN,26.817385,22.930415,8.813753,-20.309959,-30.128996,-11.356123,0.466376,1.397058,-1.034623,0.163177,0.610916,-0.409330,-0.657726,96.306257,42.070526,-105.654887
36411,NaN,26.713299,22.081617,8.463481,-19.539983,-29.762986,-12.088893,0.286369,0.661140,0.252022,0.164489,0.612773,-0.410533,-0.654916,96.792185,41.880124,-105.175561
36412,NaN,26.315939,19.994727,9.020675,-19.372270,-28.054242,-13.181621,-0.087288,-0.149669,1.249863,0.168535,0.609611,-0.414223,-0.654515,96.592377,41.176113,-105.404729
36413,NaN,20.666582,16.326814,10.159631,-18.382571,-21.329410,-11.812587,-0.190972,-0.799987,1.895193,0.173659,0.602843,-0.420061,-0.655722,95.987696,40.143229,-106.166748
36414,NaN,15.426302,16.060271,8.208915,-15.552717,-17.825581,-7.911579,0.073085,-1.454662,2.394700,0.178223,0.593020,-0.428776,-0.657811,95.234342,38.855207,-107.419517
36415,NaN,3.798778,23.352916,5.048189,-12.109433,-13.883918,5.864405,1.827501,-1.483462,3.904429,0.182425,0.581214,-0.447605,-0.654645,95.462506,36.703202,-108.758312
36416,NaN,-11.178936,3.611119,2.814230,-0.520526,7.721195,-0.537980,0.118402,-2.742901,3.086412,0.185955,0.565234,-0.459464,-0.659412,94.287883,35.069185,-110.891510
36417,NaN,-51.651142,18.103284,1.461281,9.731716,31.280843,34.051424,1.536164,-3.156459,3.368539,0.185418,0.548319,-0.476878,-0.661479,93.849458,33.268174,-113.241309
36418,NaN,9.935801,37.108407,8.089781,-20.668271,-21.372370,15.820084,-0.665245,-2.157335,3.596418,0.193917,0.531806,-0.486497,-0.665507,92.615011,31.275996,-114.848847
36419,NaN,22.025496,28.564204,8.900411,-23.307641,-25.679768,3.504325,-0.183059,-1.579177,4.026746,0.203920,0.516422,-0.498043,-0.666092,91.931372,29.002467,-116.003749
36420,NaN,-2.446285,20.682357,3.833360,-7.350189,-4.696242,9.482517,0.408161,-1.628039,3.552209,0.210583,0.502405,-0.510201,-0.665537,91.635379,26.991515,-117.140759
36421,NaN,-0.391014,4.866038,10.973280,-10.597601,3.653127,-5.502049,-0.292240,-1.479023,3.008148,0.217529,0.489397,-0.518300,-0.666736,91.032185,25.284076,-118.132629
36422,NaN,11.119885,3.510450,7.153132,-11.806892,-6.730301,-11.373733,0.844543,-0.093191,2.718895,0.224253,0.482846,-0.527871,-0.661757,91.475711,23.722076,-118.236672
36423,NaN,5.905536,14.950590,-1.744097,-4.178321,-10.566327,1.690164,0.737203,0.585227,2.611111,0.232640,0.478637,-0.535937,-0.655406,92.020743,22.212465,-117.925709
36424,NaN,-1.398326,16.699744,-3.228979,0.051327,-5.539720,6.329159,-0.051818,0.381296,2.256527,0.241147,0.473673,-0.540752,-0.651973,92.058731,20.906408,-117.750190
36425,NaN,2.412911,13.237875,1.733824,-5.098495,-5.073934,1.690575,-0.850201,0.282445,1.625913,0.249218,0.469118,-0.541498,-0.651612,91.620795,19.966100,-117.612912
36426,NaN,-1.054230,1.621874,-4.530046,4.161919,-1.693257,-7.794277,0.571164,0.942223,2.128035,0.257303,0.467005,-0.547222,-0.645174,92.123403,18.723182,-117.097584
36427,NaN,-6.328466,13.116021,-1.196257,1.449904,1.381522,4.661227,0.633808,0.261470,1.625933,0.261777,0.464163,-0.552736,-0.640710,92.523673,17.782296,-116.983140
36428,NaN,-1.846655,11.042249,-1.464047,0.162332,-1.829823,1.327708,0.060966,-0.173816,1.341496,0.265393,0.459859,-0.556352,-0.639194,92.517018,17.012158,-117.139117
36429,NaN,-1.612469,10.671169,0.268474,-1.353143,-1.013796,0.849685,0.140150,-0.270409,1.008301,0.267540,0.456335,-0.559499,-0.638076,92.543439,16.437870,-117.330755
36430,NaN,-2.668703,10.433092,-0.344501,-0.269135,-0.261086,0.955274,0.100726,-0.333844,0.718572,0.268619,0.453286,-0.561990,-0.637607,92.540455,16.028455,-117.564162
36431,NaN,-0.537195,10.605058,0.559918,-2.003246,-1.620828,0.503743,-0.060583,-0.107287,0.737127,0.270805,0.450753,-0.563638,-0.637023,92.483453,15.605235,-117.650602
36432,NaN,-0.070745,10.753913,0.377992,-2.028737,-2.072933,0.549799,-0.173538,0.359949,0.772918,0.274621,0.449376,-0.564422,-0.635666,92.435775,15.147336,-117.472069
36433,NaN,-3.107565,11.259572,-1.338763,0.836326,-0.338680,1.909599,-0.838608,0.545989,0.606695,0.279972,0.448206,-0.562391,-0.635958,92.035626,14.783793,-117.165881
36434,NaN,-6.673394,6.998091,-1.016158,2.814095,3.829934,-1.330235,-0.002485,0.418306,0.738217,0.283442,0.447338,-0.563541,-0.634011,92.092885,14.345757,-116.951196
36435,NaN,-4.214291,9.627574,-1.332956,1.649915,1.099704,0.593803,0.160467,0.048680,0.790429,0.285726,0.445455,-0.565775,-0.632320,92.188043,13.888150,-116.943218
36436,NaN,-3.240289,10.215087,-1.219715,1.071770,0.271324,0.916350,-0.050415,-0.025132,0.805510,0.288246,0.442900,-0.567540,-0.631389,92.151970,13.420897,-116.994407
36437,NaN,-3.420504,10.125923,-1.183267,1.182212,0.533451,0.862115,-0.169705,0.004201,0.819070,0.291219,0.440306,-0.568838,-0.630670,92.051784,12.947831,-117.012918
36438,NaN,-2.340751,9.821607,-1.572813,1.153555,-0.457457,0.330096,-0.318977,0.068789,0.909685,0.294920,0.437350,-0.569822,-0.630119,91.874505,12.419089,-117.008326
36439,NaN,-3.506622,9.460432,-1.701470,1.900273,0.637446,0.220897,-0.280741,0.083098,1.013975,0.298964,0.434269,-0.571055,-0.629228,91.720544,11.832898,-116.981560
36440,NaN,-3.548859,9.799160,-1.929237,2.154699,0.598618,0.547698,-0.289092,0.043966,1.107210,0.303123,0.430680,-0.572576,-0.628321,91.557172,11.191512,-116.993821
36441,NaN,-3.300943,10.094549,-1.746598,1.932447,0.514418,0.763050,-0.325475,0.014550,1.223717,0.307706,0.426686,-0.574186,-0.627349,91.369517,10.486353,-117.006796
36442,NaN,-3.045471,10.057355,-1.173149,1.404344,0.663875,0.646133,-0.329563,0.003927,1.324723,0.312500,0.422257,-0.576056,-0.626261,91.179045,9.721066,-117.040118
36443,NaN,-2.348786,10.271609,-0.646041,0.700280,0.378692,0.713672,-0.339696,0.064948,1.454971,0.317953,0.417693,-0.577976,-0.624805,90.988677,8.882817,-117.021583
36444,NaN,-2.521960,10.593175,-0.237076,0.491914,0.804666,1.038113,-0.373916,0.151479,1.550158,0.323935,0.412956,-0.579882,-0.623114,90.786362,7.987039,-116.966326
36445,NaN,-2.832996,10.781478,0.077281,0.451885,1.340011,1.244858,-0.422747,0.189305,1.656331,0.330507,0.408009,-0.581687,-0.621236,90.557830,7.032745,-116.871305
36446,NaN,-2.863847,11.231732,0.658494,0.042544,1.739413,1.665815,-0.398422,0.231869,1.794812,0.337480,0.402706,-0.583800,-0.618961,90.345026,5.997020,-116.765138
36447,NaN,-3.189671,11.490450,1.003319,0.002674,2.331516,1.924891,-0.494393,0.221278,1.904680,0.345002,0.396943,-0.585733,-0.616706,90.074441,4.901157,-116.644893
36448,NaN,-2.819067,11.506250,1.600419,-0.551066,2.452555,1.874000,-0.462961,0.290046,2.065331,0.353039,0.390835,-0.587969,-0.613925,89.823126,3.711614,-116.497578
36449,NaN,0.414175,12.928800,1.033819,-1.352352,-0.560657,3.080858,-0.519541,0.087409,2.264982,0.361241,0.383467,-0.590637,-0.611233,89.529616,2.410046,-116.443135
36450,NaN,-7.770419,10.693371,5.439526,-1.465491,9.033065,1.167536,-0.530670,0.333001,2.387298,0.370424,0.376306,-0.593046,-0.607846,89.233230,1.037955,-116.259215
36451,NaN,-3.735840,12.966217,1.969393,0.049012,4.051185,3.207839,-0.757609,0.063748,2.392996,0.379283,0.367938,-0.595111,-0.605482,88.800751,-0.336468,-116.202171
36452,NaN,-3.409470,12.102230,1.508545,0.527153,3.797343,2.256143,-0.805900,-0.128713,2.611964,0.388167,0.358071,-0.597762,-0.603152,88.341207,-1.840628,-116.260413
36453,NaN,-3.691787,12.884636,1.418349,0.986783,4.295257,2.923843,-0.432849,-0.155819,2.869585,0.397090,0.348113,-0.601863,-0.599081,88.096368,-3.490969,-116.301525
36454,NaN,-3.170698,14.306529,0.359192,2.020846,3.743491,4.213874,-0.488789,-0.125476,3.055352,0.406578,0.337386,-0.605986,-0.594681,87.818710,-5.249141,-116.333181
36455,NaN,-2.734892,13.888980,0.768688,1.692290,3.863560,3.721178,-0.634995,-0.002592,3.211829,0.417137,0.326278,-0.609470,-0.589988,87.448381,-7.092113,-116.261162
36456,NaN,-3.619211,13.129738,0.996287,2.057550,5.041689,2.709727,-0.443206,0.148865,3.438912,0.428304,0.315117,-0.613460,-0.583887,87.171120,-9.062338,-116.104264
36457,NaN,-6.490578,16.770757,1.887089,3.178606,8.850504,5.629970,-0.342614,0.162071,3.693330,0.440050,0.303441,-0.617854,-0.576659,86.940623,-11.175168,-115.902566
36458,NaN,-7.003743,17.100820,1.655894,3.941239,9.758566,5.465573,-0.440409,0.292678,3.970445,0.452883,0.290833,-0.621929,-0.568786,86.626041,-13.442996,-115.624794
36459,NaN,-10.594295,19.557878,1.220193,6.529598,13.735808,6.461688,-0.456474,0.306559,4.288994,0.466590,0.277235,-0.626056,-0.559900,86.280788,-15.889140,-115.289374
36460,NaN,-10.324724,18.570002,0.987705,6.822957,13.763201,4.896555,-1.141648,0.358964,4.583967,0.481997,0.261118,-0.628227,-0.552112,85.506556,-18.498189,-114.880675
36461,NaN,-12.418838,21.637232,2.255764,7.477932,17.566598,6.400003,-0.167945,0.722702,5.059146,0.498293,0.246701,-0.632449,-0.539306,85.177547,-21.358054,-114.194262
36462,NaN,-19.301001,29.601497,3.934684,10.656584,27.394597,10.186136,-0.222556,0.646606,5.252016,0.514594,0.231168,-0.636518,-0.525927,84.785584,-24.326854,-113.511270
36463,NaN,-18.713933,26.305002,3.232882,10.540916,26.369317,5.869113,-0.361343,0.266414,5.355021,0.529753,0.213783,-0.640868,-0.512783,84.366888,-27.371297,-113.023182
36464,NaN,-12.335712,27.798319,4.220199,8.237389,23.005555,8.771361,-0.646255,-0.007860,5.692376,0.544784,0.193702,-0.645075,-0.499568,83.815157,-30.618475,-112.647802
36465,NaN,-9.247719,29.091833,1.077371,11.024181,20.668444,9.783904,-1.127219,-0.416521,5.796230,0.558768,0.170784,-0.648751,-0.487579,83.082412,-33.949438,-112.483142
36466,NaN,-7.885123,27.409361,-1.228832,12.767656,18.676863,7.591268,-0.921121,-0.915089,5.640151,0.570088,0.147597,-0.653625,-0.475382,82.642136,-37.222906,-112.632700
36467,NaN,-15.539556,17.793049,-3.109699,13.898621,18.987157,-6.080949,-1.253902,-1.315916,5.004536,0.578402,0.124460,-0.657882,-0.465995,82.223093,-40.169099,-113.109644
36468,NaN,-8.917973,6.309933,-6.276514,10.578502,6.586434,-11.665363,-1.534125,-1.233188,3.842707,0.584103,0.104469,-0.660131,-0.460584,81.691316,-42.449140,-113.634904
36469,NaN,6.672540,5.103493,-7.163977,6.348724,-5.057983,-2.329637,0.218162,0.274668,2.750470,0.591171,0.096620,-0.661228,-0.451618,81.456572,-43.989507,-113.107757
36470,NaN,-32.552410,19.464056,-4.434543,20.887829,30.556825,-19.201163,-0.181806,0.338320,0.831976,0.594233,0.094083,-0.660233,-0.449587,81.099442,-44.432422,-112.743946
36471,NaN,-21.651462,2.510340,-3.156130,9.740972,14.135373,-23.609470,-1.922489,-0.007831,0.440751,0.596071,0.086864,-0.656134,-0.454579,79.964973,-44.686813,-112.695157
36472,NaN,-5.154448,-0.684636,-1.837462,2.693524,2.080362,-14.152076,-0.556712,0.152325,0.261418,0.597383,0.084685,-0.654545,-0.455558,79.538413,-44.819050,-112.541305
36473,NaN,-11.373534,4.274974,-4.641390,8.935141,7.625066,-15.397998,-0.174755,0.433863,-0.995373,0.596599,0.088379,-0.652444,-0.458886,79.304447,-44.217409,-112.348607
36474,NaN,-15.246224,2.183633,-4.746003,9.225793,9.064446,-19.428007,-0.560225,0.194615,-1.966734,0.592916,0.093558,-0.649695,-0.466469,79.084529,-43.089932,-112.493815
36475,NaN,-11.495423,0.167677,-3.377940,6.243244,6.247231,-17.910272,-0.334391,-0.049013,-2.524833,0.586975,0.100617,-0.647851,-0.475000,79.170452,-41.679189,-112.903592
36476,NaN,-6.675254,1.625474,-2.419154,4.746540,4.284534,-13.300158,-0.001245,-0.089678,-3.246755,0.578875,0.110898,-0.646413,-0.484515,79.513856,-39.860597,-113.429070
36477,NaN,-5.566403,2.375451,-2.090385,4.506677,4.107341,-11.765150,0.000015,0.218622,-3.996471,0.569784,0.124292,-0.643461,-0.495839,79.748665,-37.590228,-113.802291
36478,NaN,-6.583982,2.045250,-1.784693,4.498385,4.908813,-12.337908,0.000396,0.388273,-4.603636,0.559445,0.140026,-0.639344,-0.508579,79.933244,-34.954655,-114.112078
36479,NaN,-6.994529,2.723498,-1.349788,4.596361,5.807628,-11.627962,0.113454,0.354298,-5.151648,0.547213,0.157633,-0.634848,-0.522185,80.205571,-32.016766,-114.485395
36480,NaN,-6.393326,3.415057,-0.134520,3.652616,6.251252,-10.160742,0.121560,0.294390,-5.733150,0.532835,0.176859,-0.629602,-0.537038,80.503729,-28.749967,-114.934716
36481,NaN,-4.850128,4.847223,0.557866,2.988087,5.813501,-7.670282,0.171590,0.461014,-6.190761,0.517258,0.197923,-0.623085,-0.552301,80.765772,-25.211766,-115.292554
36482,NaN,-4.942004,6.139551,0.338924,3.562631,6.011355,-6.154651,0.253997,0.644374,-6.535821,0.500664,0.220603,-0.615337,-0.567477,81.012711,-21.455578,-115.545212
36483,NaN,-4.090771,7.358456,-0.761216,4.399110,4.814462,-4.436576,0.396105,0.762766,-6.758837,0.483111,0.244389,-0.606769,-0.581987,81.299837,-17.566437,-115.721212
36484,NaN,-4.174067,8.437857,-1.351906,5.028125,4.464088,-3.089372,0.543572,0.945354,-6.893471,0.464939,0.269205,-0.597297,-0.595481,81.627937,-13.579810,-115.777553
36485,NaN,-3.360177,9.537492,-1.373171,4.683313,3.449494,-1.430177,0.612189,1.129032,-7.006475,0.446338,0.294707,-0.586717,-0.608025,81.966813,-9.518687,-115.711158
36486,NaN,-2.441410,10.673637,-1.137576,3.958607,2.284047,0.199510,0.732855,1.355875,-7.089204,0.427366,0.321053,-0.575110,-0.619300,82.360788,-5.388498,-115.497291
36487,NaN,-2.343228,12.550484,-0.684985,3.375761,1.780766,2.387257,0.961567,1.664309,-7.097003,0.408352,0.348414,-0.562783,-0.628595,82.888846,-1.237921,-115.075479
36488,NaN,-2.301080,14.873031,-0.221249,2.667341,1.059410,4.959425,1.125262,1.969990,-7.115652,0.389262,0.376668,-0.549533,-0.636089,83.545307,2.944238,-114.439949
36489,NaN,-1.512687,17.094465,-0.171138,1.805068,-0.801263,7.231500,1.284850,2.226724,-7.251570,0.369618,0.405858,-0.535257,-0.641998,84.356688,7.206022,-113.608623
36490,NaN,-1.260062,20.383820,-0.086782,0.960978,-2.660915,10.408342,1.478590,2.304420,-7.449651,0.349958,0.436875,-0.519105,-0.645910,85.354239,11.597406,-112.403069
36491,NaN,-2.384783,23.219934,-0.040991,0.361337,-3.630525,13.236262,1.644678,2.097874,-7.762982,0.326457,0.466269,-0.503388,-0.650092,86.515749,16.115008,-111.496011
36492,NaN,-1.357601,26.621867,1.173653,-2.414790,-6.707324,15.891926,1.730934,1.738027,-7.920645,0.300748,0.494259,-0.487308,-0.654056,87.765232,20.697423,-110.690475
36493,NaN,2.359421,29.891262,4.851483,-8.549099,-11.619260,16.908130,1.540720,1.610325,-7.722941,0.275377,0.520223,-0.470484,-0.657404,88.985572,25.142567,-109.828772
36494,NaN,2.502753,32.676351,6.463963,-11.553565,-14.180193,18.128157,1.223708,1.734088,-7.307158,0.252036,0.544401,-0.452800,-0.659604,90.184035,29.336237,-108.749581
36495,NaN,3.944093,34.077911,4.406229,-11.106931,-18.489947,17.215999,0.566999,1.568721,-6.797593,0.231481,0.565310,-0.433951,-0.662214,91.080705,33.216862,-107.651556
36496,NaN,7.966934,29.046825,3.256393,-10.585528,-20.925709,9.359270,0.013219,1.387963,-6.054834,0.214280,0.582766,-0.415094,-0.664955,91.703066,36.664870,-106.583089
36497,NaN,16.991443,26.362538,0.758430,-10.008350,-27.926280,0.385200,1.457232,1.101144,-5.179870,0.195025,0.598488,-0.403546,-0.664025,93.130120,39.599548,-105.626855
36498,NaN,30.789314,27.765551,4.745544,-17.104331,-38.054550,-9.115109,1.103354,0.963581,-3.877346,0.180743,0.610436,-0.394610,-0.662557,94.360554,41.778510,-104.713104
36499,NaN,36.972799,22.926647,9.557604,-21.571399,-38.011135,-18.398834,1.054846,0.822011,-1.858243,0.172984,0.617709,-0.391698,-0.659609,95.472921,42.795096,-103.960076
36500,NaN,29.970549,25.410149,8.286388,-19.797707,-34.853200,-12.235901,0.939278,-0.122270,-0.036973,0.169720,0.618159,-0.394817,-0.658175,95.947390,42.819904,-104.056477
36501,NaN,29.620267,24.860466,7.354965,-18.988435,-34.403640,-12.113931,-0.163934,-1.186903,1.199506,0.171832,0.611693,-0.399012,-0.661131,95.170115,42.197925,-105.069637
36502,NaN,24.695429,17.728899,7.724407,-16.882312,-26.180809,-13.464751,-0.337149,-1.714439,2.173806,0.176623,0.601310,-0.406017,-0.665117,94.017120,41.030359,-106.516743
36503,NaN,16.640856,16.748158,4.468476,-12.203155,-20.621582,-8.033434,0.403357,-1.911900,2.765186,0.180706,0.589578,-0.417335,-0.667514,93.235463,39.514455,-108.085269
36504,NaN,3.116385,22.457297,2.268944,-8.633564,-14.224096,5.750553,2.087827,-1.616930,4.444298,0.185968,0.576563,-0.438763,-0.663685,93.581594,37.021901,-109.459529
36505,NaN,-13.740695,6.346368,2.802140,-0.297624,8.079629,3.284064,0.208820,-3.071030,3.472163,0.190106,0.558763,-0.452235,-0.668676,92.344887,35.121868,-111.764792
36506,NaN,-43.870167,25.002590,4.509183,3.887527,22.719405,35.334499,0.873212,-3.556338,3.833065,0.192393,0.538805,-0.469121,-0.672755,91.418958,32.987538,-114.313118
36507,NaN,10.141979,37.720367,7.731436,-19.539608,-22.283794,16.773926,-0.784601,-2.333986,3.938192,0.202232,0.520785,-0.479241,-0.676915,90.118478,30.745028,-115.926801
36508,NaN,25.200044,28.146216,2.964836,-18.552171,-30.722379,2.340729,0.296360,-1.505793,4.699612,0.213715,0.504529,-0.493893,-0.675163,89.802710,28.045663,-116.917876
36509,NaN,-6.471976,16.320921,1.242936,-1.783479,-0.911965,7.673069,0.575036,-1.689288,3.802756,0.220887,0.489906,-0.507154,-0.673792,89.645082,25.858008,-117.995265
36510,NaN,-0.623726,3.584997,7.208306,-6.768309,2.554807,-6.226645,-0.219355,-1.854927,2.481330,0.225077,0.477021,-0.514518,-0.676063,89.028239,24.417362,-119.153656
36511,NaN,20.375038,6.509881,7.346198,-16.781982,-15.013862,-11.911677,1.299144,-0.671304,2.969455,0.230263,0.468476,-0.526707,-0.670887,89.613660,22.707403,-119.554519
36512,NaN,8.798119,22.823065,4.008207,-11.599124,-12.563261,8.129984,0.504861,0.416845,3.250988,0.241078,0.461784,-0.535501,-0.664738,90.000653,20.838522,-119.293285
36513,NaN,2.214980,14.631110,0.566030,-3.954021,-5.960695,3.153519,-0.359636,0.749819,2.226290,0.251302,0.457814,-0.538534,-0.661237,89.952984,19.559003,-118.838245
36514,NaN,0.525510,7.969159,2.348535,-3.514133,-1.602962,-2.438520,-0.848945,1.203726,2.191421,0.263738,0.454739,-0.539223,-0.657946,89.704197,18.298079,-118.107760
36515,NaN,-6.901556,5.543054,-2.072347,4.115191,3.347755,-2.429860,0.871245,0.692348,1.950565,0.270028,0.452844,-0.545608,-0.651406,90.330469,17.176252,-117.694861
36516,NaN,-4.400800,12.841901,0.222206,-0.042522,0.610443,3.750215,0.425731,-0.084959,1.579082,0.273993,0.448772,-0.550704,-0.648272,90.557584,16.264657,-117.755617
36517,NaN,-0.947870,11.504642,0.651607,-1.724675,-1.615479,1.505150,0.220983,-0.451991,1.340068,0.276593,0.443874,-0.555063,-0.646821,90.608693,15.495445,-118.036205
36518,NaN,-0.878051,11.461163,0.689992,-1.745862,-1.516916,1.468056,0.313679,-0.333856,0.923842,0.277980,0.440611,-0.558619,-0.645394,90.734671,14.961183,-118.243470
36519,NaN,-1.659671,10.487775,0.217190,-0.819411,-0.770064,0.748099,0.171100,-0.367127,0.693275,0.278816,0.437690,-0.561235,-0.644751,90.776350,14.562699,-118.469624
36520,NaN,0.914468,10.320266,-0.622028,-1.226243,-3.257851,-0.034479,0.127840,-0.126482,0.683543,0.280410,0.435492,-0.563353,-0.643700,90.829701,14.164895,-118.552687
36521,NaN,0.414581,10.541814,-0.990309,-0.674117,-2.993523,0.329621,-0.007792,0.371468,0.622090,0.283477,0.434887,-0.564188,-0.642032,90.877400,13.801263,-118.342073
36522,NaN,-3.373078,10.416095,-0.719534,0.879412,0.459239,1.114608,-0.089366,0.520448,0.560665,0.286963,0.434799,-0.564417,-0.640341,90.897435,13.468169,-118.042956
36523,NaN,-4.944136,10.235799,-0.715157,1.639814,1.907691,1.295816,-0.071138,0.329988,0.568390,0.289870,0.434112,-0.564978,-0.639000,90.900693,13.135512,-117.857168
36524,NaN,-4.454930,10.317682,-0.694742,1.418094,1.541336,1.250610,-0.064102,0.111302,0.594982,0.292249,0.432645,-0.565938,-0.638061,90.877593,12.786504,-117.799748
36525,NaN,-3.596308,10.003035,-1.079171,1.441431,0.734650,0.748608,-0.144922,0.045290,0.604106,0.294619,0.430832,-0.566744,-0.637482,90.799801,12.435964,-117.781557
36526,NaN,-2.682239,9.762897,-1.668208,1.617388,-0.230967,0.317551,-0.174595,0.139199,0.701814,0.297649,0.428981,-0.567528,-0.636626,90.716143,12.025783,-117.707980
36527,NaN,-3.210413,9.780393,-1.437342,1.704106,0.397418,0.432611,-0.264817,0.259902,0.847968,0.301654,0.426969,-0.568141,-0.635546,90.594928,11.534181,-117.564734
36528,NaN,-3.506264,9.217100,-1.430284,1.950576,0.833788,-0.076485,-0.305962,0.310459,1.008800,0.306413,0.424576,-0.568883,-0.634207,90.454276,10.947591,-117.391331
36529,NaN,-3.843908,9.157421,-1.154361,1.930000,1.355456,-0.096558,-0.290499,0.266424,1.161798,0.311469,0.421629,-0.570040,-0.632670,90.316283,10.276823,-117.243733
36530,NaN,-3.628650,9.699169,-0.384598,1.177692,1.538635,0.367340,-0.294072,0.149857,1.305775,0.316662,0.417868,-0.571653,-0.631130,90.162700,9.521435,-117.162279
36531,NaN,-3.276750,9.802382,-0.806968,1.473243,1.134300,0.386139,-0.303865,0.067411,1.402418,0.321910,0.413546,-0.573533,-0.629614,89.995394,8.713744,-117.127396
36532,NaN,-2.189942,10.243983,-0.571450,0.838985,0.348889,0.638808,-0.321340,0.101501,1.519197,0.327659,0.408934,-0.575518,-0.627846,89.820525,7.836614,-117.069724
36533,NaN,-1.895802,10.462723,-0.384281,0.632045,0.281410,0.804705,-0.385052,0.243699,1.618226,0.334218,0.404364,-0.577229,-0.625776,89.619427,6.906001,-116.927439
36534,NaN,-2.001910,10.763857,-0.258937,0.669753,0.541587,1.104749,-0.458373,0.301381,1.681141,0.341282,0.399628,-0.578703,-0.623639,89.377880,5.937577,-116.747668
36535,NaN,-1.647470,10.861690,0.030445,0.374922,0.495990,1.155517,-0.507975,0.386994,1.760753,0.348895,0.394822,-0.579982,-0.621296,89.110160,4.927597,-116.514616
36536,NaN,-2.336230,11.082790,0.449350,0.433760,1.435257,1.422804,-0.536540,0.400716,1.837899,0.356828,0.389737,-0.581253,-0.618808,88.822669,3.872158,-116.267766
36537,NaN,-3.138927,11.190082,1.133891,0.311454,2.615954,1.563251,-0.562016,0.343767,1.955057,0.364955,0.384062,-0.582710,-0.616242,88.514649,2.752686,-116.047436
36538,NaN,-3.023495,11.409977,2.017250,-0.384317,3.069570,1.755516,-0.559850,0.230384,2.105851,0.373186,0.377548,-0.584608,-0.613533,88.201003,1.543771,-115.883204
36539,NaN,-4.349211,11.859516,2.386965,0.028568,4.611231,2.186905,-0.503348,0.097086,2.279557,0.381389,0.370184,-0.587176,-0.610516,87.915369,0.236099,-115.786271
36540,NaN,-3.049862,12.721865,2.227979,-0.181718,3.589253,2.961770,-0.603865,-0.095922,2.425041,0.389615,0.361547,-0.589993,-0.607776,87.570310,-1.160924,-115.788861
36541,NaN,-2.916983,11.232169,2.007604,0.109481,3.608686,1.396999,-0.963657,-0.367667,2.649129,0.398285,0.350668,-0.592539,-0.606051,87.024179,-2.691259,-115.930657
36542,NaN,-4.433164,12.647097,2.196670,0.914547,5.337825,2.640698,-0.438596,-0.037882,2.789421,0.407371,0.341338,-0.596150,-0.601783,86.769945,-4.294687,-115.868065
36543,NaN,-2.389405,13.011385,-0.089912,2.320761,2.815993,2.902818,-0.590180,-0.047234,3.000551,0.417219,0.330977,-0.599551,-0.597428,86.426529,-6.016741,-115.795597
36544,NaN,-3.375865,13.811012,0.751565,2.313983,4.460638,3.507807,-0.497038,-0.045249,3.233534,0.427523,0.320025,-0.603463,-0.592149,86.131414,-7.873395,-115.702898
36545,NaN,-3.881872,14.614341,1.716744,2.025095,5.790886,4.113440,-0.607431,-0.009058,3.419122,0.438527,0.308302,-0.607093,-0.586584,85.764293,-9.832197,-115.570845
36546,NaN,-3.756582,14.491889,1.861470,2.101623,6.133100,3.808444,-0.574108,0.099510,3.638411,0.450322,0.296198,-0.610727,-0.580077,85.394887,-11.912235,-115.351731
36547,NaN,-6.751904,16.978694,2.462528,3.496839,9.893313,5.345803,-0.401529,0.220866,3.965672,0.463004,0.283734,-0.614845,-0.571916,85.093844,-14.170445,-115.031726
36548,NaN,-6.614318,16.863574,1.965328,4.157515,10.057651,4.799053,-0.576219,0.266643,4.198858,0.476552,0.270151,-0.618426,-0.563441,84.664321,-16.558612,-114.653664
36549,NaN,-8.794156,17.825004,2.200163,5.276115,12.837794,4.581615,-0.205671,0.575093,4.557825,0.491321,0.257086,-0.622498,-0.552275,84.362583,-19.131000,-114.049633
36550,NaN,-11.702160,22.131576,3.253126,6.659973,17.594977,7.017986,-0.350805,0.588908,4.883099,0.506944,0.242538,-0.626196,-0.540428,83.930927,-21.884956,-113.389197
36551,NaN,-16.149443,28.497350,4.447817,9.058489,24.654613,10.251091,-0.277793,0.699681,5.119237,0.523132,0.227585,-0.629698,-0.527274,83.463424,-24.760798,-112.607527
36552,NaN,-18.430785,28.072529,3.910305,10.533754,27.078542,7.467364,-0.629100,0.307640,5.148654,0.538212,0.210434,-0.632904,-0.515245,82.845416,-27.672906,-112.023276
36553,NaN,-13.577140,26.432820,4.053556,8.748485,23.305536,6.907662,-1.123043,0.020379,5.319517,0.552961,0.190524,-0.635346,-0.504252,81.973082,-30.697002,-111.551782
36554,NaN,-8.070064,27.362477,1.736852,9.990891,19.068086,8.981516,-1.480680,-0.419934,5.427580,0.566494,0.168032,-0.637712,-0.494139,80.986001,-33.811127,-111.291281
36555,NaN,-7.749686,24.468735,-1.049421,12.017323,16.982490,5.250172,-1.286313,-1.022347,5.323918,0.577246,0.144795,-0.641680,-0.483806,80.310187,-36.920689,-111.395078
36556,NaN,-8.396992,20.529634,-2.505171,12.510785,15.341101,0.496488,-1.033050,-1.430825,4.886769,0.585019,0.122608,-0.646651,-0.473881,79.980912,-39.821793,-111.817296
36557,NaN,-15.470173,11.567738,-4.356718,12.876980,14.883974,-11.981107,-1.107705,-1.571654,4.272014,0.590575,0.101770,-0.651089,-0.465776,79.747105,-42.394356,-112.425066
36558,NaN,1.024559,1.774453,-9.941756,9.015824,-4.618777,-9.166635,-1.490364,-1.005857,2.991720,0.594923,0.085259,-0.652030,-0.462229,79.134081,-44.186466,-112.775559
36559,NaN,-2.516165,7.603364,-5.255320,8.516871,3.338467,-6.970872,0.874431,0.085747,1.904118,0.599195,0.081817,-0.654595,-0.453626,79.389500,-45.253804,-112.424718
36560,NaN,-29.294592,13.172843,-6.354965,19.151129,23.410822,-22.352465,-0.791883,-0.377387,0.023998,0.598317,0.078497,-0.653953,-0.456289,79.151553,-45.308893,-112.727156
36561,NaN,-19.641300,-0.546278,-4.375630,8.858178,10.192665,-24.741412,-1.498131,-0.465158,-0.181511,0.596950,0.073516,-0.651859,-0.461872,78.581098,-45.262947,-113.130520
36562,NaN,-2.024132,-1.230278,-1.466029,1.238679,-0.133238,-12.304243,-0.534408,-0.110551,-0.438421,0.595750,0.073087,-0.650810,-0.464958,78.391765,-45.029891,-113.294080
36563,NaN,-8.399093,3.149137,-4.758999,7.820349,4.772523,-14.191438,-0.030384,0.328585,-1.592268,0.593108,0.078910,-0.649181,-0.469638,78.377058,-44.103016,-113.296120
36564,NaN,-10.666373,3.700604,-5.334442,9.254337,6.346091,-15.290021,-0.430161,0.251441,-2.491470,0.588175,0.086299,-0.646411,-0.478284,78.274369,-42.676218,-113.503920
36565,NaN,-9.048557,2.219389,-3.697840,6.817017,5.409509,-14.786186,-0.550783,0.229792,-3.090418,0.581692,0.095177,-0.643029,-0.488968,78.169891,-40.920596,-113.818734
36566,NaN,-6.944547,2.175428,-3.217510,5.841496,4.265179,-13.127906,-0.151235,0.054176,-3.786223,0.572555,0.107021,-0.640606,-0.500351,78.429181,-38.790014,-114.356612
36567,NaN,-3.953107,3.906641,-2.130254,4.770949,3.545828,-9.517733,0.084297,0.127464,-4.428613,0.561699,0.121709,-0.637951,-0.512543,78.810241,-36.292701,-114.900490
36568,NaN,-4.596729,4.470707,-1.422821,4.640261,4.587598,-9.067426,-0.014482,0.357934,-4.900607,0.550098,0.138175,-0.633755,-0.525979,79.041547,-33.497521,-115.316882
36569,NaN,-4.751010,4.221735,-0.826090,4.095456,4.851929,-8.944229,-0.023436,0.449708,-5.307787,0.537388,0.156030,-0.628592,-0.540131,79.230736,-30.466931,-115.696900
36570,NaN,-3.817530,4.978415,-0.269459,3.541721,4.594386,-7.411030,0.210032,0.566451,-5.683742,0.523411,0.175919,-0.622968,-0.554080,79.509671,-27.205959,-116.022513
36571,NaN,-3.564138,6.433896,-0.161373,3.790850,4.742202,-5.659510,0.331080,0.723512,-5.976150,0.508583,0.197290,-0.616480,-0.567778,79.800520,-23.767693,-116.254397
36572,NaN,-4.780393,7.730752,-0.258375,4.659114,5.796037,-4.582510,0.465384,0.725657,-6.258865,0.492314,0.219720,-0.609496,-0.581261,80.156875,-20.163356,-116.489625
36573,NaN,-4.323071,9.070743,-0.899836,5.224543,5.059865,-2.823877,0.634222,0.626304,-6.465456,0.474479,0.242652,-0.602400,-0.594225,80.610160,-16.455600,-116.771202
36574,NaN,-3.490572,10.221179,-1.257526,5.206773,3.933674,-1.117220,0.769891,0.661434,-6.591867,0.455662,0.266156,-0.594807,-0.606414,81.112799,-12.665598,-117.008100
36575,NaN,-3.382614,10.854156,-1.318693,5.016566,3.369132,-0.095287,0.854798,0.721306,-6.707418,0.436076,0.290048,-0.586517,-0.617825,81.636300,-8.808553,-117.181274
36576,NaN,-2.979830,11.957979,-0.934103,4.306084,2.679000,1.455243,1.005447,0.815246,-6.800469,0.415712,0.314520,-0.577653,-0.628154,82.225211,-4.884113,-117.270021
36577,NaN,-2.178135,13.422730,-0.800327,3.553133,1.368910,3.263323,1.166323,0.991254,-6.840069,0.395011,0.339583,-0.568176,-0.637044,82.892305,-0.928994,-117.216865
36578,NaN,-1.600146,14.849413,-0.926375,2.972996,-0.032826,4.849991,1.292748,1.302289,-6.874415,0.374340,0.365589,-0.557712,-0.644337,83.640747,3.071238,-116.941339
36579,NaN,-1.448784,16.488820,-0.688985,2.132918,-1.080342,6.577103,1.415125,1.614732,-6.928669,0.353697,0.392482,-0.546250,-0.649974,84.498392,7.110999,-116.432010
36580,NaN,-1.938335,18.263445,-0.148163,1.134881,-1.656838,8.439737,1.485975,1.881672,-7.085903,0.332616,0.420293,-0.533488,-0.654302,85.468478,11.250807,-115.707476
36581,NaN,-2.828996,20.372762,0.251429,0.221088,-2.265258,10.625878,1.584020,1.921375,-7.297906,0.310301,0.448328,-0.519777,-0.657683,86.569245,15.494253,-114.880106
36582,NaN,-2.360106,23.246493,1.151159,-1.981381,-4.376400,13.077215,1.583072,1.852173,-7.391766,0.286968,0.475708,-0.505195,-0.660400,87.749140,19.777310,-113.997075
36583,NaN,1.644428,26.223002,4.640963,-8.054146,-8.871359,14.019515,1.238982,2.053165,-7.279400,0.264971,0.502266,-0.488692,-0.662344,88.882580,23.976786,-112.865478
36584,NaN,1.982959,27.975760,6.398403,-10.980534,-10.695623,14.522063,0.897272,2.432318,-6.871236,0.245419,0.527710,-0.471166,-0.662792,90.061707,27.921272,-111.412532
36585,NaN,0.798626,27.183627,4.469679,-9.464134,-11.562789,13.339164,0.786040,2.265917,-6.436168,0.227219,0.551000,-0.453768,-0.662470,91.278839,31.589645,-109.871343
36586,NaN,4.801799,28.644376,1.327429,-8.617646,-17.839478,11.460777,0.629389,1.752499,-5.853215,0.209447,0.570137,-0.438091,-0.662685,92.373105,34.898796,-108.640701
36587,NaN,16.631614,26.918428,-0.296436,-10.127569,-27.556179,1.984178,0.653581,1.154637,-5.188717,0.192854,0.585776,-0.424135,-0.663162,93.342319,37.831158,-107.640279
36588,NaN,28.073107,24.268659,4.136271,-16.447528,-33.503715,-8.831529,0.593102,1.000402,-3.962837,0.179396,0.597448,-0.414219,-0.662794,94.273076,40.042197,-106.836860
36589,NaN,30.636562,22.243299,8.872871,-20.743867,-32.684003,-13.482992,0.918479,1.254228,-1.986629,0.172658,0.606465,-0.410204,-0.658880,95.493911,41.111339,-105.771087
36590,NaN,28.035598,24.554225,8.712266,-20.566474,-32.269276,-10.533907,0.586792,0.651162,-0.211525,0.171332,0.609384,-0.411183,-0.655915,96.166649,41.186354,-105.300712
36591,NaN,27.679907,22.915861,8.143284,-19.509997,-31.218075,-11.364079,-0.085058,-0.122922,1.022690,0.174696,0.606767,-0.414154,-0.655585,96.001714,40.607394,-105.480137
36592,NaN,20.777963,25.800738,5.129371,-16.205642,-28.731730,-3.853549,0.316587,-0.698408,2.537784,0.180501,0.599335,-0.423628,-0.654795,95.726130,39.194328,-106.216502
36593,NaN,15.491059,16.688939,11.148839,-18.469761,-17.164295,-7.173295,0.243038,-1.826081,3.389144,0.186972,0.586255,-0.436181,-0.656576,94.899977,37.353768,-107.776874
36594,NaN,23.939089,24.416175,8.786129,-20.844265,-28.051441,-4.834332,0.207196,-3.101230,4.209822,0.193244,0.566742,-0.452143,-0.661080,93.590771,35.069908,-110.223144
36595,NaN,-43.273531,24.385348,7.768585,-0.147548,24.363616,34.157248,1.014552,-3.560559,4.465657,0.197004,0.545590,-0.471430,-0.664285,92.710532,32.622843,-112.848887
36596,NaN,-12.856172,33.965488,7.975005,-11.082294,-2.385392,25.596310,-0.466366,-2.994077,3.750647,0.203512,0.526036,-0.483100,-0.669689,91.343701,30.525933,-114.977567
36597,NaN,29.281445,19.955778,13.183474,-27.382848,-25.899578,-6.889071,0.207947,-1.387430,4.805985,0.215646,0.509797,-0.497727,-0.667736,90.987658,27.784922,-115.955313
36598,NaN,-2.254754,17.536046,-1.859935,-1.204634,-5.937679,6.899832,0.672134,-1.691338,4.111824,0.223217,0.494276,-0.512399,-0.665818,90.870590,25.432238,-117.123623
36599,NaN,-6.122173,7.119897,1.393851,-0.094237,2.981856,-0.801064,-0.064273,-1.777165,2.652454,0.227629,0.481396,-0.520688,-0.667328,90.358282,23.919364,-118.265457
36600,NaN,14.148859,4.824226,3.006647,-9.841395,-11.592080,-10.931341,0.444505,-1.709890,2.952221,0.231768,0.468217,-0.531363,-0.666866,90.194764,22.220329,-119.376292
36601,NaN,14.114888,15.760213,-0.284833,-9.148405,-16.519318,-0.269316,0.818203,-0.488785,3.066463,0.238753,0.459293,-0.541798,-0.662195,90.549775,20.461137,-119.692523
36602,NaN,1.729439,17.170442,-0.458173,-3.391781,-6.601918,5.773128,-0.431068,0.304259,2.635027,0.248995,0.452252,-0.546341,-0.659531,90.365815,18.933826,-119.580685
36603,NaN,1.595298,10.332534,1.159263,-3.389270,-3.555452,-0.511209,-0.519586,0.797878,2.138435,0.259388,0.448329,-0.548462,-0.656436,90.217636,17.702176,-119.108976
36604,NaN,-3.961795,8.612296,0.670122,-0.019376,1.432728,-0.417951,-0.007655,0.610895,1.801602,0.266620,0.444911,-0.552070,-0.652829,90.326271,16.649510,-118.825850
36605,NaN,-4.678046,9.882855,0.005156,0.779903,1.549331,0.982864,0.054038,-0.006223,1.537031,0.271495,0.440673,-0.555688,-0.650622,90.355047,15.764796,-118.838239
36606,NaN,-1.261350,10.843775,0.034234,-0.900102,-1.393697,0.977360,0.285345,-0.572563,1.374711,0.273397,0.434927,-0.560795,-0.649309,90.433181,14.961189,-119.258693
36607,NaN,-1.369477,11.219225,1.672586,-2.271630,-0.450539,1.375665,0.167643,-0.717618,1.080557,0.274526,0.429753,-0.564688,-0.648904,90.420998,14.341062,-119.691639
36608,NaN,-1.451579,10.424561,1.421676,-1.861220,-0.224320,0.641228,0.213874,-0.807745,0.877837,0.274292,0.424502,-0.568740,-0.648919,90.432852,13.823569,-120.245907
36609,NaN,0.625200,11.648413,0.782854,-2.443822,-2.441195,1.356764,0.155981,-0.526919,0.836789,0.275178,0.420587,-0.571768,-0.648433,90.448913,13.342369,-120.563475
36610,NaN,0.602552,11.098605,-0.290674,-1.405167,-2.776146,0.861792,-0.048433,0.085817,0.759914,0.277653,0.418184,-0.573454,-0.647442,90.438233,12.888681,-120.589477
36611,NaN,-2.152184,10.211159,-0.147246,-0.011162,-0.162114,0.622567,-0.151391,0.370977,0.658928,0.281167,0.417248,-0.573852,-0.646176,90.399331,12.505506,-120.377610
36612,NaN,-3.716760,10.260817,-0.683704,1.259400,0.933118,1.009001,-0.129666,0.265330,0.615113,0.283868,0.415731,-0.574694,-0.645224,90.363916,12.134373,-120.294509
36613,NaN,-4.270971,10.416400,-1.019252,1.846617,1.259918,1.268091,-0.136949,0.065022,0.618786,0.286337,0.413931,-0.575473,-0.644596,90.293524,11.775528,-120.261674
36614,NaN,-3.704303,9.936708,-1.611540,2.180753,0.616496,0.671629,-0.204028,-0.066243,0.654092,0.288390,0.411152,-0.576580,-0.644470,90.174170,11.384397,-120.365695
36615,NaN,-2.137041,9.790254,-1.376903,1.272536,-0.515644,0.208597,-0.230721,-0.016777,0.728954,0.291166,0.408626,-0.577384,-0.644108,90.040586,10.962645,-120.379431
36616,NaN,-1.826780,10.171930,-0.544039,0.424214,-0.360769,0.521261,-0.272183,0.146511,0.817701,0.294519,0.405979,-0.578249,-0.643480,89.905800,10.478626,-120.351672
36617,NaN,-2.072566,10.024543,-0.371805,0.480490,0.021488,0.419278,-0.369676,0.286351,0.893208,0.298970,0.403734,-0.578474,-0.642638,89.724590,9.963261,-120.186393
36618,NaN,-2.735054,9.677000,-0.358948,0.902223,0.714092,0.183755,-0.412624,0.344341,0.975184,0.303683,0.401052,-0.578869,-0.641751,89.527511,9.390641,-120.038143
36619,NaN,-3.536885,9.719161,-0.386171,1.394860,1.456842,0.338749,-0.351814,0.277472,1.073111,0.308633,0.398260,-0.579491,-0.640566,89.353093,8.773230,-119.874143
36620,NaN,-3.102796,10.039335,-0.385801,1.242046,1.131543,0.567099,-0.350809,0.239667,1.189980,0.313608,0.394709,-0.580609,-0.639334,89.178465,8.078806,-119.777880
36621,NaN,-2.591333,10.243498,-0.022302,0.753689,0.945641,0.684016,-0.381249,0.295726,1.309615,0.319400,0.391210,-0.581527,-0.637781,88.985429,7.327098,-119.597826
36622,NaN,-1.738531,10.518394,0.300012,0.143423,0.447097,0.842201,-0.416176,0.419022,1.425711,0.325763,0.387421,-0.582537,-0.635951,88.782523,6.501207,-119.388078
36623,NaN,-1.504815,10.321408,0.066535,0.349962,0.268269,0.608623,-0.484042,0.540781,1.515371,0.333085,0.383890,-0.583062,-0.633815,88.541227,5.636248,-119.059180
36624,NaN,-1.370223,9.873380,-0.282123,0.714345,0.148767,0.132463,-0.479482,0.607309,1.603771,0.340635,0.380017,-0.583820,-0.631434,88.304846,4.713459,-118.733485
36625,NaN,-1.639464,10.410141,0.096568,0.617655,0.649569,0.687887,-0.453999,0.622262,1.677587,0.348598,0.376261,-0.584520,-0.628684,88.074419,3.759802,-118.348663
36626,NaN,-1.469898,10.963502,0.462689,0.337964,0.778141,1.225885,-0.491920,0.591737,1.767677,0.356573,0.371760,-0.585478,-0.625991,87.818623,2.745832,-118.023843
36627,NaN,-1.715113,10.406551,0.658790,0.406220,1.265026,0.670795,-0.618151,0.577491,1.827703,0.365118,0.367063,-0.585911,-0.623428,87.480127,1.708847,-117.652922
36628,NaN,-2.679963,10.543662,1.280804,0.439938,2.555126,0.829940,-0.514727,0.549189,1.992159,0.373651,0.361668,-0.587152,-0.620349,87.197125,0.569593,-117.334465
36629,NaN,-3.480647,11.565852,1.620678,0.684456,3.570573,1.818628,-0.523236,0.384932,2.149754,0.382374,0.355517,-0.588690,-0.617124,86.898388,-0.653402,-117.053635
36630,NaN,-1.922295,12.561852,0.388732,1.320236,1.805995,2.702648,-0.964821,-0.250820,2.256526,0.390081,0.345927,-0.590370,-0.616144,86.351681,-1.965783,-117.168601
36631,NaN,-5.441981,10.282829,2.685531,0.916887,6.177924,0.363274,-0.606173,0.242017,2.414293,0.399254,0.338304,-0.592190,-0.612747,85.995063,-3.341045,-116.940483
36632,NaN,-3.231178,14.219547,0.347148,2.524361,3.471466,4.127198,-0.462475,-0.062710,2.634622,0.407906,0.329314,-0.595333,-0.608887,85.725861,-4.855962,-116.868971
36633,NaN,-3.574587,13.705366,1.011031,2.274798,4.354745,3.509637,-0.713070,-0.154940,2.808233,0.417128,0.318961,-0.598069,-0.605460,85.315134,-6.471321,-116.834385
36634,NaN,-3.122070,13.063887,1.329882,1.957470,4.359811,2.809795,-0.607446,-0.079013,3.035823,0.427018,0.308297,-0.601195,-0.600977,84.955076,-8.214764,-116.733004
36635,NaN,-3.740143,14.286408,1.714081,2.308651,5.534549,3.790509,-0.411677,0.022058,3.319874,0.437636,0.297429,-0.604973,-0.594994,84.691168,-10.112389,-116.549138
36636,NaN,-5.442541,15.563740,2.310038,2.985218,7.873540,4.548833,-0.307294,0.112397,3.666518,0.449281,0.285909,-0.609193,-0.587611,84.464640,-12.203836,-116.283443
36637,NaN,-7.801399,17.905807,1.334262,5.581099,10.331771,5.849823,-0.563001,0.117857,4.025246,0.462179,0.272639,-0.612930,-0.579979,84.073313,-14.496267,-115.980431
36638,NaN,-8.068700,18.657427,1.680713,5.871676,11.432831,6.023207,-0.412411,0.101165,4.405016,0.475721,0.258375,-0.617383,-0.570763,83.746744,-17.005415,-115.644533
36639,NaN,-11.135151,24.233478,2.229846,8.247284,16.273332,9.764023,-0.161367,0.347860,4.868810,0.490755,0.243846,-0.622228,-0.559044,83.487486,-19.760041,-115.111793
36640,NaN,-15.896066,30.241640,2.000087,12.231969,22.719291,12.664212,-0.516509,0.484753,5.040975,0.506827,0.228138,-0.625565,-0.547492,82.954274,-22.600230,-114.452944
36641,NaN,-15.845348,30.208181,0.680289,13.876800,23.044177,11.168684,-1.106839,0.627195,5.096721,0.523827,0.211000,-0.626571,-0.537116,81.992958,-25.452728,-113.646942
36642,NaN,-14.231712,26.313177,-0.296183,13.518687,20.803350,6.898463,-1.433307,0.686386,5.284994,0.541476,0.192426,-0.626285,-0.526823,80.745421,-28.391186,-112.704358
36643,NaN,-9.341498,25.061730,-0.206575,11.905793,17.151641,6.899115,-1.732346,0.848301,5.408103,0.559819,0.172928,-0.624398,-0.516552,79.169714,-31.362241,-111.532070
36644,NaN,-3.268312,23.462146,-2.137965,11.748807,11.555099,7.333784,-1.882102,0.718848,5.652961,0.578025,0.151770,-0.622155,-0.505743,77.407129,-34.452896,-110.272249
