// General information: 
//  MT Manager version: 2019.0.1 
//  XDA version: 2019.0.1 build 2740 rev 84096 built on 2019-01-30
// Device information: 
//  DeviceId: 00B4381A
//  ProductCode: MTW2-3A7G6
//  Firmware Version: 4.3.4
//  Hardware Version: 1.1.0
// Device settings: 
//  Filter Profile: human(46.1)
//  Option Flags: Orientation Smoother Disabled, AHS Disabled, ICC Disabled
// Coordinate system: ENU
PacketCounter,SampleTimeFine,Acc_X,Acc_Y,Acc_Z,FreeAcc_E,FreeAcc_N,FreeAcc_U,Gyr_X,Gyr_Y,Gyr_Z,Quat_q0,Quat_q1,Quat_q2,Quat_q3,Roll,Pitch,Yaw
64371,NaN,3.270658,3.158867,8.777323,-0.159577,-0.096873,0.070743,-0.048692,0.008358,-0.008883,0.080199,-0.147743,-0.173920,-0.970305,19.305262,-18.337136,-173.695076
64372,NaN,3.167218,3.106580,8.877757,-0.048689,-0.002577,0.111742,0.000132,0.032536,0.009873,0.080226,-0.147594,-0.173968,-0.970317,19.310538,-18.320907,-173.690031
64373,NaN,3.157294,3.156954,8.931005,-0.017005,-0.027463,0.172134,0.018956,0.012811,0.022016,0.080318,-0.147541,-0.174108,-0.970292,19.325897,-18.317588,-173.680983
64374,NaN,3.071641,3.128379,8.923007,0.055467,0.008670,0.129075,0.043489,0.002381,0.029011,0.080444,-0.147537,-0.174364,-0.970236,19.354481,-18.321296,-173.671058
64375,NaN,2.963587,3.081426,8.951660,0.155951,0.079436,0.105963,0.054570,-0.018081,0.029881,0.080570,-0.147622,-0.174687,-0.970155,19.391165,-18.335590,-173.664001
64376,NaN,3.048748,3.115745,8.922053,0.077824,0.034440,0.116991,0.055349,-0.036392,0.029188,0.080672,-0.147802,-0.175016,-0.970060,19.428958,-18.360296,-173.661756
64377,NaN,3.047034,3.149297,8.867468,0.076137,-0.009478,0.078146,0.054010,-0.044786,0.025807,0.080755,-0.148016,-0.175349,-0.969960,19.467616,-18.388528,-173.662454
64378,NaN,3.020159,3.192160,8.833105,0.106434,-0.052550,0.052448,0.038804,-0.060477,0.019966,0.080778,-0.148311,-0.175614,-0.969865,19.499127,-18.424483,-173.670342
64379,NaN,3.100467,3.214466,8.856172,0.047542,-0.068398,0.105504,0.014379,-0.069722,0.020353,0.080786,-0.148661,-0.175766,-0.969783,19.517281,-18.465739,-173.678899
64380,NaN,3.169075,3.174132,8.777402,-0.039548,-0.064274,0.044048,-0.008192,-0.065437,0.013168,0.080738,-0.148993,-0.175810,-0.969728,19.523429,-18.503066,-173.691687
64381,NaN,3.218336,3.202978,8.787870,-0.071797,-0.090987,0.078216,-0.016060,-0.050088,0.007575,0.080682,-0.149243,-0.175817,-0.969693,19.525323,-18.530577,-173.703074
64382,NaN,3.328072,3.191333,8.722366,-0.190799,-0.115053,0.050918,-0.021123,-0.034037,0.003058,0.080602,-0.149419,-0.175794,-0.969677,19.523891,-18.549010,-173.715285
64383,NaN,3.372562,3.179911,8.839188,-0.202406,-0.067202,0.165878,-0.033578,-0.010845,0.003809,0.080557,-0.149484,-0.175700,-0.969688,19.513464,-18.554875,-173.720014
64384,NaN,3.227342,3.046463,8.806355,-0.101756,0.057899,0.048086,-0.027909,0.009563,0.003628,0.080513,-0.149452,-0.175626,-0.969710,19.505241,-18.549874,-173.723096
64385,NaN,3.208208,3.114472,8.896107,-0.047245,0.028595,0.143728,-0.020638,0.015433,0.001899,0.080484,-0.149378,-0.175590,-0.969730,19.501496,-18.540601,-173.724462
64386,NaN,3.134965,3.121697,8.888495,0.020110,0.025515,0.115922,-0.028890,0.012640,0.003732,0.080443,-0.149331,-0.175509,-0.969755,19.492494,-18.533959,-173.726865
64387,NaN,3.201420,3.018238,8.847774,-0.074587,0.096903,0.067950,-0.058318,-0.012550,-0.001600,0.080348,-0.149406,-0.175303,-0.969789,19.469232,-18.539359,-173.735280
64388,NaN,3.095475,3.024935,8.913594,0.043913,0.123884,0.095242,-0.010920,0.013619,-0.000094,0.080303,-0.149345,-0.175311,-0.969801,19.471158,-18.531458,-173.739668
64389,NaN,3.021603,2.993803,9.010049,0.131785,0.195445,0.148154,-0.016416,-0.004388,0.007258,0.080289,-0.149371,-0.175298,-0.969800,19.469814,-18.534145,-173.741504
64390,NaN,2.963980,3.042598,8.999342,0.193988,0.153248,0.135660,0.003350,-0.008878,-0.001830,0.080226,-0.149411,-0.175387,-0.969783,19.481671,-18.538064,-173.751413
64391,NaN,2.937394,3.023346,9.002095,0.216705,0.177456,0.123518,0.012290,-0.022511,-0.005813,0.080148,-0.149507,-0.175530,-0.969749,19.500516,-18.548346,-173.765262
64392,NaN,2.942977,3.094410,8.913014,0.204756,0.082425,0.068081,0.021652,-0.032715,-0.009154,0.080042,-0.149649,-0.175722,-0.969701,19.525723,-18.563730,-173.784160
64393,NaN,2.943463,3.126266,8.894093,0.208224,0.050342,0.061345,0.019423,-0.033754,-0.006686,0.079943,-0.149797,-0.175909,-0.969653,19.550093,-18.579980,-173.802249
64394,NaN,3.016215,3.147943,8.884082,0.144118,0.022749,0.082398,0.006384,-0.037265,-0.009995,0.079818,-0.149967,-0.176029,-0.969615,19.567015,-18.597645,-173.822563
64395,NaN,3.110445,3.158798,8.819627,0.042822,-0.017555,0.058308,0.002455,-0.028050,-0.011705,0.079694,-0.150084,-0.176134,-0.969588,19.582090,-18.609335,-173.841481
64396,NaN,3.120646,3.159637,8.887370,0.052861,0.007698,0.122313,-0.002813,-0.024151,-0.014646,0.079551,-0.150190,-0.176209,-0.969570,19.593751,-18.619017,-173.861800
64397,NaN,3.201609,3.159681,8.842549,-0.034344,-0.015321,0.108156,-0.012343,-0.013267,-0.016343,0.079409,-0.150238,-0.176239,-0.969568,19.600050,-18.621899,-173.879995
64398,NaN,3.215817,3.198658,8.840804,-0.039790,-0.052903,0.123526,-0.023224,-0.010778,-0.021418,0.079230,-0.150280,-0.176214,-0.969581,19.600386,-18.623057,-173.901461
64399,NaN,3.214214,3.107142,8.824793,-0.061635,0.025692,0.079634,-0.033272,-0.004518,-0.027352,0.079039,-0.150284,-0.176143,-0.969609,19.595440,-18.619265,-173.922551
64400,NaN,3.229624,3.114516,8.841374,-0.070823,0.021777,0.101700,-0.051080,-0.002590,-0.031504,0.078797,-0.150289,-0.175987,-0.969656,19.581117,-18.614070,-173.948100
64401,NaN,3.087265,3.149717,8.964487,0.102537,0.045154,0.177377,-0.073396,-0.011461,-0.052350,0.078449,-0.150323,-0.175743,-0.969723,19.558058,-18.609500,-173.984868
64402,NaN,3.215859,2.945540,8.847299,-0.091383,0.174519,0.049049,-0.080486,-0.014929,-0.043445,0.078116,-0.150388,-0.175459,-0.969791,19.529852,-18.608698,-174.019719
64403,NaN,3.116227,3.079821,8.860562,0.032995,0.061505,0.071687,-0.056914,-0.005824,-0.056044,0.077753,-0.150382,-0.175301,-0.969850,19.517530,-18.599786,-174.059285
64404,NaN,3.171715,3.056477,8.855346,-0.025920,0.073033,0.077356,-0.068639,-0.016860,-0.051547,0.077388,-0.150445,-0.175080,-0.969909,19.497702,-18.598497,-174.099142
64405,NaN,3.176004,3.051842,8.891210,-0.021138,0.086409,0.109331,-0.076081,-0.022029,-0.054887,0.077016,-0.150524,-0.174831,-0.969972,19.474464,-18.598674,-174.139469
64406,NaN,3.164805,3.037307,8.911387,-0.007287,0.105181,0.119227,-0.061404,-0.026875,-0.048873,0.076661,-0.150635,-0.174647,-0.970016,19.458941,-18.603332,-174.179821
64407,NaN,3.217514,3.073938,8.871031,-0.058816,0.049347,0.111565,-0.054969,-0.034533,-0.041027,0.076361,-0.150781,-0.174493,-0.970044,19.445998,-18.613162,-174.214826
64408,NaN,3.250746,3.100607,8.780673,-0.106465,-0.013043,0.049860,-0.050734,-0.037105,-0.026395,0.076114,-0.150957,-0.174348,-0.970062,19.433167,-18.627651,-174.244422
64409,NaN,3.313225,3.137373,8.808365,-0.147599,-0.044764,0.106187,-0.048392,-0.038499,-0.012237,0.075926,-0.151156,-0.174211,-0.970071,19.420123,-18.645919,-174.267574
64410,NaN,3.336867,3.183673,8.753968,-0.172302,-0.111570,0.079748,-0.042651,-0.023622,0.002142,0.075834,-0.151289,-0.174079,-0.970081,19.405866,-18.658570,-174.278183
64411,NaN,3.353214,3.159973,8.752802,-0.190438,-0.093703,0.076498,-0.040967,-0.019718,0.013480,0.075815,-0.151406,-0.173948,-0.970088,19.390441,-18.670828,-174.280075
64412,NaN,3.382653,3.176329,8.750127,-0.213727,-0.114866,0.088689,-0.032004,-0.003797,0.027436,0.075872,-0.151461,-0.173840,-0.970094,19.376392,-18.677578,-174.272269
64413,NaN,3.357133,3.182372,8.771901,-0.182191,-0.112400,0.101861,-0.029099,0.014014,0.027725,0.075957,-0.151421,-0.173745,-0.970111,19.363229,-18.674050,-174.259562
64414,NaN,3.360066,3.238564,8.807896,-0.164721,-0.154323,0.152573,-0.031156,0.022045,0.026530,0.076033,-0.151349,-0.173633,-0.970136,19.348173,-18.666655,-174.247089
64415,NaN,3.277571,3.144296,8.837087,-0.099590,-0.051253,0.122635,-0.033296,0.031966,0.023896,0.076115,-0.151222,-0.173511,-0.970171,19.331824,-18.653073,-174.232564
64416,NaN,3.217216,3.130927,8.828733,-0.050017,-0.038202,0.091642,-0.018395,0.034871,0.012501,0.076144,-0.151072,-0.173466,-0.970201,19.325825,-18.636077,-174.225534
64417,NaN,3.226882,3.188600,8.933298,-0.022375,-0.056179,0.206300,-0.016519,0.027550,0.008647,0.076170,-0.150943,-0.173438,-0.970224,19.321870,-18.621671,-174.219449
64418,NaN,3.209842,3.157115,8.814856,-0.046893,-0.068995,0.085050,-0.019475,0.036767,0.009018,0.076182,-0.150780,-0.173390,-0.970256,19.315771,-18.602988,-174.214032
64419,NaN,3.206565,3.155445,8.816647,-0.047209,-0.067492,0.085058,-0.011711,0.044180,0.009420,0.076219,-0.150573,-0.173380,-0.970287,19.313840,-18.579963,-174.205667
64420,NaN,3.192590,3.173792,8.854634,-0.024505,-0.070396,0.120317,-0.012361,0.052566,0.008763,0.076249,-0.150331,-0.173361,-0.970326,19.310863,-18.552689,-174.197241
64421,NaN,3.169759,3.192444,8.824205,-0.012199,-0.097303,0.091658,-0.009638,0.055159,0.008394,0.076296,-0.150066,-0.173357,-0.970364,19.309490,-18.523282,-174.186699
64422,NaN,3.106691,3.240744,8.816056,0.049924,-0.139676,0.079470,-0.007244,0.055510,0.010966,0.076343,-0.149809,-0.173360,-0.970400,19.308868,-18.494832,-174.176433
64423,NaN,3.051307,3.199603,8.858504,0.100890,-0.081030,0.087024,0.003469,0.043906,0.019706,0.076451,-0.149606,-0.173413,-0.970413,19.313282,-18.473966,-174.160969
64424,NaN,3.025522,3.179645,8.896656,0.128850,-0.044947,0.106778,0.019435,0.019174,0.024896,0.076554,-0.149527,-0.173549,-0.970393,19.327736,-18.467805,-174.150020
64425,NaN,3.079293,3.191370,8.872436,0.073665,-0.066955,0.105835,0.027909,0.003443,0.033944,0.076696,-0.149530,-0.173728,-0.970349,19.346813,-18.472056,-174.136884
64426,NaN,3.032463,3.163064,8.824912,0.100311,-0.049647,0.039589,0.038874,-0.000962,0.040469,0.076872,-0.149556,-0.173954,-0.970291,19.370868,-18.479744,-174.121087
64427,NaN,3.096261,3.175694,8.868224,0.055292,-0.047677,0.102550,0.043811,-0.007112,0.046340,0.077094,-0.149606,-0.174204,-0.970220,19.396970,-18.491360,-174.100803
64428,NaN,3.084503,3.138236,8.868215,0.060321,-0.007243,0.087021,0.045632,-0.003333,0.047530,0.077307,-0.149646,-0.174458,-0.970152,19.423768,-18.501688,-174.081464
64429,NaN,3.037115,3.070879,8.924506,0.107644,0.085082,0.101058,0.052715,-0.006541,0.049495,0.077553,-0.149696,-0.174747,-0.970072,19.454133,-18.513936,-174.059108
64430,NaN,3.066728,3.094568,8.919352,0.084332,0.063954,0.113279,0.059405,-0.000312,0.044251,0.077763,-0.149713,-0.175069,-0.969995,19.489218,-18.522025,-174.041037
64431,NaN,3.117227,3.108759,8.859623,0.023844,0.029905,0.080388,0.055227,0.011507,0.036078,0.077949,-0.149659,-0.175378,-0.969932,19.523079,-18.521457,-174.024182
64432,NaN,3.122534,3.142106,8.910096,0.037562,0.021780,0.137738,0.044959,0.026539,0.027969,0.078093,-0.149538,-0.175631,-0.969894,19.551112,-18.511947,-174.009967
64433,NaN,3.092549,3.124776,8.913201,0.060374,0.045821,0.125496,0.032368,0.036258,0.016569,0.078193,-0.149361,-0.175831,-0.969877,19.573368,-18.494898,-173.998701
64434,NaN,3.021507,3.076621,8.939135,0.120400,0.109749,0.110855,0.017214,0.043244,-0.004604,0.078173,-0.149140,-0.175968,-0.969887,19.590316,-18.470125,-173.999638
64435,NaN,3.023721,3.108334,8.991208,0.134026,0.101680,0.168202,0.017682,0.035557,-0.008972,0.078135,-0.148947,-0.176118,-0.969893,19.609069,-18.448190,-174.003349
64436,NaN,3.042397,3.099700,8.937145,0.096746,0.090132,0.123076,0.002326,0.029831,-0.013445,0.078049,-0.148789,-0.176194,-0.969910,19.619932,-18.428955,-174.012020
64437,NaN,3.059367,3.120194,8.866048,0.063065,0.044916,0.071449,0.000661,0.025363,-0.009596,0.077985,-0.148653,-0.176266,-0.969923,19.629764,-18.412471,-174.018421
64438,NaN,3.135041,3.150560,8.805406,-0.020392,-0.011768,0.050838,-0.006134,0.014882,-0.010108,0.077896,-0.148574,-0.176305,-0.969935,19.636131,-18.401943,-174.028219
64439,NaN,3.201445,3.140136,8.780904,-0.093516,-0.017366,0.046569,-0.017593,0.017197,-0.003565,0.077841,-0.148488,-0.176287,-0.969956,19.634962,-18.390855,-174.032690
64440,NaN,3.255208,3.178647,8.775654,-0.139947,-0.061009,0.071086,-0.023340,0.025727,-0.004301,0.077776,-0.148368,-0.176234,-0.969989,19.629732,-18.375592,-174.036984
64441,NaN,3.238613,3.136591,8.779097,-0.134966,-0.020543,0.055479,-0.027187,0.036147,-0.002403,0.077734,-0.148196,-0.176161,-0.970032,19.621709,-18.354658,-174.037328
64442,NaN,3.223715,3.124669,8.799636,-0.121099,-0.001753,0.065310,-0.016322,0.030555,0.000543,0.077702,-0.148055,-0.176137,-0.970061,19.619322,-18.337722,-174.037892
64443,NaN,3.211366,3.143111,8.836893,-0.098442,-0.004564,0.100586,-0.012230,0.023707,0.009435,0.077722,-0.147951,-0.176131,-0.970076,19.618187,-18.326127,-174.033454
64444,NaN,3.228899,3.122288,8.870098,-0.111332,0.025409,0.129147,0.002035,0.000634,0.022859,0.077786,-0.147967,-0.176190,-0.970058,19.624235,-18.329633,-174.027395
64445,NaN,3.337619,3.202485,8.822437,-0.209247,-0.075446,0.146305,0.014948,-0.006849,0.031332,0.077919,-0.148011,-0.176311,-0.970019,19.636367,-18.338016,-174.014988
64446,NaN,3.315596,3.192689,8.737508,-0.210792,-0.092998,0.060377,0.018057,-0.010620,0.040336,0.078069,-0.148091,-0.176440,-0.969971,19.649186,-18.350963,-174.001277
64447,NaN,3.313732,3.192994,8.702287,-0.216297,-0.103556,0.028467,0.021855,-0.006841,0.045604,0.078255,-0.148150,-0.176588,-0.969920,19.663662,-18.362289,-173.983462
64448,NaN,3.347443,3.272905,8.732522,-0.222080,-0.167800,0.091692,0.015919,-0.004309,0.050694,0.078460,-0.148209,-0.176696,-0.969875,19.672992,-18.373834,-173.962585
64449,NaN,3.365021,3.282423,8.747606,-0.231430,-0.171534,0.113807,0.012079,0.006119,0.052587,0.078697,-0.148213,-0.176783,-0.969839,19.679127,-18.379497,-173.936448
64450,NaN,3.353700,3.330835,8.766577,-0.205137,-0.208034,0.142677,-0.001411,0.016496,0.057898,0.078942,-0.148184,-0.176794,-0.969821,19.675898,-18.381210,-173.907246
64451,NaN,3.329784,3.318690,8.683255,-0.206700,-0.225624,0.056783,-0.002523,0.026432,0.057270,0.079201,-0.148106,-0.176798,-0.969811,19.671701,-18.377372,-173.875414
64452,NaN,3.302882,3.326444,8.704814,-0.175075,-0.223219,0.070003,-0.004619,0.036368,0.054602,0.079445,-0.147979,-0.176788,-0.969813,19.665956,-18.367724,-173.844049
64453,NaN,3.303287,3.354026,8.723431,-0.166483,-0.243219,0.095520,-0.007487,0.040647,0.054224,0.079686,-0.147838,-0.176767,-0.969818,19.658944,-18.356244,-173.812683
64454,NaN,3.233238,3.301157,8.750566,-0.106396,-0.179403,0.080763,-0.017680,0.050202,0.060544,0.079961,-0.147655,-0.176683,-0.969839,19.643783,-18.340267,-173.775138
64455,NaN,3.166313,3.247728,8.812421,-0.041139,-0.103436,0.097895,-0.019202,0.059800,0.061408,0.080260,-0.147427,-0.176590,-0.969866,19.627004,-18.319409,-173.733895
64456,NaN,3.133023,3.254232,8.800945,-0.014645,-0.113205,0.079201,-0.014503,0.062392,0.065112,0.080571,-0.147187,-0.176513,-0.969890,19.612103,-18.297712,-173.691301
64457,NaN,3.033097,3.241248,8.831714,0.080880,-0.082224,0.071200,-0.009010,0.073724,0.068674,0.080931,-0.146885,-0.176460,-0.969916,19.599057,-18.269917,-173.642249
64458,NaN,3.028825,3.238539,8.834173,0.080617,-0.080774,0.071214,-0.006787,0.071697,0.064054,0.081251,-0.146596,-0.176418,-0.969941,19.588219,-18.242976,-173.598397
64459,NaN,2.915980,3.216217,8.883532,0.190403,-0.032437,0.073001,-0.009715,0.077880,0.062219,0.081572,-0.146277,-0.176363,-0.969972,19.575886,-18.212453,-173.553531
64460,NaN,2.791082,3.244877,8.951116,0.326704,-0.022111,0.103694,0.012513,0.068684,0.055096,0.081860,-0.145987,-0.176422,-0.969980,19.577935,-18.185406,-173.515402
64461,NaN,2.684840,3.195660,9.050246,0.437908,0.072162,0.143747,0.027624,0.047975,0.053988,0.082141,-0.145786,-0.176569,-0.969960,19.590670,-18.168919,-173.481482
64462,NaN,2.704063,3.217151,8.978338,0.404251,0.026730,0.092283,0.039544,0.018171,0.050451,0.082381,-0.145726,-0.176784,-0.969910,19.612234,-18.168259,-173.456205
64463,NaN,2.797773,3.288793,8.914914,0.315271,-0.068712,0.087578,0.042105,-0.004448,0.048068,0.082594,-0.145769,-0.177027,-0.969841,19.637710,-18.179105,-173.436709
64464,NaN,2.795998,3.290968,8.879160,0.309868,-0.079481,0.055708,0.035021,-0.007359,0.041762,0.082766,-0.145827,-0.177236,-0.969779,19.659830,-18.190567,-173.421540
64465,NaN,2.756178,3.293075,8.882404,0.350426,-0.071984,0.046825,0.029734,-0.015756,0.030212,0.082887,-0.145911,-0.177434,-0.969720,19.681505,-18.203949,-173.412770
64466,NaN,2.802936,3.323765,8.893678,0.318017,-0.098156,0.081280,0.007698,-0.027080,0.015755,0.082896,-0.146053,-0.177538,-0.969679,19.693833,-18.221039,-173.416385
64467,NaN,2.934110,3.353055,8.895833,0.203735,-0.136326,0.133554,0.002423,-0.032396,0.006355,0.082852,-0.146210,-0.177632,-0.969642,19.705802,-18.238761,-173.426230
64468,NaN,2.902944,3.362757,8.846782,0.225079,-0.158384,0.083020,-0.011957,-0.024517,-0.007727,0.082735,-0.146327,-0.177656,-0.969630,19.710885,-18.249931,-173.442667
64469,NaN,2.926508,3.351894,8.792036,0.187733,-0.170110,0.037965,-0.013314,-0.016290,-0.020579,0.082578,-0.146387,-0.177683,-0.969629,19.716890,-18.253860,-173.462754
64470,NaN,2.994882,3.340587,8.767348,0.114675,-0.175653,0.033694,-0.023778,-0.008409,-0.026502,0.082376,-0.146414,-0.177657,-0.969647,19.717516,-18.252709,-173.486577
64471,NaN,3.054278,3.378586,8.796223,0.073249,-0.206894,0.090283,-0.030445,0.003245,-0.027158,0.082190,-0.146384,-0.177596,-0.969678,19.713605,-18.245167,-173.506724
64472,NaN,3.078524,3.366487,8.777346,0.041082,-0.206375,0.077109,-0.034868,0.015930,-0.030267,0.081983,-0.146294,-0.177510,-0.969725,19.706990,-18.230164,-173.527732
64473,NaN,3.077847,3.394479,8.796187,0.049480,-0.226420,0.102695,-0.029867,0.022623,-0.030937,0.081795,-0.146163,-0.177449,-0.969772,19.703054,-18.211044,-173.546169
64474,NaN,3.083236,3.402942,8.744767,0.029926,-0.254553,0.061097,-0.024199,0.022115,-0.027329,0.081615,-0.146041,-0.177409,-0.969813,19.701624,-18.193275,-173.564248
64475,NaN,3.042305,3.402191,8.785033,0.075565,-0.234808,0.084104,-0.014337,0.019552,-0.024241,0.081470,-0.145922,-0.177420,-0.969841,19.705643,-18.176815,-173.579305
64476,NaN,3.028753,3.451843,8.804419,0.101759,-0.271271,0.113158,-0.004116,0.002583,-0.014638,0.081349,-0.145898,-0.177477,-0.969844,19.714702,-18.172030,-173.594147
64477,NaN,2.960734,3.462399,8.829163,0.174231,-0.262772,0.117512,-0.001756,-0.020543,-0.025652,0.081158,-0.145973,-0.177567,-0.969833,19.729122,-18.177464,-173.619861
64478,NaN,2.954439,3.344136,8.759386,0.139043,-0.175346,0.015269,0.022225,-0.028942,0.000202,0.081100,-0.146105,-0.177753,-0.969783,19.752651,-18.192545,-173.632699
64479,NaN,3.042134,3.465330,8.748259,0.081684,-0.296406,0.071674,0.023504,-0.041457,0.007308,0.081074,-0.146305,-0.177948,-0.969720,19.776554,-18.216199,-173.643323
64480,NaN,3.049787,3.407182,8.780503,0.074221,-0.227439,0.084286,0.021817,-0.042832,0.013296,0.081067,-0.146515,-0.178128,-0.969655,19.798426,-18.241298,-173.651581
64481,NaN,3.026353,3.388627,8.781536,0.097019,-0.203529,0.071955,0.016381,-0.052945,0.013309,0.081058,-0.146770,-0.178290,-0.969588,19.818145,-18.271334,-173.660658
64482,NaN,3.021368,3.350081,8.815117,0.107305,-0.150972,0.088003,0.020059,-0.059614,0.008537,0.081012,-0.147059,-0.178472,-0.969515,19.840950,-18.304548,-173.675075
64483,NaN,3.154072,3.420588,8.676570,-0.032966,-0.276879,0.028741,0.016022,-0.069378,0.009092,0.080962,-0.147393,-0.178643,-0.969437,19.862447,-18.342886,-173.690645
64484,NaN,3.209676,3.431007,8.616479,-0.093432,-0.311055,-0.003913,0.003483,-0.051564,0.000511,0.080872,-0.147642,-0.178747,-0.969387,19.876695,-18.370189,-173.707997
64485,NaN,3.330775,3.360246,8.654077,-0.209575,-0.242574,0.045081,-0.015392,-0.028455,0.000665,0.080792,-0.147779,-0.178758,-0.969371,19.879379,-18.384307,-173.720139
64486,NaN,3.332227,3.417989,8.654391,-0.197566,-0.296342,0.064458,-0.029102,0.003733,0.007335,0.080761,-0.147779,-0.178677,-0.969388,19.870166,-18.383142,-173.722272
64487,NaN,3.411238,3.404570,8.733668,-0.255290,-0.264765,0.155729,-0.034255,0.023082,0.015127,0.080781,-0.147692,-0.178563,-0.969421,19.856043,-18.372866,-173.716057
64488,NaN,3.355185,3.331061,8.759394,-0.212791,-0.184723,0.137227,-0.039092,0.033007,0.030131,0.080878,-0.147574,-0.178405,-0.969460,19.835137,-18.360359,-173.699245
64489,NaN,3.220885,3.287725,8.846163,-0.074710,-0.101798,0.158365,-0.028791,0.033873,0.033851,0.081005,-0.147447,-0.178300,-0.969488,19.820098,-18.347727,-173.679932
64490,NaN,3.181131,3.105687,8.886384,-0.065751,0.083639,0.123177,-0.001968,0.015022,0.055732,0.081238,-0.147425,-0.178310,-0.969470,19.817052,-18.349880,-173.652270
64491,NaN,3.004111,3.117019,9.062343,0.149937,0.159180,0.228166,0.054232,-0.006555,0.063766,0.081547,-0.147484,-0.178599,-0.969382,19.846289,-18.364749,-173.622613
64492,NaN,3.032358,3.080166,9.022302,0.109105,0.181166,0.189303,0.064425,-0.040130,0.082776,0.081911,-0.147726,-0.178934,-0.969253,19.879990,-18.401907,-173.590905
64493,NaN,2.951705,3.075187,9.115242,0.215037,0.236525,0.244886,0.088688,-0.069748,0.092023,0.082331,-0.148104,-0.179393,-0.969074,19.927672,-18.456590,-173.557685
64494,NaN,2.783765,2.973393,9.286685,0.406311,0.422496,0.311014,0.103578,-0.114421,0.092430,0.082704,-0.148698,-0.179940,-0.968850,19.986882,-18.535694,-173.535858
64495,NaN,2.504760,2.864732,9.313886,0.667898,0.576158,0.209833,0.126451,-0.173454,0.091848,0.083032,-0.149567,-0.180630,-0.968560,20.064101,-18.646327,-173.527376
64496,NaN,2.685705,2.962250,8.850823,0.417359,0.310772,-0.114534,0.169108,-0.219783,0.091453,0.083354,-0.150643,-0.181538,-0.968195,20.168055,-18.781981,-173.528228
64497,NaN,2.897090,3.252284,8.850255,0.301980,0.041188,0.046549,0.170661,-0.232044,0.063064,0.083538,-0.151745,-0.182485,-0.967830,20.279393,-18.918043,-173.546913
64498,NaN,3.221314,3.327957,8.749481,0.008271,-0.083832,0.086729,0.096551,-0.221060,0.057624,0.083640,-0.152826,-0.183068,-0.967541,20.348281,-19.047650,-173.567753
64499,NaN,3.058305,3.185378,8.677635,0.128275,0.048646,-0.077064,0.059410,-0.139453,0.036099,0.083672,-0.153513,-0.183460,-0.967355,20.395359,-19.129443,-173.585340
64500,NaN,3.200720,3.306870,8.689927,0.034849,-0.065747,0.020384,0.040615,-0.084889,0.028907,0.083716,-0.153932,-0.183737,-0.967232,20.428245,-19.180157,-173.593955
64501,NaN,3.297181,3.359310,8.831474,-0.000409,-0.064444,0.194667,0.038094,-0.037489,0.034712,0.083835,-0.154125,-0.183982,-0.967144,20.455819,-19.206308,-173.588792
64502,NaN,3.312446,3.302455,8.932877,0.002475,0.029350,0.270662,0.041523,0.001911,0.049853,0.084061,-0.154144,-0.184211,-0.967078,20.479274,-19.214618,-173.567139
64503,NaN,3.140276,3.248053,8.919047,0.148416,0.097367,0.183765,0.071489,0.022454,0.062931,0.084403,-0.154056,-0.184571,-0.966994,20.516355,-19.214031,-173.532490
64504,NaN,3.131656,3.274115,8.952549,0.170978,0.094786,0.219112,0.104106,0.012937,0.079440,0.084830,-0.154021,-0.185075,-0.966865,20.569362,-19.222400,-173.491689
64505,NaN,3.032130,3.243003,8.927293,0.252906,0.134445,0.153525,0.126938,-0.019216,0.104643,0.085381,-0.154154,-0.185685,-0.966679,20.632909,-19.253146,-173.441803
64506,NaN,3.050976,3.261056,8.902812,0.238460,0.118543,0.143822,0.144166,-0.049611,0.129865,0.086025,-0.154452,-0.186370,-0.966442,20.703798,-19.305328,-173.385769
64507,NaN,3.137951,3.327665,8.815572,0.158260,0.028276,0.117495,0.164713,-0.087647,0.156839,0.086788,-0.154947,-0.187153,-0.966143,20.784325,-19.383312,-173.321780
64508,NaN,3.176458,3.356610,8.768369,0.129629,-0.004987,0.098122,0.181489,-0.119767,0.169844,0.087588,-0.155604,-0.188017,-0.965798,20.873983,-19.481356,-173.258303
64509,NaN,3.272256,3.327067,8.817847,0.063163,0.048264,0.163539,0.195527,-0.151293,0.185358,0.088458,-0.156414,-0.188954,-0.965405,20.971102,-19.598985,-173.191385
64510,NaN,3.430131,3.322602,8.666127,-0.107149,-0.006067,0.081537,0.210270,-0.163518,0.196952,0.089370,-0.157295,-0.189954,-0.964981,21.075130,-19.726202,-173.122324
64511,NaN,3.658070,3.180160,8.646102,-0.340038,0.110260,0.092974,0.237705,-0.142563,0.202051,0.090349,-0.158062,-0.191079,-0.964542,21.192974,-19.842953,-173.045883
64512,NaN,3.719318,3.223459,8.644644,-0.372605,0.084492,0.127527,0.271494,-0.078985,0.216489,0.091484,-0.158526,-0.192320,-0.964113,21.321857,-19.929354,-172.947512
64513,NaN,3.635648,3.293133,8.662955,-0.264852,0.059961,0.138979,0.296022,0.007344,0.228960,0.092791,-0.158564,-0.193634,-0.963718,21.456132,-19.971786,-172.821685
64514,NaN,3.473599,3.329928,8.467195,-0.155452,-0.011907,-0.074958,0.312420,0.072257,0.259284,0.094310,-0.158320,-0.194967,-0.963342,21.588588,-19.986997,-172.665585
64515,NaN,3.346492,3.433786,8.544552,0.006945,-0.039432,-0.014849,0.306533,0.129383,0.287733,0.096010,-0.157823,-0.196231,-0.962999,21.708980,-19.977274,-172.481314
64516,NaN,3.044030,3.424777,8.649607,0.308870,0.066655,-0.029485,0.290241,0.177687,0.309778,0.097857,-0.157129,-0.197366,-0.962695,21.810907,-19.947714,-172.272886
64517,NaN,2.884003,3.386193,8.894005,0.504900,0.238696,0.115816,0.286505,0.193678,0.352065,0.099933,-0.156394,-0.198444,-0.962380,21.901541,-19.918428,-172.035166
64518,NaN,2.782158,3.299292,9.184792,0.644028,0.467559,0.304264,0.308923,0.223470,0.384517,0.102198,-0.155542,-0.199585,-0.962044,21.996453,-19.881190,-171.774051
64519,NaN,2.598712,3.291436,9.273335,0.822978,0.556065,0.316234,0.350038,0.249529,0.409259,0.104655,-0.154555,-0.200893,-0.961666,22.108526,-19.834789,-171.490888
64520,NaN,2.480379,3.306936,9.194448,0.903315,0.549214,0.212696,0.392069,0.256612,0.442083,0.107293,-0.153556,-0.202369,-0.961226,22.237854,-19.793376,-171.189677
64521,NaN,2.362562,3.436947,9.161141,1.027051,0.461958,0.189938,0.402012,0.244010,0.481950,0.110114,-0.152643,-0.203874,-0.960734,22.367384,-19.767045,-170.868969
64522,NaN,2.339192,3.481595,8.962634,1.004604,0.367248,0.024893,0.390230,0.196116,0.530775,0.113113,-0.152022,-0.205301,-0.960180,22.483693,-19.778306,-170.531780
64523,NaN,2.347350,3.590139,8.931124,1.019789,0.279714,0.038499,0.345364,0.140869,0.564408,0.116188,-0.151719,-0.206521,-0.959599,22.572419,-19.826313,-170.187622
64524,NaN,2.403705,3.548632,8.867695,0.947048,0.300565,-0.013743,0.308358,0.096637,0.595255,0.119328,-0.151686,-0.207558,-0.958995,22.636841,-19.905384,-169.837305
64525,NaN,2.479712,3.539466,8.922850,0.898205,0.337563,0.055104,0.277926,0.070616,0.596814,0.122429,-0.151792,-0.208467,-0.958390,22.685558,-19.998536,-169.491640
64526,NaN,2.621746,3.564600,8.881935,0.778512,0.287653,0.075681,0.240849,0.045062,0.592921,0.125451,-0.152041,-0.209210,-0.957798,22.714752,-20.104902,-169.154504
64527,NaN,2.612429,3.468932,8.849520,0.766356,0.370454,0.008093,0.195129,0.022076,0.573109,0.128325,-0.152402,-0.209764,-0.957238,22.723062,-20.218757,-168.832836
64528,NaN,2.466153,3.459816,8.916429,0.931294,0.441401,0.010386,0.125161,0.013483,0.544862,0.130993,-0.152823,-0.210006,-0.956757,22.696541,-20.331236,-168.529760
64529,NaN,2.298303,3.182643,9.056992,1.049195,0.779302,-0.028396,0.035730,-0.011847,0.498646,0.133349,-0.153362,-0.209877,-0.956373,22.630071,-20.445506,-168.257842
64530,NaN,2.215792,2.976543,9.254302,1.125506,1.058863,0.037371,-0.023010,-0.048531,0.483533,0.135544,-0.154111,-0.209495,-0.956028,22.534470,-20.576665,-168.003244
64531,NaN,2.228380,2.735157,9.443254,1.102016,1.343333,0.117205,-0.063488,-0.053944,0.489017,0.137736,-0.154904,-0.208924,-0.955711,22.414864,-20.710120,-167.745069
64532,NaN,2.136796,2.547813,9.676045,1.201159,1.618982,0.218223,-0.048422,-0.050739,0.500715,0.139990,-0.155697,-0.208407,-0.955368,22.299969,-20.845256,-167.480253
64533,NaN,2.060636,2.456771,9.709274,1.266975,1.720999,0.186555,-0.022241,-0.016397,0.510549,0.142345,-0.156312,-0.207987,-0.955011,22.195174,-20.963347,-167.201486
64534,NaN,2.025070,2.390525,9.840331,1.324979,1.838207,0.262681,-0.002486,-0.020030,0.518238,0.144748,-0.156942,-0.207651,-0.954619,22.099065,-21.085062,-166.918636
64535,NaN,2.003179,2.445268,9.683466,1.342875,1.722905,0.136676,0.032238,-0.034345,0.538345,0.147255,-0.157629,-0.207480,-0.954160,22.020017,-21.217687,-166.627685
64536,NaN,2.015314,2.353756,9.617379,1.302536,1.770792,0.049528,0.052705,-0.057460,0.542949,0.149779,-0.158421,-0.207413,-0.953650,21.951997,-21.363845,-166.338486
64537,NaN,2.077415,2.505588,9.634989,1.325718,1.635817,0.136843,0.066737,-0.114253,0.555846,0.152312,-0.159482,-0.207448,-0.953064,21.893802,-21.542232,-166.054882
64538,NaN,2.170955,2.345086,9.439356,1.161916,1.672282,-0.057316,0.084827,-0.132005,0.548516,0.154808,-0.160608,-0.207582,-0.952444,21.847336,-21.728672,-165.778614
64539,NaN,2.423683,2.560177,9.444872,1.041770,1.437835,0.111103,0.085316,-0.201872,0.521211,0.157099,-0.162026,-0.207800,-0.951781,21.812805,-21.945042,-165.533693
64540,NaN,2.485413,2.707062,9.233414,1.020141,1.210228,-0.001674,0.074140,-0.204743,0.447582,0.159029,-0.163400,-0.208019,-0.951178,21.785995,-22.148382,-165.331008
64541,NaN,2.601858,2.556315,9.084001,0.852277,1.254394,-0.141931,0.075863,-0.197247,0.382511,0.160656,-0.164665,-0.208294,-0.950625,21.773329,-22.333465,-165.163787
64542,NaN,2.421376,2.698910,9.287676,1.143648,1.276662,0.009239,0.105176,-0.211386,0.313478,0.161965,-0.165904,-0.208774,-0.950083,21.792864,-22.511773,-165.039208
64543,NaN,2.491834,2.749397,9.078669,1.074489,1.137200,-0.130600,0.120299,-0.243789,0.289470,0.163118,-0.167258,-0.209380,-0.949514,21.830545,-22.701738,-164.938474
64544,NaN,2.604597,2.982833,8.920742,1.051743,0.857297,-0.147305,0.171812,-0.286670,0.271708,0.164204,-0.168755,-0.210270,-0.948865,21.903559,-22.911331,-164.855354
64545,NaN,3.170735,3.424244,9.241752,0.830848,0.512047,0.494413,0.174261,-0.335513,0.276865,0.165259,-0.170478,-0.211212,-0.948165,21.981988,-23.146971,-164.781400
64546,NaN,3.430897,3.156337,8.860204,0.438961,0.529387,0.175486,0.196643,-0.367174,0.355454,0.166676,-0.172423,-0.212213,-0.947341,22.057019,-23.417518,-164.668993
64547,NaN,4.024410,3.604672,8.394944,0.012555,-0.180854,0.168869,0.286001,-0.451895,0.328556,0.167945,-0.174654,-0.213736,-0.946365,22.198274,-23.726073,-164.593296
64548,NaN,4.482125,3.529861,8.607391,-0.319276,-0.096602,0.508408,0.254757,-0.410886,0.357117,0.169370,-0.176757,-0.215042,-0.945424,22.309632,-24.020580,-164.491002
64549,NaN,3.578136,2.848011,8.007891,0.090376,0.458596,-0.602809,0.374812,-0.385343,0.368730,0.170963,-0.178650,-0.216890,-0.944359,22.485840,-24.304088,-164.379151
64550,NaN,4.286638,3.511552,8.314596,-0.145243,-0.088054,0.177784,0.498789,-0.459845,0.372770,0.172622,-0.180789,-0.219372,-0.943076,22.737834,-24.628517,-164.281158
64551,NaN,4.717779,3.570069,7.751906,-0.603402,-0.456128,-0.090430,0.551520,-0.508382,0.351096,0.174158,-0.183080,-0.222170,-0.941696,23.031820,-24.973330,-164.210885
64552,NaN,4.883084,3.833637,7.543642,-0.649739,-0.758102,-0.094127,0.604433,-0.540398,0.301064,0.175481,-0.185422,-0.225277,-0.940253,23.370888,-25.324893,-164.177847
64553,NaN,5.062215,4.104137,7.218403,-0.734955,-1.119756,-0.180415,0.633826,-0.611019,0.241517,0.176447,-0.187995,-0.228647,-0.938747,23.752317,-25.699207,-164.202570
64554,NaN,5.185552,4.221256,7.191713,-0.750941,-1.187746,-0.093925,0.617760,-0.687704,0.179466,0.177036,-0.190871,-0.232051,-0.937219,24.148327,-26.099982,-164.283305
64555,NaN,5.572201,3.942518,6.991006,-1.207028,-1.076977,-0.176839,0.543713,-0.732173,0.108798,0.177145,-0.193929,-0.235223,-0.935778,24.529669,-26.505635,-164.423242
64556,NaN,5.707210,3.804125,7.196478,-1.275726,-0.815990,0.012735,0.584120,-0.687446,0.087913,0.177267,-0.196719,-0.238547,-0.934330,24.934330,-26.883302,-164.563904
64557,NaN,5.669189,3.644286,7.070768,-1.304462,-0.664554,-0.154921,0.581208,-0.633919,0.030519,0.177153,-0.199188,-0.241874,-0.932973,25.350720,-27.217581,-164.730353
64558,NaN,5.554759,3.624588,7.198710,-1.144851,-0.479651,-0.103253,0.630733,-0.544655,-0.010373,0.177028,-0.201145,-0.245376,-0.931661,25.794789,-27.495256,-164.895502
64559,NaN,5.591439,3.862499,7.301090,-1.020317,-0.551860,0.094023,0.631175,-0.477435,-0.045218,0.176783,-0.202738,-0.248873,-0.930434,26.245364,-27.727115,-165.069788
64560,NaN,5.431211,3.910104,7.259385,-0.856504,-0.501635,0.010751,0.622225,-0.423595,-0.083292,0.176453,-0.204043,-0.252294,-0.929289,26.691788,-27.921749,-165.247865
64561,NaN,5.402678,3.992394,7.274909,-0.779450,-0.480283,0.047019,0.592917,-0.391652,-0.131031,0.175866,-0.205170,-0.255615,-0.928244,27.135219,-28.086473,-165.452392
64562,NaN,5.401535,4.196103,7.303168,-0.673267,-0.557042,0.155067,0.595429,-0.368660,-0.152676,0.175252,-0.206150,-0.258927,-0.927225,27.580237,-28.232415,-165.658070
64563,NaN,5.236410,4.344296,7.036340,-0.539587,-0.714620,-0.065857,0.606604,-0.372750,-0.179424,0.174488,-0.207102,-0.262335,-0.926198,28.043684,-28.371245,-165.886069
64564,NaN,5.123162,4.602962,6.897341,-0.364938,-0.898376,-0.113895,0.677249,-0.427266,-0.195290,0.173679,-0.208220,-0.266113,-0.925021,28.558338,-28.532171,-166.137576
64565,NaN,5.175314,4.986271,6.689017,-0.295657,-1.247482,-0.078961,0.714390,-0.515676,-0.227563,0.172614,-0.209648,-0.270188,-0.923715,29.121491,-28.723777,-166.440558
64566,NaN,5.397862,5.180174,6.494255,-0.443743,-1.463895,-0.024648,0.767142,-0.644200,-0.248855,0.171352,-0.211611,-0.274614,-0.922197,29.739733,-28.973487,-166.796836
64567,NaN,5.692103,5.448915,6.108054,-0.670779,-1.851715,-0.039300,0.808394,-0.806534,-0.290105,0.169673,-0.214217,-0.279429,-0.920457,30.427191,-29.286620,-167.239996
64568,NaN,6.011290,5.653742,5.766759,-0.930936,-2.160688,-0.023944,0.746010,-0.885814,-0.389291,0.167396,-0.217101,-0.284095,-0.918769,31.119871,-29.606722,-167.765703
64569,NaN,6.240606,5.755731,5.991534,-0.990137,-2.031610,0.329454,0.680849,-0.921517,-0.458955,0.164652,-0.220087,-0.288571,-0.917158,31.808912,-29.916447,-168.351636
64570,NaN,6.320522,5.712879,5.904111,-1.079006,-1.947727,0.310822,0.580581,-0.978784,-0.503173,0.161524,-0.223355,-0.292657,-0.915628,32.466230,-30.235958,-168.985907
64571,NaN,6.189497,5.622486,5.801598,-1.017240,-1.806552,0.151316,0.484077,-0.949999,-0.579920,0.157956,-0.226436,-0.296368,-0.914299,33.093220,-30.509811,-169.661104
64572,NaN,6.132311,5.601566,5.777771,-0.968930,-1.688379,0.115806,0.497636,-0.925275,-0.623174,0.154253,-0.229332,-0.300143,-0.912977,33.738286,-30.753544,-170.354186
64573,NaN,6.412658,5.662307,5.351553,-1.309509,-1.930621,0.004640,0.490656,-0.895917,-0.659790,0.150402,-0.232019,-0.303909,-0.911694,34.391102,-30.962517,-171.062686
64574,NaN,6.460033,5.700238,5.342485,-1.335340,-1.870757,0.060675,0.320304,-0.769500,-0.725578,0.146252,-0.234167,-0.306854,-0.910833,34.941713,-31.086392,-171.761724
64575,NaN,6.397168,5.451760,5.567229,-1.318025,-1.447356,0.077055,0.113262,-0.629066,-0.781935,0.141794,-0.235727,-0.308828,-0.910468,35.366240,-31.119490,-172.442114
64576,NaN,6.053560,5.082820,6.214295,-0.970463,-0.652865,0.173793,0.000613,-0.497037,-0.800026,0.137341,-0.236739,-0.310192,-0.910424,35.702067,-31.082448,-173.078404
64577,NaN,5.255368,4.057523,6.574936,-0.590658,0.505068,-0.500980,0.117046,-0.470338,-0.868276,0.132738,-0.237442,-0.312154,-0.910254,36.119701,-31.006439,-173.743108
64578,NaN,4.628824,3.939120,6.667168,-0.088509,0.788212,-0.825807,0.557963,-0.465430,-0.917896,0.128452,-0.237741,-0.316156,-0.909409,36.798718,-30.905907,-174.428441
64579,NaN,4.055613,4.811412,6.653418,0.710483,0.266026,-0.686419,1.052224,-0.506942,-0.827807,0.125079,-0.238036,-0.322325,-0.907635,37.745041,-30.845944,-175.082113
64580,NaN,4.858667,6.068149,6.415935,0.392887,-0.764301,0.229864,1.229131,-0.418964,-0.801310,0.122184,-0.237858,-0.329178,-0.905614,38.763249,-30.747506,-175.682046
64581,NaN,5.556936,7.225561,6.263338,0.134792,-1.626251,1.125888,1.175265,-0.277677,-0.939567,0.118818,-0.236825,-0.335856,-0.903879,39.754966,-30.526235,-176.291464
64582,NaN,5.203196,8.030191,5.905188,0.543077,-2.296458,1.180837,0.900742,-0.179543,-1.181833,0.114196,-0.235097,-0.341492,-0.902813,40.623114,-30.164964,-176.974840
64583,NaN,3.876680,7.999656,5.678209,1.512163,-2.238168,0.383751,0.760932,-0.324171,-1.306564,0.108582,-0.233842,-0.346722,-0.901838,41.467342,-29.806432,-177.774858
64584,NaN,3.418542,7.693783,5.724624,1.736333,-1.857835,0.045522,0.596499,-0.451400,-1.349993,0.102363,-0.233194,-0.351293,-0.900964,42.245398,-29.479875,-178.643190
64585,NaN,3.075814,7.424674,5.904309,1.930166,-1.436570,-0.135038,0.488148,-0.538875,-1.408808,0.095583,-0.232862,-0.355481,-0.900151,42.988098,-29.155236,-179.572095
64586,NaN,2.967452,7.574098,5.734784,1.952362,-1.566024,-0.179661,0.595619,-0.692549,-1.344033,0.088950,-0.233285,-0.360114,-0.898879,43.801375,-28.911281,179.469360
64587,NaN,3.143095,8.242807,5.150290,1.743872,-2.366934,-0.029845,0.210587,-0.683387,-1.414470,0.081565,-0.233677,-0.363077,-0.898286,44.401498,-28.623162,178.488940
64588,NaN,2.913330,8.024035,5.464082,1.925712,-1.921645,-0.049137,0.343418,-0.883112,-1.344480,0.074280,-0.235043,-0.366606,-0.897128,45.099313,-28.436808,177.454145
64589,NaN,3.590065,8.364477,6.033086,1.590095,-1.666812,0.861756,0.138139,-0.908763,-1.390021,0.066502,-0.236468,-0.369255,-0.896276,45.689394,-28.228834,176.393224
64590,NaN,3.455940,7.929133,6.182153,1.577598,-1.188395,0.633937,-0.019742,-0.887022,-1.507363,0.058041,-0.237646,-0.371297,-0.895709,46.203512,-27.958025,175.291917
64591,NaN,3.442251,8.285514,6.219691,1.639935,-1.347407,0.896074,0.150077,-0.852952,-1.529715,0.049747,-0.238542,-0.374092,-0.894806,46.804204,-27.653134,174.204356
64592,NaN,4.313857,8.801522,6.787181,1.152603,-1.174053,1.995534,-0.172635,-0.694057,-1.579867,0.041130,-0.238715,-0.375429,-0.894637,47.186960,-27.258791,173.174443
64593,NaN,4.559990,8.474459,7.683445,1.120001,-0.231307,2.448489,-0.158089,-0.651857,-1.594354,0.032566,-0.238621,-0.376804,-0.894437,47.559608,-26.833833,172.169615
64594,NaN,5.153518,8.943832,8.065418,0.774026,-0.153938,3.263159,-0.102169,-0.698587,-1.664739,0.023639,-0.238605,-0.378499,-0.894006,47.980426,-26.392909,171.114751
64595,NaN,5.495861,9.810582,8.059026,0.572664,-0.629144,3.995806,0.022143,-0.774267,-1.628987,0.014910,-0.238939,-0.380669,-0.893184,48.467728,-25.988119,170.052452
64596,NaN,6.040253,10.215958,8.012516,0.069507,-0.759285,4.486549,-0.157327,-0.822377,-1.550856,0.006188,-0.239653,-0.381932,-0.892556,48.842036,-25.628526,169.001280
64597,NaN,6.122568,9.896086,7.812324,-0.224772,-0.561846,4.190297,-0.189757,-0.878775,-1.431427,-0.002121,-0.240805,-0.382870,-0.891863,49.177312,-25.334735,167.982998
64598,NaN,5.851069,9.637415,7.465113,-0.240413,-0.584104,3.694460,-0.275123,-0.913499,-1.361469,-0.010315,-0.242253,-0.383325,-0.891218,49.455299,-25.080567,166.976153
64599,NaN,5.429954,8.991143,7.139721,-0.167891,-0.369596,2.881229,-0.361515,-0.971561,-1.283534,-0.018352,-0.244038,-0.383258,-0.890630,49.672776,-24.874280,165.982484
64600,NaN,4.765946,8.272962,6.909988,0.170141,-0.112003,1.971300,-0.357735,-1.016151,-1.246833,-0.026329,-0.246125,-0.383146,-0.889903,49.895481,-24.700814,164.978637
64601,NaN,4.415158,7.877880,6.370731,0.146031,-0.236984,1.235532,-0.478192,-1.035005,-1.280240,-0.034613,-0.248166,-0.382498,-0.889332,50.051419,-24.514616,163.959283
64602,NaN,4.302944,8.025357,5.753743,-0.066771,-0.751429,0.932446,-0.646712,-0.932217,-1.290750,-0.042978,-0.249716,-0.381114,-0.889127,50.091299,-24.286421,162.982264
64603,NaN,3.923524,7.918825,5.450091,0.036999,-0.988556,0.522975,-1.250753,-0.686676,-1.250481,-0.051419,-0.250039,-0.376993,-0.890344,49.719229,-23.983407,162.148394
64604,NaN,3.276212,5.707810,5.536280,0.358479,0.426077,-1.230569,-0.956907,-0.559833,-1.233251,-0.059200,-0.249947,-0.374184,-0.891071,49.490146,-23.649288,161.374783
64605,NaN,3.031527,6.107369,5.366425,0.469021,-0.050197,-1.148629,-0.737471,-0.639411,-1.273315,-0.067002,-0.250140,-0.372334,-0.891240,49.398846,-23.326796,160.554386
64606,NaN,2.695690,5.374245,5.155990,0.559005,0.227650,-1.915284,-0.913976,-0.637373,-1.243485,-0.074911,-0.250346,-0.369656,-0.891667,49.201736,-23.020967,159.741819
64607,NaN,2.645857,5.042670,5.010192,0.471124,0.345286,-2.250292,-0.765579,-0.644926,-1.209808,-0.082463,-0.250639,-0.367544,-0.891791,49.075393,-22.731751,158.947368
64608,NaN,2.687740,5.062416,4.870389,0.327297,0.252738,-2.302590,-0.769441,-0.589169,-1.209706,-0.089943,-0.250716,-0.365441,-0.891911,48.938659,-22.426241,158.172995
64609,NaN,3.176865,5.022209,4.814982,-0.162434,0.412238,-2.177070,-0.789757,-0.532318,-1.176620,-0.097170,-0.250531,-0.363191,-0.892123,48.766135,-22.112557,157.445030
64610,NaN,3.141070,4.924856,4.941391,-0.108278,0.542751,-2.181736,-0.810203,-0.486428,-1.174914,-0.104347,-0.250165,-0.360868,-0.892358,48.574478,-21.787349,156.734060
64611,NaN,3.048352,4.814728,5.153720,0.046231,0.714156,-2.162676,-0.632717,-0.592883,-1.173863,-0.111461,-0.250298,-0.359233,-0.892121,48.492188,-21.500602,155.981811
64612,NaN,3.510767,5.206376,5.178688,-0.368975,0.633717,-1.706343,-0.547886,-0.595523,-1.125408,-0.118275,-0.250621,-0.357922,-0.891679,48.454497,-21.240338,155.242436
64613,NaN,3.375883,4.957149,5.545251,-0.081359,0.979835,-1.703868,-0.711088,-0.557644,-1.134643,-0.125250,-0.250613,-0.355891,-0.891542,48.311839,-20.959840,154.521120
64614,NaN,3.192766,4.354417,5.860674,0.249434,1.519054,-1.993963,-0.623833,-0.699615,-1.127207,-0.132339,-0.251329,-0.354140,-0.891013,48.241005,-20.740867,153.735013
64615,NaN,3.428751,4.652412,5.756594,-0.029139,1.349751,-1.768002,-0.551093,-0.789481,-1.082696,-0.139296,-0.252503,-0.352571,-0.890243,48.213531,-20.570208,152.929963
64616,NaN,3.514125,4.828676,5.604331,-0.197847,1.184119,-1.711303,-0.539681,-0.828597,-1.036329,-0.146088,-0.253984,-0.350956,-0.889371,48.193588,-20.440244,152.123573
64617,NaN,3.536355,5.039960,5.665620,-0.201392,1.083262,-1.518579,-0.601248,-0.835392,-0.990807,-0.152760,-0.255495,-0.348990,-0.888590,48.130578,-20.330593,151.334461
64618,NaN,3.556348,4.786468,6.027148,0.006542,1.465266,-1.461798,-0.698068,-0.793263,-0.946529,-0.159278,-0.256830,-0.346548,-0.888016,47.998334,-20.227209,150.581633
64619,NaN,3.482095,4.403019,6.222781,0.216722,1.796119,-1.629685,-0.738196,-0.757218,-0.952038,-0.165790,-0.257920,-0.343934,-0.887525,47.833469,-20.107292,149.846627
64620,NaN,3.740410,4.450462,6.174762,-0.030917,1.844931,-1.534995,-0.807378,-0.648477,-0.927220,-0.172097,-0.258531,-0.341066,-0.887253,47.610294,-19.960509,149.167590
64621,NaN,3.639886,4.269595,6.038646,-0.022944,1.833994,-1.776564,-0.993753,-0.483760,-0.898974,-0.178253,-0.258237,-0.337466,-0.887500,47.247956,-19.758783,148.574527
64622,NaN,3.469474,3.840656,5.836283,0.025321,1.917344,-2.251409,-1.254363,-0.295367,-0.819112,-0.184041,-0.257044,-0.332749,-0.888445,46.696550,-19.527591,148.097093
64623,NaN,3.554508,3.415266,5.875467,0.018601,2.254124,-2.482051,-0.789837,-0.390964,-0.883162,-0.189661,-0.256580,-0.330078,-0.888394,46.432928,-19.310237,147.550489
64624,NaN,3.849253,4.067972,5.774638,-0.396974,1.889776,-2.003543,-0.479142,-0.421018,-0.901460,-0.195012,-0.256510,-0.328766,-0.887742,46.352124,-19.099095,146.982227
64625,NaN,3.883600,4.088893,5.831597,-0.404351,1.933375,-1.944558,-0.431088,-0.421355,-0.929647,-0.200416,-0.256430,-0.327697,-0.886957,46.300623,-18.876675,146.403283
64626,NaN,3.868291,4.170190,5.904207,-0.368092,1.923070,-1.851527,-0.270425,-0.527508,-0.959999,-0.205922,-0.256927,-0.327259,-0.885712,46.357924,-18.683996,145.765144
64627,NaN,3.500470,4.394261,5.931940,-0.097180,1.609624,-1.803298,-0.145537,-0.750183,-0.979623,-0.211706,-0.258494,-0.327161,-0.883927,46.518663,-18.569620,145.022957
64628,NaN,3.647641,4.743013,5.937511,-0.250893,1.478934,-1.517803,-0.039180,-0.999783,-0.937835,-0.217571,-0.261338,-0.327198,-0.881650,46.768787,-18.568635,144.188381
64629,NaN,4.383753,4.965835,6.039146,-0.751690,1.814136,-1.066744,0.006337,-1.202900,-0.878883,-0.223435,-0.265206,-0.327123,-0.879053,47.066605,-18.667730,143.288920
64630,NaN,5.035299,5.097422,6.060946,-1.193671,2.142581,-0.754160,0.035483,-1.233647,-0.852043,-0.229183,-0.269275,-0.327085,-0.876346,47.383944,-18.785797,142.385017
64631,NaN,5.079432,5.091854,6.319536,-0.991852,2.329133,-0.579326,0.017629,-1.172626,-0.819369,-0.234696,-0.273090,-0.326979,-0.873741,47.679967,-18.889222,141.521107
64632,NaN,4.853939,4.865456,6.562673,-0.550406,2.492788,-0.659289,0.005915,-1.060596,-0.803380,-0.239965,-0.276420,-0.326914,-0.871284,47.952399,-18.952532,140.712379
64633,NaN,4.817854,4.935456,6.718066,-0.382549,2.526713,-0.529806,0.012072,-0.929324,-0.799311,-0.245074,-0.279088,-0.327048,-0.868958,48.209110,-18.949191,139.959228
64634,NaN,4.746482,5.121981,6.720492,-0.327605,2.393995,-0.427058,-0.010171,-0.730486,-0.774375,-0.249681,-0.280988,-0.327248,-0.866956,48.420294,-18.892467,139.310951
64635,NaN,4.359164,5.342084,6.956510,0.076242,2.145378,-0.256296,-0.035580,-0.516812,-0.773935,-0.254016,-0.281872,-0.327613,-0.865271,48.583871,-18.744828,138.757883
64636,NaN,4.124299,5.533834,6.982809,0.223307,1.921858,-0.187241,0.005664,-0.350113,-0.792114,-0.258043,-0.282104,-0.328370,-0.863716,48.747708,-18.532778,138.276687
64637,NaN,4.034626,5.777131,6.846423,0.133916,1.695592,-0.136233,0.054843,-0.230729,-0.820765,-0.261940,-0.281808,-0.329528,-0.862197,48.922794,-18.259121,137.839438
64638,NaN,3.902360,5.909253,6.673601,0.073479,1.507916,-0.199927,0.131446,-0.175020,-0.839570,-0.265697,-0.281358,-0.331108,-0.860587,49.134631,-17.957878,137.422078
64639,NaN,3.688526,6.043292,6.432540,0.023570,1.243890,-0.328172,0.194137,-0.192465,-0.852025,-0.269454,-0.281022,-0.332944,-0.858819,49.382277,-17.654041,136.993957
64640,NaN,3.736859,6.194496,6.380833,-0.085583,1.221040,-0.244389,0.233374,-0.231848,-0.827629,-0.273100,-0.280962,-0.334856,-0.856941,49.653578,-17.375764,136.559384
64641,NaN,3.811638,6.325506,6.259605,-0.249155,1.200798,-0.209618,0.265656,-0.246906,-0.775252,-0.276504,-0.281089,-0.336809,-0.855041,49.937154,-17.123141,136.139534
64642,NaN,4.112522,6.583394,6.423882,-0.410348,1.373120,0.160576,0.295796,-0.227743,-0.707160,-0.279530,-0.281288,-0.338812,-0.853198,50.225254,-16.892233,135.757241
64643,NaN,4.180306,7.023986,6.510355,-0.513865,1.249917,0.549231,0.328234,-0.166858,-0.642054,-0.282136,-0.281373,-0.340945,-0.851461,50.514770,-16.664663,135.428634
64644,NaN,4.245712,7.637436,6.337352,-0.842336,0.915745,0.909720,0.349868,-0.081309,-0.584202,-0.284305,-0.281225,-0.343202,-0.849880,50.797408,-16.431390,135.163982
64645,NaN,4.284212,8.279582,6.071629,-1.227874,0.511803,1.232702,0.346818,-0.028397,-0.537753,-0.286190,-0.280919,-0.345447,-0.848437,51.064267,-16.197968,134.942812
64646,NaN,3.742524,8.550869,6.093793,-0.921063,0.059440,1.296134,0.319994,-0.044889,-0.537469,-0.288134,-0.280648,-0.347556,-0.847007,51.317399,-15.970125,134.715452
64647,NaN,3.346300,8.586734,6.138627,-0.628556,-0.147299,1.241513,0.310908,-0.166527,-0.576335,-0.290466,-0.280805,-0.349498,-0.845357,51.583096,-15.766964,134.418145
64648,NaN,3.277122,8.494397,6.146337,-0.539256,-0.071101,1.158891,0.326839,-0.296824,-0.651411,-0.293314,-0.281403,-0.351422,-0.843375,51.880980,-15.575212,134.033795
64649,NaN,3.221242,8.265591,6.154672,-0.410578,0.095038,0.976119,0.374137,-0.393325,-0.689203,-0.296422,-0.282408,-0.353450,-0.841102,52.220134,-15.398285,133.591450
64650,NaN,3.017174,8.134669,6.011930,-0.307902,0.038963,0.738267,0.459701,-0.466103,-0.747259,-0.299771,-0.283735,-0.355805,-0.838472,52.621187,-15.217727,133.095776
64651,NaN,2.830091,9.137289,6.676277,0.003805,-0.297636,1.848481,0.500508,-0.534737,-0.803244,-0.303410,-0.285308,-0.358295,-0.835564,53.057355,-15.032479,132.549323
64652,NaN,3.252699,24.458946,7.025163,-4.710119,-8.330140,13.990563,-0.289355,-0.694018,-0.774591,-0.308333,-0.286387,-0.357194,-0.833862,53.056109,-14.912594,131.938759
64653,NaN,12.759222,5.630917,14.616898,0.306548,12.065072,6.388856,-1.264580,-1.562121,0.026437,-0.312842,-0.290998,-0.349518,-0.833839,52.531013,-15.462190,131.204067
64654,NaN,7.853349,4.856509,9.641482,0.282044,6.861678,1.635296,0.325435,-0.294492,-0.393574,-0.314558,-0.292057,-0.351047,-0.832179,52.800473,-15.381085,130.917516
64655,NaN,1.705399,6.971861,5.910644,0.908351,-0.244253,-0.562508,0.606024,-0.569733,-0.387928,-0.316318,-0.294713,-0.353294,-0.829621,53.264585,-15.396278,130.502642
64656,NaN,3.606828,8.585239,5.179613,-1.253231,0.020688,0.769007,0.674416,-0.488843,-0.354107,-0.317688,-0.297190,-0.355898,-0.827097,53.754476,-15.395515,130.138488
64657,NaN,2.935690,7.534484,4.233793,-1.126611,-0.216955,-0.757585,0.749819,-0.282355,-0.390098,-0.318721,-0.298873,-0.359190,-0.824666,54.265420,-15.306294,129.860292
64658,NaN,1.657439,8.390711,4.242346,-0.556339,-1.548992,-0.408479,0.725515,-0.073711,-0.566317,-0.320135,-0.299324,-0.362967,-0.822298,54.749776,-15.062324,129.624093
64659,NaN,1.584541,9.183563,3.816290,-1.038073,-2.111637,-0.021092,0.685160,-0.121531,-0.675065,-0.322144,-0.299714,-0.366667,-0.819726,55.226901,-14.781167,129.328310
64660,NaN,1.625889,9.087977,3.052747,-1.569415,-2.247513,-0.483226,0.692585,-0.197149,-0.839332,-0.324936,-0.300105,-0.370501,-0.816751,55.727179,-14.444578,128.945202
64661,NaN,0.329049,8.991434,2.631896,-1.042872,-3.242296,-1.078855,0.838044,-0.408838,-1.063847,-0.328811,-0.301182,-0.374917,-0.812779,56.353609,-14.065756,128.386518
64662,NaN,-0.605300,8.615222,2.952111,-0.114095,-3.522525,-1.393598,0.976972,-0.830135,-1.259594,-0.334035,-0.303799,-0.379464,-0.807548,57.117694,-13.718691,127.563901
64663,NaN,-0.646593,6.789888,3.536796,0.935055,-2.325602,-2.550035,1.187672,-1.371040,-1.444604,-0.340670,-0.308593,-0.384211,-0.800685,58.076916,-13.438052,126.418780
64664,NaN,-0.531478,8.326026,2.848240,-0.085872,-3.137822,-1.574799,1.371682,-1.684932,-1.537271,-0.347946,-0.314705,-0.389230,-0.792713,59.174329,-13.183983,125.095581
64665,NaN,1.567072,9.952988,3.371498,-1.286924,-1.866833,0.567150,1.165809,-1.802254,-1.299034,-0.354771,-0.321373,-0.392821,-0.785206,60.152452,-13.059650,123.786306
64666,NaN,2.967779,8.419666,3.926815,-1.046441,0.283671,-0.120371,0.982709,-1.442021,-1.131565,-0.360478,-0.326548,-0.395978,-0.778860,60.962675,-12.896340,122.716074
64667,NaN,3.236497,8.201735,4.253839,-0.775669,0.833379,-0.089471,0.835195,-0.834791,-1.067566,-0.364947,-0.329214,-0.399538,-0.773823,61.614775,-12.584899,121.977571
64668,NaN,3.019412,8.015735,4.437134,-0.405109,0.908097,-0.217521,0.737794,-0.266956,-0.959864,-0.368003,-0.329680,-0.403536,-0.770093,62.131797,-12.167056,121.569345
64669,NaN,2.898353,8.313499,4.328896,-0.490919,0.751183,-0.042944,0.625133,0.110200,-0.853723,-0.370057,-0.328710,-0.407619,-0.767368,62.536982,-11.700692,121.388401
64670,NaN,2.338060,8.997611,4.305522,-0.421971,0.107718,0.423061,0.488284,0.343428,-0.792075,-0.371620,-0.326688,-0.411483,-0.765412,62.831236,-11.202178,121.349685
64671,NaN,1.100952,8.413998,4.981658,0.922859,-0.341032,-0.022100,0.400725,0.353144,-0.851174,-0.373519,-0.324361,-0.415134,-0.763503,63.080594,-10.671699,121.300922
64672,NaN,0.524107,8.251421,5.655485,1.801385,-0.403839,0.032938,0.433247,0.081384,-0.922833,-0.376195,-0.322950,-0.418489,-0.760951,63.372603,-10.173594,121.096534
64673,NaN,0.788359,8.509121,5.795123,1.708935,-0.130230,0.369260,0.509846,-0.321810,-0.968861,-0.379750,-0.323128,-0.421446,-0.757471,63.746813,-9.754800,120.672629
64674,NaN,2.155874,8.824177,5.609177,0.805987,0.929394,0.792152,0.545982,-0.711037,-0.988743,-0.384132,-0.324777,-0.423809,-0.753225,64.171020,-9.419557,120.044717
64675,NaN,2.556381,8.673846,5.414148,0.544691,1.334800,0.627831,0.564380,-0.900966,-1.099510,-0.389294,-0.326933,-0.426044,-0.748366,64.623839,-9.068616,119.291001
64676,NaN,2.284091,8.620833,5.300509,0.651946,1.159303,0.476213,0.493047,-1.044853,-1.136592,-0.394983,-0.329380,-0.427756,-0.743318,65.042013,-8.728632,118.457887
64677,NaN,2.076207,8.228036,4.958050,0.638070,1.049263,-0.061543,0.449793,-1.204565,-1.090849,-0.400897,-0.332415,-0.428888,-0.738131,65.441789,-8.444554,117.553710
64678,NaN,1.511901,7.901179,4.289498,0.483864,0.470549,-0.721023,0.380476,-1.252852,-1.050878,-0.406844,-0.335546,-0.429569,-0.733047,65.799111,-8.187213,116.637463
64679,NaN,0.770518,8.070745,3.812863,0.385298,-0.357120,-0.868841,0.209690,-1.162553,-0.951593,-0.412503,-0.338194,-0.429611,-0.728629,66.044530,-7.955601,115.792927
64680,NaN,0.672598,8.163038,3.751819,0.350673,-0.454224,-0.821895,-0.008520,-0.987970,-0.837399,-0.417709,-0.339981,-0.429005,-0.725181,66.145164,-7.741088,115.070016
64681,NaN,0.828032,8.439508,3.833835,0.256933,-0.333633,-0.515817,-0.129632,-0.750443,-0.741485,-0.422256,-0.340852,-0.428276,-0.722565,66.154111,-7.521143,114.494568
64682,NaN,1.042943,8.661445,4.218660,0.405716,-0.043970,-0.130808,-0.205862,-0.527379,-0.669995,-0.426180,-0.340896,-0.427612,-0.720631,66.099603,-7.287137,114.055022
64683,NaN,1.234561,8.832910,4.368400,0.374082,0.162906,0.110051,-0.217077,-0.337618,-0.627222,-0.429565,-0.340322,-0.427229,-0.719118,66.023017,-7.031690,113.724288
64684,NaN,1.304616,8.995780,4.717017,0.563528,0.329652,0.407387,-0.176649,-0.251538,-0.598875,-0.432581,-0.339578,-0.427125,-0.717722,65.961948,-6.771630,113.446801
64685,NaN,1.215896,8.928781,4.859115,0.719192,0.347838,0.393887,-0.104896,-0.252326,-0.592077,-0.435455,-0.339006,-0.427258,-0.716173,65.940599,-6.515386,113.169211
64686,NaN,1.112328,8.815838,4.863949,0.786596,0.320064,0.281518,-0.022989,-0.311284,-0.578542,-0.438256,-0.338845,-0.427532,-0.714376,65.968107,-6.280096,112.865153
64687,NaN,1.193577,8.788121,4.768174,0.677019,0.407082,0.225590,0.053300,-0.369811,-0.561708,-0.440994,-0.339096,-0.427913,-0.712340,66.040910,-6.066862,112.533429
64688,NaN,1.184654,8.746111,4.548050,0.508337,0.376927,0.095997,0.123596,-0.378909,-0.542131,-0.443551,-0.339568,-0.428489,-0.710178,66.152861,-5.865594,112.203092
64689,NaN,1.083912,8.810116,4.292814,0.312705,0.227762,0.039798,0.166329,-0.375592,-0.527968,-0.445979,-0.340153,-0.429192,-0.707950,66.287489,-5.670170,111.877304
64690,NaN,1.012760,8.847351,4.045059,0.122989,0.116842,-0.033378,0.192088,-0.352573,-0.517661,-0.448265,-0.340730,-0.430018,-0.705724,66.434412,-5.474183,111.567669
64691,NaN,0.610117,8.783353,3.921557,0.195875,-0.238658,-0.179272,0.205934,-0.339090,-0.521902,-0.450517,-0.341280,-0.430922,-0.703469,66.587450,-5.271933,111.263558
64692,NaN,0.472570,8.701847,3.875449,0.242923,-0.322349,-0.283704,0.200475,-0.330545,-0.518192,-0.452734,-0.341788,-0.431819,-0.701245,66.735868,-5.069052,110.966679
64693,NaN,0.596494,8.633172,3.992941,0.333006,-0.118951,-0.288724,0.177430,-0.331539,-0.516620,-0.454988,-0.342250,-0.432623,-0.699063,66.869859,-4.866395,110.669344
64694,NaN,0.633287,8.545074,4.105626,0.456268,0.004204,-0.322313,0.165947,-0.326178,-0.514171,-0.457230,-0.342667,-0.433392,-0.696916,66.996037,-4.663256,110.376832
64695,NaN,1.086906,8.264626,3.980244,0.292841,0.486923,-0.592884,0.162331,-0.305524,-0.533877,-0.459504,-0.342959,-0.434223,-0.694756,67.118359,-4.444371,110.090507
64696,NaN,0.509193,8.955678,5.012253,1.164666,0.139902,0.395644,0.100153,-0.277355,-0.467925,-0.461583,-0.343148,-0.434788,-0.692928,67.201907,-4.253638,109.835143
64697,NaN,0.526155,8.003171,4.758758,1.267151,0.298304,-0.578043,0.128117,-0.386839,-0.476666,-0.463883,-0.343760,-0.435206,-0.690824,67.304805,-4.082092,109.519727
64698,NaN,1.706645,8.749710,5.139112,0.964719,1.394884,0.336407,0.105064,-0.440862,-0.389228,-0.466029,-0.344691,-0.435267,-0.688874,67.394536,-3.968208,109.195838
64699,NaN,1.697131,8.368427,5.012026,1.001945,1.443270,-0.068754,0.134649,-0.344612,-0.405112,-0.467969,-0.345322,-0.435675,-0.686983,67.497003,-3.824227,108.919392
64700,NaN,1.381981,8.636681,5.197376,1.188799,1.172240,0.223617,0.117285,-0.266017,-0.374466,-0.469656,-0.345707,-0.436154,-0.685332,67.585879,-3.678810,108.692010
64701,NaN,1.149768,8.387099,5.316412,1.465468,1.054856,0.019365,0.148734,-0.255729,-0.390796,-0.471320,-0.346092,-0.436788,-0.683589,67.691741,-3.522186,108.466686
64702,NaN,1.040136,8.541088,5.093416,1.265082,0.889775,0.065710,0.192113,-0.301374,-0.394354,-0.473017,-0.346726,-0.437469,-0.681658,67.823638,-3.373034,108.216826
64703,NaN,0.874071,8.481918,5.020648,1.291789,0.750091,-0.030950,0.240082,-0.362387,-0.441545,-0.474923,-0.347574,-0.438243,-0.679399,67.984430,-3.211421,107.924544
64704,NaN,0.804770,8.281868,5.062302,1.441771,0.757139,-0.209989,0.288336,-0.431494,-0.491783,-0.477059,-0.348658,-0.439103,-0.676787,68.174914,-3.036915,107.585471
64705,NaN,0.758598,8.132276,5.086888,1.555892,0.772165,-0.348616,0.320782,-0.495802,-0.519027,-0.479367,-0.349972,-0.439957,-0.673918,68.384590,-2.860476,107.206887
64706,NaN,1.167903,8.145834,5.368499,1.712474,1.259376,-0.219947,0.299909,-0.504946,-0.490152,-0.481625,-0.351325,-0.440664,-0.671136,68.581491,-2.699895,106.830303
64707,NaN,1.631171,7.755554,5.783899,2.113434,1.888920,-0.419708,0.275144,-0.435895,-0.482762,-0.483745,-0.352398,-0.441431,-0.668540,68.760896,-2.527756,106.492515
64708,NaN,1.971602,7.681213,6.086513,2.344899,2.325872,-0.377354,0.286944,-0.339373,-0.464894,-0.485563,-0.353212,-0.442439,-0.666121,68.944074,-2.344026,106.210861
64709,NaN,2.268409,7.798340,6.228224,2.382272,2.657230,-0.220279,0.302209,-0.258009,-0.434874,-0.487071,-0.353854,-0.443633,-0.663882,69.132583,-2.158992,105.979581
64710,NaN,2.326772,7.672228,6.452496,2.643178,2.813050,-0.272674,0.320482,-0.214130,-0.387381,-0.488286,-0.354498,-0.444912,-0.661787,69.330151,-1.989485,105.782118
64711,NaN,1.904607,7.230698,6.518327,2.997306,2.506992,-0.695118,0.369641,-0.192262,-0.403508,-0.489417,-0.355151,-0.446425,-0.659578,69.554372,-1.806439,105.593482
64712,NaN,1.661612,7.106637,6.853096,3.442902,2.395598,-0.722170,0.403428,-0.234073,-0.401167,-0.490567,-0.356027,-0.447945,-0.657217,69.798606,-1.631966,105.383918
64713,NaN,1.593846,7.014068,7.131885,3.785335,2.430405,-0.737148,0.445486,-0.303033,-0.402579,-0.491798,-0.357224,-0.449425,-0.654632,70.066584,-1.469693,105.137610
64714,NaN,1.669527,6.962805,7.169925,3.862664,2.534494,-0.794277,0.438554,-0.399058,-0.388422,-0.493202,-0.358747,-0.450622,-0.651914,70.331855,-1.332209,104.843186
64715,NaN,1.393353,7.097859,6.661429,3.475523,2.141811,-0.866805,0.448270,-0.557917,-0.367288,-0.494874,-0.360854,-0.451407,-0.648935,70.603064,-1.235550,104.467307
64716,NaN,1.054835,7.525108,6.317289,3.156005,1.687655,-0.601859,0.310728,-0.657813,-0.268001,-0.496686,-0.363163,-0.451319,-0.646318,70.796653,-1.209619,104.056971
64717,NaN,0.944822,7.689829,6.135417,2.995719,1.502824,-0.515561,0.061033,-0.783267,-0.146014,-0.498835,-0.365526,-0.449875,-0.644334,70.847328,-1.272860,103.601394
64718,NaN,1.202060,7.896737,5.838844,2.612035,1.627460,-0.409288,-0.182387,-0.922908,-0.027398,-0.501349,-0.367992,-0.447083,-0.642921,70.761602,-1.426312,103.092941
64719,NaN,1.870892,7.908336,5.740445,2.368019,2.200527,-0.402877,-0.359365,-0.929702,0.088803,-0.503822,-0.370288,-0.443470,-0.642172,70.574580,-1.645553,102.602797
64720,NaN,2.529301,7.324744,5.288137,1.992351,2.756510,-1.069370,-0.311431,-0.737078,0.116999,-0.505674,-0.372140,-0.440445,-0.641727,70.414502,-1.844186,102.223133
64721,NaN,2.602027,7.776981,4.973107,1.538634,2.682854,-0.734219,-0.261012,-0.458923,0.084161,-0.506924,-0.373151,-0.438330,-0.641602,70.278462,-1.973020,101.987325
64722,NaN,3.259326,11.143844,4.854237,0.185678,2.930371,2.424566,-0.353062,-0.215006,0.117935,-0.507695,-0.373219,-0.436483,-0.642211,70.086391,-2.072811,101.890456
64723,NaN,4.230892,11.412284,5.230812,0.205211,3.886506,2.850435,-0.486093,-0.131684,0.191220,-0.508299,-0.372839,-0.434270,-0.643453,69.814886,-2.196694,101.852710
64724,NaN,3.485613,10.475839,5.537002,0.907711,3.281309,2.059971,-0.369215,-0.139001,0.076444,-0.509064,-0.372528,-0.432638,-0.644129,69.612607,-2.259876,101.789277
64725,NaN,3.257245,11.187045,5.245458,0.425706,2.909090,2.622359,-0.187163,-0.222587,0.041126,-0.509786,-0.372874,-0.431431,-0.644167,69.515547,-2.321731,101.673406
64726,NaN,3.266446,11.564902,5.162070,0.217858,2.842355,2.951994,-0.045177,-0.225725,0.108498,-0.510028,-0.373735,-0.430559,-0.644059,69.500737,-2.419738,101.570044
64727,NaN,3.970267,11.981590,5.493652,0.254640,3.520229,3.493131,0.085693,-0.082879,0.190767,-0.509460,-0.374648,-0.430305,-0.644148,69.555826,-2.534008,101.558851
64728,NaN,4.041918,12.470450,5.426622,0.036252,3.506184,3.935140,0.213749,0.196341,0.240058,-0.507884,-0.375092,-0.431095,-0.644607,69.678369,-2.618251,101.708480
64729,NaN,3.682400,13.416490,5.150993,-0.436571,2.980811,4.713809,0.223414,0.406789,0.370368,-0.505422,-0.375164,-0.432188,-0.645767,69.798427,-2.731910,101.995687
64730,NaN,3.787635,13.430089,5.029256,-0.560341,3.026045,4.697164,0.165860,0.544849,0.548277,-0.502180,-0.375021,-0.433120,-0.647751,69.880659,-2.913690,102.393630
64731,NaN,3.414738,12.954913,4.992062,-0.354870,2.659531,4.230514,0.106057,0.627367,0.710630,-0.498344,-0.374809,-0.433738,-0.650417,69.921743,-3.167958,102.866675
64732,NaN,3.131595,12.268917,4.741387,-0.303074,2.353334,3.498337,0.020221,0.644375,0.865313,-0.494109,-0.374650,-0.433834,-0.653668,69.910227,-3.501290,103.380696
64733,NaN,2.781254,11.349854,4.358008,-0.288130,1.977870,2.497921,-0.052919,0.675203,1.000420,-0.489503,-0.374499,-0.433481,-0.657443,69.849426,-3.901584,103.935707
64734,NaN,2.301422,10.403785,3.921003,-0.283686,1.469442,1.442046,-0.119151,0.699423,1.118670,-0.484544,-0.374339,-0.432750,-0.661676,69.745091,-4.359193,104.530823
64735,NaN,1.803296,9.366943,3.467221,-0.257756,0.959508,0.288067,-0.177618,0.715879,1.219188,-0.479317,-0.374190,-0.431639,-0.666277,69.598463,-4.867114,105.154209
64736,NaN,1.384215,8.320391,3.095663,-0.168386,0.557631,-0.846750,-0.228510,0.714551,1.305508,-0.473862,-0.374083,-0.430189,-0.671159,69.416595,-5.418960,105.798273
64737,NaN,1.022923,7.410327,2.811221,-0.052786,0.222324,-1.824609,-0.275159,0.705752,1.377595,-0.468268,-0.374039,-0.428380,-0.676247,69.199096,-6.009460,106.451054
64738,NaN,0.868091,6.635218,2.749925,0.169606,0.126876,-2.581065,-0.297173,0.747807,1.445255,-0.462342,-0.373911,-0.426463,-0.681586,68.959019,-6.624481,107.147249
64739,NaN,0.680405,6.311556,2.776327,0.341634,-0.056278,-2.892695,-0.313588,0.833848,1.488722,-0.456105,-0.373529,-0.424557,-0.687166,68.693645,-7.242419,107.899115
64740,NaN,0.516763,6.261116,2.807664,0.428343,-0.266927,-2.950006,-0.341859,0.920687,1.501997,-0.449633,-0.372773,-0.422715,-0.692952,68.398390,-7.845007,108.707855
64741,NaN,0.501876,6.398626,2.860641,0.429953,-0.374334,-2.808967,-0.378236,0.963698,1.481354,-0.443201,-0.371724,-0.420826,-0.698784,68.069441,-8.423443,109.535804
64742,NaN,0.508718,6.655519,2.878729,0.354477,-0.502970,-2.569575,-0.423489,0.960296,1.429582,-0.436980,-0.370436,-0.418857,-0.704545,67.709077,-8.969819,110.359275
64743,NaN,1.070835,6.711709,3.385248,0.576353,0.065510,-2.241907,-0.417612,0.991616,1.323603,-0.431049,-0.368812,-0.417121,-0.710060,67.343770,-9.448388,111.176957
64744,NaN,0.971874,7.132169,2.770213,-0.080385,-0.380101,-2.109760,-0.389376,0.986600,1.175210,-0.425548,-0.366923,-0.415741,-0.715147,66.995203,-9.844319,111.966262
64745,NaN,1.237373,7.206352,3.091875,0.059142,-0.138029,-1.875482,-0.496221,0.747698,1.102360,-0.421015,-0.365502,-0.413558,-0.719809,66.603314,-10.250663,112.609257
64746,NaN,1.620650,7.224783,3.150114,-0.067880,0.151101,-1.767857,-0.488960,0.592862,0.978129,-0.417180,-0.364367,-0.411308,-0.723895,66.232081,-10.623110,113.149539
64747,NaN,1.801741,7.195972,3.122391,-0.181341,0.247313,-1.770108,-0.511265,0.422986,0.891959,-0.414073,-0.363625,-0.408741,-0.727497,65.863636,-10.986330,113.576441
64748,NaN,2.054750,7.029222,3.012465,-0.351212,0.429090,-1.913383,-0.500356,0.262817,0.832877,-0.411436,-0.363343,-0.406004,-0.730659,65.518698,-11.354008,113.912231
64749,NaN,2.262209,6.919305,2.901054,-0.518768,0.552173,-2.012940,-0.482264,0.139861,0.799002,-0.409173,-0.363484,-0.403106,-0.733459,65.194958,-11.731252,114.171302
64750,NaN,2.305688,6.864782,2.827038,-0.601737,0.520425,-2.079627,-0.483082,0.029985,0.805498,-0.407058,-0.364018,-0.399986,-0.736075,64.881422,-12.137227,114.381888
64751,NaN,2.548731,6.795949,2.752380,-0.758517,0.670435,-2.116501,-0.464940,-0.005441,0.807077,-0.405012,-0.364730,-0.396823,-0.738559,64.578998,-12.551234,114.570467
64752,NaN,2.738889,6.884076,2.780649,-0.853231,0.748393,-1.980987,-0.433255,0.039483,0.778643,-0.402871,-0.365260,-0.393938,-0.741008,64.290382,-12.938787,114.784304
64753,NaN,2.637329,7.284474,2.788598,-0.944296,0.447564,-1.645502,-0.427793,0.089730,0.771645,-0.400684,-0.365610,-0.391153,-0.743492,63.996155,-13.308812,115.019172
64754,NaN,2.723314,7.622473,2.746861,-1.137153,0.318158,-1.346931,-0.411506,0.149164,0.732879,-0.398443,-0.365674,-0.388638,-0.745980,63.705502,-13.642988,115.283820
64755,NaN,2.517437,7.902602,2.772309,-1.135964,-0.025320,-1.141880,-0.398356,0.209543,0.659177,-0.396377,-0.365406,-0.386394,-0.748374,63.416397,-13.922221,115.556477
64756,NaN,2.541007,8.103778,2.885403,-1.132347,-0.109064,-0.915550,-0.385524,0.227352,0.614821,-0.394366,-0.364989,-0.384335,-0.750696,63.134671,-14.173233,115.835108
64757,NaN,2.617011,8.188257,3.089617,-1.037927,-0.072550,-0.737492,-0.357410,0.231251,0.570255,-0.392501,-0.364537,-0.382441,-0.752858,62.868832,-14.398924,116.099481
64758,NaN,2.367676,8.433340,3.212071,-0.922743,-0.405114,-0.537523,-0.330427,0.179090,0.551028,-0.390712,-0.364279,-0.380602,-0.754843,62.626438,-14.627603,116.338386
64759,NaN,2.301353,8.514824,3.208697,-0.937303,-0.551949,-0.490097,-0.332699,0.094875,0.586439,-0.388994,-0.364412,-0.378495,-0.756723,62.389115,-14.895258,116.537855
64760,NaN,2.461051,8.561238,3.250719,-0.996243,-0.482045,-0.394964,-0.345262,0.006905,0.628268,-0.387257,-0.364914,-0.376115,-0.758556,62.153333,-15.207082,116.710207
64761,NaN,2.668951,8.485054,3.414595,-0.932444,-0.291075,-0.335119,-0.353753,-0.072482,0.665289,-0.385581,-0.365778,-0.373452,-0.760307,61.918460,-15.558116,116.847367
64762,NaN,2.768852,8.279597,3.637835,-0.729800,-0.124814,-0.383823,-0.357196,-0.072805,0.683457,-0.383796,-0.366653,-0.370761,-0.762104,61.680103,-15.918008,116.996659
64763,NaN,2.810718,8.018423,3.738396,-0.589977,-0.017491,-0.548668,-0.354876,0.021089,0.693544,-0.381826,-0.367199,-0.368212,-0.764064,61.426058,-16.256681,117.194984
64764,NaN,2.551921,7.747896,3.737446,-0.404295,-0.184080,-0.850933,-0.322142,0.196514,0.686361,-0.379458,-0.367107,-0.366154,-0.766273,61.164990,-16.542642,117.489985
64765,NaN,2.251326,7.719484,3.776436,-0.244836,-0.470511,-0.944835,-0.278928,0.388641,0.660750,-0.376789,-0.366321,-0.364644,-0.768683,60.899075,-16.761075,117.874841
64766,NaN,1.914617,7.985612,3.837193,-0.143745,-0.902085,-0.794638,-0.235256,0.559697,0.597526,-0.373927,-0.364826,-0.363758,-0.771208,60.637274,-16.898384,118.336987
64767,NaN,1.611589,8.657148,3.882595,-0.196051,-1.483103,-0.305856,-0.178561,0.676789,0.493378,-0.371181,-0.362801,-0.363469,-0.773622,60.396978,-16.948684,118.825358
64768,NaN,1.418725,9.551122,3.665757,-0.581910,-2.141269,0.274472,-0.113147,0.706118,0.359597,-0.368737,-0.360523,-0.363748,-0.775721,60.202288,-16.922390,119.294491
64769,NaN,0.789199,10.561060,3.483328,-0.763651,-3.199283,0.839721,-0.057112,0.597989,0.207224,-0.367007,-0.358495,-0.364293,-0.777224,60.068413,-16.849995,119.657770
64770,NaN,0.228065,11.657667,3.274976,-1.016113,-4.239839,1.486426,-0.034157,0.307892,0.049441,-0.366343,-0.357339,-0.364697,-0.777881,60.006607,-16.781646,119.827255
64771,NaN,0.146410,12.388834,3.135183,-1.325857,-4.688835,2.002174,-0.067099,-0.089803,-0.047116,-0.366869,-0.357500,-0.364397,-0.777699,59.992738,-16.779161,119.757750
64772,NaN,0.465991,12.676391,3.064441,-1.635171,-4.581021,2.296783,-0.135045,-0.477885,-0.103365,-0.368410,-0.358934,-0.363240,-0.776851,60.004225,-16.860000,119.474138
64773,NaN,1.234192,12.110156,3.182711,-1.731524,-3.649905,2.103216,-0.157322,-0.757256,-0.133449,-0.370636,-0.361359,-0.361514,-0.775471,60.047283,-17.005729,119.033180
64774,NaN,1.603818,11.570072,3.016167,-1.871384,-3.145450,1.682535,-0.107594,-0.891390,-0.175754,-0.373148,-0.364308,-0.359819,-0.773673,60.145414,-17.168266,118.512524
64775,NaN,1.826971,10.974173,2.864459,-1.902692,-2.725544,1.183975,-0.038659,-0.898929,-0.205138,-0.375678,-0.367360,-0.358407,-0.771659,60.287417,-17.317197,117.975238
64776,NaN,1.944868,10.226130,2.798734,-1.757206,-2.291935,0.572320,0.060010,-0.782250,-0.232271,-0.377890,-0.370084,-0.357654,-0.769624,60.472503,-17.418211,117.493143
64777,NaN,1.788030,9.703749,2.612016,-1.659500,-2.219731,0.010816,0.151306,-0.585552,-0.253661,-0.379682,-0.372188,-0.357643,-0.767730,60.680799,-17.451465,117.103973
64778,NaN,1.661195,9.238339,2.557661,-1.481283,-2.105282,-0.430705,0.262887,-0.353614,-0.281074,-0.380930,-0.373554,-0.358564,-0.766017,60.919870,-17.404878,116.831354
64779,NaN,1.558360,8.864046,2.561173,-1.292997,-1.988283,-0.760941,0.374911,-0.110125,-0.325013,-0.381722,-0.374126,-0.360442,-0.764461,61.187539,-17.267384,116.671062
64780,NaN,1.302166,8.610420,2.610081,-1.038419,-2.034254,-1.013216,0.485096,0.150173,-0.396333,-0.382083,-0.373775,-0.363383,-0.763058,61.484016,-17.021966,116.631232
64781,NaN,0.906367,8.515360,2.813310,-0.643169,-2.214129,-1.098844,0.598943,0.379301,-0.521108,-0.382309,-0.372541,-0.367411,-0.761618,61.819711,-16.650852,116.675050
64782,NaN,-3.363763,25.813154,5.167570,-2.152537,-12.716416,13.382056,-0.036149,0.646037,-0.252281,-0.382175,-0.369559,-0.369036,-0.762352,61.730811,-16.343507,116.939105
64783,NaN,10.065611,25.694455,5.887184,-7.451632,-1.222280,17.374221,-1.651199,-0.776850,1.548597,-0.380779,-0.372214,-0.358421,-0.766811,60.781402,-17.330123,116.969500
64784,NaN,13.233394,-2.358620,12.638507,5.711684,15.647840,-1.879402,-0.910261,-0.499118,0.140356,-0.382851,-0.372654,-0.353775,-0.767722,60.333921,-17.535895,116.744978
64785,NaN,-2.784970,10.587724,3.859177,1.072714,-6.100752,0.004286,1.810599,0.718761,-1.387115,-0.383557,-0.370902,-0.364707,-0.763089,61.387404,-16.636039,116.708021
64786,NaN,-1.378024,12.015892,2.151154,-1.341321,-5.823664,0.920077,0.916189,-0.092275,-0.745388,-0.384890,-0.371659,-0.369462,-0.759755,61.994082,-16.280192,116.443503
64787,NaN,-1.214144,6.314985,2.869764,1.011303,-2.935303,-3.492138,0.964193,-0.075668,-1.011769,-0.387124,-0.371943,-0.374899,-0.755806,62.642606,-15.781473,116.115222
64788,NaN,-3.067840,9.101631,2.543992,0.696504,-5.697050,-1.702207,1.155452,-0.273333,-1.307234,-0.390439,-0.372761,-0.381213,-0.750522,63.445377,-15.179818,115.613421
64789,NaN,-0.230749,9.317131,2.450219,-0.600445,-3.228465,-0.752825,0.798562,-0.612930,-1.101236,-0.394296,-0.374529,-0.385104,-0.745623,64.069394,-14.763236,114.990233
64790,NaN,1.120081,7.957483,3.059128,-0.188222,-1.242361,-1.306530,0.641062,-0.590172,-1.122544,-0.398433,-0.375835,-0.388482,-0.741000,64.595978,-14.324864,114.383044
64791,NaN,1.738111,7.366966,3.517986,0.168666,-0.260229,-1.471661,0.515697,-0.503678,-1.013591,-0.402244,-0.376771,-0.391335,-0.736953,65.026900,-13.916053,113.850722
64792,NaN,2.481822,6.940277,3.951248,0.410469,0.744172,-1.493035,0.386064,-0.450446,-0.794485,-0.405346,-0.377660,-0.393403,-0.733690,65.360094,-13.605935,113.408478
64793,NaN,3.179285,7.007587,4.581556,0.699317,1.561358,-1.021913,0.267427,-0.318991,-0.530419,-0.407467,-0.378346,-0.394785,-0.731416,65.591018,-13.399140,113.099511
64794,NaN,3.532206,7.275559,4.941358,0.821385,1.911600,-0.566159,0.180694,-0.146043,-0.306179,-0.408557,-0.378656,-0.395785,-0.730106,65.737556,-13.268552,112.942496
64795,NaN,3.475959,7.600970,4.846387,0.676540,1.745651,-0.334320,0.161530,0.004374,-0.191691,-0.408999,-0.378610,-0.396793,-0.729335,65.847537,-13.161166,112.890148
64796,NaN,3.258638,7.956244,4.766934,0.592712,1.427748,-0.104217,0.157989,0.077983,-0.158720,-0.409148,-0.378346,-0.397888,-0.728791,65.944989,-13.054661,112.889549
64797,NaN,3.172969,8.233101,4.742091,0.529780,1.271549,0.109084,0.163544,0.041974,-0.182272,-0.409479,-0.378186,-0.398959,-0.728103,66.050759,-12.943262,112.859657
64798,NaN,2.974232,8.385265,4.763422,0.590571,1.072234,0.204816,0.187623,-0.054615,-0.242844,-0.410141,-0.378297,-0.400048,-0.727075,66.185446,-12.823441,112.768201
64799,NaN,2.452955,8.304872,4.569828,0.657350,0.609085,-0.062405,0.233701,-0.156037,-0.340582,-0.411311,-0.378683,-0.401264,-0.725541,66.362913,-12.674456,112.594499
64800,NaN,2.034030,8.351434,4.267151,0.553917,0.170534,-0.233739,0.263083,-0.223339,-0.442189,-0.412888,-0.379158,-0.402653,-0.723625,66.570138,-12.487978,112.366362
64801,NaN,1.618331,8.466262,3.764230,0.251771,-0.335645,-0.416424,0.301077,-0.285519,-0.522600,-0.414844,-0.379781,-0.404185,-0.721322,66.808831,-12.271370,112.081912
64802,NaN,1.078498,8.426942,3.399898,0.160789,-0.861987,-0.704081,0.335670,-0.365103,-0.572805,-0.417031,-0.380646,-0.405781,-0.718704,67.078006,-12.045997,111.749306
64803,NaN,0.925925,8.363484,3.200939,0.080896,-0.985201,-0.864289,0.366058,-0.461965,-0.588293,-0.419443,-0.381894,-0.407292,-0.715778,67.374060,-11.831330,111.357462
64804,NaN,1.102515,8.415083,3.071659,-0.087599,-0.828739,-0.825498,0.336255,-0.487594,-0.557719,-0.421811,-0.383218,-0.408592,-0.712932,67.653369,-11.637559,110.964831
64805,NaN,1.433629,8.156004,3.372265,0.162873,-0.326803,-0.878798,0.287586,-0.477936,-0.502061,-0.424085,-0.384522,-0.409610,-0.710292,67.899303,-11.468364,110.585811
64806,NaN,1.719452,8.036452,3.776144,0.484913,0.107782,-0.781992,0.261728,-0.474826,-0.420131,-0.426067,-0.385913,-0.410396,-0.707893,68.125941,-11.341613,110.232407
64807,NaN,2.023584,8.015478,4.121788,0.724465,0.508680,-0.617678,0.256739,-0.426736,-0.393094,-0.427895,-0.387184,-0.411195,-0.705630,68.342008,-11.216686,109.906888
64808,NaN,2.171260,8.000771,4.538973,1.080583,0.779702,-0.455696,0.236580,-0.345598,-0.373460,-0.429487,-0.388152,-0.412069,-0.703618,68.536941,-11.085018,109.634971
64809,NaN,2.166477,7.956186,4.822335,1.372996,0.885247,-0.400962,0.211693,-0.271777,-0.379169,-0.431026,-0.388802,-0.413006,-0.701766,68.708762,-10.933117,109.398017
64810,NaN,2.016920,7.973615,4.914941,1.519357,0.791584,-0.385704,0.171459,-0.267757,-0.382844,-0.432610,-0.389331,-0.413831,-0.700009,68.857205,-10.778699,109.167533
64811,NaN,1.969967,7.952906,5.088241,1.712577,0.822344,-0.356978,0.141464,-0.280448,-0.408424,-0.434399,-0.389793,-0.414555,-0.698214,68.989251,-10.611842,108.920967
64812,NaN,1.905131,7.922616,5.012072,1.687720,0.778670,-0.428475,0.141574,-0.314790,-0.429513,-0.436296,-0.390321,-0.415258,-0.696317,69.125538,-10.441002,108.656169
64813,NaN,1.850512,7.967998,5.021294,1.714357,0.742766,-0.398018,0.105500,-0.362247,-0.440022,-0.438425,-0.390916,-0.415733,-0.694359,69.244444,-10.272899,108.359912
64814,NaN,1.788423,7.782800,4.852756,1.647340,0.719236,-0.642705,0.118504,-0.415852,-0.466340,-0.440697,-0.391661,-0.416199,-0.692218,69.376858,-10.101626,108.033558
64815,NaN,1.765038,7.790943,4.692821,1.522983,0.682643,-0.699446,0.145554,-0.442246,-0.479043,-0.443042,-0.392534,-0.416704,-0.689920,69.525672,-9.927319,107.686678
64816,NaN,1.822267,7.857297,4.418966,1.255632,0.682716,-0.727411,0.156103,-0.442519,-0.477810,-0.445325,-0.393421,-0.417254,-0.687608,69.680353,-9.753575,107.344704
64817,NaN,1.838805,7.762115,4.255124,1.146862,0.712028,-0.873148,0.157864,-0.445441,-0.464129,-0.447588,-0.394353,-0.417755,-0.685297,69.833650,-9.586254,107.000791
64818,NaN,1.821296,7.771524,4.147680,1.069175,0.693862,-0.908065,0.144630,-0.409546,-0.415760,-0.449603,-0.395222,-0.418209,-0.683197,69.974596,-9.437638,106.690456
64819,NaN,1.950879,7.531660,4.263561,1.223960,0.922583,-1.074239,0.146452,-0.356595,-0.388028,-0.451434,-0.395976,-0.418711,-0.681242,70.108970,-9.292237,106.411109
64820,NaN,1.994153,7.423308,4.353630,1.342558,1.030052,-1.142467,0.152990,-0.311732,-0.361585,-0.453036,-0.396638,-0.419299,-0.679430,70.242732,-9.152366,106.165828
64821,NaN,1.978571,7.324085,4.486048,1.513257,1.087601,-1.198239,0.157035,-0.260055,-0.351467,-0.454514,-0.397159,-0.419977,-0.677718,70.372137,-9.006819,105.947229
64822,NaN,2.054710,7.297556,4.734887,1.744745,1.238798,-1.134179,0.146488,-0.223179,-0.334350,-0.455845,-0.397558,-0.420685,-0.676149,70.492493,-8.863575,105.756465
64823,NaN,2.173566,7.144370,4.986064,2.000703,1.459454,-1.181674,0.112755,-0.184156,-0.336976,-0.457196,-0.397747,-0.421353,-0.674708,70.588446,-8.710612,105.583140
64824,NaN,2.407186,7.035187,5.307829,2.277054,1.793308,-1.148942,0.090612,-0.170931,-0.348346,-0.458571,-0.397809,-0.422016,-0.673322,70.671800,-8.549225,105.418909
64825,NaN,2.511155,6.859421,5.543548,2.527458,2.000102,-1.227817,0.093644,-0.185323,-0.364903,-0.460056,-0.397897,-0.422666,-0.671848,70.756532,-8.380840,105.239862
64826,NaN,2.366123,6.585479,5.446525,2.565609,1.924688,-1.545592,0.137395,-0.208933,-0.440681,-0.461724,-0.397995,-0.423578,-0.670069,70.871120,-8.176123,105.037954
64827,NaN,2.265179,6.585220,5.400041,2.566364,1.843487,-1.586398,0.204115,-0.285182,-0.479042,-0.463579,-0.398426,-0.424588,-0.667890,71.028377,-7.963878,104.783273
64828,NaN,2.424793,6.603800,5.161429,2.323098,1.970905,-1.636577,0.232976,-0.324146,-0.503555,-0.465503,-0.398990,-0.425671,-0.665521,71.206296,-7.745383,104.507855
64829,NaN,2.319679,6.349521,4.937369,2.238670,1.905348,-1.974779,0.261324,-0.373496,-0.570473,-0.467727,-0.399645,-0.426837,-0.662816,71.402690,-7.498245,104.189354
64830,NaN,2.206390,6.359885,4.615368,1.994657,1.762784,-2.097011,0.352188,-0.419832,-0.623927,-0.470003,-0.400538,-0.428321,-0.659703,71.655876,-7.229748,103.841377
64831,NaN,1.917829,6.399932,3.924873,1.446668,1.382564,-2.326887,0.484499,-0.495199,-0.703728,-0.472467,-0.401820,-0.430188,-0.655938,71.987933,-6.928957,103.434193
64832,NaN,1.342135,6.976112,3.098595,0.695025,0.612328,-2.117860,0.629838,-0.507598,-0.717563,-0.474660,-0.403436,-0.432544,-0.651800,72.403862,-6.620759,103.025096
64833,NaN,1.079699,7.402195,2.764214,0.373789,0.271545,-1.851199,0.621812,-0.544999,-0.673405,-0.476830,-0.405248,-0.434656,-0.647674,72.812317,-6.339683,102.600320
64834,NaN,0.981760,7.875667,3.005102,0.545501,0.183631,-1.345752,0.599790,-0.585185,-0.555848,-0.478699,-0.407373,-0.436379,-0.643792,73.208344,-6.127343,102.180579
64835,NaN,0.487916,8.062954,2.555491,0.228045,-0.364712,-1.351336,0.645655,-0.598689,-0.510916,-0.480386,-0.409748,-0.438085,-0.639858,73.627008,-5.938475,101.757309
64836,NaN,-0.100440,8.490087,2.115447,-0.123594,-1.034235,-1.124683,0.736196,-0.589684,-0.555108,-0.481956,-0.412193,-0.440209,-0.635634,74.098131,-5.721076,101.338731
64837,NaN,-0.370973,9.725049,1.740507,-0.670170,-1.481922,-0.060895,0.894572,-0.571023,-0.685414,-0.483594,-0.414669,-0.443106,-0.630749,74.656857,-5.424678,100.907341
64838,NaN,0.483444,13.791260,1.941706,-1.533112,-1.079727,3.996152,0.939526,-0.564051,-0.884091,-0.485689,-0.416763,-0.446580,-0.625284,75.242794,-5.013575,100.458507
64839,NaN,3.108916,17.377088,3.157725,-1.572756,1.354309,7.999925,0.674372,-0.652166,-0.796110,-0.488271,-0.418674,-0.448783,-0.620401,75.674579,-4.659644,99.972708
64840,NaN,3.927719,17.050050,4.436457,-0.304004,2.516843,8.058647,0.439570,-0.742755,-0.748926,-0.491350,-0.420377,-0.449947,-0.615960,75.974238,-4.341926,99.450142
64841,NaN,5.754636,17.683100,4.663741,-0.428276,4.377937,8.847620,0.374544,-0.689357,-0.571606,-0.493918,-0.422151,-0.450629,-0.612182,76.228064,-4.112722,98.978822
64842,NaN,6.604055,17.029693,4.712606,-0.276428,5.360080,8.271148,0.277983,-0.418003,-0.312538,-0.495244,-0.423423,-0.451158,-0.609838,76.413839,-3.989440,98.699862
64843,NaN,6.448657,15.646095,4.548237,-0.046290,5.357154,6.871753,0.204623,-0.066314,-0.043053,-0.495143,-0.424059,-0.451732,-0.609053,76.539092,-3.968386,98.648694
64844,NaN,5.707559,14.419664,3.813142,-0.351637,4.648431,5.461845,0.100661,0.226682,0.242465,-0.493694,-0.424178,-0.452138,-0.609845,76.592644,-4.067392,98.804492
64845,NaN,4.484642,13.333384,3.084999,-0.632174,3.420069,4.162704,0.031842,0.461470,0.490062,-0.491141,-0.423983,-0.452352,-0.611880,76.592416,-4.273370,99.118622
64846,NaN,2.877572,12.257320,2.639276,-0.585874,1.827577,2.907542,-0.057353,0.573731,0.737313,-0.487720,-0.423762,-0.452071,-0.614968,76.534165,-4.601931,99.534573
64847,NaN,1.681029,11.325715,2.347920,-0.480666,0.632838,1.848280,-0.140454,0.624399,0.905599,-0.483872,-0.423569,-0.451255,-0.618729,76.419274,-5.016946,99.996015
64848,NaN,1.002944,10.831503,2.194832,-0.416367,-0.088394,1.276164,-0.201543,0.669499,1.019875,-0.479641,-0.423316,-0.450137,-0.622997,76.263933,-5.488262,100.505675
64849,NaN,0.360201,10.471221,2.180586,-0.248329,-0.769516,0.858606,-0.267363,0.724640,1.060963,-0.475321,-0.422826,-0.448805,-0.627584,76.060855,-5.973278,101.047114
64850,NaN,-0.138436,10.330284,2.074692,-0.235215,-1.349040,0.635387,-0.290168,0.708218,1.038130,-0.471095,-0.422247,-0.447428,-0.632127,75.843206,-6.445894,101.585042
64851,NaN,-0.054750,10.389647,2.041612,-0.308160,-1.377080,0.681303,-0.317928,0.572505,1.001980,-0.467374,-0.421952,-0.445668,-0.636316,75.612443,-6.915321,102.037592
64852,NaN,0.315676,10.765850,1.912050,-0.605736,-1.202659,1.042947,-0.353515,0.435841,1.021774,-0.463908,-0.422021,-0.443454,-0.640341,75.368274,-7.413638,102.425754
64853,NaN,-0.264490,10.674327,1.803910,-0.579587,-1.870660,0.837623,-0.332611,0.411420,0.994850,-0.460575,-0.422162,-0.441257,-0.644161,75.132888,-7.898415,102.791329
64854,NaN,2.392107,10.019063,2.508217,-0.372179,0.831036,0.749716,-0.499997,0.272123,1.190027,-0.457205,-0.422762,-0.437807,-0.648506,74.806478,-8.510641,103.118730
64855,NaN,3.295160,9.555907,1.745737,-1.233117,1.528176,0.255261,-0.408456,0.573699,1.287925,-0.452696,-0.422806,-0.435080,-0.653457,74.498403,-9.128773,103.626211
64856,NaN,2.096129,9.282110,1.799258,-0.879589,0.321332,-0.173684,-0.442447,0.773962,1.308959,-0.447675,-0.422122,-0.432662,-0.658941,74.147718,-9.725220,104.260970
64857,NaN,2.382766,8.361371,1.673199,-0.897971,0.660802,-1.029440,-0.448826,0.839693,1.359794,-0.442382,-0.421308,-0.430200,-0.664625,73.776278,-10.334661,104.938235
64858,NaN,1.828900,7.807815,1.525772,-0.804186,0.127382,-1.690441,-0.422599,0.878930,1.366202,-0.436846,-0.420388,-0.427903,-0.670327,73.409342,-10.937555,105.651177
64859,NaN,1.626866,7.318690,1.344102,-0.837349,-0.081050,-2.242492,-0.448693,0.860615,1.397842,-0.431317,-0.419527,-0.425350,-0.676048,73.018076,-11.555653,106.357802
64860,NaN,1.332432,6.764467,1.274114,-0.718643,-0.323453,-2.845989,-0.458335,0.823247,1.412443,-0.425758,-0.418756,-0.422655,-0.681716,72.618042,-12.183754,107.058921
64861,NaN,1.316354,6.396068,1.203248,-0.716490,-0.343109,-3.220383,-0.479739,0.768355,1.403406,-0.420407,-0.418093,-0.419729,-0.687229,72.202090,-12.811112,107.727666
64862,NaN,1.153248,6.144984,1.018265,-0.800476,-0.549775,-3.552973,-0.488164,0.695883,1.355520,-0.415316,-0.417519,-0.416726,-0.692481,71.785739,-13.420818,108.359765
64863,NaN,1.055737,5.719983,1.182200,-0.538591,-0.549313,-3.927273,-0.485570,0.600325,1.238460,-0.410848,-0.417026,-0.413723,-0.697228,71.379260,-13.979278,108.916415
64864,NaN,1.123171,5.573587,1.498434,-0.251036,-0.435226,-3.954458,-0.496064,0.493076,1.154569,-0.406849,-0.416679,-0.410648,-0.701585,70.980714,-14.508679,109.408626
64865,NaN,1.592435,5.101658,1.434875,-0.370422,0.071742,-4.291915,-0.506596,0.425384,1.086296,-0.403276,-0.416401,-0.407495,-0.705639,70.581868,-15.010203,109.849033
64866,NaN,1.699403,5.209019,2.081259,0.143366,0.226057,-3.957648,-0.496414,0.321875,1.072303,-0.399885,-0.416453,-0.404212,-0.709417,70.201585,-15.521506,110.238886
64867,NaN,2.045761,5.289257,2.191668,0.092350,0.475427,-3.752171,-0.442866,0.311636,1.069850,-0.396438,-0.416639,-0.401061,-0.713022,69.847354,-16.030776,110.621587
64868,NaN,2.183448,5.775728,2.392591,0.098551,0.405380,-3.203868,-0.430217,0.366694,1.087698,-0.392735,-0.416664,-0.398041,-0.716739,69.487976,-16.536634,111.048380
64869,NaN,2.226368,6.078593,2.529912,0.116954,0.294346,-2.869657,-0.470374,0.465366,1.082556,-0.388962,-0.416239,-0.395037,-0.720693,69.083266,-17.016819,111.529033
64870,NaN,2.380586,6.202270,2.786733,0.239752,0.377419,-2.622359,-0.497002,0.544588,1.038842,-0.385192,-0.415365,-0.392196,-0.724762,68.649655,-17.454041,112.054304
64871,NaN,2.584437,6.378282,2.965975,0.254314,0.464681,-2.337549,-0.526582,0.572819,0.970485,-0.381698,-0.414191,-0.389401,-0.728779,68.191941,-17.844840,112.580326
64872,NaN,2.501069,6.606054,3.013762,0.237636,0.246810,-2.140646,-0.530634,0.564707,0.859406,-0.378582,-0.412798,-0.386820,-0.732559,67.738448,-18.174492,113.085701
64873,NaN,2.473237,7.070107,2.893250,-0.008365,-0.061893,-1.783376,-0.581562,0.456933,0.744795,-0.376227,-0.411479,-0.384045,-0.735967,67.277325,-18.463077,113.503488
64874,NaN,2.606066,7.258628,2.839399,-0.192630,-0.099099,-1.597210,-0.636631,0.298367,0.600262,-0.374774,-0.410343,-0.381086,-0.738875,66.822714,-18.707786,113.806701
64875,NaN,2.676165,7.240613,2.988609,-0.124864,-0.048349,-1.536107,-0.693517,0.118581,0.481838,-0.374247,-0.409539,-0.377788,-0.741278,66.373016,-18.928717,113.979580
64876,NaN,2.591831,7.041117,3.279351,0.171260,-0.012840,-1.626163,-0.756534,-0.004202,0.370324,-0.374452,-0.408847,-0.374277,-0.743335,65.918971,-19.118477,114.063562
64877,NaN,2.597165,6.989838,3.395223,0.244711,-0.006608,-1.623035,-0.716726,-0.238536,0.309006,-0.375272,-0.408985,-0.370566,-0.744703,65.532699,-19.330694,113.999866
64878,NaN,3.027345,7.054465,3.622911,0.232891,0.340408,-1.334165,-0.707091,-0.378476,0.279956,-0.376397,-0.409595,-0.366709,-0.745709,65.181844,-19.561696,113.857229
64879,NaN,3.623709,7.061130,3.706551,0.050177,0.819897,-1.091775,-0.686807,-0.402943,0.250438,-0.377663,-0.410280,-0.362908,-0.746551,64.847806,-19.784039,113.690659
64880,NaN,3.914319,7.326571,3.706254,-0.156681,0.902577,-0.762968,-0.624995,-0.329279,0.222296,-0.378734,-0.410742,-0.359557,-0.747376,64.540057,-19.974668,113.562570
64881,NaN,4.077874,7.843242,3.721921,-0.372184,0.770163,-0.259347,-0.550425,-0.201084,0.187473,-0.379580,-0.410805,-0.356766,-0.748248,64.251999,-20.116228,113.492761
64882,NaN,3.954974,8.566980,3.640678,-0.628829,0.281483,0.277638,-0.467168,-0.046939,0.140357,-0.380121,-0.410357,-0.354702,-0.749200,63.988733,-20.195204,113.499697
64883,NaN,3.767395,9.237040,3.643901,-0.777672,-0.211537,0.777144,-0.365950,0.124333,0.105658,-0.380309,-0.409401,-0.353385,-0.750250,63.752047,-20.213300,113.587920
64884,NaN,3.601777,9.773704,3.624861,-0.919118,-0.619042,1.160443,-0.264173,0.279598,0.054740,-0.380173,-0.407960,-0.352875,-0.751343,63.551203,-20.165224,113.750979
64885,NaN,3.339573,10.349306,3.546374,-1.085186,-1.129814,1.517955,-0.151533,0.351996,0.005650,-0.379892,-0.406378,-0.352998,-0.752284,63.404129,-20.073240,113.936479
64886,NaN,3.067348,10.672630,3.483528,-1.152700,-1.519125,1.668258,-0.052622,0.306644,-0.055464,-0.379690,-0.405040,-0.353557,-0.752845,63.330369,-19.961016,114.083721
64887,NaN,2.897000,10.879572,3.576633,-1.078792,-1.723900,1.824080,0.020573,0.207486,-0.116176,-0.379770,-0.404111,-0.354299,-0.752955,63.320948,-19.843409,114.156958
64888,NaN,2.437157,10.667906,3.754537,-0.691199,-1.956981,1.568565,0.062864,0.107114,-0.200529,-0.380232,-0.403485,-0.355206,-0.752630,63.364176,-19.708136,114.155724
64889,NaN,2.018702,10.258678,3.995927,-0.203056,-2.044841,1.190058,0.081793,-0.001176,-0.263229,-0.381108,-0.403195,-0.356080,-0.751929,63.441839,-19.568789,114.075647
64890,NaN,1.903989,9.999996,4.347632,0.225553,-1.910627,1.088024,0.127104,-0.032514,-0.348693,-0.382245,-0.402952,-0.357260,-0.750922,63.560460,-19.393234,113.958692
64891,NaN,1.841393,10.453224,4.505921,0.260951,-2.084396,1.525340,0.190119,0.069517,-0.481595,-0.383593,-0.402210,-0.359114,-0.749747,63.706228,-19.123434,113.859089
64892,NaN,1.515997,10.870260,4.412354,0.184075,-2.500851,1.747629,0.268829,0.246247,-0.635216,-0.385013,-0.400673,-0.361931,-0.748487,63.880270,-18.729495,113.818324
64893,NaN,1.087450,11.974274,4.478023,0.087055,-3.243200,2.600667,0.334011,0.356266,-0.790601,-0.386701,-0.398564,-0.365486,-0.747013,64.083193,-18.227897,113.794905
64894,NaN,-7.461425,48.621116,5.872824,-6.102250,-26.426843,31.642298,-1.297666,0.243633,0.851595,-0.385674,-0.396702,-0.359463,-0.751445,63.234227,-18.598140,114.150260
64895,NaN,26.061337,13.184119,7.812167,-7.065941,17.949191,13.463034,-3.936235,-3.273773,3.613715,-0.385643,-0.407723,-0.331071,-0.758574,61.238033,-21.298441,113.404042
64896,NaN,8.156099,-3.368635,15.765207,11.874658,11.422301,-2.401779,-2.081468,-1.137155,-0.143094,-0.392308,-0.407772,-0.321314,-0.759324,60.292797,-21.540248,112.745274
64897,NaN,1.788523,8.855234,1.320933,-2.357748,-2.451745,-1.340244,2.703992,0.107265,-1.495124,-0.392301,-0.410237,-0.334840,-0.752122,61.988050,-20.755508,112.351778
64898,NaN,-1.579224,12.053659,-0.207370,-3.369443,-6.952024,-0.424528,1.749730,-0.464676,-1.520172,-0.395202,-0.412858,-0.343665,-0.745157,63.236344,-20.099614,111.667145
64899,NaN,-3.895310,5.020392,-0.309010,-0.457854,-5.706049,-7.037058,0.993888,-0.431676,-1.080740,-0.397956,-0.414579,-0.348778,-0.740344,63.992346,-19.649555,111.131162
64900,NaN,-3.368563,7.511748,1.011243,-0.210885,-6.035983,-4.127837,0.813733,-0.464314,-1.379958,-0.402195,-0.415511,-0.353776,-0.735141,64.671375,-19.047017,110.509418
64901,NaN,-1.396551,9.372272,1.821795,-0.685554,-4.864936,-1.507820,0.503780,-0.723578,-0.707953,-0.405072,-0.417941,-0.355682,-0.731254,65.154978,-18.849757,109.923169
64902,NaN,1.034642,8.262986,2.809998,-0.240432,-2.017438,-1.261922,0.111516,-0.546632,-0.442108,-0.407447,-0.419391,-0.355965,-0.728963,65.360032,-18.745583,109.506171
64903,NaN,1.556537,8.055005,3.186157,0.003129,-1.370430,-1.119049,0.088824,-0.346144,-0.458552,-0.409594,-0.420031,-0.356591,-0.727083,65.515813,-18.583158,109.193176
64904,NaN,1.506101,7.996234,3.051219,-0.080580,-1.378739,-1.233032,0.108888,-0.200363,-0.551181,-0.411746,-0.420013,-0.357793,-0.725285,65.664880,-18.337796,108.940888
64905,NaN,1.265217,7.784562,3.225491,0.217291,-1.436978,-1.416754,0.136146,-0.174345,-0.562651,-0.413858,-0.419932,-0.359155,-0.723455,65.823460,-18.078893,108.698314
64906,NaN,1.280458,7.779644,3.534729,0.499213,-1.326170,-1.289269,0.155450,-0.181457,-0.552965,-0.415877,-0.419930,-0.360561,-0.721596,65.993344,-17.826851,108.458152
64907,NaN,1.395841,7.928301,3.831862,0.699233,-1.188760,-1.004324,0.215505,-0.208940,-0.515652,-0.417708,-0.420216,-0.362032,-0.719633,66.197023,-17.599075,108.210231
64908,NaN,1.733042,8.225750,3.992263,0.673114,-0.928939,-0.577518,0.278783,-0.210261,-0.531455,-0.419434,-0.420605,-0.363771,-0.717521,66.438132,-17.363323,107.961937
64909,NaN,1.740472,8.208952,3.834697,0.551651,-0.893278,-0.646525,0.267253,-0.210332,-0.621639,-0.421531,-0.420802,-0.365641,-0.715223,66.676375,-17.078197,107.690485
64910,NaN,1.514998,8.123163,3.614028,0.457718,-1.046201,-0.866301,0.268889,-0.199775,-0.744972,-0.424012,-0.420732,-0.367805,-0.712683,66.921554,-16.725654,107.400445
64911,NaN,1.400193,7.981415,3.484244,0.426310,-1.057354,-1.066065,0.229650,-0.271998,-0.832675,-0.427042,-0.420667,-0.369841,-0.709854,67.157824,-16.340719,107.049198
64912,NaN,1.469734,8.070905,3.442518,0.352172,-0.968346,-0.975919,0.192951,-0.342378,-0.865724,-0.430358,-0.420703,-0.371671,-0.706867,67.384232,-15.953656,106.657039
64913,NaN,1.764963,8.386679,3.419753,0.168122,-0.746288,-0.617002,0.213953,-0.379233,-0.837814,-0.433619,-0.420957,-0.373416,-0.703798,67.622146,-15.586741,106.250139
64914,NaN,2.156874,8.560850,3.359267,-0.028471,-0.388603,-0.374851,0.220217,-0.349848,-0.777562,-0.436561,-0.421224,-0.375124,-0.700904,67.853925,-15.244991,105.878419
64915,NaN,2.460818,9.106028,3.196819,-0.400227,-0.251506,0.135740,0.233152,-0.318666,-0.711799,-0.439244,-0.421553,-0.376755,-0.698150,68.080802,-14.930058,105.530704
64916,NaN,2.496572,8.686327,3.043111,-0.405176,-0.041580,-0.284861,0.255135,-0.270653,-0.655003,-0.441519,-0.421836,-0.378488,-0.695601,68.309612,-14.633803,105.233471
64917,NaN,2.024232,8.215663,2.811189,-0.337097,-0.306921,-0.908235,0.317777,-0.238656,-0.675505,-0.443696,-0.422101,-0.380534,-0.692935,68.567886,-14.317465,104.947850
64918,NaN,1.990824,8.482884,2.732354,-0.453879,-0.375064,-0.699981,0.367353,-0.233349,-0.665938,-0.445689,-0.422469,-0.382749,-0.690206,68.852545,-14.005040,104.672398
64919,NaN,2.050295,8.113858,2.696243,-0.365722,-0.152264,-1.029130,0.375169,-0.214080,-0.618468,-0.447484,-0.422872,-0.384916,-0.687588,69.133690,-13.711646,104.416529
64920,NaN,2.129043,8.046940,2.838621,-0.205223,0.016485,-1.020578,0.348459,-0.207285,-0.574719,-0.449139,-0.423271,-0.386921,-0.685134,69.396054,-13.440243,104.178299
64921,NaN,2.373010,8.056224,3.085462,-0.011134,0.327419,-0.871408,0.282708,-0.202796,-0.487590,-0.450646,-0.423669,-0.388510,-0.682996,69.613532,-13.212793,103.959247
64922,NaN,2.633290,7.962261,3.256608,0.136907,0.667041,-0.841987,0.237747,-0.198364,-0.463016,-0.452126,-0.423996,-0.389912,-0.681013,69.803679,-12.997861,103.751357
64923,NaN,2.932069,7.883185,3.311455,0.162393,1.017635,-0.832415,0.213646,-0.168345,-0.404705,-0.453421,-0.424276,-0.391161,-0.679259,69.971582,-12.806919,103.570122
64924,NaN,3.181109,7.840033,3.412691,0.231199,1.314659,-0.787714,0.201671,-0.094430,-0.365217,-0.454436,-0.424354,-0.392463,-0.677779,70.122376,-12.623145,103.440846
64925,NaN,3.314075,7.690180,3.476073,0.319261,1.525422,-0.880941,0.212458,-0.007404,-0.345560,-0.455210,-0.424197,-0.393943,-0.676498,70.266286,-12.432152,103.361943
64926,NaN,3.269128,7.491373,3.490459,0.414217,1.574633,-1.075410,0.264675,0.118602,-0.331112,-0.455553,-0.423759,-0.395867,-0.675418,70.425516,-12.225072,103.358231
64927,NaN,3.097459,7.411725,3.516756,0.515899,1.474251,-1.183911,0.311914,0.145276,-0.336663,-0.455777,-0.423326,-0.398008,-0.674279,70.607479,-12.009473,103.366823
64928,NaN,3.059432,7.491543,3.631580,0.627727,1.471673,-1.088485,0.322892,0.142944,-0.314387,-0.455887,-0.422967,-0.400143,-0.673165,70.796322,-11.806809,103.381122
64929,NaN,3.158126,7.580213,3.795719,0.752790,1.603192,-0.941169,0.300616,0.118191,-0.290331,-0.456026,-0.422686,-0.402081,-0.672092,70.972753,-11.621674,103.385343
64930,NaN,2.873038,7.382826,4.061375,1.137090,1.460259,-1.104658,0.285253,0.124425,-0.332997,-0.456310,-0.422262,-0.404083,-0.670964,71.142625,-11.412459,103.387131
64931,NaN,2.900064,7.126651,4.422110,1.554561,1.646483,-1.232078,0.287402,0.081127,-0.373524,-0.456827,-0.421903,-0.406062,-0.669642,71.318300,-11.189141,103.356240
64932,NaN,2.836259,7.017737,4.548790,1.736690,1.670948,-1.317031,0.312372,-0.001456,-0.389075,-0.457491,-0.421844,-0.407981,-0.668057,71.518859,-10.972469,103.279271
64933,NaN,2.781640,6.948003,4.512860,1.757763,1.667857,-1.415872,0.346204,-0.047395,-0.430478,-0.458329,-0.421928,-0.409976,-0.666206,71.742914,-10.741313,103.168445
64934,NaN,2.698772,6.879764,4.436131,1.749344,1.629883,-1.531571,0.351247,-0.110039,-0.429123,-0.459260,-0.422232,-0.411854,-0.664211,71.977259,-10.521630,103.025871
64935,NaN,2.637486,6.807269,4.343762,1.723422,1.608451,-1.651435,0.350743,-0.145027,-0.436679,-0.460303,-0.422632,-0.413645,-0.662119,72.212556,-10.303443,102.861609
64936,NaN,2.515680,6.681493,4.423875,1.887074,1.566980,-1.779940,0.347423,-0.178693,-0.442884,-0.461421,-0.423119,-0.415374,-0.659943,72.450452,-10.087040,102.680562
64937,NaN,2.542502,6.547296,4.294514,1.824278,1.636478,-1.953425,0.383577,-0.203671,-0.492424,-0.462689,-0.423664,-0.417247,-0.657520,72.710100,-9.847333,102.476484
64938,NaN,2.440764,6.589956,4.042380,1.631021,1.526738,-2.019467,0.462605,-0.170441,-0.518688,-0.463785,-0.424223,-0.419526,-0.654932,73.013530,-9.586393,102.289341
64939,NaN,2.300760,6.832229,3.778388,1.387112,1.339064,-1.904995,0.524223,-0.119095,-0.512600,-0.464633,-0.424763,-0.422086,-0.652331,73.344194,-9.319612,102.131654
64940,NaN,2.063646,7.200925,3.486196,1.106953,1.032249,-1.690230,0.548977,-0.002218,-0.502472,-0.465126,-0.424996,-0.424992,-0.649938,73.679492,-9.038150,102.044106
64941,NaN,2.061044,7.954561,2.892919,0.399385,0.829662,-1.149907,0.548582,0.141826,-0.423959,-0.465068,-0.424920,-0.428037,-0.648027,73.997290,-8.776811,102.049294
64942,NaN,1.065558,8.353835,2.220224,-0.090047,-0.272951,-1.108179,0.574274,0.296321,-0.337353,-0.464322,-0.424583,-0.431356,-0.646580,74.316803,-8.538709,102.157657
64943,NaN,0.049191,8.490515,2.129411,0.043216,-1.251192,-1.149086,0.553080,0.355581,-0.349801,-0.463542,-0.423973,-0.434744,-0.645270,74.617668,-8.285724,102.296762
64944,NaN,0.074825,9.672399,2.600610,0.255323,-1.317327,0.113189,0.543681,0.311447,-0.497214,-0.463331,-0.423156,-0.438326,-0.643532,74.922554,-7.958128,102.391684
64945,NaN,1.106653,13.382279,3.455606,0.059759,-0.773480,4.031018,0.542396,0.205937,-0.682083,-0.463957,-0.422262,-0.442021,-0.641136,75.236532,-7.544596,102.400071
64946,NaN,2.596100,15.929543,4.740746,0.443430,0.555275,6.993816,0.300691,-0.012415,-0.679485,-0.465542,-0.421507,-0.444443,-0.638806,75.429644,-7.163891,102.290399
64947,NaN,4.040080,16.324738,5.857470,1.136786,2.197787,7.822668,0.104098,-0.221890,-0.691923,-0.468054,-0.420928,-0.445749,-0.636437,75.521490,-6.806609,102.061574
64948,NaN,4.648624,16.715388,5.994582,1.069723,2.853726,8.288693,0.069789,-0.322299,-0.664518,-0.470755,-0.420645,-0.446667,-0.633984,75.600531,-6.478052,101.782643
64949,NaN,5.857617,17.009758,5.821907,0.603605,4.033787,8.650847,-0.074885,-0.342192,-0.432625,-0.473080,-0.420597,-0.446565,-0.632355,75.590558,-6.281405,101.524429
64950,NaN,5.912810,15.805777,5.449313,0.497943,4.248265,7.397286,-0.176421,-0.188622,-0.177657,-0.474451,-0.420391,-0.445988,-0.631872,75.510853,-6.203914,101.390288
64951,NaN,5.487433,14.633995,4.779696,0.179317,3.899472,6.057821,-0.268560,-0.049051,0.079797,-0.474906,-0.420101,-0.444885,-0.632500,75.363402,-6.250212,101.369198
64952,NaN,4.693872,13.018817,4.290072,0.197309,3.258290,4.303650,-0.318508,0.072149,0.335558,-0.474370,-0.419874,-0.443397,-0.634096,75.178203,-6.419773,101.455264
64953,NaN,3.588142,11.910842,3.635600,0.008084,2.186427,2.961482,-0.312141,0.171377,0.584496,-0.472824,-0.419900,-0.441612,-0.636475,74.983170,-6.713348,101.632091
64954,NaN,2.835347,11.381040,2.941449,-0.412858,1.342922,2.197502,-0.325303,0.270281,0.812688,-0.470337,-0.420073,-0.439560,-0.639616,74.771118,-7.116609,101.901666
64955,NaN,2.025969,10.687094,2.592504,-0.449151,0.519056,1.348292,-0.365517,0.371269,0.970782,-0.467213,-0.420171,-0.437245,-0.643417,74.520900,-7.591957,102.251198
64956,NaN,1.349272,10.177280,2.497523,-0.307554,-0.164803,0.747255,-0.415493,0.415021,1.064631,-0.463763,-0.420197,-0.434688,-0.647614,74.235871,-8.109563,102.644738
64957,NaN,1.266856,9.951436,2.389675,-0.368330,-0.328908,0.487874,-0.444558,0.422882,1.135044,-0.460130,-0.420272,-0.431863,-0.652032,73.925278,-8.663821,103.054709
64958,NaN,1.488359,9.865080,2.446654,-0.374361,-0.201670,0.450795,-0.476922,0.440931,1.180337,-0.456340,-0.420289,-0.428888,-0.656632,73.591364,-9.236675,103.488212
64959,NaN,1.669961,9.583357,2.543183,-0.293593,-0.065025,0.237467,-0.528444,0.471546,1.196400,-0.452539,-0.420108,-0.425733,-0.661415,73.217149,-9.811659,103.943180
64960,NaN,2.342117,9.403022,2.577431,-0.418691,0.507779,0.192859,-0.549658,0.508819,1.243536,-0.448506,-0.419830,-0.422499,-0.666393,72.822844,-10.402220,104.434145
64961,NaN,2.261157,9.018902,2.442194,-0.476587,0.379279,-0.218657,-0.561319,0.559285,1.271315,-0.444295,-0.419400,-0.419231,-0.671529,72.407323,-10.996749,104.960364
64962,NaN,2.238121,8.536829,2.375837,-0.457088,0.350728,-0.691393,-0.579837,0.521407,1.307337,-0.440036,-0.419102,-0.415746,-0.676666,71.979958,-11.612877,105.480311
64963,NaN,2.326349,7.940808,2.334090,-0.412671,0.471821,-1.238178,-0.587229,0.506048,1.326857,-0.435755,-0.418861,-0.412109,-0.681791,71.540138,-12.239323,105.998386
64964,NaN,2.137292,7.339342,2.263375,-0.316495,0.343391,-1.854186,-0.590643,0.547992,1.317589,-0.431378,-0.418422,-0.408575,-0.686951,71.089345,-12.848243,106.547042
64965,NaN,1.868771,6.781631,2.171193,-0.224652,0.142923,-2.455703,-0.595911,0.619653,1.278274,-0.426998,-0.417624,-0.405208,-0.692149,70.618701,-13.418944,107.131676
64966,NaN,1.470513,6.313388,2.185027,-0.014310,-0.163595,-2.973971,-0.614411,0.655518,1.218644,-0.422744,-0.416513,-0.401984,-0.697290,70.131169,-13.944908,107.733209
64967,NaN,1.233326,5.997520,2.259157,0.172042,-0.338277,-3.297272,-0.599508,0.636251,1.124634,-0.418821,-0.415294,-0.398917,-0.702129,69.650392,-14.420107,108.308702
64968,NaN,1.051960,5.801157,2.379829,0.359596,-0.476730,-3.482862,-0.568202,0.547810,1.028368,-0.415311,-0.414236,-0.395985,-0.706485,69.201807,-14.855938,108.822383
64969,NaN,1.226267,5.688787,2.201291,0.145094,-0.372316,-3.603681,-0.512263,0.497645,0.898011,-0.412248,-0.413201,-0.393374,-0.710333,68.792470,-15.229433,109.282682
64970,NaN,1.598309,5.885805,2.191801,-0.057287,-0.155996,-3.334000,-0.460497,0.395217,0.834304,-0.409476,-0.412497,-0.390884,-0.713713,68.430355,-15.586504,109.678091
64971,NaN,1.847469,6.081075,2.001044,-0.385130,-0.093893,-3.161418,-0.428558,0.344211,0.785504,-0.406921,-0.411936,-0.388467,-0.716811,68.091409,-15.926857,110.035335
64972,NaN,1.966208,6.141551,2.200932,-0.280612,-0.017031,-3.004647,-0.457506,0.238084,0.766179,-0.404673,-0.411649,-0.385790,-0.719689,67.753111,-16.276985,110.334432
64973,NaN,2.408546,6.009218,2.370709,-0.261709,0.412484,-2.935690,-0.498465,0.113124,0.788070,-0.402679,-0.411763,-0.382632,-0.722422,67.404248,-16.665159,110.570515
64974,NaN,2.865800,5.965090,2.607931,-0.213053,0.830743,-2.751493,-0.551476,0.065171,0.830742,-0.400707,-0.412015,-0.379116,-0.725224,67.029955,-17.084194,110.794806
64975,NaN,3.201512,5.893155,2.630909,-0.313332,1.097169,-2.699447,-0.588485,0.079387,0.879416,-0.398614,-0.412224,-0.375358,-0.728207,66.623426,-17.525065,111.040125
64976,NaN,3.315371,5.829570,2.682698,-0.317380,1.166563,-2.691568,-0.605281,0.112085,0.876876,-0.396475,-0.412262,-0.371625,-0.731260,66.201610,-17.954512,111.308598
64977,NaN,3.258281,5.791864,2.613455,-0.380291,1.048906,-2.759536,-0.617832,0.121851,0.842700,-0.394475,-0.412167,-0.367899,-0.734274,65.767760,-18.362825,111.576300
64978,NaN,3.022047,5.785807,2.719375,-0.231838,0.802424,-2.790914,-0.602283,0.112558,0.771242,-0.392696,-0.411993,-0.364377,-0.737076,65.349850,-18.733203,111.826582
64979,NaN,2.892275,5.775466,2.810576,-0.131598,0.654331,-2.800212,-0.592254,0.086393,0.678648,-0.391292,-0.411760,-0.360996,-0.739613,64.944739,-19.061110,112.040718
64980,NaN,2.849744,5.914275,3.054124,0.031849,0.555339,-2.593433,-0.590098,0.068839,0.604774,-0.390165,-0.411452,-0.357761,-0.741947,64.551013,-19.352514,112.230435
64981,NaN,2.973330,6.361413,3.181329,-0.057825,0.442100,-2.116583,-0.558267,0.117926,0.564002,-0.389046,-0.410947,-0.354790,-0.744238,64.165723,-19.610564,112.437231
64982,NaN,3.079752,7.031595,3.057846,-0.432585,0.161241,-1.562525,-0.531397,0.190997,0.504880,-0.387941,-0.410109,-0.352206,-0.746501,63.788908,-19.817392,112.671825
64983,NaN,3.018945,7.547612,3.125089,-0.540198,-0.157823,-1.121911,-0.561408,0.230775,0.452646,-0.387029,-0.408968,-0.349661,-0.748793,63.388210,-19.986992,112.914566
64984,NaN,2.862132,7.836404,3.255543,-0.496127,-0.442762,-0.882006,-0.580727,0.217103,0.377300,-0.386445,-0.407703,-0.347195,-0.750928,62.987784,-20.118772,113.131785
64985,NaN,2.860491,8.124750,3.350044,-0.543518,-0.599060,-0.606051,-0.580174,0.140346,0.311240,-0.386248,-0.406608,-0.344686,-0.752777,62.604795,-20.236848,113.289076
64986,NaN,2.922884,8.396382,3.369331,-0.674523,-0.705540,-0.355317,-0.540210,0.049559,0.243225,-0.386368,-0.405810,-0.342315,-0.754227,62.270599,-20.342263,113.379819
64987,NaN,3.188925,8.794593,3.532289,-0.790607,-0.664574,0.133380,-0.472178,-0.016653,0.198021,-0.386640,-0.405314,-0.340134,-0.755340,61.989242,-20.443296,113.421660
64988,NaN,3.440334,9.103748,3.582241,-0.968025,-0.612605,0.494305,-0.371300,-0.014561,0.136559,-0.386925,-0.404897,-0.338489,-0.756156,61.773983,-20.511292,113.448268
64989,NaN,3.383748,9.539572,3.493617,-1.186631,-0.904600,0.790712,-0.266244,0.035765,0.081162,-0.387131,-0.404400,-0.337422,-0.756794,61.612317,-20.538776,113.485199
64990,NaN,3.102655,9.817872,3.512226,-1.173634,-1.283701,0.926375,-0.164436,0.104998,0.027212,-0.387207,-0.403745,-0.337010,-0.757288,61.504032,-20.518915,113.544681
64991,NaN,2.860742,10.128490,3.621072,-1.101445,-1.616268,1.144356,-0.057067,0.172208,-0.026213,-0.387165,-0.402954,-0.337217,-0.757638,61.447638,-20.454858,113.623757
64992,NaN,2.659335,10.655304,3.786236,-1.057630,-1.993148,1.582571,0.028106,0.235773,-0.086739,-0.387064,-0.401984,-0.338017,-0.757849,61.436964,-20.341720,113.720063
64993,NaN,2.317081,11.286978,3.934140,-1.004922,-2.530273,2.054493,0.104966,0.312435,-0.163190,-0.386975,-0.400742,-0.339385,-0.757940,61.461700,-20.170211,113.834323
64994,NaN,2.026945,12.027732,3.769468,-1.273855,-3.120765,2.500787,0.171889,0.382777,-0.254161,-0.386968,-0.399207,-0.341347,-0.757873,61.523687,-19.932658,113.960574
64995,NaN,1.873694,12.215427,3.662149,-1.369355,-3.307938,2.569591,0.205595,0.413945,-0.346961,-0.387198,-0.397457,-0.343659,-0.757631,61.606803,-19.640869,114.075867
64996,NaN,1.375133,11.722555,3.806451,-0.897097,-3.409205,2.077241,0.270455,0.335070,-0.479769,-0.387925,-0.395900,-0.346345,-0.756850,61.756530,-19.302880,114.111929
64997,NaN,0.701929,11.496493,3.936743,-0.446252,-3.775136,1.750551,0.376246,0.146144,-0.655905,-0.389439,-0.394952,-0.349391,-0.755166,62.014314,-18.927715,113.997106
64998,NaN,0.195310,11.566884,3.741785,-0.429820,-4.189816,1.593080,0.440181,-0.085209,-0.876819,-0.392050,-0.394608,-0.352676,-0.752463,62.368879,-18.501159,113.699243
64999,NaN,-4.144894,35.413359,6.646474,-3.764677,-17.807048,21.559190,-0.347570,-0.203097,-0.446437,-0.394805,-0.393915,-0.351895,-0.751751,62.250164,-18.324167,113.459869
65000,NaN,19.782603,23.200442,7.977756,-7.797904,8.271871,19.580182,-2.174284,-2.940027,2.338758,-0.395402,-0.404710,-0.333292,-0.754177,61.310747,-20.296498,112.553677
65001,NaN,6.363497,-6.219025,12.224330,10.566940,10.477487,-7.138845,-1.800911,-2.353802,-0.552090,-0.405032,-0.409074,-0.322979,-0.751194,60.784190,-20.668150,111.125439
65002,NaN,0.204971,8.737076,2.430529,-0.863713,-3.380396,-1.439804,2.660413,-0.323031,-2.187822,-0.408291,-0.412097,-0.336804,-0.741645,62.595087,-19.647411,110.313714
65003,NaN,-2.512324,12.112314,-0.234733,-3.326580,-7.511845,-0.561885,1.301074,-0.558310,-1.241064,-0.411171,-0.414731,-0.343076,-0.735687,63.561225,-19.153411,109.663855
65004,NaN,-2.815665,5.089810,1.209697,0.334377,-4.461571,-5.903742,0.327331,-0.437781,-1.009607,-0.414972,-0.415291,-0.345529,-0.732080,63.922162,-18.740519,109.150759
65005,NaN,-1.033571,8.143030,2.271225,-0.254919,-3.922273,-2.257155,0.407133,-0.560479,-0.928431,-0.418521,-0.416590,-0.347828,-0.728223,64.337496,-18.396747,108.595390
65006,NaN,0.895444,8.786781,2.222682,-1.073178,-2.402032,-1.093288,0.349212,-0.496461,-0.600065,-0.420860,-0.418097,-0.349368,-0.725268,64.679664,-18.203675,108.164510
65007,NaN,1.620600,7.897360,2.743986,-0.515364,-1.265506,-1.406925,0.207500,-0.365001,-0.523090,-0.422992,-0.418954,-0.350495,-0.722986,64.909293,-18.016047,107.825541
65008,NaN,2.101195,7.963282,2.916666,-0.504595,-0.790527,-1.126139,0.174972,-0.337237,-0.541757,-0.425194,-0.419608,-0.351607,-0.720772,65.116726,-17.811126,107.499148
65009,NaN,2.663756,7.495990,3.365497,-0.096537,0.009790,-1.175414,0.173419,-0.185513,-0.475285,-0.426902,-0.419821,-0.352885,-0.719011,65.290516,-17.602825,107.272232
65010,NaN,2.811056,7.352002,3.825205,0.339162,0.307217,-1.073317,0.274416,0.028966,-0.407445,-0.427760,-0.419599,-0.354848,-0.717664,65.481767,-17.378460,107.181619
65011,NaN,2.494111,7.467977,4.096485,0.654447,0.055710,-0.961648,0.334481,0.180237,-0.323517,-0.427935,-0.419106,-0.357162,-0.716699,65.675129,-17.161214,107.193819
65012,NaN,2.473916,7.861061,4.298074,0.738356,-0.036506,-0.547523,0.396401,0.278812,-0.305797,-0.427722,-0.418423,-0.359878,-0.715866,65.887708,-16.930648,107.266585
65013,NaN,2.056709,8.108842,4.406986,0.899409,-0.440466,-0.410473,0.433608,0.327917,-0.401606,-0.427696,-0.417465,-0.363020,-0.714854,66.119609,-16.638249,107.342300
65014,NaN,1.536377,8.209215,4.152525,0.805993,-0.932892,-0.567426,0.396276,0.314264,-0.508922,-0.428136,-0.416278,-0.366228,-0.713645,66.340722,-16.293539,107.387194
65015,NaN,1.232708,8.197193,3.896975,0.681297,-1.180188,-0.754956,0.385672,0.239741,-0.666237,-0.429308,-0.415038,-0.369551,-0.711948,66.576292,-15.882659,107.353267
65016,NaN,0.939308,8.225871,3.729968,0.618858,-1.414763,-0.864229,0.336380,0.110299,-0.758834,-0.431125,-0.413976,-0.372616,-0.709868,66.808950,-15.453042,107.230561
65017,NaN,1.008282,8.214452,3.602387,0.498706,-1.296412,-0.894099,0.318268,-0.035727,-0.797151,-0.433401,-0.413313,-0.375364,-0.707416,67.052071,-15.034602,107.019166
65018,NaN,1.234876,8.394548,3.456541,0.261976,-1.104147,-0.721326,0.316682,-0.180080,-0.783516,-0.435873,-0.413177,-0.377769,-0.704692,67.312747,-14.655475,106.736419
65019,NaN,1.533857,8.412495,3.323356,0.070037,-0.790376,-0.672801,0.308286,-0.278861,-0.744574,-0.438424,-0.413433,-0.379831,-0.701844,67.576563,-14.316403,106.408712
65020,NaN,1.779175,8.296856,3.394169,0.123482,-0.453501,-0.685668,0.270863,-0.375959,-0.694887,-0.441034,-0.414037,-0.381449,-0.698969,67.828034,-14.024377,106.043159
65021,NaN,2.408032,8.108633,3.608313,0.231083,0.279139,-0.623730,0.240142,-0.409885,-0.600802,-0.443459,-0.414863,-0.382674,-0.696271,68.058259,-13.786995,105.679230
65022,NaN,2.715437,7.840633,3.690043,0.331869,0.703038,-0.764980,0.215308,-0.384706,-0.463046,-0.445379,-0.415807,-0.383588,-0.693976,68.263338,-13.617308,105.362909
65023,NaN,2.941578,7.939013,3.763315,0.338005,0.930025,-0.600521,0.232595,-0.310971,-0.443126,-0.447071,-0.416564,-0.384670,-0.691832,68.465626,-13.440513,105.089893
65024,NaN,3.049275,7.686710,3.695858,0.349483,1.131723,-0.832716,0.240331,-0.215530,-0.423577,-0.448469,-0.417046,-0.385958,-0.689917,68.659378,-13.254299,104.876498
65025,NaN,2.959399,7.597443,3.737239,0.460132,1.115604,-0.925072,0.260087,-0.139396,-0.403264,-0.449626,-0.417343,-0.387430,-0.688156,68.851915,-13.061539,104.707866
65026,NaN,2.996332,7.707668,3.736417,0.439296,1.156127,-0.822849,0.266921,-0.047119,-0.438846,-0.450689,-0.417269,-0.389215,-0.686497,69.039102,-12.831112,104.585275
65027,NaN,2.805918,7.535011,3.721305,0.541741,1.065486,-1.033804,0.260346,-0.011660,-0.430613,-0.451683,-0.417068,-0.391026,-0.684934,69.215923,-12.596812,104.482992
65028,NaN,2.795177,7.504853,3.740948,0.589889,1.107714,-1.063095,0.269613,-0.026606,-0.432990,-0.452675,-0.416935,-0.392848,-0.683316,69.400613,-12.364619,104.374598
65029,NaN,2.686540,7.511706,3.624122,0.524363,1.024363,-1.126315,0.253464,-0.025700,-0.426848,-0.453691,-0.416769,-0.394591,-0.681738,69.573736,-12.134647,104.267069
65030,NaN,2.527026,7.452274,3.539448,0.519329,0.916699,-1.248825,0.273167,0.000963,-0.446309,-0.454660,-0.416518,-0.396510,-0.680130,69.756661,-11.889154,104.172780
65031,NaN,2.357736,7.489296,3.378352,0.417410,0.760989,-1.309262,0.276521,0.014857,-0.422914,-0.455528,-0.416268,-0.398408,-0.678591,69.937011,-11.652778,104.090130
65032,NaN,2.278048,7.586889,3.277181,0.332517,0.682851,-1.273760,0.293536,0.049409,-0.401267,-0.456198,-0.415983,-0.400408,-0.677137,70.123364,-11.421479,104.033223
65033,NaN,2.196586,7.493941,3.378664,0.490209,0.684701,-1.345677,0.277805,0.043277,-0.371916,-0.456827,-0.415737,-0.402264,-0.675763,70.298396,-11.206676,103.978028
65034,NaN,2.228824,7.515892,3.681561,0.774425,0.795299,-1.223285,0.250111,0.039375,-0.354894,-0.457446,-0.415474,-0.403993,-0.674473,70.458466,-11.001999,103.926215
65035,NaN,2.382217,7.450495,4.042284,1.107552,1.052755,-1.141481,0.241375,0.027196,-0.361047,-0.458142,-0.415216,-0.405661,-0.673157,70.613205,-10.795885,103.865528
65036,NaN,2.639839,7.148209,4.310189,1.397720,1.454875,-1.293712,0.287053,0.055288,-0.367417,-0.458689,-0.414956,-0.407572,-0.671789,70.792662,-10.581139,103.821313
65037,NaN,2.628991,6.993473,4.235572,1.391988,1.509847,-1.473450,0.335402,0.127587,-0.399455,-0.459109,-0.414493,-0.409861,-0.670394,70.991745,-10.335132,103.809938
65038,NaN,2.429612,6.895225,4.271828,1.517940,1.393583,-1.599939,0.359203,0.194774,-0.421645,-0.459397,-0.413812,-0.412440,-0.669034,71.200100,-10.064806,103.833884
65039,NaN,2.142250,6.788946,4.401112,1.753427,1.213976,-1.719460,0.382416,0.196754,-0.461899,-0.459778,-0.413089,-0.415166,-0.667532,71.420996,-9.772285,103.850946
65040,NaN,1.897033,6.795668,4.438040,1.864370,1.034493,-1.754789,0.415917,0.175140,-0.493704,-0.460220,-0.412447,-0.418030,-0.665835,71.665759,-9.466549,103.852911
65041,NaN,1.575034,6.850195,4.316740,1.835594,0.743034,-1.805292,0.434425,0.106712,-0.519919,-0.460865,-0.412013,-0.420831,-0.663890,71.925813,-9.158802,103.812256
65042,NaN,1.283385,6.952698,4.262128,1.852070,0.481399,-1.782081,0.451195,0.046354,-0.543151,-0.461657,-0.411767,-0.423607,-0.661723,72.202876,-8.848865,103.737119
65043,NaN,1.088903,7.089436,4.161989,1.797129,0.298096,-1.722624,0.490657,-0.038810,-0.589744,-0.462714,-0.411786,-0.426390,-0.659181,72.508104,-8.527865,103.606745
65044,NaN,0.794324,7.520189,3.610514,1.272207,-0.121367,-1.530997,0.566613,-0.150430,-0.635138,-0.463977,-0.412248,-0.429268,-0.656130,72.868085,-8.200372,103.410501
65045,NaN,0.520739,7.971926,3.121738,0.800615,-0.508093,-1.288106,0.592358,-0.232219,-0.649271,-0.465415,-0.412996,-0.432044,-0.652811,73.245799,-7.877541,103.167360
65046,NaN,0.479392,8.439103,2.571298,0.217144,-0.679854,-1.006435,0.590513,-0.270306,-0.624400,-0.466832,-0.413912,-0.434682,-0.649459,73.625377,-7.573022,102.911086
65047,NaN,0.501202,9.176573,2.135678,-0.336602,-0.813136,-0.418709,0.587957,-0.199097,-0.606887,-0.468052,-0.414617,-0.437415,-0.646289,73.994110,-7.265017,102.697645
65048,NaN,1.006209,11.663000,2.334029,-0.812561,-0.660488,2.077998,0.561176,-0.070706,-0.623139,-0.469071,-0.414804,-0.440405,-0.643392,74.339834,-6.926774,102.556747
65049,NaN,2.623499,13.700984,3.344084,-0.641865,0.813311,4.494954,0.400185,0.035832,-0.408587,-0.469510,-0.414735,-0.442660,-0.641567,74.579231,-6.689838,102.508609
65050,NaN,2.850780,13.872936,4.148908,0.066237,1.217737,4.894830,0.259380,0.174286,-0.366817,-0.469780,-0.413984,-0.444715,-0.640432,74.730335,-6.454896,102.546151
65051,NaN,3.046281,14.861786,4.317565,-0.024934,1.348372,5.902739,0.271740,0.301999,-0.365952,-0.469749,-0.412848,-0.447087,-0.639536,74.878549,-6.201473,102.654290
65052,NaN,2.975392,15.874464,4.553183,-0.003202,1.241872,6.921715,0.217996,0.342303,-0.376205,-0.469753,-0.411435,-0.449417,-0.638809,74.996416,-5.936506,102.785039
65053,NaN,2.951198,16.250473,4.864491,0.219504,1.298422,7.354612,0.154239,0.288038,-0.351445,-0.469942,-0.410095,-0.451345,-0.638173,75.078733,-5.693740,102.888492
65054,NaN,2.999708,16.104497,4.996523,0.369234,1.460787,7.247436,0.068095,0.163733,-0.295118,-0.470393,-0.409077,-0.452605,-0.637601,75.120240,-5.500348,102.932541
65055,NaN,3.157773,15.567316,4.830987,0.296481,1.708159,6.699293,-0.004694,0.001954,-0.207010,-0.471090,-0.408600,-0.453053,-0.637074,75.125168,-5.379902,102.898389
65056,NaN,3.224182,14.764382,4.721015,0.357390,1.886408,5.903039,-0.081592,-0.181891,-0.066173,-0.471898,-0.408849,-0.452554,-0.636671,75.095907,-5.364175,102.784090
65057,NaN,3.277004,13.711988,4.638070,0.505590,2.059717,4.876455,-0.146937,-0.325869,0.111235,-0.472617,-0.409802,-0.451122,-0.636541,75.032054,-5.468382,102.614198
65058,NaN,3.243012,12.498444,4.471370,0.632591,2.129058,3.670192,-0.212039,-0.384262,0.301758,-0.472975,-0.411215,-0.448973,-0.636883,74.934070,-5.686560,102.442183
65059,NaN,3.086380,11.522169,4.240420,0.666993,2.013556,2.667996,-0.287042,-0.366610,0.489191,-0.472862,-0.412811,-0.446215,-0.637872,74.787597,-6.006728,102.306859
65060,NaN,2.799125,10.874681,3.850688,0.495860,1.682980,1.927951,-0.347037,-0.245248,0.654953,-0.472051,-0.414243,-0.443228,-0.639624,74.599878,-6.399930,102.266772
65061,NaN,2.117006,10.325602,3.455072,0.371969,0.950202,1.232459,-0.399204,-0.069604,0.780042,-0.470571,-0.415263,-0.440196,-0.642142,74.366457,-6.836004,102.342722
65062,NaN,1.400119,9.901469,2.960062,0.128067,0.149446,0.614290,-0.450338,0.056455,0.849185,-0.468669,-0.415899,-0.437170,-0.645182,74.095403,-7.289636,102.503870
65063,NaN,0.760890,9.862899,2.297986,-0.384677,-0.667645,0.313614,-0.503442,0.155623,0.844013,-0.466688,-0.416072,-0.434179,-0.648518,73.782795,-7.724401,102.719106
65064,NaN,-1.884776,9.021416,2.551565,0.607781,-3.095828,-0.785236,-0.468093,0.107260,0.626986,-0.465411,-0.416003,-0.431659,-0.651157,73.499687,-8.046008,102.877261
65065,NaN,2.416375,9.174621,2.254953,-0.694649,0.892649,-0.126776,-0.679506,-0.102575,0.970314,-0.463922,-0.416857,-0.427212,-0.654596,73.100100,-8.589875,102.975374
65066,NaN,2.457647,9.055461,1.857005,-1.089437,0.787370,-0.342622,-0.506992,0.205953,0.982895,-0.461333,-0.417113,-0.424031,-0.658321,72.773715,-9.087884,103.253166
65067,NaN,2.161572,9.131694,1.497484,-1.417479,0.323905,-0.421869,-0.522593,0.371820,1.068943,-0.458151,-0.416958,-0.420961,-0.662597,72.415690,-9.603156,103.638302
65068,NaN,1.979340,8.403434,1.683128,-1.052277,0.244271,-1.083399,-0.549921,0.424648,1.139300,-0.454638,-0.416693,-0.417784,-0.667178,72.033008,-10.144796,104.072071
65069,NaN,2.042944,7.827112,1.673901,-0.962489,0.342045,-1.615432,-0.511074,0.420108,1.164493,-0.450975,-0.416570,-0.414630,-0.671695,71.665071,-10.698448,104.509366
65070,NaN,2.057583,7.434089,1.722705,-0.848447,0.369645,-1.963499,-0.458871,0.443679,1.175073,-0.447074,-0.416485,-0.411690,-0.676148,71.321469,-11.250567,104.968834
65071,NaN,1.888774,6.822851,1.755214,-0.640598,0.289313,-2.552876,-0.392302,0.483900,1.176185,-0.442952,-0.416401,-0.409019,-0.680520,71.004181,-11.793563,105.452092
65072,NaN,1.609137,6.450541,1.621005,-0.612803,0.025749,-2.997277,-0.300585,0.533011,1.125394,-0.438670,-0.416227,-0.406883,-0.684668,70.732885,-12.297064,105.959347
65073,NaN,1.672450,6.244537,1.451029,-0.746160,0.042637,-3.229537,-0.236654,0.536949,1.078863,-0.434410,-0.416073,-0.405031,-0.688564,70.492588,-12.772835,106.460464
65074,NaN,1.595950,6.301542,1.516818,-0.689467,-0.097936,-3.174020,-0.249969,0.488480,1.045843,-0.430354,-0.415972,-0.403107,-0.692291,70.249654,-13.237650,106.933699
65075,NaN,1.836040,6.086734,1.394184,-0.827087,0.104843,-3.357632,-0.273597,0.509234,0.960735,-0.426605,-0.415566,-0.401287,-0.695904,69.988115,-13.650938,107.402032
65076,NaN,1.995246,5.945857,1.573658,-0.688985,0.274171,-3.389261,-0.380552,0.476059,0.958296,-0.423120,-0.415027,-0.399039,-0.699635,69.667933,-14.066732,107.856774
65077,NaN,2.171987,5.771283,1.798842,-0.512385,0.481313,-3.427821,-0.442404,0.443991,0.943697,-0.419886,-0.414429,-0.396502,-0.703371,69.311332,-14.478918,108.291815
65078,NaN,2.306080,5.793635,1.724565,-0.653547,0.522298,-3.397234,-0.487682,0.432953,0.930756,-0.416780,-0.413734,-0.393820,-0.707124,68.929206,-14.883286,108.723826
65079,NaN,2.260950,5.788205,1.886857,-0.519712,0.457460,-3.355468,-0.556493,0.409469,0.905622,-0.413956,-0.412919,-0.390862,-0.710890,68.506494,-15.276637,109.139019
65080,NaN,2.182941,5.587279,1.951484,-0.414263,0.413733,-3.531917,-0.583180,0.369686,0.843037,-0.411457,-0.412052,-0.387868,-0.714475,68.076415,-15.641630,109.524406
65081,NaN,2.215751,5.535114,2.167702,-0.246028,0.455306,-3.489886,-0.593644,0.288526,0.780708,-0.409367,-0.411325,-0.384764,-0.717765,67.651050,-15.988780,109.852403
65082,NaN,2.218081,5.540650,2.319618,-0.139906,0.438686,-3.426214,-0.540519,0.203098,0.682882,-0.407656,-0.410812,-0.381892,-0.720561,67.274800,-16.300192,110.116158
65083,NaN,2.111480,5.681062,2.350967,-0.139196,0.254321,-3.318410,-0.430062,0.146726,0.536025,-0.406368,-0.410444,-0.379575,-0.722720,66.976334,-16.545591,110.314759
65084,NaN,2.004870,6.105159,2.400657,-0.195592,-0.029490,-2.955840,-0.395879,0.053518,0.466231,-0.405414,-0.410343,-0.377355,-0.724473,66.717671,-16.773824,110.449495
65085,NaN,2.100267,6.369335,2.585365,-0.153263,-0.042903,-2.626716,-0.407725,-0.013715,0.420860,-0.404791,-0.410374,-0.375023,-0.726014,66.463160,-16.993483,110.535767
65086,NaN,2.356818,6.477658,3.020636,0.102288,0.199753,-2.290164,-0.435445,-0.065727,0.391570,-0.404407,-0.410477,-0.372564,-0.727433,66.204650,-17.208796,110.589514
65087,NaN,2.517353,6.641028,3.207310,0.148867,0.280425,-2.026405,-0.430163,-0.061768,0.358528,-0.404138,-0.410514,-0.370176,-0.728781,65.948326,-17.406267,110.636746
65088,NaN,2.930316,7.014072,3.103648,-0.212149,0.442761,-1.616628,-0.412241,0.012557,0.341114,-0.403739,-0.410279,-0.368058,-0.730205,65.692957,-17.576367,110.723114
65089,NaN,3.303219,7.802777,3.127293,-0.572019,0.424930,-0.808991,-0.432279,0.129631,0.369421,-0.403079,-0.409627,-0.366019,-0.731958,65.401972,-17.733570,110.879353
