// General information: 
//  MT Manager version: 2019.0.1 
//  XDA version: 2019.0.1 build 2740 rev 84096 built on 2019-01-30
// Device information: 
//  DeviceId: 00B43876
//  ProductCode: MTW2-3A7G6
//  Firmware Version: 4.3.4
//  Hardware Version: 1.1.0
// Device settings: 
//  Filter Profile: human(46.1)
//  Option Flags: Orientation Smoother Disabled, AHS Disabled, ICC Disabled
// Coordinate system: ENU
PacketCounter,SampleTimeFine,Acc_X,Acc_Y,Acc_Z,FreeAcc_E,FreeAcc_N,FreeAcc_U,Gyr_X,Gyr_Y,Gyr_Z,Quat_q0,Quat_q1,Quat_q2,Quat_q3,Roll,Pitch,Yaw
07129,NaN,1.770898,9.592634,-1.111013,-0.000807,0.162822,0.003755,-0.025224,0.004781,-0.010173,-0.504019,-0.634983,-0.388354,-0.438113,96.288977,-9.492169,71.407094
07130,NaN,1.740426,9.623863,-1.105555,-0.005388,0.128540,0.028731,-0.026826,0.011170,-0.022469,-0.504123,-0.634877,-0.388372,-0.438130,96.274794,-9.482338,71.411193
07131,NaN,1.722700,9.724973,-1.081229,0.014758,0.088198,0.122294,-0.038630,0.018871,-0.031032,-0.504267,-0.634708,-0.388398,-0.438186,96.251825,-9.469797,71.420385
07132,NaN,1.709883,9.710568,-1.010421,0.074322,0.061517,0.098441,-0.040212,0.024719,-0.036485,-0.504418,-0.634512,-0.388465,-0.438237,96.228543,-9.452824,71.433186
07133,NaN,1.716036,9.757941,-0.994157,0.090996,0.056890,0.144171,-0.036468,0.026999,-0.029322,-0.504536,-0.634334,-0.388511,-0.438319,96.206082,-9.441734,71.447014
07134,NaN,1.689854,9.735430,-0.980821,0.091152,0.035871,0.116392,-0.043268,0.027782,-0.025694,-0.504667,-0.634144,-0.388545,-0.438412,96.180879,-9.431087,71.460892
07135,NaN,1.706595,9.751895,-0.951923,0.120911,0.042563,0.132243,-0.041378,0.025575,-0.023231,-0.504790,-0.633968,-0.388558,-0.438514,96.155802,-9.423361,71.473461
07136,NaN,1.676737,9.690630,-0.983913,0.074745,0.038554,0.070671,-0.043371,0.018864,-0.021308,-0.504928,-0.633806,-0.388555,-0.438591,96.131433,-9.414654,71.481907
07137,NaN,1.775745,9.653890,-1.009010,0.076418,0.148374,0.053472,-0.045063,0.016066,-0.025796,-0.505087,-0.633637,-0.388544,-0.438663,96.105139,-9.404864,71.489141
07138,NaN,1.778482,9.647253,-1.076900,0.009091,0.176010,0.054487,-0.048118,0.013536,-0.030927,-0.505272,-0.633456,-0.388547,-0.438708,96.078460,-9.390345,71.495094
07139,NaN,1.775735,9.633040,-1.110994,-0.028877,0.190357,0.043576,-0.055000,0.022144,-0.038725,-0.505478,-0.633223,-0.388571,-0.438786,96.045781,-9.373543,71.506644
07140,NaN,1.718281,9.718761,-1.092784,-0.030014,0.120301,0.116341,-0.066125,0.029601,-0.045243,-0.505721,-0.632933,-0.388621,-0.438880,96.007140,-9.351826,71.522730
07141,NaN,1.679674,9.804846,-1.088519,-0.039637,0.072491,0.194027,-0.072158,0.039340,-0.047369,-0.505967,-0.632602,-0.388677,-0.439024,95.962971,-9.331102,71.544733
07142,NaN,1.716382,10.015112,-1.024771,0.035715,0.054247,0.399774,-0.076806,0.070007,-0.035028,-0.506142,-0.632216,-0.388774,-0.439292,95.914546,-9.317578,71.583504
07143,NaN,1.653780,10.245911,-0.773752,0.257375,-0.119777,0.590763,-0.068271,0.052379,0.015804,-0.506211,-0.631989,-0.388673,-0.439630,95.872034,-9.333558,71.609318
07144,NaN,1.834100,10.225364,-0.815209,0.264547,0.064987,0.604238,-0.093278,-0.010157,0.029272,-0.506452,-0.631862,-0.388327,-0.439840,95.822297,-9.351944,71.597960
07145,NaN,1.541774,10.572435,-0.920445,0.075706,-0.230734,0.908396,-0.234276,-0.081063,-0.148724,-0.507666,-0.631187,-0.388041,-0.439660,95.695564,-9.266401,71.556229
07146,NaN,1.660965,9.855925,-1.175180,-0.178715,0.112562,0.248844,-0.318507,-0.244578,-0.148769,-0.509463,-0.630657,-0.387166,-0.439114,95.536815,-9.170166,71.419646
07147,NaN,2.283750,9.597023,-0.819940,0.327767,0.656803,0.059081,-0.233198,-0.272828,-0.132044,-0.511006,-0.630435,-0.386341,-0.438367,95.428402,-9.083792,71.265843
07148,NaN,2.364282,9.794346,-0.637754,0.526848,0.660792,0.247706,-0.131405,-0.142143,-0.175818,-0.512070,-0.630101,-0.386221,-0.437710,95.366942,-8.978164,71.189602
07149,NaN,2.561371,9.767070,-0.746860,0.479475,0.905347,0.260270,-0.160418,-0.021536,-0.204633,-0.513054,-0.629371,-0.386425,-0.437427,95.276594,-8.864237,71.184704
07150,NaN,2.538628,9.643979,-0.816362,0.391925,0.952273,0.140046,-0.187897,0.061943,-0.223915,-0.514007,-0.628351,-0.386854,-0.437397,95.164089,-8.742038,71.228552
07151,NaN,2.299125,9.575161,-1.115593,0.016976,0.858868,0.060317,-0.197338,0.099344,-0.238645,-0.514945,-0.627194,-0.387393,-0.437477,95.041825,-8.614992,71.294759
07152,NaN,2.337879,9.699896,-1.091227,0.042625,0.893330,0.184538,-0.204506,0.117309,-0.214573,-0.515819,-0.626025,-0.387897,-0.437675,94.915386,-8.500697,71.369546
07153,NaN,2.251553,9.437776,-0.896207,0.174926,0.818751,-0.104789,-0.203781,0.140238,-0.148412,-0.516498,-0.624934,-0.388243,-0.438127,94.786975,-8.426888,71.454446
07154,NaN,2.052417,9.504142,-0.797619,0.193104,0.606483,-0.077587,-0.158055,0.049711,-0.083582,-0.517069,-0.624285,-0.388263,-0.438360,94.694042,-8.383881,71.483435
07155,NaN,2.090690,9.708523,-0.796878,0.200624,0.615965,0.129231,-0.129790,-0.080127,0.004887,-0.517608,-0.624166,-0.387720,-0.438375,94.627769,-8.387228,71.433403
07156,NaN,2.445562,9.809654,-0.728735,0.370407,0.910259,0.275690,-0.125074,-0.185355,0.089485,-0.518153,-0.624452,-0.386664,-0.438257,94.574769,-8.432188,71.318538
07157,NaN,2.749572,9.742223,-0.590056,0.586910,1.154437,0.244251,-0.121245,-0.240162,0.152895,-0.518648,-0.624990,-0.385261,-0.438138,94.528100,-8.513002,71.169189
07158,NaN,2.812878,9.717595,-0.366554,0.808138,1.134832,0.214143,-0.136910,-0.233356,0.180450,-0.519121,-0.625524,-0.383768,-0.438127,94.473355,-8.607961,71.022496
07159,NaN,2.590013,9.631993,-0.197626,0.881285,0.870409,0.086211,-0.151599,-0.259800,0.230925,-0.519575,-0.626174,-0.382001,-0.438205,94.412019,-8.732902,70.858364
07160,NaN,2.883544,9.433334,-0.061944,1.086004,1.111722,-0.071484,-0.149804,-0.293200,0.309205,-0.519916,-0.627046,-0.379919,-0.438362,94.356695,-8.899090,70.671463
07161,NaN,3.471998,9.068486,-0.007953,1.308838,1.675303,-0.337854,-0.133300,-0.310167,0.354991,-0.520131,-0.628084,-0.377667,-0.438567,94.312109,-9.093175,70.472855
07162,NaN,4.182221,8.840897,0.002445,1.541224,2.339456,-0.442313,-0.083515,-0.315440,0.349149,-0.520213,-0.629247,-0.375543,-0.438628,94.298289,-9.281483,70.271383
07163,NaN,4.270919,8.569246,-0.137753,1.430064,2.482327,-0.675698,-0.091337,-0.321435,0.341623,-0.520340,-0.630386,-0.373390,-0.438679,94.279966,-9.467873,70.066771
07164,NaN,4.042517,8.201234,-0.435314,1.065677,2.404079,-1.044772,-0.075037,-0.340870,0.325335,-0.520489,-0.631574,-0.371289,-0.438577,94.274573,-9.641585,69.851476
07165,NaN,4.188889,8.715387,-0.463975,1.092901,2.426437,-0.504737,-0.071011,-0.292853,0.304664,-0.520573,-0.632629,-0.369366,-0.438581,94.266076,-9.808454,69.664871
07166,NaN,3.947574,8.750260,-0.521612,0.949164,2.186531,-0.499227,-0.117572,-0.205218,0.370180,-0.520501,-0.633485,-0.367379,-0.439099,94.224443,-10.013662,69.526199
07167,NaN,4.121382,8.709233,-0.275552,1.226390,2.237357,-0.517392,-0.075772,-0.119125,0.418630,-0.520024,-0.634351,-0.365531,-0.439956,94.197662,-10.253429,69.435492
07168,NaN,4.483762,8.783938,0.043960,1.636924,2.410992,-0.390848,-0.051856,-0.020942,0.444422,-0.519238,-0.635103,-0.363929,-0.441125,94.176079,-10.508909,69.400724
07169,NaN,4.708635,9.086823,0.394480,2.026036,2.399504,-0.064119,-0.034523,0.081058,0.460603,-0.518166,-0.635705,-0.362554,-0.442648,94.152497,-10.781353,69.424686
07170,NaN,3.621335,8.147872,0.244445,1.488085,1.597755,-1.164320,-0.061331,0.017626,0.500582,-0.517210,-0.636443,-0.360848,-0.444098,94.121973,-11.070550,69.410164
07171,NaN,3.315349,9.138972,0.298051,1.414642,1.048557,-0.247112,-0.042274,-0.170057,0.572914,-0.516359,-0.637777,-0.358442,-0.445122,94.122982,-11.397079,69.283365
07172,NaN,2.673472,8.912100,-0.010675,0.885828,0.555169,-0.567155,-0.086438,-0.396646,0.679392,-0.515819,-0.639679,-0.355033,-0.445750,94.128271,-11.771387,69.019678
07173,NaN,2.457396,8.928459,-0.759796,0.090608,0.550682,-0.537899,-0.121228,-0.619261,0.714158,-0.515690,-0.642041,-0.350829,-0.445831,94.141305,-12.160161,68.624127
07174,NaN,0.384089,8.095602,-2.711473,-2.479353,-0.508253,-1.649794,-0.129570,-0.796279,0.531212,-0.516303,-0.644436,-0.346755,-0.444854,94.173718,-12.433050,68.132100
07175,NaN,-3.107796,7.825905,-4.668992,-5.587379,-2.902027,-2.528324,-0.039444,-0.994224,0.229667,-0.517617,-0.646970,-0.343308,-0.442314,94.280501,-12.528456,67.536625
07176,NaN,-7.168345,6.606246,-6.534823,-8.842655,-5.542671,-4.444533,0.064626,-0.926309,-0.122712,-0.519253,-0.648998,-0.341424,-0.438872,94.436091,-12.420406,66.996364
07177,NaN,-12.974212,6.299800,-8.032091,-12.459882,-10.057787,-5.797394,0.330031,-0.504814,-0.672891,-0.520496,-0.649843,-0.342976,-0.434921,94.683146,-12.018418,66.728895
07178,NaN,-14.928487,19.575862,-0.913283,-6.683247,-17.366561,6.331631,0.092781,0.243914,-1.066465,-0.522077,-0.647745,-0.347249,-0.432760,94.699663,-11.423224,66.918444
07179,NaN,1.435300,21.646086,1.773352,2.120790,-3.910252,11.493818,-0.454713,1.053697,-0.598510,-0.522991,-0.643257,-0.350917,-0.435382,94.316240,-11.132172,67.555855
07180,NaN,6.748793,12.971126,3.005748,5.199759,2.405620,3.971481,-0.719624,1.162335,-0.382614,-0.524076,-0.638188,-0.353588,-0.439359,93.773772,-10.962882,68.244759
07181,NaN,6.307496,6.771154,0.116163,2.310647,4.380378,-1.994816,-0.564339,0.605888,-0.415158,-0.525701,-0.634667,-0.355226,-0.441192,93.383142,-10.750627,68.609033
07182,NaN,7.573517,5.645600,-1.363252,1.340791,6.328448,-2.795420,-0.464015,0.479470,-0.294098,-0.526957,-0.631894,-0.356370,-0.442749,93.066331,-10.600303,68.894126
07183,NaN,1.622588,8.265052,2.771980,3.012095,-1.039971,-1.537833,-0.514374,0.568289,-0.109123,-0.527794,-0.629114,-0.357037,-0.445167,92.712296,-10.558445,69.224495
07184,NaN,-1.411980,11.013029,1.108048,0.302314,-3.740544,0.695646,-0.362110,0.185657,-0.069023,-0.528744,-0.627651,-0.356914,-0.446202,92.487240,-10.526264,69.330773
07185,NaN,-0.275940,11.244389,-0.338714,-0.694775,-2.224390,1.196239,-0.256967,0.090918,-0.004765,-0.529387,-0.626790,-0.356562,-0.446931,92.332026,-10.529715,69.380280
07186,NaN,0.776260,11.082246,1.095861,0.993226,-1.714260,1.173414,-0.219558,0.127674,0.051059,-0.529723,-0.626045,-0.356226,-0.447845,92.195360,-10.564357,69.449835
07187,NaN,1.149074,10.589831,0.990670,1.016119,-1.244198,0.763974,-0.136733,0.007576,0.083034,-0.529941,-0.625843,-0.355647,-0.448329,92.118161,-10.615840,69.448930
07188,NaN,1.965626,9.777548,0.048128,0.424171,-0.023008,0.151548,-0.083869,0.016607,0.098383,-0.529943,-0.625789,-0.355171,-0.448778,92.071238,-10.675051,69.452895
07189,NaN,2.291935,9.587130,-0.455095,0.059361,0.478419,0.043312,-0.062261,0.080258,0.107071,-0.529746,-0.625662,-0.354877,-0.449420,92.028818,-10.741736,69.493967
07190,NaN,2.031095,9.486005,-0.129770,0.267085,0.137377,-0.115458,-0.065329,0.102692,0.111635,-0.529507,-0.625487,-0.354629,-0.450141,91.983160,-10.810255,69.547934
07191,NaN,1.686574,9.684131,0.148378,0.394546,-0.321603,0.005145,-0.016407,0.051904,0.115000,-0.529197,-0.625559,-0.354337,-0.450634,91.970041,-10.880894,69.572419
07192,NaN,1.812565,9.829374,0.027727,0.315218,-0.203258,0.175409,0.021929,0.043532,0.125110,-0.528759,-0.625771,-0.354087,-0.451050,91.980820,-10.955933,69.591678
07193,NaN,1.948791,9.877562,-0.051436,0.283114,-0.073324,0.251164,0.037645,0.084680,0.130254,-0.528188,-0.625939,-0.353956,-0.451590,91.994979,-11.035935,69.634986
07194,NaN,2.188769,9.612499,-0.215387,0.217683,0.240621,0.042867,0.042386,0.102650,0.131085,-0.527568,-0.626081,-0.353889,-0.452170,92.010830,-11.115588,69.688591
07195,NaN,2.528859,9.606433,-0.357697,0.198031,0.589679,0.107982,0.059654,0.104045,0.120460,-0.526915,-0.626245,-0.353888,-0.452705,92.035247,-11.190405,69.743382
07196,NaN,2.524264,9.600551,-0.418007,0.138934,0.595005,0.104161,0.049088,0.101754,0.098068,-0.526349,-0.626348,-0.353937,-0.453182,92.054778,-11.251173,69.797119
07197,NaN,2.436434,9.713036,-0.378466,0.140532,0.468123,0.196489,0.037452,0.123308,0.095014,-0.525788,-0.626364,-0.354016,-0.453750,92.064067,-11.311905,69.863663
07198,NaN,2.392453,9.653995,-0.330264,0.169955,0.413636,0.128768,0.023625,0.139365,0.083420,-0.525267,-0.626287,-0.354152,-0.454351,92.064522,-11.365080,69.939673
07199,NaN,2.259875,9.639522,-0.425176,0.032472,0.318305,0.092151,0.009298,0.119270,0.072722,-0.524852,-0.626198,-0.354225,-0.454897,92.057935,-11.413006,70.004347
07200,NaN,2.052051,9.804199,-0.601875,-0.213214,0.147457,0.218678,-0.010235,0.086050,0.049475,-0.524609,-0.626094,-0.354250,-0.455301,92.044895,-11.445634,70.049960
07201,NaN,2.422432,9.695561,-0.615915,-0.104461,0.511654,0.186249,-0.038874,0.095870,0.026669,-0.524489,-0.625850,-0.354296,-0.455738,92.013178,-11.466686,70.101951
07202,NaN,2.784274,9.824705,-0.389250,0.217877,0.744046,0.376888,-0.046335,0.159002,-0.000847,-0.524344,-0.625395,-0.354587,-0.456303,91.970737,-11.471906,70.191251
07203,NaN,2.266223,9.615296,-0.409038,0.024764,0.317831,0.069385,-0.097047,0.126214,-0.019971,-0.524458,-0.624847,-0.354726,-0.456815,91.901988,-11.466809,70.261918
07204,NaN,2.896299,9.607289,-0.270410,0.353140,0.861605,0.182040,-0.110793,0.127397,-0.052218,-0.524688,-0.624203,-0.354947,-0.457260,91.826109,-11.441826,70.333735
07205,NaN,2.812149,9.697300,-0.074616,0.494710,0.711710,0.247138,-0.125850,0.128171,-0.078248,-0.525021,-0.623470,-0.355206,-0.457675,91.740492,-11.403259,70.406568
07206,NaN,2.843105,9.558101,-0.134818,0.442014,0.800433,0.118205,-0.129617,0.092144,-0.103100,-0.525487,-0.622766,-0.355450,-0.457910,91.657831,-11.348334,70.458579
07207,NaN,2.846375,9.633461,-0.332832,0.243178,0.869257,0.197379,-0.140713,0.041300,-0.136650,-0.526153,-0.622089,-0.355627,-0.457927,91.573615,-11.274789,70.481482
07208,NaN,2.400256,9.891361,-0.373229,0.039291,0.439486,0.363010,-0.169870,-0.009644,-0.168532,-0.527074,-0.621395,-0.355714,-0.457743,91.479435,-11.180681,70.474878
07209,NaN,1.927043,9.834987,-0.187462,0.052783,-0.026356,0.210888,-0.174570,-0.086340,-0.196974,-0.528209,-0.620812,-0.355664,-0.457265,91.390171,-11.070741,70.423884
07210,NaN,1.978498,9.844833,-0.161428,0.088090,0.034529,0.229834,-0.156511,-0.173608,-0.215889,-0.529486,-0.620441,-0.355495,-0.456421,91.321820,-10.947304,70.321976
07211,NaN,2.045723,9.714409,-0.126161,0.145775,0.133697,0.113614,-0.156875,-0.205843,-0.231884,-0.530856,-0.620113,-0.355276,-0.455445,91.255608,-10.815947,70.201482
07212,NaN,1.859592,9.641262,-0.089987,0.118363,-0.011872,0.005963,-0.162275,-0.209551,-0.233049,-0.532251,-0.619775,-0.355050,-0.454453,91.187409,-10.682476,70.078623
07213,NaN,1.799467,9.453394,-0.257350,-0.053857,0.047978,-0.186384,-0.158883,-0.235336,-0.236189,-0.533686,-0.619497,-0.354759,-0.453375,91.122698,-10.548588,69.940778
07214,NaN,1.813184,9.768872,-0.174279,0.012054,0.001305,0.124548,-0.167702,-0.213809,-0.227239,-0.535089,-0.619161,-0.354489,-0.452391,91.051330,-10.418682,69.815163
07215,NaN,1.428725,10.037963,-0.156404,-0.119307,-0.382484,0.319727,-0.180609,-0.202126,-0.202487,-0.536452,-0.618806,-0.354131,-0.451541,90.970217,-10.304769,69.696070
07216,NaN,1.237022,10.058488,-0.157038,-0.194218,-0.539836,0.306545,-0.181589,-0.164438,-0.170631,-0.537680,-0.618418,-0.353785,-0.450884,90.885429,-10.208095,69.598390
07217,NaN,0.954686,10.093474,0.075804,-0.085559,-0.868722,0.288469,-0.185591,-0.084750,-0.100517,-0.538619,-0.617962,-0.353415,-0.450678,90.789232,-10.153871,69.546463
07218,NaN,0.230401,10.401233,-0.018906,-0.456041,-1.546735,0.465381,-0.212928,0.069829,0.035338,-0.539063,-0.617324,-0.352990,-0.451353,90.662594,-10.177239,69.583301
07219,NaN,-0.575770,10.647829,0.187819,-0.579135,-2.409035,0.560552,-0.266911,0.365876,0.233967,-0.538701,-0.616220,-0.352618,-0.453580,90.473570,-10.317299,69.791546
07220,NaN,-0.073352,11.633061,0.861251,0.131067,-2.363211,1.609794,-0.315935,0.780337,0.370274,-0.537444,-0.614276,-0.352835,-0.457522,90.213020,-10.534765,70.241320
07221,NaN,1.214368,11.807189,1.315183,0.917258,-1.375941,2.014361,-0.403948,1.103933,0.460362,-0.535664,-0.611494,-0.353425,-0.462851,89.863954,-10.802643,70.881414
07222,NaN,1.665711,11.469852,0.395022,0.146739,-0.617228,1.766831,-0.316617,1.067119,0.401864,-0.533797,-0.608907,-0.354293,-0.467729,89.566916,-11.032534,71.501749
07223,NaN,1.727993,11.203230,-0.002232,-0.247690,-0.411146,1.512845,-0.181715,0.829836,0.361671,-0.532020,-0.607143,-0.354947,-0.471535,89.370260,-11.238937,71.984977
07224,NaN,2.409743,11.592664,-0.945092,-0.990797,0.400489,2.017253,0.197864,0.421151,0.501627,-0.529476,-0.607594,-0.354986,-0.473782,89.437002,-11.526517,72.230661
07225,NaN,1.772225,13.216066,-0.757153,-1.119499,-0.639490,3.480747,0.267998,0.155895,0.704833,-0.526702,-0.609209,-0.353860,-0.475639,89.572813,-11.933126,72.322141
07226,NaN,1.016756,12.829664,0.148082,-0.480927,-1.616393,2.947077,-0.309367,-0.013371,0.437691,-0.526615,-0.609230,-0.351732,-0.477284,89.399310,-12.186654,72.313097
07227,NaN,-0.864379,10.754435,0.471716,-0.634226,-3.087377,0.516547,-0.445104,-0.249672,0.333804,-0.527602,-0.609266,-0.348965,-0.478179,89.176532,-12.383089,72.165842
07228,NaN,0.152097,11.444169,-0.259404,-1.120120,-2.080352,1.388953,-0.100767,-0.655539,0.352714,-0.528195,-0.611210,-0.345895,-0.477273,89.203962,-12.593176,71.780607
07229,NaN,1.400642,14.590687,-0.218675,-0.986000,-1.617825,4.723744,-0.186356,-0.651658,0.446017,-0.528815,-0.613066,-0.342336,-0.476772,89.182344,-12.857086,71.398292
07230,NaN,-0.258570,13.826123,-0.857699,-2.109315,-2.827245,3.585849,-0.602236,-0.559662,0.445737,-0.530540,-0.613595,-0.338028,-0.477248,88.912912,-13.120486,71.070111
07231,NaN,-2.325654,10.642370,-1.803390,-3.458948,-3.771059,-0.028266,-0.677994,-0.647274,0.488927,-0.532532,-0.614185,-0.333163,-0.477691,88.612223,-13.411441,70.692140
07232,NaN,-3.296038,9.104609,-2.153234,-4.033567,-4.216811,-1.791316,-0.568881,-0.835826,0.461636,-0.534549,-0.615457,-0.328133,-0.477282,88.402681,-13.691073,70.203305
07233,NaN,-3.661638,7.906851,-3.144509,-5.025418,-3.933838,-3.098263,-0.372152,-0.983665,0.369822,-0.536410,-0.617433,-0.323451,-0.475836,88.328475,-13.921321,69.626142
07234,NaN,-3.997988,7.724538,-3.811077,-5.789199,-3.929996,-3.392659,-0.138027,-0.948420,0.201372,-0.537873,-0.619668,-0.319930,-0.473655,88.386583,-14.054986,69.066287
07235,NaN,-4.876083,7.356962,-4.055160,-6.304117,-4.516499,-3.964222,0.100727,-0.706581,-0.132451,-0.538995,-0.621422,-0.318659,-0.470930,88.548364,-13.991717,68.643730
07236,NaN,-5.970540,6.216685,-3.800746,-6.339612,-5.313652,-5.305537,0.105263,-0.512048,-0.269989,-0.540105,-0.622509,-0.318342,-0.468431,88.684993,-13.846894,68.334219
07237,NaN,-5.261274,5.434361,-3.903383,-6.094588,-4.436846,-5.860493,0.333927,-0.289332,-0.480876,-0.540644,-0.623346,-0.319825,-0.465678,88.921073,-13.575908,68.154271
07238,NaN,-4.088911,5.416508,-3.589998,-5.354255,-3.472923,-5.544646,0.537076,-0.010919,-0.751163,-0.540720,-0.623646,-0.323361,-0.462738,89.234601,-13.148395,68.137214
07239,NaN,-1.506811,5.394809,-3.183593,-3.995158,-1.269000,-4.920079,0.707586,0.157060,-0.977676,-0.540506,-0.623629,-0.328457,-0.459408,89.624023,-12.587729,68.220283
07240,NaN,-1.346858,6.138966,-2.955565,-3.731985,-1.331579,-4.108755,0.735309,0.267670,-1.158779,-0.540411,-0.623114,-0.334452,-0.455880,90.015077,-11.925990,68.371554
07241,NaN,-2.765257,6.541950,-2.140384,-3.446270,-2.962361,-3.949951,0.677718,0.334232,-1.306579,-0.540698,-0.622008,-0.340955,-0.452218,90.367287,-11.178086,68.565977
07242,NaN,-2.392095,7.992285,-0.722674,-1.998199,-3.349635,-2.402785,0.804640,0.267779,-1.357627,-0.540781,-0.621274,-0.347686,-0.447983,90.800093,-10.404453,68.726677
07243,NaN,-0.491820,10.046839,0.473597,-0.197242,-2.315405,-0.014576,0.835970,0.099201,-1.353641,-0.541023,-0.620966,-0.354017,-0.443133,91.270176,-9.629655,68.795032
07244,NaN,1.043645,10.480615,0.866543,0.825247,-1.017380,0.673739,0.738018,-0.056032,-1.335248,-0.541763,-0.620736,-0.359613,-0.438016,91.697472,-8.866611,68.779017
07245,NaN,1.408295,9.918917,0.669610,0.907815,-0.424952,0.177808,0.715394,-0.232235,-1.314257,-0.542820,-0.620827,-0.364616,-0.432406,92.126874,-8.109025,68.666423
07246,NaN,1.705176,9.699614,0.227262,0.724423,0.129878,0.010666,0.754173,-0.502247,-1.275217,-0.544126,-0.621646,-0.368807,-0.425986,92.596322,-7.369658,68.403048
07247,NaN,2.564807,9.853825,-0.133114,0.829024,1.114968,0.274997,0.761547,-0.779087,-1.198248,-0.545728,-0.623172,-0.372017,-0.418856,93.086531,-6.661256,67.984619
07248,NaN,4.527812,10.149423,-0.329147,1.525300,3.027371,0.776276,0.797413,-0.980817,-1.079060,-0.547300,-0.625404,-0.374336,-0.411346,93.603988,-6.013712,67.452836
07249,NaN,7.039206,11.757554,-0.382145,2.639368,5.217308,2.586760,0.907449,-0.796680,-0.961929,-0.547913,-0.627731,-0.377012,-0.404483,94.168846,-5.432526,67.029135
07250,NaN,7.139372,11.242593,-0.580757,2.643621,5.501299,2.038418,0.604453,-0.485687,-0.903098,-0.548740,-0.628686,-0.379708,-0.399326,94.538899,-4.897846,66.786309
07251,NaN,6.378129,9.939109,-1.086593,1.946080,5.188968,0.672230,0.546176,-0.440094,-0.606284,-0.549059,-0.629932,-0.381481,-0.395212,94.873102,-4.531185,66.559136
07252,NaN,8.685886,10.154691,-1.592180,2.498549,7.494481,1.081660,0.525780,-0.212931,-0.363013,-0.548515,-0.631130,-0.383052,-0.392527,95.184491,-4.315647,66.451841
07253,NaN,10.288284,9.875736,-1.688788,3.080474,9.040178,0.911898,0.382499,0.319342,-0.248791,-0.547176,-0.631102,-0.385447,-0.392096,95.392022,-4.191490,66.644015
07254,NaN,9.522714,9.578006,-1.472757,2.939894,8.306790,0.528651,0.261246,0.841702,-0.157155,-0.545024,-0.629887,-0.388729,-0.393802,95.508205,-4.149978,67.130241
07255,NaN,9.129086,9.425381,-0.735273,3.396743,7.704286,0.278114,0.218151,1.047734,-0.037330,-0.542356,-0.628370,-0.392106,-0.396552,95.592461,-4.188644,67.727599
07256,NaN,8.887131,10.492437,2.076071,5.899883,6.354180,1.059189,0.182063,1.071723,0.180703,-0.539309,-0.627113,-0.394775,-0.400034,95.654031,-4.354160,68.326514
07257,NaN,8.922034,14.346413,8.249577,11.807862,3.804609,4.314441,-0.219365,0.924423,0.189716,-0.537774,-0.625075,-0.396205,-0.403859,95.491074,-4.516555,68.840814
07258,NaN,7.737328,9.504579,12.045293,14.512965,1.960708,-0.822869,-1.183028,0.648329,0.483000,-0.539191,-0.621556,-0.394015,-0.409505,94.787198,-4.827793,69.183453
07259,NaN,4.339972,8.185017,10.453485,11.673108,-0.504149,-2.158351,-0.396793,-0.174952,0.546071,-0.539638,-0.621948,-0.390999,-0.411208,94.572426,-5.135053,69.053847
07260,NaN,0.297524,9.373732,3.656005,3.886181,-2.046532,-0.755610,-0.693198,-0.524993,-0.058307,-0.542926,-0.621067,-0.388311,-0.410756,94.204022,-5.081116,68.751637
07261,NaN,-1.493320,8.605465,-3.390230,-3.399665,-1.090834,-1.150717,-0.379061,-0.828353,-0.155178,-0.546018,-0.621460,-0.385726,-0.408494,94.028723,-4.962173,68.279274
07262,NaN,-0.835564,12.534249,-3.062520,-2.722493,-0.975893,2.789699,0.151830,-0.822382,-0.097184,-0.547318,-0.623391,-0.384065,-0.405365,94.157997,-4.875404,67.807887
07263,NaN,-1.955879,10.791584,1.153523,0.684867,-3.408313,0.652880,-0.047330,-0.834324,0.673525,-0.547688,-0.626265,-0.379548,-0.404690,94.176655,-5.229140,67.297520
07264,NaN,0.589061,8.744669,1.086935,1.510172,-0.898721,-1.157716,0.372898,-1.000049,0.914251,-0.546546,-0.631059,-0.374667,-0.403332,94.451013,-5.710780,66.680300
07265,NaN,3.733612,12.024492,-0.791404,1.163540,2.188388,2.557029,0.674408,-0.892687,0.796349,-0.544465,-0.636206,-0.371032,-0.401416,94.895172,-6.127279,66.126875
07266,NaN,5.117090,10.896229,-3.137503,-0.404960,4.422480,1.807699,0.357677,-0.592837,0.512268,-0.543386,-0.639343,-0.368479,-0.400245,95.142305,-6.392295,65.756949
07267,NaN,5.476880,10.222693,-3.007612,-0.132180,4.739346,1.190331,0.255123,0.034033,0.205361,-0.542088,-0.640374,-0.368390,-0.400439,95.288700,-6.514948,65.762111
07268,NaN,4.565299,9.850045,-1.671592,0.691959,3.416671,0.603983,0.003110,0.672605,0.002878,-0.540821,-0.639067,-0.370183,-0.402580,95.248827,-6.554310,66.144504
07269,NaN,3.610708,10.239157,-1.876337,0.094745,2.578422,0.899023,-0.104149,1.041609,-0.057630,-0.539325,-0.636603,-0.372932,-0.405939,95.121738,-6.579440,66.742114
07270,NaN,2.288781,10.069408,-2.326957,-0.894999,1.572583,0.616692,-0.206994,1.214032,-0.092204,-0.537888,-0.633427,-0.376048,-0.409920,94.924904,-6.590067,67.440589
07271,NaN,0.720921,9.696425,-1.670498,-0.945386,-0.057277,0.007383,-0.299124,1.218894,-0.078853,-0.536684,-0.629995,-0.378919,-0.414123,94.674009,-6.607724,68.141269
07272,NaN,-1.309901,9.808933,-0.466475,-0.599822,-2.376424,-0.213656,-0.249980,0.911606,-0.078625,-0.535893,-0.627310,-0.381067,-0.417240,94.472342,-6.606839,68.665333
07273,NaN,-3.202435,9.741217,0.412712,-0.469421,-4.424622,-0.565006,-0.104875,0.413556,-0.044767,-0.535516,-0.626111,-0.382060,-0.418615,94.386109,-6.603655,68.901482
07274,NaN,-1.495235,10.026390,0.557403,0.288609,-2.935322,-0.097982,0.076292,-0.054761,0.091575,-0.535181,-0.626635,-0.381762,-0.418530,94.436213,-6.655941,68.862251
07275,NaN,0.277202,10.224070,0.438296,0.824742,-1.299468,0.308165,0.193994,-0.252813,0.230545,-0.534564,-0.628152,-0.380735,-0.417981,94.566924,-6.779973,68.702797
07276,NaN,0.197879,9.789461,-0.504153,-0.085653,-1.010484,-0.060848,0.201806,-0.405778,0.273789,-0.534120,-0.630088,-0.379187,-0.417040,94.714214,-6.919890,68.452931
07277,NaN,0.926228,9.838295,-1.277191,-0.525300,-0.099546,0.136947,0.207049,-0.455288,0.276229,-0.533745,-0.632140,-0.377497,-0.415946,94.867625,-7.059414,68.174118
07278,NaN,2.055343,9.670114,-1.826669,-0.608132,1.138286,0.157602,0.155487,-0.392780,0.191942,-0.533585,-0.633762,-0.376141,-0.414910,94.988160,-7.152003,67.934947
07279,NaN,1.998547,10.235830,-1.904971,-0.676572,1.011515,0.718902,-0.015318,-0.154369,0.207697,-0.533484,-0.634461,-0.375005,-0.415000,94.993236,-7.266465,67.832074
07280,NaN,1.250396,9.980811,-1.725320,-0.810503,0.276952,0.357028,-0.095291,0.057859,0.251143,-0.533148,-0.634587,-0.374141,-0.416019,94.938324,-7.415039,67.849110
07281,NaN,0.678632,10.209735,-1.338336,-0.682576,-0.447294,0.474405,-0.167740,0.114830,0.314373,-0.532801,-0.634517,-0.373066,-0.417531,94.837118,-7.603745,67.896109
07282,NaN,0.630496,10.239815,-1.193012,-0.596055,-0.577901,0.482223,-0.178843,0.121537,0.401715,-0.532293,-0.634565,-0.371717,-0.419307,94.730201,-7.841278,67.943068
07283,NaN,0.475820,10.250220,-0.291344,0.149426,-1.088034,0.393776,-0.149116,0.073778,0.515509,-0.531537,-0.634999,-0.369932,-0.421184,94.643833,-8.142670,67.957606
07284,NaN,0.261844,10.404795,-0.724983,-0.363558,-1.200002,0.544986,-0.124522,-0.015484,0.595800,-0.530695,-0.635829,-0.367711,-0.422934,94.580188,-8.484592,67.917231
07285,NaN,1.193386,10.490307,-0.790675,-0.112225,-0.393049,0.766934,-0.116261,-0.031955,0.654194,-0.529727,-0.636817,-0.365266,-0.424775,94.522509,-8.860230,67.865073
07286,NaN,1.122113,10.806721,-0.804303,-0.189245,-0.568973,1.065326,-0.219473,-0.065126,0.704994,-0.529035,-0.637687,-0.362357,-0.426820,94.410155,-9.262412,67.791850
07287,NaN,1.613183,10.417865,-1.444048,-0.653047,0.119641,0.807023,-0.217352,0.003122,0.728510,-0.528154,-0.638449,-0.359544,-0.429143,94.292276,-9.682150,67.757959
07288,NaN,1.818904,10.883638,-0.836007,-0.067589,-0.066309,1.253078,-0.335012,0.069038,0.794782,-0.527380,-0.638869,-0.356443,-0.432048,94.101756,-10.141600,67.760477
07289,NaN,1.548487,10.460679,-0.896183,-0.291957,-0.279945,0.792139,-0.348193,0.088165,0.849298,-0.526485,-0.639296,-0.353176,-0.435180,93.901009,-10.633953,67.773603
07290,NaN,1.793271,10.222624,-1.247504,-0.598235,0.046704,0.623458,-0.423583,0.121550,0.911331,-0.525625,-0.639547,-0.349633,-0.438697,93.654116,-11.161986,67.805648
07291,NaN,1.939534,10.222388,-1.032076,-0.420082,0.027332,0.634611,-0.381933,0.170157,0.917262,-0.524520,-0.639794,-0.346274,-0.442308,93.424042,-11.695948,67.868253
07292,NaN,2.277449,10.475560,-0.702952,-0.070876,0.083207,0.929998,-0.369998,0.192810,0.948174,-0.523255,-0.640061,-0.342900,-0.446034,93.197941,-12.247141,67.945234
07293,NaN,2.534638,10.215210,-0.295375,0.330931,0.143267,0.710194,-0.392610,0.202228,0.992933,-0.521932,-0.640304,-0.339340,-0.449940,92.956021,-12.824856,68.028917
07294,NaN,1.689399,9.599890,-0.094326,0.158375,-0.637310,-0.087016,-0.309647,0.135606,1.020455,-0.520379,-0.640943,-0.335702,-0.453543,92.770023,-13.415168,68.074929
07295,NaN,1.530873,10.276698,-0.628640,-0.494249,-0.831036,0.551348,-0.322721,0.077163,1.076860,-0.518823,-0.641755,-0.331685,-0.457121,92.583377,-14.036963,68.087195
07296,NaN,1.743289,11.075089,-0.854664,-0.747743,-0.845675,1.374419,-0.419673,0.073933,1.108823,-0.517492,-0.642354,-0.327330,-0.460910,92.341851,-14.676013,68.099020
07297,NaN,1.731072,11.224796,-1.534249,-1.489773,-0.747398,1.526041,-0.507800,0.094174,1.173277,-0.516243,-0.642759,-0.322600,-0.465063,92.045459,-15.353153,68.124685
07298,NaN,1.786960,11.860659,-2.306117,-2.336066,-0.689937,2.156074,-0.476355,0.164900,1.227867,-0.514630,-0.643142,-0.317941,-0.469508,91.755388,-16.061958,68.194861
07299,NaN,1.673590,12.261424,-1.933544,-2.173475,-1.155280,2.468223,-0.486481,0.252790,1.299711,-0.512716,-0.643376,-0.313234,-0.474420,91.442429,-16.813610,68.320603
07300,NaN,1.301862,12.544810,-1.050105,-1.628417,-2.020553,2.574090,-0.489934,0.363239,1.436444,-0.510288,-0.643518,-0.308350,-0.480011,91.105816,-17.643638,68.515605
07301,NaN,0.871679,13.481308,0.160615,-0.868900,-3.263217,3.268740,-0.480710,0.440311,1.540333,-0.507429,-0.643616,-0.303327,-0.486073,90.755258,-18.533204,68.762328
07302,NaN,0.236952,13.177639,1.449496,0.004089,-4.362620,2.708105,-0.587918,0.346391,1.724859,-0.504569,-0.643901,-0.297191,-0.492422,90.356316,-19.525980,68.958433
07303,NaN,0.356020,13.271716,1.373860,-0.189289,-4.446514,2.770621,-0.544442,0.242426,1.917458,-0.501204,-0.644774,-0.290251,-0.498814,89.997439,-20.627738,69.099232
07304,NaN,1.096732,13.149668,1.611552,0.138771,-4.056540,2.845596,-0.510156,0.116206,2.105495,-0.497386,-0.646253,-0.282443,-0.505163,89.681149,-21.836574,69.170591
07305,NaN,0.696939,13.259070,1.397112,-0.362543,-4.602675,2.713953,-0.380983,0.016045,2.270229,-0.492818,-0.648454,-0.274145,-0.511354,89.457597,-23.139570,69.187749
07306,NaN,1.231141,14.645075,1.566313,-0.388108,-4.983861,4.095843,-0.267871,-0.033475,2.400352,-0.487545,-0.651152,-0.265554,-0.517478,89.309422,-24.517694,69.179213
07307,NaN,0.871176,15.765976,1.899572,-0.528586,-6.160139,4.839721,-0.175077,-0.064054,2.536683,-0.481588,-0.654229,-0.256646,-0.523631,89.220251,-25.973385,69.155972
07308,NaN,-1.052462,18.582067,1.477133,-2.180530,-9.131080,6.325177,-0.132078,-0.133481,2.670825,-0.475141,-0.657658,-0.247198,-0.529735,89.175896,-27.507283,69.090500
07309,NaN,-1.076232,20.223943,-1.048809,-5.045525,-9.349696,7.460510,-0.351629,-0.214963,2.883388,-0.468870,-0.660907,-0.236236,-0.536243,89.029554,-29.162271,68.976809
07310,NaN,-2.281306,20.149448,-3.314415,-7.780475,-9.897136,6.425131,-0.570125,-0.022854,3.095314,-0.462407,-0.663235,-0.224376,-0.544017,88.693893,-30.938391,68.998454
07311,NaN,-3.205377,20.967044,-4.703421,-9.785798,-10.953363,6.194631,-0.345753,0.280465,3.233026,-0.454380,-0.665230,-0.213328,-0.552719,88.369633,-32.786209,69.240180
07312,NaN,-5.941902,23.398073,-4.823017,-11.475345,-14.762327,6.198769,-0.310786,0.708547,3.387539,-0.445211,-0.666108,-0.202760,-0.563006,87.882092,-34.715599,69.800443
07313,NaN,-9.654859,23.261546,-5.072942,-12.916904,-17.959653,3.248027,-0.490993,1.163654,3.456625,-0.435862,-0.665151,-0.192429,-0.574952,87.063734,-36.663531,70.724334
07314,NaN,-11.540253,21.649608,-4.732985,-12.786363,-19.060279,0.058262,-0.384567,1.516607,3.235424,-0.426292,-0.662987,-0.183819,-0.587310,86.095486,-38.465089,71.953947
07315,NaN,-6.353121,19.928427,-3.149434,-9.630214,-15.164035,1.353984,-0.339772,2.028378,2.982860,-0.416732,-0.658961,-0.177250,-0.600573,84.848663,-40.073980,73.620400
07316,NaN,4.923901,17.826924,-1.372327,-5.170009,-6.653466,6.706882,-0.496504,2.811388,3.010066,-0.406729,-0.652040,-0.171644,-0.616404,83.026001,-41.622120,75.974550
07317,NaN,11.473804,15.925681,-1.135961,-3.753354,-1.294423,9.441895,-0.839404,3.156318,3.549017,-0.395711,-0.643485,-0.163890,-0.634413,80.646738,-43.374521,78.789045
07318,NaN,12.146366,14.111541,-5.116920,-7.491791,0.928732,7.958076,-0.228441,2.279473,3.913606,-0.382043,-0.638874,-0.155026,-0.649500,78.873358,-45.352536,81.140233
07319,NaN,9.844659,19.482168,-5.019833,-9.627966,-4.894430,9.808056,0.235127,1.459392,2.980107,-0.370438,-0.636834,-0.149074,-0.659541,77.807190,-46.852177,82.812528
07320,NaN,-4.648383,15.613331,-5.748867,-10.587889,-12.267006,-3.826853,-1.449202,1.590304,2.154409,-0.366699,-0.630468,-0.140348,-0.669586,75.711766,-47.848521,84.534888
07321,NaN,-18.807326,9.887618,-6.963971,-10.796924,-17.437891,-18.717709,-2.233166,1.647851,1.607940,-0.367161,-0.621937,-0.130854,-0.679165,73.150979,-48.478432,86.261297
07322,NaN,-21.433436,-9.535389,-8.751412,-5.701247,-5.102888,-33.652491,-1.593630,1.429909,0.497974,-0.369446,-0.614474,-0.126497,-0.685515,71.262558,-48.503334,87.566184
07323,NaN,-13.538238,-4.303454,-6.192412,-4.635948,-4.314424,-23.956267,0.488591,0.952381,-0.551128,-0.369236,-0.611787,-0.131679,-0.687053,71.090068,-48.023451,88.180334
07324,NaN,-11.345810,5.884908,-2.600968,-4.677549,-11.005087,-15.021371,0.289887,1.005545,-1.023055,-0.371170,-0.608208,-0.137643,-0.688019,70.872602,-47.285167,88.701805
07325,NaN,-9.514612,4.079031,-3.880733,-5.182025,-8.271810,-15.003935,-0.267868,0.708671,-1.165527,-0.375511,-0.604491,-0.141642,-0.688127,70.557970,-46.515250,88.931191
07326,NaN,-7.420243,3.258172,-2.485727,-3.565189,-6.700341,-13.587294,0.048554,0.291977,-1.773714,-0.381224,-0.602327,-0.147698,-0.685606,70.775127,-45.504563,88.670625
07327,NaN,-5.989340,3.708623,-2.445714,-3.696698,-6.053548,-12.113589,0.265647,-0.200304,-2.306961,-0.388470,-0.601809,-0.155233,-0.680308,71.474255,-44.284751,87.905274
07328,NaN,-5.794784,4.349429,-3.278787,-4.753851,-6.134359,-11.548788,0.415284,-0.647581,-2.680554,-0.396782,-0.602710,-0.163424,-0.672753,72.505079,-42.942425,86.758639
07329,NaN,-4.263699,4.903849,-3.249622,-4.911475,-5.352849,-9.894687,0.630386,-1.008869,-3.026050,-0.405851,-0.604833,-0.172712,-0.663048,73.835085,-41.443116,85.326517
07330,NaN,-2.084004,4.616916,-3.616266,-5.057033,-3.389363,-8.520044,0.861554,-1.120745,-3.363862,-0.415277,-0.607322,-0.183422,-0.651967,75.303119,-39.759472,83.832414
07331,NaN,-1.595173,4.920871,-3.326186,-4.831365,-3.176318,-7.718060,0.925803,-1.071358,-3.612762,-0.425166,-0.609339,-0.195224,-0.640178,76.727009,-37.891275,82.418670
07332,NaN,-2.475325,5.138351,-3.280104,-4.929285,-3.894353,-7.858391,1.071148,-1.093848,-3.783234,-0.434972,-0.611328,-0.207796,-0.627613,78.158128,-35.915004,81.060873
07333,NaN,-2.814958,6.216892,-2.814561,-4.818494,-4.748284,-6.859232,1.255226,-1.195226,-3.961953,-0.444727,-0.613576,-0.221270,-0.613825,79.660478,-33.810458,79.703357
07334,NaN,-1.834441,7.882505,-2.377130,-4.641045,-4.731604,-4.596350,1.359440,-1.298355,-4.154042,-0.454608,-0.615859,-0.235223,-0.598931,81.168744,-31.590566,78.357274
07335,NaN,-0.615669,8.863122,-1.864643,-4.055375,-4.067693,-2.783926,1.319830,-1.259162,-4.357399,-0.464967,-0.617357,-0.249740,-0.583357,82.561242,-29.211715,77.114092
07336,NaN,-0.039793,8.950742,-1.983493,-3.895993,-3.274692,-2.188225,1.323456,-1.176680,-4.572166,-0.475531,-0.618002,-0.264882,-0.567258,83.843062,-26.693254,76.001761
07337,NaN,-0.054461,10.211684,-1.935958,-3.895234,-3.457407,-0.819385,1.504787,-1.195125,-4.731509,-0.485749,-0.618521,-0.280916,-0.550060,85.160820,-24.050290,74.955130
07338,NaN,0.640328,11.745068,-2.135953,-3.912344,-2.926301,1.096775,1.619057,-1.309500,-4.838307,-0.495704,-0.619076,-0.297032,-0.531784,86.489345,-21.342976,73.921842
07339,NaN,1.302956,12.589827,-2.590921,-3.942709,-1.975010,2.329319,1.634206,-1.415083,-4.940271,-0.505723,-0.619342,-0.313125,-0.512457,87.779276,-18.545796,72.905733
07340,NaN,1.650762,13.269902,-3.089465,-3.990333,-1.149068,3.266663,1.666881,-1.461173,-5.039624,-0.515557,-0.619207,-0.329166,-0.492376,89.020050,-15.685528,71.942285
07341,NaN,2.020686,14.124673,-3.477482,-3.860720,-0.292542,4.351903,1.704967,-1.470049,-5.112671,-0.525103,-0.618575,-0.345344,-0.471560,90.222969,-12.750697,71.049856
07342,NaN,2.327405,14.741101,-3.575472,-3.376413,0.542648,5.145378,1.776350,-1.375070,-5.180303,-0.533976,-0.617321,-0.361782,-0.450442,91.392126,-9.774396,70.285796
07343,NaN,2.596250,15.340765,-3.350533,-2.521875,1.293765,5.846278,1.940316,-1.228385,-5.230265,-0.541789,-0.615562,-0.378934,-0.428902,92.598015,-6.743665,69.677282
07344,NaN,3.079495,16.861223,-3.039161,-1.407314,2.148901,7.401752,2.239649,-1.184663,-5.237079,-0.548133,-0.614018,-0.396460,-0.406635,93.930121,-3.711760,69.164807
07345,NaN,4.778932,18.991726,-0.761234,2.179781,3.498992,9.344562,2.388656,-1.267786,-5.182350,-0.553631,-0.612610,-0.413643,-0.383538,95.324083,-0.682230,68.677142
07346,NaN,8.674161,19.795241,-0.263199,4.948463,7.661478,9.779485,2.164098,-1.302411,-5.032407,-0.559120,-0.610478,-0.429411,-0.360981,96.559998,2.260557,68.229719
07347,NaN,11.234381,19.111875,0.722186,7.488001,10.385728,8.296594,1.892647,-0.967244,-4.902855,-0.564084,-0.606771,-0.444988,-0.340037,97.637265,5.127498,68.023913
07348,NaN,10.924854,20.376864,2.571245,9.947570,10.087834,8.635868,1.860035,-0.801807,-4.580326,-0.567831,-0.603029,-0.459618,-0.320430,98.695333,7.788300,67.937610
07349,NaN,11.679926,21.032082,4.034037,12.316201,10.860229,8.223543,1.581180,-0.803067,-4.261479,-0.571597,-0.598850,-0.472639,-0.302104,99.595814,10.281750,67.868089
07350,NaN,13.824016,20.441771,4.946485,14.343118,12.909419,6.341808,1.329396,-0.820224,-3.918384,-0.575344,-0.594526,-0.483904,-0.285229,100.343691,12.572244,67.788480
07351,NaN,16.578338,19.565801,4.817723,15.451409,15.747474,4.118167,0.981670,-0.749829,-3.458617,-0.579087,-0.589950,-0.493376,-0.270550,100.896227,14.607313,67.727182
07352,NaN,18.743438,17.467846,2.095399,13.553293,18.798071,1.310193,0.612931,-0.660952,-3.042881,-0.582952,-0.585067,-0.501178,-0.258232,101.237963,16.389080,67.684752
07353,NaN,21.024289,15.809502,-2.674985,9.890114,22.764793,-0.700897,0.287651,-0.752067,-2.554091,-0.587251,-0.580428,-0.506799,-0.247780,101.363741,17.914645,67.539789
07354,NaN,25.552667,13.931121,-6.055362,8.181934,27.951705,-3.862700,0.105168,-0.944681,-2.067697,-0.591863,-0.576659,-0.510097,-0.238673,101.324678,19.180748,67.221708
07355,NaN,29.907226,11.310298,-3.311355,11.541391,29.984887,-8.807608,0.060535,-0.668623,-1.480734,-0.595144,-0.573854,-0.512447,-0.232151,101.287420,20.091299,66.996384
07356,NaN,29.188890,9.052376,2.047387,15.314723,26.434602,-12.002327,0.228486,-0.000714,-0.796425,-0.595410,-0.572518,-0.514963,-0.229180,101.451902,20.536819,67.087708
07357,NaN,25.266627,8.889669,3.596015,15.208513,22.294953,-11.225189,0.386852,-0.230361,-0.184095,-0.595101,-0.573484,-0.515236,-0.226943,101.635372,20.667140,66.968708
07358,NaN,19.647102,14.677189,3.576704,15.107629,18.744298,-3.928203,1.073680,-0.206992,0.677701,-0.591775,-0.578676,-0.513857,-0.225584,102.177648,20.309782,66.755111
07359,NaN,17.900942,16.078051,6.919284,17.903941,15.901369,-2.504451,0.415890,0.449401,1.538217,-0.587655,-0.583365,-0.511166,-0.230341,102.440847,19.392133,66.819003
07360,NaN,0.952570,30.453336,15.586245,23.715611,0.051724,14.860827,-0.000860,0.531306,2.204744,-0.583723,-0.588376,-0.506234,-0.238344,102.449372,18.091137,66.841268
07361,NaN,-37.036850,29.404818,8.499875,2.280072,-30.558556,27.193588,-4.236902,0.748520,2.322430,-0.591347,-0.580855,-0.496354,-0.257970,100.072600,16.699298,67.005490
07362,NaN,-19.101493,7.285566,-1.132052,-6.337000,-15.066792,2.517482,-0.725078,-0.363592,2.800766,-0.590679,-0.586098,-0.486130,-0.266955,99.521398,15.151390,66.504062
07363,NaN,21.662289,17.552974,1.710507,14.317113,21.197973,1.406499,0.904510,0.514589,3.650779,-0.581804,-0.596872,-0.478045,-0.276985,100.023664,13.038670,66.433560
07364,NaN,20.703277,13.223808,-1.139603,10.240787,20.627222,-1.188776,-0.233654,0.856305,3.498569,-0.575513,-0.603300,-0.469667,-0.290218,99.919771,10.977442,66.568752
07365,NaN,0.992399,15.286008,1.693340,5.372288,1.589052,4.544008,-0.045193,0.546846,2.640876,-0.570479,-0.608553,-0.463130,-0.299545,99.902747,9.429565,66.613592
07366,NaN,-0.629376,10.330276,2.958627,4.642259,-1.102597,-0.164266,0.199124,-0.179769,2.505143,-0.566490,-0.615172,-0.455230,-0.305646,99.964506,8.031485,66.256537
07367,NaN,2.362817,9.661251,2.145871,4.912785,1.662119,-1.059183,0.636641,-0.796535,2.309516,-0.562769,-0.623428,-0.446769,-0.308264,100.240612,6.805214,65.565291
07368,NaN,2.094660,9.979313,-1.501954,1.626664,2.754697,-0.015146,0.641671,-0.920954,2.079977,-0.559576,-0.631284,-0.438625,-0.309778,100.529140,5.726110,64.823144
07369,NaN,1.659239,9.894966,-5.635757,-2.221984,3.978344,0.754177,0.421884,-0.546004,1.748315,-0.556707,-0.637145,-0.432174,-0.312009,100.725647,4.795458,64.324798
07370,NaN,2.933731,8.862985,-6.241940,-2.418402,5.267252,-0.193579,0.247077,-0.392561,1.434102,-0.554511,-0.641554,-0.426859,-0.314194,100.839868,4.028399,63.945109
07371,NaN,2.762213,8.855826,-6.808437,-3.000600,5.262704,-0.029555,0.066271,-0.544211,1.491569,-0.553093,-0.645786,-0.420617,-0.316434,100.848797,3.243691,63.473091
07372,NaN,3.771804,11.765674,-2.440796,1.755927,3.999571,1.999691,-0.672419,-0.152400,1.465498,-0.553242,-0.647257,-0.414359,-0.321385,100.453244,2.432656,63.227897
07373,NaN,1.499535,8.646320,-1.986725,0.457287,1.803050,-1.009669,-0.472348,-0.049924,1.368845,-0.552651,-0.648882,-0.408981,-0.325981,100.177598,1.661840,63.055169
07374,NaN,3.520289,9.957902,-2.254446,1.275182,3.559988,0.303319,-0.383371,0.075326,1.264419,-0.551662,-0.650299,-0.404426,-0.330483,99.957805,0.938981,62.967129
07375,NaN,2.794870,10.644404,-0.984108,2.073226,2.211580,0.812391,-0.515315,0.345794,1.031473,-0.550913,-0.650414,-0.401126,-0.335491,99.664767,0.318362,63.057635
07376,NaN,1.747327,10.272476,-0.990504,1.435075,1.242832,0.480652,-0.555602,0.537333,0.849905,-0.550202,-0.649704,-0.398878,-0.340675,99.348489,-0.214809,63.277000
07377,NaN,0.497925,9.997095,-0.935295,0.791164,0.072665,0.208921,-0.514407,0.622851,0.725451,-0.549376,-0.648699,-0.397311,-0.345718,99.052699,-0.686827,63.558833
07378,NaN,0.096236,9.727528,-0.590678,0.802197,-0.459051,-0.110722,-0.502620,0.572085,0.658542,-0.548718,-0.647658,-0.395847,-0.350363,98.762473,-1.112437,63.820441
07379,NaN,-0.093973,9.785362,-0.582164,0.664348,-0.679813,-0.055789,-0.394113,0.388353,0.652755,-0.548066,-0.647215,-0.394063,-0.354191,98.534090,-1.520252,63.980277
07380,NaN,-1.766307,9.976367,-0.639172,-0.154936,-2.220143,0.091998,-0.283686,0.149471,0.657707,-0.547514,-0.647493,-0.391814,-0.357020,98.372649,-1.907705,64.005791
07381,NaN,-3.709311,10.243106,-0.355192,-0.777369,-4.165904,0.229559,-0.119302,-0.253467,0.769021,-0.547009,-0.649152,-0.388374,-0.358538,98.313172,-2.327033,63.794122
07382,NaN,-4.136906,10.396912,-1.484688,-2.034867,-4.137872,0.490225,-0.279924,-0.705165,1.106134,-0.547284,-0.651812,-0.382318,-0.359796,98.177216,-2.898446,63.299066
07383,NaN,1.518074,9.606281,-3.781848,-1.692024,1.931329,0.301361,-0.189676,-0.818426,1.205795,-0.547273,-0.655083,-0.375759,-0.360781,98.101338,-3.520020,62.732323
07384,NaN,2.020171,9.808301,-3.391708,-1.151124,2.104271,0.484578,-0.349946,-0.468432,1.129115,-0.547244,-0.657107,-0.370115,-0.362973,97.926732,-4.125370,62.371766
07385,NaN,2.265822,10.183642,-2.389551,-0.191260,1.743583,0.745378,-0.342732,-0.058141,1.066390,-0.546522,-0.658269,-0.365786,-0.366328,97.740951,-4.730220,62.251274
07386,NaN,1.683778,10.033494,-1.834201,-0.064970,0.921119,0.483752,-0.393824,0.169853,1.013395,-0.545635,-0.658754,-0.362162,-0.370357,97.515796,-5.320807,62.266935
07387,NaN,0.787297,9.971531,-1.695952,-0.447459,0.002921,0.322709,-0.387386,0.300957,0.987946,-0.544516,-0.658950,-0.358969,-0.374739,97.285935,-5.908493,62.361634
07388,NaN,0.583543,10.312937,-1.049480,-0.034035,-0.594951,0.552748,-0.393782,0.373172,1.057016,-0.543145,-0.659093,-0.355732,-0.379533,97.047691,-6.538267,62.495244
07389,NaN,0.744045,10.458729,-0.612633,0.344317,-0.752536,0.657644,-0.410432,0.344664,1.062297,-0.541846,-0.659233,-0.352345,-0.384275,96.799618,-7.170354,62.614958
07390,NaN,0.498282,10.816402,-0.795871,-0.007281,-1.034122,0.994962,-0.385134,0.267754,1.156737,-0.540402,-0.659729,-0.348486,-0.388949,96.571392,-7.848705,62.687044
07391,NaN,0.711113,10.730614,-1.594454,-0.721660,-0.575592,1.019687,-0.383984,0.205242,1.203094,-0.538947,-0.660406,-0.344282,-0.393536,96.347611,-8.550858,62.722949
07392,NaN,0.867697,10.461120,-1.440931,-0.623537,-0.558443,0.749590,-0.428824,0.175690,1.325774,-0.537429,-0.661199,-0.339500,-0.398404,96.101574,-9.319173,62.737104
07393,NaN,0.297892,9.964923,-1.253353,-0.823502,-1.148102,0.135250,-0.378742,0.091985,1.313854,-0.535882,-0.662243,-0.334606,-0.402869,95.891079,-10.077228,62.706716
07394,NaN,1.781847,10.419864,-1.764781,-0.700498,0.177278,0.880254,-0.360556,0.001856,1.380657,-0.534268,-0.663595,-0.329279,-0.407154,95.701612,-10.866644,62.622779
07395,NaN,2.157023,11.144871,-1.426787,-0.332381,0.079138,1.623109,-0.353141,0.060218,1.460828,-0.532338,-0.664946,-0.323831,-0.411822,95.510924,-11.706802,62.570634
07396,NaN,1.947963,11.543477,-1.201751,-0.345804,-0.424431,1.942656,-0.413333,0.123360,1.504135,-0.530388,-0.666035,-0.318273,-0.416879,95.279048,-12.573755,62.555954
07397,NaN,2.070460,12.111398,-1.036167,-0.283779,-0.665212,2.496661,-0.449431,0.181589,1.540332,-0.528354,-0.666924,-0.312644,-0.422266,95.018216,-13.465827,62.577246
07398,NaN,1.618559,12.494297,-1.201876,-0.792025,-1.222508,2.758947,-0.552235,0.263613,1.591816,-0.526392,-0.667401,-0.306830,-0.428185,94.686385,-14.389733,62.649037
07399,NaN,1.778210,12.432416,-1.033168,-0.726008,-1.292774,2.700985,-0.567899,0.298321,1.637018,-0.524290,-0.667783,-0.300892,-0.434338,94.337807,-15.341879,62.745229
07400,NaN,1.865986,13.297516,-1.149609,-1.004278,-1.559092,3.535839,-0.536497,0.400685,1.683965,-0.521788,-0.668041,-0.295118,-0.440867,93.988234,-16.323239,62.906638
07401,NaN,0.962060,12.684880,-0.304221,-0.773817,-2.691117,2.600156,-0.640219,0.425451,1.731510,-0.519443,-0.667988,-0.288989,-0.447724,93.570209,-17.332781,63.088692
07402,NaN,0.638764,13.157046,0.117644,-0.744011,-3.460802,2.875627,-0.503837,0.370914,1.917346,-0.516259,-0.668614,-0.282382,-0.454635,93.237126,-18.444466,63.239283
07403,NaN,-0.138723,13.562779,-0.241017,-1.613393,-4.287106,2.955903,-0.525775,0.316288,2.083804,-0.512788,-0.669469,-0.274991,-0.461779,92.898141,-19.649729,63.359422
07404,NaN,-0.217383,13.462025,-0.443817,-2.000895,-4.452739,2.742459,-0.438515,0.257187,2.278042,-0.508595,-0.670866,-0.266970,-0.469039,92.618846,-20.963018,63.445565
07405,NaN,0.015575,13.549936,-0.740907,-2.360902,-4.407816,2.802284,-0.299252,0.237797,2.491724,-0.503383,-0.672847,-0.258467,-0.476526,92.421068,-22.398314,63.520803
07406,NaN,0.368449,13.525679,-0.489753,-2.167632,-4.493378,2.773776,-0.274610,0.299887,2.718236,-0.497381,-0.674919,-0.249375,-0.484674,92.220594,-23.963945,63.635077
07407,NaN,0.062325,13.702116,-0.137947,-2.185493,-5.265286,2.647569,-0.189814,0.357868,2.904573,-0.490469,-0.677155,-0.239952,-0.493279,92.048870,-25.637337,63.788787
07408,NaN,-0.370117,14.440026,-0.528282,-3.015872,-6.076746,2.950203,-0.149474,0.384448,3.086415,-0.482827,-0.679489,-0.230025,-0.502255,91.887278,-27.414783,63.962984
07409,NaN,-1.083243,15.358032,-1.394262,-4.432976,-7.032195,3.220428,-0.137982,0.446632,3.247016,-0.474550,-0.681703,-0.219674,-0.511690,91.704996,-29.284613,64.183592
07410,NaN,-1.865033,17.249845,-2.113551,-5.938976,-8.606522,4.191917,-0.039704,0.548702,3.390977,-0.465321,-0.683857,-0.209262,-0.521560,91.534845,-31.238174,64.479737
07411,NaN,-5.173573,20.932131,-3.542939,-9.395081,-12.801493,5.196474,0.031397,0.633206,3.548625,-0.455210,-0.685905,-0.198634,-0.531849,91.360062,-33.281658,64.843986
07412,NaN,-7.995545,24.550062,-6.523291,-14.088508,-16.094737,6.048389,0.007353,0.743843,3.777564,-0.444299,-0.687596,-0.187334,-0.542877,91.108984,-35.457319,65.299424
07413,NaN,-10.536245,26.280079,-8.002897,-16.879161,-18.915160,5.117030,0.060654,1.067856,3.858706,-0.432518,-0.688334,-0.176560,-0.554934,90.720577,-37.678378,66.012917
07414,NaN,-12.455553,27.982768,-7.827515,-17.815032,-21.985153,4.279745,0.168188,1.800671,3.524814,-0.420467,-0.686706,-0.168735,-0.568482,90.005410,-39.707183,67.313831
07415,NaN,-8.344563,27.396633,-4.429959,-13.348784,-20.682384,5.477064,-0.271235,2.873480,3.424098,-0.409131,-0.680712,-0.162211,-0.585603,88.417379,-41.645734,69.515225
07416,NaN,4.095190,22.022401,-3.527517,-8.185567,-9.647981,9.002866,-0.759524,3.810412,3.780094,-0.397389,-0.670846,-0.154839,-0.606690,85.876693,-43.703661,72.623136
07417,NaN,14.838207,21.057626,-5.667759,-8.439424,-1.664291,15.117957,-0.520897,4.359831,4.290498,-0.382557,-0.659622,-0.147472,-0.629921,82.875730,-45.904971,76.461013
07418,NaN,14.302829,22.349398,-5.780046,-10.043701,-3.815494,15.124291,-0.516636,3.924237,4.374213,-0.367406,-0.649243,-0.138845,-0.651321,79.797487,-48.048082,80.267805
07419,NaN,3.438395,21.330388,-9.257750,-14.935473,-10.047454,5.300291,-0.813738,2.944667,3.475706,-0.356581,-0.640432,-0.130303,-0.667621,76.989479,-49.658904,83.381765
07420,NaN,-12.533199,14.781348,-8.951651,-13.887347,-16.101499,-11.694171,-1.235067,2.427314,2.493018,-0.350550,-0.631672,-0.122489,-0.680515,74.245250,-50.700740,86.035400
07421,NaN,-26.313977,3.132127,-10.278341,-11.513046,-16.056674,-30.244339,-1.462855,2.529635,1.332750,-0.349038,-0.621274,-0.117747,-0.691612,71.439588,-51.001704,88.577877
07422,NaN,-19.032555,-5.340491,-6.307960,-4.214543,-6.451003,-29.078006,-0.389819,2.279092,0.231636,-0.348060,-0.612837,-0.119635,-0.699266,69.654286,-50.695577,90.594349
07423,NaN,-13.079860,-0.825071,-3.907557,-3.170108,-6.785112,-21.255334,0.304680,2.550894,-0.715690,-0.348069,-0.604005,-0.127355,-0.705554,68.376246,-49.787939,92.490207
07424,NaN,-12.241277,0.271983,-3.104996,-2.553091,-7.470698,-19.672865,0.267359,2.525883,-1.393883,-0.350512,-0.594639,-0.136877,-0.710500,67.331835,-48.506324,94.075844
07425,NaN,-13.132291,-0.210321,-2.658426,-1.740495,-8.086475,-20.354775,0.576075,1.939908,-2.075825,-0.354806,-0.587314,-0.148516,-0.712122,67.052724,-46.977836,94.906016
07426,NaN,-12.364729,1.561798,-2.002885,-1.683156,-9.217760,-18.269997,0.903286,0.844039,-2.637759,-0.360859,-0.583921,-0.160947,-0.709163,67.714927,-45.400545,94.708202
07427,NaN,-10.775356,1.500830,-2.760795,-2.534351,-8.145727,-17.106221,1.162006,-0.196423,-3.090069,-0.368531,-0.584185,-0.173750,-0.701943,69.136453,-43.793765,93.639815
07428,NaN,-8.991386,3.365898,-2.256589,-2.864450,-8.365903,-14.178522,1.505034,-1.040027,-3.603022,-0.377588,-0.587390,-0.187590,-0.690804,71.176175,-42.057770,91.914165
07429,NaN,-6.579329,5.368990,-1.733221,-3.163520,-8.021762,-10.678083,1.591381,-1.665656,-4.037779,-0.388321,-0.592237,-0.201788,-0.676568,73.503617,-40.140169,89.769608
07430,NaN,-3.540438,6.013228,-3.295757,-4.905756,-5.738259,-8.216255,1.689175,-2.141362,-4.361654,-0.400085,-0.598194,-0.216178,-0.659820,75.972362,-38.055364,87.393491
07431,NaN,-2.788363,7.100965,-3.580811,-5.439687,-5.566440,-6.583449,1.885562,-2.219467,-4.612703,-0.411915,-0.604111,-0.231711,-0.641627,78.433021,-35.756259,85.104825
07432,NaN,-2.869621,8.502213,-2.628213,-4.807005,-6.368510,-4.940048,1.938365,-2.224683,-4.809101,-0.423882,-0.609459,-0.247764,-0.622492,80.752563,-33.279378,82.975796
07433,NaN,-2.451298,9.667312,-1.996963,-4.288881,-6.457677,-3.230098,1.987341,-2.318608,-4.997767,-0.436075,-0.614464,-0.264194,-0.602058,82.972878,-30.628520,80.943073
07434,NaN,-1.499107,11.727021,-1.308560,-3.690805,-6.392221,-0.487331,1.970473,-2.279601,-5.173347,-0.448392,-0.618544,-0.280911,-0.580893,85.006351,-27.820243,79.095628
07435,NaN,0.135155,13.426428,-0.712305,-2.808025,-5.340317,2.201518,1.884607,-2.174722,-5.299299,-0.460811,-0.621387,-0.297804,-0.559325,86.816454,-24.875747,77.462670
07436,NaN,1.905599,14.613041,-0.676934,-2.172378,-3.631932,4.317419,1.786952,-2.056610,-5.324233,-0.472989,-0.623081,-0.314450,-0.537748,88.407908,-21.879601,76.038122
07437,NaN,2.924736,14.350459,-0.496634,-1.263045,-1.989582,4.648403,1.621377,-1.920375,-5.371997,-0.485199,-0.623381,-0.330897,-0.516222,89.769535,-18.814418,74.808604
07438,NaN,2.568842,14.135684,-0.808781,-1.155033,-1.483026,4.451892,1.605588,-1.850943,-5.446394,-0.497085,-0.622796,-0.347356,-0.494344,91.015441,-15.689240,73.717048
07439,NaN,1.625137,14.407633,-1.503308,-1.609557,-1.540937,4.590551,1.629365,-1.865627,-5.508923,-0.508647,-0.621623,-0.363771,-0.471734,92.200692,-12.498811,72.703164
07440,NaN,1.104905,15.238719,-2.036240,-1.782407,-1.324818,5.437921,1.700519,-1.883104,-5.583160,-0.519705,-0.619974,-0.380150,-0.448358,93.355177,-9.253815,71.760142
07441,NaN,0.962814,16.765787,-2.190971,-1.387188,-0.875843,7.040703,1.804017,-1.876786,-5.681417,-0.530170,-0.617783,-0.396768,-0.424074,94.506993,-5.927121,70.899751
07442,NaN,1.734513,18.745772,-2.515990,-0.676312,0.593175,9.156070,1.978153,-1.929004,-5.754577,-0.539809,-0.615417,-0.413396,-0.398713,95.702717,-2.547062,70.086500
07443,NaN,4.484736,21.270294,-1.609766,2.146411,3.655050,11.564920,2.111748,-2.073919,-5.768084,-0.548821,-0.613018,-0.429559,-0.372134,96.928941,0.873943,69.265860
07444,NaN,9.746034,22.311469,-1.808509,4.884014,9.618919,12.084501,1.826970,-1.947156,-5.676227,-0.557688,-0.609192,-0.444775,-0.346474,97.947112,4.241046,68.576275
07445,NaN,12.235999,20.492017,-1.055614,7.057024,12.550968,9.246640,1.471474,-1.554110,-5.600552,-0.566121,-0.603270,-0.459863,-0.322642,98.750831,7.550279,68.155931
07446,NaN,13.978521,22.315779,0.854522,10.565104,14.348711,9.589101,1.645349,-1.513022,-5.259122,-0.572886,-0.598060,-0.473883,-0.299267,99.635014,10.661233,67.772951
07447,NaN,17.199748,23.663852,2.339851,14.162726,17.543039,8.968984,1.381507,-1.399543,-4.834206,-0.579116,-0.592465,-0.486242,-0.277811,100.363090,13.532363,67.454000
07448,NaN,20.394340,21.424786,2.205889,15.282289,20.708130,4.927850,1.048983,-1.229812,-4.379869,-0.584923,-0.586431,-0.496952,-0.258849,100.904289,16.126792,67.212636
07449,NaN,24.796708,18.859839,1.851351,16.227749,24.714146,0.174371,0.811112,-0.852360,-3.787944,-0.589042,-0.579718,-0.507325,-0.244086,101.356087,18.340903,67.314139
07450,NaN,25.788454,16.095510,-0.587586,13.858449,26.267324,-3.305066,0.437210,-0.827908,-3.020194,-0.593487,-0.574311,-0.514084,-0.231640,101.564860,20.129178,67.181767
07451,NaN,27.269692,14.025367,-4.646976,10.374085,28.953299,-5.816698,0.301979,-1.200596,-2.398778,-0.598254,-0.570072,-0.518079,-0.220690,101.589290,21.608720,66.831863
07452,NaN,31.224609,13.348619,-5.056321,11.500974,32.323017,-8.532848,0.196356,-1.094533,-1.696529,-0.602372,-0.567472,-0.519803,-0.211964,101.531280,22.684811,66.374613
07453,NaN,31.667921,11.112349,-0.349596,15.093471,29.893717,-12.051042,0.118707,-0.027779,-0.815028,-0.602908,-0.565653,-0.522258,-0.209249,101.634205,23.142684,66.482222
07454,NaN,27.350561,10.978985,1.615700,15.145822,25.307226,-10.974640,0.420043,0.219509,0.009675,-0.601136,-0.566742,-0.523303,-0.208790,101.927159,23.109685,66.610604
07455,NaN,23.642621,12.597389,3.849405,16.309238,21.551815,-8.394899,0.416792,0.000159,0.799354,-0.599110,-0.570114,-0.521440,-0.210089,102.126683,22.659292,66.503000
07456,NaN,20.502997,12.248442,5.123958,16.193823,18.136591,-7.474982,0.279040,0.128000,1.616871,-0.596264,-0.575040,-0.517462,-0.214551,102.236310,21.736409,66.365049
07457,NaN,19.920748,15.467711,1.810311,14.258428,19.820897,-3.242605,0.706040,0.333796,2.297449,-0.590856,-0.582726,-0.512535,-0.220515,102.604412,20.406014,66.257403
07458,NaN,8.562719,22.261462,4.563198,14.544704,9.998667,6.865302,-0.175614,0.777156,2.942417,-0.586064,-0.588851,-0.505977,-0.231883,102.528310,18.661798,66.325165
07459,NaN,-10.137199,11.278258,-0.992553,-1.168812,-6.248581,3.990324,-0.372520,0.210551,2.580379,-0.583580,-0.594033,-0.498481,-0.240990,102.250867,17.187171,66.111055
07460,NaN,-64.168231,31.130872,2.666809,-13.247764,-51.839179,37.419895,-2.336402,0.327627,1.294042,-0.588090,-0.590021,-0.492706,-0.251528,100.923429,16.421254,66.143490
07461,NaN,-16.798629,12.986255,2.823699,-0.573047,-13.827611,6.535074,-0.900913,-0.836293,2.548857,-0.589542,-0.594676,-0.481511,-0.258745,100.199332,15.070227,65.371729
07462,NaN,25.563329,18.546315,8.140339,22.329500,21.471657,0.382122,0.175954,0.443879,4.228484,-0.582345,-0.604693,-0.470338,-0.272034,100.256692,12.638822,65.182452
07463,NaN,24.242528,11.361491,-3.903933,9.330003,24.475508,-3.042101,-0.295824,0.406812,3.732065,-0.577101,-0.611979,-0.459716,-0.284776,100.057261,10.489305,65.027503
07464,NaN,-1.045780,17.619791,1.018772,4.471601,-0.040778,7.292022,-0.115801,0.607481,2.854302,-0.571931,-0.617304,-0.452494,-0.295093,100.001967,8.816271,65.082339
07465,NaN,-5.251623,8.251414,1.893111,1.240816,-5.119701,-1.357395,-0.343277,0.450621,2.923627,-0.567588,-0.622237,-0.444162,-0.305590,99.801081,7.117403,65.044067
07466,NaN,4.188957,7.464593,2.000936,5.040248,3.091613,-3.308494,0.503153,0.236035,2.817555,-0.561131,-0.629525,-0.436762,-0.313159,100.074745,5.501926,64.893906
07467,NaN,14.779141,8.720232,-3.748789,4.685999,14.910748,-1.799813,0.766683,-0.118564,2.937535,-0.554306,-0.638236,-0.428293,-0.319318,100.484631,3.853746,64.521325
07468,NaN,18.129257,14.554764,-8.690134,2.949078,19.646464,5.064089,0.432018,-0.359493,2.490461,-0.549671,-0.645317,-0.419977,-0.324109,100.708072,2.487044,64.051877
07469,NaN,3.827811,16.342255,-0.251356,4.365757,2.755518,6.159898,-0.770365,0.706912,1.651344,-0.547959,-0.645527,-0.415279,-0.332535,100.275571,1.477919,64.273731
07470,NaN,-3.342536,8.145759,1.813932,1.509092,-4.280044,-2.052608,-0.757589,0.801546,1.586490,-0.546071,-0.645411,-0.411050,-0.341012,99.848358,0.500659,64.563280
07471,NaN,0.455356,6.981620,-0.403442,0.924021,0.081493,-2.866323,0.092637,0.377040,1.273724,-0.542802,-0.647659,-0.408073,-0.345513,99.902669,-0.260369,64.646763
07472,NaN,1.782197,11.665119,-2.138888,0.622247,1.536068,2.064919,0.079294,0.124691,1.239468,-0.540133,-0.650204,-0.404501,-0.349099,99.950568,-0.974238,64.590850
07473,NaN,-1.805459,9.059172,-3.990795,-3.021518,-0.809997,-0.248811,-0.357502,0.312976,1.171903,-0.538594,-0.651084,-0.400861,-0.354002,99.745460,-1.671418,64.648551
07474,NaN,3.131970,10.630317,-2.332881,0.709591,2.707436,1.160916,-0.342131,0.166720,1.138779,-0.537341,-0.652167,-0.396964,-0.358277,99.551961,-2.332711,64.629503
07475,NaN,0.546055,9.587442,-2.380402,-0.674534,0.417819,0.048985,-0.645543,0.245222,1.101853,-0.536962,-0.652201,-0.392822,-0.363313,99.181767,-2.983374,64.661298
07476,NaN,-2.338329,9.781096,-0.973575,-0.721123,-2.865316,-0.150688,-0.485062,0.060047,1.081741,-0.536444,-0.652932,-0.388542,-0.367346,98.909581,-3.602947,64.593891
07477,NaN,-1.636652,9.938901,-1.747938,-1.184640,-2.012638,0.140215,-0.337157,-0.274406,1.222075,-0.535651,-0.654800,-0.383375,-0.370592,98.737261,-4.279207,64.368841
07478,NaN,1.361935,9.152366,-3.071106,-1.240146,1.262879,-0.225263,-0.490451,-0.448048,1.157899,-0.535950,-0.656551,-0.377442,-0.373144,98.486767,-4.898825,64.010722
07479,NaN,1.265362,9.555873,-2.028066,-0.380695,0.605834,0.011571,-0.319399,-0.420866,1.127649,-0.535665,-0.658629,-0.371968,-0.375381,98.335738,-5.507360,63.672226
07480,NaN,1.942227,9.711524,-1.695091,0.161234,0.965737,0.187298,-0.367450,-0.224047,1.063335,-0.535279,-0.660061,-0.367145,-0.378155,98.149232,-6.094044,63.452919
07481,NaN,1.526818,10.617733,-1.183123,0.432186,0.157856,0.969454,-0.385598,-0.248832,0.955084,-0.535181,-0.661277,-0.362551,-0.380593,97.954351,-6.620535,63.229708
07482,NaN,1.522026,9.859719,-1.999924,-0.422488,0.564689,0.337796,-0.353327,-0.211553,0.853685,-0.535093,-0.662303,-0.358461,-0.382800,97.776711,-7.090631,63.037543
07483,NaN,2.235365,9.620282,-0.885254,0.812677,0.695266,0.045606,-0.377481,-0.144960,0.791629,-0.535068,-0.663016,-0.354685,-0.385111,97.580655,-7.533624,62.889423
07484,NaN,2.015957,9.863485,-0.612658,0.909078,0.287204,0.228146,-0.344526,-0.046142,0.720071,-0.534892,-0.663483,-0.351483,-0.387479,97.396500,-7.941414,62.804902
07485,NaN,2.243878,10.490553,-1.111731,0.535827,0.541236,0.945658,-0.368283,0.002826,0.709919,-0.534562,-0.663665,-0.348591,-0.390227,97.195901,-8.353042,62.789239
07486,NaN,1.488019,10.197843,-0.973123,0.239073,-0.181757,0.534604,-0.322160,0.051674,0.712886,-0.534136,-0.663969,-0.345707,-0.392849,97.016929,-8.764230,62.764052
07487,NaN,1.893703,10.419315,-1.326786,0.055467,0.232311,0.857411,-0.249445,0.076419,0.711296,-0.533257,-0.664305,-0.343237,-0.395632,96.878267,-9.182095,62.794345
07488,NaN,2.175508,9.726188,-1.733668,-0.269800,0.734191,0.273173,-0.373615,0.178296,0.856901,-0.532481,-0.664448,-0.340099,-0.399132,96.659446,-9.683913,62.834726
07489,NaN,1.530748,10.157766,-1.715153,-0.605870,0.010270,0.584292,-0.328388,0.251955,0.845176,-0.531436,-0.664533,-0.337263,-0.402772,96.457944,-10.185967,62.920163
07490,NaN,1.490838,9.849128,-1.886322,-0.856846,0.044920,0.289244,-0.310343,0.279965,0.939297,-0.530086,-0.664748,-0.334232,-0.406703,96.264252,-10.740862,63.017855
07491,NaN,1.048282,10.434488,-1.318363,-0.608758,-0.791455,0.709556,-0.202105,0.253510,0.948835,-0.528383,-0.665307,-0.331296,-0.410391,96.133954,-11.301426,63.101166
07492,NaN,1.060479,10.516504,-1.518842,-0.854824,-0.794494,0.801705,-0.297062,0.244043,0.998972,-0.526899,-0.665696,-0.327979,-0.414315,95.950207,-11.887612,63.177819
07493,NaN,1.921281,10.005527,-2.224397,-1.184974,0.290957,0.543946,-0.233936,0.280959,1.069511,-0.524977,-0.666273,-0.324631,-0.418442,95.797389,-12.517969,63.273514
07494,NaN,2.063756,10.812578,-1.970931,-0.975842,0.017347,1.327400,-0.146562,0.377989,1.086210,-0.522560,-0.666878,-0.321668,-0.422771,95.681194,-13.161159,63.426896
07495,NaN,1.897281,11.372370,-1.347547,-0.578546,-0.637943,1.763277,-0.239825,0.451964,1.154032,-0.520166,-0.667171,-0.318451,-0.427667,95.499777,-13.848702,63.621721
07496,NaN,1.764144,11.486166,-0.929836,-0.355624,-1.070887,1.790488,-0.266737,0.436238,1.212509,-0.517746,-0.667489,-0.314939,-0.432678,95.303301,-14.566183,63.807143
07497,NaN,1.691555,11.864823,-0.287252,0.081896,-1.620586,2.065138,-0.328755,0.395991,1.276490,-0.515430,-0.667808,-0.310949,-0.437807,95.074801,-15.319247,63.968579
07498,NaN,1.512526,12.290533,0.949631,0.994814,-2.525775,2.306517,-0.474170,0.372796,1.304667,-0.513553,-0.667810,-0.306484,-0.443127,94.764208,-16.084681,64.119237
07499,NaN,1.295383,12.610950,0.533801,0.373475,-2.754491,2.567499,-0.631077,0.342865,1.433216,-0.511926,-0.667636,-0.301135,-0.448901,94.366515,-16.922955,64.251389
07500,NaN,1.131843,12.161525,0.983937,0.588015,-3.082335,2.032215,-0.631119,0.174769,1.585619,-0.510180,-0.668019,-0.294838,-0.454463,93.997383,-17.838728,64.282803
07501,NaN,0.839645,13.168174,0.779410,0.052208,-3.711716,2.873084,-0.577040,0.107387,1.749981,-0.507935,-0.668885,-0.287910,-0.460112,93.671223,-18.847218,64.272987
07502,NaN,0.437478,13.445379,0.053164,-0.971322,-4.019849,2.988235,-0.659240,0.026785,1.910072,-0.505668,-0.669893,-0.280035,-0.465965,93.314711,-19.942951,64.214714
07503,NaN,0.773725,13.784611,-0.929307,-1.945793,-3.638045,3.395223,-0.564952,0.007923,2.079874,-0.502658,-0.671349,-0.271723,-0.472009,93.016652,-21.136849,64.145474
07504,NaN,0.462047,13.623369,-1.297010,-2.579329,-3.911737,3.053112,-0.542713,0.072546,2.270967,-0.498974,-0.672882,-0.262961,-0.478652,92.718410,-22.440946,64.116224
07505,NaN,0.989545,13.245875,-1.215996,-2.432273,-3.613206,2.794087,-0.366102,0.134158,2.445419,-0.494122,-0.674839,-0.254141,-0.485642,92.506004,-23.847702,64.126478
07506,NaN,0.576763,13.394856,-0.676580,-2.299284,-4.507363,2.621101,-0.170049,0.198116,2.627465,-0.488006,-0.677246,-0.245307,-0.492962,92.389572,-25.359110,64.176576
07507,NaN,-0.134543,14.254376,-0.882719,-3.063673,-5.649132,2.941601,-0.132023,0.253133,2.842437,-0.481071,-0.679745,-0.235921,-0.500858,92.278422,-26.995625,64.260306
07508,NaN,-0.998233,16.095963,-1.126000,-4.091008,-7.373618,3.979269,0.018782,0.265706,2.998433,-0.473115,-0.682613,-0.226368,-0.508881,92.248384,-28.720792,64.351599
07509,NaN,-2.447125,19.565159,-1.279841,-5.578813,-10.428018,6.015227,-0.057864,0.250740,3.140609,-0.464962,-0.685334,-0.216041,-0.517159,92.176514,-30.527451,64.432931
07510,NaN,-3.313377,21.357424,-3.201518,-8.238703,-11.618644,6.753943,-0.308702,0.319359,3.352507,-0.456923,-0.687342,-0.204446,-0.526293,91.933832,-32.456155,64.562430
07511,NaN,-5.567913,22.082183,-5.440409,-11.531414,-13.254358,5.663473,-0.360912,0.526690,3.558821,-0.448170,-0.688683,-0.192415,-0.536503,91.572572,-34.505952,64.845281
07512,NaN,-9.624870,24.219267,-6.548830,-14.663961,-17.449146,4.417908,-0.086335,0.823183,3.642205,-0.437810,-0.689693,-0.181433,-0.547475,91.226858,-36.606268,65.357844
07513,NaN,-12.547209,26.809167,-7.327511,-17.076766,-21.239049,3.863463,0.095701,1.207722,3.501253,-0.426711,-0.689680,-0.172220,-0.559106,90.780057,-38.625844,66.182676
07514,NaN,-10.047018,27.058732,-5.184109,-14.435144,-21.013775,4.676998,-0.058564,2.033640,3.181658,-0.416173,-0.686514,-0.165373,-0.572843,89.796757,-40.457406,67.677170
07515,NaN,-1.729940,21.832292,-3.885088,-9.685660,-13.067153,5.356753,-0.611503,3.208716,3.317559,-0.405993,-0.678636,-0.158862,-0.591089,87.796212,-42.320247,70.175817
07516,NaN,9.561965,16.848987,-3.482172,-5.676508,-2.814757,8.821063,-0.655869,4.222312,3.780313,-0.393509,-0.667582,-0.152586,-0.613354,85.019033,-44.334008,73.677015
07517,NaN,12.597148,17.680064,-4.781180,-7.342066,-1.510065,11.111349,-0.434776,4.307879,4.264113,-0.378405,-0.656490,-0.145426,-0.636145,82.007139,-46.484375,77.558739
07518,NaN,15.446195,19.562446,-6.423638,-9.832028,-1.234979,13.940375,0.248006,3.122859,4.117508,-0.362078,-0.649830,-0.138544,-0.653778,79.818156,-48.535157,80.721685
07519,NaN,2.258869,21.621640,-7.938303,-13.738347,-11.651382,4.715004,-0.501876,2.455892,3.069682,-0.350985,-0.642797,-0.132057,-0.667969,77.534761,-49.999346,83.500872
07520,NaN,-14.450213,16.416163,-7.934874,-13.460341,-18.840854,-12.060661,-2.064926,2.207265,2.419754,-0.347995,-0.633308,-0.121218,-0.680534,74.459532,-51.042153,85.954285
07521,NaN,-25.667782,-5.648016,-11.680027,-9.966128,-8.824368,-35.305893,-1.505974,2.528457,0.743641,-0.347949,-0.622414,-0.118642,-0.690982,71.736514,-51.040528,88.456492
07522,NaN,-18.622761,-2.503241,-4.629809,-3.699940,-8.707745,-26.694191,0.550661,1.781704,0.024440,-0.345057,-0.617234,-0.123550,-0.696200,70.862085,-50.730084,89.992513
07523,NaN,-12.392883,3.563496,-3.638101,-4.484743,-9.614769,-17.995267,0.439547,1.961652,-0.627397,-0.344051,-0.610699,-0.130821,-0.701114,69.987496,-50.024747,91.547578
07524,NaN,-11.609494,3.502644,-3.618404,-4.261222,-9.243203,-17.332010,0.137101,2.043516,-1.192071,-0.346428,-0.602979,-0.138434,-0.705152,69.065903,-48.978990,92.865199
07525,NaN,-11.390354,2.062772,-2.712540,-2.795675,-8.452890,-17.691730,0.344084,1.521384,-1.815294,-0.350230,-0.596876,-0.148081,-0.706506,68.776344,-47.703068,93.591462
07526,NaN,-9.935445,3.006991,-1.663138,-2.114330,-8.536807,-15.571845,0.629240,0.620010,-2.334037,-0.356089,-0.594044,-0.158331,-0.703736,69.298610,-46.330899,93.372964
07527,NaN,-8.938958,2.499229,-2.075340,-2.426456,-7.553317,-15.057832,0.880821,-0.275435,-2.761827,-0.363060,-0.594313,-0.169351,-0.697352,70.517743,-44.904002,92.424244
07528,NaN,-6.675538,4.407775,-1.754094,-2.860272,-7.394903,-11.860964,1.184857,-1.037350,-3.259813,-0.371703,-0.597254,-0.181244,-0.687223,72.324246,-43.326469,90.807312
07529,NaN,-4.924327,5.990994,-1.474535,-3.151756,-7.212043,-9.212692,1.213253,-1.500794,-3.662803,-0.381935,-0.601249,-0.193547,-0.674659,74.331421,-41.562173,88.870507
07530,NaN,-3.485375,5.978698,-2.265807,-3.927923,-5.893293,-8.122051,1.287828,-1.838464,-3.963235,-0.393092,-0.605950,-0.206229,-0.660132,76.438426,-39.633864,86.770050
07531,NaN,-2.961613,6.553109,-2.334975,-4.134324,-5.695553,-7.051613,1.377073,-1.929099,-4.274826,-0.404891,-0.610464,-0.219896,-0.644239,78.518350,-37.481223,84.706989
07532,NaN,-3.249944,6.957386,-2.291934,-4.200849,-5.998706,-6.560747,1.407840,-1.934768,-4.537989,-0.417186,-0.614387,-0.234275,-0.627376,80.478398,-35.129741,82.762908
07533,NaN,-2.814784,7.652140,-2.399884,-4.380631,-5.788341,-5.393894,1.455657,-1.972287,-4.821263,-0.429986,-0.617765,-0.249475,-0.609295,82.345436,-32.565318,80.917177
07534,NaN,-1.557247,9.629101,-2.070884,-4.205339,-5.515419,-2.650054,1.520786,-1.902560,-5.046020,-0.442848,-0.620324,-0.265487,-0.590424,84.083244,-29.826067,79.248924
07535,NaN,-0.340901,10.683841,-1.866719,-3.809933,-4.609478,-0.760012,1.455786,-1.752528,-5.260299,-0.455998,-0.621509,-0.282131,-0.571134,85.609903,-26.912332,77.801465
07536,NaN,0.436937,11.799371,-1.392895,-3.116230,-4.027290,0.929160,1.551283,-1.628931,-5.376414,-0.468619,-0.621881,-0.299414,-0.551373,87.038702,-23.900817,76.548256
07537,NaN,1.014149,12.835350,-1.095408,-2.507632,-3.419938,2.391573,1.599998,-1.521829,-5.418976,-0.480655,-0.621469,-0.317001,-0.531279,88.370749,-20.830898,75.468808
07538,NaN,0.692248,12.966422,-0.994297,-2.114272,-3.179432,2.635962,1.639684,-1.493716,-5.486554,-0.492277,-0.620441,-0.334654,-0.510611,89.631893,-17.705402,74.500810
07539,NaN,0.057429,13.381346,-1.037575,-1.941689,-3.248008,3.062381,1.753970,-1.628242,-5.577622,-0.503570,-0.619317,-0.352291,-0.488626,90.906899,-14.502549,73.542877
07540,NaN,0.541265,14.527906,-1.519782,-1.866310,-2.269094,4.503867,1.865852,-1.774576,-5.682414,-0.514543,-0.618071,-0.369781,-0.465291,92.190992,-11.223004,72.587137
07541,NaN,0.900137,15.635961,-1.845336,-1.544437,-1.304622,5.824755,1.952932,-1.767206,-5.787366,-0.524977,-0.616211,-0.387492,-0.441059,93.456932,-7.858220,71.724968
07542,NaN,0.835930,17.279809,-1.816224,-0.867976,-0.789131,7.539791,2.136940,-1.868662,-5.892927,-0.534718,-0.614226,-0.405223,-0.415449,94.772758,-4.416107,70.891071
07543,NaN,2.065441,20.792907,-1.355572,0.969584,0.815249,11.084363,2.386021,-2.242598,-5.906478,-0.543898,-0.612960,-0.422104,-0.387664,96.188364,-0.921496,69.932029
07544,NaN,6.920403,23.758186,-0.136619,5.089518,5.834184,13.686299,2.363113,-2.703063,-5.796558,-0.553272,-0.612067,-0.436826,-0.358396,97.528294,2.558673,68.787314
07545,NaN,12.911048,23.856150,0.565519,9.007961,12.161862,12.700305,1.721011,-2.421827,-5.712738,-0.563246,-0.608385,-0.450475,-0.331201,98.448657,5.996096,67.863273
07546,NaN,11.751343,21.021069,1.839366,10.144890,11.358157,8.929489,1.294393,-2.127099,-5.555448,-0.573033,-0.602788,-0.463291,-0.306008,99.095112,9.325683,67.133991
07547,NaN,11.751705,23.403840,4.340421,13.696870,11.267281,9.934574,1.455989,-2.424391,-5.161697,-0.581913,-0.598463,-0.473930,-0.280374,99.760898,12.473316,66.229392
07548,NaN,15.977124,25.496162,3.703690,16.158844,16.181560,10.084273,1.157704,-2.715427,-4.740114,-0.591298,-0.594202,-0.481623,-0.255595,100.161389,15.415443,65.130704
07549,NaN,21.135607,22.967415,2.335259,17.180774,21.320587,5.344557,0.674649,-2.630680,-4.242910,-0.600868,-0.589164,-0.487154,-0.233501,100.232108,18.076709,64.028076
07550,NaN,24.329288,19.485510,-0.929584,15.344599,25.122471,0.470080,0.189123,-2.511202,-3.435192,-0.610301,-0.584192,-0.489812,-0.215259,99.968483,20.264818,62.889812
07551,NaN,27.356402,14.693199,-9.561728,8.433325,30.952597,-4.676131,-0.245117,-2.642637,-2.663198,-0.620252,-0.579678,-0.489161,-0.199954,99.350079,22.023616,61.560478
07552,NaN,33.559942,10.904737,-12.253088,8.316876,36.394943,-11.021598,-0.214338,-2.191967,-1.890452,-0.628060,-0.576548,-0.487548,-0.188230,98.781056,23.289087,60.397368
07553,NaN,38.566921,8.483817,-8.076325,13.631513,37.351028,-16.421536,0.124865,-0.570596,-0.902559,-0.629932,-0.575293,-0.488445,-0.183428,98.746604,23.848775,60.126985
07554,NaN,34.616603,10.319263,-4.738407,15.186753,32.874980,-13.793145,0.563094,0.710856,-0.021077,-0.626590,-0.576384,-0.491227,-0.184019,99.247858,23.794923,60.564615
07555,NaN,24.918902,12.158619,1.269026,16.288517,22.457654,-8.960136,0.473253,0.822032,0.773644,-0.622479,-0.579034,-0.491967,-0.187637,99.690420,23.277316,60.987576
07556,NaN,19.678614,14.742508,-0.716125,13.116201,19.961937,-3.932651,0.834213,0.776801,1.614422,-0.616609,-0.584872,-0.490440,-0.192839,100.285368,22.287127,61.284802
07557,NaN,15.055468,19.176633,4.653477,16.903713,14.288436,1.418702,0.207607,1.283951,2.425194,-0.610451,-0.590204,-0.487422,-0.203540,100.591286,20.783314,61.787361
07558,NaN,-0.346022,26.273989,6.733084,13.836252,1.902709,13.440025,-1.275883,1.439534,2.050008,-0.608562,-0.589810,-0.484391,-0.217122,100.080855,19.477821,62.422970
07559,NaN,-48.709765,27.103937,12.715247,-2.510743,-41.561767,29.369125,-4.181647,1.445707,2.019055,-0.615015,-0.580273,-0.478110,-0.237592,97.902766,18.201127,63.091615
07560,NaN,-22.248367,10.626803,4.911011,-2.842370,-19.160256,6.211386,-0.687200,-0.901971,3.626590,-0.614745,-0.587824,-0.463884,-0.247715,97.266121,16.207422,62.264349
07561,NaN,26.035712,17.688918,2.272764,17.843716,24.059802,0.112161,0.466603,0.044739,4.238932,-0.607879,-0.598931,-0.451999,-0.259733,97.457176,13.791960,61.964218
07562,NaN,30.029847,11.940048,-6.898800,10.382268,30.807827,-3.907708,0.010101,0.736701,4.270809,-0.600493,-0.607544,-0.441328,-0.274824,97.486327,11.308669,62.063124
07563,NaN,1.024737,18.385372,3.984376,7.613783,0.719366,7.404555,0.526581,1.117875,3.279265,-0.591823,-0.614768,-0.435334,-0.286863,97.858682,9.356277,62.448816
07564,NaN,-0.482983,10.477534,5.120960,6.222855,-2.155333,-0.176235,0.150155,0.889592,2.901952,-0.585191,-0.620210,-0.429184,-0.297812,97.987205,7.637036,62.723687
07565,NaN,3.663061,8.273238,1.645999,4.618878,2.779771,-2.362338,1.261272,0.283975,2.613447,-0.576710,-0.629055,-0.423698,-0.303605,98.703650,6.127078,62.662433
07566,NaN,1.638559,9.424758,-1.567414,1.118918,2.288867,-0.460059,1.366456,0.247685,2.168377,-0.568544,-0.637188,-0.419604,-0.307704,99.482686,4.875806,62.602115
07567,NaN,10.729492,9.774077,-10.465333,-2.383655,14.220972,0.781771,0.976270,0.477147,2.372531,-0.560726,-0.644187,-0.414822,-0.313897,100.045610,3.484966,62.636597
07568,NaN,6.723539,8.354466,-11.827682,-5.675010,11.096109,0.165276,0.866536,0.229772,1.986603,-0.554302,-0.650366,-0.410376,-0.318377,100.540028,2.339526,62.558783
07569,NaN,1.481326,13.753546,0.162825,3.259290,0.481481,3.623183,-0.054714,0.484373,1.478121,-0.551105,-0.652495,-0.406766,-0.324154,100.513887,1.451063,62.672362
07570,NaN,-1.900987,9.381968,-1.033907,-0.188030,-1.846983,-0.365158,-0.307718,0.243410,1.357308,-0.549394,-0.654024,-0.402473,-0.329293,100.339303,0.658996,62.664909
07571,NaN,3.774062,8.063464,-3.366531,0.092900,4.252555,-1.297840,-0.197657,0.068559,1.245567,-0.547829,-0.655899,-0.398208,-0.333332,100.226928,-0.055259,62.571604
07572,NaN,1.441543,10.364052,1.148121,3.261214,-0.144496,0.194921,-0.214292,-0.075350,1.108377,-0.546819,-0.657662,-0.393977,-0.336529,100.107022,-0.674727,62.413147
07573,NaN,0.263588,10.955739,-1.720659,0.227077,-0.028868,1.278073,-0.256424,-0.097194,0.979633,-0.546185,-0.659083,-0.390007,-0.339391,99.964061,-1.222824,62.255939
07574,NaN,-0.225571,10.932585,-1.402968,0.204074,-0.680741,1.188893,-0.218748,-0.089983,0.871777,-0.545590,-0.660359,-0.386487,-0.341884,99.844189,-1.708029,62.115340
07575,NaN,1.783908,11.016331,-2.037893,0.529284,1.313499,1.442923,-0.425032,-0.084361,0.740548,-0.545872,-0.660805,-0.383036,-0.344446,99.606161,-2.123097,61.991461
07576,NaN,0.868681,9.462967,0.349226,1.910551,-0.456553,-0.508647,-0.494825,-0.053413,0.636581,-0.546502,-0.660789,-0.379905,-0.346939,99.328291,-2.479883,61.897369
07577,NaN,0.920465,10.453430,-0.406682,1.336441,-0.215869,0.601428,-0.255896,-0.091584,0.589182,-0.546483,-0.661400,-0.377217,-0.348732,99.188116,-2.809640,61.786695
07578,NaN,0.794204,9.951661,-3.574728,-1.600607,1.157504,0.605710,-0.350171,-0.023323,0.421415,-0.546941,-0.661304,-0.375121,-0.350452,98.992171,-3.048029,61.731457
07579,NaN,1.520048,9.953312,-2.529270,-0.395407,1.297266,0.479867,-0.389165,0.079362,0.347976,-0.547454,-0.660787,-0.373459,-0.352396,98.770026,-3.257013,61.741195
07580,NaN,1.881375,9.678946,-2.775890,-0.526835,1.754693,0.265523,-0.501749,0.258029,0.230233,-0.548214,-0.659414,-0.372493,-0.354801,98.477269,-3.411713,61.863984
07581,NaN,-0.055451,9.673473,-2.158899,-0.954760,-0.233757,0.050049,-0.453871,0.288199,0.190284,-0.548820,-0.658047,-0.371804,-0.357118,98.209930,-3.548527,62.007407
07582,NaN,-0.421539,9.991345,-1.582472,-0.639853,-0.863997,0.254724,-0.402110,0.206004,0.298398,-0.549217,-0.657156,-0.370642,-0.359348,97.975738,-3.736555,62.096587
07583,NaN,-0.155689,9.900766,-2.532237,-1.415549,-0.196095,0.307544,-0.497109,0.148458,0.331308,-0.549964,-0.656171,-0.369022,-0.361665,97.688725,-3.941097,62.150756
07584,NaN,0.439065,9.837081,-2.185056,-0.902011,0.164113,0.231935,-0.490340,0.200305,0.449408,-0.550380,-0.655314,-0.367183,-0.364448,97.404215,-4.213612,62.227139
07585,NaN,0.685137,9.510727,-2.032942,-0.747668,0.325645,-0.097202,-0.458826,0.266661,0.593503,-0.550294,-0.654686,-0.365090,-0.367794,97.134799,-4.575094,62.331665
07586,NaN,0.810796,9.599560,-1.867548,-0.602908,0.305125,-0.022924,-0.289419,0.288446,0.768728,-0.549287,-0.654784,-0.362806,-0.371366,96.961910,-5.034708,62.438264
07587,NaN,0.637057,9.537956,-1.351075,-0.290726,-0.135218,-0.163833,-0.195965,0.320630,0.861488,-0.547728,-0.655242,-0.360455,-0.375132,96.840130,-5.551580,62.557566
07588,NaN,0.660600,9.613823,-0.611198,0.321182,-0.526968,-0.176613,-0.201858,0.288393,0.949511,-0.546073,-0.655880,-0.357726,-0.379023,96.716519,-6.113542,62.654199
07589,NaN,0.679592,9.693873,-0.961229,-0.037603,-0.445074,-0.057863,-0.158188,0.221403,1.020750,-0.544239,-0.656880,-0.354636,-0.382813,96.621323,-6.713872,62.708379
07590,NaN,1.143046,9.791878,-1.403783,-0.275487,0.059213,0.141091,-0.123975,0.210115,1.042288,-0.542262,-0.658008,-0.351517,-0.386541,96.546321,-7.323169,62.756128
07591,NaN,1.672081,9.794886,-1.767584,-0.415675,0.592532,0.253846,-0.000048,0.291841,1.064900,-0.539668,-0.659340,-0.348757,-0.390381,96.535389,-7.953027,62.849372
07592,NaN,1.317329,10.524041,-1.003868,0.074476,-0.281838,0.836838,-0.080680,0.331882,1.080629,-0.537228,-0.660377,-0.345902,-0.394512,96.474299,-8.591987,62.965643
07593,NaN,0.921116,10.249546,-0.278786,0.471880,-0.997121,0.422611,-0.085983,0.290375,1.117522,-0.534781,-0.661530,-0.342776,-0.398613,96.412507,-9.251489,63.056024
07594,NaN,0.333279,10.595716,-0.015422,0.387095,-1.796410,0.627728,-0.170309,0.155066,1.174592,-0.532719,-0.662795,-0.338935,-0.402538,96.315105,-9.932440,63.066149
07595,NaN,0.459927,10.604622,-0.509485,-0.075198,-1.579158,0.695793,-0.226669,0.010932,1.267675,-0.530874,-0.664337,-0.334259,-0.406324,96.200680,-10.659605,62.987817
07596,NaN,0.473175,10.858784,-0.360469,-0.019135,-1.799456,0.912365,-0.273817,-0.116743,1.354754,-0.529203,-0.666125,-0.328860,-0.409967,96.075561,-11.426494,62.831713
07597,NaN,1.153977,11.387380,-0.423173,0.138364,-1.423340,1.551108,-0.235067,-0.214051,1.439686,-0.527357,-0.668323,-0.322969,-0.413436,95.986868,-12.238299,62.614395
07598,NaN,1.378144,12.338747,0.309375,0.783567,-1.918004,2.432468,-0.311528,-0.213420,1.526695,-0.525560,-0.670416,-0.316626,-0.417225,95.858699,-13.098032,62.393425
07599,NaN,0.961318,12.679795,-0.242163,-0.030674,-2.273846,2.700704,-0.445224,-0.141875,1.603445,-0.523898,-0.672089,-0.309900,-0.421650,95.647662,-14.008249,62.211377
07600,NaN,0.922074,12.379110,-1.104980,-0.952787,-2.007648,2.449897,-0.431194,-0.125576,1.756672,-0.521805,-0.673947,-0.302721,-0.426467,95.447126,-15.005391,62.033097
07601,NaN,0.469379,13.153468,-1.534293,-1.718958,-2.592185,3.067861,-0.365134,-0.050960,1.892676,-0.519037,-0.675968,-0.295381,-0.431762,95.276681,-16.086511,61.893653
07602,NaN,0.586965,13.893437,-1.792216,-2.096995,-2.792867,3.765965,-0.391151,0.051532,2.019490,-0.515883,-0.677816,-0.287804,-0.437719,95.077981,-17.243872,61.811524
07603,NaN,0.722905,13.783268,-1.308972,-1.777897,-3.088331,3.585365,-0.351168,0.166777,2.197366,-0.511976,-0.679696,-0.279965,-0.444425,94.883999,-18.510415,61.792620
07604,NaN,0.840643,13.434741,-0.239447,-0.925780,-3.604529,3.125547,-0.255431,0.261045,2.377889,-0.507145,-0.681769,-0.271941,-0.451711,94.728634,-19.882946,61.825687
07605,NaN,0.428982,13.294183,1.408463,0.196667,-4.894728,2.633065,-0.227920,0.263054,2.525655,-0.501802,-0.684006,-0.263427,-0.459280,94.588592,-21.341324,61.856561
07606,NaN,0.164341,13.793401,1.950572,0.329828,-5.805508,2.846933,-0.274003,0.181769,2.640868,-0.496377,-0.686346,-0.254176,-0.466834,94.441146,-22.860310,61.836129
07607,NaN,0.007275,14.125304,0.714392,-1.084394,-5.796904,3.041956,-0.366869,0.096219,2.750253,-0.491030,-0.688668,-0.244063,-0.474404,94.262158,-24.439333,61.761631
07608,NaN,-0.046499,14.427981,-0.539797,-2.487885,-5.699544,3.216949,-0.401123,0.042111,2.850564,-0.485532,-0.691018,-0.233352,-0.481974,94.080593,-26.072414,61.652867
07609,NaN,-0.876253,16.102511,-0.997629,-3.727804,-7.174207,4.175493,-0.299628,0.047803,2.941282,-0.479354,-0.693558,-0.222528,-0.489569,93.958133,-27.758752,61.547086
07610,NaN,-2.765678,18.871210,-2.908212,-6.933007,-9.369983,5.560583,-0.319248,0.048069,3.042882,-0.472887,-0.696007,-0.211262,-0.497313,93.828675,-29.502459,61.439400
07611,NaN,-2.866606,20.179042,-5.761761,-10.046837,-9.169769,6.421470,-0.377833,0.215387,3.201218,-0.465937,-0.697894,-0.199638,-0.505956,93.613197,-31.343654,61.440209
07612,NaN,-4.507386,20.189867,-6.063007,-11.286973,-10.695376,5.116308,-0.304223,0.608685,3.378683,-0.457757,-0.698942,-0.188446,-0.516166,93.296560,-33.299443,61.709830
07613,NaN,-9.096451,22.748673,-5.047852,-12.954345,-16.289791,4.061448,0.048388,1.030745,3.366504,-0.447842,-0.699481,-0.179115,-0.527334,92.998499,-35.260134,62.291170
07614,NaN,-13.492433,25.538190,-4.671229,-14.994076,-21.613708,2.993906,0.080765,1.528607,3.124376,-0.437867,-0.698351,-0.171776,-0.539510,92.471940,-37.092567,63.264657
07615,NaN,-10.422909,23.507319,-4.222929,-13.026004,-18.966906,2.417664,-0.006185,2.093904,2.940209,-0.428074,-0.695126,-0.166038,-0.553158,91.584090,-38.819995,64.705445
07616,NaN,-4.475260,20.566518,-2.352896,-8.691301,-14.297346,3.169973,-0.336262,3.011975,3.078335,-0.418110,-0.688497,-0.160797,-0.570350,89.982570,-40.610055,66.912776
07617,NaN,10.468720,17.269966,-4.443404,-5.742531,-1.596155,9.985913,-0.323023,3.529597,3.743766,-0.405558,-0.680564,-0.154311,-0.590375,87.968721,-42.719699,69.666430
07618,NaN,14.319918,20.303694,-6.181000,-8.002243,-0.986252,14.484232,-0.197635,3.345177,4.415155,-0.390443,-0.673463,-0.145410,-0.610621,85.885341,-45.146468,72.507709
07619,NaN,11.431450,21.466259,-4.887685,-8.510497,-5.087895,12.923352,-0.127712,2.563402,4.412431,-0.375398,-0.668405,-0.135120,-0.627737,84.052321,-47.537295,74.943186
07620,NaN,4.305133,18.527656,-6.678036,-11.095898,-7.833073,5.082885,-0.840002,1.814942,3.317062,-0.366477,-0.663276,-0.124763,-0.640464,82.155345,-49.302475,76.837865
07621,NaN,-10.528124,17.270213,-6.541935,-12.948041,-16.715168,-7.623178,-1.095625,1.864140,3.354891,-0.358118,-0.657290,-0.113525,-0.653325,79.910518,-51.035662,78.947136
07622,NaN,-25.233066,-1.469938,-10.289683,-11.889832,-11.219927,-31.663010,-2.383163,2.392201,0.756205,-0.362046,-0.645568,-0.107506,-0.663782,76.777465,-51.186407,81.220240
07623,NaN,-21.035813,-5.323753,-6.449715,-6.043109,-7.263056,-30.383514,-0.923747,1.757002,-0.537510,-0.365834,-0.637774,-0.109362,-0.668917,75.145818,-50.643772,82.644946
07624,NaN,-16.474909,2.008906,-5.890117,-7.441593,-10.019915,-22.237149,0.145520,1.619355,-0.891614,-0.367429,-0.632138,-0.115635,-0.672329,74.318850,-49.910060,83.830919
07625,NaN,-13.113332,4.383220,-5.051369,-7.077444,-10.028757,-17.937623,-0.062221,1.835428,-1.439892,-0.371367,-0.625011,-0.123357,-0.675448,73.381622,-48.825225,85.023952
07626,NaN,-11.735023,3.499747,-4.829577,-6.358484,-8.799868,-17.256347,-0.191310,1.684767,-2.098880,-0.377958,-0.617645,-0.132372,-0.676861,72.639131,-47.396594,85.876518
07627,NaN,-11.130507,3.418720,-4.327907,-5.781175,-8.692986,-16.543806,-0.018990,1.029668,-2.685451,-0.386373,-0.612316,-0.142553,-0.674880,72.528263,-45.751771,86.019993
07628,NaN,-10.464099,3.312288,-2.745188,-4.266310,-8.782321,-15.527917,0.385608,0.210038,-3.104612,-0.395450,-0.610095,-0.153732,-0.669156,73.161677,-44.020140,85.438237
07629,NaN,-8.091535,5.438984,-1.062639,-3.365538,-9.006232,-11.745411,0.666956,-0.574636,-3.493393,-0.405471,-0.610584,-0.165481,-0.659846,74.371366,-42.189731,84.233890
07630,NaN,-6.158537,6.825824,-0.780949,-3.505805,-8.500689,-9.060342,0.736828,-1.219849,-3.809298,-0.416693,-0.612855,-0.177018,-0.647642,75.880765,-40.263000,82.587379
07631,NaN,-4.595683,6.613208,-2.004213,-4.501421,-6.754202,-8.086995,0.832454,-1.739291,-4.155979,-0.429022,-0.616412,-0.188801,-0.632717,77.602571,-38.172322,80.626056
07632,NaN,-2.795444,6.948313,-2.555489,-4.910308,-5.227084,-6.469310,0.994356,-1.855373,-4.428453,-0.441569,-0.620079,-0.201541,-0.616360,79.345186,-35.901631,78.682582
07633,NaN,-2.519281,7.213246,-2.055092,-4.432501,-5.092963,-5.689277,1.110714,-1.787083,-4.644121,-0.454088,-0.623185,-0.215374,-0.599215,81.000772,-33.452487,76.899572
07634,NaN,-1.971566,8.486154,-2.251324,-4.772243,-4.963829,-4.021526,1.264491,-1.782586,-4.875533,-0.466494,-0.625954,-0.230210,-0.581006,82.614777,-30.835983,75.232067
07635,NaN,-1.068993,10.850051,-2.451647,-5.183298,-4.880849,-1.201251,1.301734,-1.793091,-5.030282,-0.478915,-0.628198,-0.245489,-0.561910,84.131385,-28.089135,73.674470
07636,NaN,-0.070200,11.679212,-2.703909,-5.098215,-3.849910,0.329795,1.264840,-1.733004,-5.114943,-0.491239,-0.629606,-0.260842,-0.542440,85.489895,-25.263130,72.267733
07637,NaN,0.890261,11.773523,-2.644312,-4.468589,-2.577076,1.130465,1.360403,-1.701122,-5.204312,-0.503090,-0.630547,-0.276655,-0.522276,86.792702,-22.350701,70.982350
07638,NaN,1.801069,12.249533,-2.537291,-3.785794,-1.448814,2.156351,1.514947,-1.696860,-5.262848,-0.514183,-0.631280,-0.292798,-0.501369,88.085780,-19.384485,69.795312
07639,NaN,1.690797,13.054751,-2.298829,-3.262897,-1.307809,3.077744,1.615239,-1.694977,-5.320291,-0.524683,-0.631647,-0.309179,-0.479727,89.351488,-16.355456,68.700688
07640,NaN,1.043678,13.773649,-2.082265,-2.871290,-1.555174,3.767429,1.684215,-1.789844,-5.398212,-0.534835,-0.631766,-0.325411,-0.457090,90.591142,-13.265626,67.634916
07641,NaN,0.918630,14.368975,-2.365367,-2.681393,-1.056381,4.488915,1.775985,-1.901497,-5.515957,-0.544674,-0.631611,-0.341675,-0.433192,91.824672,-10.079487,66.588063
07642,NaN,1.388195,15.527467,-2.235469,-1.802217,-0.203667,5.828825,1.952268,-1.952634,-5.667018,-0.553837,-0.631192,-0.358286,-0.408034,93.091108,-6.790010,65.595417
07643,NaN,2.109718,17.758932,-2.589920,-1.068214,1.061436,8.191676,2.175652,-2.149256,-5.779427,-0.562316,-0.630927,-0.374836,-0.381091,94.432072,-3.401320,64.577395
07644,NaN,4.046563,20.813828,-1.659465,1.693485,2.992662,11.171988,2.370410,-2.448488,-5.828040,-0.570202,-0.631004,-0.390612,-0.352315,95.824820,0.047623,63.474668
07645,NaN,9.488790,23.283016,-1.835799,5.361831,8.721742,13.218905,2.231436,-2.752745,-5.766582,-0.578371,-0.630604,-0.404675,-0.322590,97.069720,3.511612,62.275478
07646,NaN,13.260871,22.311063,-0.673078,9.161059,12.373176,11.088055,1.543595,-2.275562,-5.802650,-0.587162,-0.626701,-0.418642,-0.295338,97.876965,6.975469,61.407921
07647,NaN,12.108404,21.619117,1.560111,11.383497,11.023229,9.296406,1.381748,-1.856465,-5.610778,-0.594735,-0.621479,-0.432625,-0.269982,98.581185,10.312538,60.805895
07648,NaN,14.384372,23.206066,2.099030,14.129014,13.517305,9.352521,1.282952,-1.593674,-5.167751,-0.600938,-0.616055,-0.445479,-0.246775,99.224392,13.376985,60.348513
07649,NaN,18.069840,23.413949,2.199886,16.802405,17.195408,7.547721,1.157062,-1.223068,-4.772966,-0.605797,-0.610225,-0.457788,-0.225975,99.826154,16.192318,60.098841
07650,NaN,21.597492,21.541934,1.995474,18.326870,20.435474,3.635843,0.595637,-0.693099,-4.197094,-0.610167,-0.603093,-0.469033,-0.209722,100.176466,18.627479,60.122627
07651,NaN,23.736177,17.391320,-2.276870,14.776328,24.083038,-1.290634,0.078297,-0.436442,-3.499613,-0.614533,-0.595504,-0.478252,-0.197484,100.261436,20.646264,60.235650
07652,NaN,28.790637,14.144650,-10.109765,9.669486,31.949967,-5.712879,0.004532,-0.239533,-2.845492,-0.617839,-0.588917,-0.485915,-0.187986,100.325824,22.272898,60.399430
07653,NaN,36.020692,12.717145,-10.338158,12.128944,37.661711,-10.536650,-0.045836,0.538478,-2.065434,-0.618572,-0.583240,-0.493570,-0.183271,100.518336,23.380477,60.957208
07654,NaN,36.966078,9.803868,-3.793367,16.422633,34.335876,-15.131411,0.155526,1.879202,-1.114459,-0.614466,-0.579241,-0.502716,-0.184898,101.121853,23.803595,62.237788
07655,NaN,29.515614,9.966417,1.667752,17.229245,25.804315,-13.058504,0.486502,2.410451,-0.228428,-0.607158,-0.577923,-0.511166,-0.189929,102.008034,23.652454,63.740374
07656,NaN,21.296726,13.571287,4.076919,16.849984,19.023081,-6.889504,0.689974,1.683064,0.696957,-0.600174,-0.580201,-0.514864,-0.195124,102.773216,23.053640,64.668655
07657,NaN,15.776238,18.557147,8.025454,19.662439,13.785820,-0.812951,0.498232,1.658462,1.716837,-0.592733,-0.584494,-0.515272,-0.203787,103.350360,21.876811,65.425224
07658,NaN,19.041635,13.388302,3.651189,15.219691,17.422551,-5.345663,0.265277,1.234074,2.233539,-0.586455,-0.589757,-0.512602,-0.213300,103.653257,20.465587,65.837837
07659,NaN,-12.698677,38.844674,12.283543,18.991835,-8.411378,27.463964,-2.503992,2.100199,1.884979,-0.586335,-0.584944,-0.510397,-0.231403,102.552731,19.135971,66.818370
07660,NaN,-57.273376,18.863286,4.581635,-11.428825,-48.008366,25.138404,-4.348375,1.056924,1.630771,-0.594302,-0.574998,-0.503523,-0.250292,100.199669,18.098668,67.246188
07661,NaN,-4.605353,11.500936,4.094580,5.095094,-3.575931,1.653761,0.500644,0.230631,3.891487,-0.587298,-0.585916,-0.493511,-0.261209,100.404274,15.877557,66.960625
07662,NaN,35.345725,19.178123,1.676918,19.876234,33.812629,-0.794421,0.037705,1.106879,4.179306,-0.578860,-0.594785,-0.484426,-0.276557,100.476323,13.405721,67.152752
07663,NaN,12.666884,11.440888,-3.729553,4.309381,14.378935,-0.874268,-0.177068,0.878636,3.533054,-0.572274,-0.601552,-0.476092,-0.289783,100.402872,11.319011,67.279411
07664,NaN,-2.089535,16.966741,3.170042,6.030868,-1.596243,6.415194,-0.012544,0.462328,3.099205,-0.566649,-0.608178,-0.467990,-0.300022,100.385835,9.522653,67.214644
07665,NaN,0.813399,7.758488,1.927056,3.780102,0.460462,-2.737156,0.283470,-0.108346,3.091369,-0.561329,-0.616341,-0.458605,-0.307758,100.490199,7.786909,66.823692
07666,NaN,0.332987,8.956669,0.487166,2.518057,0.431896,-1.208184,0.778617,-0.466406,2.731919,-0.555734,-0.625473,-0.450002,-0.312158,100.869458,6.296292,66.262920
07667,NaN,1.343083,9.110166,-3.459739,-0.581487,2.753582,-0.386966,0.715261,-0.314236,2.386464,-0.550429,-0.633306,-0.442699,-0.316179,101.236177,4.983755,65.817401
07668,NaN,13.320526,8.623170,-10.003723,-1.565737,16.160133,-0.418374,0.483035,-0.396706,2.494585,-0.545784,-0.640760,-0.434409,-0.320679,101.476563,3.625270,65.307784
07669,NaN,8.087081,9.763560,-8.947817,-2.522131,10.737793,1.101686,0.328270,-0.334820,2.167881,-0.541940,-0.646899,-0.427001,-0.324796,101.642258,2.441383,64.865767
07670,NaN,3.748364,16.261120,2.563209,7.010545,1.446142,5.477790,-0.708958,0.576031,1.522336,-0.540504,-0.647296,-0.422444,-0.332271,101.242980,1.519090,65.012388
07671,NaN,-0.128303,6.521793,-0.975484,0.256757,-0.125513,-3.223379,-0.884429,0.520982,1.492975,-0.539752,-0.647205,-0.417484,-0.339854,100.739590,0.616751,65.137780
07672,NaN,2.505592,10.272312,-0.584649,2.274001,1.751558,0.380416,-0.255487,0.249035,1.350123,-0.537745,-0.648924,-0.413317,-0.344815,100.595044,-0.171829,65.130930
07673,NaN,1.811385,10.782451,0.893995,3.293967,0.366888,0.644615,-0.515563,0.213820,1.151377,-0.536967,-0.649573,-0.409209,-0.349670,100.300659,-0.848517,65.127271
07674,NaN,1.099105,10.161509,-0.736348,1.331374,0.366076,0.341048,-0.749592,0.320493,1.092409,-0.536817,-0.649249,-0.405176,-0.355156,99.871657,-1.498917,65.194602
07675,NaN,1.591261,10.428428,-1.621551,0.665600,1.084058,0.784200,-0.740564,0.377340,0.909344,-0.536819,-0.648458,-0.401864,-0.360322,99.444458,-2.054563,65.315943
07676,NaN,0.577816,9.845606,-1.759048,-0.072416,0.226574,0.202617,-0.802195,0.384660,0.808847,-0.537173,-0.647255,-0.398796,-0.365332,98.981088,-2.549375,65.455581
07677,NaN,-1.168953,9.516323,-2.864541,-1.933883,-0.923844,-0.038321,-0.653779,0.252367,0.717339,-0.537456,-0.646497,-0.395904,-0.369382,98.603721,-2.983391,65.531359
07678,NaN,-2.625296,9.714726,-1.375590,-1.252881,-2.913858,-0.163891,-0.514996,0.014360,0.808141,-0.537586,-0.646708,-0.392350,-0.372602,98.314096,-3.444716,65.467484
07679,NaN,-0.784418,8.607505,-2.265060,-1.480831,-0.807694,-1.038337,-0.294939,-0.363904,0.911064,-0.537536,-0.648408,-0.387823,-0.374453,98.164465,-3.937006,65.181426
07680,NaN,0.696814,8.811171,-1.129231,0.136445,-0.010275,-0.903241,-0.171705,-0.545115,0.915712,-0.537420,-0.650762,-0.383037,-0.375461,98.096218,-4.414370,64.793218
07681,NaN,0.669247,9.846924,-1.711167,-0.338119,-0.002008,0.198453,-0.000614,-0.621918,0.991496,-0.536728,-0.653852,-0.378085,-0.376102,98.132633,-4.931923,64.354538
07682,NaN,1.188850,10.126559,-3.253032,-1.509172,0.994514,0.736037,-0.137915,-0.568950,0.962475,-0.536428,-0.656390,-0.373121,-0.377066,98.092155,-5.434007,63.948550
07683,NaN,2.026623,10.611824,-4.054320,-1.868305,1.948930,1.406319,-0.348863,-0.403605,0.858793,-0.536685,-0.657844,-0.368511,-0.378695,97.923341,-5.894428,63.645276
07684,NaN,1.790417,9.504346,-2.530937,-0.760887,1.206541,0.082190,-0.473199,-0.155585,0.774474,-0.537048,-0.658318,-0.364621,-0.381116,97.670384,-6.324138,63.492113
07685,NaN,2.071794,9.983448,-0.909434,0.777938,0.633344,0.374640,-0.371845,0.013941,0.812827,-0.536676,-0.658804,-0.361225,-0.384022,97.465226,-6.792221,63.434077
07686,NaN,1.796930,10.217035,-0.682372,0.801871,0.198038,0.550685,-0.437544,0.082290,0.762932,-0.536490,-0.658872,-0.358063,-0.387113,97.217979,-7.233984,63.421125
07687,NaN,1.387425,9.776347,-1.290469,-0.020474,0.118157,0.144835,-0.376303,0.185732,0.737655,-0.535948,-0.658854,-0.355354,-0.390377,96.997197,-7.671905,63.470648
07688,NaN,1.525114,10.198013,-0.781489,0.448960,-0.104773,0.517993,-0.334679,0.238418,0.768271,-0.535113,-0.658879,-0.352781,-0.393799,96.796341,-8.127534,63.550420
07689,NaN,0.328342,10.128645,-0.231172,0.345193,-1.447685,0.214033,-0.294302,0.268849,0.806522,-0.533999,-0.659014,-0.350215,-0.397361,96.615002,-8.609767,63.646309
07690,NaN,0.989490,10.343572,-0.686664,0.171645,-0.774678,0.570459,-0.218735,0.193707,0.878164,-0.532621,-0.659604,-0.347375,-0.400709,96.483875,-9.124540,63.696048
07691,NaN,1.554836,10.788444,-0.619938,0.431304,-0.469375,1.086169,-0.129219,0.185019,0.965268,-0.530769,-0.660593,-0.344377,-0.404112,96.404556,-9.691193,63.735743
07692,NaN,0.748923,10.767571,-1.487195,-0.767261,-0.898037,1.018611,-0.252197,0.150491,0.984153,-0.529337,-0.661334,-0.340986,-0.407636,96.258441,-10.263402,63.755842
07693,NaN,1.403340,10.243604,-1.833025,-0.877581,-0.153404,0.649911,-0.272118,0.063800,1.079892,-0.527903,-0.662349,-0.336981,-0.411165,96.110155,-10.887568,63.720876
07694,NaN,1.638729,10.174279,-1.441601,-0.496337,-0.189253,0.579436,-0.219474,0.060550,1.136307,-0.526173,-0.663577,-0.332896,-0.414714,95.993775,-11.540932,63.682289
07695,NaN,2.070566,10.620664,-2.025042,-0.908555,0.238328,1.155581,-0.288270,0.064283,1.136057,-0.524640,-0.664599,-0.328650,-0.418390,95.837104,-12.197191,63.647061
07696,NaN,2.105509,10.925119,-2.640937,-1.535246,0.354043,1.513474,-0.288691,0.184041,1.210034,-0.522745,-0.665461,-0.324477,-0.422628,95.666496,-12.899865,63.679576
07697,NaN,1.463565,11.314529,-1.969404,-1.308244,-0.696933,1.669469,-0.346179,0.275674,1.259521,-0.520759,-0.666036,-0.320226,-0.427390,95.449822,-13.638380,63.765166
07698,NaN,1.683063,11.884947,-1.124110,-0.567049,-1.125538,2.177206,-0.329215,0.270063,1.330706,-0.518555,-0.666744,-0.315762,-0.432258,95.243239,-14.414243,63.846941
07699,NaN,1.602017,12.868102,-0.436189,-0.129852,-1.879317,3.024474,-0.444253,0.279030,1.467845,-0.516390,-0.667320,-0.310581,-0.437681,94.968725,-15.271000,63.930149
07700,NaN,1.419424,13.071719,0.575256,0.554435,-2.661770,3.064396,-0.557093,0.327898,1.531834,-0.514358,-0.667549,-0.305063,-0.443567,94.620382,-16.163667,64.044626
07701,NaN,0.539293,13.678511,-0.093600,-0.617847,-3.478602,3.412796,-0.599433,0.389735,1.762655,-0.511814,-0.667834,-0.298799,-0.450294,94.236024,-17.192548,64.191605
07702,NaN,0.125436,13.389897,0.404633,-0.496361,-4.136383,2.919437,-0.578861,0.274808,1.887781,-0.509048,-0.668549,-0.291857,-0.456871,93.881626,-18.285004,64.272315
07703,NaN,0.345707,14.293202,-0.099393,-1.111730,-4.229000,3.799687,-0.474550,0.255869,2.096696,-0.505424,-0.669809,-0.284360,-0.463727,93.588957,-19.497837,64.340258
07704,NaN,0.422964,14.130717,-0.410801,-1.542680,-4.222295,3.596551,-0.517063,0.277243,2.322294,-0.501327,-0.671141,-0.276041,-0.471212,93.266857,-20.837976,64.420588
07705,NaN,0.569209,13.754251,-0.191166,-1.443254,-4.322138,3.178302,-0.409080,0.295317,2.516683,-0.496304,-0.672868,-0.267314,-0.479034,92.999495,-22.291289,64.513605
07706,NaN,0.436192,14.477176,-0.331410,-1.906433,-4.929256,3.675962,-0.361267,0.345606,2.696306,-0.490539,-0.674713,-0.258187,-0.487312,92.744617,-23.846622,64.640538
07707,NaN,0.148083,14.642931,-0.868059,-2.739473,-5.328214,3.576904,-0.373279,0.307577,2.867745,-0.484345,-0.676707,-0.248297,-0.495809,92.487149,-25.500041,64.747874
07708,NaN,-0.065252,15.020243,-1.487206,-3.643307,-5.744709,3.660664,-0.142700,0.411218,2.978796,-0.476863,-0.678992,-0.238810,-0.504521,92.327885,-27.217668,64.926602
07709,NaN,-0.891834,15.699794,-0.784175,-3.592454,-7.367981,3.629046,0.159371,0.495478,3.143883,-0.467721,-0.681817,-0.229660,-0.513438,92.309659,-29.032623,65.161708
07710,NaN,-3.341343,19.145336,-0.288374,-4.760841,-11.523437,5.097100,0.317912,0.486861,3.288378,-0.457556,-0.685020,-0.220351,-0.522337,92.379404,-30.929075,65.390387
07711,NaN,-5.570098,23.939372,-3.402271,-9.446184,-14.868382,7.661120,-0.010649,0.500833,3.435236,-0.447984,-0.687394,-0.209645,-0.531835,92.247586,-32.910342,65.630685
07712,NaN,-6.908953,23.669731,-6.351819,-12.827864,-15.152284,6.128201,-0.318066,0.800698,3.693699,-0.438318,-0.688329,-0.197840,-0.543084,91.811070,-35.044140,66.088896
07713,NaN,-11.751792,24.017657,-7.219168,-15.488416,-19.172466,2.816533,0.020815,1.208605,3.707146,-0.426887,-0.688654,-0.187732,-0.555230,91.364830,-37.188661,66.868873
07714,NaN,-13.146802,26.385910,-6.773156,-16.040237,-22.260772,2.915140,0.204243,1.710482,3.285027,-0.415367,-0.687334,-0.180587,-0.567829,90.744168,-39.091236,68.066192
07715,NaN,-7.314436,23.811090,-4.621379,-11.772377,-17.875331,3.738818,-0.245676,2.610568,3.069316,-0.405045,-0.682069,-0.174721,-0.583261,89.355533,-40.852120,70.011648
07716,NaN,4.820237,19.130886,-3.360410,-6.630112,-7.359316,7.575258,-0.580260,3.655212,3.431726,-0.393675,-0.673045,-0.168654,-0.602981,87.101150,-42.755918,72.896839
07717,NaN,14.622130,16.070680,-4.398363,-5.466757,1.157383,11.636469,-0.499248,4.265430,4.072206,-0.379301,-0.662370,-0.161770,-0.625482,84.312843,-44.900806,76.512567
07718,NaN,13.232587,17.391015,-4.460654,-6.977034,-1.442053,11.319504,-0.232192,3.717055,4.274070,-0.363526,-0.653526,-0.153858,-0.645818,81.687009,-47.075757,79.980059
07719,NaN,5.636941,18.024677,-9.095284,-13.030400,-6.429362,5.293364,-0.275819,2.705465,3.409844,-0.351237,-0.646787,-0.146712,-0.660890,79.488449,-48.750706,82.733080
07720,NaN,-7.450998,13.650202,-10.019111,-13.917235,-12.060979,-8.069930,-0.840839,2.472499,2.422148,-0.344062,-0.638843,-0.140405,-0.673637,77.071947,-49.825336,85.287616
07721,NaN,-22.894936,4.478383,-10.536739,-12.226935,-15.360821,-26.236649,-1.165785,2.898617,1.337241,-0.341185,-0.627956,-0.137186,-0.685889,74.269003,-50.157220,88.079444
07722,NaN,-23.830846,-4.171329,-5.033343,-3.778261,-11.123187,-31.552221,-1.001567,2.520641,-0.177868,-0.343157,-0.617453,-0.138583,-0.694111,72.093102,-49.645255,90.176080
07723,NaN,-12.936965,-1.976804,-5.684979,-4.653750,-5.744517,-22.016153,-0.211142,2.325996,-0.830313,-0.345042,-0.608431,-0.144413,-0.699931,70.693186,-48.769250,91.870778
07724,NaN,-12.253879,2.514327,-2.331045,-2.598656,-9.481516,-17.890407,0.125966,2.627648,-1.413267,-0.347647,-0.598395,-0.153657,-0.705305,69.497746,-47.498870,93.575292
07725,NaN,-12.427509,1.955282,-1.967626,-1.857708,-9.490418,-18.095677,0.010349,2.132257,-1.927043,-0.352728,-0.589387,-0.163173,-0.708224,68.717273,-46.031681,94.660806
07726,NaN,-11.202753,2.928682,-1.795459,-1.960469,-9.556645,-16.302759,0.295065,1.035607,-2.545845,-0.359974,-0.584138,-0.173518,-0.706466,68.864792,-44.460884,94.693779
07727,NaN,-9.650586,2.574323,-3.048963,-3.166502,-8.156314,-15.513292,0.521453,-0.078258,-2.947602,-0.368882,-0.582764,-0.183836,-0.700369,69.781628,-42.896200,93.805832
07728,NaN,-8.061680,3.929407,-2.753273,-3.487233,-8.047216,-13.141802,0.971668,-1.027679,-3.409748,-0.378852,-0.584952,-0.195233,-0.690062,71.429595,-41.252468,92.180441
07729,NaN,-5.731035,5.952214,-1.736987,-3.301203,-7.767734,-9.600653,1.019462,-1.661765,-3.800903,-0.390513,-0.588805,-0.206703,-0.676817,73.353162,-39.463454,90.119943
07730,NaN,-3.823266,6.767392,-1.735061,-3.612754,-6.694218,-7.456837,1.088041,-2.060807,-4.115268,-0.403237,-0.593517,-0.218404,-0.661391,75.390075,-37.514037,87.852418
07731,NaN,-2.098331,7.737375,-3.308107,-5.349386,-5.396119,-5.633718,1.256246,-2.356903,-4.303966,-0.416182,-0.598982,-0.230537,-0.644101,77.515278,-35.430787,85.496964
07732,NaN,-1.657858,8.104177,-3.317008,-5.373825,-4.970386,-4.730568,1.350476,-2.447071,-4.483827,-0.429233,-0.604326,-0.243125,-0.625650,79.579280,-33.194252,83.212372
07733,NaN,-1.044553,9.491967,-2.980577,-5.214001,-4.919895,-2.837230,1.479559,-2.508131,-4.672565,-0.442210,-0.609443,-0.256479,-0.606010,81.593434,-30.785302,81.030480
07734,NaN,-0.328933,11.465986,-2.376516,-4.784015,-4.979162,-0.351580,1.452600,-2.462879,-4.820926,-0.455358,-0.613726,-0.270005,-0.585736,83.425439,-28.233454,79.005714
07735,NaN,0.498980,12.594185,-2.314446,-4.542715,-4.274147,1.379900,1.389548,-2.328335,-4.908222,-0.468382,-0.616841,-0.283810,-0.565312,85.044927,-25.566061,77.207001
07736,NaN,1.658931,13.312086,-2.044804,-3.840162,-3.046742,2.839150,1.402548,-2.229081,-4.992477,-0.481128,-0.619127,-0.297818,-0.544520,86.518828,-22.809995,75.576662
07737,NaN,2.115640,13.569566,-1.748682,-3.092645,-2.210810,3.497687,1.401674,-2.228578,-5.037329,-0.493582,-0.620810,-0.311828,-0.523197,87.882873,-19.985783,74.062242
07738,NaN,2.817354,13.695230,-1.926688,-2.663179,-0.944280,4.013838,1.362885,-2.248192,-5.084864,-0.505942,-0.621903,-0.325478,-0.501321,89.124634,-17.109608,72.620370
07739,NaN,3.173530,13.731423,-2.311154,-2.462491,0.128353,4.252501,1.370464,-2.151725,-5.159863,-0.517908,-0.622128,-0.339404,-0.479096,90.264502,-14.155733,71.320860
07740,NaN,3.551503,14.756128,-2.642048,-2.215160,1.011491,5.397215,1.540521,-2.017553,-5.220160,-0.528814,-0.621860,-0.353941,-0.456478,91.399838,-11.150863,70.177328
07741,NaN,3.857491,15.726030,-2.728219,-1.654695,1.850322,6.416759,1.596724,-1.720961,-5.285847,-0.538740,-0.620412,-0.369343,-0.434089,92.469074,-8.086555,69.278707
07742,NaN,3.437338,15.507619,-2.585047,-1.062108,2.163670,6.096483,1.724712,-1.388263,-5.368601,-0.547368,-0.617926,-0.385819,-0.411944,93.532313,-4.975631,68.637748
07743,NaN,3.475681,17.115821,-2.054370,0.142302,2.575893,7.580049,2.002932,-1.278496,-5.393119,-0.554519,-0.615385,-0.402958,-0.389146,94.714430,-1.836781,68.125709
07744,NaN,6.349731,19.802505,-0.844441,3.280707,5.410612,10.011784,2.126776,-1.437359,-5.291889,-0.560921,-0.613180,-0.419193,-0.365589,95.937903,1.256243,67.583557
07745,NaN,10.649356,21.066079,0.258750,6.896860,9.746578,10.547732,1.816162,-1.156302,-5.190463,-0.567045,-0.609280,-0.435031,-0.343490,96.966459,4.289769,67.256370
07746,NaN,10.485692,19.279950,2.311600,9.163877,9.516824,7.860690,1.460674,-0.675294,-5.089308,-0.572598,-0.603325,-0.450947,-0.323694,97.804139,7.229054,67.243663
07747,NaN,9.621069,19.758010,4.785958,11.748610,8.458253,7.396953,1.478703,-0.643908,-4.837172,-0.577235,-0.597512,-0.465948,-0.304421,98.659142,10.028155,67.272892
07748,NaN,11.207574,20.782923,5.319159,13.599076,10.401438,7.293040,1.266266,-0.916578,-4.464195,-0.582217,-0.592024,-0.478410,-0.285753,99.362220,12.634535,67.148578
07749,NaN,14.279833,19.841457,4.679679,14.459261,13.807394,5.009355,0.908426,-1.128031,-4.058275,-0.587894,-0.586448,-0.488325,-0.268323,99.823161,15.037506,66.888300
07750,NaN,17.137411,18.117914,2.450965,13.514207,17.364730,2.175548,0.596039,-1.267075,-3.524381,-0.593862,-0.581219,-0.495619,-0.252733,100.059719,17.149825,66.502902
07751,NaN,18.043355,16.448698,-1.123585,10.598597,19.627160,0.176039,0.370199,-1.611020,-2.942013,-0.600416,-0.576996,-0.499773,-0.238333,100.072647,18.972199,65.853482
07752,NaN,21.360002,14.895755,-5.904832,7.659214,24.439725,-2.264457,0.301188,-2.098699,-2.424634,-0.607603,-0.574297,-0.500734,-0.224204,99.906844,20.546968,64.847156
07753,NaN,29.041098,12.880075,-8.097766,8.643671,31.515837,-7.198587,0.025882,-1.661380,-2.016387,-0.613899,-0.571162,-0.501445,-0.213202,99.634747,21.846859,64.047598
07754,NaN,31.246213,9.259391,-6.424072,10.113341,31.548493,-12.205079,0.091345,-0.656446,-1.337482,-0.616693,-0.568801,-0.503305,-0.206976,99.587984,22.663179,63.781010
07755,NaN,28.034870,9.259271,-1.810546,12.798642,26.577727,-11.999609,0.481757,0.180178,-0.641046,-0.615524,-0.568514,-0.506151,-0.204286,99.934152,23.005371,63.955028
07756,NaN,23.852594,11.237156,1.170998,14.282175,22.184353,-9.130705,0.600159,0.291887,0.040414,-0.613035,-0.570190,-0.507517,-0.203709,100.346324,22.951125,64.125221
07757,NaN,19.527411,15.383977,0.690032,13.547073,19.883519,-3.521353,1.006844,0.211919,0.815734,-0.608776,-0.575158,-0.506820,-0.204252,100.937981,22.465392,64.156737
07758,NaN,17.363250,17.448804,8.501814,20.032054,14.646836,-1.913494,0.244015,0.750762,1.850863,-0.604252,-0.579823,-0.503978,-0.211404,101.166104,21.340186,64.388451
07759,NaN,19.710437,11.357405,5.710379,16.576481,16.411174,-7.369570,0.557623,0.264356,2.573194,-0.599188,-0.587705,-0.497818,-0.218527,101.433428,19.859430,64.233876
07760,NaN,-12.404046,29.845932,4.835200,8.442226,-6.819368,21.012359,-0.495614,0.243848,2.676675,-0.597057,-0.592589,-0.490067,-0.228464,101.093702,18.326126,64.057767
07761,NaN,-56.935000,22.202305,-1.207245,-18.257549,-43.851514,28.652882,-3.617475,0.561392,1.544276,-0.604510,-0.584860,-0.482890,-0.243565,99.073308,17.392771,64.222956
07762,NaN,-4.344149,13.936994,2.970520,4.437815,-2.598717,4.168332,0.187298,-0.265877,3.205795,-0.600621,-0.593442,-0.472849,-0.251981,99.051123,15.600817,63.760368
07763,NaN,35.460086,13.269438,4.780014,22.617937,30.575930,-6.698848,-0.460551,0.674212,3.878486,-0.595385,-0.600297,-0.462651,-0.266670,98.796961,13.341157,63.794053
07764,NaN,12.265159,13.361277,-1.223082,7.302504,12.914646,0.689387,0.439718,0.882526,4.004403,-0.586557,-0.609593,-0.453720,-0.280153,99.080820,10.994012,63.936434
07765,NaN,-4.320877,18.408113,4.187415,5.793180,-4.147388,8.194962,-0.218548,0.742181,3.116516,-0.581090,-0.614944,-0.445983,-0.292025,98.980711,9.157749,64.073727
07766,NaN,-0.466713,7.659792,3.157217,4.127478,-1.391025,-2.749893,0.202140,0.045898,2.915913,-0.576043,-0.621929,-0.437371,-0.300144,99.063286,7.501514,63.831341
07767,NaN,0.783103,8.463173,0.088845,2.081014,0.934892,-1.625052,0.767069,-0.345091,2.585017,-0.570471,-0.630288,-0.429398,-0.304822,99.451467,6.065609,63.390391
07768,NaN,-0.546483,8.441834,-3.717681,-1.870645,1.285239,-0.855561,0.777432,-0.278111,2.264661,-0.565121,-0.637774,-0.422595,-0.308701,99.862744,4.811130,63.010089
07769,NaN,5.654341,7.887163,-7.748702,-2.687168,8.460856,-1.128867,0.742335,-0.149341,2.272736,-0.559510,-0.644895,-0.415990,-0.313066,100.265830,3.538115,62.693016
07770,NaN,13.333626,7.741974,-11.199275,-2.119779,16.698295,-0.879109,0.362516,-0.785311,2.295275,-0.556335,-0.651892,-0.406902,-0.316164,100.440454,2.323286,62.009300
07771,NaN,9.306510,19.657341,2.824067,10.227280,5.802796,8.699982,-0.291567,0.368037,1.469724,-0.554180,-0.653510,-0.402610,-0.322046,100.276488,1.450652,62.060860
07772,NaN,-1.321251,8.461628,1.278044,1.844443,-2.300814,-1.671411,-1.544977,0.695298,1.352932,-0.555612,-0.650823,-0.397578,-0.331144,99.397754,0.616792,62.317128
07773,NaN,0.340771,8.586638,-0.982079,0.535175,0.150266,-1.181303,-0.670468,0.212244,1.170911,-0.555404,-0.650961,-0.393184,-0.336425,99.014722,-0.071493,62.325397
07774,NaN,2.841777,10.173360,-1.144249,1.665546,2.251055,0.436175,-0.677450,0.171160,1.196138,-0.555241,-0.651156,-0.388591,-0.341615,98.628521,-0.765857,62.313388
07775,NaN,0.525617,9.807159,-1.557031,0.075882,0.346204,0.124833,-0.515420,0.100774,1.008051,-0.554976,-0.651541,-0.384648,-0.345749,98.334870,-1.352244,62.280915
07776,NaN,0.083994,10.040532,-1.539574,-0.170467,-0.140821,0.343092,-0.345866,0.075917,0.948973,-0.554302,-0.652295,-0.381138,-0.349278,98.139665,-1.898723,62.242256
07777,NaN,-0.364147,9.842598,-1.067203,-0.062960,-0.803102,0.061443,-0.368882,-0.077320,0.974673,-0.553926,-0.653295,-0.377042,-0.352436,97.934198,-2.452022,62.115884
07778,NaN,-1.779230,9.795017,-0.128625,0.019991,-2.544820,-0.187345,-0.247584,-0.400905,0.964414,-0.553776,-0.655153,-0.372313,-0.354246,97.808744,-2.970087,61.808550
07779,NaN,0.286547,9.401185,-0.650783,0.433707,-0.512563,-0.408625,-0.193700,-0.708316,1.009387,-0.553913,-0.657775,-0.366643,-0.355085,97.726226,-3.494614,61.323224
07780,NaN,1.009397,9.580649,-2.318733,-0.709961,0.811756,0.037224,-0.134527,-0.659142,0.956689,-0.553848,-0.660343,-0.361400,-0.355794,97.680543,-3.989360,60.870761
07781,NaN,1.425357,10.676130,-1.027867,0.659742,0.349286,0.981285,-0.118516,-0.526219,0.966416,-0.553445,-0.662725,-0.356484,-0.356951,97.641810,-4.504192,60.492843
07782,NaN,1.283760,9.833266,-2.527023,-0.824271,0.985433,0.339950,-0.181686,-0.431229,0.847327,-0.553289,-0.664522,-0.352128,-0.358173,97.565466,-4.954892,60.178864
07783,NaN,1.655055,10.273500,-3.859371,-1.810660,1.834742,0.982385,-0.241163,-0.256117,0.741995,-0.553189,-0.665651,-0.348468,-0.359805,97.447086,-5.363403,59.972772
07784,NaN,2.085090,10.255028,-2.120147,-0.153808,1.313649,0.782513,-0.346521,0.032391,0.753665,-0.552917,-0.665970,-0.345396,-0.362585,97.254376,-5.796241,59.931978
07785,NaN,1.349031,9.976534,-0.479749,0.810139,-0.127275,0.232615,-0.375621,0.131590,0.787323,-0.552489,-0.666084,-0.342403,-0.365853,97.039017,-6.259382,59.946524
07786,NaN,0.108855,10.452006,-0.548325,0.088399,-1.288194,0.574278,-0.287490,0.072417,0.775353,-0.551890,-0.666506,-0.339466,-0.368713,96.878025,-6.707601,59.930040
07787,NaN,0.574238,10.284515,-0.658376,0.151298,-0.868948,0.471077,-0.235814,-0.101687,0.860989,-0.551237,-0.667535,-0.335828,-0.371153,96.758967,-7.196560,59.808554
07788,NaN,0.386379,10.070308,-1.741089,-0.948876,-0.527781,0.356498,-0.221943,-0.111511,0.783273,-0.550697,-0.668467,-0.332466,-0.373297,96.649235,-7.637052,59.687965
07789,NaN,2.032919,9.719026,-1.673374,-0.141182,0.847416,0.219941,-0.274881,0.027953,0.911057,-0.549844,-0.669201,-0.328932,-0.376358,96.499769,-8.163370,59.639511
07790,NaN,1.161439,9.985350,-0.753108,0.157401,-0.468193,0.255995,-0.184590,0.184798,1.044471,-0.548175,-0.670082,-0.325567,-0.380133,96.390763,-8.772164,59.674200
07791,NaN,1.207262,10.714235,-0.439553,0.388169,-0.805634,0.941126,-0.259611,0.118188,1.117100,-0.546700,-0.670989,-0.321601,-0.384013,96.244555,-9.421630,59.666873
07792,NaN,1.171659,10.270739,-1.232003,-0.408307,-0.455568,0.579766,-0.290276,0.094393,1.190723,-0.545216,-0.671944,-0.317275,-0.388031,96.084096,-10.107998,59.643331
07793,NaN,1.182669,10.499190,-0.922780,-0.228268,-0.734785,0.765105,-0.401306,0.056229,1.201517,-0.544113,-0.672668,-0.312558,-0.392130,95.863589,-10.801776,59.598927
07794,NaN,1.595778,10.317181,-1.556468,-0.668352,-0.131141,0.720494,-0.307761,0.092793,1.246671,-0.542537,-0.673611,-0.307982,-0.396293,95.693601,-11.520085,59.575770
07795,NaN,2.521972,10.854573,-1.314109,-0.106203,0.310016,1.403358,-0.320684,0.146015,1.309850,-0.540765,-0.674488,-0.303277,-0.400827,95.509987,-12.280799,59.581881
07796,NaN,1.989997,11.133507,-1.353508,-0.515067,-0.297466,1.562339,-0.259188,0.211505,1.337714,-0.538613,-0.675403,-0.298786,-0.405528,95.353366,-13.057600,59.627393
07797,NaN,1.852671,12.161180,-0.535893,-0.014826,-1.178188,2.443871,-0.284148,0.207562,1.311373,-0.536571,-0.676195,-0.294287,-0.410180,95.181099,-13.822276,59.674130
07798,NaN,1.963872,11.721384,-1.076481,-0.530803,-0.836896,2.079398,-0.355958,0.238998,1.417484,-0.534489,-0.676845,-0.289373,-0.415290,94.963558,-14.645703,59.736984
07799,NaN,1.467050,12.035945,-0.941235,-0.798408,-1.525962,2.226140,-0.381443,0.280356,1.422128,-0.532386,-0.677315,-0.284464,-0.420583,94.722889,-15.476626,59.827419
07800,NaN,1.455168,12.883930,-0.334386,-0.466821,-2.187970,2.962932,-0.471887,0.276394,1.468211,-0.530475,-0.677573,-0.279201,-0.426072,94.429564,-16.330176,59.917975
07801,NaN,1.589353,11.933111,-0.615486,-0.724344,-1.810749,2.082570,-0.437216,0.244945,1.598342,-0.528170,-0.678132,-0.273451,-0.431739,94.160041,-17.259184,59.988488
07802,NaN,0.799038,12.581842,-0.399909,-1.117813,-2.908244,2.409805,-0.426441,0.225227,1.765062,-0.525463,-0.678932,-0.267104,-0.437716,93.900254,-18.279466,60.045218
07803,NaN,0.630764,12.907044,-1.066675,-1.972982,-2.998534,2.646774,-0.394854,0.223382,1.910763,-0.522277,-0.679956,-0.260286,-0.444001,93.657702,-19.385398,60.099916
07804,NaN,0.637009,13.191002,-1.437711,-2.496767,-3.101593,2.860701,-0.373833,0.241526,2.108181,-0.518510,-0.681176,-0.252880,-0.450776,93.423567,-20.601976,60.163677
07805,NaN,0.701431,13.183828,-1.037929,-2.292982,-3.459238,2.763109,-0.282017,0.289016,2.289147,-0.513890,-0.682672,-0.245140,-0.458020,93.230091,-21.925775,60.255404
07806,NaN,0.569097,13.359572,-0.234936,-1.851752,-4.256553,2.729269,-0.205780,0.317127,2.486764,-0.508454,-0.684439,-0.236952,-0.465695,93.072535,-23.360884,60.363223
07807,NaN,0.867621,13.304822,0.325172,-1.398449,-4.533740,2.651492,-0.160148,0.323159,2.671145,-0.502332,-0.686411,-0.228201,-0.473736,92.936893,-24.903439,60.473939
07808,NaN,0.347958,13.735911,-0.218101,-2.366253,-5.146744,2.707015,-0.120338,0.360165,2.842873,-0.495534,-0.688456,-0.219017,-0.482188,92.811582,-26.543065,60.608074
07809,NaN,-0.226412,14.752853,-0.323885,-3.083275,-6.286551,3.178045,-0.021222,0.387657,2.998404,-0.487877,-0.690702,-0.209546,-0.490915,92.730647,-28.273890,60.760437
07810,NaN,-1.614950,17.239323,0.260602,-3.837129,-9.075576,4.426585,0.014675,0.369951,3.085176,-0.479791,-0.693006,-0.199782,-0.499631,92.671238,-30.052083,60.903421
07811,NaN,-2.993402,20.215635,-2.367567,-7.583774,-10.676897,6.052084,-0.141050,0.311558,3.221704,-0.471838,-0.695042,-0.188958,-0.508507,92.537121,-31.907753,61.009622
07812,NaN,-3.170426,20.946170,-5.302669,-10.705861,-10.251396,6.223459,-0.298136,0.489797,3.418873,-0.463631,-0.696246,-0.177424,-0.518467,92.241913,-33.879134,61.242036
07813,NaN,-6.469283,21.485383,-6.248548,-13.260988,-12.966877,4.274995,-0.118996,0.857434,3.576728,-0.453824,-0.696818,-0.166677,-0.529818,91.888252,-35.950691,61.761185
07814,NaN,-10.542315,24.310370,-7.052548,-16.415511,-17.523565,3.425164,0.136414,1.231482,3.536821,-0.442855,-0.696718,-0.157461,-0.541913,91.484796,-37.999623,62.564899
07815,NaN,-10.438378,25.910827,-6.340053,-16.227216,-19.230883,3.872621,0.212511,1.760747,3.260198,-0.431708,-0.694882,-0.150616,-0.555052,90.828292,-39.892312,63.823459
07816,NaN,-5.876890,23.655868,-4.080394,-12.107485,-16.300038,4.274351,-0.176735,2.766774,3.001717,-0.421799,-0.688965,-0.145617,-0.571147,89.368001,-41.617765,65.907692
07817,NaN,4.335634,17.955102,-3.027215,-6.721025,-6.814057,6.271321,-0.609070,3.756750,3.279449,-0.411532,-0.679141,-0.140546,-0.591316,86.998239,-43.432237,68.920475
07818,NaN,11.676746,16.318129,-2.565731,-4.556554,-1.496282,9.837291,-0.357179,4.492394,3.760745,-0.398274,-0.667504,-0.135885,-0.614290,84.120339,-45.385039,72.741962
07819,NaN,12.441518,17.471819,-4.062795,-6.956102,-1.833032,10.795736,-0.103660,3.909657,4.135318,-0.382893,-0.657846,-0.129629,-0.635474,81.419706,-47.461223,76.420843
07820,NaN,12.639621,19.761837,-7.859637,-11.863708,-2.753945,11.719499,0.334063,2.674469,3.625161,-0.368425,-0.652199,-0.123838,-0.650818,79.529489,-49.259712,79.208172
07821,NaN,1.394346,19.088428,-9.300058,-14.733955,-9.704162,2.082276,-0.423395,2.466116,2.933967,-0.358325,-0.645105,-0.117620,-0.664537,77.247550,-50.633026,81.923573
07822,NaN,-16.125838,12.420423,-8.691996,-13.445842,-16.384502,-16.181202,-0.939565,2.568857,2.857841,-0.350257,-0.636469,-0.109845,-0.678352,74.436858,-51.864471,84.839233
07823,NaN,-23.904833,-4.699670,-8.348806,-7.204630,-8.921160,-32.870836,-1.320285,3.021705,0.251239,-0.351526,-0.623980,-0.110066,-0.689176,71.541605,-51.506848,87.620370
07824,NaN,-19.870709,-2.526519,-2.519827,-1.825808,-9.925405,-27.297361,-0.459758,2.063455,-0.752527,-0.354373,-0.615638,-0.114436,-0.694489,70.074345,-50.714571,89.169313
07825,NaN,-14.235769,2.644019,-2.841408,-3.609813,-10.241835,-19.802011,0.190446,1.982056,-1.075457,-0.356202,-0.608467,-0.122018,-0.698569,69.171930,-49.745960,90.512125
07826,NaN,-11.721638,4.047647,-1.165876,-2.352376,-10.245443,-16.493228,0.351982,1.947053,-1.325290,-0.358525,-0.601472,-0.130725,-0.701857,68.490749,-48.638685,91.680926
07827,NaN,-10.954396,2.881519,-0.699796,-1.392611,-9.185022,-16.330461,0.353403,1.491956,-1.880065,-0.362879,-0.595620,-0.140404,-0.702739,68.261253,-47.326746,92.292216
07828,NaN,-10.580896,2.928733,-0.890405,-1.562217,-9.074753,-15.856497,0.543884,0.568253,-2.389357,-0.369206,-0.592916,-0.150438,-0.699647,68.786983,-45.937325,92.000302
07829,NaN,-11.170443,2.218674,-1.211402,-1.679687,-9.087995,-16.576298,0.932078,-0.339328,-2.839563,-0.376431,-0.593641,-0.161588,-0.692661,70.089370,-44.485643,90.946189
07830,NaN,-9.176929,4.304139,-1.043614,-2.374528,-9.215514,-13.453551,1.292791,-1.213181,-3.333504,-0.385030,-0.597507,-0.173633,-0.681607,72.054715,-42.907926,89.176581
07831,NaN,-5.830986,5.007074,-0.933593,-2.581781,-7.278229,-10.357336,1.416849,-1.722871,-3.727380,-0.394793,-0.602746,-0.186338,-0.667917,74.284776,-41.150531,87.082204
07832,NaN,-3.749820,5.780986,-1.591355,-3.422666,-5.990137,-8.260806,1.454345,-1.870065,-4.122950,-0.405789,-0.607881,-0.199860,-0.652589,76.499504,-39.138019,84.943065
07833,NaN,-3.078088,6.826587,-1.978527,-4.045026,-5.873397,-6.792666,1.491505,-1.831286,-4.410700,-0.417295,-0.612304,-0.214424,-0.636373,78.589845,-36.895089,82.953829
07834,NaN,-3.154151,7.557999,-1.532980,-3.780074,-6.271345,-5.839214,1.570901,-1.795120,-4.667636,-0.429099,-0.616109,-0.229875,-0.619226,80.567755,-34.453904,81.109648
07835,NaN,-2.825851,8.884835,-1.166268,-3.624084,-6.556193,-4.142777,1.676512,-1.773912,-4.919209,-0.441012,-0.619331,-0.246384,-0.601027,82.463856,-31.813265,79.413218
07836,NaN,-2.110630,10.845658,-0.648324,-3.288924,-6.719605,-1.657706,1.661576,-1.654994,-5.112548,-0.453076,-0.621456,-0.263442,-0.582334,84.172941,-29.017110,77.922451
07837,NaN,-1.126462,11.548648,-0.388950,-2.761574,-5.836143,-0.165392,1.545873,-1.518467,-5.295994,-0.465497,-0.622167,-0.280897,-0.563310,85.657821,-26.067629,76.640381
07838,NaN,-0.728263,12.186311,-0.239750,-2.356490,-5.292292,0.934030,1.588947,-1.442086,-5.493367,-0.477833,-0.621972,-0.298961,-0.543552,87.039611,-22.981965,75.510268
07839,NaN,-0.221787,13.549412,-0.207893,-2.051433,-4.772811,2.702835,1.675698,-1.471136,-5.601052,-0.489766,-0.621315,-0.317367,-0.522853,88.386545,-19.806287,74.476199
07840,NaN,0.341045,14.089981,-0.598284,-1.930006,-3.679512,3.666136,1.631206,-1.561548,-5.688465,-0.501804,-0.620106,-0.335308,-0.501229,89.636844,-16.565619,73.471991
07841,NaN,0.145571,14.695385,-1.010549,-1.967351,-3.201220,4.428445,1.674827,-1.653431,-5.824977,-0.513670,-0.618366,-0.353342,-0.478452,90.850725,-13.221432,72.516540
07842,NaN,-0.089892,16.324914,-1.632511,-2.190621,-2.812909,6.199011,1.755739,-1.783164,-5.949240,-0.525344,-0.616340,-0.371147,-0.454300,92.049999,-9.790533,71.558862
07843,NaN,-0.041461,18.001262,-1.724044,-1.670919,-2.137888,8.063070,1.834770,-1.863673,-6.060466,-0.536547,-0.613778,-0.389003,-0.429034,93.234983,-6.270694,70.658758
