// General information: 
//  MT Manager version: 2019.0.1 
//  XDA version: 2019.0.1 build 2740 rev 84096 built on 2019-01-30
// Device information: 
//  DeviceId: 00B4381A
//  ProductCode: MTW2-3A7G6
//  Firmware Version: 4.3.4
//  Hardware Version: 1.1.0
// Device settings: 
//  Filter Profile: human(46.1)
//  Option Flags: Orientation Smoother Disabled, AHS Disabled, ICC Disabled
// Coordinate system: ENU
PacketCounter,SampleTimeFine,Acc_X,Acc_Y,Acc_Z,FreeAcc_E,FreeAcc_N,FreeAcc_U,Gyr_X,Gyr_Y,Gyr_Z,Quat_q0,Quat_q1,Quat_q2,Quat_q3,Roll,Pitch,Yaw
08509,NaN,-5.409991,5.032418,6.036710,-0.811367,0.453163,-0.316904,1.480704,0.528523,-0.298968,-0.790023,-0.414943,-0.077285,0.444649,42.357342,29.414369,-47.130580
08510,NaN,-5.263438,5.189754,6.041018,-0.663148,0.271202,-0.293432,1.579262,0.496428,-0.274782,-0.785869,-0.422201,-0.076284,0.445351,43.310209,29.732700,-47.047449
08511,NaN,-5.160156,5.433774,5.857331,-0.435045,0.270425,-0.315467,1.693161,0.455795,-0.273344,-0.781442,-0.429763,-0.074861,0.446148,44.320132,30.031419,-46.976888
08512,NaN,-5.404486,5.790358,5.688791,-0.333192,0.491955,-0.079045,1.768584,0.547834,-0.317622,-0.776645,-0.437794,-0.073718,0.446906,45.391016,30.385192,-46.876379
08513,NaN,-5.941828,6.367624,5.669493,-0.271815,0.809281,0.544121,1.764433,0.700663,-0.425564,-0.771497,-0.446048,-0.073408,0.447710,46.473123,30.841730,-46.745856
08514,NaN,-6.258088,6.918637,5.783262,-0.131330,0.850869,1.129564,1.739148,0.738621,-0.505890,-0.766128,-0.454239,-0.073472,0.448683,47.540789,31.345432,-46.621513
08515,NaN,-6.592987,7.216019,5.724850,-0.139330,0.969942,1.472211,1.699440,0.690485,-0.527092,-0.760756,-0.462099,-0.073483,0.449793,48.572148,31.836926,-46.520575
08516,NaN,-7.104599,7.232970,5.527909,-0.413102,1.258861,1.658622,1.587615,0.576024,-0.550288,-0.755558,-0.469248,-0.073356,0.451172,49.512123,32.294673,-46.476595
08517,NaN,-7.331197,7.092955,5.346365,-0.631814,1.358574,1.606301,1.480600,0.360030,-0.571035,-0.750597,-0.475445,-0.072700,0.453069,50.327655,32.680558,-46.546702
08518,NaN,-7.238626,6.900400,5.105780,-0.680763,1.336024,1.315327,1.455947,0.026266,-0.549039,-0.745808,-0.480789,-0.070788,0.455634,51.044507,32.936931,-46.776163
08519,NaN,-6.874423,6.653775,4.883512,-0.621636,1.165665,0.847204,1.465622,-0.332366,-0.497484,-0.741201,-0.485322,-0.067391,0.458848,51.673057,33.043663,-47.173107
08520,NaN,-6.405119,6.379674,4.519406,-0.477986,1.070706,0.226016,1.483292,-0.608238,-0.452617,-0.736690,-0.489288,-0.062815,0.462535,52.244128,33.036720,-47.697254
08521,NaN,-5.949298,6.076383,4.238106,-0.394201,0.937500,-0.365810,1.538756,-0.796612,-0.408377,-0.732157,-0.492983,-0.057306,0.466509,52.799232,32.947903,-48.306128
08522,NaN,-5.789416,5.915479,3.934263,-0.364587,1.027747,-0.713285,1.622248,-0.867931,-0.342512,-0.727522,-0.496811,-0.051173,0.470395,53.399217,32.809920,-48.925957
08523,NaN,-5.882394,5.857631,3.717243,-0.435510,1.219348,-0.809612,1.758001,-0.872351,-0.249569,-0.722709,-0.501084,-0.044471,0.473951,54.094393,32.633051,-49.512672
08524,NaN,-5.650752,5.984322,3.732091,-0.297816,1.028272,-0.839124,1.921794,-0.825900,-0.193258,-0.717525,-0.506034,-0.037399,0.477168,54.912462,32.452227,-50.051831
08525,NaN,-4.521291,6.473809,3.409084,0.721350,0.497967,-1.256717,2.007756,-0.551075,-0.260335,-0.711839,-0.511864,-0.031278,0.479898,55.845349,32.399207,-50.466975
08526,NaN,-3.393514,7.249599,3.357531,1.803922,-0.300590,-1.327514,2.308385,0.205968,-0.242305,-0.705213,-0.520535,-0.027076,0.480609,57.185776,32.584067,-50.446808
08527,NaN,-3.806564,8.064016,3.362485,2.040835,-0.230178,-0.506721,2.329872,1.334017,-0.413125,-0.697862,-0.531871,-0.027243,0.478916,58.860539,33.193385,-49.830679
08528,NaN,-6.490403,8.744834,3.460606,0.925992,1.104999,1.522404,1.822825,2.462034,-0.781713,-0.690663,-0.543986,-0.033531,0.475331,60.571832,34.295777,-48.642900
08529,NaN,-9.935795,9.146391,4.311182,-1.119798,2.169399,4.151076,0.975646,2.848736,-1.048660,-0.684901,-0.553900,-0.043888,0.471359,61.930915,35.611690,-47.256078
08530,NaN,-11.659834,9.159554,5.545317,-2.634865,1.808247,5.691370,0.615623,2.207391,-0.787416,-0.680748,-0.561029,-0.052163,0.468090,62.953057,36.601265,-46.132049
08531,NaN,-11.276454,9.038655,6.594516,-3.025116,0.454813,5.775163,1.096642,0.910045,-0.128421,-0.677064,-0.566862,-0.053046,0.466301,63.906650,36.904866,-45.597615
08532,NaN,-9.924991,8.963433,6.082464,-2.210038,-0.019373,4.711709,1.539668,-0.350078,0.257169,-0.673313,-0.571339,-0.047531,0.466864,64.705215,36.689709,-45.748846
08533,NaN,-8.872822,9.074744,4.472989,-0.928193,0.642482,3.596636,1.489281,-0.734552,0.241711,-0.669721,-0.574693,-0.040885,0.468540,65.320637,36.391299,-46.157305
08534,NaN,-8.626347,9.329006,3.415458,-0.202112,1.307919,3.277678,1.053886,-0.552047,0.058194,-0.666871,-0.576961,-0.036390,0.470185,65.727000,36.234577,-46.502554
08535,NaN,-8.458244,9.521083,3.434900,-0.040531,1.155386,3.327129,0.660822,-0.416457,0.000955,-0.664984,-0.578200,-0.033442,0.471554,65.948137,36.141461,-46.778343
08536,NaN,-8.050262,9.222210,3.783698,-0.228276,0.672573,2.980576,0.577898,-0.588272,0.127372,-0.663647,-0.578782,-0.029745,0.472969,66.080754,35.942476,-47.127574
08537,NaN,-7.456418,8.527132,3.501270,-0.268563,0.654622,2.022344,0.726944,-0.852619,0.279969,-0.662266,-0.579229,-0.024383,0.474661,66.223846,35.603381,-47.604540
08538,NaN,-6.630876,8.187852,2.854138,0.231131,0.745473,1.075191,0.947861,-0.981610,0.357846,-0.660414,-0.580098,-0.017837,0.476468,66.463395,35.194637,-48.140600
08539,NaN,-5.864140,8.273661,2.240825,0.955145,0.770464,0.500238,1.086051,-0.980136,0.409285,-0.658252,-0.581389,-0.010823,0.478094,66.792071,34.761784,-48.662230
08540,NaN,-5.058187,8.341980,1.678652,1.662095,0.708951,-0.079956,1.094641,-0.931430,0.447053,-0.656110,-0.582805,-0.003831,0.479420,67.154358,34.322073,-49.141734
08541,NaN,-4.087981,8.179364,0.953883,2.407682,0.679392,-0.965967,1.090285,-0.824195,0.485052,-0.654038,-0.584421,0.002903,0.480289,67.558715,33.888950,-49.544635
08542,NaN,-3.197869,7.906947,0.547068,2.871502,0.450940,-1.775522,1.080803,-0.577077,0.507758,-0.652016,-0.586582,0.008878,0.480332,68.051473,33.499514,-49.785249
08543,NaN,-2.836470,7.648892,0.039024,3.129963,0.618565,-2.304500,0.972836,-0.260140,0.423966,-0.650102,-0.589125,0.013311,0.479710,68.579593,33.223803,-49.849049
08544,NaN,-3.333340,7.782580,-0.361488,3.114377,1.183569,-2.021044,0.938712,-0.016890,0.326328,-0.648050,-0.592139,0.016588,0.478673,69.160008,33.050820,-49.783947
08545,NaN,-3.806293,8.184365,-0.781422,3.280109,1.694267,-1.539121,0.970456,0.295607,0.345630,-0.645961,-0.595980,0.018982,0.476636,69.867358,32.929612,-49.517250
08546,NaN,-4.218249,8.553524,-1.027766,3.340431,2.031532,-1.053344,1.032201,0.331667,0.431282,-0.643872,-0.600085,0.021664,0.474191,70.632722,32.766254,-49.209421
08547,NaN,-4.354744,8.709386,-1.492877,3.542889,2.391460,-0.937240,1.077602,0.321322,0.520429,-0.641836,-0.604277,0.024752,0.471469,71.427809,32.549158,-48.892171
08548,NaN,-4.496694,8.732251,-1.798251,3.561998,2.658799,-0.871333,1.044642,0.443518,0.564428,-0.639990,-0.608626,0.027504,0.468221,72.248563,32.326184,-48.490908
08549,NaN,-4.697577,8.835292,-1.515703,3.236224,2.508135,-0.557315,0.782271,0.763120,0.469508,-0.638741,-0.612873,0.028328,0.464322,73.015568,32.205061,-47.906663
08550,NaN,-4.745026,9.165549,-0.511632,2.695889,1.670997,0.022121,0.418035,1.140653,0.300707,-0.638245,-0.616834,0.026584,0.459839,73.685594,32.232435,-47.112300
08551,NaN,-4.717700,9.503718,0.919199,1.968348,0.446065,0.644287,0.176438,1.415235,0.201673,-0.638274,-0.620643,0.023101,0.454835,74.304582,32.350073,-46.156442
08552,NaN,-5.161516,9.822053,2.107044,1.117867,-0.328966,1.420963,0.190607,1.571488,0.239028,-0.638325,-0.624811,0.019266,0.449201,74.992829,32.461647,-45.089035
08553,NaN,-6.039469,10.351580,2.898471,0.347181,-0.612978,2.497216,0.396172,1.503014,0.322213,-0.637873,-0.629435,0.016372,0.443465,75.785408,32.505326,-44.049615
08554,NaN,-6.649320,10.698562,3.161347,-0.085145,-0.626361,3.159031,0.564878,1.140159,0.449613,-0.637109,-0.633747,0.015408,0.438429,76.556688,32.416685,-43.228647
08555,NaN,-7.130485,10.891569,2.823241,-0.194382,-0.192592,3.505142,0.495846,0.789281,0.520089,-0.636668,-0.637042,0.015634,0.434267,77.167749,32.234389,-42.630859
08556,NaN,-7.353492,10.826149,2.215832,-0.126445,0.390277,3.454567,0.330986,0.541242,0.580811,-0.636849,-0.639252,0.016484,0.430706,77.597948,31.982806,-42.191425
08557,NaN,-7.084430,10.639176,1.880880,0.033463,0.531955,3.095990,0.290897,0.294633,0.707896,-0.637401,-0.640784,0.018440,0.427523,77.925747,31.627384,-41.899544
08558,NaN,-6.660041,10.629265,1.377326,0.474853,0.712777,2.776978,0.387857,0.063309,0.880409,-0.637977,-0.642100,0.021890,0.424516,78.238321,31.146772,-41.739485
08559,NaN,-6.092385,10.964628,0.805241,1.208331,0.815792,2.671755,0.511841,-0.033609,1.059095,-0.638504,-0.643570,0.026489,0.421222,78.598762,30.553676,-41.622834
08560,NaN,-5.456709,11.424161,0.493505,1.879511,0.652890,2.700090,0.504595,0.116290,1.191725,-0.639331,-0.645288,0.031017,0.417009,79.008476,29.902299,-41.397163
08561,NaN,-4.918545,11.854175,0.363355,2.358232,0.412345,2.801270,0.322268,0.405294,1.239836,-0.640862,-0.646994,0.034398,0.411718,79.404088,29.253177,-40.984989
08562,NaN,-4.447321,12.040024,0.513076,2.515796,0.041898,2.783771,0.115200,0.714720,1.283104,-0.643175,-0.648631,0.036496,0.405305,79.771557,28.609659,-40.376279
08563,NaN,-4.174254,12.152635,0.723024,2.474572,-0.244238,2.814585,0.066360,0.973235,1.348296,-0.645784,-0.650587,0.037878,0.397824,80.183650,27.951007,-39.602969
08564,NaN,-4.395658,12.232428,0.787455,2.151589,-0.133877,3.029578,0.195314,1.085203,1.447306,-0.648146,-0.653111,0.039470,0.389609,80.693586,27.242128,-38.758858
08565,NaN,-4.781845,12.622816,0.614087,1.954865,0.201377,3.555646,0.370799,1.042111,1.548358,-0.650065,-0.656048,0.041875,0.381134,81.281557,26.464323,-37.944820
08566,NaN,-4.990512,13.064001,0.257030,1.962401,0.576136,4.023888,0.571923,0.870170,1.667301,-0.651457,-0.659220,0.045603,0.372764,81.923965,25.597705,-37.243649
08567,NaN,-4.813928,13.634752,-0.078040,2.246194,0.704976,4.453952,0.705421,0.753052,1.790112,-0.652543,-0.662520,0.050369,0.364305,82.600240,24.644241,-36.621447
08568,NaN,-4.437299,13.918177,-0.378741,2.508793,0.747824,4.563943,0.712990,0.752907,1.894443,-0.653723,-0.665739,0.055482,0.355471,83.266264,23.625811,-36.008811
08569,NaN,-4.263241,13.751121,-0.702637,2.448996,0.992018,4.356741,0.652626,0.856503,1.916984,-0.655093,-0.668866,0.060226,0.346185,83.907884,22.593788,-35.347531
08570,NaN,-4.108777,13.500168,-0.742624,2.200576,1.020457,4.108414,0.604831,1.022530,1.839682,-0.656464,-0.672061,0.064069,0.336578,84.540237,21.609780,-34.606543
08571,NaN,-3.843877,13.307470,-0.637577,1.999097,0.851383,3.881949,0.576051,1.189272,1.739908,-0.657735,-0.675401,0.066984,0.326698,85.174923,20.682499,-33.785220
08572,NaN,-3.473513,13.012446,-0.497575,1.847144,0.598307,3.523764,0.623044,1.312059,1.674404,-0.658706,-0.679030,0.069332,0.316573,85.842047,19.790742,-32.908852
08573,NaN,-3.146729,12.603374,-0.478845,1.706956,0.466885,3.065167,0.754119,1.410667,1.595894,-0.659055,-0.683197,0.071299,0.306276,86.586597,18.936138,-31.992004
08574,NaN,-2.652928,12.448136,-0.409672,1.772370,0.158291,2.796455,0.881199,1.550978,1.505675,-0.658800,-0.687931,0.072670,0.295723,87.410399,18.127010,-31.010675
08575,NaN,-2.323976,12.522583,-0.285806,1.759547,-0.159859,2.803618,0.948852,1.801214,1.396180,-0.658142,-0.693208,0.072941,0.284590,88.301732,17.370516,-29.898244
08576,NaN,-2.380342,12.619785,-0.053764,1.400301,-0.404228,2.946600,0.876947,2.012179,1.238006,-0.657487,-0.698490,0.071844,0.273241,89.168490,16.692715,-28.678450
08577,NaN,-2.708196,12.511260,0.201708,0.772286,-0.531450,2.955412,0.732103,2.121045,1.092600,-0.657071,-0.703395,0.069686,0.261986,89.954782,16.080151,-27.408451
08578,NaN,-2.913773,12.191675,0.462857,0.218781,-0.704838,2.709042,0.678464,2.062674,1.008108,-0.656620,-0.707964,0.067329,0.251206,90.683329,15.501931,-26.185513
08579,NaN,-3.013436,11.886143,0.655367,-0.191576,-0.877112,2.434018,0.771437,1.880929,0.988361,-0.655660,-0.712528,0.065619,0.241055,91.423478,14.919989,-25.081242
08580,NaN,-3.223306,11.891767,0.744464,-0.579724,-0.963861,2.479169,0.886158,1.654925,1.020779,-0.654182,-0.717092,0.064883,0.231550,92.180138,14.311611,-24.122524
08581,NaN,-3.250432,11.774969,0.626231,-0.752993,-0.923459,2.360410,0.924891,1.400767,1.075879,-0.652473,-0.721400,0.065227,0.222726,92.910850,13.664224,-23.325913
08582,NaN,-3.130750,11.546835,0.621505,-0.863224,-1.016924,2.092563,0.889805,1.158294,1.118222,-0.650802,-0.725237,0.066456,0.214642,93.575707,12.993066,-22.683771
08583,NaN,-3.113823,11.231297,0.489409,-1.019174,-0.924859,1.770962,0.772096,0.966242,1.095954,-0.649418,-0.728443,0.068111,0.207336,94.140447,12.333456,-22.162310
08584,NaN,-3.015745,10.921527,0.495835,-1.136165,-0.970410,1.429462,0.621037,0.769787,1.062019,-0.648446,-0.730916,0.070106,0.200909,94.586728,11.699258,-21.761422
08585,NaN,-2.814863,10.483632,0.499351,-1.157763,-1.011523,0.944375,0.487782,0.577328,1.017122,-0.647816,-0.732751,0.072437,0.195355,94.930526,11.095303,-21.475769
08586,NaN,-2.497324,9.958982,0.491763,-1.058309,-1.055805,0.357073,0.397931,0.434505,0.964354,-0.647391,-0.734143,0.074934,0.190533,95.203302,10.529046,-21.274311
08587,NaN,-2.272735,9.368595,0.215320,-0.931854,-0.799742,-0.248508,0.348996,0.340374,0.929607,-0.647057,-0.735282,0.077571,0.186171,95.436943,9.984971,-21.128433
08588,NaN,-2.261993,8.746766,-0.070022,-0.986203,-0.452876,-0.843346,0.376177,0.302275,0.876749,-0.646544,-0.736472,0.080149,0.182115,95.680463,9.474334,-21.004175
08589,NaN,-2.231268,8.440302,-0.079336,-1.074057,-0.415497,-1.158395,0.330025,0.300319,0.831018,-0.646142,-0.737515,0.082532,0.178218,95.896966,8.987698,-20.880623
08590,NaN,-1.949839,8.097675,-0.103954,-0.918342,-0.442333,-1.545550,0.255428,0.264137,0.823507,-0.645981,-0.738269,0.084925,0.174517,96.065712,8.508787,-20.779297
08591,NaN,-1.543344,7.749609,-0.096094,-0.650781,-0.538256,-1.955592,0.251229,0.219459,0.820779,-0.645800,-0.738959,0.087457,0.170977,96.227837,8.032286,-20.705053
08592,NaN,-1.026233,7.364636,-0.108041,-0.267144,-0.647301,-2.409174,0.202754,0.275347,0.786551,-0.645783,-0.739540,0.089629,0.167370,96.365547,7.573173,-20.597844
08593,NaN,-0.615063,7.076274,-0.073320,0.022403,-0.772752,-2.751563,0.070690,0.474120,0.703994,-0.646261,-0.739885,0.090751,0.163341,96.442369,7.146601,-20.372195
08594,NaN,-0.498178,6.775635,-0.054030,0.060139,-0.773967,-3.063052,-0.113041,0.796000,0.532473,-0.647413,-0.739962,0.090037,0.158765,96.435686,6.798428,-19.951251
08595,NaN,-0.635417,6.480693,-0.016146,-0.128399,-0.704692,-3.340419,-0.241867,1.166832,0.356174,-0.649049,-0.739973,0.087376,0.153430,96.379218,6.525563,-19.306486
08596,NaN,-1.219881,6.266610,0.057818,-0.732444,-0.540264,-3.493394,-0.323311,1.402898,0.255121,-0.650982,-0.739910,0.083498,0.147590,96.288790,6.297732,-18.519963
08597,NaN,-1.416411,6.228161,0.234600,-0.987837,-0.633054,-3.529801,-0.376474,1.466392,0.176488,-0.653045,-0.739714,0.079088,0.141774,96.169745,6.110608,-17.692077
08598,NaN,-1.005293,6.401112,0.395269,-0.639565,-0.925324,-3.419268,-0.390463,1.480675,0.138132,-0.655100,-0.739454,0.074466,0.136038,96.041090,5.947808,-16.853492
08599,NaN,-0.461936,6.357507,0.196906,-0.065790,-0.876070,-3.496184,-0.349389,1.588947,0.124378,-0.656995,-0.739361,0.069470,0.129913,95.940092,5.786545,-15.952020
08600,NaN,-0.603693,6.149419,-0.190576,-0.106970,-0.429337,-3.646624,-0.335576,1.881727,0.035642,-0.658829,-0.739476,0.063179,0.122992,95.861970,5.661508,-14.877535
08601,NaN,-1.182986,6.099172,-0.379813,-0.618314,-0.087822,-3.619660,-0.487667,2.268412,-0.140421,-0.661168,-0.739300,0.054872,0.115247,95.717800,5.615062,-13.571293
08602,NaN,-1.866976,6.280432,-0.286160,-1.284281,-0.041389,-3.381496,-0.741923,2.551545,-0.273823,-0.664342,-0.738368,0.044972,0.106957,95.444367,5.635147,-12.095176
08603,NaN,-2.195961,6.445531,0.034146,-1.646592,-0.306776,-3.212470,-0.889135,2.540706,-0.288567,-0.667932,-0.736811,0.034975,0.098761,95.086581,5.670924,-10.624608
08604,NaN,-2.079407,6.456400,0.173855,-1.538713,-0.466877,-3.220752,-0.843823,2.309846,-0.209651,-0.671239,-0.735155,0.026048,0.091136,94.742047,5.683333,-9.290513
08605,NaN,-1.545103,6.318409,-0.085399,-0.966842,-0.279591,-3.385872,-0.684705,2.119443,-0.163795,-0.673869,-0.733838,0.018004,0.084017,94.477496,5.684173,-8.067936
08606,NaN,-0.947813,6.356707,-0.532609,-0.301930,0.084277,-3.371300,-0.529830,2.220400,-0.205958,-0.675833,-0.732996,0.009521,0.076652,94.308217,5.710479,-6.785475
08607,NaN,-0.950982,6.484908,-0.962358,-0.239343,0.509897,-3.212139,-0.545581,2.568966,-0.318264,-0.677728,-0.732127,-0.000552,0.068371,94.151237,5.788750,-5.298084
08608,NaN,-1.580448,6.648015,-1.251948,-0.822814,0.850884,-2.967232,-0.817105,2.957014,-0.459387,-0.680424,-0.730320,-0.012556,0.059140,93.865356,5.938978,-3.582021
08609,NaN,-2.078676,6.731010,-1.275179,-1.310520,0.910638,-2.833668,-1.203616,3.096843,-0.564230,-0.684317,-0.727040,-0.025523,0.049710,93.371901,6.154689,-1.782301
08610,NaN,-1.941423,6.590835,-1.027388,-1.193037,0.690744,-3.003634,-1.338730,2.971921,-0.603202,-0.688514,-0.723062,-0.038237,0.040842,92.800937,6.414190,-0.054517
08611,NaN,-1.334177,6.564008,-0.871129,-0.581524,0.568277,-3.107177,-1.130562,2.824543,-0.585815,-0.691816,-0.719586,-0.050323,0.032471,92.346911,6.682020,1.586343
08612,NaN,-1.139924,6.702716,-1.092117,-0.367183,0.820869,-2.985548,-0.905814,2.886117,-0.580132,-0.694128,-0.716729,-0.062558,0.023913,92.033816,6.957019,3.261706
08613,NaN,-1.853253,6.976273,-1.463784,-1.058457,1.161084,-2.617054,-0.946773,3.122944,-0.610504,-0.696334,-0.713564,-0.075708,0.014588,91.722139,7.253243,5.073734
08614,NaN,-2.819280,7.363250,-1.349661,-1.951198,0.957724,-2.114443,-1.204758,3.234106,-0.683571,-0.699208,-0.709275,-0.089508,0.005023,91.281420,7.602245,6.950428
08615,NaN,-3.281612,7.793723,-0.797649,-2.264496,0.356259,-1.633911,-1.378921,3.004548,-0.675808,-0.702596,-0.704164,-0.102451,-0.003837,90.734030,7.964520,8.692706
08616,NaN,-3.295905,7.953291,-0.305053,-2.153011,-0.113988,-1.472285,-1.264995,2.475955,-0.485200,-0.705680,-0.699392,-0.112849,-0.011443,90.218181,8.236716,10.126094
08617,NaN,-3.236232,7.876992,-0.250583,-2.076547,-0.138066,-1.551219,-0.960661,1.811365,-0.200640,-0.707953,-0.695786,-0.119904,-0.017559,89.825617,8.356865,11.173057
08618,NaN,-3.072966,7.765786,-0.442171,-1.971435,0.092161,-1.685511,-0.666497,1.251624,0.033314,-0.709461,-0.693356,-0.124183,-0.022375,89.555749,8.347607,11.896080
08619,NaN,-2.816258,7.870112,-0.699422,-1.777860,0.408690,-1.625423,-0.479662,0.912899,0.178308,-0.710490,-0.691690,-0.126772,-0.026415,89.363921,8.256162,12.423689
08620,NaN,-2.512855,8.098814,-0.682805,-1.475738,0.473655,-1.447927,-0.418882,0.754903,0.274730,-0.711378,-0.690307,-0.128474,-0.030211,89.193108,8.110155,12.860706
08621,NaN,-2.352618,8.141665,-0.410473,-1.286939,0.254136,-1.430021,-0.431906,0.710163,0.358965,-0.712313,-0.688924,-0.129720,-0.034160,89.010000,7.916818,13.272866
08622,NaN,-2.328476,7.927481,-0.193204,-1.278746,0.045909,-1.647723,-0.406700,0.674233,0.447863,-0.713155,-0.687681,-0.130535,-0.038285,88.837230,7.673444,13.665610
08623,NaN,-2.484376,7.580672,0.214504,-1.414549,-0.402971,-1.969139,-0.288186,0.603468,0.531995,-0.713606,-0.686916,-0.130829,-0.042388,88.725336,7.382102,14.018868
08624,NaN,-2.614368,7.359839,0.536369,-1.527177,-0.767887,-2.172808,-0.118307,0.512474,0.612103,-0.713504,-0.686817,-0.130556,-0.046353,88.702436,7.043995,14.320714
08625,NaN,-2.723446,7.287051,0.884515,-1.594456,-1.158772,-2.235395,0.095569,0.394857,0.694201,-0.712715,-0.687551,-0.129630,-0.050065,88.792103,6.657497,14.555323
08626,NaN,-2.803308,7.395454,1.084441,-1.653623,-1.403983,-2.130158,0.308617,0.239364,0.782154,-0.711259,-0.689129,-0.127898,-0.053419,88.992143,6.218022,14.700072
08627,NaN,-2.973119,7.680830,1.302087,-1.784007,-1.696040,-1.845870,0.516069,0.064930,0.875900,-0.709160,-0.691534,-0.125278,-0.056369,89.299145,5.723199,14.743097
08628,NaN,-3.045711,8.080703,1.425217,-1.846065,-1.883988,-1.467202,0.694190,-0.152710,0.963509,-0.706534,-0.694668,-0.121627,-0.058766,89.695809,5.176354,14.658177
08629,NaN,-3.090668,8.448838,1.478087,-1.916669,-2.011881,-1.129520,0.804116,-0.372586,1.039032,-0.703611,-0.698269,-0.116968,-0.060593,90.144926,4.587410,14.442958
08630,NaN,-3.034992,8.628955,1.492491,-1.928583,-2.089019,-0.991530,0.847622,-0.572114,1.096327,-0.700596,-0.702083,-0.111410,-0.061900,90.612607,3.967420,14.108293
08631,NaN,-2.823678,8.742823,1.605178,-1.781688,-2.226943,-0.932848,0.875813,-0.768120,1.144834,-0.697538,-0.706037,-0.105003,-0.062664,91.092185,3.325037,13.655902
08632,NaN,-2.633093,8.777808,1.658451,-1.684012,-2.315072,-0.950608,0.908179,-0.953910,1.191762,-0.694393,-0.710140,-0.097779,-0.062920,91.590034,2.661193,13.091063
08633,NaN,-2.511327,8.898686,1.741119,-1.650990,-2.451726,-0.880369,0.951382,-1.157890,1.226192,-0.691129,-0.714406,-0.089736,-0.062538,92.113579,1.987620,12.403193
08634,NaN,-2.349529,8.992648,1.663972,-1.623857,-2.426503,-0.833266,0.984352,-1.396480,1.248492,-0.687772,-0.718803,-0.080784,-0.061366,92.660641,1.312263,11.572050
08635,NaN,-2.080480,9.089089,1.466557,-1.520748,-2.264720,-0.776812,0.998918,-1.641151,1.280709,-0.684373,-0.723243,-0.070877,-0.059405,93.222462,0.635083,10.593816
08636,NaN,-1.591313,9.066262,1.102141,-1.232335,-1.897751,-0.822579,0.979395,-1.782460,1.291135,-0.680990,-0.727568,-0.060425,-0.056975,93.785037,-0.034834,9.527773
08637,NaN,-1.067866,9.168092,0.875829,-0.874282,-1.678648,-0.736498,0.925244,-1.752075,1.289755,-0.677706,-0.731588,-0.050067,-0.054651,94.327742,-0.693394,8.472929
08638,NaN,-0.957862,9.348818,0.789992,-0.898307,-1.672256,-0.574892,0.798450,-1.611125,1.255256,-0.674764,-0.735044,-0.040262,-0.052758,94.809513,-1.330709,7.493972
08639,NaN,-0.965930,9.582801,0.786174,-1.028212,-1.758446,-0.366510,0.647154,-1.488502,1.199329,-0.672302,-0.737855,-0.031042,-0.051143,95.211916,-1.933113,6.582944
08640,NaN,-0.894494,9.709324,0.970946,-1.057508,-2.001948,-0.279260,0.535203,-1.401541,1.161061,-0.670176,-0.740200,-0.022214,-0.049741,95.559074,-2.513944,5.719118
08641,NaN,-0.828230,9.756920,1.154128,-1.094590,-2.230964,-0.271269,0.487267,-1.321310,1.149318,-0.668175,-0.742290,-0.013695,-0.048590,95.883799,-3.085962,4.898290
08642,NaN,-0.743591,9.766470,1.338123,-1.114895,-2.454041,-0.301605,0.479833,-1.249525,1.114660,-0.666141,-0.744285,-0.005530,-0.047594,96.211572,-3.639514,4.116528
08643,NaN,-0.606245,9.826774,1.545959,-1.082998,-2.704713,-0.282040,0.504145,-1.141354,1.057958,-0.663992,-0.746271,0.002046,-0.046799,96.554565,-4.161382,3.396804
08644,NaN,-0.528948,10.016235,1.766026,-1.117802,-2.992573,-0.142256,0.542800,-1.013466,0.999222,-0.661660,-0.748319,0.008981,-0.046292,96.922280,-4.655668,2.749934
08645,NaN,-0.486275,10.122667,1.886216,-1.185176,-3.177978,-0.078357,0.570689,-0.914166,0.931401,-0.659223,-0.750388,0.015314,-0.045923,97.304241,-5.112425,2.161362
08646,NaN,-0.400715,10.144164,1.916491,-1.201449,-3.265197,-0.084819,0.590094,-0.834224,0.844872,-0.656693,-0.752485,0.021066,-0.045576,97.699421,-5.523801,1.620916
08647,NaN,-0.121225,10.026379,1.815771,-1.006223,-3.200390,-0.190626,0.598919,-0.758988,0.742400,-0.654152,-0.754560,0.026170,-0.045166,98.095975,-5.877349,1.128870
08648,NaN,0.236017,9.994121,1.631729,-0.731173,-3.070018,-0.187708,0.648080,-0.639533,0.650410,-0.651422,-0.756769,0.030537,-0.044920,98.518390,-6.186987,0.709174
08649,NaN,0.378321,10.262854,1.432603,-0.688758,-2.981716,0.094674,0.714006,-0.478440,0.562056,-0.648487,-0.759133,0.034015,-0.044995,98.967142,-6.455521,0.387091
08650,NaN,0.392448,10.832346,1.287425,-0.797299,-3.008052,0.649923,0.796213,-0.314155,0.488822,-0.645249,-0.761735,0.036678,-0.045479,99.456075,-6.696985,0.162247
08651,NaN,0.101491,11.573959,1.077721,-1.225222,-3.014366,1.347050,0.833328,-0.205298,0.426570,-0.641910,-0.764408,0.038728,-0.046172,99.956182,-6.909910,0.003942
08652,NaN,-0.233393,12.188527,1.012108,-1.676496,-3.150828,1.887727,0.791302,-0.146996,0.372803,-0.638720,-0.766944,0.040409,-0.046916,100.431471,-7.099036,-0.118414
08653,NaN,-0.501540,12.629581,0.798976,-2.039813,-3.107556,2.294243,0.660988,-0.154343,0.314894,-0.636055,-0.769045,0.041906,-0.047410,100.828889,-7.251758,-0.239407
08654,NaN,-0.633592,12.864054,0.711552,-2.237317,-3.139162,2.497114,0.536075,-0.180257,0.284208,-0.633840,-0.770771,0.043412,-0.047690,101.160118,-7.385704,-0.373602
08655,NaN,-0.514104,13.179246,0.433762,-2.196558,-2.993417,2.850610,0.512009,-0.258273,0.257337,-0.631727,-0.772418,0.045050,-0.047566,101.479438,-7.492742,-0.548797
08656,NaN,-0.324760,13.653401,0.025157,-2.108894,-2.761259,3.395220,0.598632,-0.304902,0.255055,-0.629236,-0.774360,0.046822,-0.047287,101.856062,-7.594313,-0.751781
08657,NaN,-0.226515,14.318899,-0.358419,-2.134267,-2.607805,4.110463,0.651432,-0.300703,0.223814,-0.626569,-0.776443,0.048428,-0.046924,102.258404,-7.675048,-0.948311
08658,NaN,-0.313808,14.809594,-0.781652,-2.314559,-2.383362,4.643983,0.563655,-0.259262,0.146273,-0.624235,-0.778272,0.049643,-0.046470,102.610451,-7.718683,-1.113410
08659,NaN,-0.463718,15.025999,-1.071870,-2.504811,-2.210457,4.883712,0.346860,-0.213882,0.044787,-0.622805,-0.779411,0.050350,-0.045807,102.828795,-7.707852,-1.239102
08660,NaN,-0.773910,14.767442,-1.221220,-2.775101,-2.034398,4.620873,0.086430,-0.171838,-0.039722,-0.622387,-0.779770,0.050677,-0.044994,102.897627,-7.657520,-1.331306
08661,NaN,-1.012626,14.102585,-1.189192,-2.906140,-1.910136,3.943336,-0.136674,-0.201680,-0.116513,-0.622880,-0.779437,0.050826,-0.043753,102.834811,-7.557582,-1.429255
08662,NaN,-0.984529,13.279182,-1.189084,-2.744873,-1.706548,3.159326,-0.225214,-0.272126,-0.166015,-0.623678,-0.778877,0.051043,-0.042076,102.730045,-7.424098,-1.561862
08663,NaN,-0.887530,12.522585,-1.166946,-2.518374,-1.533827,2.445761,-0.274143,-0.330279,-0.222462,-0.624693,-0.778164,0.051207,-0.039967,102.595394,-7.248875,-1.719131
08664,NaN,-0.854241,11.784739,-1.023086,-2.353326,-1.480222,1.716711,-0.341351,-0.359802,-0.300974,-0.625941,-0.777285,0.051195,-0.037498,102.427389,-7.029642,-1.884810
08665,NaN,-0.833210,10.928429,-0.835349,-2.180148,-1.438791,0.864345,-0.445872,-0.397196,-0.400969,-0.627631,-0.776078,0.050905,-0.034525,102.194957,-6.747079,-2.058745
08666,NaN,-0.917726,9.963362,-0.727456,-2.095767,-1.289994,-0.087301,-0.557064,-0.469234,-0.495568,-0.629706,-0.774571,0.050518,-0.030964,101.906309,-6.407048,-2.264290
08667,NaN,-0.958695,8.993004,-0.688689,-1.966790,-1.074056,-1.023770,-0.614229,-0.629269,-0.574705,-0.631994,-0.772884,0.050310,-0.026501,101.587411,-6.001517,-2.551329
08668,NaN,-0.934470,8.123127,-0.954352,-1.781570,-0.591345,-1.797389,-0.572986,-0.861461,-0.601958,-0.634014,-0.771367,0.050749,-0.021083,101.308200,-5.559304,-2.969373
08669,NaN,-1.039721,7.597585,-1.342669,-1.757748,-0.058863,-2.228925,-0.453200,-1.153681,-0.578616,-0.635503,-0.770195,0.052163,-0.014621,101.104816,-5.095799,-3.555391
08670,NaN,-1.026731,7.499709,-1.730250,-1.653346,0.376834,-2.235252,-0.355493,-1.430112,-0.543502,-0.636472,-0.769330,0.054608,-0.007251,100.971501,-4.627058,-4.303349
08671,NaN,-1.025650,7.835433,-1.934434,-1.598760,0.552401,-1.854911,-0.369517,-1.617916,-0.534675,-0.637435,-0.768344,0.057654,0.000838,100.826891,-4.141090,-5.157818
08672,NaN,-1.189507,8.476853,-1.882636,-1.741841,0.444515,-1.234582,-0.458480,-1.746744,-0.524404,-0.638615,-0.767034,0.061172,0.009394,100.634404,-3.653324,-6.088022
08673,NaN,-1.444933,9.308782,-1.649990,-2.000642,0.155535,-0.461967,-0.532215,-1.907960,-0.480910,-0.640003,-0.765367,0.065335,0.018473,100.392272,-3.173084,-7.114137
08674,NaN,-1.552398,9.959186,-1.650829,-2.071318,0.127557,0.187954,-0.540326,-2.140508,-0.401406,-0.641245,-0.763565,0.070566,0.028166,100.149724,-2.721891,-8.282177
08675,NaN,-1.385127,10.453701,-1.952327,-1.812313,0.386768,0.750214,-0.486352,-2.329773,-0.305311,-0.642177,-0.761745,0.076741,0.038272,99.929007,-2.307103,-9.567207
08676,NaN,-1.113130,10.954618,-2.347582,-1.425448,0.707594,1.332727,-0.444628,-2.355880,-0.216548,-0.642829,-0.759936,0.083363,0.048149,99.729883,-1.948207,-10.877718
08677,NaN,-0.951570,11.167726,-2.477909,-1.165488,0.830774,1.576521,-0.522326,-2.240660,-0.168762,-0.643781,-0.757752,0.089738,0.057483,99.471085,-1.629020,-12.128003
08678,NaN,-0.812006,10.965449,-2.503084,-0.922141,0.925906,1.388075,-0.697378,-2.020459,-0.167452,-0.645381,-0.755002,0.095376,0.066027,99.107729,-1.341273,-13.256193
08679,NaN,-0.697995,10.474912,-2.404445,-0.717473,0.955911,0.890709,-0.803012,-1.760666,-0.174709,-0.647468,-0.751892,0.100076,0.073679,98.669750,-1.076886,-14.237733
08680,NaN,-0.617884,9.895013,-2.061082,-0.613860,0.765481,0.265877,-0.804246,-1.518862,-0.167677,-0.649595,-0.748828,0.104038,0.080371,98.230164,-0.847803,-15.085465
08681,NaN,-0.678750,9.277553,-1.912828,-0.612990,0.791450,-0.368652,-0.728376,-1.314009,-0.160546,-0.651538,-0.746012,0.107358,0.086252,97.823766,-0.642084,-15.818442
08682,NaN,-0.683284,8.775351,-1.752462,-0.580313,0.760143,-0.889136,-0.625727,-1.117335,-0.179684,-0.653129,-0.743616,0.110032,0.091378,97.478150,-0.448656,-16.440271
08683,NaN,-0.633224,8.434745,-1.683054,-0.485837,0.766666,-1.236299,-0.541768,-0.929694,-0.214838,-0.654506,-0.741545,0.111970,0.095895,97.172284,-0.249214,-16.953301
08684,NaN,-0.564176,8.135200,-1.663983,-0.365785,0.798398,-1.536389,-0.478358,-0.757995,-0.273535,-0.655665,-0.739805,0.113184,0.099906,96.906210,-0.034300,-17.366209
08685,NaN,-0.619323,7.865322,-1.835519,-0.310520,1.034046,-1.784605,-0.379643,-0.631361,-0.326700,-0.656524,-0.738440,0.113805,0.103589,96.689656,0.203783,-17.703748
08686,NaN,-0.686473,7.863894,-2.014271,-0.274197,1.238930,-1.765387,-0.266302,-0.545776,-0.365545,-0.656951,-0.737531,0.114087,0.106994,96.542409,0.453999,-17.991379
08687,NaN,-0.674331,8.083923,-2.082167,-0.200605,1.282923,-1.539016,-0.208975,-0.437551,-0.413344,-0.657227,-0.736859,0.113839,0.110146,96.421942,0.727000,-18.214340
08688,NaN,-0.789610,8.298300,-2.113965,-0.254136,1.331620,-1.320569,-0.276731,-0.363815,-0.492242,-0.657712,-0.736069,0.113046,0.113300,96.267644,1.036476,-18.391529
08689,NaN,-0.872233,8.367628,-2.178305,-0.253872,1.422315,-1.243252,-0.371974,-0.323254,-0.565592,-0.658552,-0.734994,0.111768,0.116621,96.053036,1.387934,-18.541623
08690,NaN,-1.064979,8.319764,-2.067214,-0.406193,1.400646,-1.298064,-0.451452,-0.301228,-0.609364,-0.659629,-0.733711,0.110236,0.120025,95.797597,1.759150,-18.678508
08691,NaN,-1.281063,8.256814,-1.926822,-0.585780,1.365524,-1.367541,-0.489363,-0.346481,-0.634483,-0.660823,-0.732249,0.108709,0.123720,95.513496,2.149896,-18.841157
08692,NaN,-1.474253,8.227490,-1.842050,-0.724394,1.373753,-1.395696,-0.488751,-0.437721,-0.632058,-0.661924,-0.730743,0.107517,0.127715,95.231557,2.540044,-19.058391
08693,NaN,-1.580760,8.342365,-1.770048,-0.773556,1.353768,-1.280668,-0.479622,-0.558972,-0.601884,-0.662959,-0.729132,0.106814,0.132070,94.944896,2.921409,-19.348104
08694,NaN,-1.601597,8.408769,-1.672135,-0.751279,1.288093,-1.219409,-0.477129,-0.684833,-0.564162,-0.663899,-0.727434,0.106691,0.136729,94.658708,3.282463,-19.713912
08695,NaN,-1.565954,8.548558,-1.656821,-0.645942,1.276692,-1.081855,-0.474694,-0.775580,-0.514662,-0.664825,-0.725611,0.107021,0.141574,94.363373,3.620877,-20.135576
08696,NaN,-1.522380,8.522840,-1.584800,-0.560589,1.226168,-1.114997,-0.471729,-0.853971,-0.462536,-0.665689,-0.723719,0.107828,0.146500,94.069079,3.927234,-20.606467
08697,NaN,-1.442299,8.558033,-1.575314,-0.420123,1.215880,-1.086492,-0.441822,-0.917919,-0.410939,-0.666454,-0.721805,0.109025,0.151489,93.781787,4.207630,-21.117546
08698,NaN,-1.307148,8.533397,-1.613400,-0.218864,1.231984,-1.119902,-0.403259,-0.948511,-0.359615,-0.667057,-0.719972,0.110563,0.156368,93.517529,4.453925,-21.649754
08699,NaN,-1.252372,8.521989,-1.718504,-0.071131,1.334074,-1.131623,-0.341014,-0.975139,-0.297124,-0.667475,-0.718245,0.112433,0.161120,93.280536,4.666442,-22.200454
08700,NaN,-1.082505,8.672558,-1.839572,0.191614,1.386840,-0.991755,-0.250242,-0.986579,-0.237454,-0.667565,-0.716783,0.114653,0.165633,93.097717,4.839792,-22.760703
08701,NaN,-0.882420,8.783050,-1.948105,0.470824,1.412526,-0.896484,-0.209501,-0.938297,-0.194549,-0.667579,-0.715429,0.116869,0.169827,92.934184,4.988774,-23.295061
08702,NaN,-0.650002,8.742348,-2.034647,0.757881,1.413269,-0.957233,-0.241032,-0.843441,-0.182777,-0.667732,-0.714052,0.118808,0.173632,92.760688,5.123428,-23.775923
08703,NaN,-0.430117,8.542908,-2.135581,1.028384,1.443932,-1.176466,-0.282803,-0.703987,-0.196389,-0.668117,-0.712629,0.120168,0.177031,92.564790,5.263845,-24.176726
08704,NaN,-0.332582,8.343705,-2.092500,1.124741,1.391249,-1.392127,-0.284443,-0.531369,-0.212208,-0.668565,-0.711376,0.120919,0.179842,92.380742,5.404496,-24.478530
08705,NaN,-0.295781,8.285223,-2.085981,1.186288,1.383334,-1.460278,-0.223192,-0.392490,-0.211425,-0.668897,-0.710425,0.121237,0.182141,92.234248,5.543749,-24.700895
08706,NaN,-0.250572,8.384107,-2.126865,1.280789,1.397569,-1.369589,-0.145936,-0.293182,-0.206741,-0.668993,-0.709838,0.121335,0.184001,92.141417,5.674563,-24.866629
08707,NaN,-0.172284,8.580621,-2.136556,1.396239,1.359276,-1.185727,-0.119733,-0.169225,-0.205165,-0.669092,-0.709428,0.121022,0.185422,92.066150,5.804648,-24.961257
08708,NaN,-0.126554,8.799019,-2.110004,1.466317,1.300060,-0.978063,-0.135316,-0.041928,-0.211897,-0.669295,-0.709108,0.120270,0.186400,91.993412,5.932861,-24.982698
08709,NaN,-0.172291,8.956587,-2.066948,1.442594,1.271240,-0.822402,-0.151809,0.054135,-0.217025,-0.669628,-0.708804,0.119139,0.187086,91.912982,6.065027,-24.948886
08710,NaN,-0.205236,9.143667,-1.948499,1.399313,1.167620,-0.640776,-0.148819,0.117754,-0.200932,-0.669982,-0.708579,0.117879,0.187469,91.842163,6.183906,-24.878920
08711,NaN,-0.233666,9.444108,-1.779297,1.347559,1.009048,-0.348146,-0.149677,0.155781,-0.178287,-0.670400,-0.708353,0.116547,0.187662,91.769559,6.292047,-24.787590
08712,NaN,-0.190001,9.754716,-1.696512,1.395865,0.898469,-0.049848,-0.134305,0.152871,-0.134052,-0.670784,-0.708168,0.115419,0.187687,91.709382,6.372181,-24.698820
08713,NaN,-0.001680,9.947493,-1.805827,1.641612,0.910565,0.121577,-0.085940,0.105318,-0.073953,-0.671042,-0.708046,0.114686,0.187671,91.670275,6.421508,-24.638541
08714,NaN,0.406211,10.016032,-2.083884,2.138700,0.993068,0.150658,-0.059404,0.106452,-0.019208,-0.671240,-0.708002,0.114190,0.187432,91.649942,6.436761,-24.578538
08715,NaN,0.835595,10.063480,-2.217335,2.589905,0.941960,0.151926,-0.111712,0.227602,-0.008779,-0.671719,-0.707871,0.113255,0.186778,91.604106,6.446687,-24.448893
08716,NaN,0.989692,10.159007,-2.176525,2.723437,0.852103,0.226184,-0.185449,0.428282,-0.018645,-0.672544,-0.707701,0.111562,0.185469,91.532418,6.456667,-24.203420
08717,NaN,0.946477,10.100537,-2.231397,2.703843,0.949372,0.171483,-0.210426,0.575095,-0.011446,-0.673556,-0.707557,0.109358,0.183646,91.452851,6.463026,-23.873446
08718,NaN,0.877410,10.222291,-2.287070,2.672749,1.048096,0.299365,-0.193462,0.697187,0.011506,-0.674573,-0.707579,0.106858,0.181285,91.393981,6.452525,-23.473421
08719,NaN,0.767923,10.675876,-2.605747,2.730650,1.379422,0.770063,-0.077139,0.797127,0.082053,-0.675301,-0.708021,0.104356,0.178283,91.405041,6.402557,-23.016805
08720,NaN,0.824937,11.664706,-3.156959,3.057922,1.815135,1.766020,0.120291,0.834872,0.193961,-0.675423,-0.709107,0.102315,0.174649,91.533607,6.285210,-22.540227
08721,NaN,0.913579,12.954267,-3.989814,3.518045,2.469659,3.074901,0.256257,0.919823,0.275586,-0.675176,-0.710657,0.100377,0.170378,91.741495,6.120316,-22.016521
08722,NaN,1.045709,14.058229,-4.968860,4.022546,3.259829,4.209036,0.209637,1.116700,0.285259,-0.675169,-0.712204,0.097782,0.165379,91.935435,5.942454,-21.380392
08723,NaN,1.330975,14.798999,-5.564761,4.479592,3.702644,4.951155,-0.124879,1.434821,0.183708,-0.676406,-0.712894,0.093456,0.159759,91.952944,5.817149,-20.559630
08724,NaN,1.596799,14.806811,-5.112553,4.492724,3.284717,4.916670,-0.461755,1.762107,0.095121,-0.678870,-0.712709,0.087447,0.153407,91.797089,5.735667,-19.548847
08725,NaN,1.617062,13.750792,-4.215567,4.064713,2.638678,3.824889,-0.697313,1.984499,0.078120,-0.682199,-0.711827,0.080422,0.146418,91.516289,5.665545,-18.409577
08726,NaN,1.360270,12.268344,-3.416445,3.400046,2.196921,2.338272,-0.866369,2.124855,0.051973,-0.686078,-0.710404,0.072702,0.139059,91.146818,5.613491,-17.188936
08727,NaN,0.809732,10.915614,-2.547947,2.470526,1.734521,1.012506,-0.900102,2.199168,0.030799,-0.690001,-0.708823,0.064611,0.131510,90.760386,5.582080,-15.925051
08728,NaN,0.503446,10.115663,-1.587968,1.823597,1.040528,0.221886,-0.833167,2.101244,0.026930,-0.693555,-0.707319,0.056887,0.124274,90.407228,5.560371,-14.717418
08729,NaN,0.154230,10.005745,-1.002111,1.317809,0.650066,0.136349,-0.621418,1.838582,0.096075,-0.696256,-0.706286,0.050437,0.117660,90.159317,5.507140,-13.661123
08730,NaN,-0.238068,10.332537,-0.716565,0.881067,0.507875,0.497359,-0.301588,1.452602,0.257840,-0.697769,-0.706049,0.046093,0.111750,90.072493,5.363695,-12.827216
08731,NaN,-0.238461,10.776614,-0.740578,0.885774,0.546401,0.941722,-0.067525,0.991700,0.449556,-0.698430,-0.706294,0.044156,0.106745,90.092100,5.112229,-12.258801
08732,NaN,0.186720,10.897443,-0.878094,1.279738,0.603269,1.029734,-0.003119,0.603009,0.591014,-0.698834,-0.706511,0.044117,0.102597,90.126980,4.778914,-11.914490
08733,NaN,0.869469,10.843284,-0.892814,1.875688,0.495581,0.928151,-0.029541,0.396876,0.659176,-0.699313,-0.706502,0.045018,0.098947,90.134618,4.407544,-11.689018
08734,NaN,1.296852,10.830909,-0.775545,2.195535,0.313725,0.895840,-0.001289,0.295799,0.708586,-0.699680,-0.706522,0.046466,0.095469,90.153122,4.007103,-11.521926
08735,NaN,1.575772,10.923915,-0.636382,2.366969,0.131577,0.985436,0.131395,0.213128,0.776177,-0.699584,-0.706939,0.048500,0.092019,90.242876,3.568585,-11.402870
08736,NaN,1.769718,11.210941,-0.587563,2.473564,0.036159,1.279727,0.295736,0.123106,0.836072,-0.698897,-0.707864,0.051140,0.088631,90.423144,3.095128,-11.336808
08737,NaN,1.914046,11.480412,-0.672542,2.544044,0.066718,1.564398,0.401439,0.089172,0.878413,-0.697833,-0.709116,0.054092,0.085189,90.662041,2.597741,-11.292179
08738,NaN,1.935910,11.575640,-0.877912,2.503134,0.237149,1.684744,0.392950,0.154716,0.873417,-0.696797,-0.710352,0.056795,0.081530,90.897456,2.102143,-11.212037
08739,NaN,1.951916,11.494729,-0.946869,2.424790,0.284063,1.627334,0.337266,0.302500,0.842370,-0.695974,-0.711446,0.058848,0.077469,91.102747,1.622660,-11.048794
08740,NaN,1.852706,11.191358,-0.918636,2.215456,0.271781,1.347061,0.287411,0.493708,0.804017,-0.695352,-0.712437,0.060080,0.072874,91.281006,1.162213,-10.777193
08741,NaN,1.754006,10.736805,-0.803263,1.997702,0.183949,0.909972,0.273162,0.699791,0.763486,-0.694810,-0.713445,0.060444,0.067687,91.450733,0.721211,-10.388418
08742,NaN,1.545064,10.206502,-0.717672,1.687841,0.149068,0.395317,0.290008,0.909799,0.727632,-0.694236,-0.714572,0.059954,0.061869,91.628395,0.296468,-9.880184
08743,NaN,1.327873,9.675718,-0.598025,1.376710,0.080470,-0.125678,0.293543,1.074939,0.667124,-0.693655,-0.715753,0.058676,0.055665,91.804503,-0.098351,-9.277675
08744,NaN,1.059644,9.169423,-0.417704,1.019720,-0.042430,-0.629350,0.264628,1.157840,0.616354,-0.693156,-0.716840,0.056915,0.049349,91.959903,-0.467073,-8.627869
08745,NaN,0.876053,8.633437,-0.253433,0.763585,-0.162254,-1.166399,0.206373,1.187963,0.573290,-0.692834,-0.717713,0.054882,0.043086,92.077582,-0.813743,-7.960804
08746,NaN,0.618317,8.102561,0.023569,0.432407,-0.384161,-1.707156,0.166022,1.160646,0.541853,-0.692612,-0.718419,0.052817,0.037041,92.168568,-1.142596,-7.309278
08747,NaN,0.242646,7.762537,0.316423,-0.009047,-0.619177,-2.064629,0.171702,1.118218,0.517231,-0.692328,-0.719114,0.050812,0.031229,92.259571,-1.457962,-6.681968
08748,NaN,-0.277473,7.639145,0.587481,-0.588854,-0.835902,-2.214461,0.240785,0.970524,0.511090,-0.691731,-0.720002,0.049303,0.025953,92.389254,-1.767071,-6.139608
08749,NaN,-0.618592,7.742531,0.670097,-0.977856,-0.909577,-2.131885,0.378001,0.695569,0.553316,-0.690561,-0.721298,0.048915,0.021483,92.599694,-2.095587,-5.756608
08750,NaN,-0.634835,7.937996,0.645573,-1.045065,-0.925837,-1.946184,0.505439,0.359570,0.629989,-0.688841,-0.722965,0.049974,0.017932,92.888838,-2.459944,-5.569506
08751,NaN,-0.440514,8.164834,0.397213,-0.894483,-0.748136,-1.709843,0.569633,0.078932,0.703451,-0.686814,-0.724793,0.052273,0.015123,93.220839,-2.859151,-5.547292
08752,NaN,-0.369727,8.341342,0.042255,-0.862999,-0.452171,-1.520115,0.549197,-0.073077,0.739618,-0.684808,-0.726517,0.055219,0.012748,93.546149,-3.273644,-5.615675
08753,NaN,-0.374126,8.469435,-0.186970,-0.917977,-0.265567,-1.386974,0.406758,-0.094901,0.729781,-0.683301,-0.727737,0.058196,0.010524,93.790796,-3.681657,-5.698250
08754,NaN,-0.408982,8.444370,-0.140170,-1.016638,-0.326381,-1.424964,0.177605,-0.049036,0.702055,-0.682627,-0.728177,0.060900,0.008296,93.903367,-4.075035,-5.754829
08755,NaN,-0.286987,8.357288,-0.007485,-0.960385,-0.469661,-1.519108,0.055946,-0.030510,0.712650,-0.682397,-0.728187,0.063575,0.006000,93.945460,-4.475304,-5.801708
08756,NaN,-0.101392,8.137273,0.039473,-0.822574,-0.522650,-1.733273,0.096472,-0.062323,0.770737,-0.681998,-0.728309,0.066570,0.003609,94.013273,-4.907279,-5.869619
08757,NaN,0.101033,8.061376,0.029269,-0.677363,-0.534072,-1.796926,0.178660,-0.039355,0.799917,-0.681301,-0.728687,0.069593,0.001008,94.127182,-5.356850,-5.926194
08758,NaN,0.016756,8.205689,0.038906,-0.840193,-0.553901,-1.668853,0.203258,0.061682,0.769887,-0.680535,-0.729151,0.072161,-0.001867,94.250466,-5.793279,-5.924553
08759,NaN,-0.200970,8.485637,0.087019,-1.152434,-0.608201,-1.424859,0.193461,0.147334,0.716568,-0.679829,-0.729587,0.074242,-0.004870,94.362260,-6.202946,-5.872195
08760,NaN,-0.400331,8.561892,0.178705,-1.426137,-0.694887,-1.387656,0.177346,0.132148,0.680591,-0.679165,-0.729974,0.076244,-0.007689,94.465911,-6.591474,-5.827809
08761,NaN,-0.470035,8.501754,0.265617,-1.551549,-0.780833,-1.472781,0.178130,0.090229,0.643290,-0.678480,-0.730368,0.078249,-0.010228,94.571786,-6.956763,-5.806386
08762,NaN,-0.620428,8.416515,0.283242,-1.742432,-0.788509,-1.588039,0.180734,0.040076,0.594275,-0.677757,-0.730789,0.080246,-0.012418,94.683064,-7.291903,-5.812361
08763,NaN,-0.603914,8.308299,0.394367,-1.768077,-0.905358,-1.713174,0.212311,-0.042614,0.525717,-0.676888,-0.731339,0.082267,-0.014086,94.817539,-7.583666,-5.863228
08764,NaN,-0.627277,8.290819,0.532898,-1.842247,-1.053930,-1.755993,0.241407,-0.152109,0.455969,-0.675863,-0.732022,0.084403,-0.015130,94.977787,-7.830418,-5.974691
08765,NaN,-0.550389,8.333909,0.391774,-1.797046,-0.943709,-1.701564,0.315900,-0.222465,0.419365,-0.674539,-0.732968,0.086634,-0.015822,95.185738,-8.051877,-6.125466
08766,NaN,-0.599194,8.395480,0.566396,-1.905555,-1.139684,-1.674275,0.346846,-0.228079,0.376204,-0.673091,-0.734035,0.088725,-0.016364,95.413119,-8.248323,-6.278314
08767,NaN,-0.580925,8.498234,0.672154,-1.943828,-1.278334,-1.590977,0.319300,-0.267541,0.296198,-0.671736,-0.735039,0.090653,-0.016475,95.626910,-8.395721,-6.450018
08768,NaN,-0.472883,8.552124,0.769105,-1.881273,-1.414187,-1.541366,0.320361,-0.342538,0.240113,-0.670335,-0.736077,0.092630,-0.016127,95.848688,-8.506863,-6.662585
08769,NaN,-0.331545,8.542649,0.856546,-1.772626,-1.540700,-1.548040,0.341125,-0.462411,0.199275,-0.668809,-0.737202,0.094850,-0.015205,96.091484,-8.585893,-6.941960
08770,NaN,-0.174603,8.489200,0.848359,-1.629947,-1.574653,-1.585880,0.388168,-0.545732,0.154019,-0.667058,-0.738510,0.097184,-0.013852,96.369564,-8.633551,-7.267212
08771,NaN,0.050574,8.504943,0.751103,-1.418252,-1.539867,-1.535126,0.405004,-0.609885,0.097856,-0.665218,-0.739889,0.099515,-0.012077,96.661076,-8.642477,-7.625602
08772,NaN,0.356633,8.507932,0.677941,-1.123541,-1.542982,-1.486317,0.407017,-0.647071,0.040951,-0.663337,-0.741302,0.101764,-0.009981,96.957721,-8.615672,-8.001885
08773,NaN,0.656865,8.544207,0.551255,-0.828738,-1.500652,-1.398418,0.410640,-0.661803,-0.011038,-0.661437,-0.742735,0.103860,-0.007654,97.255237,-8.555253,-8.382309
08774,NaN,0.819819,8.696268,0.406186,-0.679764,-1.436884,-1.214123,0.394299,-0.633183,-0.063791,-0.659595,-0.744137,0.105673,-0.005256,97.541428,-8.466137,-8.742384
08775,NaN,0.768247,8.836540,0.332975,-0.741347,-1.408633,-1.080472,0.307860,-0.530632,-0.115447,-0.658134,-0.745260,0.106947,-0.003018,97.766417,-8.352812,-9.038657
08776,NaN,0.638835,9.008774,0.366066,-0.892285,-1.467128,-0.938486,0.174716,-0.407190,-0.160895,-0.657219,-0.745971,0.107656,-0.001025,97.905490,-8.223516,-9.260533
08777,NaN,0.593436,9.041395,0.566696,-0.957064,-1.676295,-0.941714,0.068529,-0.314711,-0.182085,-0.656759,-0.746331,0.107972,0.000757,97.973456,-8.087959,-9.426907
08778,NaN,0.588209,9.102912,0.719073,-0.979986,-1.842402,-0.903634,0.055530,-0.273261,-0.172435,-0.656355,-0.746650,0.108198,0.002353,98.032315,-7.962159,-9.570586
08779,NaN,0.572932,9.238731,0.824966,-1.019268,-1.969818,-0.788062,0.083682,-0.233151,-0.148573,-0.655881,-0.747036,0.108370,0.003712,98.101932,-7.851746,-9.692526
08780,NaN,0.603727,9.429030,0.770874,-1.000318,-1.956971,-0.591247,0.104910,-0.203813,-0.135761,-0.655328,-0.747494,0.108505,0.004901,98.183487,-7.752036,-9.799063
08781,NaN,0.644459,9.574949,0.589636,-0.945730,-1.817200,-0.418753,0.106116,-0.167851,-0.124409,-0.654804,-0.747939,0.108554,0.005925,98.260515,-7.660290,-9.885234
08782,NaN,0.651301,9.656340,0.548839,-0.934606,-1.800211,-0.333444,0.066635,-0.100450,-0.131170,-0.654449,-0.748270,0.108366,0.006734,98.311972,-7.571454,-9.932728
08783,NaN,0.582415,9.704521,0.519591,-0.991017,-1.772207,-0.290920,0.001387,0.013520,-0.150343,-0.654415,-0.748389,0.107720,0.007222,98.314626,-7.479835,-9.912793
08784,NaN,0.418825,9.737298,0.574442,-1.147282,-1.804145,-0.286453,-0.033780,0.057859,-0.174790,-0.654518,-0.748419,0.106847,0.007635,98.296215,-7.379356,-9.866084
08785,NaN,0.404024,9.701396,0.503849,-1.127286,-1.730466,-0.311694,0.003067,0.003393,-0.178125,-0.654472,-0.748556,0.106129,0.008251,98.300145,-7.271064,-9.849619
08786,NaN,0.485015,9.671757,0.139074,-0.971606,-1.391916,-0.277699,0.077331,-0.063774,-0.174049,-0.654093,-0.748943,0.105661,0.009058,98.354305,-7.160929,-9.872462
08787,NaN,0.509495,9.821443,-0.109987,-0.914466,-1.184459,-0.091927,0.120970,-0.084511,-0.194507,-0.653557,-0.749467,0.105174,0.009995,98.431687,-7.035951,-9.904629
08788,NaN,0.551854,10.079749,-0.374583,-0.849669,-0.981813,0.205308,0.115551,-0.063623,-0.239300,-0.653030,-0.750012,0.104463,0.010994,98.506928,-6.888794,-9.921551
08789,NaN,0.558270,10.366287,-0.545062,-0.831412,-0.867158,0.513269,0.070102,-0.029111,-0.292281,-0.652707,-0.750421,0.103424,0.012070,98.550104,-6.712979,-9.913413
08790,NaN,0.443661,10.653240,-0.715864,-0.924758,-0.729150,0.808700,0.030184,-0.009998,-0.335364,-0.652520,-0.750736,0.102172,0.013226,98.571829,-6.515943,-9.891251
08791,NaN,0.377950,11.018605,-0.957448,-0.963866,-0.540520,1.198574,0.057359,-0.019579,-0.363649,-0.652241,-0.751135,0.100833,0.014506,98.606360,-6.300445,-9.871357
08792,NaN,0.270365,11.697265,-1.237855,-1.076508,-0.357415,1.898187,0.172736,-0.058803,-0.362238,-0.651487,-0.751920,0.099648,0.015861,98.712636,-6.084014,-9.874347
08793,NaN,0.159355,12.618560,-1.659895,-1.198270,-0.083530,2.858760,0.278768,-0.106045,-0.360742,-0.650328,-0.753025,0.098617,0.017346,98.879192,-5.862562,-9.903186
08794,NaN,-0.006524,13.832615,-1.936004,-1.427516,0.001413,4.081598,0.312657,-0.096945,-0.370918,-0.649021,-0.754258,0.097535,0.018803,99.067591,-5.637797,-9.925898
08795,NaN,-0.291059,15.044601,-2.028137,-1.788421,-0.076846,5.264889,0.218168,-0.048405,-0.416582,-0.648106,-0.755191,0.096098,0.020283,99.195416,-5.389699,-9.915579
08796,NaN,-0.491458,15.873150,-1.907742,-2.036791,-0.311029,6.048970,0.046224,-0.039517,-0.463411,-0.647815,-0.755601,0.094453,0.021951,99.227109,-5.117797,-9.896199
08797,NaN,-0.577074,16.075684,-1.733497,-2.094841,-0.502524,6.222406,-0.131490,-0.093326,-0.455839,-0.648187,-0.755406,0.092975,0.023895,99.156527,-4.843196,-9.907540
08798,NaN,-0.611868,15.394062,-1.661846,-1.984876,-0.447432,5.548713,-0.340339,-0.222893,-0.459449,-0.649263,-0.754530,0.091893,0.026424,98.975541,-4.556933,-9.993331
08799,NaN,-0.526199,14.090426,-1.805427,-1.661414,-0.093950,4.304916,-0.463546,-0.231708,-0.431210,-0.650817,-0.753215,0.090912,0.028966,98.720862,-4.283960,-10.087066
08800,NaN,-0.588254,12.804028,-1.647131,-1.546511,-0.006645,3.017346,-0.551261,-0.169231,-0.438167,-0.652699,-0.751635,0.089705,0.031319,98.416306,-4.015089,-10.146621
08801,NaN,-0.699839,11.812113,-1.363858,-1.537024,-0.072846,1.998638,-0.608016,-0.192498,-0.483467,-0.654789,-0.749859,0.088375,0.033949,98.076315,-3.716555,-10.216570
08802,NaN,-0.898609,10.944862,-1.174423,-1.616292,-0.056655,1.112537,-0.573417,-0.279956,-0.508459,-0.656675,-0.748196,0.087261,0.036957,97.762199,-3.399743,-10.336530
08803,NaN,-1.126547,10.280094,-1.083757,-1.731556,0.025318,0.440336,-0.506042,-0.452370,-0.517924,-0.658241,-0.746697,0.086669,0.040627,97.488188,-3.062521,-10.554858
08804,NaN,-1.256868,9.814044,-1.071158,-1.758539,0.132343,-0.018195,-0.429712,-0.677611,-0.528503,-0.659388,-0.745409,0.086811,0.045123,97.266457,-2.706210,-10.902497
08805,NaN,-1.294137,9.640101,-1.142975,-1.700760,0.265213,-0.171666,-0.377312,-0.919715,-0.523643,-0.660238,-0.744200,0.087760,0.050498,97.075237,-2.333916,-11.388892
08806,NaN,-1.372316,9.645487,-1.195995,-1.696375,0.365459,-0.151566,-0.351521,-1.163430,-0.518219,-0.660841,-0.743001,0.089556,0.056732,96.904258,-1.951934,-12.015932
08807,NaN,-1.573719,9.857948,-1.190421,-1.830930,0.415170,0.063928,-0.347819,-1.397483,-0.507875,-0.661315,-0.741687,0.092140,0.063815,96.731825,-1.559009,-12.777395
08808,NaN,-1.943001,10.306315,-1.123491,-2.148896,0.426508,0.505121,-0.341903,-1.666546,-0.484340,-0.661585,-0.740263,0.095718,0.071792,96.564735,-1.166671,-13.695095
08809,NaN,-2.310657,10.858209,-1.223986,-2.422610,0.605434,1.073149,-0.314715,-2.003371,-0.417337,-0.661577,-0.738689,0.100636,0.080794,96.406889,-0.790394,-14.809435
08810,NaN,-2.468118,11.366522,-1.497435,-2.435467,0.919013,1.622105,-0.314527,-2.361048,-0.327033,-0.661319,-0.736850,0.107081,0.090788,96.247985,-0.448919,-16.134564
08811,NaN,-2.242937,11.742531,-1.920205,-2.015010,1.293014,2.056240,-0.360307,-2.672761,-0.243553,-0.661014,-0.734534,0.114803,0.101685,96.052582,-0.136972,-17.642955
08812,NaN,-1.819891,12.000813,-2.397987,-1.363310,1.663883,2.371446,-0.460578,-2.841766,-0.182788,-0.660861,-0.731640,0.123256,0.113018,95.795594,0.141392,-19.252867
08813,NaN,-1.445507,11.964478,-2.834024,-0.737859,2.026444,2.378173,-0.619332,-2.852649,-0.151089,-0.661181,-0.728024,0.131722,0.124382,95.436405,0.396629,-20.871866
08814,NaN,-0.952231,11.565111,-3.144616,-0.015226,2.250032,1.997561,-0.837785,-2.806431,-0.171808,-0.662151,-0.723589,0.139819,0.135742,94.948835,0.646318,-22.465671
08815,NaN,-0.269233,10.816781,-3.391544,0.876487,2.347561,1.246078,-0.990610,-2.685316,-0.199718,-0.663620,-0.718580,0.147257,0.146855,94.364067,0.894293,-23.991009
08816,NaN,0.434604,9.978361,-3.423586,1.691921,2.207484,0.372596,-1.098554,-2.442838,-0.247629,-0.665473,-0.713305,0.153635,0.157285,93.716951,1.140537,-25.378796
08817,NaN,0.898053,9.269920,-3.337034,2.217276,2.020246,-0.385370,-1.172363,-2.055503,-0.355460,-0.667711,-0.708039,0.158235,0.166745,93.022691,1.421848,-26.543983
08818,NaN,1.015903,8.785347,-2.907064,2.256679,1.650207,-0.933038,-1.193585,-1.599985,-0.484055,-0.670178,-0.703112,0.160843,0.174997,92.320764,1.747674,-27.448675
08819,NaN,0.591832,8.533708,-2.447990,1.784883,1.494863,-1.225181,-1.209590,-1.216132,-0.593611,-0.672867,-0.698475,0.161730,0.182281,91.608310,2.119949,-28.135189
08820,NaN,0.115614,8.295737,-2.083823,1.302096,1.456560,-1.484625,-1.173662,-0.976068,-0.653197,-0.675503,-0.694187,0.161643,0.188867,90.920478,2.512462,-28.688190
08821,NaN,-0.183898,8.111647,-1.754932,0.983835,1.365514,-1.683803,-1.099135,-0.826569,-0.671535,-0.677956,-0.690249,0.161028,0.194940,90.272367,2.910413,-29.159879
08822,NaN,-0.389070,7.935364,-1.572863,0.809304,1.354396,-1.868825,-1.024373,-0.708063,-0.675967,-0.680191,-0.686660,0.160079,0.200531,89.670293,3.303479,-29.568197
08823,NaN,-0.650259,7.888739,-1.517741,0.648423,1.474113,-1.915582,-0.930031,-0.626005,-0.682056,-0.682143,-0.683434,0.158899,0.205793,89.119251,3.698631,-29.933439
08824,NaN,-0.911763,7.976335,-1.499359,0.509568,1.618205,-1.823799,-0.808942,-0.589689,-0.672288,-0.683680,-0.680636,0.157765,0.210777,88.639122,4.083074,-30.281527
08825,NaN,-1.039325,8.154075,-1.478809,0.490737,1.688581,-1.647935,-0.745841,-0.565075,-0.657944,-0.685024,-0.678033,0.156639,0.215587,88.190999,4.459073,-30.618451
08826,NaN,-1.184505,8.337025,-1.485970,0.472698,1.792581,-1.465255,-0.765274,-0.547312,-0.641033,-0.686433,-0.675359,0.155502,0.220271,87.732849,4.820874,-30.948025
08827,NaN,-1.361522,8.238369,-1.389471,0.352673,1.831474,-1.555833,-0.819760,-0.565045,-0.635361,-0.688006,-0.672440,0.154360,0.225046,87.237782,5.178455,-31.290788
08828,NaN,-1.414367,8.067059,-1.356972,0.363300,1.864807,-1.731290,-0.839659,-0.622553,-0.626014,-0.689576,-0.669368,0.153439,0.229974,86.728340,5.523729,-31.669663
08829,NaN,-1.365634,7.816639,-1.322594,0.446773,1.842768,-1.994890,-0.803927,-0.712957,-0.600902,-0.690969,-0.666261,0.152931,0.235097,86.229474,5.850376,-32.102845
08830,NaN,-1.131281,7.690263,-1.337031,0.719718,1.758474,-2.157835,-0.727639,-0.797459,-0.583538,-0.692029,-0.663289,0.152874,0.240359,85.768918,6.157853,-32.586869
08831,NaN,-0.963835,7.623768,-1.431102,0.980385,1.768732,-2.262272,-0.646849,-0.830084,-0.571530,-0.692793,-0.660515,0.153044,0.245632,85.347700,6.455560,-33.091757
08832,NaN,-0.796323,7.646111,-1.471592,1.219624,1.726444,-2.276498,-0.592808,-0.769892,-0.574757,-0.693389,-0.657992,0.153073,0.250653,84.960649,6.752226,-33.564583
08833,NaN,-0.743675,7.706339,-1.413269,1.313974,1.660294,-2.232815,-0.591760,-0.669556,-0.599758,-0.694013,-0.655589,0.152652,0.255436,84.576284,7.067437,-33.983382
08834,NaN,-0.791358,7.734705,-1.341055,1.311879,1.636352,-2.206688,-0.568034,-0.592233,-0.604307,-0.694586,-0.653360,0.151991,0.259942,84.210394,7.384634,-34.360312
08835,NaN,-0.799914,7.747256,-1.215896,1.307646,1.544763,-2.194183,-0.513319,-0.543492,-0.592984,-0.695020,-0.651353,0.151248,0.264216,83.875580,7.698137,-34.710802
08836,NaN,-0.816881,7.811715,-1.202893,1.361892,1.548146,-2.139011,-0.431782,-0.495666,-0.557180,-0.695253,-0.649659,0.150578,0.268128,83.591136,7.990204,-35.033441
08837,NaN,-0.920297,7.948043,-1.114662,1.312333,1.536747,-1.991132,-0.367137,-0.457251,-0.521552,-0.695345,-0.648198,0.149957,0.271751,83.343904,8.265106,-35.333281
08838,NaN,-0.969036,8.139626,-1.028879,1.315212,1.496071,-1.795027,-0.336623,-0.431788,-0.486364,-0.695390,-0.646847,0.149417,0.275130,83.116557,8.518379,-35.617367
08839,NaN,-1.064654,8.271206,-0.967658,1.280908,1.502755,-1.652816,-0.321351,-0.410877,-0.433994,-0.695468,-0.645526,0.148978,0.278256,82.897708,8.744280,-35.886951
08840,NaN,-1.160985,8.323424,-0.923999,1.236767,1.525611,-1.589319,-0.303816,-0.408241,-0.369391,-0.695571,-0.644219,0.148776,0.281121,82.690010,8.930606,-36.151263
08841,NaN,-1.172565,8.366827,-0.897567,1.263142,1.515158,-1.548731,-0.267728,-0.419483,-0.288827,-0.695657,-0.642953,0.148907,0.283724,82.501007,9.071432,-36.416830
08842,NaN,-1.091661,8.426811,-0.867925,1.357051,1.448746,-1.505123,-0.208821,-0.451181,-0.212564,-0.695632,-0.641788,0.149491,0.286106,82.344223,9.163747,-36.695264
08843,NaN,-0.896210,8.494178,-0.834428,1.533102,1.310609,-1.471082,-0.150092,-0.444716,-0.141734,-0.695520,-0.640777,0.150349,0.288186,82.221334,9.217643,-36.964772
08844,NaN,-0.808387,8.476567,-0.833913,1.617469,1.260380,-1.506287,-0.110331,-0.386154,-0.089089,-0.695397,-0.639949,0.151242,0.289853,82.127924,9.243752,-37.196543
08845,NaN,-0.720034,8.463349,-0.789936,1.671565,1.173671,-1.530231,-0.061903,-0.318711,-0.045745,-0.695229,-0.639350,0.152096,0.291126,82.068354,9.252168,-37.386136
08846,NaN,-0.634482,8.508383,-0.709267,1.706696,1.057165,-1.489959,0.027208,-0.262346,-0.007409,-0.694875,-0.639114,0.153019,0.292007,82.066164,9.241287,-37.540240
08847,NaN,-0.558909,8.689267,-0.700522,1.795233,1.000946,-1.322593,0.145976,-0.189853,0.056045,-0.694286,-0.639346,0.154054,0.292354,82.139176,9.202004,-37.647598
08848,NaN,-0.533515,8.918309,-0.735613,1.869733,1.005273,-1.103182,0.244520,-0.104972,0.098815,-0.693510,-0.640011,0.155087,0.292195,82.277452,9.143422,-37.702845
08849,NaN,-0.565688,9.254095,-0.770142,1.912002,1.039954,-0.767575,0.320622,0.002209,0.135638,-0.692623,-0.641067,0.155966,0.291515,82.469389,9.073937,-37.693755
08850,NaN,-0.672443,9.600465,-0.770797,1.868617,1.089727,-0.403337,0.361989,0.112027,0.185838,-0.691763,-0.642383,0.156697,0.290266,82.695663,8.982320,-37.618011
08851,NaN,-0.709672,9.923505,-0.721808,1.836886,1.055972,-0.065319,0.391727,0.210882,0.225919,-0.690935,-0.643914,0.157246,0.288544,82.948113,8.876280,-37.482851
08852,NaN,-0.718408,10.272607,-0.557000,1.755512,0.911110,0.308608,0.422998,0.311102,0.270502,-0.690148,-0.645654,0.157647,0.286311,83.227389,8.749577,-37.287479
08853,NaN,-0.825708,10.612384,-0.456213,1.623059,0.873989,0.680839,0.458990,0.395409,0.319551,-0.689370,-0.647598,0.157956,0.283612,83.534803,8.601030,-37.040975
08854,NaN,-0.962824,10.895865,-0.285206,1.405830,0.796183,1.009400,0.474550,0.428538,0.363031,-0.688625,-0.649596,0.158321,0.280633,83.853268,8.426988,-36.773612
08855,NaN,-1.022933,11.059833,-0.245887,1.297582,0.778562,1.193513,0.467919,0.442528,0.410255,-0.687964,-0.651549,0.158771,0.277454,84.168956,8.226808,-36.496387
08856,NaN,-0.948361,11.206384,-0.045655,1.194361,0.553666,1.356511,0.469858,0.431045,0.454468,-0.687344,-0.653444,0.159414,0.274148,84.483506,7.997868,-36.224579
08857,NaN,-0.801947,11.392634,0.003848,1.235692,0.408191,1.533725,0.525817,0.417802,0.505501,-0.686583,-0.655466,0.160336,0.270667,84.828721,7.738877,-35.959081
08858,NaN,-0.611240,11.689156,-0.040110,1.373373,0.310027,1.807491,0.596723,0.394614,0.553443,-0.685629,-0.657644,0.161594,0.267029,85.210988,7.448390,-35.706440
08859,NaN,-0.298199,12.049260,-0.265231,1.710727,0.284525,2.117753,0.666952,0.358147,0.588306,-0.684439,-0.659979,0.163176,0.263334,85.630181,7.135783,-35.475354
08860,NaN,0.149459,12.488783,-0.672934,2.260470,0.327552,2.484739,0.712446,0.378594,0.606461,-0.683130,-0.662458,0.164810,0.259461,86.074628,6.810727,-35.234351
08861,NaN,0.682547,13.033495,-1.194950,2.948999,0.415123,2.950368,0.705353,0.518494,0.604172,-0.681932,-0.665086,0.165941,0.255135,86.523580,6.491322,-34.915564
08862,NaN,0.915576,13.600584,-1.582160,3.312126,0.570251,3.492227,0.654662,0.767898,0.581303,-0.681065,-0.667850,0.166080,0.250088,86.956333,6.189674,-34.456728
08863,NaN,0.975368,14.174290,-1.712644,3.385586,0.621280,4.077800,0.565761,1.038848,0.544278,-0.680640,-0.670664,0.165053,0.244329,87.353093,5.914366,-33.845437
08864,NaN,0.877512,14.309519,-1.576473,3.134168,0.557235,4.254406,0.459801,1.274097,0.511175,-0.680700,-0.673392,0.162979,0.237967,87.698510,5.659152,-33.101772
08865,NaN,0.625973,13.897401,-1.375153,2.670480,0.539745,3.898512,0.372607,1.510240,0.504136,-0.681188,-0.676079,0.159965,0.230891,88.005058,5.409264,-32.224177
08866,NaN,0.292618,13.213242,-1.002311,2.031231,0.425142,3.278252,0.322432,1.750273,0.499694,-0.681990,-0.678816,0.156048,0.223042,88.290181,5.161427,-31.210331
08867,NaN,-0.188087,12.559854,-0.533844,1.233649,0.291203,2.695831,0.280472,1.972346,0.502699,-0.683037,-0.681600,0.151324,0.214438,88.559568,4.910656,-30.070343
08868,NaN,-0.756311,11.812994,-0.045123,0.356282,0.162939,2.018073,0.240972,2.126124,0.512235,-0.684277,-0.684320,0.146047,0.205285,88.806885,4.651155,-28.843444
08869,NaN,-1.121687,11.087517,0.449733,-0.329548,-0.095205,1.335202,0.198725,2.143915,0.527135,-0.685597,-0.686830,0.140701,0.196024,89.026699,4.378366,-27.607685
08870,NaN,-1.187052,10.259018,0.832410,-0.686525,-0.408352,0.517419,0.188724,2.039060,0.548137,-0.686828,-0.689097,0.135758,0.187038,89.228497,4.088062,-26.433466
08871,NaN,-0.983367,9.425591,1.062018,-0.716748,-0.710456,-0.330180,0.226148,1.861761,0.580934,-0.687759,-0.691243,0.131560,0.178502,89.440112,3.773575,-25.362351
08872,NaN,-0.874871,8.796876,1.050295,-0.701974,-0.756743,-0.970296,0.291280,1.661226,0.577965,-0.688280,-0.693366,0.128086,0.170613,89.674161,3.455740,-24.407991
08873,NaN,-0.697085,8.545565,0.952688,-0.561864,-0.761384,-1.238040,0.376220,1.447841,0.548620,-0.688287,-0.695577,0.125310,0.163497,89.946038,3.150109,-23.577898
08874,NaN,-0.471263,8.749004,0.870573,-0.360735,-0.808904,-1.052532,0.466417,1.214738,0.515825,-0.687778,-0.697881,0.123286,0.157241,90.256673,2.859302,-22.883299
08875,NaN,-0.102243,9.291352,0.726522,0.007725,-0.861947,-0.532375,0.476943,1.041834,0.488426,-0.687065,-0.700080,0.121767,0.151667,90.566498,2.581128,-22.289553
08876,NaN,0.173268,9.747849,0.629555,0.267126,-0.912359,-0.089367,0.363836,0.939112,0.442088,-0.686636,-0.701808,0.120346,0.146676,90.804801,2.327399,-21.755825
08877,NaN,0.185915,9.958576,0.465209,0.306178,-0.783160,0.122957,0.188792,0.877279,0.346846,-0.686688,-0.702936,0.118674,0.142330,90.940607,2.126929,-21.257676
08878,NaN,0.224439,10.123305,0.443803,0.327115,-0.784264,0.287141,0.064325,0.811441,0.242758,-0.687057,-0.703630,0.116769,0.138645,91.000991,1.985982,-20.796613
08879,NaN,0.221059,10.310833,0.466401,0.303430,-0.806418,0.475037,0.004342,0.703059,0.185159,-0.687517,-0.704072,0.114993,0.135570,91.025139,1.878600,-20.397279
08880,NaN,0.302324,10.381712,0.368607,0.402932,-0.738396,0.545865,-0.033981,0.582056,0.159643,-0.688025,-0.704300,0.113513,0.133031,91.023216,1.787186,-20.067032
08881,NaN,0.372020,10.544324,0.167590,0.531202,-0.567770,0.710843,-0.077606,0.515197,0.135891,-0.688620,-0.704349,0.112153,0.130830,90.995781,1.709869,-19.774908
08882,NaN,0.570634,10.624455,-0.009774,0.773948,-0.454099,0.789176,-0.150296,0.499321,0.101435,-0.689442,-0.704144,0.110675,0.128847,90.924969,1.652964,-19.491444
08883,NaN,0.975854,10.512021,-0.315399,1.255280,-0.273842,0.670802,-0.241049,0.527480,0.059903,-0.690561,-0.703669,0.108898,0.126954,90.803500,1.619716,-19.191452
08884,NaN,1.233117,10.089882,-0.584668,1.583495,-0.058564,0.245001,-0.352447,0.701727,0.023012,-0.692141,-0.702925,0.106313,0.124637,90.619817,1.607531,-18.791188
08885,NaN,1.217123,9.527076,-0.804333,1.638250,0.213640,-0.317229,-0.477326,1.015032,-0.048229,-0.694260,-0.701973,0.102319,0.121525,90.370842,1.635580,-18.211016
08886,NaN,0.928798,9.022732,-0.818656,1.374111,0.380091,-0.817711,-0.532872,1.333193,-0.134619,-0.696662,-0.701030,0.096874,0.117624,90.094809,1.715584,-17.448331
08887,NaN,0.580911,8.748485,-0.539993,0.972304,0.274268,-1.086625,-0.530987,1.588152,-0.167820,-0.699112,-0.700223,0.090426,0.112931,89.826733,1.817612,-16.539933
08888,NaN,0.259276,8.420673,-0.276298,0.600883,0.160496,-1.406481,-0.497055,1.703170,-0.157772,-0.701456,-0.699536,0.083618,0.107782,89.580675,1.919016,-15.565917
08889,NaN,0.063114,8.069211,-0.104622,0.373484,0.081556,-1.751616,-0.364663,1.725243,-0.142826,-0.703292,-0.699271,0.076856,0.102434,89.413761,2.014641,-14.579562
08890,NaN,-0.148644,7.874697,-0.024676,0.156509,0.075239,-1.938465,-0.209011,1.731219,-0.115018,-0.704553,-0.699486,0.070237,0.096906,89.336501,2.097307,-13.589687
08891,NaN,-0.404876,7.817840,0.094436,-0.111858,0.023812,-1.984637,-0.113563,1.751272,-0.088252,-0.705440,-0.699990,0.063689,0.091166,89.316825,2.164712,-12.588230
08892,NaN,-0.693991,7.826028,0.307903,-0.430648,-0.127937,-1.962764,-0.048874,1.757376,-0.066904,-0.706065,-0.700658,0.057212,0.085307,89.334267,2.220844,-11.583017
08893,NaN,-1.118143,7.839894,0.403481,-0.856779,-0.153963,-1.931116,0.025460,1.677053,-0.040649,-0.706359,-0.701501,0.051145,0.079604,89.394460,2.259841,-10.623690
08894,NaN,-1.525890,7.883541,0.627721,-1.291502,-0.327025,-1.869289,0.099399,1.474554,0.004241,-0.706322,-0.702464,0.045970,0.074434,89.491748,2.271575,-9.780082
08895,NaN,-1.909406,8.012517,0.746150,-1.683416,-0.413152,-1.725766,0.164101,1.187492,0.075840,-0.705981,-0.703505,0.042088,0.069997,89.620522,2.238538,-9.100799
08896,NaN,-2.127378,8.173192,0.771915,-1.903690,-0.440090,-1.560123,0.226916,0.808018,0.168095,-0.705358,-0.704591,0.039885,0.066558,89.775208,2.150628,-8.638865
08897,NaN,-2.097223,8.218952,0.797840,-1.893874,-0.502734,-1.521340,0.282211,0.396684,0.268871,-0.704477,-0.705712,0.039510,0.064198,89.953011,2.002454,-8.412969
08898,NaN,-1.953513,8.318940,0.613933,-1.749188,-0.369064,-1.434031,0.327057,0.030340,0.353435,-0.703394,-0.706846,0.040734,0.062827,90.147896,1.805906,-8.397584
08899,NaN,-1.575433,8.344941,0.357095,-1.372657,-0.192781,-1.426625,0.346762,-0.255972,0.418079,-0.702192,-0.707945,0.043202,0.062233,90.350001,1.572556,-8.547202
08900,NaN,-1.105501,8.366293,0.126880,-0.913023,-0.054418,-1.422435,0.337606,-0.460650,0.451903,-0.700987,-0.708929,0.046502,0.062249,90.543656,1.321684,-8.815019
08901,NaN,-0.771216,8.321013,-0.081654,-0.591998,0.084158,-1.477041,0.293011,-0.519618,0.455472,-0.699912,-0.709732,0.050009,0.062469,90.713026,1.069698,-9.117459
08902,NaN,-0.670615,8.374047,-0.133825,-0.521809,0.105122,-1.427651,0.238585,-0.432457,0.429477,-0.699040,-0.710365,0.053099,0.062485,90.852510,0.833027,-9.370364
08903,NaN,-0.719881,8.553115,0.072154,-0.638559,-0.104712,-1.253460,0.209821,-0.325232,0.405154,-0.698280,-0.710936,0.055720,0.062212,90.978110,0.609679,-9.562191
08904,NaN,-0.711878,8.671299,0.241343,-0.694464,-0.286182,-1.141348,0.215934,-0.302040,0.398083,-0.697502,-0.711527,0.058234,0.061879,91.107253,0.390783,-9.741101
08905,NaN,-0.624624,8.650375,0.406671,-0.673789,-0.476558,-1.169581,0.251597,-0.322187,0.394644,-0.696580,-0.712236,0.060819,0.061619,91.258222,0.174394,-9.932086
08906,NaN,-0.513995,8.533042,0.492775,-0.616874,-0.595177,-1.293010,0.315696,-0.303160,0.378501,-0.695430,-0.713169,0.063298,0.061328,91.445863,-0.032301,-10.112545
08907,NaN,-0.488060,8.477635,0.507023,-0.629618,-0.636145,-1.353119,0.391218,-0.237033,0.346538,-0.694011,-0.714393,0.065456,0.060887,91.678009,-0.221131,-10.255430
08908,NaN,-0.548967,8.525040,0.669097,-0.752726,-0.816695,-1.316124,0.463053,-0.157883,0.304961,-0.692348,-0.715893,0.067211,0.060285,91.950820,-0.386884,-10.353022
08909,NaN,-0.662384,8.611648,0.786416,-0.917607,-0.950712,-1.241128,0.495769,-0.088668,0.259648,-0.690567,-0.717541,0.068575,0.059580,92.242916,-0.527666,-10.410887
08910,NaN,-0.761947,8.629014,0.903442,-1.065281,-1.087926,-1.237255,0.520402,-0.062539,0.229606,-0.688696,-0.719282,0.069747,0.058876,92.548509,-0.651567,-10.453772
08911,NaN,-0.852195,8.641744,0.997440,-1.197661,-1.206998,-1.238925,0.554016,-0.058955,0.202325,-0.686689,-0.721146,0.070817,0.058241,92.873879,-0.759628,-10.494573
08912,NaN,-0.893114,8.705487,1.159653,-1.293892,-1.407912,-1.194605,0.594564,-0.056892,0.184178,-0.684527,-0.723147,0.071826,0.057646,93.222083,-0.857213,-10.534253
08913,NaN,-0.883601,8.798129,1.279370,-1.333546,-1.582093,-1.121142,0.636975,-0.081195,0.172434,-0.682190,-0.725284,0.072887,0.057165,93.595155,-0.946804,-10.588056
08914,NaN,-0.758035,8.940712,1.208583,-1.226718,-1.598774,-0.986002,0.694164,-0.140979,0.160736,-0.679614,-0.727592,0.074125,0.056917,94.001384,-1.027268,-10.676201
08915,NaN,-0.616887,8.952269,1.128950,-1.099420,-1.606430,-0.980445,0.723400,-0.185135,0.143188,-0.676901,-0.729984,0.075455,0.056880,94.425017,-1.094899,-10.789414
08916,NaN,-0.446096,8.972334,0.975173,-0.927189,-1.548737,-0.958641,0.694626,-0.164131,0.103932,-0.674280,-0.732288,0.076563,0.056907,94.831941,-1.140567,-10.889318
08917,NaN,-0.276885,8.984296,0.945937,-0.774372,-1.610482,-0.952921,0.644075,-0.083522,0.055973,-0.671854,-0.734454,0.077206,0.056822,95.208868,-1.161835,-10.941079
08918,NaN,-0.272416,9.017072,0.999009,-0.794088,-1.720434,-0.936364,0.593318,0.005106,0.014482,-0.669629,-0.736484,0.077386,0.056567,95.555780,-1.164255,-10.940211
08919,NaN,-0.339572,9.097134,1.087536,-0.887431,-1.853931,-0.877864,0.568540,0.065613,-0.029399,-0.667502,-0.738457,0.077192,0.056248,95.887423,-1.144686,-10.902300
08920,NaN,-0.395916,9.257690,1.182406,-0.971077,-2.004665,-0.740877,0.577455,0.072268,-0.052463,-0.665331,-0.740465,0.076894,0.055975,96.224414,-1.113033,-10.859139
08921,NaN,-0.356638,9.440578,1.261516,-0.957235,-2.164498,-0.580056,0.615109,0.039888,-0.072695,-0.663000,-0.742587,0.076636,0.055878,96.582771,-1.067560,-10.832866
08922,NaN,-0.393948,9.677745,1.209895,-0.996259,-2.194889,-0.353969,0.667869,0.006754,-0.087767,-0.660445,-0.744876,0.076449,0.055929,96.972258,-1.011938,-10.824204
08923,NaN,-0.412644,9.929800,1.097038,-1.005429,-2.178122,-0.106031,0.699934,-0.003219,-0.112501,-0.657756,-0.747264,0.076207,0.056090,97.379367,-0.941048,-10.818968
08924,NaN,-0.458459,10.166351,0.912085,-1.024862,-2.089229,0.136238,0.685573,0.000347,-0.146687,-0.655100,-0.749613,0.075825,0.056351,97.778994,-0.851604,-10.808716
08925,NaN,-0.513122,10.343313,0.688097,-1.039500,-1.954114,0.327400,0.644553,0.016798,-0.176544,-0.652594,-0.751829,0.075260,0.056667,98.153891,-0.745977,-10.786047
08926,NaN,-0.575901,10.519644,0.431680,-1.052839,-1.785484,0.525790,0.607430,0.042072,-0.197096,-0.650217,-0.753935,0.074528,0.056965,98.508435,-0.631562,-10.746781
08927,NaN,-0.669432,10.772017,0.184532,-1.098342,-1.631806,0.800936,0.596931,0.044226,-0.213405,-0.647877,-0.756000,0.073718,0.057315,98.855715,-0.507644,-10.704067
08928,NaN,-0.717763,11.134512,-0.116662,-1.091430,-1.453450,1.196492,0.578820,0.004547,-0.230920,-0.645571,-0.758000,0.072971,0.057874,99.194166,-0.371200,-10.681614
08929,NaN,-0.621075,11.503349,-0.579061,-0.909835,-1.148661,1.628487,0.547009,-0.040832,-0.239464,-0.643370,-0.759872,0.072321,0.058649,99.513089,-0.225051,-10.683113
08930,NaN,-0.543189,11.932740,-1.138943,-0.727305,-0.755498,2.140656,0.475006,-0.059726,-0.254110,-0.641416,-0.761513,0.071661,0.059562,99.792257,-0.069588,-10.693243
08931,NaN,-0.334982,12.531086,-1.723533,-0.412058,-0.387746,2.828138,0.394321,0.002313,-0.274646,-0.639791,-0.762908,0.070693,0.060340,100.023579,0.092240,-10.665514
08932,NaN,-0.265102,13.228537,-2.119940,-0.263775,-0.187147,3.583349,0.262745,0.140596,-0.308923,-0.638693,-0.763940,0.069118,0.060740,100.181440,0.258564,-10.555918
08933,NaN,-0.391715,14.013203,-2.226621,-0.355245,-0.231709,4.375374,0.100572,0.280274,-0.339664,-0.638260,-0.764495,0.066924,0.060767,100.245577,0.428698,-10.363993
08934,NaN,-0.735909,14.670690,-1.925320,-0.723136,-0.594385,4.972481,-0.019706,0.339149,-0.329342,-0.638296,-0.764685,0.064551,0.060569,100.243254,0.586031,-10.139947
08935,NaN,-1.168764,15.296085,-1.618822,-1.172705,-0.929403,5.540411,-0.097086,0.329728,-0.306512,-0.638639,-0.764604,0.062264,0.060366,100.195440,0.732483,-9.923484
08936,NaN,-1.496944,15.786690,-1.391755,-1.499820,-1.174155,5.991398,-0.148118,0.249261,-0.275131,-0.639148,-0.764332,0.060345,0.060379,100.119900,0.868663,-9.755841
08937,NaN,-1.575966,15.576868,-1.418125,-1.527202,-1.079463,5.796149,-0.244081,0.116699,-0.228808,-0.640007,-0.763686,0.058991,0.060787,99.986677,0.993343,-9.667754
08938,NaN,-1.475482,14.669751,-1.489237,-1.362542,-0.828437,4.920038,-0.442950,0.060078,-0.226859,-0.641594,-0.762393,0.057771,0.061456,99.740892,1.121701,-9.612349
08939,NaN,-1.305533,13.376601,-1.479225,-1.138716,-0.582012,3.647993,-0.616925,0.043525,-0.250036,-0.643839,-0.760526,0.056455,0.062321,99.393487,1.266225,-9.564634
08940,NaN,-1.220957,12.083915,-1.492349,-0.998457,-0.297621,2.379634,-0.671865,0.010850,-0.276738,-0.646256,-0.758481,0.055132,0.063402,99.016241,1.427934,-9.533981
08941,NaN,-1.094457,11.000378,-1.459964,-0.828928,-0.109080,1.306578,-0.663685,-0.037243,-0.321407,-0.648619,-0.756439,0.053788,0.064816,98.641165,1.620675,-9.527581
08942,NaN,-0.981156,10.214975,-1.423501,-0.675458,0.016805,0.525481,-0.620116,-0.100102,-0.379724,-0.650759,-0.754534,0.052450,0.066635,98.292071,1.850489,-9.553224
08943,NaN,-0.914402,9.833232,-1.352251,-0.571861,0.042196,0.138592,-0.521544,-0.175220,-0.426844,-0.652497,-0.752916,0.051201,0.068873,97.995986,2.114364,-9.618865
08944,NaN,-0.940277,9.794086,-1.274529,-0.556303,0.014758,0.092998,-0.420484,-0.300984,-0.455422,-0.653792,-0.751594,0.050299,0.071642,97.756683,2.402637,-9.755036
08945,NaN,-0.930018,9.870151,-1.375032,-0.468141,0.131673,0.184245,-0.358419,-0.494446,-0.486148,-0.654797,-0.750393,0.049925,0.075232,97.545379,2.724010,-9.999908
08946,NaN,-0.743921,10.034686,-1.549904,-0.184815,0.274064,0.362814,-0.329077,-0.705578,-0.507847,-0.655607,-0.749210,0.050182,0.079666,97.345380,3.071075,-10.364572
08947,NaN,-0.627246,10.323513,-1.776499,0.053373,0.461182,0.671025,-0.351733,-0.881265,-0.523240,-0.656446,-0.747856,0.050936,0.084823,97.122466,3.439657,-10.829485
08948,NaN,-0.594015,10.573585,-2.025006,0.224455,0.693610,0.944730,-0.417549,-1.004894,-0.535684,-0.657461,-0.746224,0.052030,0.090486,96.856252,3.820514,-11.365789
08949,NaN,-0.675006,10.719251,-2.254039,0.288509,0.952998,1.116462,-0.537248,-1.068549,-0.544802,-0.658887,-0.744130,0.053233,0.096455,96.513293,4.209344,-11.940023
08950,NaN,-0.856677,10.841665,-2.275671,0.218504,1.050019,1.246375,-0.672806,-1.088701,-0.534162,-0.660776,-0.741555,0.054484,0.102485,96.089583,4.588150,-12.529344
08951,NaN,-1.079225,10.877988,-2.245454,0.095219,1.133259,1.288791,-0.765389,-1.094567,-0.479274,-0.663013,-0.738608,0.055898,0.108385,95.606490,4.932691,-13.128511
08952,NaN,-1.263717,10.897524,-2.123362,-0.017419,1.133312,1.303774,-0.806817,-1.107264,-0.414133,-0.665390,-0.735472,0.057579,0.114112,95.096862,5.234225,-13.741709
08953,NaN,-1.411704,10.674414,-2.277548,-0.049185,1.425428,1.100046,-0.822519,-1.161711,-0.332011,-0.667831,-0.732181,0.059723,0.119775,94.570013,5.487283,-14.393101
08954,NaN,-1.468815,10.183361,-2.447067,-0.012287,1.739545,0.618946,-0.880452,-1.192594,-0.279399,-0.670460,-0.728632,0.062133,0.125376,94.006806,5.704106,-15.067115
08955,NaN,-1.351946,9.520251,-2.540123,0.154752,1.950454,-0.061498,-0.979736,-1.117067,-0.259292,-0.673457,-0.724741,0.064288,0.130668,93.386808,5.901024,-15.700936
08956,NaN,-1.255093,8.876042,-2.490509,0.257326,2.021026,-0.734688,-1.055795,-0.976004,-0.267084,-0.676725,-0.720657,0.065896,0.135482,92.730913,6.089734,-16.255728
08957,NaN,-1.113153,8.266715,-2.333393,0.366509,1.962708,-1.384471,-1.082345,-0.837456,-0.302596,-0.680082,-0.716544,0.066876,0.139929,92.065034,6.290397,-16.732247
08958,NaN,-0.986527,7.665580,-2.095879,0.428001,1.816043,-2.025194,-1.052601,-0.710010,-0.351130,-0.683303,-0.712613,0.067277,0.144058,91.423809,6.509892,-17.136912
08959,NaN,-0.904747,7.198523,-1.931079,0.472605,1.727227,-2.521661,-0.976722,-0.613311,-0.417518,-0.686217,-0.708998,0.067153,0.148048,90.829507,6.763295,-17.487612
08960,NaN,-0.882538,6.840681,-1.672365,0.436646,1.545199,-2.899526,-0.861253,-0.535002,-0.477594,-0.688674,-0.705840,0.066640,0.151913,90.306023,7.045947,-17.795424
08961,NaN,-0.846350,6.667728,-1.543065,0.468908,1.460710,-3.089443,-0.735901,-0.491443,-0.531255,-0.690647,-0.703138,0.065872,0.155771,89.854660,7.358002,-18.080653
08962,NaN,-0.924479,6.607988,-1.496665,0.430214,1.474589,-3.149329,-0.593899,-0.496455,-0.577744,-0.692061,-0.700926,0.065076,0.159749,89.483286,7.693335,-18.371380
08963,NaN,-0.987885,6.704959,-1.562256,0.460605,1.575329,-3.054069,-0.445537,-0.521052,-0.596946,-0.692920,-0.699194,0.064405,0.163835,89.192162,8.039121,-18.678650
08964,NaN,-1.106130,6.990104,-1.635321,0.469471,1.687114,-2.763411,-0.343147,-0.531660,-0.609063,-0.693391,-0.697802,0.063821,0.167956,88.957476,8.389065,-18.994029
08965,NaN,-1.224321,7.350335,-1.640057,0.471864,1.729258,-2.396296,-0.326859,-0.506578,-0.614022,-0.693797,-0.696472,0.063136,0.172006,88.731514,8.742161,-19.296635
08966,NaN,-1.428702,7.585378,-1.601372,0.365135,1.764640,-2.138319,-0.368818,-0.460831,-0.601731,-0.694360,-0.695023,0.062307,0.175857,88.484153,9.086335,-19.574302
08967,NaN,-1.651630,7.714830,-1.440911,0.186641,1.700544,-1.977149,-0.432222,-0.433700,-0.569252,-0.695168,-0.693353,0.061430,0.179525,88.200777,9.412369,-19.837533
08968,NaN,-1.795277,7.643349,-1.269150,0.043123,1.609962,-2.024209,-0.433302,-0.443266,-0.516446,-0.696012,-0.691645,0.060777,0.183032,87.914719,9.705398,-20.107168
08969,NaN,-1.979978,7.618553,-1.070423,-0.145417,1.508867,-2.014586,-0.396085,-0.487737,-0.436995,-0.696775,-0.689990,0.060578,0.186409,87.644117,9.951983,-20.402472
08970,NaN,-2.129927,7.691254,-0.955873,-0.263609,1.473493,-1.915548,-0.312266,-0.552236,-0.341793,-0.697309,-0.688529,0.061018,0.189642,87.414318,10.139879,-20.734204
08971,NaN,-2.342687,7.904488,-0.862136,-0.413733,1.477169,-1.666582,-0.239197,-0.653975,-0.248203,-0.697639,-0.687189,0.062194,0.192882,87.215195,10.271653,-21.123369
08972,NaN,-2.361548,8.059982,-0.793874,-0.392998,1.440553,-1.509634,-0.203302,-0.796423,-0.154822,-0.697881,-0.685797,0.064230,0.196264,87.021612,10.343177,-21.593284
08973,NaN,-2.288512,8.100156,-0.783890,-0.294802,1.429862,-1.486057,-0.160508,-0.949078,-0.054780,-0.698009,-0.684359,0.067174,0.199810,86.836804,10.352740,-22.149085
08974,NaN,-2.078469,8.140381,-0.886257,-0.037395,1.472224,-1.493892,-0.105864,-1.074082,0.034111,-0.697981,-0.682938,0.070920,0.203442,86.670962,10.304236,-22.774701
08975,NaN,-1.883619,8.138884,-1.075277,0.226144,1.594583,-1.545174,-0.030488,-1.123718,0.091081,-0.697712,-0.681690,0.075098,0.207020,86.544405,10.221453,-23.426858
08976,NaN,-1.710500,8.278978,-1.194004,0.466024,1.650006,-1.448884,0.021209,-1.096795,0.121643,-0.697289,-0.680616,0.079348,0.210366,86.451385,10.119345,-24.062020
08977,NaN,-1.527339,8.440681,-1.319906,0.719180,1.700225,-1.332592,0.041396,-1.014432,0.130778,-0.696816,-0.679678,0.083351,0.213393,86.379822,10.015657,-24.648554
08978,NaN,-1.434620,8.532963,-1.292027,0.812689,1.642983,-1.258211,0.054099,-0.882961,0.146505,-0.696360,-0.678900,0.086971,0.215901,86.329686,9.905562,-25.157982
08979,NaN,-1.296616,8.603580,-1.176896,0.901876,1.484512,-1.206252,0.069121,-0.759757,0.142699,-0.695884,-0.678301,0.090153,0.218001,86.301805,9.803425,-25.595685
08980,NaN,-1.260091,8.615137,-1.090897,0.897111,1.392606,-1.195593,0.110560,-0.631034,0.142885,-0.695323,-0.677974,0.092943,0.219635,86.310638,9.704274,-25.958678
08981,NaN,-1.197641,8.642504,-1.057649,0.936193,1.331932,-1.175828,0.163542,-0.486805,0.138585,-0.694631,-0.677990,0.095264,0.220775,86.365070,9.614619,-26.237988
08982,NaN,-1.125846,8.719254,-0.984473,0.970640,1.224924,-1.105248,0.215070,-0.335318,0.129539,-0.693829,-0.678347,0.097094,0.221400,86.463347,9.534371,-26.429972
08983,NaN,-1.015115,8.804580,-0.933885,1.047425,1.115426,-1.033057,0.251052,-0.183706,0.110108,-0.692948,-0.679011,0.098363,0.221567,86.597655,9.472400,-26.534693
08984,NaN,-0.954707,8.913375,-0.956163,1.113265,1.088888,-0.932998,0.274781,-0.050726,0.096144,-0.692041,-0.679902,0.099159,0.221312,86.757418,9.421576,-26.563077
08985,NaN,-1.011910,8.969831,-0.957241,1.054889,1.092117,-0.863244,0.312373,0.085194,0.086683,-0.691054,-0.681085,0.099485,0.220615,86.952501,9.381982,-26.512932
08986,NaN,-0.979161,9.173223,-0.855772,1.054328,0.956469,-0.657766,0.323869,0.190746,0.062303,-0.690059,-0.682426,0.099384,0.219629,87.163007,9.357810,-26.402621
08987,NaN,-0.858894,9.416505,-0.712617,1.119227,0.740807,-0.425753,0.323795,0.283688,0.053933,-0.689089,-0.683878,0.098926,0.218360,87.383253,9.341941,-26.238550
08988,NaN,-0.831075,9.595720,-0.639171,1.120900,0.628301,-0.245777,0.334237,0.358134,0.058057,-0.688130,-0.685433,0.098244,0.216811,87.615325,9.323546,-26.031450
08989,NaN,-0.900281,9.714340,-0.536288,1.012125,0.530110,-0.109030,0.359480,0.416307,0.063163,-0.687104,-0.687140,0.097399,0.215035,87.868502,9.303967,-25.790383
08990,NaN,-0.815515,9.922423,-0.432096,1.052260,0.358287,0.090367,0.374183,0.462811,0.068844,-0.686060,-0.688930,0.096436,0.213066,88.133127,9.279699,-25.522524
08991,NaN,-0.767975,10.123017,-0.314990,1.050296,0.188376,0.288090,0.392464,0.516781,0.097834,-0.684993,-0.690829,0.095399,0.210805,88.414517,9.239688,-25.222786
08992,NaN,-0.662538,10.351196,-0.241229,1.118851,0.029582,0.501938,0.428243,0.550388,0.123803,-0.683848,-0.692855,0.094381,0.208316,88.717955,9.182590,-24.903629
08993,NaN,-0.484377,10.544620,-0.248476,1.276330,-0.087556,0.668173,0.467616,0.571521,0.161030,-0.682596,-0.695021,0.093453,0.205608,89.046942,9.103722,-24.571974
08994,NaN,-0.368590,10.743708,-0.228693,1.362456,-0.204965,0.851122,0.485165,0.613168,0.193507,-0.681335,-0.697255,0.092518,0.202629,89.387817,9.003604,-24.216662
08995,NaN,-0.236679,11.016071,-0.298635,1.506301,-0.252459,1.103632,0.500759,0.687812,0.214144,-0.680053,-0.699604,0.091411,0.199312,89.745066,8.890741,-23.818501
08996,NaN,-0.167649,11.485566,-0.328009,1.598497,-0.325995,1.562374,0.542138,0.751892,0.250250,-0.678688,-0.702117,0.090255,0.195622,90.129276,8.753799,-23.384245
08997,NaN,-0.192040,12.082043,-0.530650,1.681062,-0.218962,2.163110,0.596745,0.774367,0.295039,-0.677157,-0.704810,0.089229,0.191673,90.546907,8.588810,-22.938088
08998,NaN,-0.154289,12.897354,-0.748238,1.838664,-0.144988,2.974919,0.641140,0.769246,0.349056,-0.675512,-0.707595,0.088454,0.187533,90.986354,8.388930,-22.496980
08999,NaN,0.048880,13.761803,-1.252411,2.245663,0.121586,3.821806,0.630674,0.780734,0.389918,-0.673917,-0.710327,0.087770,0.183214,91.420362,8.162658,-22.051343
09000,NaN,0.278610,14.529778,-1.869105,2.690148,0.494663,4.581861,0.562920,0.885265,0.412605,-0.672619,-0.712885,0.086752,0.178471,91.820319,7.918024,-21.547726
09001,NaN,0.419781,15.081305,-2.223285,2.920901,0.692362,5.139008,0.369722,1.075743,0.379886,-0.672031,-0.714964,0.084802,0.173235,92.123974,7.685507,-20.935026
09002,NaN,0.430531,15.306289,-2.179737,2.852634,0.622020,5.375928,0.172451,1.270526,0.363929,-0.672199,-0.716516,0.081965,0.167435,92.325151,7.454925,-20.211002
09003,NaN,0.311273,14.920185,-1.938824,2.534768,0.485506,5.013185,0.028180,1.431594,0.384562,-0.672924,-0.717686,0.078539,0.161036,92.454181,7.206490,-19.395433
09004,NaN,0.173505,13.935514,-1.732429,2.160119,0.450952,4.056700,-0.106754,1.546212,0.388344,-0.674152,-0.718439,0.074625,0.154260,92.508525,6.951878,-18.514844
09005,NaN,0.040337,12.890736,-1.332141,1.735864,0.240128,3.027715,-0.194328,1.658294,0.388689,-0.675679,-0.718945,0.070266,0.147097,92.518343,6.693347,-17.570149
09006,NaN,-0.212662,11.957362,-0.925377,1.223114,0.042213,2.119700,-0.207236,1.757203,0.409518,-0.677263,-0.719407,0.065629,0.139506,92.520837,6.420716,-16.569661
09007,NaN,-0.367142,11.100339,-0.551689,0.833725,-0.175721,1.274712,-0.184324,1.806018,0.427241,-0.678723,-0.719925,0.060906,0.131655,92.536578,6.135913,-15.542002
09008,NaN,-0.476265,10.259473,-0.073768,0.479764,-0.519590,0.433714,-0.245445,1.758349,0.394795,-0.680322,-0.720142,0.056177,0.124098,92.507572,5.871637,-14.541555
09009,NaN,-0.567891,9.428964,0.197876,0.219899,-0.676540,-0.391391,-0.331266,1.646217,0.352968,-0.682109,-0.719965,0.051628,0.117096,92.420590,5.634298,-13.604693
09010,NaN,-0.755026,8.620048,0.359829,-0.091124,-0.714294,-1.182150,-0.312231,1.465805,0.367559,-0.683756,-0.719685,0.047748,0.110687,92.328697,5.395122,-12.772028
09011,NaN,-0.772237,7.939217,0.460549,-0.208747,-0.751034,-1.860837,-0.221828,1.135588,0.385224,-0.684965,-0.719503,0.045115,0.105373,92.269457,5.153669,-12.129584
09012,NaN,-0.505401,7.733515,0.278006,0.048097,-0.607559,-2.081681,-0.053662,0.766209,0.417428,-0.685494,-0.719664,0.043944,0.101242,92.283316,4.903289,-11.700369
09013,NaN,-0.233428,7.874365,-0.031358,0.353551,-0.369153,-1.951410,0.167044,0.497707,0.477429,-0.685180,-0.720432,0.044026,0.097816,92.410405,4.623457,-11.427259
09014,NaN,-0.135163,8.399099,-0.324850,0.502588,-0.143123,-1.422492,0.280120,0.368658,0.506603,-0.684446,-0.721498,0.044704,0.094735,92.593293,4.330296,-11.229875
09015,NaN,0.001059,8.984352,-0.563129,0.673966,0.015200,-0.835993,0.213291,0.346100,0.479040,-0.683919,-0.722334,0.045335,0.091836,92.737630,4.052014,-11.045605
09016,NaN,0.037206,9.506528,-0.663428,0.714975,0.069421,-0.310087,0.074273,0.376952,0.435997,-0.683884,-0.722702,0.045634,0.089011,92.801036,3.798115,-10.843018
09017,NaN,0.052585,9.896420,-0.701251,0.716220,0.084627,0.082431,-0.025713,0.390480,0.414279,-0.684188,-0.722743,0.045770,0.086227,92.808480,3.555123,-10.632287
09018,NaN,0.172200,10.144739,-0.808465,0.825392,0.163261,0.330828,-0.040147,0.373924,0.395805,-0.684538,-0.722716,0.045882,0.083575,92.804563,3.324178,-10.430582
09019,NaN,0.285627,10.292254,-1.036813,0.944804,0.368775,0.485771,-0.030471,0.377016,0.381958,-0.684832,-0.722731,0.045946,0.080949,92.807196,3.099970,-10.226785
09020,NaN,0.495134,10.414125,-1.316628,1.166436,0.611465,0.613148,-0.053306,0.450621,0.348579,-0.685218,-0.722691,0.045619,0.078183,92.796547,2.893919,-9.979872
09021,NaN,0.690935,10.397675,-1.557931,1.363497,0.833532,0.601828,-0.128978,0.608083,0.286090,-0.685872,-0.722470,0.044505,0.075071,92.747963,2.718178,-9.640982
09022,NaN,0.770365,10.211228,-1.660692,1.420487,0.959974,0.418687,-0.232425,0.837158,0.202107,-0.686918,-0.721979,0.042255,0.071449,92.643646,2.585996,-9.168348
09023,NaN,0.691895,9.846338,-1.589437,1.293028,0.959043,0.054608,-0.320831,1.075481,0.115581,-0.688275,-0.721278,0.038850,0.067273,92.495756,2.496884,-8.556752
09024,NaN,0.498899,9.337579,-1.423890,1.040127,0.891114,-0.453701,-0.359703,1.280165,0.049562,-0.689774,-0.720489,0.034479,0.062599,92.328138,2.443686,-7.826019
09025,NaN,0.298254,8.880900,-1.220071,0.782460,0.776243,-0.911396,-0.346071,1.448708,-0.005418,-0.691191,-0.719784,0.029342,0.057492,92.173885,2.418698,-6.997408
09026,NaN,0.020298,8.482861,-0.940296,0.447733,0.580830,-1.309417,-0.307174,1.609536,-0.042278,-0.692450,-0.719210,0.023515,0.051935,92.043735,2.415004,-6.075739
09027,NaN,-0.441519,8.180343,-0.611902,-0.063330,0.334595,-1.604679,-0.251429,1.713071,-0.070028,-0.693454,-0.718819,0.017254,0.046080,91.950024,2.425299,-5.094239
09028,NaN,-0.793555,7.988997,-0.219012,-0.456418,-0.012027,-1.794377,-0.182423,1.722277,-0.074928,-0.694168,-0.718605,0.010947,0.040211,91.894386,2.441134,-4.107305
09029,NaN,-1.224257,7.928074,0.129961,-0.909751,-0.333973,-1.848339,-0.097846,1.622787,-0.037344,-0.694521,-0.718624,0.005148,0.034551,91.886708,2.436217,-3.178180
09030,NaN,-1.590208,7.859543,0.422576,-1.289993,-0.621503,-1.911462,-0.003575,1.398424,0.027376,-0.694512,-0.718877,0.000365,0.029478,91.925369,2.399918,-2.378830
09031,NaN,-1.848202,7.853648,0.643513,-1.556628,-0.857111,-1.916362,0.096167,1.082431,0.105585,-0.694118,-0.719412,-0.003014,0.025258,92.014605,2.322594,-1.762259
09032,NaN,-1.996581,7.976700,0.777256,-1.710381,-1.020049,-1.796940,0.200609,0.708172,0.197516,-0.693360,-0.720237,-0.004761,0.022076,92.152318,2.200781,-1.362193
09033,NaN,-2.035952,8.110746,0.858426,-1.762992,-1.136091,-1.672219,0.292926,0.325458,0.297850,-0.692273,-0.721345,-0.004800,0.019918,92.335312,2.027586,-1.184085
09034,NaN,-1.932250,8.262560,0.751881,-1.678566,-1.067526,-1.529484,0.356989,-0.048872,0.381160,-0.690978,-0.722624,-0.003246,0.018831,92.545532,1.816630,-1.222960
09035,NaN,-1.637781,8.300915,0.506489,-1.412921,-0.857762,-1.499339,0.387631,-0.364864,0.439519,-0.689566,-0.723982,-0.000378,0.018677,92.769496,1.579610,-1.445179
09036,NaN,-1.221314,8.264598,0.250713,-1.030850,-0.636367,-1.542849,0.392038,-0.582684,0.483747,-0.688142,-0.725315,0.003393,0.019167,92.992255,1.325627,-1.794184
09037,NaN,-0.805421,8.222934,-0.006542,-0.648936,-0.415181,-1.586406,0.371816,-0.677922,0.490928,-0.686768,-0.726564,0.007523,0.019971,93.205196,1.070764,-2.198904
09038,NaN,-0.478307,8.159559,-0.198963,-0.354480,-0.256300,-1.648420,0.339419,-0.666144,0.471170,-0.685505,-0.727680,0.011530,0.020807,93.400052,0.829305,-2.597036
09039,NaN,-0.317237,8.210743,-0.301610,-0.224575,-0.187263,-1.595494,0.296163,-0.574513,0.444234,-0.684381,-0.728654,0.015127,0.021398,93.573761,0.600370,-2.942646
09040,NaN,-0.328469,8.257032,-0.244777,-0.271946,-0.266476,-1.554280,0.255563,-0.478240,0.400320,-0.683407,-0.729485,0.018224,0.021797,93.724657,0.394982,-3.232162
09041,NaN,-0.358539,8.390530,-0.101337,-0.341355,-0.434551,-1.432093,0.233638,-0.418053,0.371878,-0.682500,-0.730250,0.021014,0.022071,93.865496,0.203388,-3.486784
09042,NaN,-0.429002,8.485820,0.088452,-0.453857,-0.643825,-1.352167,0.256403,-0.399980,0.346477,-0.681511,-0.731084,0.023647,0.022368,94.018898,0.027179,-3.730481
09043,NaN,-0.558370,8.636313,0.180610,-0.619729,-0.758256,-1.212038,0.290489,-0.384594,0.331155,-0.680384,-0.732038,0.026180,0.022651,94.193809,-0.141072,-3.965343
09044,NaN,-0.616199,8.792297,0.321841,-0.718007,-0.929121,-1.071472,0.316973,-0.384886,0.311172,-0.679159,-0.733071,0.028638,0.023005,94.383301,-0.296281,-4.199965
09045,NaN,-0.702290,8.968583,0.464763,-0.845447,-1.103070,-0.912517,0.326865,-0.418731,0.288862,-0.677878,-0.734137,0.031136,0.023553,94.580343,-0.437219,-4.453528
09046,NaN,-0.715550,9.015028,0.550548,-0.894412,-1.216005,-0.879206,0.331179,-0.454799,0.272311,-0.676573,-0.735203,0.033690,0.024293,94.779474,-0.565362,-4.727321
09047,NaN,-0.674032,9.033852,0.559043,-0.882169,-1.256148,-0.867238,0.365353,-0.490648,0.261345,-0.675123,-0.736380,0.036333,0.025191,95.000020,-0.685169,-5.021594
09048,NaN,-0.646424,9.032835,0.562235,-0.882968,-1.290890,-0.875131,0.394208,-0.520897,0.259937,-0.673558,-0.737635,0.039072,0.026205,95.236913,-0.800772,-5.333462
09049,NaN,-0.480225,8.999190,0.518091,-0.739786,-1.291152,-0.909319,0.408797,-0.532930,0.230020,-0.671920,-0.738940,0.041747,0.027357,95.483699,-0.897928,-5.651156
09050,NaN,-0.245676,8.913708,0.479630,-0.524742,-1.300861,-0.993568,0.398920,-0.493062,0.200887,-0.670320,-0.740210,0.044174,0.028464,95.724058,-0.978771,-5.944831
09051,NaN,-0.096065,8.698694,0.498000,-0.392052,-1.346211,-1.212780,0.385420,-0.413406,0.146706,-0.668768,-0.741454,0.046134,0.029458,95.956900,-1.032676,-6.190334
09052,NaN,-0.006914,8.577551,0.567198,-0.321715,-1.444226,-1.344703,0.382435,-0.327581,0.084017,-0.667237,-0.742705,0.047571,0.030347,96.186517,-1.054561,-6.383287
09053,NaN,0.087918,8.512784,0.589959,-0.237217,-1.503909,-1.415953,0.401275,-0.277477,0.023629,-0.665631,-0.744039,0.048622,0.031244,96.426921,-1.044900,-6.544041
09054,NaN,0.232143,8.532218,0.581228,-0.098347,-1.551039,-1.399903,0.457054,-0.248359,-0.024797,-0.663817,-0.745568,0.049402,0.032183,96.698302,-1.008382,-6.684946
09055,NaN,0.490459,8.655894,0.449018,0.168735,-1.508037,-1.264948,0.515404,-0.207186,-0.083386,-0.661778,-0.747307,0.049838,0.033145,97.002910,-0.941118,-6.798277
09056,NaN,0.642091,8.881154,0.293521,0.334633,-1.448341,-1.028414,0.550180,-0.105261,-0.135367,-0.659622,-0.749183,0.049745,0.033892,97.325925,-0.850491,-6.849525
09057,NaN,0.758577,9.037808,0.112728,0.476302,-1.354632,-0.856795,0.540443,0.054995,-0.194609,-0.657526,-0.751063,0.048903,0.034234,97.642172,-0.738405,-6.804834
09058,NaN,0.791633,9.211002,0.063323,0.526617,-1.380451,-0.686347,0.478909,0.266618,-0.266965,-0.655696,-0.752787,0.047079,0.034036,97.921550,-0.601374,-6.633766
09059,NaN,0.654232,9.404032,0.118421,0.402644,-1.487466,-0.511988,0.417587,0.489956,-0.317249,-0.654132,-0.754351,0.044327,0.033173,98.165091,-0.455093,-6.331373
09060,NaN,0.372077,9.631287,0.220779,0.134728,-1.629136,-0.311296,0.405412,0.662324,-0.335889,-0.652640,-0.755896,0.040934,0.031727,98.401663,-0.313150,-5.929069
09061,NaN,-0.012608,9.952194,0.364806,-0.237786,-1.821341,-0.024668,0.432097,0.764610,-0.329395,-0.651056,-0.757527,0.037239,0.029863,98.654126,-0.185927,-5.468793
09062,NaN,-0.302524,10.265979,0.476138,-0.510412,-2.000164,0.259406,0.458441,0.773713,-0.308567,-0.649362,-0.759225,0.033592,0.027895,98.922730,-0.072758,-5.004580
09063,NaN,-0.468749,10.559362,0.485686,-0.651050,-2.095452,0.538188,0.483334,0.710600,-0.273573,-0.647556,-0.760971,0.030289,0.026044,99.206150,0.023469,-4.578723
09064,NaN,-0.730065,10.743684,0.432901,-0.882665,-2.110109,0.718939,0.479583,0.636918,-0.240386,-0.645742,-0.762677,0.027347,0.024370,99.488348,0.106289,-4.197111
09065,NaN,-0.987334,10.898012,0.358474,-1.112181,-2.101131,0.874595,0.451316,0.547148,-0.204751,-0.644022,-0.764260,0.024830,0.022924,99.754170,0.175224,-3.869248
09066,NaN,-1.197686,11.048500,0.352492,-1.302673,-2.161827,1.015855,0.423890,0.413996,-0.180758,-0.642381,-0.765732,0.022826,0.021916,100.004940,0.242752,-3.618574
09067,NaN,-1.280220,11.239641,0.226278,-1.362134,-2.118853,1.217929,0.428658,0.228318,-0.135360,-0.640707,-0.767182,0.021595,0.021469,100.257407,0.301887,-3.476917
09068,NaN,-1.205731,11.511602,-0.022002,-1.264027,-1.983189,1.520458,0.492364,-0.001255,-0.080045,-0.638759,-0.768805,0.021317,0.021721,100.546534,0.353328,-3.470070
09069,NaN,-0.982877,12.073948,-0.441694,-1.015096,-1.751654,2.138975,0.594865,-0.243208,-0.025273,-0.636399,-0.770711,0.022033,0.022716,100.892444,0.399414,-3.604985
09070,NaN,-0.798532,12.954551,-1.003442,-0.801417,-1.457029,3.098515,0.676224,-0.431276,0.027404,-0.633695,-0.772844,0.023559,0.024260,101.285078,0.437742,-3.851152
09071,NaN,-0.635714,13.961996,-1.731421,-0.599813,-1.039948,4.219325,0.646876,-0.464957,0.057265,-0.631101,-0.774857,0.025304,0.025842,101.659391,0.464601,-4.119366
09072,NaN,-0.698158,15.076723,-2.157307,-0.642742,-0.925410,5.391887,0.479006,-0.377251,0.049638,-0.629152,-0.776349,0.026720,0.027130,101.939015,0.487179,-4.337346
09073,NaN,-1.049281,16.030657,-2.042904,-1.013749,-1.264980,6.300301,0.281969,-0.347649,0.079305,-0.627980,-0.777208,0.028131,0.028235,102.104515,0.490311,-4.542175
09074,NaN,-1.305814,16.465189,-1.930077,-1.290571,-1.472175,6.700940,0.084528,-0.402653,0.112594,-0.627560,-0.777438,0.029816,0.029478,102.157896,0.481944,-4.781831
09075,NaN,-1.211403,16.296957,-1.773448,-1.218772,-1.590370,6.502602,-0.107461,-0.467816,0.146116,-0.627888,-0.777040,0.031807,0.030897,102.099558,0.462601,-5.062005
09076,NaN,-0.977435,15.220601,-1.679140,-0.991704,-1.439407,5.431523,-0.325799,-0.481625,0.138460,-0.629046,-0.775956,0.033778,0.032429,101.917590,0.448640,-5.348983
09077,NaN,-0.707752,13.737460,-1.523575,-0.721604,-1.246628,3.951932,-0.517681,-0.456876,0.084599,-0.630949,-0.774266,0.035430,0.034066,101.624241,0.460865,-5.615694
09078,NaN,-0.441945,12.133712,-1.629221,-0.419739,-0.773457,2.406222,-0.611228,-0.408655,0.028762,-0.633194,-0.772298,0.036698,0.035709,101.279065,0.497415,-5.849067
09079,NaN,-0.205835,10.692408,-1.776822,-0.137340,-0.301581,1.023218,-0.630075,-0.351298,-0.050466,-0.635511,-0.770275,0.037473,0.037384,100.921536,0.570847,-6.041642
09080,NaN,-0.108482,9.603248,-1.817224,-0.002177,-0.005049,-0.038431,-0.609726,-0.264678,-0.146609,-0.637730,-0.768351,0.037608,0.039027,100.577700,0.687866,-6.175659
09081,NaN,-0.032145,8.992451,-1.848425,0.112447,0.182809,-0.634697,-0.594400,-0.144420,-0.283039,-0.639889,-0.766507,0.036836,0.040640,100.241685,0.868613,-6.228449
09082,NaN,-0.021381,8.739253,-1.711335,0.147456,0.138504,-0.909741,-0.527004,-0.074776,-0.396379,-0.641762,-0.764915,0.035422,0.042335,99.946663,1.105913,-6.231585
09083,NaN,0.129791,8.827982,-1.729590,0.344813,0.160751,-0.823995,-0.405650,-0.084147,-0.481410,-0.643155,-0.763708,0.033736,0.044318,99.719515,1.392197,-6.232764
09084,NaN,0.282304,9.202995,-1.843379,0.563484,0.217966,-0.442120,-0.312085,-0.099314,-0.552991,-0.644155,-0.762812,0.031848,0.046571,99.547581,1.720284,-6.236653
09085,NaN,0.378329,9.812399,-2.029332,0.748634,0.308408,0.181737,-0.278065,-0.090876,-0.633745,-0.645011,-0.762022,0.029631,0.049048,99.393850,2.093233,-6.229101
09086,NaN,0.324154,10.628105,-2.362989,0.821314,0.526975,1.035933,-0.300793,-0.086754,-0.702938,-0.645917,-0.761169,0.027132,0.051733,99.229104,2.504910,-6.213818
09087,NaN,0.273842,11.263881,-2.750099,0.918738,0.838519,1.718357,-0.427427,-0.089382,-0.759561,-0.647290,-0.759892,0.024393,0.054629,98.990440,2.948863,-6.196367
09088,NaN,0.282611,11.546970,-3.039067,1.068506,1.128717,2.029243,-0.673931,-0.035068,-0.811768,-0.649566,-0.757830,0.021212,0.057515,98.614092,3.417747,-6.145871
09089,NaN,0.212659,11.400548,-3.240308,1.119572,1.439914,1.900074,-0.932084,0.068873,-0.834219,-0.652813,-0.754928,0.017534,0.060105,98.092442,3.890948,-6.038185
09090,NaN,0.130274,10.813310,-3.233346,1.107285,1.635073,1.300262,-1.135148,0.159026,-0.837657,-0.656794,-0.751364,0.013486,0.062382,97.460153,4.360309,-5.883579
09091,NaN,0.066838,10.081798,-3.133457,1.081585,1.762800,0.540398,-1.270830,0.230856,-0.841024,-0.661261,-0.747330,0.009148,0.064405,96.752983,4.828028,-5.693265
09092,NaN,0.057789,9.500137,-3.062945,1.107917,1.888781,-0.074066,-1.321148,0.275410,-0.815170,-0.665878,-0.743105,0.004741,0.066176,96.021363,5.280766,-5.484838
09093,NaN,0.025474,8.883051,-2.990191,1.092310,2.007605,-0.722842,-1.328383,0.310111,-0.773291,-0.670503,-0.738814,0.000374,0.067672,95.287273,5.709962,-5.264690
09094,NaN,0.009507,8.351323,-2.955838,1.089082,2.140838,-1.285615,-1.351928,0.383067,-0.755316,-0.675173,-0.734429,-0.004181,0.068836,94.546035,6.128426,-5.008880
09095,NaN,-0.021225,7.826395,-2.861431,1.053376,2.204278,-1.845821,-1.387530,0.488521,-0.763730,-0.679929,-0.729907,-0.009133,0.069635,93.791595,6.550180,-4.697495
09096,NaN,-0.142578,7.354831,-2.590289,0.906582,2.082753,-2.351949,-1.391406,0.633951,-0.762882,-0.684640,-0.725376,-0.014579,0.069896,93.047252,6.970904,-4.307612
09097,NaN,-0.278714,6.937632,-2.306077,0.741847,1.929428,-2.794672,-1.324216,0.720939,-0.747136,-0.689061,-0.721052,-0.020239,0.069785,92.349237,7.384624,-3.873083
09098,NaN,-0.362316,6.668983,-1.978822,0.639153,1.701859,-3.088335,-1.146884,0.707124,-0.706219,-0.692811,-0.717295,-0.025643,0.069600,91.754712,7.780523,-3.451640
09099,NaN,-0.392039,6.590453,-1.702959,0.616762,1.495326,-3.189165,-0.921457,0.622991,-0.654626,-0.695749,-0.714259,-0.030488,0.069560,91.284446,8.151477,-3.083063
09100,NaN,-0.498638,6.618913,-1.557579,0.540853,1.403202,-3.162652,-0.683690,0.515608,-0.595026,-0.697849,-0.711999,-0.034665,0.069733,90.943626,8.492598,-2.779592
09101,NaN,-0.628875,6.857767,-1.484494,0.475903,1.364954,-2.917875,-0.471963,0.376377,-0.530409,-0.699229,-0.710424,-0.038049,0.070208,90.713160,8.798762,-2.558871
09102,NaN,-0.659310,7.102798,-1.564268,0.517984,1.464296,-2.676947,-0.306028,0.202064,-0.454929,-0.700068,-0.709375,-0.040500,0.071072,90.563175,9.064102,-2.440533
09103,NaN,-0.563105,7.376380,-1.807411,0.695551,1.714100,-2.425347,-0.202012,0.044338,-0.378324,-0.700594,-0.708645,-0.042086,0.072245,90.458474,9.285990,-2.414689
09104,NaN,-0.496136,7.508317,-1.962086,0.815476,1.875011,-2.310019,-0.151321,-0.030489,-0.300998,-0.700981,-0.708079,-0.043122,0.073425,90.375785,9.464554,-2.432936
09105,NaN,-0.518982,7.602942,-2.124158,0.837693,2.046167,-2.216798,-0.146066,-0.037072,-0.249867,-0.701367,-0.707539,-0.043947,0.074447,90.295480,9.613126,-2.455463
09106,NaN,-0.498793,7.707673,-2.160911,0.895020,2.090597,-2.121467,-0.151113,-0.024524,-0.193784,-0.701788,-0.706996,-0.044624,0.075231,90.213263,9.730195,-2.471050
09107,NaN,-0.508173,7.835258,-2.102349,0.917822,2.041229,-1.998575,-0.146279,-0.018384,-0.114079,-0.702218,-0.706492,-0.045034,0.075709,90.134704,9.800791,-2.483364
09108,NaN,-0.590191,7.929471,-2.103063,0.860137,2.053982,-1.895048,-0.122362,-0.018050,-0.033400,-0.702595,-0.706087,-0.045156,0.075913,90.069481,9.825919,-2.495675
09109,NaN,-0.756959,8.039874,-1.992624,0.710375,1.957105,-1.759848,-0.085514,0.012774,0.043061,-0.702861,-0.705844,-0.045097,0.075743,90.029000,9.806359,-2.490078
09110,NaN,-0.854801,8.342805,-1.895151,0.654993,1.865615,-1.445183,-0.036871,0.036365,0.121189,-0.702982,-0.705795,-0.044831,0.075231,90.018127,9.742885,-2.470823
09111,NaN,-0.922789,8.602359,-1.777373,0.613460,1.748838,-1.176925,0.019750,0.005422,0.201927,-0.702937,-0.705955,-0.044146,0.074552,90.037425,9.632247,-2.469513
09112,NaN,-0.896809,8.791020,-1.771828,0.651153,1.737251,-0.993187,0.059320,-0.047785,0.267269,-0.702791,-0.706244,-0.043033,0.073845,90.073453,9.485111,-2.499281
09113,NaN,-0.809775,8.850989,-1.925499,0.729697,1.880475,-0.945073,0.083458,-0.048504,0.309337,-0.702568,-0.706631,-0.041755,0.072991,90.124278,9.312932,-2.529514
09114,NaN,-0.682642,8.785969,-1.969315,0.819517,1.912038,-1.025773,0.087936,0.013356,0.330732,-0.702328,-0.707052,-0.040622,0.071851,90.182510,9.129391,-2.524118
09115,NaN,-0.625849,8.797235,-1.957831,0.847189,1.890055,-1.019167,0.085028,0.109641,0.333640,-0.702071,-0.707504,-0.039812,0.070353,90.248975,8.942941,-2.462959
09116,NaN,-0.731120,8.761859,-1.883113,0.702745,1.811056,-1.033340,0.105688,0.218093,0.340291,-0.701726,-0.708057,-0.039358,0.068458,90.335530,8.753312,-2.339330
09117,NaN,-0.958606,8.854348,-1.744544,0.451582,1.667038,-0.903212,0.155712,0.304795,0.355076,-0.701181,-0.708824,-0.039131,0.066206,90.459184,8.553542,-2.165802
09118,NaN,-1.156521,9.030024,-1.541110,0.236638,1.449602,-0.696966,0.202940,0.346448,0.375895,-0.700469,-0.709761,-0.038968,0.063750,90.611362,8.342311,-1.968965
09119,NaN,-1.352090,9.128890,-1.362070,0.010611,1.251283,-0.568555,0.243577,0.341319,0.408927,-0.699611,-0.710848,-0.038649,0.061197,90.787022,8.110501,-1.775918
09120,NaN,-1.565889,9.187417,-1.198143,-0.241780,1.064122,-0.479675,0.290458,0.303963,0.455617,-0.698610,-0.712082,-0.038026,0.058629,90.984033,7.852788,-1.605910
09121,NaN,-1.719497,9.259950,-1.091293,-0.435070,0.925999,-0.386809,0.351057,0.252552,0.503939,-0.697401,-0.713524,-0.037027,0.056079,91.212379,7.566217,-1.467100
09122,NaN,-1.833240,9.273164,-0.915536,-0.602460,0.714306,-0.361921,0.406084,0.186656,0.549384,-0.696022,-0.715129,-0.035626,0.053622,91.464762,7.255041,-1.368407
09123,NaN,-1.889639,9.418406,-0.822669,-0.698348,0.575507,-0.214013,0.466299,0.089359,0.598965,-0.694438,-0.716927,-0.033686,0.051344,91.745562,6.915520,-1.328072
09124,NaN,-1.843861,9.502026,-0.801568,-0.703490,0.503186,-0.138897,0.537105,-0.039821,0.649251,-0.692634,-0.718925,-0.031106,0.049372,92.055943,6.550516,-1.365104
09125,NaN,-1.727564,9.536639,-0.848316,-0.647162,0.493802,-0.117930,0.602667,-0.168711,0.700302,-0.690603,-0.721122,-0.027873,0.047689,92.397289,6.158395,-1.479472
09126,NaN,-1.543268,9.624699,-0.923515,-0.520118,0.504738,-0.048292,0.645301,-0.245816,0.732487,-0.688430,-0.723424,-0.024252,0.046185,92.757197,5.751515,-1.641481
09127,NaN,-1.375097,9.747108,-0.995907,-0.408840,0.506854,0.059701,0.670513,-0.271349,0.748789,-0.686144,-0.725801,-0.020473,0.044713,93.132770,5.336208,-1.821055
09128,NaN,-1.276452,9.878194,-1.070280,-0.368486,0.508710,0.185222,0.687037,-0.263701,0.760016,-0.683792,-0.728207,-0.016680,0.043181,93.517468,4.916314,-1.999345
09129,NaN,-1.256861,10.086497,-1.010760,-0.409040,0.371435,0.386952,0.684101,-0.246730,0.763934,-0.681420,-0.730597,-0.012927,0.041566,93.904166,4.493923,-2.170686
09130,NaN,-1.242292,10.254746,-1.012616,-0.458892,0.297174,0.552097,0.665145,-0.229590,0.767235,-0.679109,-0.732895,-0.009228,0.039881,94.279972,4.070923,-2.335127
09131,NaN,-1.212846,10.300823,-1.001154,-0.506035,0.217057,0.592898,0.671532,-0.219238,0.775824,-0.676745,-0.735209,-0.005526,0.038123,94.662681,3.642882,-2.496686
09132,NaN,-1.090240,10.434613,-0.978123,-0.457628,0.112735,0.713634,0.676666,-0.201720,0.780354,-0.674356,-0.737512,-0.001871,0.036290,95.048123,3.213263,-2.651290
09133,NaN,-1.019334,10.538748,-0.926401,-0.466629,-0.017456,0.805386,0.667497,-0.149876,0.777649,-0.671970,-0.739784,0.001602,0.034269,95.432718,2.782820,-2.778924
09134,NaN,-0.953051,10.729711,-0.846148,-0.479802,-0.185149,0.980158,0.657797,-0.070980,0.763229,-0.669611,-0.742007,0.004750,0.032008,95.812797,2.357732,-2.863567
09135,NaN,-0.902778,10.987458,-0.742809,-0.510713,-0.385529,1.218202,0.668376,-0.001364,0.751781,-0.667185,-0.744268,0.007629,0.029522,96.202783,1.934929,-2.910653
09136,NaN,-0.838644,11.312065,-0.759953,-0.523043,-0.480940,1.533575,0.712620,0.031935,0.742641,-0.664588,-0.746652,0.010365,0.026944,96.617151,1.516183,-2.941143
09137,NaN,-0.715237,11.679199,-0.957325,-0.471023,-0.417325,1.910553,0.783315,0.039800,0.744532,-0.661698,-0.749262,0.013095,0.024323,97.074025,1.095486,-2.970484
09138,NaN,-0.552728,12.252521,-1.423027,-0.369114,-0.130215,2.528301,0.850376,0.092628,0.724209,-0.658549,-0.752068,0.015578,0.021570,97.568220,0.683320,-2.971779
09139,NaN,-0.363844,13.039104,-1.912800,-0.245591,0.136562,3.367934,0.827503,0.213277,0.667707,-0.655457,-0.754803,0.017452,0.018546,98.051615,0.293326,-2.903743
09140,NaN,-0.281951,13.880269,-2.265454,-0.244449,0.257412,4.249528,0.765271,0.397065,0.616279,-0.652605,-0.757324,0.018519,0.015006,98.497388,-0.082669,-2.730383
09141,NaN,-0.287766,14.571093,-2.563272,-0.340059,0.349349,4.976860,0.650427,0.558377,0.549001,-0.650168,-0.759477,0.018800,0.011081,98.877537,-0.436273,-2.462609
09142,NaN,-0.330494,14.876282,-2.535478,-0.481984,0.193726,5.272759,0.469076,0.706740,0.478709,-0.648424,-0.761028,0.018318,0.006842,99.149552,-0.764424,-2.106505
09143,NaN,-0.532291,14.588276,-2.254259,-0.771376,-0.084744,4.937906,0.221258,0.839972,0.398220,-0.647607,-0.761779,0.017092,0.002376,99.278052,-1.061005,-1.668857
09144,NaN,-0.696630,13.558356,-1.668644,-0.994241,-0.512398,3.819896,-0.016044,0.926614,0.323662,-0.647697,-0.761741,0.015294,-0.002155,99.265579,-1.323381,-1.175503
09145,NaN,-0.684425,12.042326,-1.159129,-0.998313,-0.767144,2.239049,-0.183370,0.978658,0.225154,-0.648402,-0.761160,0.012958,-0.006555,99.155889,-1.534709,-0.643428
09146,NaN,-0.505671,10.682485,-0.582947,-0.813405,-1.103983,0.809484,-0.258747,1.019651,0.140401,-0.649393,-0.760308,0.010165,-0.010829,98.998714,-1.700133,-0.079864
09147,NaN,-0.360048,9.455569,-0.081696,-0.643237,-1.386801,-0.474214,-0.270758,1.033214,0.071814,-0.650405,-0.759408,0.007070,-0.014932,98.834325,-1.826709,0.497893
09148,NaN,-0.238103,8.487217,0.280333,-0.488473,-1.576451,-1.479362,-0.227776,1.018941,-0.010467,-0.651253,-0.758621,0.003704,-0.018713,98.692012,-1.903548,1.075204
09149,NaN,-0.201715,7.897495,0.627482,-0.416479,-1.818018,-2.110339,-0.129087,0.916520,-0.113297,-0.651708,-0.758157,0.000274,-0.021774,98.608816,-1.912493,1.603420
09150,NaN,-0.077158,7.767303,0.643378,-0.271111,-1.813366,-2.237132,0.159189,0.645649,-0.162771,-0.651075,-0.758641,-0.002495,-0.023645,98.694500,-1.869763,1.982460
09151,NaN,0.140857,8.123085,0.372941,-0.056075,-1.620351,-1.843083,0.524035,0.245088,-0.165105,-0.649048,-0.760359,-0.004010,-0.023986,98.998030,-1.791993,2.134880
09152,NaN,0.551619,8.921116,-0.185179,0.328803,-1.235269,-0.964498,0.770813,-0.112168,-0.165954,-0.646089,-0.762904,-0.004400,-0.022959,99.448145,-1.681651,2.085808
09153,NaN,0.974040,9.696665,-0.956457,0.724866,-0.659353,-0.069577,0.732984,-0.290985,-0.219905,-0.643267,-0.765339,-0.004412,-0.021078,99.880137,-1.523556,1.941686
09154,NaN,1.348137,10.281179,-1.944345,1.083011,0.168028,0.680129,0.375113,-0.137253,-0.334902,-0.641822,-0.766589,-0.005322,-0.019421,100.103158,-1.314741,1.896748
09155,NaN,1.474577,10.580816,-2.167676,1.241383,0.325426,1.012270,-0.088638,0.128237,-0.499263,-0.642152,-0.766321,-0.007667,-0.018269,100.057829,-1.040147,2.018372
09156,NaN,1.326080,10.623956,-1.888210,1.156896,0.065423,0.996991,-0.344708,0.235792,-0.577850,-0.643467,-0.765205,-0.010638,-0.017284,99.864379,-0.731227,2.207953
09157,NaN,1.091614,10.525123,-1.887408,0.980018,0.117653,0.890462,-0.407890,0.228979,-0.589267,-0.645010,-0.763880,-0.013621,-0.016243,99.636779,-0.415019,2.393601
09158,NaN,1.049031,10.704842,-2.054884,0.987623,0.298400,1.089228,-0.391099,0.224328,-0.587926,-0.646486,-0.762594,-0.016589,-0.015183,99.418866,-0.097893,2.575298
09159,NaN,1.097496,11.194305,-2.133218,1.093895,0.348456,1.578055,-0.429685,0.295013,-0.602487,-0.648088,-0.761171,-0.019833,-0.014353,99.180881,0.221021,2.797007
09160,NaN,1.149760,11.517635,-2.070557,1.212910,0.301837,1.879277,-0.564186,0.405142,-0.617908,-0.650188,-0.759283,-0.023487,-0.013901,98.866495,0.540450,3.080922
09161,NaN,1.175277,11.294816,-1.898277,1.301600,0.251777,1.624052,-0.754979,0.535828,-0.626443,-0.652972,-0.756751,-0.027580,-0.013944,98.446245,0.854510,3.437531
09162,NaN,1.121349,10.691536,-1.548474,1.307840,0.091734,0.968968,-0.877739,0.695045,-0.640177,-0.656184,-0.753771,-0.032240,-0.014557,97.958178,1.166908,3.883122
09163,NaN,0.977133,9.972703,-1.065175,1.224382,-0.192508,0.187658,-0.928154,0.818843,-0.645087,-0.659530,-0.750589,-0.037314,-0.015633,97.446194,1.475570,4.396677
09164,NaN,0.740242,9.250134,-0.623420,1.042983,-0.456118,-0.582043,-0.914186,0.869166,-0.638463,-0.662788,-0.747407,-0.042533,-0.016911,96.944706,1.782279,4.935714
09165,NaN,0.597987,8.603497,-0.179418,0.956917,-0.744608,-1.272247,-0.824718,0.845315,-0.611136,-0.665677,-0.744500,-0.047571,-0.018177,96.497631,2.078466,5.456845
09166,NaN,0.429891,8.029963,0.213821,0.841718,-1.016660,-1.877431,-0.684848,0.748209,-0.555950,-0.668044,-0.742047,-0.052097,-0.019225,96.130024,2.354061,5.917145
09167,NaN,0.256454,7.615676,0.394208,0.704158,-1.119553,-2.298022,-0.485441,0.575129,-0.484038,-0.669687,-0.740280,-0.055789,-0.019825,95.875046,2.600433,6.272975
09168,NaN,0.137931,7.453145,0.580259,0.629171,-1.269250,-2.471153,-0.256707,0.328313,-0.382516,-0.670537,-0.739316,-0.058308,-0.019781,95.744773,2.805555,6.481316
09169,NaN,0.095329,7.458699,0.606673,0.614546,-1.288433,-2.466153,-0.019182,0.037745,-0.261220,-0.670575,-0.739214,-0.059420,-0.019007,95.743193,2.957269,6.516607
09170,NaN,0.075739,7.609093,0.464633,0.605057,-1.168823,-2.303516,0.162193,-0.261244,-0.140341,-0.670022,-0.739778,-0.059107,-0.017472,95.835644,3.058491,6.374382
09171,NaN,0.168452,7.787899,0.189648,0.687194,-0.920562,-2.105807,0.263748,-0.485222,-0.023049,-0.669142,-0.740736,-0.057612,-0.015479,95.979381,3.105167,6.097568
09172,NaN,0.263613,8.003103,0.001247,0.777296,-0.768689,-1.880221,0.281036,-0.603140,0.076100,-0.668222,-0.741779,-0.055362,-0.013369,96.128433,3.104384,5.747615
09173,NaN,0.389638,8.194915,-0.152924,0.894270,-0.647327,-1.681695,0.232649,-0.636968,0.159202,-0.667474,-0.742679,-0.052680,-0.011431,96.249026,3.057923,5.373199
09174,NaN,0.386202,8.289503,-0.300754,0.871691,-0.531837,-1.571770,0.158397,-0.624691,0.237582,-0.666989,-0.743340,-0.049751,-0.009813,96.327193,2.967954,5.000838
09175,NaN,0.364465,8.316290,-0.332860,0.830153,-0.520747,-1.539604,0.102092,-0.622007,0.315133,-0.666698,-0.743825,-0.046530,-0.008485,96.374034,2.832737,4.624987
09176,NaN,0.317520,8.285362,-0.407847,0.750489,-0.459259,-1.557983,0.066475,-0.625446,0.400557,-0.666531,-0.744200,-0.042987,-0.007429,96.400773,2.650663,4.241729
09177,NaN,0.212601,8.278281,-0.554701,0.603294,-0.331478,-1.541722,0.068777,-0.602679,0.484618,-0.666335,-0.744591,-0.039198,-0.006746,96.430886,2.418073,3.865987
09178,NaN,0.070891,8.307435,-0.611534,0.421857,-0.297540,-1.498493,0.056306,-0.566037,0.551801,-0.666168,-0.744939,-0.035288,-0.006417,96.455828,2.146443,3.506804
09179,NaN,-0.069863,8.333710,-0.630594,0.238373,-0.297118,-1.463558,0.022075,-0.518927,0.592094,-0.666106,-0.745169,-0.031374,-0.006413,96.464103,1.847518,3.171798
09180,NaN,-0.230474,8.391348,-0.574088,0.035983,-0.372280,-1.406897,0.002187,-0.463096,0.632468,-0.666101,-0.745324,-0.027504,-0.006745,96.463347,1.523451,2.866074
09181,NaN,-0.389724,8.414899,-0.467860,-0.168378,-0.490488,-1.391753,0.001977,-0.433882,0.655745,-0.666079,-0.745471,-0.023635,-0.007272,96.464896,1.182830,2.575477
09182,NaN,-0.510424,8.497553,-0.315261,-0.334202,-0.659023,-1.326106,0.028112,-0.445094,0.679453,-0.665953,-0.745694,-0.019649,-0.007825,96.482742,0.830905,2.276995
09183,NaN,-0.534426,8.535687,-0.231491,-0.410110,-0.751420,-1.300105,0.054917,-0.483261,0.678800,-0.665716,-0.745998,-0.015532,-0.008238,96.517772,0.480587,1.956638
09184,NaN,-0.560202,8.601894,-0.129187,-0.487746,-0.867707,-1.249276,0.097617,-0.510614,0.674861,-0.665313,-0.746429,-0.011347,-0.008525,96.578880,0.135945,1.620744
09185,NaN,-0.585303,8.668892,-0.029456,-0.565579,-0.984040,-1.198476,0.127796,-0.532077,0.650511,-0.664787,-0.746948,-0.007176,-0.008657,96.659442,-0.194322,1.273771
09186,NaN,-0.520303,8.656187,0.012206,-0.553038,-1.033669,-1.220489,0.159980,-0.571603,0.609751,-0.664133,-0.747560,-0.003034,-0.008496,96.760303,-0.496882,0.906560
09187,NaN,-0.399187,8.608670,0.015606,-0.481244,-1.043658,-1.271741,0.197021,-0.608780,0.561663,-0.663330,-0.748283,0.001057,-0.008043,96.884528,-0.770079,0.520813
09188,NaN,-0.240291,8.592203,0.004817,-0.367136,-1.046673,-1.289002,0.221466,-0.626490,0.505559,-0.662427,-0.749074,0.004989,-0.007331,97.024494,-1.008003,0.128285
09189,NaN,-0.073113,8.502976,0.000805,-0.237777,-1.050425,-1.377886,0.225428,-0.605912,0.432684,-0.661501,-0.749867,0.008586,-0.006462,97.167910,-1.206169,-0.248039
09190,NaN,0.031937,8.364834,-0.030231,-0.161962,-1.022008,-1.511992,0.214050,-0.552644,0.353262,-0.660614,-0.750615,0.011703,-0.005521,97.305170,-1.360923,-0.588808
09191,NaN,0.013120,8.237812,0.004662,-0.203269,-1.058437,-1.645676,0.205013,-0.479007,0.274015,-0.659761,-0.751326,0.014286,-0.004602,97.436791,-1.476422,-0.882313
09192,NaN,-0.068603,8.269736,0.056081,-0.305931,-1.129998,-1.625756,0.213653,-0.397530,0.211168,-0.658877,-0.752063,0.016356,-0.003775,97.572622,-1.560470,-1.125056
09193,NaN,-0.125747,8.341801,0.112429,-0.381923,-1.212879,-1.566651,0.234328,-0.364741,0.173076,-0.657916,-0.752866,0.018182,-0.002955,97.719828,-1.625919,-1.346514
09194,NaN,-0.139793,8.540560,0.112750,-0.415700,-1.260433,-1.373975,0.263806,-0.347131,0.149189,-0.656842,-0.753764,0.019853,-0.002118,97.884008,-1.677444,-1.556261
09195,NaN,-0.153017,8.862028,0.088226,-0.451617,-1.303506,-1.056913,0.287968,-0.314975,0.140572,-0.655678,-0.754737,0.021391,-0.001383,98.061346,-1.727097,-1.747251
09196,NaN,-0.209381,9.239738,0.100151,-0.533322,-1.392074,-0.691050,0.287705,-0.294616,0.128760,-0.654512,-0.755707,0.022812,-0.000679,98.238623,-1.770027,-1.925859
09197,NaN,-0.277871,9.604931,0.041247,-0.624803,-1.408106,-0.327941,0.244406,-0.266907,0.120403,-0.653513,-0.756531,0.024117,-0.000054,98.390271,-1.811037,-2.088199
09198,NaN,-0.388758,9.970481,-0.015172,-0.758251,-1.421750,0.034418,0.184300,-0.235439,0.113161,-0.652740,-0.757160,0.025285,0.000489,98.507449,-1.849176,-2.232168
09199,NaN,-0.471826,10.284544,-0.053714,-0.862998,-1.441707,0.344775,0.128876,-0.229633,0.117902,-0.652180,-0.757602,0.026458,0.000996,98.592299,-1.891207,-2.373324
09200,NaN,-0.551888,10.577291,-0.176155,-0.961872,-1.371020,0.647226,0.081335,-0.228793,0.130366,-0.651795,-0.757889,0.027669,0.001471,98.650623,-1.939230,-2.515125
09201,NaN,-0.534940,10.710058,-0.306203,-0.957278,-1.267522,0.796849,0.017594,-0.229864,0.120363,-0.651655,-0.757964,0.028850,0.001986,98.671813,-1.982269,-2.656700
09202,NaN,-0.352569,10.749380,-0.417989,-0.781774,-1.169369,0.858282,-0.051812,-0.215054,0.094304,-0.651774,-0.757820,0.029879,0.002546,98.653673,-2.010949,-2.787643
09203,NaN,-0.105303,10.571013,-0.664234,-0.522199,-0.902641,0.728239,-0.126102,-0.148064,0.048231,-0.652189,-0.757436,0.030518,0.003008,98.590697,-2.020164,-2.876617
09204,NaN,0.091867,10.383879,-0.803675,-0.310356,-0.733765,0.572135,-0.154621,-0.036360,-0.021038,-0.652721,-0.756976,0.030526,0.003282,98.509782,-1.998971,-2.896363
09205,NaN,0.200359,10.377123,-0.927014,-0.188737,-0.603202,0.588500,-0.125732,0.092655,-0.098234,-0.653169,-0.756618,0.029825,0.003310,98.441748,-1.945696,-2.836435
09206,NaN,0.178381,10.554437,-1.071980,-0.197356,-0.475369,0.785056,-0.081190,0.207537,-0.171714,-0.653457,-0.756422,0.028467,0.003142,98.397859,-1.859609,-2.705269
09207,NaN,-0.044774,10.932184,-1.205407,-0.409260,-0.383968,1.171515,-0.020762,0.300231,-0.232158,-0.653533,-0.756426,0.026583,0.002808,98.386038,-1.747666,-2.516503
09208,NaN,-0.426718,11.536016,-1.310190,-0.783818,-0.355994,1.773390,0.052599,0.329048,-0.262558,-0.653326,-0.756677,0.024487,0.002459,98.417057,-1.620218,-2.308868
09209,NaN,-0.785990,12.351381,-1.368533,-1.138974,-0.416510,2.579909,0.109375,0.299018,-0.287226,-0.652903,-0.757106,0.022399,0.002293,98.480493,-1.477079,-2.116066
09210,NaN,-1.234019,13.346148,-1.456309,-1.581936,-0.482618,3.567437,0.168889,0.218587,-0.269449,-0.652238,-0.757730,0.020639,0.002371,98.580662,-1.336807,-1.970194
09211,NaN,-1.550520,14.397349,-1.333769,-1.897949,-0.777204,4.583850,0.168278,0.074596,-0.241771,-0.651564,-0.758338,0.019455,0.002901,98.681634,-1.200588,-1.908026
09212,NaN,-1.710773,15.347589,-1.302469,-2.050784,-0.971395,5.517747,0.139770,-0.109956,-0.187790,-0.650974,-0.758850,0.019075,0.003961,98.769633,-1.078501,-1.954891
09213,NaN,-1.583747,15.769111,-1.252878,-1.908699,-1.103752,5.931561,0.061962,-0.313868,-0.109102,-0.650666,-0.759089,0.019656,0.005544,98.814022,-0.983360,-2.123953
09214,NaN,-1.191189,15.339263,-1.343089,-1.481855,-0.956574,5.530220,-0.124279,-0.488290,-0.078667,-0.651039,-0.758717,0.020914,0.007710,98.754222,-0.889912,-2.394494
09215,NaN,-0.668337,14.077043,-1.450420,-0.904744,-0.645504,4.310982,-0.341461,-0.556951,-0.096081,-0.652230,-0.757624,0.022321,0.010215,98.568818,-0.781396,-2.702585
09216,NaN,-0.373215,12.521614,-1.492377,-0.548855,-0.333638,2.786692,-0.474309,-0.534851,-0.136278,-0.653909,-0.756100,0.023496,0.012784,98.307705,-0.653017,-2.995218
09217,NaN,-0.193327,11.043598,-1.499457,-0.310146,-0.067215,1.329385,-0.501579,-0.501355,-0.187167,-0.655691,-0.754479,0.024367,0.015394,98.028742,-0.499966,-3.265270
09218,NaN,0.026184,9.895727,-1.504130,-0.038565,0.132926,0.195764,-0.466358,-0.462162,-0.233811,-0.657325,-0.752979,0.024937,0.018005,97.770284,-0.324716,-3.510148
09219,NaN,0.073513,9.063625,-1.400920,0.049268,0.179774,-0.643047,-0.430847,-0.380616,-0.307749,-0.658829,-0.751597,0.024962,0.020548,97.529885,-0.114841,-3.703809
09220,NaN,0.029684,8.723730,-1.162797,0.032425,0.023718,-1.011857,-0.368917,-0.311250,-0.388790,-0.660087,-0.750436,0.024461,0.023089,97.325468,0.135261,-3.852895
09221,NaN,0.004676,8.715407,-1.121545,0.046715,0.007657,-1.025550,-0.215898,-0.347025,-0.429850,-0.660763,-0.749767,0.023942,0.025881,97.206707,0.410786,-4.020031
09222,NaN,0.076011,9.266438,-1.148733,0.163762,-0.032940,-0.476513,-0.034715,-0.470885,-0.431915,-0.660730,-0.749680,0.023847,0.029122,97.191504,0.696267,-4.257771
09223,NaN,0.287821,9.973207,-1.362174,0.442267,0.069038,0.247265,0.013759,-0.579650,-0.439066,-0.660501,-0.749722,0.024091,0.032788,97.200724,0.993502,-4.556860
09224,NaN,0.427619,10.729060,-1.636043,0.667271,0.231070,1.025821,-0.117632,-0.656428,-0.480590,-0.660731,-0.749318,0.024412,0.036895,97.133447,1.319785,-4.896816
09225,NaN,0.503174,11.129726,-2.075822,0.855042,0.623173,1.470622,-0.312140,-0.692848,-0.508016,-0.661675,-0.748247,0.024714,0.041251,96.951021,1.663308,-5.256331
09226,NaN,0.498904,11.275101,-2.351408,0.956047,0.911817,1.639815,-0.481435,-0.699140,-0.506151,-0.663229,-0.746605,0.025008,0.045645,96.670490,2.004915,-5.620989
09227,NaN,0.484272,11.256628,-2.613111,1.047040,1.226433,1.640402,-0.637142,-0.676859,-0.488638,-0.665361,-0.744423,0.025258,0.049914,96.297867,2.332758,-5.976133
09228,NaN,0.313882,10.995489,-2.849924,0.974395,1.576548,1.398263,-0.780462,-0.630561,-0.455368,-0.668014,-0.741756,0.025441,0.053919,95.843234,2.636538,-6.309304
09229,NaN,0.212922,10.662398,-3.003640,0.955196,1.857135,1.068096,-0.893906,-0.557370,-0.426206,-0.671091,-0.738698,0.025458,0.057566,95.322774,2.916401,-6.605009
09230,NaN,0.249751,10.230356,-2.969546,1.039364,1.949960,0.611183,-0.946377,-0.493419,-0.383853,-0.674354,-0.735459,0.025399,0.060841,94.773518,3.166463,-6.868940
09231,NaN,0.384271,9.721172,-2.975945,1.211373,2.076653,0.072865,-1.019185,-0.401954,-0.341209,-0.677892,-0.731969,0.025167,0.063641,94.183469,3.384995,-7.085027
09232,NaN,0.461043,9.145989,-3.011372,1.316009,2.241525,-0.529763,-1.094993,-0.239525,-0.326043,-0.681706,-0.728251,0.024414,0.065805,93.555407,3.586718,-7.211005
09233,NaN,0.467317,8.483712,-2.869457,1.312870,2.241280,-1.229122,-1.168684,-0.027583,-0.343126,-0.685788,-0.724326,0.022854,0.067259,92.891883,3.789409,-7.217272
09234,NaN,0.374051,7.965822,-2.486538,1.179808,1.998510,-1.788338,-1.214694,0.183328,-0.384795,-0.690017,-0.720294,0.020400,0.068098,92.210614,4.011030,-7.103827
09235,NaN,0.267787,7.528503,-2.058833,1.027674,1.698824,-2.259810,-1.195820,0.363654,-0.412107,-0.694160,-0.716359,0.017235,0.068373,91.547641,4.245579,-6.888949
