// General information: 
//  MT Manager version: 2019.0.1 
//  XDA version: 2019.0.1 build 2740 rev 84096 built on 2019-01-30
// Device information: 
//  DeviceId: 00B4381A
//  ProductCode: MTW2-3A7G6
//  Firmware Version: 4.3.4
//  Hardware Version: 1.1.0
// Device settings: 
//  Filter Profile: human(46.1)
//  Option Flags: Orientation Smoother Disabled, AHS Disabled, ICC Disabled
// Coordinate system: ENU
PacketCounter,SampleTimeFine,Acc_X,Acc_Y,Acc_Z,FreeAcc_E,FreeAcc_N,FreeAcc_U,Gyr_X,Gyr_Y,Gyr_Z,Quat_q0,Quat_q1,Quat_q2,Quat_q3,Roll,Pitch,Yaw
11554,NaN,-1.362448,0.530143,0.238909,0.170723,-0.273575,-8.366984,0.151872,-4.172986,1.808193,-0.468669,0.239631,-0.522178,-0.671012,54.486152,54.198392,139.655659
11555,NaN,-1.864619,1.343418,1.150369,-0.131175,0.298733,-7.263620,0.288471,-3.329516,1.842499,-0.471453,0.222944,-0.517420,-0.678457,53.411902,52.222424,138.113037
11556,NaN,-2.359254,2.146706,2.056662,-0.370045,0.820427,-6.125841,0.425771,-2.931148,1.939681,-0.472914,0.206933,-0.514059,-0.685037,52.813235,50.329070,137.024174
11557,NaN,-2.471582,2.814656,2.630665,-0.682898,1.166976,-5.439924,0.486686,-3.008548,2.001619,-0.474224,0.190310,-0.510566,-0.691532,52.303960,48.370445,135.990387
11558,NaN,-2.308875,3.041270,2.061634,-0.973175,0.621336,-5.629939,0.802901,-3.305745,2.120473,-0.476055,0.171512,-0.507444,-0.697464,51.953050,46.252137,134.877774
11559,NaN,-2.002072,3.154073,0.922249,-1.395086,-0.313482,-6.240397,1.379031,-3.364894,2.282954,-0.477707,0.150673,-0.506059,-0.702138,52.021605,44.033767,133.864617
11560,NaN,-1.816939,3.324772,-0.110996,-1.826136,-1.155936,-6.698825,1.830100,-2.837508,2.318627,-0.478079,0.130429,-0.507374,-0.704983,52.629457,41.992249,133.208265
11561,NaN,-1.596210,3.645032,-1.360298,-2.511949,-2.106072,-7.178551,1.954843,-1.531677,2.122986,-0.475690,0.114962,-0.511902,-0.706017,53.769391,40.492065,133.242506
11562,NaN,-2.216516,4.027217,-1.211519,-2.374691,-2.313288,-6.405717,2.367175,-0.074717,2.015591,-0.470121,0.103882,-0.521206,-0.704656,55.659204,39.528461,134.061380
11563,NaN,-4.094618,4.905192,-0.601808,-1.706630,-2.796414,-4.294308,2.898158,0.921987,2.009618,-0.462058,0.095074,-0.534530,-0.701242,58.191409,38.851784,135.444123
11564,NaN,-6.151371,6.414079,-0.032137,-1.266145,-3.313957,-1.664967,3.333389,1.235705,2.143047,-0.452778,0.085947,-0.550005,-0.696491,61.084461,38.154379,137.011902
11565,NaN,-7.434127,7.828479,0.562609,-1.002221,-3.299670,0.432324,3.594648,0.797628,2.309983,-0.443968,0.074232,-0.565187,-0.691336,63.928474,37.192034,138.297962
11566,NaN,-7.831951,8.377902,0.802855,-0.674385,-3.125115,1.229860,3.601851,-0.095101,2.354495,-0.437382,0.059229,-0.578199,-0.686203,66.379997,35.949664,138.936945
11567,NaN,-6.765466,7.876738,0.056638,-0.961042,-3.110154,0.046960,3.495007,-0.933976,2.270631,-0.433214,0.041828,-0.588693,-0.681188,68.387843,34.544448,138.947878
11568,NaN,-4.509994,5.926482,-1.405415,-1.553967,-3.168188,-3.105721,3.745413,-1.342798,1.717764,-0.432045,0.024070,-0.598793,-0.673947,70.287454,33.357061,138.494144
11569,NaN,-0.469791,5.589543,-7.742818,-6.889211,-6.082941,-7.178239,3.732527,0.993117,-0.101183,-0.429764,0.019681,-0.613404,-0.662307,72.772779,33.594221,139.123364
11570,NaN,-0.729143,15.058475,2.209654,-7.254392,3.673044,3.071239,4.777312,6.756189,-1.177750,-0.413087,0.035374,-0.643114,-0.643826,77.965731,35.230962,143.452596
11571,NaN,-23.893194,22.870917,9.963527,6.937883,2.058010,23.955159,0.080245,7.829137,-3.870507,-0.399976,0.072842,-0.658253,-0.633574,81.006131,38.233884,148.456011
11572,NaN,-23.209895,17.179816,4.645636,6.605934,-1.641041,18.627923,-3.830227,5.139438,-4.419800,-0.395414,0.111265,-0.654318,-0.634930,80.901371,41.204121,151.715091
11573,NaN,-15.695976,4.332905,0.647875,7.842653,-4.097836,3.871156,-1.369574,2.474283,-0.716511,-0.388783,0.124199,-0.654394,-0.636546,81.301436,41.832177,153.504899
11574,NaN,-14.597820,0.802153,1.885921,9.903568,-2.909308,0.711093,1.923258,0.836525,0.082895,-0.387005,0.122845,-0.662182,-0.629802,82.838972,41.856907,154.147375
11575,NaN,-13.545991,3.476263,2.724236,7.795963,-1.259995,2.046279,2.746973,-0.782263,-0.498316,-0.392814,0.116756,-0.668940,-0.620148,83.983794,42.094134,153.508554
11576,NaN,-11.104477,6.605262,1.509835,3.681005,-0.963347,2.626780,2.933307,-2.261264,-0.574476,-0.403851,0.105886,-0.673166,-0.610361,84.470616,42.297053,151.720697
11577,NaN,-9.009150,9.156412,0.252848,0.157075,-0.782893,3.010374,3.460390,-3.152365,-0.154316,-0.416660,0.089829,-0.677091,-0.599894,84.812437,42.222344,149.283825
11578,NaN,-7.450358,10.955737,-0.766129,-2.369933,-0.543909,3.233714,3.788057,-3.542126,0.484700,-0.428803,0.069644,-0.681086,-0.589406,85.189253,41.774538,146.592798
11579,NaN,-5.408641,11.686275,-3.437898,-5.299720,-1.604132,2.310550,4.030200,-3.048807,1.325531,-0.436540,0.047541,-0.686657,-0.579375,86.019018,40.888939,144.355417
11580,NaN,-4.837172,11.679915,-3.384366,-5.406376,-1.087185,2.055386,3.261911,-1.503101,1.948829,-0.436783,0.029367,-0.693170,-0.572602,87.219699,39.729352,143.311561
11581,NaN,-3.883778,10.836338,-4.238002,-5.795829,-1.527629,0.889709,1.331983,-0.015802,1.550057,-0.432569,0.021095,-0.697152,-0.571330,88.008332,38.846567,143.353292
11582,NaN,-4.836202,10.364719,-2.226298,-3.569542,-0.472567,1.268915,1.000722,0.919756,1.812510,-0.424305,0.015239,-0.702174,-0.571564,89.025005,37.827963,144.056645
11583,NaN,-7.136818,10.444679,-1.064330,-1.191189,-0.569226,2.812991,0.666562,1.289441,1.955300,-0.414200,0.010698,-0.706929,-0.573215,89.980360,36.718530,145.003796
11584,NaN,-8.762493,10.993459,-0.573652,0.199356,-0.749974,4.235642,0.484271,1.151324,2.002053,-0.404431,0.005921,-0.710787,-0.575484,90.740091,35.573262,145.809511
11585,NaN,-8.911825,11.725292,-0.672400,0.230468,-0.707012,4.911163,0.731317,0.543237,2.226905,-0.396074,-0.001853,-0.714025,-0.577313,91.364328,34.296365,146.167523
11586,NaN,-7.481571,12.132376,-1.116129,-0.829455,-0.368766,4.455376,1.220635,-0.332004,2.656250,-0.389579,-0.014708,-0.716818,-0.578086,91.914690,32.786526,145.885161
11587,NaN,-7.096839,12.225074,-2.779103,-1.716943,-1.618834,4.398553,1.557613,-0.713248,2.893639,-0.383589,-0.030113,-0.719642,-0.577986,92.516920,31.150204,145.335656
11588,NaN,-6.799694,12.937897,-4.317826,-2.737379,-2.579035,4.955907,1.450927,-0.671700,2.834164,-0.377586,-0.045025,-0.722055,-0.577960,93.082822,29.553126,144.796522
11589,NaN,-5.194242,14.251408,-5.108719,-4.473894,-2.095048,5.411106,0.812485,-0.391989,2.730343,-0.370871,-0.057485,-0.723007,-0.580010,93.382226,28.008377,144.448024
11590,NaN,-3.938518,14.989235,-4.977451,-5.185522,-1.274823,5.563697,0.479702,-0.043323,2.847500,-0.362632,-0.068782,-0.723457,-0.583419,93.599531,26.387477,144.306831
11591,NaN,-3.837389,15.456824,-4.927013,-4.990058,-1.243459,6.044458,0.290781,0.343479,2.852477,-0.352905,-0.078562,-0.723912,-0.587569,93.816074,24.747755,144.415854
11592,NaN,-4.180381,16.043882,-4.806310,-4.431300,-1.372254,6.813904,0.298491,0.597314,2.723043,-0.342630,-0.087175,-0.724737,-0.591407,94.097348,23.173738,144.670100
11593,NaN,-4.487020,16.810177,-4.550354,-3.839026,-1.319333,7.706546,0.337043,0.725018,2.521354,-0.332338,-0.094684,-0.725861,-0.594738,94.424629,21.705603,145.010997
11594,NaN,-4.611034,17.340370,-4.298622,-3.314073,-1.225699,8.296030,0.331951,0.783285,2.310502,-0.322479,-0.101276,-0.727037,-0.597635,94.752577,20.356204,145.375353
11595,NaN,-4.426419,17.203645,-4.055303,-2.881984,-1.134803,8.142700,0.329486,0.867811,2.115511,-0.312777,-0.106845,-0.728353,-0.600213,95.089827,19.108878,145.800243
11596,NaN,-4.182669,16.539552,-3.582296,-2.282536,-0.925267,7.444390,0.404858,1.038828,1.887234,-0.303132,-0.111218,-0.730178,-0.602147,95.493735,17.983380,146.318831
11597,NaN,-4.007432,16.016609,-2.750076,-1.499177,-0.370495,6.853464,0.522686,1.217966,1.616356,-0.293470,-0.114186,-0.732715,-0.603295,95.991318,16.994757,146.958891
11598,NaN,-3.846581,15.564653,-2.045530,-0.838542,0.149165,6.327519,0.692003,1.341105,1.383444,-0.284010,-0.116208,-0.735980,-0.603463,96.595747,16.128759,147.663833
11599,NaN,-3.859361,14.951931,-1.170310,0.036879,0.728181,5.656239,0.722298,1.445894,1.134238,-0.274791,-0.116986,-0.739574,-0.603187,97.228220,15.386390,148.446414
11600,NaN,-3.859903,14.273084,-0.205260,0.886058,1.404306,4.880912,0.590125,1.461591,0.799485,-0.266655,-0.116329,-0.742904,-0.602873,97.781035,14.829006,149.243343
11601,NaN,-3.892014,13.404010,0.817614,1.732282,2.089780,3.902793,0.445301,1.464105,0.449326,-0.259552,-0.114119,-0.745968,-0.602612,98.252174,14.459532,150.074125
11602,NaN,-3.781313,12.893944,1.782082,2.295936,2.902419,3.226936,0.357303,1.319702,0.175388,-0.253928,-0.111245,-0.748678,-0.602185,98.651297,14.255159,150.829944
11603,NaN,-3.803906,12.167769,2.312862,2.732257,3.240666,2.430913,0.454372,0.952243,0.057769,-0.249893,-0.109111,-0.751263,-0.601043,99.054354,14.141054,151.390014
11604,NaN,-3.685472,10.945306,2.465155,2.911594,3.193909,1.177324,0.675008,0.332130,-0.014142,-0.248354,-0.108888,-0.753747,-0.598606,99.495487,14.124556,151.584154
11605,NaN,-3.247937,10.466070,2.665640,2.740156,3.514824,0.547346,0.839174,-0.142811,-0.122718,-0.248764,-0.109833,-0.756187,-0.595176,99.965723,14.210411,151.522383
11606,NaN,-2.612767,10.094632,2.525800,2.213265,3.658208,0.027347,0.900985,-0.539667,-0.179675,-0.250877,-0.111864,-0.758322,-0.591181,100.415853,14.372628,151.226357
11607,NaN,-1.873710,9.755560,2.317821,1.556340,3.794888,-0.472974,0.856796,-0.800428,-0.257953,-0.254157,-0.114262,-0.760023,-0.587124,100.803268,14.605268,150.797928
11608,NaN,-1.484086,9.384439,2.074639,1.168317,3.724094,-0.905373,0.659482,-0.783568,-0.375026,-0.257890,-0.115958,-0.761203,-0.583623,101.082568,14.907659,150.383595
11609,NaN,-1.188492,8.944320,2.109133,0.988979,3.806600,-1.422610,0.297811,-0.650392,-0.533387,-0.261713,-0.116147,-0.761573,-0.581398,101.175778,15.282155,150.074912
11610,NaN,-0.801161,8.435738,2.231033,0.768071,3.969252,-2.038627,0.025935,-0.515845,-0.613105,-0.265478,-0.115330,-0.761360,-0.580130,101.135926,15.690185,149.843871
11611,NaN,-0.430394,7.704775,2.290621,0.552115,3.994765,-2.846151,-0.081534,-0.436800,-0.614684,-0.268936,-0.114087,-0.760925,-0.579354,101.042975,16.086432,149.667659
11612,NaN,-0.113006,6.953315,2.113935,0.262164,3.789757,-3.615996,-0.097787,-0.428236,-0.633648,-0.272490,-0.112770,-0.760458,-0.578563,100.943572,16.495811,149.488161
11613,NaN,0.100902,6.400839,1.733500,-0.074300,3.428230,-4.135755,-0.031221,-0.445513,-0.665130,-0.276091,-0.111427,-0.760159,-0.577509,100.875972,16.920576,149.310227
11614,NaN,0.264771,6.058715,1.308085,-0.419372,3.074383,-4.440407,0.055485,-0.425917,-0.682287,-0.279682,-0.110126,-0.760142,-0.576051,100.863360,17.356699,149.135871
11615,NaN,0.447311,5.862360,0.871009,-0.807229,2.767849,-4.615258,0.061151,-0.339480,-0.697259,-0.282912,-0.108481,-0.760247,-0.574646,100.865077,17.787539,149.022743
11616,NaN,0.405522,5.535403,0.390458,-1.017907,2.273001,-4.837268,-0.074260,-0.146630,-0.716151,-0.285600,-0.106062,-0.760245,-0.573769,100.827563,18.212538,149.016456
11617,NaN,0.413818,5.214746,0.151922,-1.141655,1.991579,-5.109712,-0.310511,0.122003,-0.770276,-0.287475,-0.102284,-0.759952,-0.573907,100.702796,18.634539,149.183801
11618,NaN,0.559253,4.933107,0.149223,-1.257855,1.969286,-5.429758,-0.586969,0.475772,-0.791602,-0.288270,-0.097053,-0.759381,-0.575171,100.493079,19.036415,149.554296
11619,NaN,0.670651,4.569816,0.242463,-1.281958,1.970464,-5.829552,-0.785427,0.858058,-0.790266,-0.287624,-0.090398,-0.758743,-0.577416,100.242633,19.394520,150.160605
11620,NaN,0.640127,4.176976,0.386425,-1.155001,1.933462,-6.216347,-0.809644,1.170691,-0.762250,-0.285777,-0.082947,-0.758445,-0.579839,100.047276,19.712474,150.942112
11621,NaN,0.198391,3.908137,0.442529,-0.755869,1.679657,-6.331890,-0.760094,1.402087,-0.752484,-0.282910,-0.074889,-0.758544,-0.582207,99.926722,19.998579,151.870511
11622,NaN,-0.162145,3.875049,0.506554,-0.462499,1.557069,-6.254548,-0.703450,1.558107,-0.748435,-0.279468,-0.066503,-0.758982,-0.584313,99.879859,20.273665,152.884908
11623,NaN,-0.342428,4.072035,0.682495,-0.313236,1.688746,-6.042492,-0.674156,1.689030,-0.691558,-0.275252,-0.057951,-0.759580,-0.586444,99.874936,20.498479,153.982154
11624,NaN,-0.433096,4.424372,0.724676,-0.344256,1.795452,-5.696199,-0.668634,1.806230,-0.568531,-0.270279,-0.049559,-0.760266,-0.588633,99.902186,20.647849,155.130037
11625,NaN,-0.655922,4.728229,0.625298,-0.315939,1.711071,-5.323847,-0.665813,1.867845,-0.386396,-0.264432,-0.041641,-0.760898,-0.591081,99.934157,20.682233,156.304894
11626,NaN,-0.620115,5.013113,0.561891,-0.480397,1.745868,-5.063727,-0.758699,1.847222,-0.226908,-0.258260,-0.034299,-0.761141,-0.593961,99.907662,20.634133,157.442192
11627,NaN,-0.182754,5.302224,0.494653,-0.992665,1.903703,-4.936007,-0.902126,1.818609,-0.056370,-0.251617,-0.027466,-0.760787,-0.597610,99.778869,20.488825,158.551722
11628,NaN,0.344759,5.540048,0.313896,-1.617165,1.944955,-4.861818,-1.047254,1.813996,0.150761,-0.244438,-0.021286,-0.759911,-0.601940,99.560387,20.235272,159.628247
11629,NaN,0.725222,5.672969,0.009556,-2.127482,1.762040,-4.804985,-1.179900,1.868162,0.345069,-0.236375,-0.015484,-0.758563,-0.607017,99.258497,19.865424,160.725096
11630,NaN,0.877991,5.742021,-0.318585,-2.415301,1.440739,-4.720250,-1.338931,2.037515,0.465498,-0.227362,-0.009467,-0.756847,-0.612698,98.894484,19.424050,161.903524
11631,NaN,0.681268,5.967256,-0.973130,-2.526229,0.727678,-4.325729,-1.508172,2.376910,0.522371,-0.216778,-0.002400,-0.754825,-0.619064,98.482421,18.922421,163.287862
11632,NaN,0.385202,6.225269,-1.647981,-2.520048,-0.046052,-3.874355,-1.636556,2.757313,0.548579,-0.204710,0.005854,-0.752677,-0.625729,98.063943,18.390183,164.889185
11633,NaN,-0.030046,6.627485,-2.172638,-2.347094,-0.693486,-3.281762,-1.743683,3.131609,0.490083,-0.191272,0.015635,-0.750317,-0.632609,97.634241,17.867176,166.725783
11634,NaN,-0.441255,7.347225,-2.662442,-2.205505,-1.254556,-2.408358,-1.915525,3.541522,0.374344,-0.176660,0.027278,-0.747557,-0.639692,97.174124,17.399087,168.807077
11635,NaN,-0.910892,8.132827,-2.897146,-1.922137,-1.592664,-1.498174,-2.234681,3.947518,0.291812,-0.160587,0.040827,-0.743738,-0.647610,96.581292,16.962690,171.143312
11636,NaN,-1.263858,8.615038,-3.093832,-1.625902,-1.946221,-0.927209,-2.581425,4.233649,0.274624,-0.143427,0.055592,-0.738642,-0.656313,95.829688,16.550122,173.642683
11637,NaN,-1.785683,8.747628,-3.226992,-1.030406,-2.305980,-0.661798,-2.716718,4.338325,0.273706,-0.125679,0.070797,-0.732662,-0.665131,94.993992,16.161162,176.212540
11638,NaN,-2.371341,8.798178,-3.315299,-0.323015,-2.589692,-0.474211,-2.673624,4.331094,0.226507,-0.108125,0.086047,-0.726371,-0.673268,94.174896,15.839493,178.773562
11639,NaN,-2.824817,9.027537,-3.215475,0.228697,-2.613961,-0.172850,-2.584587,4.296769,0.204472,-0.090661,0.101190,-0.719840,-0.680714,93.381322,15.562258,-178.676414
11640,NaN,-3.195752,9.394221,-2.971306,0.656358,-2.448806,0.230325,-2.512389,4.238230,0.269404,-0.073246,0.115773,-0.713164,-0.687480,92.615112,15.287106,-176.170807
11641,NaN,-3.569324,9.599654,-2.540905,1.105651,-2.074655,0.474206,-2.421086,4.141027,0.399067,-0.055658,0.129484,-0.706377,-0.693663,91.866633,14.967221,-173.717785
11642,NaN,-3.931664,9.687823,-1.898879,1.519247,-1.457228,0.602878,-2.278794,3.963917,0.519646,-0.038422,0.142018,-0.699762,-0.699063,91.164821,14.615476,-171.379531
11643,NaN,-4.164194,9.648603,-1.334850,1.804767,-0.900421,0.586761,-2.042381,3.671721,0.633850,-0.021886,0.153048,-0.693620,-0.703554,90.535805,14.224165,-169.207091
11644,NaN,-4.175903,9.589720,-0.790185,1.847005,-0.371545,0.505972,-1.642752,3.253788,0.790825,-0.006616,0.161928,-0.688717,-0.706685,90.065127,13.767213,-167.290126
11645,NaN,-4.041612,9.463383,-0.408836,1.774086,-0.004382,0.331717,-1.114164,2.762465,0.977507,0.007267,0.168384,-0.685594,-0.708206,89.810730,13.210891,-165.656433
11646,NaN,-3.916802,9.212927,-0.154188,1.751630,0.275124,0.041144,-0.612116,2.292318,1.130411,0.019585,0.172614,-0.684270,-0.708234,89.767732,12.573970,-164.308542
11647,NaN,-3.803719,8.968392,-0.234395,1.818875,0.258521,-0.243015,-0.222185,1.933888,1.219725,0.030704,0.175318,-0.684334,-0.707112,89.888730,11.883026,-163.167156
11648,NaN,-3.804447,8.813044,-0.246162,1.951926,0.352142,-0.417561,0.047027,1.715954,1.279448,0.040998,0.177030,-0.685354,-0.705173,90.122647,11.155797,-162.165728
11649,NaN,-3.818468,8.521234,-0.140157,2.081216,0.582644,-0.727589,0.214345,1.543188,1.333117,0.050804,0.177987,-0.686969,-0.702719,90.420005,10.389982,-161.263757
11650,NaN,-3.909749,8.154997,0.211394,2.204782,1.076829,-1.105657,0.337120,1.362487,1.378709,0.059968,0.178143,-0.689035,-0.699928,90.755965,9.598034,-160.481161
11651,NaN,-3.930605,7.668411,0.510917,2.283640,1.500493,-1.624460,0.443773,1.117217,1.411154,0.068358,0.177373,-0.691515,-0.696903,91.119422,8.782370,-159.840734
11652,NaN,-3.857554,7.199937,0.812446,2.258033,1.883800,-2.149081,0.633225,0.778217,1.455611,0.075499,0.175290,-0.694753,-0.693463,91.551647,7.944196,-159.411544
11653,NaN,-3.792377,6.810440,1.066256,2.236990,2.215840,-2.602600,0.929668,0.348520,1.515375,0.081161,0.171626,-0.699162,-0.689297,92.111583,7.071805,-159.232637
11654,NaN,-3.764269,6.662343,1.255043,2.239888,2.493909,-2.820329,1.272792,-0.148783,1.554953,0.084846,0.166216,-0.704942,-0.684274,92.833277,6.191425,-159.358654
11655,NaN,-3.626435,6.865872,1.195063,2.192142,2.509838,-2.698458,1.667199,-0.693278,1.622604,0.086555,0.158875,-0.712285,-0.678172,93.753353,5.289381,-159.806206
11656,NaN,-3.513620,7.156900,1.039087,2.202877,2.462471,-2.482804,1.984223,-1.272830,1.693039,0.086121,0.149403,-0.720868,-0.671276,94.829461,4.382710,-160.610251
11657,NaN,-3.299036,7.571971,0.519266,2.231061,2.060471,-2.114508,2.146825,-1.810714,1.718511,0.083732,0.138117,-0.730064,-0.664018,95.988844,3.506729,-161.732465
11658,NaN,-3.153745,8.067334,-0.143981,2.355583,1.567501,-1.624892,2.212124,-2.141525,1.772020,0.080202,0.125476,-0.739447,-0.656537,97.191533,2.645071,-163.070910
11659,NaN,-3.069662,8.556915,-0.375119,2.410772,1.517303,-1.171664,2.092846,-2.263040,1.828354,0.076512,0.112183,-0.748267,-0.649352,98.339948,1.787266,-164.491450
11660,NaN,-2.601443,8.902206,-0.611975,2.115647,1.343949,-0.862468,1.725392,-2.249064,1.823055,0.072986,0.098738,-0.755680,-0.643329,99.301188,0.958818,-165.926279
11661,NaN,-2.013212,9.031489,-0.501881,1.639995,1.441790,-0.807040,1.333779,-2.092131,1.863363,0.070392,0.085543,-0.761574,-0.638540,100.056794,0.116177,-167.279791
11662,NaN,-1.457111,8.894779,-0.336362,1.208183,1.554919,-1.010794,1.026870,-1.883791,1.904317,0.068801,0.072664,-0.766287,-0.634658,100.659198,-0.756914,-168.538447
11663,NaN,-1.065984,8.755271,-0.149571,0.939098,1.718598,-1.211792,0.872948,-1.754417,1.915392,0.067831,0.060154,-0.770281,-0.631227,101.185214,-1.636378,-169.724674
11664,NaN,-0.838393,8.793258,-0.082646,0.853582,1.836607,-1.214623,0.909093,-1.676428,1.902998,0.067053,0.047871,-0.774257,-0.627485,101.755018,-2.507757,-170.884191
11665,NaN,-0.597266,9.237015,-0.301445,0.808024,1.779399,-0.760188,1.094050,-1.584371,1.896928,0.066625,0.036013,-0.778590,-0.622946,102.437309,-3.375445,-171.991065
11666,NaN,-0.418184,10.022088,-0.588124,0.851701,1.780907,0.039313,1.309722,-1.349102,1.897112,0.066993,0.024893,-0.783428,-0.617360,103.261164,-4.257091,-172.989073
11667,NaN,-0.515900,11.051867,-0.661002,1.172069,2.122546,1.002240,1.405124,-0.813294,1.861331,0.069372,0.015668,-0.788204,-0.611290,104.123800,-5.175298,-173.686909
11668,NaN,-1.114844,12.238487,-0.096343,1.944937,3.192050,1.894382,1.155601,-0.053588,1.700223,0.074218,0.009240,-0.791884,-0.606074,104.819910,-6.104641,-173.961698
11669,NaN,-2.179194,13.022043,0.362687,3.172956,4.090058,2.338587,0.816746,0.624379,1.482636,0.081137,0.005687,-0.794153,-0.602250,105.271417,-7.008773,-173.825008
11670,NaN,-3.339155,13.400453,1.207651,4.391504,5.249043,2.242972,0.628329,1.108947,1.352719,0.089548,0.003946,-0.795637,-0.599105,105.585204,-7.918697,-173.415432
11671,NaN,-4.203341,13.268399,2.263322,5.197680,6.428003,1.611104,0.457812,1.229908,1.256554,0.098186,0.002970,-0.796430,-0.596700,105.772105,-8.792228,-172.914218
11672,NaN,-4.633786,12.796443,2.880506,5.570846,7.036346,0.816091,0.497137,1.082876,1.229129,0.106110,0.001588,-0.797408,-0.594036,105.998424,-9.633167,-172.505090
11673,NaN,-4.826771,12.041832,3.335149,5.677504,7.381237,-0.184272,0.851377,0.715009,1.255330,0.112661,-0.000697,-0.799519,-0.589980,106.447541,-10.426359,-172.297246
11674,NaN,-4.763869,11.676516,3.279257,5.667665,7.343936,-0.662386,1.414133,0.144958,1.279567,0.116971,-0.004549,-0.803606,-0.583537,107.290160,-11.145813,-172.432931
11675,NaN,-4.886799,11.936759,3.226999,5.930514,7.552606,-0.616992,1.876221,-0.446147,1.253984,0.118845,-0.009647,-0.809241,-0.575250,108.454294,-11.738587,-172.894077
11676,NaN,-5.084216,12.731193,2.698504,6.447387,7.531899,0.031503,2.152006,-0.969178,1.195799,0.118414,-0.015953,-0.815915,-0.565691,109.853100,-12.197375,-173.659840
11677,NaN,-5.161168,13.526646,2.484158,6.805313,7.812510,0.599950,2.192769,-1.439242,1.152320,0.115936,-0.023270,-0.822770,-0.555938,111.322604,-12.512415,-174.674194
11678,NaN,-4.767146,13.708840,2.205727,6.631349,7.748944,0.746496,1.903588,-1.949948,1.041327,0.110978,-0.031827,-0.829019,-0.547173,112.701161,-12.640613,-175.964009
11679,NaN,-3.993207,13.245633,1.631342,6.014282,7.096995,0.556071,1.604202,-2.394096,0.937852,0.103824,-0.041218,-0.834472,-0.539609,113.942863,-12.577467,-177.459803
11680,NaN,-3.218126,12.611090,1.067228,5.338477,6.368953,0.260523,1.432887,-2.735726,0.858475,0.094969,-0.051391,-0.839511,-0.532505,115.131307,-12.367787,-179.128538
11681,NaN,-2.290090,12.210409,0.560337,4.510303,5.796835,0.222485,1.339364,-3.058782,0.747305,0.084392,-0.061872,-0.844195,-0.525722,116.271552,-11.978342,179.078615
11682,NaN,-1.368546,12.207267,-0.053057,3.734379,5.344397,0.598046,1.287952,-3.268723,0.648525,0.072648,-0.072607,-0.848661,-0.518869,117.397785,-11.458284,177.201667
11683,NaN,-0.732150,12.678297,-0.711751,3.289774,5.105580,1.362757,1.248152,-3.236359,0.589248,0.060820,-0.082896,-0.852712,-0.512163,118.459320,-10.873229,175.381650
11684,NaN,-0.269679,13.474785,-1.236806,3.044218,5.159271,2.323444,0.929034,-2.956733,0.454239,0.049720,-0.092071,-0.855734,-0.506726,119.298828,-10.276802,173.746047
11685,NaN,0.212418,14.188312,-2.146133,2.709099,4.814962,3.432538,0.166832,-2.354005,0.160300,0.040071,-0.098510,-0.856581,-0.504934,119.597418,-9.679119,172.521700
11686,NaN,-0.206805,14.395934,-1.019961,3.189282,5.851956,2.990010,-0.065076,-1.840200,0.228518,0.032699,-0.104105,-0.856673,-0.504187,119.730554,-9.264980,171.528540
11687,NaN,-0.810764,13.877423,-0.383714,3.706821,6.022871,2.161083,-0.591562,-1.509626,0.150127,0.026255,-0.108487,-0.855286,-0.505992,119.504697,-8.899308,170.738464
11688,NaN,-1.134260,12.871936,-0.088275,3.827987,5.658500,1.155782,-0.984117,-1.245739,0.041287,0.020465,-0.111903,-0.852947,-0.509451,119.045012,-8.564820,170.098193
11689,NaN,-1.393572,11.800152,0.276498,3.867597,5.313536,0.090244,-1.220713,-0.940979,-0.050269,0.015600,-0.114044,-0.849892,-0.514232,118.397674,-8.268206,169.649201
11690,NaN,-1.533184,10.891825,0.549001,3.815824,4.990271,-0.767333,-1.368615,-0.726830,-0.153598,0.011302,-0.115327,-0.846529,-0.519577,117.666914,-7.988690,169.320858
11691,NaN,-1.556739,10.245653,0.529424,3.670697,4.557353,-1.243457,-1.370448,-0.690469,-0.220442,0.006974,-0.116098,-0.843059,-0.525095,116.905208,-7.682535,169.039263
11692,NaN,-1.683642,9.943146,0.256188,3.667060,4.044457,-1.329773,-1.252320,-0.803660,-0.256678,0.002152,-0.117130,-0.839962,-0.529848,116.240141,-7.338876,168.691267
11693,NaN,-1.860836,10.141105,-0.382708,3.756100,3.409472,-0.828427,-1.085128,-0.981470,-0.284442,-0.003403,-0.118379,-0.837185,-0.533944,115.654974,-6.933510,168.268127
11694,NaN,-1.998870,10.955500,-1.203797,3.881391,2.869721,0.295007,-0.974780,-1.098591,-0.345459,-0.009535,-0.119811,-0.834783,-0.537300,115.160198,-6.478483,167.782061
11695,NaN,-2.199388,12.131617,-2.245831,4.054224,2.231455,1.833683,-1.236655,-1.029150,-0.520898,-0.016018,-0.120174,-0.831633,-0.541930,114.477775,-5.947094,167.383907
11696,NaN,-2.489210,13.238612,-2.876614,4.305063,1.869918,3.137092,-1.422851,-1.001445,-0.663535,-0.022868,-0.119976,-0.828099,-0.547115,113.705923,-5.359627,167.014254
11697,NaN,-3.143209,14.207732,-2.184853,5.057194,2.515526,3.774183,-1.507617,-1.292491,-0.725684,-0.031159,-0.120163,-0.824150,-0.552600,112.868428,-4.671591,166.509997
11698,NaN,-3.220493,14.632652,-2.659998,4.910518,1.996710,4.450934,-1.770129,-1.715720,-0.868725,-0.041724,-0.121005,-0.819483,-0.558627,111.914591,-3.830697,165.789292
11699,NaN,-2.880364,14.560958,-3.250397,4.201622,1.265569,4.734345,-1.830725,-1.861113,-0.887922,-0.052989,-0.122008,-0.814369,-0.564898,110.893895,-2.954282,164.993448
11700,NaN,-2.596374,14.269459,-3.176745,3.643979,1.051972,4.541859,-2.008141,-1.706120,-0.914092,-0.063772,-0.122531,-0.808763,-0.571683,109.782772,-2.117220,164.258536
11701,NaN,-2.345329,13.586631,-2.908425,3.113182,0.873494,3.901837,-2.298539,-1.479032,-1.030350,-0.074157,-0.121684,-0.802189,-0.579816,108.463781,-1.268227,163.662707
11702,NaN,-2.414727,12.673704,-2.453400,2.933286,0.724761,2.967423,-2.425562,-1.319215,-1.110761,-0.084171,-0.120113,-0.795296,-0.588212,107.088743,-0.425210,163.137270
11703,NaN,-2.498744,11.770001,-2.079347,2.771301,0.526278,2.067213,-2.484595,-1.295877,-1.216192,-0.094442,-0.117870,-0.787997,-0.596865,105.644865,0.466171,162.631833
11704,NaN,-2.307492,10.941892,-1.946679,2.310537,0.248722,1.297148,-2.496395,-1.362929,-1.321825,-0.105253,-0.115510,-0.780627,-0.605145,104.212327,1.405344,162.072101
11705,NaN,-2.007565,10.188359,-1.981983,1.720893,-0.091659,0.617215,-2.369027,-1.412418,-1.388421,-0.116382,-0.112950,-0.773336,-0.612903,102.814958,2.381344,161.480231
11706,NaN,-1.771588,9.633642,-2.127812,1.190648,-0.458358,0.129057,-2.209913,-1.435969,-1.437421,-0.127611,-0.110470,-0.766494,-0.619676,101.524020,3.366060,160.848272
11707,NaN,-1.548034,9.188555,-2.534230,0.599561,-1.010721,-0.228278,-2.058398,-1.456509,-1.500646,-0.139025,-0.107758,-0.759841,-0.625861,100.280205,4.381172,160.198139
11708,NaN,-1.338158,9.028524,-2.955693,0.019355,-1.490191,-0.335668,-1.937681,-1.455936,-1.568287,-0.150532,-0.104977,-0.753573,-0.631227,99.119376,5.413617,159.524022
11709,NaN,-1.156047,9.000442,-3.153127,-0.466059,-1.732488,-0.375432,-1.896830,-1.382469,-1.646942,-0.161976,-0.101554,-0.747239,-0.636462,97.946078,6.476694,158.884253
11710,NaN,-0.972429,8.779019,-3.333311,-0.937650,-1.978959,-0.629769,-2.005227,-1.239235,-1.741559,-0.173188,-0.097337,-0.740700,-0.641791,96.732949,7.563199,158.302107
11711,NaN,-0.796369,8.321500,-3.439038,-1.348881,-2.196381,-1.149033,-2.151639,-0.970674,-1.830438,-0.183739,-0.091665,-0.733669,-0.647740,95.418254,8.676612,157.861452
11712,NaN,-0.651765,7.877576,-3.264513,-1.597173,-2.156054,-1.692775,-2.250665,-0.640792,-1.920668,-0.193361,-0.084600,-0.726629,-0.653808,94.090733,9.809788,157.581824
11713,NaN,-0.590785,7.656788,-2.990705,-1.734122,-2.020208,-2.013565,-2.246392,-0.336614,-2.013602,-0.202147,-0.076077,-0.719634,-0.659906,92.762972,10.984080,157.460891
11714,NaN,-0.598504,7.848442,-2.571205,-1.802343,-1.713120,-1.914624,-2.092404,-0.120672,-2.083174,-0.210270,-0.066842,-0.713363,-0.665156,91.565792,12.185413,157.434735
11715,NaN,-0.727318,8.215090,-2.302141,-1.861191,-1.563462,-1.602725,-1.876519,-0.082044,-2.108254,-0.218232,-0.057497,-0.707576,-0.669631,90.467616,13.404693,157.412096
11716,NaN,-0.884126,8.660871,-2.168303,-1.981486,-1.530429,-1.197560,-1.740802,-0.284264,-2.116273,-0.226845,-0.049044,-0.702019,-0.673280,89.435781,14.623034,157.241282
11717,NaN,-0.715333,9.048025,-2.365898,-2.530406,-1.688133,-0.940385,-1.665599,-0.565033,-2.081069,-0.236271,-0.041637,-0.696124,-0.676649,88.370668,15.819112,156.884741
11718,NaN,-0.255376,9.333545,-2.725133,-3.383825,-1.887666,-0.891513,-1.607761,-0.887062,-1.983656,-0.246427,-0.035819,-0.690025,-0.679600,87.293892,16.941508,156.308427
11719,NaN,0.276086,9.456480,-3.168163,-4.288968,-2.143886,-1.063910,-1.595199,-1.223280,-1.856251,-0.257262,-0.031501,-0.683276,-0.682611,86.124904,17.972193,155.512612
11720,NaN,0.938770,9.480031,-3.477037,-5.217090,-2.215084,-1.403688,-1.660562,-1.428256,-1.782029,-0.268504,-0.028140,-0.676023,-0.685644,84.880711,18.931720,154.565786
11721,NaN,1.182619,9.622949,-3.948117,-5.882166,-2.592162,-1.550631,-1.783435,-1.363665,-1.693094,-0.279179,-0.024605,-0.668164,-0.689210,83.536262,19.825617,153.639055
11722,NaN,1.013333,9.743594,-4.200606,-6.095937,-2.951069,-1.582644,-1.900962,-1.123100,-1.587736,-0.288655,-0.020509,-0.660218,-0.693087,82.175944,20.653922,152.835250
11723,NaN,0.903248,10.114595,-4.172167,-6.316086,-3.087721,-1.380948,-1.934331,-0.979596,-1.480978,-0.295088,-0.014184,-0.651914,-0.698377,80.752661,21.403431,152.447621
11724,NaN,0.871139,10.555671,-4.166928,-6.654281,-3.174267,-1.141889,-1.827582,-0.980128,-1.322340,-0.303053,-0.010594,-0.644169,-0.702205,79.438918,22.058747,151.708772
11725,NaN,1.038540,10.818559,-4.591580,-7.232903,-3.602762,-1.216041,-1.618081,-1.084509,-1.118030,-0.308771,-0.006707,-0.636604,-0.706648,78.166162,22.560007,151.197561
11726,NaN,1.415384,10.886777,-5.434418,-8.062255,-4.246359,-1.625956,-1.329890,-1.118197,-0.885418,-0.315535,-0.005783,-0.630217,-0.709388,77.102002,22.923769,150.397868
11727,NaN,2.076844,10.764494,-6.221701,-8.961118,-4.722877,-2.310190,-1.057955,-0.869828,-0.626777,-0.319119,-0.003963,-0.624877,-0.712514,76.219039,23.152065,150.001934
11728,NaN,2.837762,10.540320,-6.694712,-9.738076,-4.824883,-3.040746,-0.960627,-0.386099,-0.438843,-0.321949,-0.002433,-0.620876,-0.714742,75.555712,23.347303,149.698188
11729,NaN,3.601737,10.270870,-6.831905,-10.308373,-4.677851,-3.730613,-1.035118,0.276212,-0.377712,-0.321762,0.002012,-0.617485,-0.717758,74.984909,23.594099,149.912697
11730,NaN,3.972843,10.435087,-6.716603,-10.643053,-4.521846,-3.807410,-0.973128,0.985658,-0.358564,-0.320035,0.008223,-0.615598,-0.720104,74.649196,23.945546,150.445809
11731,NaN,3.625228,11.163415,-6.779832,-10.705911,-4.915084,-3.107932,-0.588475,1.510422,-0.228688,-0.315739,0.015696,-0.615769,-0.721728,74.656472,24.299196,151.389877
11732,NaN,2.607621,12.426008,-7.256316,-10.604323,-5.959805,-1.695610,-0.053880,1.740996,0.011692,-0.310369,0.022028,-0.618339,-0.721694,75.069248,24.558489,152.445733
11733,NaN,1.910086,13.511523,-7.974191,-10.696817,-7.044910,-0.552985,0.288107,1.767113,0.264432,-0.303720,0.027365,-0.622062,-0.721140,75.692339,24.666374,153.604189
11734,NaN,1.175281,13.640771,-7.763603,-9.956350,-7.231222,0.000742,-0.004487,1.679729,0.327923,-0.297351,0.032410,-0.624657,-0.721343,76.145550,24.723615,154.678414
11735,NaN,1.236191,12.916502,-8.433488,-9.722191,-7.911777,-0.737121,-0.233148,1.997055,0.501193,-0.289086,0.038536,-0.626796,-0.722545,76.550594,24.713701,156.002471
11736,NaN,0.741226,11.974236,-7.828319,-8.463676,-7.634116,-1.135617,-0.163420,2.963002,0.823603,-0.276810,0.046894,-0.630610,-0.723539,77.271478,24.643910,157.936427
11737,NaN,-0.139725,11.608724,-6.446447,-6.879079,-6.760256,-0.685495,-0.113878,3.705385,0.963848,-0.261441,0.057510,-0.635417,-0.724283,78.208234,24.554268,160.365688
11738,NaN,-0.723535,11.699020,-5.149358,-5.787658,-5.789364,0.030166,0.295121,4.267208,1.171688,-0.243714,0.068845,-0.642281,-0.723421,79.533571,24.372937,163.140414
11739,NaN,-1.354446,12.046807,-3.602323,-4.746700,-4.485758,1.016617,0.528978,4.435022,1.328192,-0.224691,0.080037,-0.649872,-0.721647,81.021117,24.051438,166.042069
11740,NaN,-1.652248,12.179078,-2.765071,-4.099064,-3.676314,1.517765,0.654135,4.123758,1.423873,-0.206415,0.089543,-0.657313,-0.719246,82.485898,23.588486,168.723124
11741,NaN,-1.684379,12.301212,-2.308813,-3.777021,-3.133990,1.823077,0.908901,3.578812,1.567323,-0.189299,0.096380,-0.664839,-0.716146,83.928887,22.938962,171.068421
11742,NaN,-1.756562,12.432608,-2.259594,-3.478784,-2.953827,2.100476,1.219010,3.044324,1.781818,-0.173408,0.100198,-0.672864,-0.712141,85.392731,22.090466,173.048655
11743,NaN,-1.974552,12.769794,-2.090752,-3.095137,-2.642605,2.627673,1.341378,2.682488,1.947600,-0.158015,0.102091,-0.680833,-0.707866,86.799892,21.081595,174.792215
11744,NaN,-2.450718,13.436972,-1.616494,-2.550206,-2.022489,3.550108,1.275429,2.511562,2.057444,-0.142865,0.102968,-0.688313,-0.703713,88.094902,19.973825,176.381071
11745,NaN,-3.132405,14.277294,-1.022161,-1.831324,-1.266967,4.669179,1.089832,2.392987,2.227953,-0.127269,0.102986,-0.694908,-0.700214,89.213891,18.729743,177.876057
11746,NaN,-4.044044,14.701529,-0.377771,-0.715804,-0.446223,5.415726,0.830638,2.178762,2.464540,-0.111534,0.101525,-0.700407,-0.697627,90.105320,17.330990,179.195664
11747,NaN,-4.408572,14.555028,0.605353,0.086054,0.712412,5.389945,0.577205,1.792044,2.720044,-0.095975,0.097992,-0.704709,-0.696112,90.740226,15.765166,-179.732495
11748,NaN,-4.255982,13.631716,1.530187,0.592650,1.765906,4.427889,0.468334,1.187415,2.954590,-0.081778,0.091497,-0.708301,-0.695162,91.188723,14.067064,-179.059839
11749,NaN,-3.873037,12.131910,2.046399,0.979576,2.365427,2.828608,0.715715,0.511438,3.176232,-0.069185,0.081789,-0.712363,-0.693587,91.659428,12.241074,-178.794735
11750,NaN,-3.500179,10.689850,2.266110,1.303595,2.660017,1.272020,1.162847,-0.134125,3.324229,-0.058652,0.069091,-0.717635,-0.690497,92.303906,10.346252,-178.941867
11751,NaN,-3.003719,9.535861,2.240381,1.388521,2.706736,-0.029662,1.545705,-0.728806,3.359132,-0.050162,0.054103,-0.723805,-0.686049,93.108607,8.444403,-179.450174
11752,NaN,-2.328482,8.738874,1.876399,1.175516,2.419034,-0.977154,1.784816,-1.180122,3.295485,-0.043653,0.037695,-0.730421,-0.680558,94.033408,6.608061,179.749060
11753,NaN,-1.749924,8.009060,1.361304,0.982422,1.978124,-1.801829,1.945887,-1.400555,3.231696,-0.038107,0.020735,-0.737215,-0.674264,95.056834,4.827074,178.802998
11754,NaN,-1.159606,7.266819,1.294159,0.721020,1.972716,-2.642731,1.892022,-1.257487,3.107601,-0.032503,0.004703,-0.743578,-0.667842,96.085961,3.131005,177.909696
11755,NaN,-0.954186,6.355746,1.154935,0.780450,1.838735,-3.596117,1.610690,-0.820599,2.903409,-0.025865,-0.009044,-0.748801,-0.662228,96.985283,1.533270,177.259112
11756,NaN,-1.074251,5.459700,1.238368,1.098163,1.875678,-4.543025,1.383612,-0.292175,2.636212,-0.018211,-0.020032,-0.753182,-0.657254,97.780021,0.063012,176.897936
11757,NaN,-1.262496,4.865199,1.705100,1.440998,2.301742,-5.252505,1.292329,0.161274,2.405753,-0.009526,-0.028607,-0.757151,-0.652544,98.524407,-1.312796,176.803150
11758,NaN,-1.278755,4.592652,2.296048,1.584611,2.896368,-5.677697,1.346143,0.440605,2.268812,-0.000306,-0.035792,-0.761213,-0.647514,99.301075,-2.629970,176.850288
11759,NaN,-1.266618,4.583212,2.882939,1.688452,3.530813,-5.862700,1.586571,0.434909,2.162936,0.008688,-0.042524,-0.765910,-0.641481,100.210355,-3.891388,176.897765
11760,NaN,-1.269709,4.873923,3.266882,1.816563,4.026939,-5.748032,1.982385,0.180171,2.052580,0.016339,-0.049686,-0.771787,-0.633726,101.362535,-5.059759,176.778029
11761,NaN,-1.155011,5.621229,3.261306,1.872163,4.260779,-5.132323,2.382351,-0.102378,1.933190,0.022671,-0.057221,-0.778791,-0.624257,102.758373,-6.128193,176.492997
11762,NaN,-1.235209,6.511531,2.852430,2.152602,4.168826,-4.331383,2.699130,-0.212691,1.830559,0.028284,-0.064667,-0.786652,-0.613348,104.354207,-7.112997,176.125862
11763,NaN,-1.478935,7.320733,2.366431,2.603677,4.027621,-3.618009,2.821547,-0.111529,1.657663,0.033851,-0.071064,-0.794695,-0.601883,106.014015,-8.010035,175.818819
11764,NaN,-1.710539,8.053142,2.107532,3.045235,4.129588,-3.038601,2.676245,0.175172,1.414729,0.039712,-0.075663,-0.802166,-0.590955,107.574813,-8.808787,175.679166
11765,NaN,-2.171682,8.716597,1.902811,3.696921,4.273619,-2.575303,2.379100,0.650366,1.180775,0.046719,-0.077931,-0.808558,-0.581358,108.916294,-9.564697,175.830101
11766,NaN,-3.131608,9.418555,1.966690,4.837513,4.671701,-2.252767,2.033351,1.262213,1.017331,0.055528,-0.077858,-0.813749,-0.573295,110.002655,-10.348981,176.325506
11767,NaN,-3.989899,10.143114,2.464944,5.860303,5.516673,-2.060521,1.546468,1.827572,0.930070,0.066268,-0.075848,-0.817257,-0.567403,110.737029,-11.209008,177.149966
11768,NaN,-4.726582,10.333560,3.334604,6.613470,6.535308,-2.478469,0.887001,2.195020,0.884290,0.078039,-0.072897,-0.818686,-0.564225,111.046838,-12.124651,178.165637
11769,NaN,-5.371952,9.908917,3.808248,7.116722,6.951813,-3.288156,0.354221,2.269604,0.795888,0.089712,-0.069509,-0.818457,-0.563248,111.015080,-13.011847,179.252029
11770,NaN,-5.716072,9.729863,4.094457,7.361114,7.275674,-3.731181,0.359211,2.010341,0.726507,0.100066,-0.066616,-0.818306,-0.562072,111.006995,-13.807221,-179.795582
11771,NaN,-5.736566,10.160177,4.529985,7.405899,7.954262,-3.604766,0.700204,1.354533,0.653688,0.107661,-0.065054,-0.819354,-0.559318,111.258979,-14.430022,-179.181843
11772,NaN,-5.098385,10.986893,3.917418,7.025787,7.788005,-2.599170,0.990789,0.558671,0.478616,0.111570,-0.064878,-0.821692,-0.555127,111.782098,-14.796340,-178.977573
11773,NaN,-3.985338,11.903557,2.812300,6.280162,7.192372,-1.192103,1.047880,0.091524,0.139095,0.112567,-0.064652,-0.824493,-0.550782,112.377504,-14.882640,-178.969020
11774,NaN,-2.941570,12.626934,1.645933,5.543164,6.483882,0.088459,0.943659,0.040773,-0.239856,0.112340,-0.062978,-0.827175,-0.546988,112.905292,-14.758597,-178.891372
11775,NaN,-2.213548,12.895183,0.813192,4.927403,5.902775,0.804445,0.601270,0.330332,-0.670627,0.111949,-0.059006,-0.828833,-0.544997,113.164433,-14.471001,-178.567213
11776,NaN,-1.654365,12.609704,0.295808,4.267341,5.353989,0.908871,0.057529,0.874409,-1.140790,0.112440,-0.051821,-0.828853,-0.545595,113.021841,-14.060056,-177.826502
11777,NaN,-1.343230,11.910504,0.027963,3.700105,4.811372,0.522786,-0.472579,1.629142,-1.566564,0.114520,-0.041416,-0.827003,-0.548850,112.456619,-13.584531,-176.626006
11778,NaN,-1.657391,11.282870,0.259628,3.663443,4.758761,-0.114917,-0.743281,2.442679,-1.862917,0.119301,-0.027389,-0.823884,-0.553382,111.634629,-13.114269,-174.880454
11779,NaN,-2.480069,11.372287,1.119831,4.113433,5.615755,-0.417472,-0.903637,2.990141,-2.103298,0.125406,-0.011206,-0.819754,-0.558706,110.654789,-12.598973,-172.833003
11780,NaN,-3.279771,12.242732,2.264219,4.519463,7.059379,-0.040453,-1.046559,3.136992,-2.285497,0.131753,0.006311,-0.814862,-0.564447,109.596104,-11.981571,-170.644345
11781,NaN,-4.012565,13.495163,3.335478,4.822358,8.567274,0.802255,-1.034676,2.812203,-2.317345,0.136415,0.022785,-0.809891,-0.570043,108.602906,-11.243908,-168.685378
11782,NaN,-4.369437,14.795938,3.843995,4.825257,9.499435,1.987770,-0.781020,2.003646,-2.201356,0.138283,0.036915,-0.805987,-0.574369,107.878433,-10.399062,-167.173271
11783,NaN,-4.374621,16.147859,3.700230,4.665900,9.754217,3.478490,-0.350382,0.841979,-2.025547,0.135454,0.046767,-0.804039,-0.577050,107.541977,-9.430266,-166.425805
11784,NaN,-4.311377,17.857236,2.835804,4.654390,9.441977,5.506772,-0.100008,-0.232503,-1.960803,0.128833,0.053950,-0.803444,-0.578765,107.458739,-8.312517,-166.212426
11785,NaN,-4.010916,19.962327,1.567411,4.517574,8.791728,8.056916,-0.046281,-1.015575,-2.004175,0.118344,0.058341,-0.803477,-0.580530,107.470642,-7.032676,-166.531670
11786,NaN,-3.530380,21.290551,0.377042,4.056573,7.876630,9.869314,-0.202272,-1.585272,-1.940845,0.106345,0.061452,-0.803232,-0.582866,107.421166,-5.693254,-167.068049
11787,NaN,-2.763115,21.031509,-0.802057,3.252363,6.299235,10.195448,-0.953561,-1.755214,-1.844065,0.093466,0.062392,-0.800881,-0.588184,106.945196,-4.376787,-167.848250
11788,NaN,-1.712395,19.415962,-1.833722,2.147056,4.285564,9.168329,-1.677188,-1.366190,-1.599879,0.083758,0.064029,-0.796050,-0.595978,106.023958,-3.269460,-168.339885
11789,NaN,-1.318836,17.005985,-1.734019,1.539878,3.205569,6.958832,-2.288973,-1.020141,-1.387390,0.075589,0.064802,-0.789257,-0.605938,104.741777,-2.337548,-168.810427
11790,NaN,-0.846533,14.747986,-1.686776,0.935509,2.154893,4.868248,-2.540286,-0.979039,-1.379628,0.068312,0.066348,-0.781427,-0.616687,103.304845,-1.428508,-169.163629
11791,NaN,-0.691935,13.338613,-1.502883,0.636220,1.588849,3.518253,-2.448085,-1.067232,-1.413467,0.059889,0.067034,-0.773812,-0.627004,101.921179,-0.494145,-169.697090
11792,NaN,-1.072257,12.790502,-1.411902,0.862301,1.287799,3.006326,-2.237392,-1.209118,-1.486059,0.051247,0.068350,-0.766614,-0.636400,100.646233,0.482586,-170.210491
11793,NaN,-1.744259,13.057107,-1.347599,1.342816,1.193738,3.306300,-1.986705,-1.281332,-1.520026,0.041459,0.068898,-0.760164,-0.644736,99.511594,1.479045,-170.894041
11794,NaN,-2.410971,13.837250,-0.983769,1.732365,1.467942,4.082749,-1.854876,-1.357099,-1.485002,0.032099,0.069808,-0.753919,-0.652458,98.433960,2.446915,-171.530626
11795,NaN,-2.842539,14.398665,-1.076590,1.956286,1.200640,4.722802,-1.738537,-1.662156,-1.428175,0.021083,0.068849,-0.748078,-0.659693,97.408885,3.399372,-172.469331
11796,NaN,-2.764661,14.447741,-1.486192,1.733584,0.484998,4.861714,-1.507105,-2.135697,-1.364864,0.009059,0.066773,-0.742818,-0.666093,96.476559,4.329717,-173.593131
11797,NaN,-2.475763,14.485698,-1.935404,1.281000,-0.271181,4.951676,-1.266769,-2.453907,-1.318695,-0.004174,0.063422,-0.738153,-0.671633,95.635257,5.241572,-174.928805
11798,NaN,-2.205961,14.562964,-2.330342,0.811060,-0.934557,5.047859,-1.192460,-2.563863,-1.308532,-0.017702,0.059687,-0.733628,-0.676693,94.819993,6.128170,-176.331534
11799,NaN,-1.926660,14.559445,-2.519356,0.301260,-1.392981,5.019540,-1.312433,-2.581292,-1.342440,-0.031466,0.055973,-0.728434,-0.682100,93.899649,7.019111,-177.770028
11800,NaN,-1.428677,14.139386,-2.991540,-0.383498,-2.159585,4.543169,-1.447232,-2.568428,-1.396633,-0.045225,0.052545,-0.722645,-0.687734,92.890875,7.911167,-179.205274
11801,NaN,-1.080266,13.399906,-2.996919,-0.889260,-2.445321,3.712311,-1.493839,-2.458864,-1.398444,-0.058664,0.049460,-0.716462,-0.693393,91.828208,8.780559,179.392301
11802,NaN,-0.761811,12.507960,-3.150738,-1.324548,-2.842894,2.721696,-1.573226,-2.306526,-1.447487,-0.071598,0.047126,-0.709924,-0.699043,90.722146,9.645140,178.070817
11803,NaN,-0.711014,11.567948,-3.078763,-1.459088,-2.985076,1.709214,-1.570811,-2.131799,-1.457668,-0.084021,0.045390,-0.703217,-0.704532,89.600780,10.493770,176.819534
11804,NaN,-0.517884,10.575838,-3.149775,-1.697254,-3.221336,0.616756,-1.573315,-1.897614,-1.486676,-0.095615,0.044609,-0.696507,-0.709751,88.493545,11.333320,175.696032
11805,NaN,-0.237607,9.645676,-3.161620,-1.997728,-3.354250,-0.440189,-1.628621,-1.617007,-1.556989,-0.106535,0.045050,-0.689513,-0.714977,87.356255,12.200537,174.704154
11806,NaN,0.130321,8.804515,-3.134551,-2.362479,-3.403512,-1.434623,-1.645173,-1.267771,-1.619789,-0.116367,0.046993,-0.682572,-0.719963,86.245740,13.092478,173.905593
11807,NaN,0.347253,7.953129,-3.061077,-2.536946,-3.389297,-2.408925,-1.688810,-0.846368,-1.714123,-0.125150,0.050757,-0.675518,-0.724870,85.139434,14.044004,173.319159
11808,NaN,0.436342,7.209592,-2.912353,-2.568448,-3.295060,-3.240566,-1.738146,-0.402437,-1.829010,-0.132739,0.056575,-0.668487,-0.729592,84.064657,15.071360,172.977675
11809,NaN,0.421235,6.562973,-2.626202,-2.480686,-3.066834,-3.931793,-1.797413,0.032526,-1.972368,-0.139433,0.064456,-0.661314,-0.734212,83.000548,16.204438,172.851624
11810,NaN,0.366658,5.969627,-2.471410,-2.353797,-2.961383,-4.562327,-1.802388,0.424583,-2.094012,-0.145174,0.074202,-0.654293,-0.738457,81.999571,17.431358,172.937271
11811,NaN,0.365759,5.421450,-2.185273,-2.256428,-2.706411,-5.134721,-1.724946,0.680714,-2.172939,-0.150441,0.085050,-0.647529,-0.742186,81.073834,18.727951,173.137164
11812,NaN,0.520006,5.069555,-1.888720,-2.351002,-2.427865,-5.556545,-1.606675,0.801322,-2.253283,-0.155563,0.096531,-0.641182,-0.745230,80.245004,20.081955,173.392371
11813,NaN,0.581871,4.846461,-1.756053,-2.404765,-2.324186,-5.847290,-1.429605,0.863595,-2.318997,-0.160854,0.108265,-0.635329,-0.747504,79.518833,21.484389,173.650430
11814,NaN,0.457203,4.797436,-1.774335,-2.351724,-2.400204,-5.929403,-1.230752,0.925730,-2.371550,-0.166150,0.120249,-0.630163,-0.748885,78.928392,22.923901,173.935640
11815,NaN,0.160724,5.209004,-1.818623,-2.331344,-2.577801,-5.524856,-0.995927,1.037409,-2.400847,-0.171379,0.132493,-0.625779,-0.749317,78.491939,24.396477,174.264596
11816,NaN,-0.304913,5.869892,-1.778433,-2.285983,-2.719046,-4.803582,-0.776600,1.109015,-2.380209,-0.176353,0.144758,-0.622221,-0.748857,78.215322,25.865899,174.644589
11817,NaN,-0.778489,6.677301,-1.723498,-2.337230,-2.863750,-3.939235,-0.645417,1.052799,-2.334946,-0.181458,0.156499,-0.618979,-0.747961,77.999872,27.306371,174.982923
11818,NaN,-1.132047,7.444323,-1.617719,-2.516868,-2.941695,-3.154897,-0.646251,0.870369,-2.258993,-0.186751,0.167329,-0.615570,-0.747127,77.749595,28.681992,175.223736
11819,NaN,-1.108612,7.923813,-1.532896,-2.916550,-2.973575,-2.811630,-0.728198,0.625277,-2.150454,-0.192355,0.176930,-0.611586,-0.746765,77.376899,29.969162,175.307299
11820,NaN,-0.973718,7.937921,-1.717485,-3.173610,-3.192977,-2.983389,-0.835095,0.345720,-1.990783,-0.198040,0.185109,-0.607036,-0.747009,76.867469,31.130650,175.232711
11821,NaN,-0.873019,7.734173,-1.893741,-3.272150,-3.374955,-3.326817,-0.902481,0.111200,-1.847773,-0.203873,0.191994,-0.602029,-0.747753,76.234004,32.181530,175.003009
11822,NaN,-0.516331,7.791129,-2.074512,-3.706794,-3.590177,-3.596550,-0.835943,-0.019057,-1.697438,-0.209525,0.197883,-0.597260,-0.748480,75.601490,33.127538,174.705532
11823,NaN,-0.107684,8.181814,-2.195916,-4.358074,-3.800224,-3.620788,-0.656728,-0.154008,-1.514239,-0.215105,0.202486,-0.593122,-0.748957,75.020311,33.950294,174.326233
11824,NaN,0.145365,8.810502,-2.447749,-5.004673,-4.186061,-3.404397,-0.485089,-0.332734,-1.352075,-0.220718,0.205772,-0.589594,-0.749213,74.482592,34.652832,173.852897
11825,NaN,0.329936,9.532348,-2.846897,-5.647416,-4.729467,-3.118163,-0.357327,-0.547762,-1.204929,-0.226577,0.207637,-0.586400,-0.749456,73.933499,35.236981,173.242813
11826,NaN,0.626650,9.982849,-3.422901,-6.220983,-5.368717,-3.161302,-0.342117,-0.738839,-1.061925,-0.232424,0.208369,-0.583196,-0.749962,73.330402,35.706671,172.529319
11827,NaN,1.150737,10.420958,-4.133814,-6.964476,-6.108949,-3.395197,-0.436475,-0.769442,-0.951126,-0.237869,0.208734,-0.579670,-0.750887,72.658372,36.103314,171.800430
11828,NaN,1.771066,10.787580,-4.895375,-7.728775,-6.870080,-3.767855,-0.461923,-0.502801,-0.811838,-0.241950,0.209750,-0.576513,-0.751730,72.093109,36.464532,171.280699
11829,NaN,2.105394,11.197788,-5.626273,-8.265029,-7.651864,-3.929184,-0.406833,-0.044345,-0.651432,-0.244008,0.212062,-0.574164,-0.752214,71.748524,36.815041,171.120441
11830,NaN,2.110098,11.777101,-6.061753,-8.625895,-8.235113,-3.674788,-0.418232,0.506593,-0.552825,-0.244248,0.216066,-0.572648,-0.752152,71.645910,37.211994,171.336455
11831,NaN,1.756123,12.513663,-6.052425,-8.782205,-8.495571,-2.956678,-0.562544,1.188165,-0.460084,-0.242037,0.222506,-0.571494,-0.751867,71.756210,37.678847,172.037392
11832,NaN,0.956597,13.042128,-5.729809,-8.437098,-8.482710,-2.021645,-0.699066,1.898716,-0.293574,-0.236986,0.231320,-0.570838,-0.751314,72.125270,38.181128,173.278013
11833,NaN,-0.005010,13.545194,-5.487898,-7.906394,-8.550654,-0.983048,-0.609164,2.389928,-0.013263,-0.229425,0.241117,-0.571275,-0.750248,72.805917,38.603306,174.952105
11834,NaN,-0.782244,14.090982,-5.369916,-7.510826,-8.677620,-0.000079,-0.332348,2.438856,0.345819,-0.220806,0.249645,-0.573229,-0.748553,73.738046,38.820951,176.735788
11835,NaN,-0.985076,14.338518,-5.445290,-7.329968,-8.838117,0.403480,-0.117433,2.106889,0.695003,-0.211939,0.255724,-0.575910,-0.747004,74.690337,38.768110,178.376444
11836,NaN,-0.899682,13.817968,-5.840931,-6.835901,-9.088912,0.011723,-0.123248,1.921599,0.999271,-0.202568,0.260145,-0.578759,-0.745875,75.592048,38.502321,179.922536
11837,NaN,-0.761952,13.152314,-6.167009,-6.260972,-9.239690,-0.484424,-0.187428,2.255363,1.260615,-0.191000,0.265154,-0.581901,-0.744717,76.612638,38.113095,-178.244415
11838,NaN,-1.219661,13.201468,-5.429242,-5.779903,-8.504865,0.161846,-0.128707,2.975804,1.601625,-0.176246,0.271666,-0.586333,-0.742529,77.993177,37.597950,-175.886197
11839,NaN,-2.310379,13.821556,-4.236711,-5.184069,-7.360901,1.730678,0.057060,3.617564,2.002962,-0.158146,0.279210,-0.592289,-0.739070,79.741109,36.873330,-173.036655
11840,NaN,-3.766217,14.552965,-2.371415,-4.509165,-5.415954,3.674789,0.154657,3.991505,2.409244,-0.137663,0.286635,-0.599247,-0.734705,81.662091,35.885896,-169.959726
11841,NaN,-5.210759,14.840832,-0.697287,-3.575633,-3.414073,5.134796,-0.076407,3.818179,2.733676,-0.115921,0.292554,-0.605302,-0.731153,83.297741,34.620479,-167.033251
11842,NaN,-6.320368,14.564627,0.472864,-2.496450,-1.729542,5.777492,-0.158512,3.262167,3.094627,-0.094541,0.295144,-0.611014,-0.728432,84.584122,33.060036,-164.573168
11843,NaN,-7.365744,14.079982,1.202513,-1.212991,-0.347911,6.072022,0.259429,2.384058,3.663498,-0.074156,0.292563,-0.618298,-0.725683,85.698793,31.085514,-162.736176
11844,NaN,-7.948329,13.444656,1.966129,-0.190803,1.075665,5.889706,1.069439,1.147685,4.326432,-0.056522,0.282895,-0.628796,-0.722074,86.787607,28.660838,-161.794801
11845,NaN,-7.867739,13.038102,2.471608,0.342303,2.068520,5.469771,1.835989,-0.223957,4.828137,-0.042266,0.266412,-0.641945,-0.717736,87.842790,25.893022,-161.773730
11846,NaN,-7.356971,12.864541,2.111791,0.760573,2.074843,4.990671,2.436411,-1.486049,5.111370,-0.031986,0.244067,-0.656935,-0.712632,88.896465,22.947302,-162.619031
11847,NaN,-6.576688,12.959505,1.543346,0.915797,1.756330,4.664907,2.941345,-2.440622,5.234079,-0.024823,0.217705,-0.673043,-0.706400,90.046624,19.937117,-164.072130
11848,NaN,-5.902458,13.261853,1.213851,1.008592,1.686286,4.618804,3.293687,-3.128694,5.251045,-0.020437,0.188472,-0.689626,-0.698911,91.330616,16.956071,-166.001380
11849,NaN,-5.107851,13.228486,0.642326,1.110125,1.378646,4.269564,3.430522,-3.809351,5.086276,-0.018924,0.157276,-0.705559,-0.690719,92.665427,14.121036,-168.352375
11850,NaN,-4.300574,12.963343,-0.041666,1.179840,0.949090,3.759650,3.592458,-4.258886,4.904188,-0.019880,0.124850,-0.720963,-0.681344,94.139928,11.466635,-171.022417
11851,NaN,-3.495229,12.559032,-0.676612,1.147299,0.563545,3.177058,3.692198,-4.293120,4.722805,-0.021470,0.092876,-0.735579,-0.670699,95.776016,8.984629,-173.732275
11852,NaN,-2.833659,12.291889,-0.540102,1.056359,0.971265,2.730016,3.527614,-3.907419,4.497175,-0.022437,0.062830,-0.748670,-0.659577,97.457567,6.688940,-176.277671
11853,NaN,-2.453038,11.808044,-0.072469,1.215765,1.665406,2.069010,2.970311,-3.429544,4.110966,-0.022648,0.035781,-0.759067,-0.649634,98.941963,4.638645,-178.568860
11854,NaN,-2.166952,10.974391,0.243772,1.450784,2.083320,1.083538,2.590080,-2.871407,3.785692,-0.021753,0.011810,-0.767590,-0.640463,100.304463,2.781196,179.441659
11855,NaN,-2.163817,10.038157,1.008337,1.913154,2.853871,-0.084244,2.429768,-2.265731,3.566091,-0.019172,-0.009388,-0.775154,-0.631412,101.650105,1.023807,177.777978
11856,NaN,-2.331575,9.369642,1.976730,2.496782,3.803250,-1.070733,2.247983,-1.734684,3.303317,-0.015402,-0.027850,-0.781783,-0.622737,102.940234,-0.607626,176.403376
11857,NaN,-2.645429,8.843555,2.973623,3.187916,4.742271,-1.977784,2.072705,-1.359398,3.055718,-0.010917,-0.044170,-0.787601,-0.614504,104.164133,-2.125483,175.236073
11858,NaN,-2.800578,8.402566,3.942450,3.685227,5.638326,-2.840813,2.037551,-1.149397,2.873799,-0.006204,-0.059091,-0.793068,-0.606229,105.390966,-3.543396,174.177810
11859,NaN,-2.722354,7.896373,4.954867,3.922071,6.548032,-3.808962,2.129470,-1.259439,2.708107,-0.002370,-0.073691,-0.798592,-0.597340,106.701188,-4.833001,173.052570
11860,NaN,-2.112848,7.189444,5.405526,3.539060,6.904804,-4.796679,2.402404,-1.577004,2.523142,-0.000285,-0.088458,-0.804712,-0.587038,108.206842,-5.934868,171.751350
11861,NaN,-1.115556,6.534504,5.302938,2.698882,6.809433,-5.522802,2.774790,-1.884071,2.316807,0.000148,-0.103284,-0.811699,-0.574871,109.966609,-6.833848,170.287861
11862,NaN,0.045438,6.169285,4.577020,1.639447,6.285786,-5.713451,3.073692,-2.012692,2.044395,-0.000593,-0.117307,-0.819340,-0.561178,111.922952,-7.509368,168.780841
11863,NaN,1.151985,6.265555,3.822120,0.680362,5.949765,-5.416967,3.262343,-1.832144,1.778515,-0.001209,-0.129708,-0.827301,-0.546578,113.984783,-8.035715,167.403772
11864,NaN,2.083288,6.669049,3.230889,-0.047715,5.912349,-4.884253,3.298231,-1.383598,1.463504,-0.000828,-0.139504,-0.835242,-0.531892,116.036913,-8.454265,166.320555
11865,NaN,2.212013,7.396137,2.818007,0.073226,6.026863,-4.226774,3.100190,-0.653630,1.121634,0.001575,-0.145913,-0.842611,-0.518376,117.914069,-8.854702,165.687548
11866,NaN,1.571146,8.152548,2.192826,0.876544,5.799060,-3.540568,2.619005,0.229705,0.761960,0.006396,-0.148458,-0.848801,-0.507402,119.436447,-9.294762,165.593605
11867,NaN,0.934825,8.650967,1.731749,1.604190,5.600121,-3.121279,2.013766,1.108888,0.501265,0.013854,-0.147693,-0.853466,-0.499590,120.526521,-9.858788,166.005422
11868,NaN,0.169407,8.841071,1.810082,2.418192,5.681725,-3.229483,1.474631,1.859946,0.396279,0.023838,-0.144588,-0.856705,-0.494553,121.234172,-10.594555,166.817866
11869,NaN,-0.783179,8.919068,2.155536,3.381033,5.890353,-3.593296,0.970742,2.335566,0.306501,0.035283,-0.139995,-0.858554,-0.491976,121.589829,-11.439544,167.887153
11870,NaN,-1.753043,9.055645,2.512110,4.345544,6.144029,-3.917369,0.576267,2.454383,0.214059,0.046716,-0.134725,-0.859358,-0.491091,121.688792,-12.275635,169.046344
11871,NaN,-2.543895,9.541671,2.874307,5.213776,6.622674,-3.919274,0.356472,2.285137,0.160203,0.057141,-0.129707,-0.859549,-0.491006,121.656554,-13.038450,170.137723
11872,NaN,-3.127525,10.267735,3.110353,5.937152,7.159199,-3.617741,0.284599,1.909485,0.172196,0.065921,-0.125631,-0.859588,-0.490898,121.617219,-13.690296,171.043524
11873,NaN,-3.456258,11.024340,3.328357,6.431694,7.735415,-3.228174,0.271711,1.436346,0.205728,0.072737,-0.122894,-0.859639,-0.490538,121.615928,-14.218656,171.700355
11874,NaN,-3.546883,11.659979,3.192670,6.674873,7.971734,-2.697500,0.158659,1.022342,0.154980,0.077576,-0.120952,-0.859587,-0.490371,121.597207,-14.595234,172.168983
11875,NaN,-3.301779,12.062608,2.829777,6.541085,7.920659,-2.138496,-0.027407,0.722704,0.006983,0.080642,-0.119217,-0.859235,-0.490917,121.490099,-14.811081,172.529577
11876,NaN,-2.913585,12.423601,2.514259,6.250868,7.885378,-1.572320,-0.243733,0.612568,-0.187827,0.082635,-0.116963,-0.858534,-0.492352,121.262685,-14.895898,172.899142
11877,NaN,-2.422569,12.615707,2.112776,5.801844,7.678283,-1.045090,-0.482111,0.588001,-0.386878,0.083875,-0.114052,-0.857324,-0.494926,120.878886,-14.874983,173.313457
11878,NaN,-2.127829,12.271559,1.756072,5.371136,7.202217,-1.010391,-0.736399,0.635077,-0.596964,0.084666,-0.110187,-0.855600,-0.498638,120.334632,-14.759799,173.819044
11879,NaN,-2.101893,11.556110,1.381933,5.081415,6.482516,-1.325894,-1.008741,0.779408,-0.850500,0.085264,-0.105030,-0.853196,-0.503742,119.590386,-14.555004,174.467209
11880,NaN,-1.973694,10.836513,0.879462,4.685291,5.650221,-1.553172,-1.172681,0.894335,-1.089817,0.085681,-0.098583,-0.850435,-0.509608,118.732046,-14.253312,175.244671
11881,NaN,-1.931399,10.609576,0.349575,4.496497,5.012535,-1.382430,-1.077541,0.827266,-1.239373,0.085438,-0.091665,-0.847904,-0.515128,117.923768,-13.846736,176.018141
11882,NaN,-2.188053,11.374599,-0.315014,4.837999,4.698526,-0.390181,-0.727190,0.567097,-1.313893,0.084088,-0.084901,-0.846401,-0.518967,117.359847,-13.324463,176.674742
11883,NaN,-2.548563,13.522591,-0.983951,5.564996,5.018851,1.770169,-0.232650,0.123643,-1.420554,0.080748,-0.078667,-0.846318,-0.520612,117.123540,-12.626094,177.117115
11884,NaN,-3.255913,17.269884,-1.713206,6.883168,6.042027,5.283455,0.315005,-0.380519,-1.629132,0.074982,-0.072594,-0.847938,-0.519720,117.260650,-11.690063,177.356190
11885,NaN,-4.328347,21.412980,-2.517500,8.463655,7.225851,9.153728,0.380540,-0.765436,-1.949296,0.066721,-0.066177,-0.849862,-0.518559,117.451214,-10.488624,177.476949
11886,NaN,-4.609187,23.778393,-3.794774,8.755562,7.180652,11.931456,-0.352998,-0.865641,-2.190962,0.057204,-0.059185,-0.849936,-0.520417,117.232207,-9.139602,177.616087
11887,NaN,-4.418504,23.259634,-4.273048,8.010331,6.343200,11.967122,-1.542364,-0.611137,-1.917001,0.049060,-0.053073,-0.846581,-0.527331,116.317025,-7.992267,177.793939
11888,NaN,-4.053867,19.980978,-4.820860,6.824097,4.064114,9.572976,-2.275442,0.102899,-1.541915,0.044784,-0.046789,-0.840921,-0.537268,114.961989,-7.215162,178.234147
11889,NaN,-3.742677,17.267835,-4.825763,5.897808,2.516765,7.343487,-2.641916,0.655227,-1.641187,0.042395,-0.038722,-0.833936,-0.548866,113.356288,-6.500768,178.959353
11890,NaN,-3.833614,15.910153,-4.235677,5.567803,2.125182,6.006112,-2.676257,0.682573,-1.846307,0.039611,-0.029676,-0.826726,-0.560423,111.748023,-5.667602,179.731152
11891,NaN,-3.987639,15.154272,-4.345218,5.371710,1.350756,5.475601,-2.754464,0.119460,-2.112753,0.033649,-0.021154,-0.819153,-0.572197,110.120877,-4.550409,-179.778688
11892,NaN,-3.626181,14.781789,-4.958810,4.665382,0.232781,5.497191,-2.804247,-0.567340,-2.368101,0.024207,-0.013511,-0.811372,-0.583873,108.511471,-3.156257,-179.636089
11893,NaN,-2.549220,14.560688,-6.111393,3.209664,-1.366925,5.796959,-2.672073,-0.915404,-2.509744,0.012852,-0.006328,-0.803684,-0.594883,106.978517,-1.615149,-179.706523
11894,NaN,-1.841779,14.727973,-6.157930,2.088057,-1.775332,6.020379,-2.482576,-0.776921,-2.525760,0.002094,0.001385,-0.796335,-0.604851,105.563324,-0.095043,-179.728469
11895,NaN,-1.361549,15.094913,-5.947812,1.179756,-1.887379,6.315005,-2.632675,-0.341154,-2.726249,-0.007626,0.011178,-0.788192,-0.615281,104.053224,1.477052,-179.527982
11896,NaN,-1.193739,15.472028,-5.054754,0.562734,-1.351977,6.441031,-2.631342,-0.023705,-2.886083,-0.016495,0.022607,-0.779822,-0.625376,102.567100,3.095544,-179.160649
11897,NaN,-1.216397,15.327607,-4.203209,0.133510,-0.970635,6.096113,-2.588310,-0.011566,-3.086340,-0.026033,0.034810,-0.771199,-0.635109,101.104865,4.839810,-178.814032
11898,NaN,-1.177893,14.837703,-3.664500,-0.342680,-0.932509,5.482875,-2.487215,-0.097815,-3.322497,-0.036569,0.047655,-0.762580,-0.644099,99.715826,6.728399,-178.524446
11899,NaN,-1.017090,14.289307,-3.414507,-0.933129,-1.145027,4.838771,-2.259503,-0.214296,-3.512037,-0.048293,0.060754,-0.754239,-0.651997,98.444044,8.746988,-178.337571
11900,NaN,-0.726831,13.847426,-3.323697,-1.653070,-1.446922,4.275283,-2.039369,-0.347722,-3.660518,-0.060956,0.073929,-0.746264,-0.658717,97.297766,10.857952,-178.247408
11901,NaN,-0.328928,13.218677,-3.415659,-2.419206,-1.912664,3.490344,-1.876429,-0.357094,-3.746163,-0.074063,0.087280,-0.738404,-0.664573,96.229302,13.025484,-178.208714
11902,NaN,-0.084722,12.371616,-3.253101,-2.931862,-2.102226,2.459555,-1.867470,-0.249360,-3.783631,-0.086776,0.101114,-0.730325,-0.669978,95.184314,15.202888,-178.134307
11903,NaN,-0.015997,11.153008,-3.043811,-3.099826,-2.241684,1.096059,-2.013213,-0.093995,-3.818832,-0.099017,0.115584,-0.721418,-0.675567,94.062851,17.399712,-178.019183
11904,NaN,0.042087,9.595541,-3.406798,-3.039448,-2.929351,-0.547266,-2.120916,0.119370,-3.857031,-0.110418,0.130942,-0.711944,-0.681027,92.921892,19.607378,-177.806806
11905,NaN,-0.043151,8.251824,-3.151162,-2.800316,-2.922644,-1.962176,-2.047893,0.466906,-3.798677,-0.120468,0.147141,-0.702554,-0.685751,91.880095,21.781907,-177.436957
11906,NaN,-0.300242,7.149797,-2.789099,-2.393352,-2.735674,-3.047354,-2.047331,0.844205,-3.802481,-0.129060,0.164607,-0.693108,-0.689818,90.939747,23.953991,-176.855862
11907,NaN,-0.637954,6.314847,-2.377528,-1.951583,-2.452929,-3.803827,-1.986363,1.164742,-3.808542,-0.135740,0.183997,-0.683276,-0.693436,90.092003,26.146999,-175.963541
11908,NaN,-1.026740,5.761515,-1.858631,-1.567482,-2.011867,-4.227410,-1.866435,1.373361,-3.787943,-0.142488,0.202936,-0.674114,-0.695761,89.428898,28.326567,-175.090907
11909,NaN,-1.260817,5.386731,-1.234642,-1.404972,-1.458448,-4.518683,-1.712560,1.362574,-3.740864,-0.148478,0.222267,-0.664738,-0.697621,88.840098,30.498399,-174.115749
11910,NaN,-1.292485,5.188539,-0.752806,-1.497702,-1.049138,-4.732214,-1.507442,1.158700,-3.650797,-0.155715,0.239528,-0.656171,-0.698441,88.358273,32.611678,-173.399280
11911,NaN,-1.366854,5.112625,-0.356849,-1.609385,-0.726366,-4.811300,-1.222516,0.823327,-3.504200,-0.163082,0.255618,-0.647734,-0.698931,87.895988,34.651629,-172.794641
11912,NaN,-1.333740,5.232259,-0.248990,-1.879289,-0.703528,-4.793928,-0.887025,0.414328,-3.317759,-0.172238,0.268507,-0.640661,-0.698421,87.508504,36.566429,-172.599186
11913,NaN,-1.350309,5.463191,-0.198819,-2.163484,-0.745703,-4.667791,-0.579777,-0.000801,-3.109165,-0.181659,0.279683,-0.633875,-0.697839,87.078857,38.363314,-172.596740
11914,NaN,-1.159383,5.683007,-0.340424,-2.572600,-0.983931,-4.697248,-0.406228,-0.419344,-2.933862,-0.192699,0.287867,-0.627928,-0.696926,86.579802,40.034285,-173.029054
11915,NaN,-0.705786,6.015149,-0.633882,-3.218232,-1.415811,-4.840975,-0.337670,-0.735761,-2.760774,-0.203514,0.294969,-0.621498,-0.696646,85.899831,41.601520,-173.620303
11916,NaN,-0.182013,6.203311,-0.791051,-3.833539,-1.679891,-5.163005,-0.334130,-0.942992,-2.565839,-0.214934,0.299979,-0.615555,-0.696354,85.118015,43.030645,-174.507504
11917,NaN,0.019742,6.366610,-1.030284,-4.165861,-1.998554,-5.313277,-0.407203,-1.037605,-2.398622,-0.225367,0.304718,-0.608944,-0.696810,84.166655,44.357417,-175.424556
11918,NaN,0.017552,6.490932,-1.380666,-4.304953,-2.398858,-5.368661,-0.476253,-1.064489,-2.253469,-0.235780,0.308389,-0.602626,-0.697242,83.150258,45.579051,-176.486411
11919,NaN,-0.140292,6.762679,-1.683525,-4.444208,-2.773728,-5.214755,-0.513115,-1.068974,-2.089196,-0.245554,0.311557,-0.596277,-0.697918,82.057703,46.695513,-177.593725
11920,NaN,-0.358975,7.210276,-1.869867,-4.688269,-3.067922,-4.891395,-0.525637,-1.107656,-1.894933,-0.254699,0.313972,-0.590115,-0.698795,80.909467,47.680933,-178.757839
11921,NaN,-0.362362,7.731563,-2.041466,-5.137426,-3.372908,-4.683931,-0.553288,-1.189765,-1.674996,-0.263250,0.315458,-0.583971,-0.700117,79.656507,48.519057,179.984910
11922,NaN,-0.341543,8.227240,-2.274836,-5.574847,-3.737769,-4.528076,-0.569813,-1.338086,-1.436450,-0.271338,0.315705,-0.577941,-0.701919,78.292266,49.185803,178.597580
11923,NaN,-0.133641,8.665722,-2.668092,-6.067696,-4.248808,-4.582002,-0.587275,-1.470066,-1.191679,-0.278891,0.314782,-0.571946,-0.704280,76.816663,49.677123,177.098233
11924,NaN,0.136903,9.221800,-3.019981,-6.688035,-4.734226,-4.613052,-0.595272,-1.481273,-0.944125,-0.285567,0.313084,-0.566295,-0.706923,75.348303,50.003413,175.614130
11925,NaN,0.595679,9.804655,-3.234237,-7.455216,-5.076410,-4.753551,-0.635216,-1.361961,-0.693357,-0.290985,0.311089,-0.561002,-0.709809,73.952820,50.184789,174.259637
11926,NaN,1.046523,10.155052,-3.448366,-8.021123,-5.373013,-5.027004,-0.768351,-1.134662,-0.473300,-0.294710,0.309499,-0.555896,-0.712977,72.673766,50.263058,173.159155
11927,NaN,1.551609,10.340501,-3.798836,-8.457310,-5.770917,-5.461354,-0.878714,-0.822334,-0.281126,-0.296736,0.308596,-0.551112,-0.716234,71.566403,50.275282,172.364098
11928,NaN,1.723057,10.441543,-3.976896,-8.613130,-6.018473,-5.641162,-0.905154,-0.456546,-0.078916,-0.296941,0.308517,-0.547088,-0.719263,70.735062,50.238605,171.948326
11929,NaN,1.475087,10.658024,-4.153164,-8.563767,-6.345521,-5.406605,-0.887393,-0.083468,0.105305,-0.295200,0.309443,-0.543758,-0.722101,70.183563,50.168619,171.940420
11930,NaN,0.835562,11.232902,-4.319264,-8.520835,-6.781389,-4.622366,-0.785588,0.358152,0.332232,-0.291873,0.310988,-0.541982,-0.724122,70.044344,50.064391,172.336484
11931,NaN,-0.061442,12.385233,-4.251539,-8.746236,-7.158359,-3.199587,-0.623767,0.748911,0.619447,-0.286451,0.313079,-0.541640,-0.725640,70.301442,49.877877,173.176104
11932,NaN,-0.845470,14.058195,-4.317409,-9.378945,-7.759851,-1.517818,-0.366722,0.978789,0.985015,-0.279711,0.314479,-0.543263,-0.726450,70.938794,49.536569,174.278021
11933,NaN,-1.354218,15.562274,-4.751202,-9.937448,-8.626885,-0.147806,-0.076296,0.917944,1.472656,-0.271584,0.314036,-0.546463,-0.727325,71.779518,48.906144,175.476313
11934,NaN,-1.378285,15.844511,-5.442441,-9.800418,-9.369129,0.123580,0.014494,0.749492,1.940753,-0.262552,0.311423,-0.550575,-0.728663,72.635391,47.983653,176.599576
11935,NaN,-1.038362,14.980458,-5.826200,-9.063818,-9.532768,-0.517604,-0.396716,0.751017,2.187786,-0.251740,0.308742,-0.553412,-0.731465,73.254147,46.911454,177.772195
11936,NaN,-0.568330,13.496554,-6.748115,-7.854812,-10.081596,-1.771243,-0.652593,1.355906,2.438835,-0.238101,0.307744,-0.556465,-0.734131,74.077264,45.794099,179.416719
11937,NaN,-0.975809,12.701907,-6.370219,-6.707549,-9.556562,-1.656178,-0.535731,2.552020,2.779247,-0.219758,0.310087,-0.561637,-0.734926,75.611311,44.638489,-177.962300
11938,NaN,-1.959919,12.917625,-5.275936,-5.943145,-8.515644,-0.290287,-0.433491,3.614764,3.009319,-0.197884,0.315313,-0.568550,-0.733601,77.701080,43.443771,-174.609553
11939,NaN,-3.181356,13.585920,-3.388527,-5.464039,-6.690107,1.656226,-0.373520,4.438103,3.260120,-0.172466,0.322707,-0.576422,-0.730653,80.129424,42.097943,-170.692605
11940,NaN,-4.399689,13.994773,-1.561397,-4.849720,-4.702913,3.301517,-0.588587,4.726779,3.453882,-0.145272,0.330396,-0.583696,-0.727347,82.415705,40.557723,-166.731447
11941,NaN,-5.303495,13.914649,-0.365827,-4.040083,-3.121393,4.179629,-0.670743,4.595465,3.651961,-0.117208,0.336948,-0.590288,-0.724078,84.401428,38.779521,-162.989574
11942,NaN,-6.015587,13.871036,0.388662,-3.296084,-1.889312,4.825540,-0.246195,4.184562,3.980208,-0.090055,0.340366,-0.598332,-0.719750,86.259661,36.706903,-159.735822
11943,NaN,-6.500324,14.373873,1.335656,-3.097908,-0.553588,5.701824,0.558618,3.349914,4.371650,-0.065014,0.339127,-0.608974,-0.714085,88.037732,34.299143,-157.195533
11944,NaN,-6.590270,15.457099,1.582131,-3.169695,0.024456,6.762807,1.519991,2.248690,4.738534,-0.043871,0.332124,-0.622964,-0.706884,89.783372,31.614896,-155.601258
11945,NaN,-6.645706,16.659856,1.182868,-2.953510,0.148671,7.915365,2.380448,1.174752,5.026515,-0.026209,0.320114,-0.639664,-0.698334,91.521612,28.726035,-154.832609
11946,NaN,-6.370343,17.475677,0.104268,-2.460272,-0.256873,8.620353,2.772765,0.284378,5.078958,-0.012060,0.304388,-0.657267,-0.689349,93.139707,25.817905,-154.784384
11947,NaN,-5.933867,17.591364,-0.980779,-1.777091,-0.613174,8.680749,2.705341,-0.262737,4.990944,0.000327,0.286942,-0.673857,-0.680868,94.537579,22.973124,-155.133019
11948,NaN,-5.450082,17.124147,-1.558734,-1.133354,-0.544301,8.179366,2.365310,-0.326616,4.894391,0.012430,0.269264,-0.688707,-0.673071,95.726494,20.202968,-155.604572
11949,NaN,-4.971120,16.035707,-2.123053,-0.318914,-0.560985,7.095569,1.884838,-0.187856,4.728861,0.025306,0.252523,-0.701171,-0.666296,96.673317,17.519006,-156.001598
11950,NaN,-4.774557,15.024371,-1.884680,0.336090,0.134837,6.058669,1.637794,0.103759,4.642818,0.038999,0.236751,-0.712291,-0.659598,97.540048,14.878108,-156.283977
11951,NaN,-4.714285,14.056353,-1.395694,0.941906,1.014463,5.012840,1.394213,0.249631,4.531975,0.053371,0.221849,-0.721956,-0.653234,98.289536,12.285134,-156.471879
11952,NaN,-4.668440,13.000616,-0.988768,1.538983,1.726631,3.840312,1.238157,0.344960,4.441450,0.067674,0.207246,-0.730670,-0.646986,98.969563,9.745698,-156.662718
11953,NaN,-4.638472,11.932911,-0.653918,2.096940,2.293208,2.623300,1.133260,0.375100,4.341308,0.082070,0.193123,-0.738491,-0.640781,99.593922,7.254878,-156.823389
11954,NaN,-4.496322,10.957859,-0.302320,2.441789,2.762388,1.446419,1.073079,0.382728,4.227349,0.095913,0.179168,-0.745707,-0.634524,100.194527,4.837319,-157.025443
11955,NaN,-4.341220,10.093517,0.022561,2.685075,3.150301,0.364430,1.001686,0.426936,4.091412,0.109707,0.165873,-0.752162,-0.628254,100.760241,2.486587,-157.186142
11956,NaN,-4.303628,9.453360,0.454259,2.896013,3.657731,-0.522217,0.934972,0.505677,3.928662,0.123096,0.153201,-0.757956,-0.621996,101.299499,0.227979,-157.333110
11957,NaN,-4.292781,8.909206,0.981800,3.022459,4.230322,-1.343727,0.801616,0.508915,3.677319,0.135942,0.141461,-0.762809,-0.616142,101.764517,-1.895454,-157.446595
11958,NaN,-4.058558,8.302142,1.168233,3.015959,4.349123,-2.148323,0.764585,0.387460,3.422247,0.147348,0.130138,-0.767236,-0.610493,102.219186,-3.853385,-157.637630
11959,NaN,-3.898495,7.600949,1.347107,3.025753,4.430728,-3.030796,0.815134,0.226094,3.213533,0.157579,0.119227,-0.771539,-0.604716,102.712276,-5.679279,-157.888804
11960,NaN,-3.694473,6.858993,1.313843,3.022216,4.258399,-3.884075,0.838124,0.122382,2.958738,0.166428,0.108870,-0.775683,-0.598971,103.235177,-7.340767,-158.203530
11961,NaN,-3.497621,6.305382,1.117253,3.042154,3.962204,-4.494594,0.899184,0.123048,2.687084,0.174511,0.099652,-0.779665,-0.593075,103.795548,-8.854071,-158.484181
11962,NaN,-3.367494,5.972614,1.035060,3.049244,3.837116,-4.907656,1.021210,0.222991,2.430104,0.182013,0.091765,-0.783675,-0.586774,104.423940,-10.229333,-158.703046
11963,NaN,-3.425830,5.850273,1.042603,3.177747,3.916861,-5.164390,1.142011,0.395507,2.211742,0.189556,0.085366,-0.787630,-0.580018,105.101928,-11.511944,-158.799039
11964,NaN,-3.723523,6.012384,1.150168,3.487261,4.258306,-5.225777,1.142861,0.579847,1.982378,0.197039,0.080361,-0.791220,-0.573314,105.759904,-12.688985,-158.780780
11965,NaN,-4.045638,6.202306,1.271794,3.799577,4.633738,-5.280288,1.097402,0.751226,1.786897,0.204705,0.076581,-0.794307,-0.566840,106.361561,-13.790870,-158.640002
11966,NaN,-4.368569,6.520069,1.482747,4.075085,5.136010,-5.251223,1.081306,0.870574,1.639108,0.212335,0.073685,-0.797096,-0.560465,106.934837,-14.827314,-158.424538
11967,NaN,-4.677778,6.824898,1.800146,4.278930,5.725948,-5.273601,1.044807,0.910238,1.492091,0.219742,0.071419,-0.799583,-0.554329,107.469865,-15.796651,-158.168812
11968,NaN,-4.846370,7.146412,2.014583,4.391249,6.183595,-5.219754,0.966780,0.858439,1.325458,0.226447,0.069604,-0.801792,-0.548641,107.961635,-16.663506,-157.921460
11969,NaN,-4.773976,7.382931,2.090016,4.334882,6.399519,-5.130821,0.902951,0.746618,1.176295,0.232300,0.067934,-0.803826,-0.543401,108.422548,-17.435208,-157.722262
11970,NaN,-4.575314,7.567421,1.913341,4.270658,6.335143,-4.966443,0.937659,0.623569,1.068264,0.237338,0.066469,-0.806021,-0.538128,108.921008,-18.123217,-157.572416
11971,NaN,-4.527342,8.024068,1.590212,4.448725,6.319978,-4.551857,1.023809,0.561493,0.967713,0.241748,0.065177,-0.808442,-0.532665,109.471832,-18.750223,-157.463861
11972,NaN,-4.660968,8.854662,1.289006,4.826912,6.568850,-3.867911,1.112524,0.594569,0.855480,0.246016,0.064694,-0.810974,-0.526889,110.062722,-19.320482,-157.299784
11973,NaN,-5.065908,9.878781,1.237221,5.351424,7.228649,-3.187642,1.059733,0.680780,0.708663,0.250129,0.064720,-0.813185,-0.521515,110.596452,-19.834082,-157.092759
11974,NaN,-5.391595,10.662539,1.130156,5.783181,7.721395,-2.673395,0.817538,0.736417,0.538200,0.254213,0.065522,-0.814587,-0.517234,110.967655,-20.265878,-156.788874
11975,NaN,-5.606032,10.930131,0.789612,6.154665,7.734996,-2.477298,0.485594,0.711361,0.360257,0.257730,0.066349,-0.815089,-0.514590,111.137254,-20.601164,-156.489206
11976,NaN,-5.587455,10.788428,0.270157,6.350551,7.310340,-2.470218,0.249503,0.665564,0.198894,0.260826,0.067622,-0.814965,-0.513058,111.168039,-20.838839,-156.152464
11977,NaN,-5.403088,10.556138,-0.106683,6.325573,6.875925,-2.508897,0.132270,0.676340,0.033849,0.263475,0.069250,-0.814465,-0.512281,111.112753,-20.991652,-155.797826
11978,NaN,-5.423548,10.382530,-0.463281,6.465974,6.556335,-2.557902,0.036738,0.721978,-0.161663,0.265943,0.071856,-0.813579,-0.512056,110.979477,-21.047545,-155.348145
11979,NaN,-5.558448,10.290358,-0.961357,6.782794,6.198705,-2.513267,-0.003845,0.738464,-0.357433,0.267870,0.075049,-0.812489,-0.512323,110.801453,-21.001001,-154.872670
11980,NaN,-5.964848,10.569799,-1.627408,7.456634,5.999225,-2.173583,0.170357,0.665583,-0.513145,0.269149,0.079116,-0.811865,-0.512030,110.729651,-20.855078,-154.378881
11981,NaN,-6.479156,11.689524,-2.357106,8.355065,6.205795,-1.102926,0.621862,0.392672,-0.644787,0.268649,0.083390,-0.812712,-0.510267,110.961940,-20.583136,-154.046144
11982,NaN,-7.170527,14.280945,-2.818547,9.396861,7.433947,1.129761,1.218716,-0.105569,-0.845683,0.265502,0.088242,-0.815619,-0.506446,111.622679,-20.103496,-153.918115
11983,NaN,-8.291386,18.633327,-3.100847,10.791517,9.854722,4.746817,1.547884,-0.733200,-1.251017,0.258391,0.093259,-0.819989,-0.502151,112.560722,-19.274555,-154.091473
11984,NaN,-8.151848,22.739002,-5.975266,12.193688,9.664822,9.606321,1.508215,-1.133222,-1.657330,0.248815,0.099200,-0.824431,-0.498562,113.508168,-18.140441,-154.329358
11985,NaN,-7.847734,25.361517,-4.938027,11.184699,11.572292,11.869999,0.117577,-1.104103,-1.774117,0.239646,0.103901,-0.825171,-0.500867,113.628198,-16.942800,-154.519349
11986,NaN,-7.176674,22.920165,-5.138598,10.255553,9.606861,10.330223,-1.806544,-1.081680,-1.816438,0.231504,0.106561,-0.820948,-0.510974,112.647053,-15.736063,-154.686394
11987,NaN,-6.737775,18.390968,-6.138972,9.941637,5.988275,7.115949,-2.530892,-0.910980,-1.988051,0.223856,0.109445,-0.814357,-0.524150,111.209911,-14.469566,-154.757511
11988,NaN,-6.369290,16.749762,-4.940897,8.814892,5.524252,5.591242,-2.457611,-0.940521,-2.302122,0.215257,0.113634,-0.807615,-0.537132,109.819005,-13.039165,-154.800846
11989,NaN,-4.874874,16.474224,-5.191181,7.389481,4.007830,6.043005,-2.329904,-1.686911,-2.765744,0.202134,0.117736,-0.801432,-0.550442,108.565209,-11.208465,-155.213512
11990,NaN,-2.414557,16.546772,-5.382964,4.964429,2.252777,6.885660,-2.155000,-2.315406,-3.011689,0.185740,0.121271,-0.795908,-0.563315,107.468002,-9.150968,-155.952876
11991,NaN,0.322065,16.559088,-5.585831,2.152847,0.320804,7.528319,-2.601822,-2.594342,-3.490261,0.166926,0.125391,-0.788606,-0.578372,106.092418,-6.790109,-156.820128
11992,NaN,2.588895,16.126479,-5.526641,-0.442179,-1.314365,7.372448,-2.442755,-2.058606,-3.767574,0.149345,0.132257,-0.780689,-0.592224,104.754695,-4.389313,-157.385864
11993,NaN,3.343877,15.847225,-5.060608,-1.837141,-1.902685,6.946599,-2.303713,-1.135890,-4.143072,0.133939,0.143296,-0.771731,-0.604945,103.434481,-1.911560,-157.453300
11994,NaN,2.942434,15.980792,-4.349030,-2.285771,-1.699988,6.763936,-2.020552,-0.459312,-4.548034,0.119765,0.158095,-0.762459,-0.615888,102.280127,0.693673,-157.130488
11995,NaN,1.782163,16.282569,-4.080956,-1.930496,-1.563841,6.882130,-1.838908,-0.062617,-4.900474,0.105661,0.175415,-0.752687,-0.625722,101.243078,3.466401,-156.607944
11996,NaN,0.233599,16.809987,-3.639472,-1.378003,-1.079226,7.297114,-1.724994,0.192920,-5.072525,0.091938,0.194168,-0.742500,-0.634461,100.317200,6.306966,-155.954142
11997,NaN,-0.838337,17.282412,-3.047824,-1.373677,-0.669347,7.687879,-1.700682,0.399509,-5.058175,0.078803,0.213346,-0.731733,-0.642526,99.438081,9.139333,-155.240706
11998,NaN,-1.997582,16.926110,-2.254876,-1.215766,-0.128999,7.333917,-1.988346,0.444367,-4.990096,0.066433,0.232200,-0.719612,-0.651021,98.434802,11.930349,-154.534119
11999,NaN,-2.756534,15.768398,-1.950372,-0.976989,-0.212590,6.280417,-2.099767,0.408699,-4.856901,0.054312,0.250208,-0.706738,-0.659521,97.374281,14.670912,-153.919314
12000,NaN,-3.539631,14.564259,-1.288060,-0.759740,0.138030,5.209415,-2.020517,0.264559,-4.631816,0.042423,0.266847,-0.694011,-0.667339,96.357043,17.293699,-153.433974
12001,NaN,-3.955282,13.341860,-0.871128,-0.669015,0.219316,4.111301,-1.806993,-0.119648,-4.347782,0.029665,0.281020,-0.682025,-0.674529,95.382413,19.794532,-153.260740
12002,NaN,-4.034042,12.119290,-0.614582,-0.703527,0.132055,2.954102,-1.388271,-0.685580,-4.002627,0.015710,0.292112,-0.671690,-0.680629,94.519258,22.119286,-153.469258
12003,NaN,-3.692865,10.928549,-0.608465,-0.903084,-0.238810,1.700401,-0.879742,-1.271968,-3.646511,-0.000176,0.299585,-0.663517,-0.685561,93.774393,24.267728,-154.161816
12004,NaN,-3.254545,10.047864,-0.580069,-1.230734,-0.558845,0.677742,-0.493815,-1.771373,-3.359775,-0.016893,0.304628,-0.656694,-0.689688,93.073831,26.256024,-155.156510
12005,NaN,-2.843204,9.245560,-0.684660,-1.458403,-0.917913,-0.270442,-0.213548,-2.136665,-3.153076,-0.035197,0.307011,-0.651207,-0.693134,92.381908,28.127876,-156.542076
12006,NaN,-2.555128,8.621351,-0.691641,-1.655091,-1.113015,-1.017835,-0.032434,-2.403504,-3.007933,-0.053455,0.308444,-0.645959,-0.696234,91.639453,29.904680,-158.048537
12007,NaN,-2.422693,8.099115,-0.750891,-1.722392,-1.285087,-1.602657,0.038708,-2.643235,-2.934512,-0.072462,0.308613,-0.640720,-0.699274,90.775852,31.632330,-159.790680
12008,NaN,-2.257889,7.622364,-0.995057,-1.752216,-1.623101,-2.165586,0.129067,-2.895731,-2.878620,-0.092052,0.307617,-0.635572,-0.702102,89.805279,33.296200,-161.749273
12009,NaN,-2.062070,7.349028,-1.182344,-1.920530,-1.927162,-2.584234,0.287612,-3.154665,-2.785710,-0.112478,0.305153,-0.630687,-0.704603,88.726436,34.882762,-163.978548
12010,NaN,-1.801130,7.172842,-1.361446,-2.189940,-2.226981,-2.972594,0.398288,-3.402202,-2.693642,-0.133341,0.301379,-0.625942,-0.706815,87.527655,36.367728,-166.439958
12011,NaN,-1.523300,7.033858,-1.762605,-2.438894,-2.723068,-3.368018,0.466619,-3.599717,-2.605393,-0.154677,0.296379,-0.621090,-0.708859,86.169780,37.757353,-169.146761
12012,NaN,-1.380862,7.018358,-2.020771,-2.698259,-3.057195,-3.598580,0.461123,-3.730852,-2.510593,-0.175868,0.290531,-0.615985,-0.710791,84.659337,39.026423,-172.015069
12013,NaN,-1.138607,7.172452,-2.263119,-3.149451,-3.401950,-3.782419,0.302950,-3.738206,-2.441668,-0.196639,0.284377,-0.610055,-0.712949,82.936634,40.196693,-174.999185
12014,NaN,-0.839433,7.294527,-2.485652,-3.629810,-3.706811,-4.053219,0.058730,-3.607703,-2.356963,-0.216146,0.278590,-0.603249,-0.715373,81.050529,41.251986,-177.951890
12015,NaN,-0.627184,7.375988,-2.602408,-4.026756,-3.881165,-4.309285,-0.186976,-3.390583,-2.233907,-0.234232,0.273292,-0.595662,-0.718076,79.030570,42.185667,179.163824
12016,NaN,-0.473052,7.355832,-2.624391,-4.306162,-3.934716,-4.598328,-0.419681,-3.160285,-2.109729,-0.250665,0.268676,-0.587488,-0.720998,76.934560,42.996588,176.412115
12017,NaN,-0.393704,7.352170,-2.575086,-4.528453,-3.920257,-4.816612,-0.612161,-2.946156,-1.994968,-0.265811,0.264583,-0.578798,-0.724109,74.765363,43.699449,173.752925
12018,NaN,-0.317456,7.320709,-2.462637,-4.713305,-3.837660,-5.036562,-0.750936,-2.758614,-1.884637,-0.279647,0.261011,-0.569861,-0.727275,72.580682,44.296711,171.217513
12019,NaN,-0.339719,7.423479,-2.365957,-4.905703,-3.806665,-5.094533,-0.851575,-2.629489,-1.784545,-0.292631,0.257633,-0.560669,-0.730508,70.357659,44.792795,168.733753
12020,NaN,-0.347722,7.705042,-2.490421,-5.216636,-4.025082,-5.093289,-0.842192,-2.529731,-1.650094,-0.304691,0.254219,-0.551724,-0.733578,68.188950,45.169058,166.338733
12021,NaN,-0.271988,8.135764,-2.647312,-5.692154,-4.285956,-5.069316,-0.778424,-2.458945,-1.476925,-0.316009,0.250375,-0.543176,-0.736485,66.091048,45.405332,164.003765
12022,NaN,-0.146792,8.706277,-2.823308,-6.302504,-4.577880,-5.005392,-0.785541,-2.385461,-1.321039,-0.326399,0.246391,-0.534833,-0.739398,64.059687,45.520389,161.775746
12023,NaN,-0.020397,9.135134,-3.071022,-6.806029,-4.905398,-5.069905,-0.899495,-2.274316,-1.201451,-0.335912,0.242583,-0.526263,-0.742539,62.035862,45.545751,159.651311
12024,NaN,0.146310,9.369185,-3.414702,-7.181104,-5.273849,-5.331823,-1.047475,-2.072063,-1.079770,-0.344136,0.239465,-0.517568,-0.745889,60.074611,45.516887,157.734399
12025,NaN,0.353244,9.478317,-3.815614,-7.474415,-5.655959,-5.730730,-1.119059,-1.749578,-0.953127,-0.350971,0.237258,-0.509213,-0.749153,58.267506,45.473199,156.088452
12026,NaN,0.545366,9.504693,-4.024127,-7.676055,-5.840747,-6.099000,-1.138629,-1.313050,-0.866049,-0.356252,0.236525,-0.501620,-0.752009,56.700806,45.491262,154.796433
12027,NaN,0.690700,9.681271,-4.344378,-7.946486,-6.178238,-6.383676,-1.137880,-0.865537,-0.834217,-0.360302,0.237322,-0.494808,-0.754338,55.353945,45.610664,153.811465
12028,NaN,0.750824,9.990396,-4.453827,-8.251146,-6.383960,-6.440726,-1.044743,-0.439684,-0.767169,-0.363097,0.239430,-0.489181,-0.756000,54.286424,45.828603,153.146749
12029,NaN,0.726618,10.522926,-4.505978,-8.667178,-6.626545,-6.272732,-0.939864,-0.045002,-0.672689,-0.364705,0.242550,-0.484753,-0.757083,53.489976,46.124191,152.776184
12030,NaN,0.678373,11.127326,-4.266853,-9.117745,-6.641764,-5.909328,-0.854684,0.408434,-0.544311,-0.364795,0.246961,-0.481623,-0.757611,53.002900,46.517765,152.770174
12031,NaN,0.258647,11.928161,-3.879266,-9.489403,-6.708822,-5.086321,-0.855076,0.894065,-0.394942,-0.363146,0.252796,-0.479546,-0.757796,52.802977,47.006062,153.156277
12032,NaN,-0.344546,12.657266,-3.932976,-9.665664,-7.225744,-4.321227,-0.741460,1.277612,-0.145796,-0.359751,0.259316,-0.478886,-0.757630,52.956792,47.518083,153.934620
12033,NaN,-0.877174,13.376654,-4.017619,-9.853491,-7.736887,-3.576176,-0.492587,1.420679,0.164289,-0.355134,0.265128,-0.479811,-0.757211,53.456123,47.928539,154.979024
12034,NaN,-0.960138,13.723316,-4.311029,-9.981624,-8.186898,-3.395779,-0.295208,1.393857,0.476429,-0.349648,0.269770,-0.481813,-0.756853,54.185065,48.183375,156.177063
12035,NaN,-0.696699,13.416188,-4.658089,-9.769995,-8.402476,-3.802663,-0.274785,1.473965,0.755670,-0.342895,0.273945,-0.484397,-0.756794,55.084773,48.316897,157.582338
12036,NaN,-0.373489,12.614642,-4.822600,-9.189311,-8.307610,-4.421759,-0.375920,1.863305,1.035506,-0.333993,0.279109,-0.487585,-0.756841,56.239587,48.433087,159.405978
12037,NaN,-0.361180,11.902883,-4.580789,-8.492611,-7.951012,-4.574061,-0.376076,2.524179,1.340808,-0.322229,0.285941,-0.492249,-0.756371,57.875183,48.572146,161.865993
12038,NaN,-0.878563,11.793676,-3.704000,-7.981020,-7.274253,-3.733024,-0.164467,3.254418,1.683334,-0.307629,0.294317,-0.499220,-0.754666,60.162907,48.709298,165.029850
12039,NaN,-1.947986,12.303496,-2.368251,-7.643643,-6.371894,-1.955022,0.023329,3.796722,2.003636,-0.290565,0.303493,-0.508036,-0.751906,62.986524,48.731924,168.758298
12040,NaN,-3.050345,13.010795,-0.948230,-7.446954,-5.327185,-0.033263,0.079341,4.017138,2.300741,-0.271821,0.312551,-0.517551,-0.748710,66.038735,48.536898,172.754574
12041,NaN,-4.094841,13.461688,0.090209,-7.019448,-4.427226,1.549779,0.139478,3.922478,2.675905,-0.251793,0.319992,-0.527494,-0.745624,69.111074,47.972719,176.754904
12042,NaN,-4.870860,13.591541,0.622878,-6.399429,-3.766861,2.584109,0.475228,3.510095,3.182836,-0.231427,0.323995,-0.538652,-0.742511,72.113161,46.924668,-179.549784
12043,NaN,-5.486730,13.697236,1.034351,-5.773147,-3.088171,3.449717,1.050304,2.867375,3.748997,-0.211409,0.323196,-0.551839,-0.739137,74.994699,45.324542,-176.397010
12044,NaN,-5.496622,14.115000,1.113682,-5.616396,-2.729604,4.031009,1.709123,2.097740,4.262071,-0.192633,0.317284,-0.567108,-0.735263,77.679917,43.240544,-173.964466
12045,NaN,-5.070727,14.886096,0.878567,-5.834561,-2.712559,4.561624,2.314057,1.446123,4.683429,-0.174897,0.306944,-0.584282,-0.730624,80.209492,40.760609,-172.175665
12046,NaN,-4.522745,15.953556,0.556683,-6.228443,-2.778630,5.309848,2.721565,1.050298,4.968457,-0.157851,0.293769,-0.602548,-0.725064,82.612092,38.041250,-170.859077
12047,NaN,-4.138524,16.799243,0.107294,-6.259798,-2.809954,6.067649,2.893774,0.858073,5.097948,-0.140939,0.279082,-0.620992,-0.718761,84.878054,35.185907,-169.851068
12048,NaN,-3.963212,17.130864,-0.112899,-5.840574,-2.446252,6.588554,2.781599,0.796886,5.122118,-0.123944,0.263976,-0.638454,-0.712272,86.922054,32.297153,-169.053895
12049,NaN,-3.686312,16.742157,-0.533944,-5.067816,-2.200511,6.422087,2.555689,0.797033,5.084863,-0.106579,0.248867,-0.654550,-0.705883,88.733363,29.397406,-168.390490
12050,NaN,-3.590255,15.997172,-0.525387,-4.095376,-1.530617,5.995197,2.326793,0.845005,5.072887,-0.088826,0.233927,-0.669291,-0.699598,90.342145,26.500836,-167.818092
12051,NaN,-3.522446,15.085939,-0.452485,-3.083831,-0.852481,5.349735,2.177849,0.874751,5.057174,-0.070682,0.218987,-0.683005,-0.693219,91.807276,23.588463,-167.321416
12052,NaN,-3.546982,14.193828,-0.338820,-2.073499,-0.186433,4.670810,2.121970,0.913273,5.042831,-0.052443,0.204119,-0.695970,-0.686448,93.191116,20.685135,-166.894815
12053,NaN,-3.574609,13.341708,-0.200829,-1.145400,0.445637,3.944518,2.097700,0.918338,5.009174,-0.034134,0.189199,-0.708310,-0.679217,94.517359,17.780375,-166.539568
12054,NaN,-3.551639,12.586872,-0.012297,-0.378825,1.057195,3.215758,2.041797,0.916906,4.961925,-0.016015,0.174348,-0.719862,-0.671673,95.772752,14.907885,-166.261372
12055,NaN,-3.585747,11.897165,0.011670,0.391886,1.467677,2.518406,1.976608,0.905184,4.891740,0.001996,0.159551,-0.730628,-0.663869,96.962646,12.059402,-166.047620
12056,NaN,-3.628404,11.324323,0.034625,1.078202,1.836199,1.885164,1.945991,0.923084,4.836956,0.019812,0.144938,-0.740712,-0.655703,98.114859,9.248784,-165.885155
12057,NaN,-3.781637,10.967839,0.139773,1.760941,2.294063,1.422057,1.924329,0.931131,4.784315,0.037583,0.130408,-0.750187,-0.647148,99.241225,6.453507,-165.767209
12058,NaN,-4.001994,10.872475,0.349231,2.409251,2.872697,1.153724,1.868679,0.886397,4.716528,0.054883,0.115925,-0.758927,-0.638420,100.322683,3.710358,-165.726497
12059,NaN,-4.156154,10.752909,0.557297,2.975957,3.406306,0.804373,1.800979,0.766940,4.637220,0.071569,0.101234,-0.766955,-0.629611,101.359595,1.013943,-165.791996
12060,NaN,-4.200532,10.619787,0.724718,3.419099,3.836510,0.410567,1.689072,0.515814,4.509883,0.086816,0.086174,-0.774179,-0.621034,102.335672,-1.569429,-166.033821
12061,NaN,-4.038002,10.291578,0.694868,3.683783,3.945833,-0.140914,1.584930,0.186842,4.337315,0.100329,0.070633,-0.780721,-0.612715,103.273074,-4.019890,-166.478450
12062,NaN,-3.687250,9.833543,0.445085,3.770130,3.726884,-0.736825,1.510929,-0.092750,4.134055,0.112025,0.054990,-0.786702,-0.604588,104.201373,-6.301935,-167.095374
12063,NaN,-3.139173,9.420197,0.128531,3.631549,3.380818,-1.211598,1.504533,-0.239495,3.926776,0.122537,0.039657,-0.792326,-0.596348,105.161651,-8.446155,-167.802364
12064,NaN,-2.510856,9.117828,-0.115802,3.357420,3.104183,-1.534238,1.515777,-0.167578,3.699032,0.132531,0.025464,-0.797560,-0.587951,106.147819,-10.454792,-168.475976
12065,NaN,-2.158486,9.094638,-0.406371,3.354281,2.920642,-1.581911,1.396491,0.142146,3.360568,0.142795,0.013412,-0.801901,-0.579987,107.050072,-12.325057,-168.955945
12066,NaN,-1.866499,9.320067,-0.774233,3.441024,2.759541,-1.357955,1.300131,0.675540,3.057141,0.154217,0.004081,-0.805316,-0.572422,107.838615,-14.105900,-169.115985
12067,NaN,-2.147665,9.667218,-0.526001,3.933888,3.328875,-1.340482,1.321172,1.287614,2.893823,0.167647,-0.002855,-0.808077,-0.564711,108.553200,-15.912425,-168.925138
12068,NaN,-2.589195,9.851056,-0.184251,4.500287,3.961903,-1.577178,1.142247,1.714952,2.663775,0.182047,-0.007774,-0.809749,-0.557767,109.082530,-17.667796,-168.467702
12069,NaN,-2.947477,9.875508,0.030980,4.954360,4.397540,-1.918190,0.958295,1.955972,2.424801,0.196748,-0.011247,-0.810469,-0.551637,109.436962,-19.349211,-167.834272
12070,NaN,-3.293443,9.908303,0.169772,5.382444,4.759697,-2.235201,0.870982,2.100219,2.206936,0.211329,-0.013494,-0.810617,-0.545947,109.682253,-20.937380,-167.077160
12071,NaN,-3.684950,10.073944,0.238271,5.872691,5.128021,-2.441883,0.884179,2.204811,2.002543,0.225764,-0.014636,-0.810495,-0.540291,109.875888,-22.443782,-166.214968
12072,NaN,-4.139479,10.545749,0.324135,6.461429,5.670862,-2.427698,0.916908,2.317307,1.796619,0.240008,-0.014573,-0.810166,-0.534616,110.024622,-23.858227,-165.239307
12073,NaN,-4.624407,11.036962,0.456892,7.034095,6.291811,-2.441335,0.856642,2.403096,1.569405,0.253962,-0.013455,-0.809391,-0.529348,110.070820,-25.173073,-164.156082
12074,NaN,-5.138877,11.207321,0.587617,7.505407,6.789112,-2.746664,0.711053,2.443684,1.352648,0.267413,-0.011508,-0.808032,-0.524826,109.977987,-26.374484,-162.989640
12075,NaN,-5.586903,11.008720,0.499666,7.868305,6.915188,-3.261319,0.552057,2.402440,1.133875,0.280081,-0.009020,-0.806150,-0.521149,109.753119,-27.450091,-161.785385
12076,NaN,-5.818574,10.724138,0.329497,8.033142,6.870026,-3.710320,0.523837,2.306626,0.935381,0.291777,-0.005995,-0.804214,-0.517755,109.495757,-28.392571,-160.579964
12077,NaN,-6.100776,10.631997,0.300107,8.214595,7.048207,-4.051770,0.630543,2.150453,0.760075,0.302358,-0.002535,-0.802649,-0.514128,109.300889,-29.208043,-159.419238
12078,NaN,-6.294148,10.858263,0.416984,8.326942,7.476947,-4.116588,0.739752,1.964129,0.544243,0.311592,0.001500,-0.801563,-0.510298,109.187767,-29.867158,-158.315914
12079,NaN,-6.465744,11.244205,0.532528,8.447313,7.977316,-4.022768,0.796230,1.840465,0.344632,0.319783,0.006086,-0.800706,-0.506529,109.106123,-30.393648,-157.239921
12080,NaN,-6.641696,11.458610,0.688477,8.474086,8.426932,-4.062969,0.765008,1.664898,0.139971,0.326726,0.011018,-0.799988,-0.503138,109.033920,-30.774894,-156.222856
12081,NaN,-6.640380,11.611883,0.585050,8.466004,8.566359,-3.963399,0.789085,1.395064,-0.082257,0.331992,0.016179,-0.799680,-0.500032,109.027209,-30.983652,-155.326023
12082,NaN,-6.584761,12.158524,0.178842,8.690639,8.642080,-3.409180,1.060842,0.920175,-0.277372,0.334843,0.021403,-0.800796,-0.496132,109.311394,-31.000434,-154.683971
12083,NaN,-6.816608,14.074255,-0.189230,9.493063,9.574629,-1.888716,1.594740,0.318348,-0.461814,0.334725,0.026746,-0.804156,-0.490486,110.070721,-30.804115,-154.381981
12084,NaN,-7.421978,17.114182,-0.261414,10.650434,11.526664,0.274112,1.989664,-0.238038,-0.676822,0.331783,0.032266,-0.809332,-0.483592,111.212100,-30.386928,-154.370999
12085,NaN,-7.817130,19.320770,-0.407795,11.365081,12.932836,1.940325,1.690837,-0.845927,-0.983567,0.325612,0.037039,-0.814632,-0.478518,112.321377,-29.673775,-154.652168
12086,NaN,-7.362194,19.340139,-1.254394,11.244082,12.224158,2.594982,0.761408,-1.153679,-1.256003,0.317713,0.040687,-0.818095,-0.477622,112.950545,-28.748963,-155.033137
12087,NaN,-6.707766,17.618337,-1.965127,10.529482,10.475880,1.961930,0.037133,-0.825844,-1.313816,0.311088,0.044179,-0.819215,-0.479749,113.048326,-27.859594,-155.197310
12088,NaN,-6.681736,15.605782,-1.422874,9.621764,9.693803,0.368449,-0.530595,-0.559675,-1.512943,0.305232,0.048261,-0.818481,-0.484349,112.729328,-26.930075,-155.149599
12089,NaN,-6.667021,14.041376,-1.148992,9.013322,8.923700,-0.754646,-0.751487,-0.851505,-1.814434,0.297413,0.052506,-0.817485,-0.490415,112.324712,-25.770081,-155.212511
12090,NaN,-6.570643,13.343285,-1.091970,8.649421,8.398480,-1.034812,-0.579355,-1.592703,-2.021109,0.286031,0.056048,-0.817863,-0.496131,112.189270,-24.346498,-155.660015
12091,NaN,-6.121913,13.639097,-1.574853,8.446997,7.802084,-0.130504,-0.237366,-2.586002,-2.184107,0.269949,0.058246,-0.820249,-0.500925,112.442076,-22.612470,-156.641685
12092,NaN,-5.173560,14.313421,-3.367699,8.435515,6.149648,1.762500,0.098440,-3.432277,-2.310821,0.249956,0.059298,-0.824311,-0.504497,113.021356,-20.625095,-158.041678
12093,NaN,-4.226440,15.642371,-4.366025,7.948294,5.420396,3.935978,0.075926,-3.566640,-2.456440,0.228856,0.060531,-0.828042,-0.508240,113.533924,-18.510320,-159.449526
12094,NaN,-3.851099,17.359639,-4.533653,7.468756,5.625116,5.975482,-0.936099,-4.121953,-3.034602,0.204244,0.061578,-0.829212,-0.516624,113.461274,-15.967819,-160.990570
12095,NaN,-3.143076,18.040203,-6.612967,7.126514,3.447730,7.972072,-1.355847,-4.867925,-3.449984,0.175343,0.061914,-0.829231,-0.527065,113.143801,-13.034322,-162.835299
12096,NaN,-2.341060,19.090388,-7.964670,6.147986,1.935903,9.979082,-1.090214,-4.895435,-3.436185,0.146207,0.062320,-0.829233,-0.535828,112.897018,-10.119002,-164.683661
12097,NaN,-1.489347,20.279421,-8.975696,4.785977,0.727622,11.877961,-1.491032,-4.452775,-3.566338,0.118457,0.064075,-0.827020,-0.545803,112.281381,-7.237818,-166.279736
12098,NaN,-0.449042,20.810901,-9.789354,3.029152,-0.765710,12.973782,-2.560129,-3.579943,-3.881965,0.093787,0.068855,-0.820586,-0.559555,110.932097,-4.408377,-167.372752
12099,NaN,0.243488,20.050814,-9.158938,1.278228,-1.522201,12.139307,-3.399831,-2.594141,-4.082527,0.072713,0.076736,-0.810523,-0.576087,109.014931,-1.688114,-167.979529
12100,NaN,0.224054,18.397180,-7.621480,0.238030,-1.580811,10.034690,-3.877274,-1.730645,-4.253918,0.054857,0.087582,-0.798020,-0.593704,106.801260,0.942089,-168.173513
12101,NaN,-0.037279,16.517367,-6.168612,-0.337028,-1.594764,7.740727,-4.079991,-1.087634,-4.479509,0.038840,0.101078,-0.783865,-0.611416,104.466563,3.595384,-168.090619
12102,NaN,-0.375321,14.905410,-4.718277,-0.708048,-1.334914,5.750511,-4.043433,-0.552292,-4.745032,0.024146,0.117183,-0.768865,-0.628118,102.183987,6.319865,-167.771207
12103,NaN,-0.870775,13.733847,-3.370106,-0.866074,-0.857060,4.300778,-3.678574,-0.079900,-4.897889,0.010460,0.135272,-0.754090,-0.642605,100.143472,9.095371,-167.277652
12104,NaN,-1.625703,12.773022,-2.189768,-0.721039,-0.289624,3.223165,-3.467927,0.162678,-5.080044,-0.002960,0.154730,-0.739180,-0.655487,98.266522,11.959682,-166.711451
12105,NaN,-2.193996,11.903209,-1.336771,-0.680635,0.049607,2.343668,-3.187176,0.139569,-5.222388,-0.017236,0.174472,-0.724349,-0.666769,96.551459,14.929793,-166.243253
12106,NaN,-2.635085,11.118545,-0.769542,-0.690256,0.204140,1.615486,-2.659237,-0.020808,-5.228608,-0.032470,0.193517,-0.710642,-0.675637,95.120401,17.917280,-165.939366
12107,NaN,-3.053754,10.668906,-0.407878,-0.749476,0.265559,1.262240,-1.976196,-0.409560,-5.128534,-0.049470,0.210610,-0.698665,-0.681956,93.987765,20.878015,-165.950685
12108,NaN,-3.263697,10.565640,-0.467216,-1.011244,-0.051212,1.207766,-1.176951,-1.015934,-4.932470,-0.068639,0.224618,-0.689003,-0.685646,93.153455,23.740934,-166.389933
12109,NaN,-3.033338,10.799925,-1.199830,-1.656882,-1.070333,1.294187,-0.434341,-1.793872,-4.683268,-0.090509,0.234682,-0.681415,-0.687318,92.484830,26.484167,-167.389158
12110,NaN,-2.382701,11.212008,-2.184780,-2.723956,-2.363291,1.283634,0.180590,-2.481932,-4.412754,-0.114371,0.241048,-0.675544,-0.687354,91.896700,29.071185,-168.887703
12111,NaN,-1.754938,11.310296,-3.015281,-3.683147,-3.413236,0.904224,0.377074,-2.821904,-4.185802,-0.138844,0.245194,-0.669959,-0.686846,91.205286,31.524337,-170.696117
12112,NaN,-1.236356,10.999880,-3.674910,-4.359414,-4.215643,0.148695,0.015499,-2.660082,-4.122691,-0.161949,0.249799,-0.662936,-0.686941,90.260144,33.911960,-172.473583
12113,NaN,-0.727997,10.414051,-4.335126,-4.819522,-4.997493,-0.893590,-0.565551,-2.009767,-4.130321,-0.182179,0.256972,-0.654026,-0.687769,89.116346,36.283030,-173.908684
12114,NaN,-0.552133,9.896002,-4.004304,-5.067928,-4.767999,-1.698782,-0.905023,-1.120625,-4.003626,-0.198468,0.266988,-0.644626,-0.688320,88.068801,38.566430,-174.790323
12115,NaN,-0.791900,9.284262,-3.148716,-4.902584,-3.973173,-2.269148,-1.078062,-0.518035,-3.863021,-0.212077,0.278663,-0.635111,-0.688479,87.126624,40.775210,-175.308174
12116,NaN,-1.218347,8.825259,-2.261227,-4.649119,-3.144164,-2.534485,-1.134404,-0.391152,-3.717655,-0.224558,0.290280,-0.625514,-0.688508,86.169798,42.894363,-175.778501
12117,NaN,-1.500530,8.588076,-1.920375,-4.573286,-2.884149,-2.709759,-1.011382,-0.763212,-3.595712,-0.237933,0.299971,-0.615843,-0.688580,85.016277,44.923931,-176.615671
12118,NaN,-1.453290,8.609075,-1.859709,-4.871307,-2.931713,-2.931327,-0.642583,-1.401903,-3.394606,-0.252995,0.306316,-0.606787,-0.688458,83.630701,46.785773,-178.042933
12119,NaN,-1.126055,8.891821,-1.940878,-5.525808,-3.130005,-3.197603,-0.279386,-2.015212,-3.128894,-0.269520,0.309159,-0.598378,-0.688276,81.966964,48.427971,179.911908
12120,NaN,-0.778978,9.230323,-2.327795,-6.194852,-3.602559,-3.499150,-0.176583,-2.438537,-2.904941,-0.286554,0.309643,-0.589908,-0.688489,79.971821,49.858332,177.398973
12121,NaN,-0.226038,9.381634,-2.905657,-6.830445,-4.202283,-4.139438,-0.258215,-2.595565,-2.698741,-0.303154,0.308967,-0.581020,-0.689240,77.688946,51.094496,174.622343
12122,NaN,0.266528,9.589326,-3.387359,-7.457714,-4.689866,-4.725527,-0.453013,-2.455087,-2.506436,-0.318240,0.308427,-0.571796,-0.690395,75.280512,52.167696,171.873001
12123,NaN,0.647638,9.745206,-3.989270,-7.941793,-5.281633,-5.304178,-0.640749,-2.134743,-2.309956,-0.331384,0.308622,-0.562557,-0.691713,72.893834,53.111020,169.323244
12124,NaN,0.766284,10.271348,-4.483778,-8.551114,-5.842750,-5.462406,-0.691520,-1.800756,-2.108893,-0.342705,0.309438,-0.553891,-0.692825,70.662711,53.941336,167.032912
12125,NaN,0.777615,11.190104,-4.679813,-9.427276,-6.184054,-5.273927,-0.664734,-1.552049,-1.914788,-0.352667,0.310456,-0.545931,-0.693688,68.586893,54.664781,164.936851
12126,NaN,0.801837,12.060230,-4.973247,-10.264118,-6.619739,-5.160278,-0.755811,-1.412334,-1.742036,-0.361429,0.311619,-0.538097,-0.694776,66.544372,55.283424,162.963027
12127,NaN,1.067195,12.326347,-5.453072,-10.706107,-7.115339,-5.622453,-0.913463,-1.298871,-1.546425,-0.368927,0.312875,-0.530150,-0.696379,64.497290,55.784887,161.105891
12128,NaN,1.620877,12.031362,-5.938161,-10.791319,-7.481594,-6.617444,-1.134060,-1.127448,-1.365192,-0.374938,0.314637,-0.521976,-0.698545,62.473729,56.200979,159.440319
12129,NaN,2.256018,11.308005,-6.349999,-10.503250,-7.690981,-7.861177,-1.325258,-0.758365,-1.175295,-0.378986,0.317500,-0.514075,-0.700922,60.656316,56.588639,158.160819
12130,NaN,2.607338,10.615958,-6.457025,-10.055096,-7.675628,-8.733044,-1.416906,-0.151599,-1.014618,-0.380732,0.322241,-0.507211,-0.702809,59.284519,57.052710,157.483456
12131,NaN,2.416257,10.455025,-6.233225,-9.771359,-7.575248,-8.748776,-1.355531,0.681091,-0.847361,-0.379840,0.329326,-0.502388,-0.703472,58.640046,57.671565,157.631396
12132,NaN,1.618725,10.877466,-5.412134,-9.727008,-7.167118,-7.752135,-1.223040,1.547778,-0.628745,-0.376194,0.338646,-0.499983,-0.702719,58.855007,58.443785,158.702277
12133,NaN,0.448005,11.587648,-4.449401,-9.779154,-6.759556,-6.214648,-1.124309,2.192527,-0.357258,-0.369979,0.349379,-0.499465,-0.701131,59.821979,59.260943,160.597024
12134,NaN,-0.721905,12.428821,-3.640505,-9.957274,-6.490273,-4.618704,-0.955335,2.406163,-0.003108,-0.362347,0.359552,-0.500538,-0.699206,61.319366,59.944298,162.959473
12135,NaN,-1.465649,12.961125,-3.177222,-10.035238,-6.368967,-3.570718,-0.697367,2.143720,0.456666,-0.354006,0.367222,-0.502691,-0.697946,63.016548,60.286402,165.398232
12136,NaN,-1.590269,12.733727,-3.170407,-9.678464,-6.374450,-3.455064,-0.419310,1.592814,0.947723,-0.345977,0.371117,-0.505783,-0.697679,64.627734,60.206224,167.522728
12137,NaN,-1.055097,12.060116,-3.585564,-9.170276,-6.583321,-4.157783,-0.137541,1.189374,1.426864,-0.337580,0.371985,-0.509882,-0.698346,66.203062,59.745964,169.460460
12138,NaN,-0.402039,11.534655,-3.966713,-8.852144,-6.771899,-4.840785,0.048767,1.252393,1.858935,-0.328033,0.371508,-0.515609,-0.698944,68.049113,59.048216,171.564583
12139,NaN,-0.263668,11.465029,-3.954564,-8.711266,-6.743833,-4.735233,0.162855,1.803062,2.239319,-0.315588,0.371912,-0.523067,-0.698918,70.461641,58.213769,174.326776
12140,NaN,-0.865325,11.985020,-3.255671,-8.774044,-6.209201,-3.532750,0.269750,2.603579,2.584922,-0.300263,0.373758,-0.532854,-0.697290,73.590467,57.270023,177.835212
12141,NaN,-2.365599,12.920420,-2.116347,-8.709053,-5.301574,-1.266349,0.263660,3.252192,2.929324,-0.281463,0.377083,-0.543744,-0.694931,77.116717,56.117334,-178.059401
12142,NaN,-3.878003,13.648259,-1.208684,-8.340852,-4.416426,0.849260,0.131914,3.380002,3.279591,-0.261118,0.379621,-0.555009,-0.692582,80.477328,54.655021,-174.077196
12143,NaN,-4.677617,13.869890,-0.805863,-7.772384,-3.823170,2.013054,0.192111,3.063388,3.675159,-0.239824,0.379978,-0.566218,-0.691012,83.346018,52.818457,-170.585296
12144,NaN,-5.007388,13.828163,-0.621405,-7.162886,-3.315888,2.610677,0.607059,2.562952,4.146523,-0.219393,0.376256,-0.579114,-0.689148,85.833726,50.596924,-167.868510
12145,NaN,-5.021392,13.771467,-0.460775,-6.675513,-2.803861,2.939307,1.089093,1.936286,4.526615,-0.199803,0.368843,-0.593052,-0.687257,87.899821,48.070524,-165.894078
12146,NaN,-4.803546,14.161203,-0.777179,-6.497438,-2.823666,3.377427,1.471384,1.307948,4.747538,-0.182328,0.357678,-0.607993,-0.684958,89.606607,45.373153,-164.717825
12147,NaN,-4.561866,15.163218,-1.306786,-6.651747,-3.129124,4.270856,1.793814,0.840464,4.871627,-0.165909,0.344306,-0.623184,-0.682327,91.074635,42.581767,-164.018675
12148,NaN,-4.655534,16.408644,-1.803739,-6.673723,-3.289840,5.638533,1.945715,0.546644,4.942927,-0.150701,0.329046,-0.638582,-0.679140,92.394018,39.747540,-163.718914
12149,NaN,-5.048075,17.343655,-2.233527,-6.190940,-3.220628,6.994983,1.784035,0.442483,4.964958,-0.135017,0.313540,-0.652740,-0.676309,93.495142,36.895784,-163.532902
12150,NaN,-5.670501,17.683240,-2.494899,-5.113650,-2.855693,7.983218,1.329088,0.489257,4.983165,-0.118674,0.297946,-0.665180,-0.674300,94.323344,34.034257,-163.430278
12151,NaN,-6.382454,17.374034,-2.257780,-3.623748,-1.983894,8.368229,0.845083,0.615697,5.067060,-0.100441,0.282915,-0.675542,-0.673435,94.877612,31.114698,-163.234217
12152,NaN,-7.115970,16.597171,-1.660286,-1.914886,-0.778339,8.201529,0.469415,0.747259,5.159276,-0.081240,0.267692,-0.684589,-0.673111,95.247076,28.138493,-163.045188
12153,NaN,-7.879780,15.796852,-0.680020,-0.261503,0.737352,7.834123,0.102831,0.706249,5.225144,-0.061022,0.252410,-0.691817,-0.673761,95.364294,25.122844,-162.847621
12154,NaN,-8.450122,14.917340,0.434866,1.194820,2.254866,7.144380,-0.224452,0.285266,5.221734,-0.042204,0.235315,-0.697528,-0.675500,95.192850,22.134757,-162.971788
12155,NaN,-8.762599,13.691013,1.281514,2.571716,3.358149,5.932662,-0.235986,-0.471865,5.279881,-0.025407,0.215636,-0.702461,-0.677793,94.851938,19.147913,-163.486890
12156,NaN,-8.717299,12.231555,1.875629,3.690249,4.044003,4.297215,0.112789,-1.377873,5.407213,-0.012095,0.191903,-0.708255,-0.679266,94.591761,16.131298,-164.581386
12157,NaN,-8.159855,10.695169,2.029068,4.348898,4.101140,2.406257,0.617925,-2.344672,5.465494,-0.002173,0.164758,-0.715059,-0.679367,94.529444,13.118712,-166.177988
12158,NaN,-7.081968,9.490225,1.693402,4.384904,3.509143,0.746845,1.157950,-3.185935,5.380950,0.003704,0.134633,-0.723061,-0.677527,94.772660,10.199585,-168.292115
12159,NaN,-5.687079,8.799396,0.969002,3.901173,2.496711,-0.366549,1.688249,-3.651228,5.229589,0.007316,0.103605,-0.731926,-0.673422,95.375277,7.401997,-170.626330
12160,NaN,-4.531737,8.615985,0.179998,3.416215,1.558187,-0.830213,2.183745,-3.730138,5.065794,0.009533,0.072562,-0.741668,-0.666763,96.375944,4.739302,-173.064059
12161,NaN,-3.504933,8.678057,-0.398005,2.890677,0.960347,-0.955104,2.511821,-3.496916,4.835242,0.011980,0.043330,-0.751552,-0.658140,97.672983,2.236668,-175.356187
12162,NaN,-2.457034,8.831791,-0.856992,2.257643,0.582288,-0.906409,2.573290,-2.981850,4.504432,0.014986,0.016759,-0.760875,-0.648509,99.115427,-0.061154,-177.424240
12163,NaN,-1.467927,8.828365,-1.153616,1.629800,0.417677,-0.948000,2.396613,-2.157537,4.104675,0.020068,-0.005423,-0.768896,-0.639036,100.520682,-2.165775,-179.007518
12164,NaN,-0.746966,8.712470,-1.423360,1.226326,0.297415,-1.044078,2.085339,-1.039209,3.654042,0.027754,-0.022548,-0.775423,-0.630429,101.776766,-4.098567,-179.998582
12165,NaN,-0.549722,8.462658,-1.505837,1.299608,0.328735,-1.304989,1.795874,0.310165,3.211546,0.039492,-0.033466,-0.780550,-0.622946,102.823312,-5.931852,179.824844
12166,NaN,-0.869452,8.357226,-1.268032,1.863090,0.686134,-1.550859,1.632873,1.644309,2.818269,0.054910,-0.038982,-0.784750,-0.616143,103.700583,-7.713444,-179.625143
12167,NaN,-1.665732,8.639763,-0.595301,2.893823,1.570843,-1.631880,1.529525,2.721811,2.494197,0.073803,-0.039596,-0.788071,-0.609860,104.397057,-9.475198,-178.395962
12168,NaN,-2.732217,9.194853,0.061141,4.177408,2.562295,-1.567068,1.384461,3.349226,2.227774,0.094008,-0.037606,-0.790478,-0.604064,104.917799,-11.189524,-176.837496
12169,NaN,-3.598692,9.608895,0.690340,5.175122,3.544001,-1.663569,1.258969,3.522532,2.014839,0.114436,-0.034000,-0.792067,-0.598647,105.285608,-12.825890,-175.107831
12170,NaN,-4.139970,9.748333,1.168476,5.759508,4.317617,-1.956936,1.220276,3.410839,1.891891,0.133747,-0.030539,-0.793321,-0.593144,105.605798,-14.385059,-173.467030
12171,NaN,-4.404474,9.380235,1.377575,5.963263,4.670226,-2.608033,1.216018,3.122016,1.797937,0.151771,-0.027327,-0.794428,-0.587454,105.911939,-15.857663,-171.938545
12172,NaN,-4.635810,8.986442,1.321082,6.148023,4.745123,-3.204262,1.201637,2.804317,1.648292,0.167850,-0.024680,-0.795525,-0.581685,106.226797,-17.203745,-170.600839
12173,NaN,-4.930470,8.868181,1.153343,6.457550,4.807791,-3.530688,1.212777,2.583781,1.464240,0.182610,-0.021760,-0.796611,-0.575839,106.541832,-18.421098,-169.331516
12174,NaN,-5.384114,9.441991,1.182632,7.018155,5.322053,-3.335574,1.265740,2.479312,1.339717,0.196417,-0.018756,-0.797790,-0.569736,106.881813,-19.558576,-168.126174
12175,NaN,-6.146424,10.365249,1.575288,7.825038,6.382801,-3.051075,1.207988,2.396626,1.252943,0.209701,-0.015561,-0.798686,-0.563812,107.171689,-20.641429,-166.931059
12176,NaN,-6.981809,11.190825,1.936274,8.659199,7.414998,-2.901968,0.993893,2.190573,1.195931,0.221838,-0.013073,-0.799065,-0.558671,107.363093,-21.662119,-165.864026
12177,NaN,-7.603348,11.337969,2.268679,9.114027,8.115050,-3.287211,0.790107,1.810662,1.175340,0.232429,-0.011683,-0.799149,-0.554258,107.496976,-22.609063,-164.996788
12178,NaN,-7.797040,11.090971,2.463468,9.129623,8.403671,-3.821368,0.699425,1.324096,1.182558,0.240986,-0.011878,-0.799481,-0.550104,107.684151,-23.477989,-164.433376
12179,NaN,-7.564507,10.472316,2.514982,8.725543,8.273086,-4.461628,0.743603,0.784546,1.170793,0.247400,-0.013364,-0.800501,-0.545723,108.013427,-24.247130,-164.176015
12180,NaN,-7.069995,9.988118,2.471965,8.180002,8.007327,-4.830148,0.829750,0.285866,1.084324,0.251512,-0.015849,-0.802357,-0.541031,108.513655,-24.882208,-164.218936
12181,NaN,-6.807446,9.756524,2.207340,8.003443,7.685254,-4.987409,0.889178,-0.033903,0.950463,0.254022,-0.018497,-0.804726,-0.536234,109.115012,-25.383442,-164.419574
12182,NaN,-6.811288,9.877121,2.019977,8.136446,7.633790,-4.959502,0.920168,-0.180685,0.805536,0.255496,-0.021005,-0.807370,-0.531445,109.769353,-25.777982,-164.697844
12183,NaN,-6.971117,10.313598,1.731844,8.535215,7.669034,-4.684251,0.966504,-0.348176,0.643152,0.255907,-0.023137,-0.810310,-0.526663,110.475146,-26.046371,-165.031376
12184,NaN,-7.165914,11.468133,1.505378,9.156521,8.094849,-3.832322,1.183788,-0.611090,0.512202,0.254871,-0.025257,-0.814166,-0.521091,111.371900,-26.189238,-165.511869
12185,NaN,-7.465138,14.066191,1.604382,10.166948,9.528575,-1.938874,1.555079,-0.913509,0.390413,0.252374,-0.027057,-0.819301,-0.514121,112.540155,-26.190826,-166.126149
12186,NaN,-7.933257,17.451033,1.834858,11.486953,11.557405,0.449590,1.767528,-1.392534,0.203655,0.247378,-0.029189,-0.825559,-0.506365,113.940973,-25.977020,-166.992920
12187,NaN,-7.945612,19.665848,1.341894,12.297773,12.353474,2.346008,1.535038,-2.095629,-0.092943,0.238730,-0.031973,-0.831975,-0.499803,115.329090,-25.416495,-168.152608
12188,NaN,-7.144708,19.881639,0.359920,11.956534,11.541539,3.236820,0.943503,-2.497767,-0.408184,0.227411,-0.035338,-0.837339,-0.495882,116.428976,-24.575243,-169.459583
12189,NaN,-5.869196,18.637028,-0.522608,10.684351,9.921902,3.204891,0.249433,-2.326600,-0.710213,0.216015,-0.037506,-0.840642,-0.495229,117.010362,-23.598798,-170.522128
12190,NaN,-4.861107,16.998281,-0.965396,9.353929,8.455801,2.617165,-0.393166,-1.933707,-1.136533,0.204948,-0.037890,-0.841951,-0.497674,117.085533,-22.508869,-171.271530
12191,NaN,-4.296578,15.714680,-1.365424,8.453461,7.228832,2.168482,-0.870690,-1.741744,-1.650242,0.193484,-0.035662,-0.841759,-0.502726,116.751192,-21.197923,-171.705427
12192,NaN,-3.884443,14.993656,-1.881752,7.828647,6.179606,2.185259,-0.991972,-1.740393,-2.025471,0.180834,-0.032421,-0.841260,-0.508457,116.328712,-19.708004,-172.103011
12193,NaN,-3.282549,15.007832,-2.382942,7.129313,5.475241,2.870649,-0.953306,-1.840632,-2.287323,0.167330,-0.027691,-0.840688,-0.514274,115.882451,-18.048779,-172.412124
12194,NaN,-2.546740,15.208821,-2.977040,6.299899,4.751678,3.765615,-1.019261,-1.773880,-2.531684,0.153163,-0.022414,-0.839825,-0.520319,115.394298,-16.295126,-172.713267
12195,NaN,-2.186058,15.395403,-3.374346,5.690983,4.197425,4.440451,-1.423020,-1.586073,-2.874537,0.139041,-0.014976,-0.837434,-0.528344,114.589492,-14.400649,-172.773502
12196,NaN,-2.065721,15.641484,-3.733402,5.250020,3.654937,5.083802,-1.882753,-1.413513,-3.240193,0.124355,-0.006406,-0.833553,-0.538224,113.513371,-12.369112,-172.755197
12197,NaN,-2.027089,16.205001,-3.993159,4.837809,3.272085,5.951319,-2.028606,-1.247716,-3.467808,0.109929,0.003989,-0.828687,-0.548797,112.304134,-10.242578,-172.569157
12198,NaN,-2.111334,16.966632,-4.332632,4.508814,2.865813,6.995202,-2.006823,-1.229334,-3.634838,0.094835,0.014612,-0.823624,-0.558960,111.142308,-8.041002,-172.450674
12199,NaN,-2.040512,17.912966,-4.720332,3.949609,2.412478,8.238422,-1.987818,-1.237221,-3.794379,0.079412,0.026290,-0.818069,-0.569004,109.972448,-5.739781,-172.295917
12200,NaN,-2.090324,19.034276,-4.853512,3.370544,2.203105,9.524961,-2.148810,-1.215219,-3.960272,0.063392,0.038208,-0.811729,-0.579325,108.740467,-3.362021,-172.200223
12201,NaN,-2.500027,19.894876,-4.182229,2.917976,2.584074,10.293683,-2.602756,-1.313564,-4.123589,0.046668,0.050607,-0.803481,-0.591337,107.236610,-0.867639,-172.152764
12202,NaN,-3.201575,19.481638,-3.600624,2.740913,2.413286,9.918150,-3.139367,-1.878745,-4.311511,0.027104,0.061654,-0.793260,-0.605147,105.441734,1.811858,-172.490827
12203,NaN,-3.084504,18.441891,-4.102601,1.944283,0.924013,9.206296,-2.962358,-2.017937,-4.236686,0.007042,0.071911,-0.782969,-0.617850,103.717946,4.464047,-173.010991
12204,NaN,-3.219442,17.873939,-3.501283,1.303780,0.725785,8.620777,-2.857059,-2.044196,-4.124581,-0.012725,0.081646,-0.772479,-0.629641,102.025637,7.034937,-173.629846
12205,NaN,-2.850855,16.951350,-3.946095,0.367620,-0.555053,7.809166,-2.832053,-2.119672,-4.077985,-0.032719,0.090877,-0.761484,-0.640947,100.295300,9.574202,-174.386171
12206,NaN,-2.806728,16.089511,-3.129141,-0.270962,-0.488134,6.805527,-2.910261,-2.076024,-3.994417,-0.052139,0.099902,-0.749764,-0.652039,98.481654,12.032340,-175.201572
12207,NaN,-2.448334,14.515940,-3.518778,-0.909223,-1.675993,5.200401,-3.154510,-2.282185,-4.109637,-0.072627,0.108651,-0.736532,-0.663658,96.440089,14.548408,-176.229589
12208,NaN,-1.724680,13.010429,-4.059175,-1.793950,-2.893242,3.494874,-2.729748,-2.043751,-3.938580,-0.091766,0.117350,-0.724377,-0.673117,94.615312,16.913438,-177.215846
12209,NaN,-1.431996,12.021084,-3.705568,-2.310892,-3.001835,2.266443,-2.447928,-1.677728,-3.867464,-0.109527,0.126797,-0.712883,-0.680973,92.947464,19.199032,-178.081620
12210,NaN,-1.114513,11.375352,-3.537055,-2.869720,-3.190650,1.354574,-2.420535,-1.428396,-3.973169,-0.126632,0.137402,-0.701163,-0.688081,91.294567,21.510216,-178.865722
12211,NaN,-0.875919,10.830671,-3.492711,-3.333454,-3.444475,0.544348,-2.313404,-1.218296,-4.055255,-0.143358,0.148849,-0.689443,-0.694234,89.685206,23.850201,-179.611783
12212,NaN,-0.857828,10.400079,-3.237975,-3.590817,-3.433128,-0.082335,-2.118370,-1.064214,-4.065474,-0.159577,0.160661,-0.678143,-0.699174,88.172560,26.173646,179.665353
12213,NaN,-0.803773,10.108333,-3.148631,-3.902606,-3.547972,-0.598573,-1.945002,-0.997149,-4.080406,-0.175744,0.172514,-0.667089,-0.703097,86.708460,28.493727,178.893883
12214,NaN,-0.748121,9.871680,-3.153630,-4.209529,-3.723968,-1.074908,-1.776575,-0.924618,-4.067383,-0.191606,0.184359,-0.656383,-0.706017,85.302964,30.787423,178.096547
12215,NaN,-0.855767,9.803093,-3.116911,-4.438029,-3.847905,-1.325738,-1.673178,-0.832133,-4.043066,-0.207142,0.196240,-0.645791,-0.708192,83.911955,33.058304,177.268998
12216,NaN,-0.900570,9.717533,-3.154513,-4.693318,-4.028295,-1.632127,-1.620818,-0.764020,-3.997397,-0.222182,0.208082,-0.635213,-0.709818,82.509436,35.286549,176.413358
12217,NaN,-0.923556,9.640340,-3.096628,-4.953170,-4.102541,-1.938803,-1.581741,-0.728319,-3.908528,-0.236789,0.219611,-0.624581,-0.711056,81.062017,37.452179,175.490938
12218,NaN,-0.913132,9.495745,-3.044440,-5.173870,-4.163733,-2.319237,-1.568002,-0.714944,-3.794844,-0.250799,0.230734,-0.613886,-0.712043,79.556018,39.532079,174.503891
12219,NaN,-0.923666,9.329401,-2.988833,-5.336924,-4.211800,-2.700090,-1.564274,-0.727740,-3.659098,-0.264318,0.241278,-0.603061,-0.712908,77.959024,41.515190,173.415723
12220,NaN,-0.905788,9.179668,-2.975892,-5.501736,-4.293446,-3.087497,-1.554425,-0.740355,-3.505642,-0.277182,0.251221,-0.592225,-0.713672,76.284597,43.384162,172.244425
12221,NaN,-1.009404,9.100915,-2.860650,-5.605391,-4.289489,-3.316679,-1.543956,-0.735822,-3.335761,-0.289384,0.260556,-0.581407,-0.714376,74.530977,45.134935,170.989686
12222,NaN,-1.066898,9.098735,-2.811239,-5.774467,-4.355070,-3.527191,-1.548002,-0.753744,-3.150632,-0.300827,0.269221,-0.570614,-0.715138,72.692752,46.750194,169.656537
12223,NaN,-1.189599,9.005157,-2.639217,-5.819668,-4.293165,-3.716379,-1.553394,-0.802456,-2.939458,-0.311596,0.277021,-0.559820,-0.716079,70.747930,48.211789,168.215983
12224,NaN,-1.167136,8.988846,-2.576112,-5.994813,-4.330741,-3.973428,-1.533130,-0.906706,-2.730168,-0.321806,0.283767,-0.549087,-0.717231,68.693640,49.504079,166.645539
12225,NaN,-1.009505,9.188143,-2.628074,-6.397488,-4.493611,-4.225173,-1.424150,-1.060460,-2.479462,-0.331648,0.289014,-0.538700,-0.718528,66.558502,50.592264,164.915383
12226,NaN,-0.808004,9.472523,-2.837372,-6.868430,-4.804347,-4.505272,-1.256836,-1.263568,-2.226447,-0.341264,0.292523,-0.528841,-0.719928,64.371349,51.456861,163.019523
12227,NaN,-0.508876,9.950169,-3.135726,-7.533871,-5.205391,-4.789134,-1.134348,-1.454122,-1.984697,-0.350653,0.294428,-0.519337,-0.721557,62.123851,52.102134,160.976840
12228,NaN,-0.155204,10.208676,-3.516066,-8.033516,-5.611390,-5.276947,-1.125274,-1.585670,-1.755180,-0.359479,0.295207,-0.509892,-0.723628,59.819503,52.544973,158.871316
12229,NaN,0.282383,10.198047,-3.973056,-8.332153,-5.998454,-6.010931,-1.215081,-1.576275,-1.556034,-0.367388,0.295613,-0.500340,-0.726154,57.500177,52.840598,156.821507
12230,NaN,0.810515,10.003392,-4.357347,-8.499029,-6.240692,-6.892642,-1.342254,-1.356959,-1.365166,-0.373793,0.296538,-0.490945,-0.728915,55.300261,53.065812,155.020129
12231,NaN,1.325276,9.687701,-4.764205,-8.516180,-6.466526,-7.822654,-1.402037,-0.978725,-1.202206,-0.378551,0.298507,-0.482216,-0.731478,53.350514,53.301387,153.578927
12232,NaN,1.582454,9.620357,-5.032185,-8.577870,-6.684028,-8.356985,-1.343338,-0.527822,-1.050111,-0.381708,0.301630,-0.474741,-0.733444,51.763596,53.598844,152.552972
12233,NaN,1.718584,9.822199,-4.988048,-8.805277,-6.717466,-8.528153,-1.248914,-0.092811,-0.918293,-0.383465,0.305824,-0.468609,-0.734733,50.540755,53.977679,151.915168
12234,NaN,1.678839,10.097155,-4.817742,-9.000617,-6.717005,-8.452447,-1.227465,0.319955,-0.775959,-0.383743,0.311152,-0.463536,-0.735568,49.636579,54.439703,151.658927
12235,NaN,1.346142,10.245511,-4.647766,-8.927013,-6.781376,-8.168357,-1.198849,0.744568,-0.608073,-0.382432,0.317571,-0.459625,-0.735962,49.087846,54.983856,151.819252
12236,NaN,0.927115,10.520234,-4.584309,-8.899060,-7.010059,-7.759591,-1.007754,1.127413,-0.360281,-0.379620,0.324454,-0.457509,-0.735734,49.018567,55.566406,152.429004
12237,NaN,0.561155,11.096062,-4.532203,-9.150692,-7.315425,-7.219079,-0.704664,1.360031,-0.061039,-0.375624,0.330905,-0.457419,-0.734967,49.453582,56.103282,153.434034
12238,NaN,0.224363,11.623634,-4.772143,-9.329705,-7.853308,-6.777295,-0.458858,1.423610,0.253469,-0.370733,0.336399,-0.458834,-0.734074,50.265677,56.521482,154.717595
12239,NaN,0.099384,11.941580,-5.097707,-9.404534,-8.348120,-6.578566,-0.370904,1.517381,0.553946,-0.364617,0.341356,-0.461239,-0.733341,51.387696,56.825875,156.306427
12240,NaN,0.054764,12.096272,-5.171983,-9.392515,-8.548533,-6.381671,-0.400882,1.799193,0.882504,-0.356595,0.346621,-0.464553,-0.732724,52.884684,57.063024,158.358178
12241,NaN,-0.292077,12.230313,-4.925820,-9.231032,-8.510409,-5.777299,-0.351087,2.275129,1.284651,-0.345988,0.352553,-0.469550,-0.731793,54.993346,57.236255,161.099628
12242,NaN,-1.137026,12.511868,-4.290918,-8.978296,-8.213275,-4.504739,-0.183493,2.835853,1.737414,-0.332669,0.359111,-0.476803,-0.730089,57.851376,57.309506,164.613348
12243,NaN,-2.426595,13.066900,-2.931219,-8.834060,-7.305461,-2.477776,-0.075856,3.314434,2.197064,-0.316557,0.366016,-0.485934,-0.727800,61.353736,57.184881,168.821563
12244,NaN,-3.993352,13.510703,-1.531428,-8.423421,-6.227090,-0.268866,-0.200575,3.542969,2.627254,-0.298014,0.372748,-0.495521,-0.725745,65.071520,56.760169,173.383928
12245,NaN,-5.289445,13.496399,-0.556811,-7.638962,-5.247533,1.346674,-0.325321,3.443885,3.058751,-0.277698,0.378043,-0.505086,-0.724469,68.655085,55.922849,177.905508
12246,NaN,-5.870885,13.162175,-0.087597,-6.818793,-4.505628,2.057290,-0.060550,3.025144,3.583696,-0.256957,0.379929,-0.515722,-0.723642,71.972646,54.577668,-178.023895
12247,NaN,-5.904672,12.888239,0.647417,-6.390286,-3.455095,2.376921,0.535237,2.345977,4.134212,-0.236886,0.376956,-0.528425,-0.722881,74.955270,52.687470,-174.708273
12248,NaN,-5.448409,12.476368,0.870877,-5.981744,-2.813226,2.119300,1.220864,1.480844,4.534808,-0.218883,0.368769,-0.542998,-0.721978,77.474437,50.371174,-172.393756
12249,NaN,-4.806700,12.531494,0.425577,-5.829231,-2.941040,1.919923,1.900600,0.659666,4.755280,-0.203344,0.356035,-0.559215,-0.720533,79.624728,47.773793,-170.996999
12250,NaN,-4.260263,13.473554,-0.485695,-6.108389,-3.722845,2.381682,2.485947,0.029531,4.825240,-0.190298,0.339999,-0.576605,-0.718132,81.546143,45.054740,-170.320956
12251,NaN,-4.059028,15.268192,-1.422851,-6.693833,-4.610741,3.806685,3.015997,-0.349774,4.880084,-0.178812,0.321667,-0.595210,-0.714340,83.443754,42.254111,-170.084522
12252,NaN,-4.239613,16.936856,-2.206354,-6.894631,-5.134827,5.540505,3.072084,-0.522619,4.833276,-0.168039,0.302548,-0.613264,-0.710025,85.188645,39.474656,-170.119050
12253,NaN,-4.618747,17.692260,-3.217918,-6.242198,-5.613949,6.744687,2.645453,-0.345063,4.748261,-0.156148,0.284436,-0.629377,-0.706115,86.711768,36.744044,-170.118320
12254,NaN,-5.026772,17.612043,-3.717209,-5.112214,-5.484093,7.304135,2.078519,0.326746,4.756408,-0.141296,0.268916,-0.643546,-0.702544,88.128416,34.035911,-169.741053
12255,NaN,-5.509462,17.143560,-3.195507,-3.834969,-4.339163,7.532556,1.536393,1.073749,4.820900,-0.122885,0.256012,-0.656028,-0.699274,89.452279,31.283786,-168.933372
12256,NaN,-5.837856,16.266657,-2.229577,-2.537857,-2.779425,7.199667,1.182284,1.552421,4.886363,-0.102244,0.244614,-0.667170,-0.696128,90.645668,28.489232,-167.912441
12257,NaN,-6.216050,15.387391,-1.052550,-1.275404,-1.045242,6.732321,0.926011,1.662191,4.926544,-0.080603,0.233422,-0.677097,-0.693222,91.645882,25.644012,-166.898619
12258,NaN,-6.290306,14.426562,-0.108584,-0.266608,0.354900,5.917974,0.853456,1.343852,4.968791,-0.059863,0.220856,-0.686194,-0.690490,92.441630,22.777434,-166.168102
12259,NaN,-6.038436,13.286637,0.568031,0.493447,1.379848,4.717437,1.046365,0.799195,5.057221,-0.040749,0.205893,-0.695458,-0.687231,93.175850,19.856824,-165.822033
12260,NaN,-5.642664,12.101148,0.901555,1.110507,1.983926,3.373631,1.384351,0.227965,5.120036,-0.023835,0.188543,-0.705317,-0.682943,93.958335,16.926892,-165.878529
12261,NaN,-5.199129,11.220320,0.991904,1.540067,2.286444,2.281713,1.678274,-0.252762,5.064471,-0.008961,0.169573,-0.715602,-0.677554,94.829842,14.040935,-166.252056
12262,NaN,-4.575262,10.684128,0.696281,1.699047,2.136014,1.504913,1.920491,-0.561227,4.941768,0.004089,0.149872,-0.726050,-0.671099,95.806332,11.257614,-166.850390
12263,NaN,-4.093649,10.464478,0.363261,1.858794,1.981015,1.095460,2.135962,-0.686797,4.812034,0.016184,0.130114,-0.736642,-0.663451,96.920038,8.557644,-167.551114
12264,NaN,-3.728536,10.368800,0.164227,2.031291,1.987321,0.833423,2.236927,-0.663766,4.656123,0.027668,0.110930,-0.746929,-0.655001,98.116219,5.968732,-168.284046
12265,NaN,-3.686112,10.283945,-0.113940,2.494899,1.975701,0.637620,2.183330,-0.571026,4.457095,0.038955,0.092708,-0.756458,-0.646265,99.320035,3.491055,-168.990925
12266,NaN,-3.536160,10.119836,-0.285370,2.803475,2.014109,0.339192,2.111527,-0.456873,4.234382,0.049867,0.075634,-0.765154,-0.637442,100.509574,1.152432,-169.667799
12267,NaN,-3.182201,9.965986,-0.325008,2.851346,2.129993,0.029457,2.078456,-0.301871,4.057056,0.060883,0.059679,-0.773249,-0.628345,101.711809,-1.097763,-170.279875
