// General information: 
//  MT Manager version: 2019.0.1 
//  XDA version: 2019.0.1 build 2740 rev 84096 built on 2019-01-30
// Device information: 
//  DeviceId: 00B4381A
//  ProductCode: MTW2-3A7G6
//  Firmware Version: 4.3.4
//  Hardware Version: 1.1.0
// Device settings: 
//  Filter Profile: human(46.1)
//  Option Flags: Orientation Smoother Disabled, AHS Disabled, ICC Disabled
// Coordinate system: ENU
PacketCounter,SampleTimeFine,Acc_X,Acc_Y,Acc_Z,FreeAcc_E,FreeAcc_N,FreeAcc_U,Gyr_X,Gyr_Y,Gyr_Z,Quat_q0,Quat_q1,Quat_q2,Quat_q3,Roll,Pitch,Yaw
15226,NaN,-6.771054,2.935052,8.922397,3.855360,4.550414,0.111602,2.359624,1.562690,0.705849,0.347344,-0.149898,0.511146,0.771760,57.724548,35.905956,151.789079
15227,NaN,-7.867222,2.185665,8.874128,5.276342,4.503425,0.050987,2.234356,1.106253,0.800959,0.343107,-0.148205,0.522290,0.766503,59.574924,35.845446,152.748381
15228,NaN,-8.485263,1.505082,9.393314,6.397102,5.073040,-0.023186,2.000128,0.664902,0.809565,0.339785,-0.145192,0.531696,0.762079,61.128033,35.635034,153.433432
15229,NaN,-8.523462,0.843960,10.496243,7.178088,6.315746,-0.215090,1.760067,0.235924,0.758776,0.337570,-0.141056,0.539371,0.758438,62.373400,35.318158,153.828171
15230,NaN,-7.886311,0.289356,10.915362,7.306452,7.092871,-0.996509,1.664794,-0.139165,0.698287,0.336514,-0.135825,0.545953,0.755146,63.409513,34.930139,153.959035
15231,NaN,-7.558809,0.241089,11.524667,7.372147,7.800025,-1.162973,1.691634,-0.280368,0.678232,0.335902,-0.130043,0.552342,0.751782,64.401857,34.513060,153.986370
15232,NaN,-8.139816,0.973636,12.052347,7.614540,7.963645,-0.270312,1.722755,-0.410580,0.632402,0.335819,-0.123851,0.558549,0.748271,65.352705,34.089721,153.909745
15233,NaN,-9.391292,2.228470,12.593940,8.060282,7.815651,1.399401,1.629118,-0.548861,0.605177,0.336138,-0.117346,0.564105,0.745001,66.192917,33.647443,153.729564
15234,NaN,-10.507376,2.773585,12.620050,8.793807,7.314946,2.291710,1.505960,-0.949007,0.657912,0.337287,-0.109417,0.568514,0.742332,66.830611,33.089719,153.307540
15235,NaN,-11.243137,2.897425,11.773114,9.333121,6.135523,2.379497,1.303906,-1.372119,0.676772,0.339418,-0.100187,0.571404,0.740442,67.212153,32.429080,152.622097
15236,NaN,-10.520957,2.036577,11.785064,9.591291,6.332743,1.215333,1.268481,-1.990200,0.715319,0.343119,-0.088612,0.573072,0.738922,67.384455,31.615649,151.563268
15237,NaN,-9.091730,1.161228,10.406973,8.956772,5.485395,-0.758034,1.229472,-2.607520,0.487774,0.349349,-0.075455,0.573314,0.737274,67.321037,30.786096,150.071536
15238,NaN,-7.806651,1.215992,8.958974,7.780285,4.440538,-1.911812,1.324035,-2.805423,0.328843,0.356686,-0.061845,0.573384,0.734970,67.257330,29.996419,148.432341
15239,NaN,-6.691207,1.575704,8.352722,6.753862,4.111362,-2.430499,1.325651,-2.827979,0.196451,0.364499,-0.048507,0.573218,0.732262,67.193348,29.269292,146.756754
15240,NaN,-6.055985,1.686221,7.999668,6.283881,3.853831,-2.800792,1.197596,-2.856764,0.041040,0.372832,-0.035738,0.572374,0.729457,67.055367,28.616049,145.039375
15241,NaN,-6.068135,1.546551,6.985572,6.138884,2.743086,-3.270835,1.047046,-2.956599,-0.143658,0.382026,-0.023394,0.570598,0.726586,66.799010,28.031861,143.224197
15242,NaN,-6.664855,1.485700,5.362325,6.031191,0.818141,-3.621354,1.097579,-2.979751,-0.316090,0.391802,-0.011367,0.568821,0.723052,66.569033,27.527111,141.366573
15243,NaN,-7.736199,1.975055,3.881594,5.879222,-1.256708,-3.280637,1.309850,-2.870102,-0.388551,0.401468,0.000491,0.567851,0.718588,66.495984,27.080537,139.559986
15244,NaN,-8.573357,2.657632,2.065798,5.187290,-3.441069,-3.024390,1.380402,-2.604625,-0.498231,0.410651,0.011212,0.567557,0.713526,66.539173,26.752399,137.892880
15245,NaN,-9.598427,3.347855,0.836601,4.790222,-5.211304,-2.468900,1.546772,-2.382131,-0.492841,0.419112,0.021504,0.568163,0.707865,66.742409,26.474847,136.357072
15246,NaN,-10.611413,3.885907,0.120498,4.660559,-6.532850,-1.855594,1.618712,-2.172344,-0.510323,0.426919,0.031139,0.569378,0.701840,67.050501,26.260119,134.946815
15247,NaN,-10.991654,4.223609,0.089268,4.559940,-6.909321,-1.438387,1.679901,-2.147611,-0.580376,0.434842,0.040623,0.570736,0.695358,67.393222,26.095231,133.529742
15248,NaN,-10.295901,4.177572,-0.041143,3.936397,-6.657619,-1.835370,1.798737,-2.248790,-0.775497,0.443583,0.050143,0.572232,0.687947,67.763627,26.019305,132.010918
15249,NaN,-9.159035,3.891917,-0.608781,2.916224,-6.405461,-2.750933,1.999660,-2.294466,-1.149395,0.453620,0.059192,0.574247,0.678945,68.193420,26.142411,130.369251
15250,NaN,-8.479923,4.212755,-1.075700,1.887187,-6.276335,-2.894827,2.724052,-2.308670,-1.369536,0.464048,0.069272,0.578595,0.667150,69.010164,26.395262,128.672328
15251,NaN,-8.667869,5.162731,-1.345376,1.125240,-6.461755,-2.029935,3.299988,-2.499128,-1.600519,0.475436,0.080634,0.584230,0.652789,70.071202,26.759974,126.803842
15252,NaN,-8.671320,6.410268,-2.361535,-0.414462,-6.874510,-1.185898,3.793356,-2.937553,-1.823837,0.488320,0.093893,0.590206,0.635913,71.265393,27.193891,124.629573
15253,NaN,-8.031141,7.638972,-4.470759,-3.081089,-7.338265,-0.897487,4.037813,-2.962554,-1.982650,0.501366,0.107300,0.596542,0.617460,72.558661,27.753202,122.404007
15254,NaN,-7.477199,9.497481,-4.580568,-4.537843,-6.219773,0.569741,4.195590,-2.588978,-1.851093,0.512410,0.120260,0.603824,0.598640,74.048429,28.348081,120.445035
15255,NaN,-6.946063,10.979810,-4.202916,-5.256399,-4.771804,1.851311,4.091500,-2.133659,-1.568026,0.520994,0.132368,0.611386,0.580734,75.623086,28.902136,118.825342
15256,NaN,-5.316815,12.548269,-2.738284,-5.411363,-1.784437,2.865649,3.778875,-1.686686,-1.311278,0.527364,0.143078,0.618721,0.564448,77.170931,29.410399,117.543906
15257,NaN,-1.692090,14.703671,0.490082,-4.909727,3.878871,3.608574,3.306868,-1.219987,-1.070158,0.531755,0.151912,0.625518,0.550351,78.606679,29.870038,116.602943
15258,NaN,-0.693289,14.210194,2.039725,-3.482278,5.599788,2.957318,2.853303,-0.803038,-0.509492,0.533470,0.160106,0.631582,0.539333,79.954784,30.076757,116.015096
15259,NaN,-1.058374,13.541261,2.851154,-2.063918,5.678193,2.681361,2.792418,-0.486001,-0.045729,0.532883,0.168711,0.637810,0.529878,81.396460,30.063777,115.687218
15260,NaN,-1.606279,12.339929,2.540900,-1.374202,4.761104,1.881112,2.607148,-0.640926,0.235927,0.532081,0.178100,0.642784,0.521535,82.696743,29.884705,115.285972
15261,NaN,-2.683022,10.563773,0.234798,-2.120932,2.204068,0.650805,2.652752,-0.451301,0.312106,0.530349,0.187332,0.648183,0.513318,84.084835,29.683253,115.008146
15262,NaN,-5.017974,10.861826,0.129276,-1.185359,0.534886,2.081765,2.604792,0.039971,0.290747,0.527013,0.195069,0.654678,0.505571,85.604373,29.525136,115.048920
15263,NaN,-8.555200,10.813320,-0.129189,0.154771,-2.289621,3.783789,2.209918,0.219820,0.132358,0.523812,0.200770,0.660692,0.498797,86.948118,29.463554,115.193619
15264,NaN,-11.923978,10.676887,-0.686103,1.154554,-5.143804,5.315173,1.959271,0.078479,-0.053333,0.521717,0.205525,0.665838,0.492169,88.101147,29.501859,115.241348
15265,NaN,-13.074921,11.310013,-0.190601,2.042150,-5.473107,6.459341,1.886332,-0.422489,0.092470,0.520972,0.211791,0.669272,0.485601,89.049822,29.449152,114.960338
15266,NaN,-11.281124,10.966381,-0.660510,1.157872,-4.391058,5.265065,1.922005,-1.178992,0.505043,0.521643,0.221340,0.670319,0.479133,89.779517,29.158797,114.187006
15267,NaN,-8.802397,9.850560,-1.847874,-0.509365,-3.429777,3.067808,1.734705,-1.567294,0.770966,0.523126,0.232189,0.669505,0.473487,90.280815,28.724240,113.156715
15268,NaN,-6.814589,8.764654,-2.706877,-1.743992,-2.677913,1.158735,1.397264,-1.576906,0.851091,0.524754,0.242415,0.667690,0.469103,90.595105,28.249443,112.122556
15269,NaN,-5.322269,8.029431,-3.129143,-2.477789,-1.965847,-0.190539,1.187056,-1.404229,0.906312,0.525883,0.251836,0.665681,0.465719,90.848429,27.747188,111.200610
15270,NaN,-3.355867,7.462442,-3.646958,-3.461115,-0.787422,-1.587692,1.205114,-1.225212,1.009331,0.526087,0.261210,0.663994,0.462724,91.174818,27.187310,110.396140
15271,NaN,-1.346560,6.930957,-4.512203,-4.759434,0.368801,-2.926290,1.231710,-0.942957,1.101520,0.525066,0.270276,0.662922,0.460208,91.603710,26.576313,109.770531
15272,NaN,-0.395630,6.315801,-5.426420,-5.765357,0.614137,-3.823133,0.943991,-0.375413,1.049074,0.522624,0.277093,0.662707,0.459242,92.035150,25.988344,109.507677
15273,NaN,-0.950449,6.033369,-5.894619,-5.947947,-0.143718,-3.758601,0.659359,0.364851,0.933322,0.518376,0.281066,0.663899,0.459920,92.508526,25.452435,109.713411
15274,NaN,-3.286534,6.779885,-4.854197,-4.241326,-1.534240,-2.067557,0.906807,0.702148,1.103269,0.512234,0.285460,0.666267,0.460670,93.208037,24.807034,110.120737
15275,NaN,-5.850574,8.609493,-4.183344,-2.838910,-2.814785,0.669107,1.127490,0.453612,1.176141,0.506409,0.291213,0.668356,0.460483,93.958858,24.124873,110.357315
15276,NaN,-7.231459,10.760271,-3.230461,-1.521835,-2.898676,3.140800,0.922781,-0.079751,1.142186,0.502705,0.297545,0.668633,0.460091,94.452663,23.481598,110.253562
15277,NaN,-5.726880,11.853838,-2.915158,-1.652153,-1.170623,3.517981,0.734366,-0.364778,1.233046,0.500004,0.304344,0.667588,0.460105,94.766256,22.801107,109.963458
15278,NaN,-4.644248,11.938244,-2.060578,-1.070732,-0.063195,3.117247,0.624048,-0.055016,1.423568,0.495964,0.310776,0.666736,0.461412,95.088426,21.997236,109.852324
15279,NaN,-6.021747,11.617555,-1.163819,0.377842,-1.263157,3.257904,0.897248,0.244800,1.611276,0.490036,0.317793,0.666917,0.462703,95.629885,21.071865,109.908263
15280,NaN,-7.211641,11.808761,-0.916447,1.196398,-2.322712,3.805705,1.455426,0.217095,1.729436,0.482982,0.326606,0.668062,0.462332,96.477530,20.079463,109.927516
15281,NaN,-7.545951,13.403654,-0.757587,1.725440,-2.172128,5.335436,1.944069,0.019373,1.874349,0.475386,0.337484,0.669520,0.460277,97.555351,19.019388,109.798659
15282,NaN,-8.232478,15.208316,-0.712162,2.374496,-2.352343,7.169183,2.166548,-0.210833,2.047880,0.467684,0.349938,0.670512,0.457415,98.708108,17.881057,109.496647
15283,NaN,-9.951629,16.496820,-1.086636,3.015956,-3.836813,8.856034,2.277317,-0.613231,2.238844,0.460595,0.364122,0.670321,0.453803,99.847413,16.679264,108.915557
15284,NaN,-10.902430,17.566628,-2.102647,2.811800,-4.977448,10.166371,2.360710,-1.268502,2.611111,0.454556,0.381124,0.667924,0.449446,100.924287,15.344884,107.890536
15285,NaN,-8.118199,17.669527,-4.253838,0.324545,-3.324140,9.809577,2.273034,-1.646724,2.905009,0.449122,0.399602,0.663659,0.445155,101.905576,13.907712,106.593899
15286,NaN,-5.747258,16.676895,-5.959569,-1.734511,-2.159802,8.598549,2.007745,-1.580758,3.035934,0.443520,0.417624,0.658423,0.441995,102.769136,12.408067,105.303114
15287,NaN,-3.759042,14.639377,-8.081658,-4.270156,-1.560034,6.712260,1.898347,-1.285450,2.902746,0.437319,0.434147,0.653639,0.439346,103.636371,10.965336,104.182449
15288,NaN,-2.459805,13.361987,-9.056015,-5.440109,-1.036090,5.547157,1.873443,-0.910198,2.692845,0.430255,0.448980,0.649866,0.437003,104.556791,9.602098,103.286198
15289,NaN,-1.762852,12.340428,-10.474368,-6.854427,-1.023874,4.920376,1.914996,-0.455408,2.394415,0.422173,0.461813,0.647664,0.434776,105.564736,8.353637,102.669415
15290,NaN,-2.953189,12.795478,-10.719361,-6.396098,-2.304569,5.715191,2.058025,-0.041935,2.204943,0.412720,0.473334,0.646928,0.432551,106.699956,7.152923,102.291782
15291,NaN,-3.397527,14.343783,-10.538855,-5.374355,-2.645475,7.288638,1.978221,0.165603,2.130327,0.402863,0.483891,0.646490,0.430815,107.809646,5.967167,102.018614
15292,NaN,-2.061852,15.572771,-9.397762,-3.867852,-1.215620,8.037375,1.659362,0.706856,1.824550,0.392604,0.491566,0.647065,0.430734,108.772740,4.853687,102.075456
15293,NaN,-0.534850,16.924982,-6.958114,-1.175496,0.604738,8.446390,1.256017,1.516728,1.466454,0.381432,0.495468,0.649149,0.433158,109.541861,3.783118,102.621968
15294,NaN,-0.046915,17.517942,-5.030660,0.935936,1.237311,8.346942,0.700738,2.089229,1.123108,0.370456,0.495884,0.651865,0.438102,110.002450,2.778785,103.532542
15295,NaN,-0.180181,16.759115,-4.447777,1.392978,0.901670,7.447840,0.108234,2.477336,0.625626,0.360742,0.492657,0.655132,0.444923,110.121970,1.964367,104.741566
15296,NaN,-0.453765,15.331476,-4.249424,1.216290,0.346614,6.052894,-0.332006,2.807700,0.059393,0.352198,0.485952,0.659293,0.452923,109.982572,1.386960,106.242044
15297,NaN,0.101781,13.406339,-5.220137,-0.475538,0.282714,4.563765,-0.723641,3.263955,-0.591988,0.344514,0.475268,0.664791,0.462043,109.615944,1.081290,108.114478
15298,NaN,0.831250,11.384616,-6.294621,-2.396852,0.281233,2.997275,-1.035421,4.091381,-1.217364,0.336110,0.459867,0.672226,0.472932,109.073287,0.969064,110.558008
15299,NaN,1.330928,9.612348,-6.285613,-3.231201,0.334694,1.283216,-1.348753,4.946019,-1.785174,0.326724,0.439748,0.681248,0.485566,108.361190,1.037561,113.566438
15300,NaN,2.191251,7.999989,-5.989752,-3.945039,0.770782,-0.404611,-1.657391,5.603935,-2.313872,0.316747,0.415332,0.691176,0.499446,107.489434,1.317009,117.030231
15301,NaN,3.593013,6.487911,-5.976102,-5.185310,1.483686,-1.963418,-1.917202,6.174559,-2.841079,0.306326,0.386820,0.701682,0.513981,106.506437,1.848120,120.886266
15302,NaN,5.559436,5.030375,-6.027829,-6.862501,2.465946,-3.540578,-2.140129,6.762509,-3.393987,0.295242,0.353956,0.712605,0.528905,105.454276,2.657412,125.149613
15303,NaN,6.827387,3.821678,-5.604421,-7.836608,2.929774,-5.060580,-2.326749,7.537133,-3.812913,0.282340,0.316683,0.723692,0.544303,104.391425,3.664313,129.889074
15304,NaN,6.576709,2.784310,-4.595599,-7.414245,2.476922,-6.500747,-2.410161,8.372605,-4.078598,0.266660,0.275374,0.734614,0.559825,103.402277,4.787557,135.120763
15305,NaN,4.728290,2.130116,-3.459951,-5.627554,1.189491,-7.414282,-2.341837,8.885575,-4.137406,0.248522,0.231858,0.744721,0.574343,102.586438,5.959612,140.636331
15306,NaN,2.070085,1.846511,-2.488435,-3.079487,-0.252723,-7.731239,-2.219425,8.899379,-4.041957,0.229288,0.188206,0.753196,0.587113,101.950062,7.146184,146.146267
15307,NaN,-0.388584,1.816461,-1.490555,-0.475035,-0.987899,-7.698361,-2.093706,8.587576,-3.862076,0.210025,0.145856,0.759705,0.597882,101.475367,8.320189,151.459192
15308,NaN,-2.506658,2.081323,-0.142036,2.054122,-0.706518,-7.380879,-2.112215,8.121114,-3.683174,0.191548,0.105214,0.763847,0.607270,101.051254,9.487917,156.494744
15309,NaN,-3.882294,2.626820,0.927077,3.676743,0.078118,-6.763315,-2.384605,7.490003,-3.535686,0.174786,0.066594,0.764982,0.616293,100.511092,10.680556,161.160476
15310,NaN,-5.129300,3.092068,3.095474,5.394029,2.127210,-6.375413,-2.154493,6.516666,-2.967691,0.159643,0.033221,0.764530,0.623621,100.069889,11.693125,165.214152
15311,NaN,-5.686940,3.488973,4.829819,6.101691,4.064753,-6.061517,-2.013238,4.977807,-2.439476,0.148524,0.006753,0.762350,0.629855,99.581417,12.588508,168.331091
15312,NaN,-5.019986,3.662171,5.285854,5.269386,4.919027,-5.994315,-1.832902,3.247324,-1.932736,0.142306,-0.012222,0.758924,0.635322,99.002679,13.387141,170.398078
15313,NaN,-3.389749,3.716243,4.228087,3.278195,4.281468,-6.058078,-1.729298,2.007523,-1.516127,0.139430,-0.025583,0.754725,0.640542,98.330379,14.077652,171.700955
15314,NaN,-1.632880,3.956482,2.718538,1.135544,3.115651,-5.976996,-1.716079,1.621840,-1.219897,0.137031,-0.036595,0.750173,0.645851,97.614285,14.647085,172.749967
15315,NaN,-1.310186,4.365133,2.891159,0.655249,3.366966,-5.645796,-1.563861,1.391265,-0.862347,0.134352,-0.045395,0.745914,0.650769,96.952410,15.041146,173.630307
15316,NaN,-1.639138,4.481857,2.589871,0.813557,3.016980,-5.372370,-1.612037,1.002765,-0.726296,0.132650,-0.052467,0.741175,0.655981,96.203659,15.394812,174.270052
15317,NaN,-0.976089,4.564483,1.490144,-0.055893,1.953312,-5.319536,-1.864263,0.774728,-0.848496,0.132121,-0.059384,0.735351,0.662024,95.280381,15.839169,174.775662
15318,NaN,0.825962,4.817507,0.553668,-2.024130,1.130409,-5.474372,-2.049423,0.993762,-1.061976,0.131413,-0.067947,0.728886,0.668460,94.291388,16.404054,175.417764
15319,NaN,2.774244,5.730321,-0.367827,-4.296249,0.317322,-5.110898,-2.157417,1.872914,-1.208554,0.127935,-0.080017,0.722452,0.674754,93.398280,17.027895,176.580371
15320,NaN,3.082790,6.854927,-0.164400,-4.966850,0.418236,-4.185004,-2.136527,3.024090,-1.093884,0.119875,-0.095540,0.716641,0.680388,92.729821,17.567178,178.426028
15321,NaN,1.447736,7.117432,0.039105,-3.553699,0.357773,-3.488659,-2.493046,3.979963,-1.140908,0.108328,-0.114626,0.709837,0.686482,92.051112,18.129675,-179.155853
15322,NaN,-1.049725,6.647688,0.104329,-1.115757,0.260618,-3.180216,-2.647889,4.429412,-1.237454,0.095354,-0.135633,0.702223,0.692383,91.393639,18.768159,-176.461011
15323,NaN,-3.397828,6.071204,0.376501,1.182088,0.594458,-2.972009,-2.503303,4.267560,-1.225650,0.082947,-0.155849,0.694578,0.697418,90.817563,19.427296,-173.864070
15324,NaN,-4.587184,5.899705,1.120069,2.163467,1.460757,-2.721323,-2.248566,3.650326,-1.081215,0.072325,-0.173246,0.687273,0.701720,90.287690,20.032588,-171.637797
15325,NaN,-4.157126,5.979799,0.858423,1.666396,1.147501,-2.764122,-1.898990,2.969206,-0.811126,0.063375,-0.187103,0.680913,0.705219,89.834818,20.499747,-169.828304
15326,NaN,-3.375052,6.392750,0.509511,0.801213,0.635392,-2.638289,-1.537159,2.501172,-0.389336,0.054846,-0.197735,0.675879,0.707870,89.499021,20.737067,-168.300546
15327,NaN,-2.775605,6.822818,0.019016,0.188097,-0.016206,-2.449299,-1.296520,2.218222,0.021101,0.046060,-0.205844,0.671909,0.709961,89.244332,20.743117,-166.946851
15328,NaN,-2.456814,7.017329,-0.489383,-0.026800,-0.616509,-2.387235,-1.074002,2.018589,0.384106,0.036867,-0.211973,0.668944,0.711493,89.072137,20.545939,-165.709620
15329,NaN,-2.335665,7.089878,-0.833385,-0.016396,-0.991776,-2.367427,-0.889041,1.886171,0.709532,0.027162,-0.216452,0.666886,0.712513,88.973052,20.162066,-164.555216
15330,NaN,-2.240159,7.046400,-0.947144,0.023805,-1.112841,-2.441972,-0.752025,1.804863,0.997985,0.016833,-0.219665,0.665524,0.713122,88.926281,19.615182,-163.446588
15331,NaN,-2.122343,6.928252,-0.749205,-0.007244,-0.920941,-2.586538,-0.620866,1.788954,1.240522,0.005846,-0.221946,0.664826,0.713240,88.940411,18.927727,-162.352281
15332,NaN,-2.172343,6.842014,-0.556171,0.105053,-0.679230,-2.645529,-0.490718,1.806733,1.388140,-0.005594,-0.223797,0.664657,0.712822,89.017489,18.156815,-161.247663
15333,NaN,-2.417886,6.962117,-0.578764,0.402841,-0.586784,-2.454406,-0.307621,1.887372,1.518117,-0.017545,-0.225443,0.665205,0.711596,89.198526,17.307941,-160.104186
15334,NaN,-2.817774,7.268132,-0.484855,0.756672,-0.324424,-2.046028,-0.136020,1.991197,1.712073,-0.030350,-0.226826,0.666451,0.709557,89.475450,16.346124,-158.902467
15335,NaN,-3.384457,7.554385,-0.166010,1.195766,0.242507,-1.623691,-0.077126,1.954623,1.935050,-0.043736,-0.227271,0.668062,0.707198,89.757519,15.248942,-157.736867
15336,NaN,-3.851415,7.611917,-0.134961,1.718745,0.559398,-1.474655,-0.025159,1.766113,2.101433,-0.057030,-0.226495,0.669944,0.704715,90.014774,14.052803,-156.690371
15337,NaN,-4.158600,7.748337,-0.002038,2.050298,0.925373,-1.311696,0.156783,1.545953,2.263471,-0.069924,-0.224378,0.672604,0.701690,90.322140,12.757465,-155.789610
15338,NaN,-4.522029,8.061477,0.007856,2.457025,1.211764,-0.985117,0.383846,1.278379,2.438020,-0.082279,-0.220804,0.676207,0.698012,90.702476,11.360004,-155.055234
15339,NaN,-4.847086,8.626656,-0.123106,2.865575,1.370292,-0.440768,0.639957,1.003580,2.613825,-0.093998,-0.215702,0.680893,0.693557,91.179833,9.857454,-154.501857
15340,NaN,-5.332540,9.536356,0.328563,3.144514,2.145206,0.433660,0.830602,0.735281,2.722557,-0.104977,-0.209380,0.686324,0.688549,91.723424,8.293333,-154.117071
15341,NaN,-6.103455,10.657137,0.961850,3.610951,3.242279,1.509396,0.951114,0.367442,2.764615,-0.114670,-0.201633,0.692272,0.683341,92.296227,6.707636,-153.966832
15342,NaN,-6.729765,11.503526,1.018440,4.283359,3.790890,2.267372,0.978147,-0.121738,2.717299,-0.122476,-0.192384,0.698384,0.678416,92.848991,5.161436,-154.108683
15343,NaN,-7.078888,11.869957,1.196129,4.749383,4.328070,2.481020,1.072772,-0.627387,2.720186,-0.128383,-0.181391,0.704992,0.673500,93.437060,3.630092,-154.560866
15344,NaN,-6.963695,11.726231,1.363360,4.869382,4.619596,2.136894,1.016051,-1.047523,2.649891,-0.132621,-0.169188,0.711442,0.669057,93.990879,2.159893,-155.260424
15345,NaN,-6.763285,11.279382,1.575697,4.911737,4.860421,1.487298,0.987831,-1.350813,2.532083,-0.135349,-0.156297,0.717747,0.664899,94.541824,0.776440,-156.147284
15346,NaN,-6.576283,10.913693,1.743185,4.963063,5.040053,0.927465,1.124467,-1.592706,2.432773,-0.136770,-0.143049,0.724412,0.660347,95.190880,-0.528976,-157.176061
15347,NaN,-6.399472,10.665368,1.850279,5.026011,5.167428,0.490435,1.377482,-1.806281,2.356926,-0.136913,-0.129468,0.731828,0.654920,96.010893,-1.765645,-158.345635
15348,NaN,-6.055787,10.605076,1.635916,5.031050,4.960358,0.281422,1.619372,-1.958651,2.281025,-0.136094,-0.115834,0.739876,0.648571,96.997600,-2.930992,-159.610827
15349,NaN,-5.581034,10.699623,1.386636,4.901123,4.708045,0.254986,1.722500,-1.975541,2.182154,-0.134747,-0.102505,0.748005,0.641735,98.069998,-4.015183,-160.907513
15350,NaN,-5.106329,10.805284,1.413211,4.656802,4.727426,0.226469,1.629929,-1.936339,2.028338,-0.133109,-0.089827,0.755516,0.635144,99.111060,-4.992487,-162.182906
15351,NaN,-4.591644,10.902555,1.508116,4.340504,4.801555,0.203418,1.513054,-1.906073,1.879246,-0.131075,-0.077660,0.762387,0.628931,100.104783,-5.864418,-163.454365
15352,NaN,-4.179827,11.288173,1.859408,4.052850,5.213788,0.421376,1.460473,-1.874268,1.750921,-0.128806,-0.066078,0.768841,0.622837,101.084588,-6.646952,-164.702478
15353,NaN,-3.917737,11.883491,2.333548,3.895714,5.843955,0.802256,1.377771,-1.812614,1.612462,-0.126277,-0.055095,0.774799,0.617013,102.028845,-7.336160,-165.924838
15354,NaN,-3.415744,12.193530,2.260982,3.640052,5.854472,1.046922,1.332959,-1.739724,1.505998,-0.123758,-0.044768,0.780393,0.611283,102.955352,-7.956844,-167.095547
15355,NaN,-2.623791,12.381552,1.949121,3.139698,5.565532,1.284541,1.280278,-1.585119,1.384537,-0.121380,-0.035272,0.785580,0.605712,103.850936,-8.509733,-168.187243
15356,NaN,-1.878951,12.610525,1.519332,2.688116,5.204525,1.613049,1.099447,-1.325043,1.205202,-0.119579,-0.027229,0.789920,0.600821,104.627268,-8.986139,-169.103908
15357,NaN,-1.404072,13.063090,1.141984,2.481989,5.004509,2.133527,0.822840,-0.979600,0.999129,-0.118449,-0.020772,0.793133,0.597058,105.218379,-9.386194,-169.819040
15358,NaN,-1.468120,13.839097,0.975709,2.768953,5.174622,2.843641,0.549266,-0.669991,0.805501,-0.118093,-0.015941,0.795277,0.594420,105.623020,-9.722840,-170.318912
15359,NaN,-1.896844,14.739062,0.782750,3.419569,5.391328,3.629406,0.333485,-0.466443,0.627579,-0.117910,-0.012172,0.796636,0.592722,105.884745,-9.987523,-170.699219
15360,NaN,-2.667146,15.647457,0.725863,4.365712,5.767697,4.335002,0.151369,-0.308640,0.499927,-0.118108,-0.009394,0.797331,0.591799,106.022753,-10.208137,-170.951997
15361,NaN,-3.630473,16.364989,0.872907,5.428246,6.266187,4.782647,-0.180630,-0.238823,0.344690,-0.118100,-0.007237,0.796967,0.592321,105.955466,-10.350542,-171.144304
15362,NaN,-4.607710,16.421636,1.247651,6.369322,6.724656,4.563247,-0.577801,-0.169060,0.215718,-0.118042,-0.005574,0.795397,0.594457,105.654663,-10.436899,-171.273410
15363,NaN,-5.396814,15.547848,1.802324,6.963023,6.992576,3.481208,-0.963542,-0.131577,0.082549,-0.117698,-0.004317,0.792616,0.598238,105.120228,-10.452113,-171.363852
15364,NaN,-5.775933,14.103677,2.124182,7.115537,6.796545,2.017821,-1.161355,-0.095843,-0.019581,-0.117240,-0.003464,0.789223,0.602802,104.471075,-10.421060,-171.415159
15365,NaN,-5.856698,12.724765,2.429076,6.980583,6.571805,0.685007,-1.155897,-0.199629,-0.102068,-0.115936,-0.002451,0.785909,0.607371,103.838947,-10.326251,-171.542962
15366,NaN,-5.741124,11.469583,2.077742,6.782417,5.757468,-0.342864,-0.960673,-0.486216,-0.183398,-0.113435,-0.001177,0.783299,0.611207,103.339999,-10.152481,-171.793403
15367,NaN,-5.419589,10.900008,1.343115,6.533076,4.749352,-0.606845,-0.652354,-0.758742,-0.261498,-0.109561,0.000456,0.781730,0.613917,103.035810,-9.895625,-172.193376
15368,NaN,-5.050000,11.111184,0.680844,6.307699,4.017322,-0.143275,-0.463202,-0.962521,-0.378121,-0.104591,0.002149,0.780863,0.615881,102.861240,-9.554738,-172.689855
15369,NaN,-4.698141,11.773877,0.047411,6.121579,3.425734,0.746116,-0.391293,-1.172384,-0.542654,-0.098262,0.003762,0.780247,0.617693,102.730585,-9.089934,-173.281587
15370,NaN,-4.340135,12.418077,-0.593572,5.886693,2.815112,1.624877,-0.412530,-1.360630,-0.720222,-0.090675,0.005321,0.779669,0.619569,102.604990,-8.510184,-173.960143
15371,NaN,-3.911746,12.906769,-1.293584,5.518295,2.084580,2.384018,-0.544680,-1.523748,-0.938407,-0.081740,0.006534,0.778647,0.622081,102.394714,-7.783038,-174.699848
15372,NaN,-3.429409,13.303572,-1.833712,5.008701,1.460230,3.028030,-0.757115,-1.626301,-1.171983,-0.071690,0.007303,0.776990,0.625375,102.067090,-6.923201,-175.475116
15373,NaN,-2.968429,13.559774,-2.330502,4.438596,0.814008,3.519186,-1.054600,-1.694697,-1.431342,-0.060519,0.007319,0.774274,0.629908,101.546894,-5.908292,-176.258444
15374,NaN,-2.533283,13.733738,-2.752257,3.821698,0.192716,3.896976,-1.333635,-1.688302,-1.672199,-0.048618,0.006531,0.770613,0.635413,100.861073,-4.774333,-177.025101
15375,NaN,-2.291266,13.915548,-2.881995,3.324783,-0.167778,4.190963,-1.621747,-1.664611,-1.871113,-0.036128,0.004909,0.765821,0.642020,99.982079,-3.533916,-177.768080
15376,NaN,-2.138230,13.869108,-3.037380,2.868926,-0.623936,4.241248,-1.901889,-1.647822,-2.043049,-0.023164,0.002687,0.760003,0.649502,98.936436,-2.217954,-178.508705
15377,NaN,-1.934368,13.520829,-3.159257,2.322925,-1.125199,3.966081,-2.180187,-1.607711,-2.197333,-0.009791,-0.000256,0.753008,0.657939,97.704023,-0.825558,-179.239609
15378,NaN,-1.709203,12.860832,-3.189854,1.744514,-1.582951,3.337548,-2.425555,-1.484245,-2.350683,0.003574,-0.004134,0.745011,0.667030,96.322366,0.621117,-179.920242
15379,NaN,-1.527328,12.024771,-3.087112,1.224251,-1.912543,2.487001,-2.617562,-1.324782,-2.492046,0.016877,-0.009093,0.736057,0.676648,94.806002,2.129041,179.457977
15380,NaN,-1.473197,11.183011,-2.868332,0.866511,-2.092101,1.602737,-2.745537,-1.147661,-2.621439,0.029888,-0.015114,0.726448,0.686405,93.211756,3.679305,178.904969
15381,NaN,-1.509699,10.321183,-2.702594,0.636603,-2.285271,0.697623,-2.779118,-1.012200,-2.729250,0.042855,-0.021984,0.716404,0.696021,91.578881,5.278962,178.379645
15382,NaN,-1.685200,9.651124,-2.445420,0.574079,-2.333136,-0.005666,-2.692324,-0.919351,-2.781851,0.055572,-0.029345,0.706431,0.704986,89.989156,6.885810,177.870197
15383,NaN,-2.093379,9.342200,-2.163199,0.732057,-2.321864,-0.304822,-2.531040,-0.888103,-2.779102,0.068304,-0.036708,0.696737,0.713123,88.469252,8.484080,177.318754
15384,NaN,-1.777963,9.151478,-2.297444,0.160097,-2.663730,-0.590025,-2.286168,-0.924592,-2.730716,0.080880,-0.043719,0.687691,0.720158,87.069691,10.032687,176.718692
15385,NaN,-0.379468,9.143723,-2.722794,-1.508736,-3.201858,-0.945468,-2.117086,-0.912106,-2.681739,0.093429,-0.050441,0.679040,0.726383,85.743378,11.546454,176.065453
15386,NaN,1.467454,9.190909,-3.156589,-3.607000,-3.677515,-1.443349,-2.116942,-0.807039,-2.682364,0.105414,-0.057615,0.670233,0.732363,84.407672,13.043699,175.456590
15387,NaN,3.005452,9.170148,-3.078722,-5.337131,-3.629186,-2.006526,-2.229993,-0.523458,-2.728171,0.116783,-0.065899,0.660959,0.738344,83.021786,14.577544,174.941221
15388,NaN,3.278440,8.839484,-2.731166,-5.715101,-3.381409,-2.585148,-2.286560,-0.173441,-2.754860,0.126806,-0.075703,0.651443,0.744185,81.632931,16.134160,174.617893
15389,NaN,2.635119,8.167290,-2.501986,-5.093602,-3.278447,-3.239482,-2.230345,0.081670,-2.764625,0.136275,-0.086283,0.642126,0.749439,80.302299,17.718412,174.369922
15390,NaN,1.778523,7.953751,-1.999091,-4.372470,-2.967006,-3.293982,-1.989356,0.138964,-2.693111,0.145097,-0.096806,0.633553,0.753781,79.102389,19.256309,174.158700
15391,NaN,0.948324,8.320562,-1.407189,-3.877051,-2.631861,-2.731169,-1.603250,-0.004968,-2.449673,0.153888,-0.105554,0.626350,0.756877,78.092220,20.643873,173.821097
15392,NaN,0.212629,9.111619,-1.413774,-3.661865,-2.938072,-1.874194,-1.224162,-0.254656,-2.145068,0.162201,-0.112252,0.620379,0.759092,77.239204,21.818767,173.383285
15393,NaN,-0.165906,10.079820,-1.878213,-3.882664,-3.680117,-1.064226,-0.996857,-0.508732,-1.847611,0.170535,-0.116726,0.615202,0.760802,76.462162,22.795152,172.779731
15394,NaN,-0.219963,11.011667,-2.298416,-4.394109,-4.341798,-0.409243,-0.917221,-0.702144,-1.530897,0.178032,-0.119550,0.610229,0.762648,75.684687,23.555002,172.121898
15395,NaN,0.209986,11.630153,-2.863322,-5.219253,-5.025878,-0.273299,-0.905476,-0.802091,-1.210249,0.184819,-0.120884,0.605393,0.764675,74.899226,24.120085,171.412146
15396,NaN,1.198452,12.060527,-3.494770,-6.449537,-5.658739,-0.566855,-0.913320,-0.839852,-0.956940,0.190519,-0.121418,0.600566,0.766995,74.105574,24.525088,170.738864
15397,NaN,2.379474,12.225788,-4.217039,-7.725317,-6.279679,-1.222135,-0.988455,-0.816522,-0.834023,0.195803,-0.121648,0.595540,0.769542,73.277616,24.862597,170.069879
15398,NaN,3.343362,11.994450,-4.912744,-8.608819,-6.815083,-2.156331,-1.129797,-0.707092,-0.796862,0.200338,-0.122409,0.590036,0.772489,72.392027,25.184389,169.490163
15399,NaN,3.787986,11.550954,-5.597031,-8.913739,-7.366557,-3.076504,-1.201619,-0.496227,-0.755573,0.204178,-0.123864,0.584477,0.775472,71.517702,25.517075,169.020691
15400,NaN,4.151621,11.205500,-6.239613,-9.159189,-7.911257,-3.875477,-1.148177,-0.198918,-0.702068,0.206822,-0.126319,0.579411,0.778171,70.750601,25.865886,168.752654
15401,NaN,4.479868,11.612445,-6.442735,-9.679433,-8.220852,-3.883868,-0.982642,0.148215,-0.612937,0.208316,-0.129644,0.575397,0.780202,70.174661,26.233204,168.693537
15402,NaN,4.410004,12.416318,-6.876571,-10.023613,-8.932173,-3.437591,-0.837912,0.429843,-0.529067,0.208654,-0.133719,0.572262,0.781728,69.763055,26.607302,168.831807
15403,NaN,4.282861,12.856856,-7.876102,-10.135216,-10.115353,-3.438559,-0.827095,0.727950,-0.452356,0.207861,-0.138724,0.569500,0.783083,69.443781,27.001739,169.161849
15404,NaN,4.683345,12.909811,-9.055524,-10.473112,-11.304492,-4.057817,-0.880970,1.123676,-0.405561,0.205690,-0.145194,0.566959,0.784326,69.211756,27.451335,169.742768
15405,NaN,4.911848,12.986342,-9.006571,-10.588049,-11.405873,-4.183901,-0.926434,1.798054,-0.278024,0.201066,-0.153983,0.564976,0.785280,69.161135,27.971660,170.761321
15406,NaN,4.532265,12.732357,-8.127302,-9.967127,-10.755834,-4.010256,-0.942718,2.405304,-0.131126,0.194103,-0.164737,0.563581,0.785851,69.304107,28.535488,172.189662
15407,NaN,3.457690,12.215135,-6.788464,-8.627048,-9.663833,-3.533662,-0.750995,2.838566,0.078554,0.185210,-0.176385,0.563428,0.785579,69.725575,29.067107,173.942585
15408,NaN,1.997355,12.072622,-4.724509,-7.237874,-7.943865,-2.291853,-0.395033,3.076134,0.327414,0.174948,-0.187895,0.564982,0.784146,70.469281,29.495709,175.911556
15409,NaN,0.544570,12.085178,-2.601571,-6.034230,-6.082841,-0.885128,0.042091,3.142016,0.620801,0.163701,-0.198404,0.568450,0.781475,71.533667,29.749412,178.000550
15410,NaN,-0.705916,11.939322,-1.315662,-4.913226,-4.821950,0.055612,0.501845,3.001247,0.912234,0.152146,-0.207109,0.573735,0.777680,72.854031,29.782713,-179.933302
15411,NaN,-1.849222,11.929724,-0.623591,-3.897916,-4.040008,0.892786,0.875179,2.703572,1.223973,0.140560,-0.213427,0.580439,0.773164,74.321943,29.551146,-177.996606
15412,NaN,-2.897622,11.914104,-0.168824,-2.914992,-3.385211,1.606910,1.087021,2.264198,1.616321,0.128947,-0.216710,0.587926,0.768604,75.786491,28.996181,-176.289642
15413,NaN,-3.574342,11.754280,0.036969,-2.107491,-2.882842,1.942277,1.217468,1.739895,2.074498,0.117202,-0.216498,0.595956,0.764348,77.169822,28.076832,-174.870808
15414,NaN,-3.994700,11.645437,-0.056666,-1.437718,-2.671987,2.118747,1.316731,1.126394,2.527449,0.105661,-0.212487,0.604348,0.760558,78.416241,26.803289,-173.818470
15415,NaN,-4.301353,11.678835,-0.121043,-0.873728,-2.463843,2.355429,1.455863,0.544655,2.969631,0.094289,-0.204797,0.613289,0.756997,79.566218,25.195897,-173.116526
15416,NaN,-4.255323,11.946805,-0.022175,-0.688941,-2.184354,2.660118,1.461922,0.021763,3.340788,0.083120,-0.193927,0.622185,0.753902,80.563976,23.318152,-172.743919
15417,NaN,-3.596534,11.963713,0.052266,-0.909100,-1.951020,2.492417,1.443123,-0.400649,3.675910,0.071926,-0.180359,0.630949,0.751133,81.441193,21.205264,-172.633049
15418,NaN,-2.601868,11.643596,0.364921,-1.351173,-1.473238,1.954198,1.483888,-0.695860,3.920119,0.060782,-0.164821,0.639700,0.748281,82.269573,18.930998,-172.717252
15419,NaN,-1.861009,11.351288,0.733798,-1.586947,-0.923663,1.565431,1.548610,-0.880201,4.004293,0.049908,-0.148228,0.648423,0.745040,83.098898,16.594431,-172.935608
15420,NaN,-1.727025,11.110380,0.815987,-1.233077,-0.589949,1.376604,1.731478,-1.027760,4.003514,0.039656,-0.130971,0.657458,0.740961,84.006994,14.254676,-173.277943
15421,NaN,-1.950291,11.042985,0.902920,-0.586577,-0.228770,1.418947,1.880851,-1.174296,3.971061,0.030055,-0.113180,0.666676,0.736092,84.988573,11.928701,-173.741381
15422,NaN,-1.839343,10.714169,0.892014,-0.207218,0.020790,1.091909,1.857498,-1.257567,3.918080,0.020926,-0.095205,0.675408,0.730973,85.956445,9.639710,-174.294448
15423,NaN,-1.656279,9.982255,1.324973,0.081962,0.706390,0.366852,1.688676,-1.176303,3.807709,0.011809,-0.077870,0.683165,0.726004,86.852691,7.423527,-174.836132
15424,NaN,-1.889626,9.021379,2.147545,0.714008,1.782302,-0.546104,1.518973,-0.923463,3.600133,0.002537,-0.062139,0.689928,0.721201,87.681696,5.343760,-175.271040
15425,NaN,-2.706485,7.903550,2.761514,1.883752,2.658422,-1.640036,1.525324,-0.608406,3.393007,-0.007098,-0.048234,0.696407,0.715989,88.542980,3.392943,-175.556263
15426,NaN,-3.769937,7.090234,3.700420,3.174715,3.830655,-2.504077,1.642906,-0.303982,3.210693,-0.017085,-0.036042,0.703000,0.710070,89.485096,1.556535,-175.700783
15427,NaN,-4.606366,6.447307,4.774644,4.166080,5.091787,-3.309422,1.695664,-0.287621,3.065652,-0.026620,-0.024409,0.709542,0.703737,90.463535,-0.195977,-175.865081
15428,NaN,-4.929546,5.636997,5.767363,4.609521,6.200444,-4.368765,1.838448,-0.433834,3.020617,-0.035431,-0.012435,0.716366,0.696714,91.529098,-1.916107,-176.145438
15429,NaN,-4.714446,4.682419,6.166638,4.510974,6.637543,-5.598033,2.096597,-0.617678,3.037581,-0.043630,0.000201,0.723892,0.688532,92.759104,-3.637444,-176.565272
15430,NaN,-4.330938,3.951252,6.304679,4.227672,6.777226,-6.602573,2.487764,-0.763968,3.010784,-0.051176,0.013155,0.732519,0.678693,94.234172,-5.326537,-177.110461
15431,NaN,-3.815639,3.890309,5.989479,3.862389,6.491502,-6.897159,2.901249,-0.839914,2.903579,-0.058095,0.025866,0.742273,0.667073,95.971767,-6.935594,-177.742123
15432,NaN,-3.579272,4.352818,5.845869,3.814524,6.458542,-6.704732,3.099572,-0.820285,2.703209,-0.064410,0.037696,0.752379,0.654490,97.842873,-8.410518,-178.401909
15433,NaN,-3.621736,5.157622,5.095088,4.129121,5.915418,-6.121209,3.170446,-0.858379,2.466587,-0.069797,0.048724,0.762449,0.641425,99.778843,-9.726130,-179.114040
15434,NaN,-3.842276,6.634716,4.403800,4.749928,5.610769,-4.901172,3.270911,-0.808298,2.334884,-0.074943,0.059031,0.772534,0.627766,101.788747,-10.947451,-179.831551
15435,NaN,-3.779592,8.568720,4.490507,5.191672,6.251926,-3.345808,3.008161,-0.645189,2.183212,-0.080137,0.068319,0.781475,0.614986,103.648574,-12.080195,179.518762
15436,NaN,-3.539002,9.611676,4.336992,5.335475,6.516071,-2.547540,2.305508,-0.492083,1.953624,-0.084959,0.076498,0.788044,0.604910,105.099604,-13.088309,178.953939
15437,NaN,-3.064123,10.003813,4.150687,5.119138,6.579382,-2.250052,1.661432,-0.355496,1.689237,-0.089253,0.083484,0.792554,0.597430,106.167475,-13.958989,178.483346
15438,NaN,-2.541815,10.474100,4.226594,4.856411,6.897082,-1.883429,1.252430,-0.234217,1.428915,-0.093074,0.089246,0.795809,0.591659,106.984565,-14.699197,178.109494
15439,NaN,-2.254923,11.190266,4.455084,4.864608,7.411824,-1.353828,0.948407,-0.159367,1.100653,-0.096069,0.093618,0.798210,0.587253,107.606829,-15.267300,177.824523
15440,NaN,-2.129995,12.378104,4.400553,5.146349,7.784030,-0.323665,0.743328,-0.121294,0.723762,-0.098020,0.096467,0.800143,0.583829,108.093078,-15.634532,177.624117
15441,NaN,-2.202346,13.978944,4.446097,5.696935,8.371080,1.026967,0.583658,-0.052123,0.322621,-0.098983,0.097588,0.801743,0.581280,108.456423,-15.793468,177.533683
15442,NaN,-2.121611,15.401571,4.074812,6.027311,8.515026,2.413484,0.365842,0.080391,-0.074735,-0.099230,0.096835,0.802844,0.579843,108.656758,-15.761346,177.593401
15443,NaN,-2.005221,15.954458,3.365323,6.046636,8.051692,3.168024,0.036953,0.321358,-0.461259,-0.099145,0.093999,0.803039,0.580055,108.609261,-15.562086,177.861302
15444,NaN,-1.885673,15.706764,2.655564,5.790221,7.296007,3.246773,-0.435318,0.702589,-0.868676,-0.099203,0.088649,0.801863,0.582508,108.218383,-15.210822,178.420669
15445,NaN,-1.867039,14.840626,2.272052,5.405215,6.602410,2.680472,-0.915890,1.149545,-1.258567,-0.099674,0.080670,0.799170,0.587269,107.470335,-14.718075,179.296988
15446,NaN,-2.080254,13.618793,2.264523,5.105656,6.127261,1.646311,-1.268239,1.502774,-1.610978,-0.100391,0.070408,0.795324,0.593653,106.470005,-14.080348,-179.574634
15447,NaN,-2.459099,12.549905,2.376524,4.983934,5.819572,0.698239,-1.387309,1.667544,-1.916286,-0.100768,0.058492,0.790983,0.600642,105.381205,-13.278001,-178.320879
15448,NaN,-2.697275,12.154009,2.606575,4.855011,5.838825,0.391092,-1.274890,1.620732,-2.139113,-0.100329,0.045763,0.786917,0.607126,104.382245,-12.325763,-177.077993
15449,NaN,-2.752325,12.690158,2.674029,4.725179,5.956420,1.047762,-1.000371,1.354155,-2.287816,-0.098399,0.033113,0.783664,0.612447,103.588841,-11.232097,-175.987747
15450,NaN,-2.586615,14.284212,2.448732,4.548250,6.040782,2.818066,-0.707392,0.978905,-2.379427,-0.094781,0.021101,0.781381,0.616454,103.029191,-10.028317,-175.113507
15451,NaN,-2.461033,16.561937,1.904997,4.466144,5.961975,5.302744,-0.535646,0.635628,-2.465483,-0.089520,0.009726,0.779640,0.619721,102.614509,-8.722091,-174.438791
15452,NaN,-2.815954,19.163572,1.578338,4.752926,6.173930,7.989942,-0.585839,0.414493,-2.554918,-0.083139,-0.001292,0.777734,0.623070,102.208750,-7.337308,-173.887318
15453,NaN,-3.520669,20.890578,1.397080,5.154010,6.287276,9.799560,-0.916123,0.272143,-2.635197,-0.075899,-0.012040,0.774687,0.627658,101.632362,-5.882164,-173.423221
15454,NaN,-4.146381,21.051688,1.629481,5.243849,6.346255,10.067285,-1.471714,0.126451,-2.634057,-0.068158,-0.022114,0.769812,0.634236,100.763303,-4.409611,-173.058228
15455,NaN,-4.566560,19.612966,1.921427,5.075318,6.031523,8.816355,-1.922286,-0.114224,-2.530363,-0.059805,-0.030866,0.763389,0.642423,99.651512,-2.960718,-172.869399
15456,NaN,-4.726565,17.756641,2.072743,4.767501,5.479834,7.191726,-2.014244,-0.447634,-2.309347,-0.050936,-0.037669,0.756644,0.650751,98.506150,-1.607557,-172.914756
15457,NaN,-4.654681,16.541885,1.906709,4.391716,4.750998,6.220308,-1.778599,-0.938341,-2.045140,-0.040963,-0.041928,0.750641,0.658105,97.495111,-0.361595,-173.288837
15458,NaN,-4.230960,16.006877,1.340487,3.784839,3.743033,5.921627,-1.470261,-1.512346,-1.788199,-0.029659,-0.043389,0.745704,0.664201,96.657029,0.768010,-174.023582
15459,NaN,-3.379891,15.797925,0.314077,2.820395,2.318535,5.927560,-1.274206,-1.978534,-1.564985,-0.017257,-0.042490,0.741358,0.669541,95.905290,1.794201,-175.057769
15460,NaN,-2.425592,15.529774,-0.768931,1.751164,0.865173,5.802168,-1.260080,-2.193285,-1.403875,-0.004645,-0.040267,0.736992,0.674685,95.143918,2.721902,-176.233271
15461,NaN,-1.540404,15.225606,-1.856551,0.724033,-0.559150,5.575358,-1.368844,-2.185322,-1.343025,0.007765,-0.037836,0.732081,0.680122,94.295288,3.602516,-177.425154
15462,NaN,-0.943621,15.013553,-2.538367,-0.069093,-1.535813,5.365139,-1.534834,-1.984328,-1.355264,0.019394,-0.036131,0.726493,0.685949,93.346416,4.459107,-178.511892
15463,NaN,-0.593744,14.725761,-2.777902,-0.638211,-2.067974,5.027184,-1.771254,-1.720516,-1.408859,0.030254,-0.035542,0.719929,0.692477,92.251763,5.323845,-179.466267
15464,NaN,-0.439753,14.018462,-2.724629,-0.970598,-2.320180,4.251358,-1.939710,-1.474976,-1.455984,0.040306,-0.035990,0.712698,0.699386,91.064427,6.188138,179.707348
15465,NaN,-0.288004,13.170960,-2.794562,-1.267863,-2.676458,3.324480,-1.984740,-1.249036,-1.515155,0.049792,-0.037443,0.705170,0.706296,89.846072,7.071861,178.987947
15466,NaN,-0.262555,12.462779,-2.730709,-1.433119,-2.863277,2.539831,-1.978081,-1.008897,-1.597363,0.058664,-0.040023,0.697609,0.712950,88.641406,7.985263,178.390849
15467,NaN,-0.378430,11.877251,-2.581555,-1.456238,-2.941369,1.896092,-1.974072,-0.786330,-1.689205,0.067124,-0.043710,0.689947,0.719415,87.439758,8.946694,177.896108
15468,NaN,-0.544860,11.264138,-2.471854,-1.408532,-3.034370,1.236665,-1.975944,-0.582827,-1.768982,0.075110,-0.048395,0.682234,0.725654,86.249438,9.946129,177.499393
15469,NaN,-0.704135,10.625634,-2.333549,-1.344610,-3.073670,0.559513,-1.979466,-0.419598,-1.842741,0.082836,-0.053919,0.674394,0.731727,85.057739,10.989897,177.168053
15470,NaN,-0.804796,9.857163,-2.307700,-1.294127,-3.185087,-0.257019,-1.981794,-0.275274,-1.914181,0.090276,-0.060200,0.666489,0.737576,83.875091,12.072026,176.897490
15471,NaN,-0.920841,9.057626,-2.305210,-1.195866,-3.286957,-1.097023,-1.972279,-0.144429,-1.975259,0.097532,-0.067155,0.658501,0.743205,82.698667,13.195237,176.671362
15472,NaN,-1.025111,8.292207,-2.289901,-1.086275,-3.345891,-1.895894,-1.940200,-0.015164,-2.038573,0.104549,-0.074766,0.650575,0.748486,81.551953,14.356650,176.495065
15473,NaN,-1.079912,7.607583,-2.215522,-1.015890,-3.322838,-2.610398,-1.893303,0.100938,-2.108524,0.111485,-0.083004,0.642701,0.753404,80.433718,15.567536,176.351974
15474,NaN,-1.093136,6.965259,-2.203646,-0.971747,-3.335955,-3.294267,-1.837649,0.201382,-2.177065,0.118319,-0.091789,0.634962,0.757891,79.356352,16.821293,176.239438
15475,NaN,-0.978706,6.349418,-2.120900,-1.031223,-3.249040,-3.968978,-1.766796,0.288577,-2.245586,0.125179,-0.101066,0.627355,0.761933,78.318648,18.123979,176.141820
15476,NaN,-0.779845,5.804562,-2.061785,-1.167608,-3.168306,-4.602272,-1.710133,0.359015,-2.322407,0.132079,-0.110790,0.619864,0.765539,77.317566,19.473455,176.054431
15477,NaN,-0.457877,5.316032,-1.992931,-1.414444,-3.060121,-5.221953,-1.616878,0.415230,-2.377649,0.139072,-0.120822,0.612582,0.768638,76.364344,20.862289,175.964175
15478,NaN,-0.170259,4.912845,-2.022154,-1.633763,-3.048602,-5.776669,-1.522363,0.471225,-2.452616,0.146177,-0.131201,0.605550,0.771186,75.466064,22.296284,175.874607
15479,NaN,0.126802,4.655484,-1.961981,-1.898593,-2.966696,-6.188923,-1.401167,0.554506,-2.503312,0.153304,-0.141945,0.598862,0.773120,74.638489,23.771883,175.799378
15480,NaN,0.299463,4.640788,-1.718167,-2.142202,-2.761154,-6.296385,-1.229031,0.615701,-2.529609,0.160408,-0.152836,0.592763,0.774302,73.915439,25.267810,175.737248
15481,NaN,0.483851,4.696025,-1.629564,-2.419155,-2.715430,-6.389955,-1.037106,0.653318,-2.532655,0.167556,-0.163702,0.587294,0.774734,73.298609,26.773186,175.674258
15482,NaN,0.586497,5.012886,-1.631674,-2.738284,-2.823135,-6.253798,-0.854884,0.664235,-2.538177,0.174781,-0.174436,0.582441,0.774458,72.782567,28.280357,175.602511
15483,NaN,0.701588,5.553319,-1.638118,-3.186782,-2.989804,-5.950190,-0.711826,0.686566,-2.526402,0.182013,-0.185070,0.578045,0.773618,72.344248,29.786563,175.528714
15484,NaN,0.627516,6.114053,-1.649973,-3.499756,-3.179906,-5.554061,-0.629131,0.704953,-2.482203,0.189039,-0.195533,0.573940,0.772415,71.958302,31.269190,175.464894
15485,NaN,0.468205,6.688241,-1.931010,-3.744462,-3.640495,-5.186207,-0.619574,0.702631,-2.435123,0.195889,-0.205814,0.569799,0.771101,71.571391,32.727310,175.393997
15486,NaN,0.265645,7.285851,-2.136707,-3.988672,-4.040225,-4.764456,-0.553073,0.710807,-2.319491,0.202283,-0.215693,0.565965,0.769572,71.234104,34.121803,175.344360
15487,NaN,0.148808,7.983221,-2.266217,-4.382717,-4.389882,-4.298324,-0.500604,0.717485,-2.180590,0.208171,-0.225124,0.562393,0.767918,70.938146,35.443621,175.317917
15488,NaN,0.382052,8.821004,-2.652986,-5.125309,-5.003283,-4.008343,-0.447564,0.654868,-2.033051,0.213681,-0.233812,0.559065,0.766236,70.665101,36.672073,175.277894
15489,NaN,0.657918,9.854953,-2.851277,-6.045212,-5.491650,-3.569497,-0.416033,0.623102,-1.860945,0.218650,-0.241840,0.555954,0.764605,70.414847,37.802577,175.247937
15490,NaN,0.814869,10.805135,-3.037631,-6.826536,-5.961085,-3.141596,-0.485236,0.620969,-1.680740,0.222816,-0.249409,0.552752,0.763291,70.148777,38.834109,175.255996
15491,NaN,0.818940,11.349519,-3.161992,-7.244392,-6.282034,-2.918292,-0.652270,0.594905,-1.519179,0.226220,-0.256600,0.549033,0.762590,69.795811,39.774341,175.278463
15492,NaN,0.910007,11.622838,-3.194742,-7.559672,-6.447247,-2.927418,-0.715003,0.564101,-1.320726,0.228847,-0.263179,0.545262,0.762270,69.423123,40.601176,175.324992
15493,NaN,1.100524,11.821666,-3.563724,-7.834336,-6.907559,-3.136598,-0.637203,0.533131,-1.105179,0.230829,-0.268949,0.542003,0.761983,69.114574,41.306638,175.400889
15494,NaN,1.191116,12.587030,-3.873792,-8.389751,-7.480972,-2.848169,-0.417614,0.578324,-0.863854,0.232052,-0.273973,0.539938,0.761287,68.996550,41.892219,175.573037
15495,NaN,1.162827,13.967543,-3.939728,-9.286887,-8.007683,-1.964363,-0.240535,0.667766,-0.606722,0.232288,-0.278429,0.538990,0.760269,69.073198,42.358229,175.882254
15496,NaN,1.203881,15.119729,-4.689857,-9.951942,-9.103889,-1.438428,-0.169024,0.756933,-0.311574,0.231260,-0.282342,0.538817,0.759262,69.293400,42.684115,176.341053
15497,NaN,1.481711,15.875992,-5.954690,-10.401904,-10.556430,-1.442333,-0.176477,0.797394,-0.037629,0.229086,-0.285653,0.539079,0.758496,69.589917,42.868943,176.907210
15498,NaN,2.029274,15.988166,-7.186274,-10.579372,-11.796578,-2.047492,-0.509290,0.779849,0.100049,0.225940,-0.288923,0.538205,0.758821,69.709725,42.975508,177.501405
15499,NaN,2.640172,15.570928,-8.463224,-10.361079,-12.960384,-3.050882,-0.758861,1.484421,0.335733,0.219646,-0.294474,0.537549,0.759001,70.093184,43.090528,178.679110
15500,NaN,1.689707,15.214219,-6.931992,-9.521601,-11.561722,-2.194541,-1.021759,2.285393,0.753085,0.209188,-0.302223,0.537272,0.759105,70.801546,43.127136,-179.437924
15501,NaN,0.488544,14.335578,-5.821022,-8.049480,-10.354738,-1.590396,-1.042308,2.673802,1.142014,0.196152,-0.310324,0.537874,0.758890,71.770523,43.001280,-177.169498
15502,NaN,-0.566028,14.313785,-4.723544,-7.241830,-9.362093,-0.463245,-0.665348,2.957312,1.571139,0.181244,-0.317931,0.540637,0.757484,73.142382,42.658734,-174.601213
15503,NaN,-1.417501,14.733767,-3.610628,-6.883156,-8.398667,0.873778,-0.259460,3.164923,1.977790,0.164848,-0.324702,0.545703,0.754720,74.886146,42.069754,-171.825282
15504,NaN,-2.391222,14.964799,-2.631461,-6.289718,-7.359542,2.139192,0.054564,3.298139,2.350236,0.147104,-0.330630,0.552357,0.750963,76.844181,41.230494,-168.936950
15505,NaN,-3.863062,15.422907,-1.531197,-5.501874,-6.065788,3.900338,0.283147,3.347125,2.767758,0.128014,-0.335195,0.560496,0.746392,78.924896,40.081531,-166.034598
15506,NaN,-5.482627,15.599516,-0.793584,-4.283250,-4.809678,5.436008,0.478711,3.150049,3.294772,0.107729,-0.337333,0.569699,0.741650,80.929735,38.543695,-163.314691
15507,NaN,-6.418099,15.670150,-0.231224,-3.390286,-3.660457,6.369518,0.657351,2.730104,3.842460,0.086915,-0.335963,0.580125,0.736905,82.762204,36.583169,-160.979111
15508,NaN,-6.302610,15.761184,0.270680,-3.210267,-2.759682,6.626254,0.845150,2.185986,4.333773,0.066069,-0.330992,0.591318,0.732408,84.335593,34.261994,-159.112637
15509,NaN,-5.689330,15.773437,0.637009,-3.270092,-2.081812,6.511927,0.977522,1.614521,4.666838,0.045937,-0.322568,0.603171,0.728027,85.669079,31.674529,-157.750475
15510,NaN,-5.150545,15.535590,0.831388,-3.066159,-1.498155,6.214575,1.026712,1.089464,4.820027,0.026816,-0.311677,0.614767,0.724016,86.734481,28.966006,-156.819634
15511,NaN,-4.969735,15.079390,1.076396,-2.509613,-0.724807,5.883468,1.031223,0.598800,4.858547,0.009130,-0.298547,0.626170,0.720206,87.600821,26.197387,-156.294960
15512,NaN,-4.563777,14.317347,1.047905,-1.934210,-0.267060,5.122289,1.085410,0.130705,4.843451,-0.007036,-0.283734,0.637149,0.716579,88.309275,23.432599,-156.105646
15513,NaN,-3.733254,13.363684,0.717744,-1.591063,-0.255816,3.985991,1.271978,-0.230815,4.822789,-0.021637,-0.267371,0.648558,0.712332,89.034215,20.661659,-156.196845
15514,NaN,-2.894086,12.453505,0.041239,-1.234195,-0.634218,2.895919,1.449310,-0.298171,4.738377,-0.035538,-0.251044,0.659916,0.707266,89.820721,17.951123,-156.351069
15515,NaN,-2.385847,11.935749,-0.581729,-0.824807,-0.939467,2.307632,1.433782,-0.009858,4.541979,-0.049615,-0.236065,0.670700,0.701408,90.661322,15.343339,-156.388426
15516,NaN,-2.718674,11.723621,-0.441869,-0.111617,-0.296470,2.224947,1.238702,0.548003,4.318760,-0.065061,-0.223779,0.679865,0.695323,91.445164,12.869483,-156.113405
15517,NaN,-4.031278,11.255638,0.365125,1.234770,1.341653,2.007932,0.964799,1.122108,4.139724,-0.082045,-0.213735,0.687503,0.689148,92.138091,10.473364,-155.552131
15518,NaN,-5.514798,10.375527,0.993732,2.818018,2.883259,1.267845,0.694377,1.662973,3.964144,-0.100599,-0.206103,0.693319,0.683162,92.683308,8.169962,-154.685870
15519,NaN,-6.942587,9.600745,2.378222,3.910536,5.069992,0.435005,0.362535,2.120869,3.833063,-0.120545,-0.200091,0.697421,0.677522,93.046579,5.911464,-153.589170
15520,NaN,-7.975935,8.528245,3.694068,4.578617,6.988523,-0.858659,0.045719,2.152055,3.739244,-0.140583,-0.194357,0.699891,0.672767,93.173481,3.711234,-152.471794
15521,NaN,-8.638885,7.148184,4.501163,5.050673,8.229043,-2.550048,0.172246,1.764120,3.828831,-0.159374,-0.186922,0.702894,0.667533,93.326093,1.461619,-151.594910
15522,NaN,-8.785644,5.655817,4.655283,5.290862,8.579231,-4.405731,0.705627,1.029864,3.930510,-0.175361,-0.177105,0.707986,0.660786,93.739931,-0.816465,-151.146200
15523,NaN,-8.149046,4.785088,4.321555,5.018475,8.082267,-5.634632,1.407201,0.315312,3.963501,-0.188233,-0.165284,0.715790,0.651839,94.557737,-3.095060,-151.136983
15524,NaN,-6.966076,4.675442,3.584291,4.454664,6.985206,-5.993856,1.878245,-0.193099,3.804148,-0.198290,-0.152810,0.725109,0.641519,95.663282,-5.250071,-151.443394
15525,NaN,-5.727652,5.136664,2.797683,3.883093,5.894699,-5.667468,2.164076,-0.379330,3.559212,-0.206611,-0.140829,0.735027,0.630249,96.959336,-7.250934,-151.886010
15526,NaN,-5.128856,5.984561,2.496386,3.662043,5.635244,-4.998464,2.289986,-0.458271,3.252235,-0.213468,-0.129811,0.744894,0.618639,98.351480,-9.056605,-152.400641
15527,NaN,-5.001762,6.872727,1.821281,4.044064,5.333836,-4.266828,2.356025,-0.493927,2.931911,-0.219105,-0.119886,0.754515,0.606900,99.803725,-10.668031,-152.953091
15528,NaN,-5.183645,7.856194,1.203470,4.679852,5.296371,-3.482025,2.426872,-0.510712,2.665773,-0.223726,-0.110961,0.763945,0.594998,101.315736,-12.109739,-153.532732
15529,NaN,-5.479931,8.887594,0.606305,5.412812,5.390458,-2.669682,2.336693,-0.444278,2.406912,-0.227833,-0.103078,0.772655,0.583499,102.783531,-13.401935,-154.082885
15530,NaN,-5.668725,9.853340,0.106005,6.001789,5.537230,-1.904208,1.965802,-0.242400,2.108926,-0.231964,-0.096497,0.779706,0.573533,104.020239,-14.538973,-154.511089
15531,NaN,-5.451525,10.534525,-0.237845,6.136785,5.563641,-1.319630,1.355361,0.095952,1.820419,-0.236858,-0.091279,0.784344,0.566014,104.859579,-15.558758,-154.725017
15532,NaN,-5.219960,10.999677,-0.158097,6.041457,5.849641,-1.006765,0.756147,0.493482,1.580886,-0.242865,-0.087413,0.786622,0.560894,105.289089,-16.500715,-154.686266
15533,NaN,-5.028363,11.266077,0.429281,5.712741,6.476135,-0.991414,0.316434,0.762754,1.318778,-0.249383,-0.084788,0.787168,0.557660,105.409919,-17.340371,-154.454670
15534,NaN,-4.766693,11.189678,0.884854,5.322159,6.806149,-1.206715,0.089435,0.917717,1.032843,-0.255785,-0.083438,0.786726,0.555585,105.356530,-18.044244,-154.087481
15535,NaN,-4.455421,10.885907,1.009271,4.990365,6.731266,-1.496554,-0.012366,1.044725,0.710204,-0.261827,-0.083572,0.785668,0.554246,105.200342,-18.589163,-153.592244
15536,NaN,-4.233610,10.637830,0.901397,4.827847,6.506980,-1.673263,-0.030582,1.232530,0.354980,-0.267614,-0.085599,0.784135,0.553342,104.976043,-18.963182,-152.928207
15537,NaN,-4.125773,10.419207,0.731195,4.766801,6.282413,-1.817365,-0.063797,1.462098,-0.006359,-0.273305,-0.089626,0.782008,0.552933,104.665509,-19.167967,-152.070661
15538,NaN,-4.263099,10.269855,0.562447,4.891816,6.186633,-1.954221,-0.128161,1.699146,-0.367836,-0.278932,-0.095632,0.779171,0.553122,104.252817,-19.200787,-151.017093
15539,NaN,-4.732901,10.130418,0.600729,5.151415,6.412579,-2.214841,-0.210330,1.900399,-0.704785,-0.284423,-0.103381,0.775589,0.553965,103.737872,-19.065685,-149.795987
15540,NaN,-5.448956,10.016468,0.650760,5.574841,6.783370,-2.508619,-0.240082,1.987314,-0.976851,-0.289483,-0.112375,0.771578,0.555192,103.183085,-18.780221,-148.488021
15541,NaN,-6.011877,10.326294,0.583804,5.970306,7.157425,-2.313364,-0.087159,1.883069,-1.149308,-0.293533,-0.121951,0.767944,0.556083,102.735966,-18.373150,-147.223900
15542,NaN,-6.614219,11.886831,0.725831,6.406096,8.178147,-1.000935,0.320547,1.640540,-1.210887,-0.296206,-0.131675,0.765680,0.555569,102.576573,-17.895978,-146.099377
15543,NaN,-8.167365,15.133985,1.471335,7.354824,10.783140,1.480244,0.764185,1.284552,-1.249027,-0.297075,-0.141201,0.765066,0.553609,102.742155,-17.350960,-145.182569
15544,NaN,-10.185872,18.665283,2.061173,8.662980,13.643604,4.158242,0.911490,0.651204,-1.298026,-0.295269,-0.149366,0.765708,0.551541,103.109184,-16.703373,-144.628712
15545,NaN,-11.333606,20.192651,2.038799,9.428824,14.821646,5.410946,0.595793,-0.188514,-1.268719,-0.290525,-0.154632,0.766683,0.551254,103.437707,-15.961933,-144.565887
15546,NaN,-11.475261,19.635023,1.906601,9.400145,14.523037,5.072309,-0.038030,-0.836003,-1.192339,-0.284006,-0.156887,0.766880,0.553734,103.508433,-15.179793,-144.884601
15547,NaN,-11.133639,18.258101,1.697317,9.106852,13.520401,4.131953,-0.284614,-1.531592,-1.103625,-0.275207,-0.156521,0.767384,0.557570,103.535947,-14.349456,-145.616031
15548,NaN,-10.309669,17.522871,1.177288,8.727755,12.195674,3.964476,0.074658,-2.572525,-0.998805,-0.262417,-0.153317,0.770307,0.560588,103.906403,-13.437676,-146.951583
15549,NaN,-9.149147,17.938259,-0.105375,8.556102,10.461591,5.115113,0.530877,-3.681986,-0.968663,-0.245012,-0.147527,0.775713,0.562560,104.646514,-12.364675,-148.900450
15550,NaN,-8.100295,18.630755,-1.931278,8.651819,8.415995,6.641930,0.655700,-4.546209,-1.021502,-0.223906,-0.139510,0.782188,0.564433,105.520386,-11.115356,-151.313834
15551,NaN,-6.663547,18.910187,-4.004722,8.303691,5.791630,7.950236,0.425082,-4.959842,-1.130719,-0.200912,-0.130533,0.787847,0.567356,106.229017,-9.698238,-153.899604
15552,NaN,-5.155818,19.279741,-5.104629,7.208823,3.924724,9.080388,-0.271227,-4.856029,-1.337132,-0.178056,-0.121756,0.790862,0.572720,106.466526,-8.173534,-156.383930
15553,NaN,-3.373268,19.340322,-6.340564,5.742494,1.654397,9.932495,-1.200161,-4.500320,-1.725470,-0.155995,-0.114816,0.790057,0.581629,106.052323,-6.484239,-158.578752
15554,NaN,-2.416985,18.959122,-5.799625,4.239298,1.080098,9.674267,-1.746685,-4.166010,-1.908528,-0.134897,-0.108885,0.786926,0.592195,105.255959,-4.780880,-160.591865
15555,NaN,-1.486233,17.729424,-5.657937,2.908274,-0.062903,8.627561,-2.233962,-3.867008,-2.203286,-0.114354,-0.104808,0.781388,0.604460,104.089189,-2.980983,-162.395421
15556,NaN,-0.753558,16.322762,-5.318683,1.707785,-0.940657,7.258930,-2.571655,-3.514392,-2.503903,-0.094320,-0.102504,0.774100,0.617549,102.680637,-1.112937,-164.023525
15557,NaN,-0.246416,15.195533,-4.904640,0.714888,-1.537003,6.065055,-2.778711,-3.137418,-2.766651,-0.075029,-0.102368,0.765275,0.631067,101.085321,0.823140,-165.439557
15558,NaN,-0.008222,14.305452,-4.500485,0.004680,-1.940849,5.056482,-2.896480,-2.754304,-3.002920,-0.056425,-0.104083,0.755428,0.644446,99.392987,2.802963,-166.687928
15559,NaN,-0.007452,13.706882,-4.124099,-0.459945,-2.204977,4.321476,-2.948947,-2.374291,-3.198160,-0.038556,-0.107665,0.744720,0.657506,97.635509,4.827378,-167.771350
15560,NaN,-0.205496,13.262486,-3.852620,-0.696573,-2.463477,3.758882,-2.985147,-2.012739,-3.351357,-0.021588,-0.112949,0.733301,0.670109,95.837480,6.875645,-168.697197
15561,NaN,-0.375901,12.700182,-3.638555,-0.908686,-2.756075,3.079898,-3.029431,-1.685438,-3.475355,-0.005274,-0.119604,0.721229,0.682273,94.002669,8.951456,-169.517491
15562,NaN,-0.595227,11.960819,-3.547012,-0.983476,-3.124074,2.238811,-3.079105,-1.345566,-3.555700,0.009921,-0.127745,0.708455,0.694028,92.128507,11.032989,-170.190014
15563,NaN,-0.779259,11.139933,-3.399512,-1.037145,-3.384335,1.309631,-3.091690,-1.030814,-3.599065,0.024294,-0.136942,0.695264,0.705170,90.252429,13.115578,-170.773268
15564,NaN,-0.956064,10.310002,-3.377062,-1.017093,-3.703108,0.377744,-3.057368,-0.756628,-3.627161,0.037667,-0.147238,0.681745,0.715630,88.391436,15.194344,-171.247580
15565,NaN,-1.105490,9.678321,-3.121984,-1.059471,-3.737667,-0.350773,-2.920790,-0.516629,-3.619103,0.050454,-0.158124,0.668471,0.724981,86.621045,17.261245,-171.676239
15566,NaN,-1.249944,9.240820,-3.070103,-1.086572,-3.934597,-0.885004,-2.733887,-0.330011,-3.604566,0.062506,-0.169644,0.655492,0.733242,84.948201,19.312741,-172.037047
15567,NaN,-1.148672,8.816190,-3.093286,-1.306519,-4.188172,-1.484894,-2.561293,-0.196189,-3.595008,0.074370,-0.181368,0.642962,0.740388,83.377292,21.358337,-172.404576
15568,NaN,-0.999444,8.564672,-3.101043,-1.599051,-4.418050,-1.946228,-2.400751,-0.087963,-3.581341,0.085775,-0.193422,0.630680,0.746641,81.878551,23.392465,-172.746087
15569,NaN,-0.706477,8.379345,-3.171044,-2.012577,-4.700362,-2.422568,-2.203220,0.009736,-3.539350,0.097019,-0.205443,0.619022,0.751792,80.492149,25.405042,-173.103055
15570,NaN,-0.446966,8.314677,-3.281314,-2.409160,-5.011936,-2.800712,-1.987487,0.095502,-3.481055,0.107808,-0.217512,0.607932,0.755966,79.211162,27.383462,-173.438373
15571,NaN,-0.143743,8.502446,-3.277085,-2.961069,-5.251266,-2.979045,-1.789322,0.079488,-3.433865,0.118740,-0.229137,0.597446,0.759247,78.010263,29.328964,-173.844153
15572,NaN,0.076229,8.815287,-3.218438,-3.507376,-5.450092,-3.026018,-1.608581,-0.066438,-3.367678,0.129921,-0.239870,0.587371,0.761957,76.826696,31.209258,-174.377329
15573,NaN,0.226788,9.437509,-3.226201,-4.140760,-5.776669,-2.812594,-1.274730,-0.287452,-3.161058,0.141392,-0.248834,0.578510,0.763817,75.734037,32.937269,-175.084678
15574,NaN,0.089712,10.039604,-3.337846,-4.517905,-6.165027,-2.497298,-1.068916,-0.498062,-2.901968,0.152631,-0.256060,0.570426,0.765344,74.658849,34.477161,-175.930905
15575,NaN,0.269207,10.521216,-3.451530,-5.107561,-6.533817,-2.471408,-1.001127,-0.770650,-2.719960,0.164047,-0.261600,0.562502,0.766972,73.489706,35.861845,-176.982438
15576,NaN,0.522105,10.964423,-3.252709,-5.805847,-6.589260,-2.468569,-0.948737,-1.062647,-2.518040,0.175497,-0.265365,0.554670,0.768846,72.206089,37.066033,-178.239172
15577,NaN,0.622406,10.986257,-3.466482,-6.052628,-6.880002,-2.803774,-0.863849,-1.363946,-2.272569,0.186953,-0.267152,0.547123,0.770931,70.828329,38.059894,-179.703479
15578,NaN,0.836398,10.858932,-3.793020,-6.265980,-7.205542,-3.346352,-0.769631,-1.647696,-2.004723,0.198207,-0.266985,0.539919,0.773253,69.376339,38.823657,178.659295
15579,NaN,1.324095,10.725405,-4.271255,-6.645139,-7.634508,-4.104693,-0.698918,-1.872434,-1.742757,0.209141,-0.265116,0.533027,0.775794,67.872851,39.368524,176.895155
15580,NaN,2.055742,10.533053,-4.812625,-7.152360,-8.048801,-5.081153,-0.627047,-2.019478,-1.494726,0.219537,-0.261902,0.526487,0.778474,66.362238,39.712412,175.075835
15581,NaN,3.131689,10.430757,-5.675546,-7.912772,-8.715618,-6.314016,-0.522112,-1.991068,-1.249283,0.229030,-0.257987,0.520642,0.780974,64.956261,39.899825,173.330821
15582,NaN,4.425889,10.691915,-6.420623,-9.077334,-9.320174,-7.391537,-0.357646,-1.701551,-0.991103,0.236921,-0.254320,0.516023,0.782886,63.812858,39.994955,171.858411
15583,NaN,5.224033,11.399204,-6.528628,-10.230296,-9.503809,-7.605601,-0.231503,-1.332581,-0.720050,0.242965,-0.251215,0.512663,0.784242,62.958457,40.026692,170.718047
15584,NaN,5.581549,12.089983,-6.659377,-11.009995,-9.756577,-7.519977,-0.136189,-0.886035,-0.494883,0.247066,-0.249170,0.510455,0.785053,62.395425,40.050018,169.953307
15585,NaN,5.500345,12.870913,-6.438335,-11.537168,-9.795128,-6.929079,-0.069944,-0.411872,-0.290864,0.249256,-0.248364,0.509373,0.785319,62.122126,40.092099,169.571583
15586,NaN,5.063633,13.427943,-6.534045,-11.577040,-10.125050,-6.334286,0.013412,0.012305,-0.072058,0.249588,-0.248578,0.509382,0.785140,62.122080,40.136282,169.548781
15587,NaN,4.727546,13.911561,-7.202305,-11.535753,-10.965717,-6.013524,0.094563,0.442418,0.125006,0.248178,-0.249850,0.510540,0.784431,62.403567,40.194928,169.878256
15588,NaN,4.471865,14.007187,-7.784431,-11.268842,-11.612018,-5.943673,-0.070009,0.945859,0.242877,0.244784,-0.253023,0.511767,0.783680,62.828479,40.325058,170.587044
15589,NaN,3.978026,13.524852,-7.717533,-10.483307,-11.524906,-5.865524,-0.336761,1.498876,0.398428,0.239055,-0.258242,0.512872,0.783024,63.388391,40.513643,171.720236
15590,NaN,3.123558,12.672314,-7.205931,-9.203240,-10.957852,-5.630607,-0.441195,2.019697,0.679284,0.230697,-0.264920,0.514436,0.782274,64.176042,40.680245,173.308360
15591,NaN,2.319727,12.264015,-6.678236,-8.216707,-10.508797,-5.076739,-0.284720,2.454368,1.032098,0.219982,-0.272166,0.517527,0.780833,65.332539,40.747383,175.318538
15592,NaN,1.357552,12.643417,-5.898991,-7.639896,-10.066934,-3.748354,0.000350,2.817091,1.367015,0.207395,-0.279594,0.522454,0.778368,66.879613,40.689714,177.678929
15593,NaN,0.361111,13.387234,-5.130358,-7.248619,-9.680772,-2.105738,0.241570,3.118261,1.644821,0.193181,-0.287136,0.528900,0.774918,68.749396,40.493438,-179.673421
15594,NaN,-0.780475,13.952457,-4.162451,-6.675884,-8.934157,-0.420920,0.399862,3.357470,1.910088,0.177506,-0.294657,0.536364,0.770703,70.835164,40.135737,-176.814862
15595,NaN,-1.991227,14.205200,-3.023105,-5.908379,-7.784098,1.113163,0.512987,3.476003,2.222687,0.160359,-0.301571,0.544640,0.765968,73.047859,39.543470,-173.833461
15596,NaN,-2.960205,14.105778,-2.230931,-5.030264,-6.725871,2.110103,0.595951,3.394664,2.556929,0.142252,-0.307068,0.553403,0.761065,75.240224,38.670590,-170.910684
15597,NaN,-3.663911,13.889218,-1.812321,-4.169519,-5.905067,2.730918,0.700830,3.173324,2.916452,0.123436,-0.310503,0.562728,0.756101,77.345510,37.478627,-168.162128
15598,NaN,-3.926702,13.657025,-1.546451,-3.579126,-5.219645,3.003117,0.832033,2.904338,3.235121,0.104364,-0.311801,0.572578,0.751028,79.323695,36.004956,-165.664422
15599,NaN,-4.040888,13.619573,-1.270545,-3.194740,-4.573519,3.313034,0.967217,2.602620,3.509649,0.085234,-0.310948,0.582951,0.745798,81.161925,34.276241,-163.448675
15600,NaN,-4.075228,13.611276,-1.053961,-2.852253,-3.977072,3.566496,1.092464,2.303763,3.731655,0.066349,-0.308131,0.593686,0.740398,82.847837,32.347951,-161.531891
15601,NaN,-4.100446,13.628252,-0.627346,-2.593082,-3.172622,3.829722,1.144720,2.056090,3.906536,0.047547,-0.303694,0.604524,0.734888,84.376668,30.254914,-159.868407
15602,NaN,-4.256846,13.375093,-0.353872,-2.043573,-2.384477,3.871072,1.196293,1.785514,4.039355,0.029179,-0.297699,0.615347,0.729295,85.747525,28.042818,-158.476014
15603,NaN,-4.365473,12.989920,-0.010483,-1.512138,-1.508280,3.722552,1.277694,1.560502,4.133532,0.011215,-0.290417,0.626277,0.723401,87.017423,25.735917,-157.306160
15604,NaN,-4.479199,12.655776,0.504279,-1.084940,-0.490874,3.567820,1.312144,1.415781,4.175005,-0.006350,-0.282335,0.637027,0.717247,88.191524,23.385606,-156.307459
15605,NaN,-4.716512,12.192367,0.797120,-0.439219,0.386436,3.270262,1.351186,1.331573,4.197870,-0.023721,-0.273721,0.647639,0.710688,89.307684,20.998042,-155.425320
15606,NaN,-4.935031,11.617878,1.227289,0.136429,1.380469,2.792266,1.362525,1.251230,4.188913,-0.040722,-0.264718,0.657925,0.703848,90.355490,18.605987,-154.657865
15607,NaN,-4.915723,10.764438,1.421895,0.645301,2.066380,1.906943,1.382606,1.142956,4.156054,-0.057250,-0.255298,0.667940,0.696708,91.351133,16.215899,-154.007317
15608,NaN,-4.857853,9.794710,1.513948,1.131299,2.593887,0.855019,1.373168,1.090169,4.068830,-0.073235,-0.245866,0.677471,0.689362,92.292440,13.871927,-153.439316
15609,NaN,-4.849651,8.959367,1.622084,1.553150,3.079421,-0.091066,1.305815,1.075116,3.937892,-0.088809,-0.236674,0.686312,0.681964,93.164409,11.589871,-152.917365
15610,NaN,-5.023930,8.341925,1.698118,2.043089,3.547623,-0.816125,1.207703,1.116440,3.808443,-0.104116,-0.227928,0.694323,0.674629,93.956239,9.378304,-152.407386
15611,NaN,-5.440130,7.923954,1.921471,2.595802,4.211930,-1.351856,1.083138,1.154109,3.670614,-0.119229,-0.219618,0.701467,0.667455,94.658849,7.232792,-151.899635
15612,NaN,-6.044254,7.737735,2.187385,3.223287,4.972021,-1.684446,0.981816,1.022925,3.512486,-0.133379,-0.211292,0.707896,0.660643,95.272841,5.183162,-151.488848
15613,NaN,-6.449343,7.682347,2.108088,3.804464,5.317976,-1.920247,1.006974,0.753996,3.387993,-0.146130,-0.202453,0.714228,0.653864,95.876090,3.210989,-151.246031
15614,NaN,-6.742310,7.952154,2.155052,4.194332,5.729059,-1.880880,1.093327,0.504454,3.317242,-0.157590,-0.193060,0.720712,0.646891,96.512733,1.296350,-151.164867
15615,NaN,-6.861902,8.454556,2.076997,4.486553,5.970507,-1.621771,1.098531,0.341086,3.215814,-0.168110,-0.183440,0.727038,0.639926,97.150374,-0.554001,-151.189455
15616,NaN,-7.035269,8.996472,2.068589,4.806953,6.308439,-1.339462,1.024234,0.236537,3.073470,-0.177787,-0.173899,0.732871,0.633286,97.746599,-2.311566,-151.284402
15617,NaN,-7.066978,9.314501,2.059287,5.022239,6.544337,-1.275652,0.852849,0.173446,2.875086,-0.186735,-0.164683,0.737875,0.627335,98.250593,-3.953754,-151.415083
15618,NaN,-7.145794,9.238486,2.036888,5.285408,6.706048,-1.587975,0.603924,0.146487,2.609615,-0.194893,-0.156104,0.741748,0.622461,98.614866,-5.438973,-151.552702
15619,NaN,-7.097415,8.822036,1.945565,5.443651,6.653478,-2.191751,0.382254,0.230825,2.329909,-0.202655,-0.148576,0.744519,0.618505,98.849542,-6.775009,-151.624970
15620,NaN,-7.140341,8.545941,1.988334,5.582889,6.759878,-2.664135,0.327398,0.376168,2.074032,-0.210162,-0.142383,0.746682,0.614837,99.040565,-7.976271,-151.597468
15621,NaN,-7.413687,8.857967,2.240500,5.811083,7.272109,-2.616183,0.423544,0.572059,1.854639,-0.217651,-0.137692,0.748704,0.610828,99.267818,-9.073420,-151.441348
15622,NaN,-7.880883,9.724453,2.497976,6.210758,8.022919,-2.068807,0.625193,0.724091,1.681648,-0.225005,-0.134325,0.750982,0.606099,99.590703,-10.085746,-151.187202
15623,NaN,-8.278057,10.574364,2.438576,6.687448,8.504836,-1.492196,0.816392,0.785338,1.500084,-0.231902,-0.132023,0.753583,0.600753,100.010632,-11.004568,-150.885333
15624,NaN,-8.309608,10.943790,2.161135,6.902476,8.538235,-1.272405,0.839241,0.872247,1.233304,-0.238279,-0.131008,0.755912,0.595531,100.424744,-11.782497,-150.512223
15625,NaN,-7.996388,10.829733,1.772880,6.815368,8.186599,-1.392719,0.655800,1.026815,0.849330,-0.244208,-0.131675,0.757210,0.591318,100.703043,-12.363354,-150.012521
15626,NaN,-7.488387,10.316995,1.421711,6.483068,7.643664,-1.807697,0.507568,1.228890,0.455583,-0.249817,-0.134244,0.757525,0.587985,100.857813,-12.745325,-149.354606
15627,NaN,-7.118897,9.717858,1.102376,6.217004,7.153633,-2.295827,0.474771,1.456869,0.094396,-0.255237,-0.138803,0.757174,0.585043,100.952154,-12.950334,-148.525073
15628,NaN,-7.010222,9.277852,0.963511,6.056707,6.978948,-2.688200,0.451047,1.723095,-0.273773,-0.260585,-0.145495,0.756106,0.582435,100.987700,-12.978053,-147.500533
15629,NaN,-7.362573,9.061851,0.916042,6.211234,7.180437,-2.955406,0.411063,1.943675,-0.635999,-0.265714,-0.154133,0.754297,0.580238,100.963639,-12.825755,-146.308619
15630,NaN,-7.981961,9.137749,0.794976,6.609913,7.562728,-2.960564,0.494518,2.020615,-0.902160,-0.270268,-0.164091,0.752334,0.577947,100.976253,-12.532441,-145.043479
15631,NaN,-8.805258,10.251859,0.851749,7.086921,8.513769,-2.025330,0.786349,1.894968,-1.056694,-0.273620,-0.174641,0.751157,0.574801,101.174950,-12.139656,-143.834773
15632,NaN,-9.911834,12.536911,0.858301,7.798301,9.953524,-0.001558,1.257680,1.549726,-1.118604,-0.275057,-0.185051,0.751655,0.570188,101.692285,-11.681307,-142.816089
15633,NaN,-11.436766,15.758032,0.982955,8.680322,12.040111,2.826686,1.573767,1.027673,-1.156308,-0.274084,-0.194530,0.753638,0.564860,102.456192,-11.148715,-142.088502
15634,NaN,-12.493008,17.984985,1.017508,9.151158,13.474478,4.858816,1.276899,0.099818,-1.359077,-0.269315,-0.201721,0.755780,0.561760,103.151415,-10.395888,-141.856526
15635,NaN,-11.971081,18.514153,-0.777237,9.570540,12.009786,6.025410,1.038414,-0.588474,-1.366390,-0.262122,-0.206673,0.758102,0.560232,103.778104,-9.547216,-142.005754
15636,NaN,-11.056587,18.432031,-1.531256,9.091379,10.814247,6.457667,0.560501,-0.840374,-1.282227,-0.254703,-0.209953,0.759450,0.560609,104.152867,-8.711883,-142.299763
15637,NaN,-10.225511,17.958070,-2.237597,8.721306,9.494221,6.492220,-0.062652,-1.079575,-1.354529,-0.246783,-0.212035,0.759218,0.563673,104.182276,-7.798371,-142.715459
15638,NaN,-9.696557,17.840837,-2.506279,8.346208,8.683103,6.726112,-0.399235,-1.502305,-1.462848,-0.237313,-0.212895,0.758379,0.568524,104.041106,-6.769457,-143.351318
15639,NaN,-9.239482,18.047527,-2.954368,8.123724,7.780742,7.312064,-0.451583,-2.128401,-1.548304,-0.225214,-0.212213,0.757923,0.574280,103.893068,-5.603916,-144.328201
15640,NaN,-8.441620,18.453505,-3.870713,7.845963,6.302521,8.228162,-0.338082,-2.792824,-1.587998,-0.210346,-0.209847,0.758340,0.580206,103.822438,-4.331043,-145.669217
15641,NaN,-7.399283,19.038484,-5.068413,7.403838,4.447571,9.377819,-0.299671,-3.252619,-1.731723,-0.193178,-0.206678,0.758961,0.586468,103.755685,-2.912365,-147.247882
15642,NaN,-6.146535,20.431941,-5.569213,6.200000,3.140895,11.113686,-0.805969,-3.149698,-2.107444,-0.175788,-0.204664,0.757347,0.594673,103.355056,-1.309279,-148.720555
15643,NaN,-5.178259,21.639509,-5.415843,4.819634,2.364782,12.448002,-1.370150,-2.907010,-2.388387,-0.158952,-0.203870,0.753247,0.604805,102.585421,0.409226,-150.038879
15644,NaN,-5.027129,20.792293,-5.103683,4.280506,1.648198,11.693981,-1.934409,-2.787732,-2.580658,-0.142531,-0.203614,0.746841,0.616811,101.455397,2.194269,-151.293960
15645,NaN,-4.397230,18.954492,-4.589255,3.382998,0.711790,9.876297,-2.273027,-2.751466,-2.840994,-0.125676,-0.204113,0.738719,0.629950,100.089421,4.099222,-152.542958
15646,NaN,-3.664717,17.415549,-3.772498,2.245161,0.137373,8.238542,-2.372472,-2.812720,-3.083113,-0.107906,-0.205128,0.729685,0.643303,98.620372,6.110359,-153.851865
15647,NaN,-2.936198,16.398677,-3.345465,1.206727,-0.608425,7.124002,-2.331011,-2.913247,-3.297515,-0.088932,-0.206512,0.720165,0.656358,97.113925,8.221557,-155.260775
15648,NaN,-2.576002,15.691567,-3.109253,0.516511,-1.253268,6.331696,-2.283432,-2.991334,-3.484975,-0.068996,-0.208193,0.710197,0.668965,95.568984,10.401555,-156.764482
15649,NaN,-2.207591,15.003622,-3.111780,-0.101524,-2.047547,5.530535,-2.272103,-3.033194,-3.640407,-0.048294,-0.210160,0.699623,0.681196,93.953632,12.635379,-158.358800
15650,NaN,-1.807908,14.008339,-3.139353,-0.660640,-2.791466,4.367775,-2.301091,-2.975435,-3.730145,-0.027525,-0.212473,0.688371,0.692995,92.253202,14.867874,-159.993603
15651,NaN,-1.366604,12.818077,-3.168854,-1.170401,-3.436967,2.954170,-2.330526,-2.811657,-3.793694,-0.007074,-0.215431,0.676427,0.704262,90.475328,17.089830,-161.618998
15652,NaN,-0.953276,11.766440,-3.055365,-1.681680,-3.827752,1.640810,-2.286901,-2.568797,-3.847263,0.012759,-0.219269,0.664129,0.714627,88.682150,19.289274,-163.187065
15653,NaN,-0.652234,10.815711,-2.978177,-2.052680,-4.120196,0.437176,-2.202037,-2.276028,-3.889698,0.031891,-0.224157,0.651656,0.723934,86.907905,21.476178,-164.673173
15654,NaN,-0.549517,10.046143,-2.864019,-2.259503,-4.257159,-0.529383,-2.077885,-1.961403,-3.926685,0.050217,-0.230137,0.639262,0.732025,85.192927,23.649112,-166.057327
15655,NaN,-0.569617,9.424816,-2.710757,-2.373537,-4.283864,-1.298178,-1.971843,-1.669493,-3.950123,0.067821,-0.237112,0.626916,0.739023,83.525346,25.816948,-167.355280
15656,NaN,-0.601124,8.871570,-2.495443,-2.476386,-4.206033,-1.973328,-1.823666,-1.398267,-3.909371,0.084531,-0.244772,0.614940,0.744843,81.939449,27.943214,-168.566703
15657,NaN,-0.612233,8.335359,-2.296944,-2.559298,-4.104153,-2.620840,-1.714152,-1.210088,-3.892834,0.100722,-0.252924,0.603144,0.749734,80.390615,30.049745,-169.747074
15658,NaN,-0.515183,7.947704,-2.252362,-2.725722,-4.159801,-3.197509,-1.539856,-1.053024,-3.856279,0.116445,-0.261336,0.591858,0.753557,78.916329,32.120505,-170.906733
15659,NaN,-0.560895,7.791232,-2.102653,-2.885898,-4.120877,-3.478670,-1.323032,-0.945074,-3.787734,0.131850,-0.269720,0.581262,0.756308,77.525677,34.143046,-172.074629
15660,NaN,-0.548009,7.955003,-2.007349,-3.235744,-4.207908,-3.533638,-1.080029,-0.909417,-3.701586,0.147072,-0.277707,0.571502,0.758046,76.215774,36.095535,-173.287705
15661,NaN,-0.513484,8.393968,-2.253647,-3.673408,-4.686389,-3.461632,-0.853603,-0.927234,-3.605911,0.162264,-0.285091,0.562489,0.758947,74.952554,37.972347,-174.582875
15662,NaN,-0.358370,8.996037,-2.748166,-4.255266,-5.446286,-3.422851,-0.716297,-0.952238,-3.523519,0.177328,-0.291926,0.553907,0.759290,73.682928,39.773865,-175.962742
15663,NaN,-0.135184,9.626467,-3.136166,-4.950881,-6.106459,-3.432124,-0.672570,-0.923767,-3.413568,0.191921,-0.298435,0.545478,0.759314,72.375007,41.497588,-177.388738
15664,NaN,-0.106273,10.148880,-3.502434,-5.448063,-6.697816,-3.431127,-0.740661,-0.897166,-3.292291,0.205798,-0.304678,0.536837,0.759359,70.969947,43.131768,-178.855582
15665,NaN,0.031635,10.355621,-3.794561,-5.838472,-7.118807,-3.741305,-0.899976,-0.930761,-3.151769,0.218943,-0.310496,0.527600,0.759799,69.383970,44.656673,179.591584
15666,NaN,0.362028,10.166359,-4.056223,-6.084505,-7.373286,-4.470313,-1.121119,-0.994170,-3.021800,0.231339,-0.315875,0.517513,0.760845,67.564616,46.063240,177.927890
15667,NaN,0.554807,9.946485,-4.066367,-6.232485,-7.374549,-5.065321,-1.242481,-1.030467,-2.857882,0.242961,-0.320751,0.507030,0.762239,65.588461,47.337269,176.181826
15668,NaN,0.384841,10.137085,-3.778215,-6.465143,-7.255176,-5.044173,-1.166881,-1.037968,-2.628502,0.253776,-0.324838,0.497074,0.763541,63.612966,48.447315,174.411028
15669,NaN,0.120120,10.684129,-3.673709,-6.844021,-7.445777,-4.775558,-1.006097,-1.071926,-2.388508,0.263972,-0.327931,0.487967,0.764636,61.691097,49.386214,172.617185
15670,NaN,0.188156,11.159447,-4.040656,-7.277180,-8.015438,-4.946179,-0.950788,-1.097936,-2.200678,0.273549,-0.330326,0.479257,0.765747,59.769769,50.182931,170.805532
15671,NaN,0.586040,11.443425,-4.301681,-7.794184,-8.370305,-5.455954,-0.948373,-1.032332,-2.022674,0.282247,-0.332493,0.470863,0.766859,57.885081,50.873097,169.058981
15672,NaN,0.917616,11.488334,-4.270756,-8.138565,-8.357153,-5.942416,-0.908343,-0.882799,-1.787307,0.289719,-0.334573,0.463160,0.767859,56.145984,51.460754,167.485696
15673,NaN,1.040390,11.541286,-4.114149,-8.368755,-8.248689,-6.189328,-0.780420,-0.692471,-1.525346,0.295933,-0.336557,0.456639,0.768527,54.661951,51.959502,166.151581
15674,NaN,1.153133,12.000791,-3.837208,-8.918578,-8.188892,-6.142391,-0.555667,-0.513217,-1.243829,0.301008,-0.338232,0.451664,0.768761,53.499275,52.367894,165.073740
15675,NaN,1.104531,12.552421,-3.668729,-9.410595,-8.278863,-5.921355,-0.319044,-0.364780,-0.915703,0.304865,-0.339368,0.448368,0.768670,52.690739,52.665376,164.275864
15676,NaN,1.165745,12.991125,-3.969831,-9.753771,-8.718034,-5.972499,-0.164466,-0.193346,-0.587912,0.307344,-0.340185,0.446465,0.768429,52.211126,52.868524,163.783087
15677,NaN,1.374665,13.547133,-4.315574,-10.246166,-9.216156,-6.055403,-0.009416,0.012073,-0.235316,0.308256,-0.340763,0.446086,0.768028,52.107568,52.982189,163.650483
15678,NaN,1.875900,13.690751,-5.161633,-10.440787,-9.946468,-6.705306,0.023668,0.251359,0.064062,0.307557,-0.341541,0.446697,0.767607,52.302341,53.045018,163.868630
15679,NaN,2.514765,13.248768,-5.989392,-10.230844,-10.420606,-7.699153,-0.129749,0.584173,0.263573,0.305061,-0.343384,0.447588,0.767261,52.709279,53.131421,164.460702
15680,NaN,2.841804,12.523887,-5.969662,-9.794713,-10.107535,-8.244170,-0.309344,1.017353,0.462412,0.300542,-0.346710,0.448764,0.766862,53.367946,53.273857,165.495895
15681,NaN,2.793290,11.651011,-5.761959,-9.042751,-9.651166,-8.460167,-0.341766,1.490417,0.746959,0.293769,-0.351240,0.451020,0.766101,54.445327,53.433152,167.072658
15682,NaN,2.447352,11.371170,-5.204768,-8.651396,-9.175839,-7.986411,-0.183165,1.969527,1.091867,0.284873,-0.356562,0.455124,0.764574,56.075843,53.565973,169.222844
15683,NaN,1.600024,11.648103,-4.289013,-8.487027,-8.644998,-6.672261,0.029361,2.385790,1.420501,0.274072,-0.362364,0.461175,0.762165,58.256842,53.624907,171.901439
15684,NaN,0.248977,11.947839,-3.501130,-8.001013,-8.212012,-4.953684,0.202476,2.682185,1.717387,0.261743,-0.368297,0.468698,0.759059,60.846655,53.559570,174.966278
15685,NaN,-1.394827,12.393452,-2.448158,-7.518666,-7.502240,-2.833185,0.333310,2.831496,2.046847,0.247942,-0.373744,0.477419,0.755587,63.716941,53.277012,178.292330
15686,NaN,-2.672052,12.690917,-1.646862,-7.038678,-6.817242,-1.159292,0.400710,2.855508,2.456874,0.232618,-0.378101,0.487000,0.752170,66.701328,52.689463,-178.266702
15687,NaN,-3.307296,12.703723,-1.201579,-6.576481,-6.243532,-0.246145,0.393000,2.787602,2.924721,0.215551,-0.380919,0.497203,0.749151,69.651885,51.727819,-174.828744
15688,NaN,-3.378635,12.549009,-0.698350,-6.321750,-5.521408,0.132702,0.412271,2.702404,3.397072,0.196913,-0.382063,0.508034,0.746428,72.485295,50.393597,-171.499235
15689,NaN,-3.112003,12.432336,-0.268527,-6.250866,-4.886520,0.254379,0.487719,2.607234,3.844284,0.176843,-0.381437,0.519680,0.743750,75.176573,48.693689,-168.340868
15690,NaN,-2.733815,12.506015,-0.114036,-6.254724,-4.580596,0.373454,0.605060,2.533161,4.213341,0.155765,-0.379262,0.532069,0.740811,77.699555,46.692061,-165.408357
15691,NaN,-2.448040,12.995341,-0.140578,-6.362638,-4.564284,0.843011,0.734389,2.493982,4.493549,0.133845,-0.375840,0.545127,0.737337,80.066728,44.440426,-162.694673
15692,NaN,-2.527341,13.852439,-0.111781,-6.417177,-4.512802,1.879398,0.813044,2.484512,4.716162,0.111238,-0.371474,0.558474,0.733308,82.249533,41.994285,-160.198412
15693,NaN,-2.942328,14.609818,-0.125640,-6.079814,-4.304187,3.093994,0.761830,2.463942,4.881687,0.087848,-0.366308,0.571545,0.728998,84.185002,39.382414,-157.912357
15694,NaN,-3.265866,14.978502,0.105060,-5.620491,-3.701396,3.960146,0.601330,2.468415,5.009671,0.063673,-0.360594,0.583794,0.724639,85.831835,36.651409,-155.810070
15695,NaN,-3.770664,14.739313,0.450667,-4.719381,-2.704656,4.401016,0.429032,2.448281,5.119685,0.038739,-0.354236,0.595175,0.720266,87.201550,33.807241,-153.876321
15696,NaN,-4.370745,14.245460,0.612741,-3.537242,-1.729909,4.569837,0.377513,2.395773,5.194000,0.013628,-0.347207,0.605978,0.715578,88.365536,30.892201,-152.119016
15697,NaN,-5.048595,13.770428,0.494970,-2.182883,-0.935772,4.667189,0.372452,2.335697,5.252032,-0.011586,-0.339481,0.616387,0.710412,89.375107,27.908428,-150.513929
15698,NaN,-5.603235,13.251629,0.525361,-0.997135,-0.024457,4.548155,0.300701,2.306709,5.286235,-0.036887,-0.331282,0.626063,0.704937,90.215109,24.890114,-149.028532
15699,NaN,-6.058671,12.504405,0.497084,0.191078,0.843959,4.062466,0.169377,2.260497,5.299039,-0.062332,-0.322558,0.634810,0.699347,90.867676,21.840434,-147.648030
15700,NaN,-6.413364,11.569388,0.371790,1.351841,1.591123,3.253275,0.070824,2.189852,5.281422,-0.087541,-0.313370,0.642661,0.693630,91.357465,18.796434,-146.374941
15701,NaN,-6.687628,10.870441,0.393984,2.227006,2.347423,2.537941,0.004548,2.142820,5.233960,-0.112523,-0.303866,0.649730,0.687644,91.724838,15.764496,-145.173398
15702,NaN,-7.010629,10.412639,0.391556,3.026726,3.049524,1.986812,-0.009282,2.117614,5.189566,-0.137148,-0.294195,0.656164,0.681240,92.009760,12.759012,-144.023938
15703,NaN,-7.465744,10.167334,0.344453,3.861360,3.760586,1.595282,0.015221,2.093666,5.162147,-0.161509,-0.284296,0.662165,0.674261,92.243072,9.758113,-142.913126
15704,NaN,-8.009825,10.304443,0.594714,4.489001,4.739231,1.502905,0.011750,2.046900,5.123176,-0.185414,-0.274172,0.667611,0.666894,92.409600,6.783468,-141.851089
15705,NaN,-8.624942,10.563910,1.083229,4.994739,5.949821,1.446596,-0.054526,1.800226,5.070405,-0.208320,-0.263114,0.672512,0.659622,92.470238,3.836919,-140.940153
15706,NaN,-9.230437,10.871944,1.423116,5.580916,7.032217,1.357962,0.001199,1.353029,5.079122,-0.229484,-0.250447,0.677587,0.652295,92.504651,0.901857,-140.293018
15707,NaN,-9.622698,11.008888,1.784731,6.013652,7.982512,1.006093,0.184666,0.731477,5.133149,-0.248374,-0.235590,0.683590,0.644603,92.615054,-2.054380,-140.005716
15708,NaN,-9.477871,10.860948,1.708845,6.330712,8.207410,0.347214,0.477573,0.050671,5.178607,-0.264531,-0.218609,0.690966,0.636238,92.902831,-5.013458,-140.121261
15709,NaN,-8.897521,10.747709,1.354396,6.489709,7.907395,-0.230119,0.831798,-0.482469,5.150514,-0.278223,-0.200331,0.699681,0.626822,93.436856,-7.943222,-140.563487
15710,NaN,-8.235563,10.766756,0.867616,6.656004,7.448029,-0.610255,1.122910,-0.805178,5.012258,-0.289840,-0.181812,0.709137,0.616492,94.194939,-10.771953,-141.225059
15711,NaN,-7.764161,10.838691,0.313510,6.983309,7.050585,-0.905052,1.309865,-0.970452,4.756285,-0.299749,-0.163829,0.718717,0.605604,95.119462,-13.440675,-142.018477
15712,NaN,-7.390916,11.103064,-0.133553,7.302800,6.826036,-0.982807,1.451761,-0.966260,4.391683,-0.308249,-0.147299,0.727991,0.594403,96.167607,-15.884237,-142.844926
15713,NaN,-7.340787,11.835697,-0.349330,7.763113,7.098924,-0.680025,1.559105,-0.816081,4.006831,-0.315934,-0.132693,0.736695,0.582974,97.292785,-18.106243,-143.612213
15714,NaN,-7.650570,12.895716,-0.291337,8.367422,7.917482,-0.211195,1.595431,-0.561273,3.639425,-0.323302,-0.120194,0.744532,0.571578,98.423527,-20.121819,-144.252092
15715,NaN,-8.124097,13.462132,-0.115544,8.917241,8.790935,-0.303729,1.483845,-0.267108,3.321738,-0.330821,-0.109485,0.751112,0.560715,99.453283,-21.974138,-144.731357
15716,NaN,-8.218840,12.975574,-0.210616,9.102304,8.867098,-1.183536,1.278557,-0.015759,2.977879,-0.338320,-0.100408,0.756288,0.550897,100.320139,-23.647297,-145.059630
15717,NaN,-7.874787,11.877610,-0.498180,8.893273,8.278271,-2.349105,1.131932,0.180673,2.574517,-0.345454,-0.093121,0.760351,0.542084,101.053926,-25.111055,-145.248745
15718,NaN,-7.432592,10.797939,-0.624005,8.457819,7.709126,-3.389670,1.058001,0.372538,2.084262,-0.351957,-0.088080,0.763526,0.534224,101.679961,-26.317727,-145.278385
15719,NaN,-7.044901,10.269379,-0.485142,7.977745,7.553094,-3.928156,1.011898,0.577071,1.536101,-0.357759,-0.085585,0.765888,0.527351,102.195521,-27.241415,-145.120469
15720,NaN,-6.986682,10.073198,-0.264395,7.725674,7.746045,-4.275316,0.971773,0.775744,1.013972,-0.362932,-0.085536,0.767505,0.521441,102.597995,-27.898080,-144.772010
15721,NaN,-7.268629,10.125689,0.017038,7.699745,8.256086,-4.529594,0.989447,0.931201,0.541392,-0.367437,-0.087734,0.768638,0.516225,102.930581,-28.311930,-144.260349
15722,NaN,-7.708790,10.478255,0.270784,7.835232,8.961267,-4.559636,1.109934,0.894105,0.161059,-0.370749,-0.091513,0.769943,0.511232,103.315157,-28.511934,-143.717412
15723,NaN,-8.146932,11.775566,0.346903,8.264489,9.985128,-3.717765,1.489786,0.580010,-0.144808,-0.371866,-0.096370,0.772615,0.505464,103.989452,-28.502388,-143.328229
15724,NaN,-9.396815,14.665036,0.734521,9.337698,12.448945,-1.956095,2.042769,0.049161,-0.412252,-0.369965,-0.101934,0.777477,0.498262,105.120162,-28.274663,-143.230061
15725,NaN,-11.029901,18.294995,1.206379,10.657949,15.582912,0.256628,2.159521,-0.597887,-0.755133,-0.364575,-0.107429,0.783551,0.491520,106.476493,-27.756776,-143.470482
15726,NaN,-11.503971,19.825936,0.737009,11.338195,16.396049,1.525810,1.596513,-1.251262,-0.911731,-0.356508,-0.110884,0.789247,0.487541,107.673916,-27.040723,-144.069598
15727,NaN,-10.708663,18.515647,-0.298743,11.080165,14.610303,1.203628,0.669065,-1.617174,-0.928075,-0.347409,-0.111856,0.793231,0.487422,108.422171,-26.238504,-144.871274
15728,NaN,-9.970310,16.861230,-0.807585,10.562411,12.923789,0.471502,0.031287,-1.901656,-1.065350,-0.337188,-0.111549,0.795996,0.490154,108.851287,-25.305710,-145.800928
15729,NaN,-9.467173,16.838556,-0.850135,10.199933,12.425620,0.931708,0.029998,-2.544404,-1.258667,-0.323852,-0.110429,0.799599,0.493525,109.398883,-24.136034,-147.057551
15730,NaN,-8.541008,18.537211,-1.312160,9.981824,12.220655,3.198996,0.309449,-3.486889,-1.379348,-0.306236,-0.107874,0.805134,0.496329,110.281013,-22.708278,-148.812874
15731,NaN,-6.990822,20.437431,-2.875566,9.808174,10.967564,6.259683,0.398893,-4.358055,-1.464159,-0.284682,-0.103602,0.811811,0.499185,111.331214,-21.025419,-151.007196
15732,NaN,-4.639899,21.526326,-4.690804,8.767554,8.718124,9.002402,0.034193,-4.902604,-1.588127,-0.260663,-0.097878,0.817810,0.503647,112.188085,-19.132528,-153.425064
15733,NaN,-2.183733,21.823468,-5.734366,6.875949,6.518795,10.780662,-1.246830,-4.923765,-2.033109,-0.235839,-0.092197,0.819802,0.513619,112.185371,-16.976185,-155.710142
15734,NaN,0.277516,21.514290,-7.201370,4.908912,3.520317,12.055607,-2.431738,-4.476411,-2.593561,-0.211812,-0.088476,0.817335,0.528461,111.317226,-14.639193,-157.612923
15735,NaN,0.922144,20.553821,-6.667983,3.463525,2.439977,11.394011,-3.139202,-4.093007,-2.901230,-0.188628,-0.086217,0.811748,0.545941,109.906229,-12.245369,-159.268704
15736,NaN,1.217759,19.281212,-6.454694,2.456041,1.094511,10.375852,-3.548835,-3.822324,-3.267472,-0.165593,-0.085702,0.803905,0.564775,108.163176,-9.755154,-160.755310
15737,NaN,1.298972,18.723199,-6.008314,1.586557,0.316365,9.824522,-3.751882,-3.558690,-3.612584,-0.142523,-0.087082,0.794322,0.584087,106.214820,-7.162935,-162.107494
15738,NaN,0.989717,18.738683,-5.485984,1.069835,-0.074107,9.705246,-3.870538,-3.290129,-3.886922,-0.119673,-0.090148,0.783299,0.603320,104.130126,-4.514014,-163.350468
15739,NaN,0.641972,18.734774,-5.093984,0.613867,-0.596677,9.590879,-4.015168,-3.060359,-4.134620,-0.096869,-0.094712,0.770749,0.622569,101.896819,-1.799048,-164.529279
15740,NaN,0.613560,18.512004,-4.974939,-0.086101,-1.520528,9.302084,-4.180403,-2.845367,-4.347212,-0.074252,-0.100565,0.756664,0.641742,99.516421,0.957279,-165.668949
15741,NaN,0.697400,18.033960,-4.738845,-0.915190,-2.383129,8.667702,-4.295968,-2.536612,-4.513301,-0.052199,-0.107898,0.741134,0.660570,97.013516,3.736926,-166.739272
15742,NaN,0.699202,17.289364,-4.590355,-1.588921,-3.269945,7.712974,-4.314316,-2.133044,-4.635075,-0.031235,-0.116872,0.724566,0.678506,94.462698,6.507437,-167.694624
15743,NaN,0.676726,16.426522,-4.319174,-2.191597,-3.934078,6.575127,-4.247854,-1.639070,-4.741029,-0.011585,-0.127803,0.707259,0.695210,91.921916,9.283096,-168.492293
15744,NaN,0.578793,15.235520,-3.868252,-2.615509,-4.273966,5.094578,-4.120764,-1.120770,-4.806218,0.006510,-0.140622,0.689602,0.710374,89.452311,12.050135,-169.113747
15745,NaN,0.426681,13.859143,-3.359649,-2.847854,-4.378190,3.461352,-3.936230,-0.622526,-4.830537,0.023137,-0.155163,0.671877,0.723858,87.093995,14.816448,-169.570615
15746,NaN,0.231358,12.368806,-2.983241,-2.861445,-4.421338,1.769863,-3.699573,-0.177196,-4.840612,0.038426,-0.171159,0.654437,0.735486,84.894480,17.581679,-169.880093
15747,NaN,-0.043802,11.006054,-2.769062,-2.682446,-4.457210,0.272244,-3.347170,0.261125,-4.815544,0.052495,-0.188478,0.637786,0.744950,82.929227,20.351204,-170.037503
15748,NaN,-0.528794,9.943043,-2.344722,-2.349764,-4.163988,-0.770780,-3.013971,0.620453,-4.778147,0.065510,-0.206756,0.621998,0.752382,81.197603,23.117256,-170.068209
15749,NaN,-0.960498,9.082744,-2.161169,-2.020138,-4.051622,-1.592345,-2.710502,0.842829,-4.726620,0.077939,-0.225464,0.606965,0.758080,79.658228,25.877699,-170.045700
15750,NaN,-1.364985,8.330211,-1.930140,-1.718109,-3.840583,-2.245312,-2.357559,0.984311,-4.604498,0.089781,-0.244022,0.593046,0.762030,78.338469,28.580430,-169.992581
15751,NaN,-1.765773,7.725786,-1.790257,-1.421994,-3.689572,-2.715842,-1.992683,1.006070,-4.446164,0.101375,-0.261882,0.580306,0.764451,77.212188,31.201548,-169.971359
15752,NaN,-2.112436,7.406723,-1.723888,-1.258213,-3.650931,-2.929907,-1.608122,0.928645,-4.269951,0.112932,-0.278576,0.568914,0.765492,76.268120,33.710190,-170.026312
15753,NaN,-2.475191,7.460896,-1.535246,-1.297874,-3.584731,-2.769550,-1.174458,0.770244,-4.046964,0.124665,-0.293657,0.559095,0.765269,75.500746,36.075631,-170.200779
15754,NaN,-2.749731,7.829539,-1.409052,-1.570051,-3.680560,-2.408058,-0.797897,0.497033,-3.811771,0.136731,-0.306664,0.550677,0.764210,74.832788,38.265005,-170.561035
15755,NaN,-2.810693,8.669785,-1.184347,-2.327462,-3.870421,-1.808817,-0.418444,0.114660,-3.550358,0.149557,-0.317031,0.543801,0.762499,74.220894,40.250507,-171.202528
15756,NaN,-2.326682,9.580774,-1.725499,-3.318396,-4.853137,-1.712807,-0.202836,-0.359866,-3.318780,0.162912,-0.324797,0.537449,0.760996,73.473522,42.024838,-172.172355
15757,NaN,-1.244007,10.229487,-2.811915,-4.428604,-6.281166,-2.395054,-0.169978,-0.746796,-3.146145,0.176784,-0.330455,0.531145,0.759890,72.523221,43.631252,-173.465758
15758,NaN,-0.641207,11.177329,-2.604142,-5.770856,-6.558099,-2.342517,-0.266988,-1.047111,-2.914653,0.190244,-0.334417,0.524351,0.759624,71.309948,45.037685,-174.992757
15759,NaN,-0.925529,11.622871,-2.409960,-6.157137,-6.601655,-2.050405,-0.468114,-1.631458,-2.645926,0.203909,-0.335538,0.516616,0.760883,69.634101,46.161547,-176.988641
15760,NaN,-0.978355,11.606230,-2.965496,-6.166279,-7.195176,-2.420005,-0.586262,-2.386832,-2.363013,0.218118,-0.333112,0.507939,0.763845,67.434714,46.926111,-179.565059
15761,NaN,-0.173995,11.975538,-3.136801,-7.122172,-7.581175,-3.099030,-0.709579,-3.047273,-2.072809,0.232670,-0.327442,0.498422,0.768259,64.796896,47.311998,177.371543
15762,NaN,1.032162,12.105541,-3.463455,-8.125934,-7.943957,-4.293832,-0.888403,-3.490199,-1.769620,0.246731,-0.319413,0.487978,0.773936,61.858373,47.324851,174.057732
15763,NaN,1.846163,11.633808,-4.349579,-8.294705,-8.510514,-5.759089,-1.000549,-3.734594,-1.492003,0.260066,-0.309759,0.477063,0.780273,58.827142,47.014703,170.690425
15764,NaN,2.584391,11.247700,-5.223547,-8.481822,-9.019423,-7.134265,-0.971511,-3.766407,-1.245431,0.272416,-0.299231,0.466375,0.786603,55.932042,46.456244,167.470093
15765,NaN,3.409342,11.108476,-5.933345,-8.948264,-9.384389,-8.370823,-0.906037,-3.562878,-0.989326,0.283296,-0.288697,0.456443,0.792501,53.346109,45.741798,164.587427
15766,NaN,4.252539,10.970047,-6.759038,-9.404504,-9.779179,-9.652604,-0.837339,-3.137861,-0.739975,0.292207,-0.279092,0.447578,0.797745,51.165441,44.979959,162.187489
15767,NaN,4.966204,10.894740,-7.610408,-9.808634,-10.202469,-10.798024,-0.747627,-2.600714,-0.542034,0.299193,-0.270987,0.440049,0.802126,49.414756,44.270796,160.290704
15768,NaN,5.705396,11.070309,-8.449509,-10.398295,-10.698400,-11.790861,-0.577315,-1.903261,-0.383431,0.304185,-0.265039,0.434374,0.805323,48.154006,43.720773,158.941893
15769,NaN,6.230266,11.773331,-8.395112,-11.338426,-10.727609,-11.877285,-0.442632,-1.078379,-0.222102,0.306899,-0.261833,0.430712,0.807306,47.390723,43.403252,158.186258
15770,NaN,6.102742,12.366576,-7.874535,-11.781245,-10.544545,-11.295428,-0.424831,-0.321149,-0.053186,0.307312,-0.261293,0.428464,0.808519,47.002218,43.303700,157.964763
15771,NaN,5.616094,12.615447,-7.805980,-11.613345,-10.757557,-10.826579,-0.333966,0.346471,0.156319,0.305568,-0.262850,0.427927,0.808960,47.014758,43.376709,158.243085
15772,NaN,5.181057,12.944211,-8.063792,-11.442344,-11.316684,-10.464225,-0.222607,0.934177,0.313905,0.302067,-0.266285,0.428892,0.808641,47.377636,43.611568,158.945498
15773,NaN,4.867770,12.881248,-8.020434,-11.081002,-11.445650,-10.205240,-0.275166,1.525771,0.391507,0.296929,-0.271985,0.430718,0.807675,48.001164,44.038090,160.044440
15774,NaN,4.060673,12.629526,-6.972075,-10.396226,-10.776723,-9.196756,-0.321859,2.086748,0.551131,0.289819,-0.279678,0.433271,0.806264,48.896843,44.598089,161.580407
15775,NaN,2.901007,12.078503,-5.901775,-9.265172,-10.010318,-8.057406,-0.197932,2.505886,0.870442,0.280728,-0.288091,0.437499,0.804233,50.221261,45.155264,163.569670
15776,NaN,1.959357,11.847789,-5.250769,-8.426694,-9.648079,-7.041831,0.199423,2.785534,1.271043,0.269844,-0.296190,0.444020,0.801437,52.059542,45.593092,165.982047
15777,NaN,1.010666,12.662535,-4.581307,-8.324811,-9.655912,-5.362987,0.681411,3.011250,1.674575,0.257586,-0.303488,0.453489,0.797428,54.492098,45.860389,168.775709
15778,NaN,-0.031518,13.768220,-3.922888,-8.333204,-9.704481,-3.384716,1.026914,3.193205,2.072648,0.243658,-0.310133,0.464782,0.792733,57.332032,45.906212,171.901743
15779,NaN,-1.238434,14.698780,-3.054306,-8.127983,-9.348891,-1.243665,1.269980,3.345471,2.491231,0.228091,-0.315882,0.477929,0.787259,60.544006,45.674710,175.304721
15780,NaN,-2.737646,15.440723,-1.874538,-7.621240,-8.476991,1.116673,1.417825,3.364453,2.967411,0.210616,-0.320328,0.491929,0.781688,63.890437,45.073204,178.854701
15781,NaN,-4.274802,15.736174,-1.173652,-6.585356,-7.639655,3.052210,1.515766,3.135228,3.497752,0.191756,-0.322172,0.506893,0.776205,67.223338,43.990770,-177.695438
15782,NaN,-4.822547,15.785524,-1.087491,-5.820100,-7.131405,3.929173,1.690899,2.721333,4.052196,0.171862,-0.320737,0.522450,0.771127,70.349595,42.394943,-174.554559
15783,NaN,-4.739498,16.028247,-1.029399,-5.539597,-6.674999,4.509310,1.870906,2.322727,4.566098,0.151282,-0.315910,0.539078,0.765970,73.292431,40.320289,-171.792412
15784,NaN,-4.547052,16.223544,-0.832314,-5.279538,-6.040658,5.024188,2.041711,1.971672,5.014346,0.129996,-0.308278,0.556112,0.760793,75.970531,37.854263,-169.412470
15785,NaN,-4.458993,16.434597,-0.794552,-4.829657,-5.483343,5.586356,2.210789,1.646518,5.366633,0.108502,-0.297900,0.573896,0.755067,78.457001,35.058078,-167.435234
15786,NaN,-4.539061,16.812711,-0.675904,-4.285938,-4.813813,6.376321,2.469133,1.331900,5.679891,0.086930,-0.285154,0.592139,0.748667,80.763676,32.000070,-165.834381
15787,NaN,-4.593159,17.451949,-0.564215,-3.799310,-4.120891,7.346871,2.745326,1.014782,5.938270,0.065703,-0.269874,0.611268,0.741082,82.990193,28.706377,-164.625036
15788,NaN,-4.676515,18.116029,-0.476588,-3.193375,-3.345667,8.319018,2.997278,0.728885,6.136260,0.044812,-0.252696,0.630560,0.732483,85.110922,25.258543,-163.752862
15789,NaN,-4.945324,18.616413,-0.278600,-2.301169,-2.269494,9.174306,3.180683,0.475120,6.266232,0.024486,-0.233656,0.650089,0.722626,87.188578,21.686536,-163.210804
15790,NaN,-5.171671,18.616727,0.118440,-1.261647,-0.874821,9.444182,3.313858,0.239953,6.352059,0.004677,-0.213345,0.669123,0.711854,89.185476,18.059268,-162.944431
15791,NaN,-5.313609,18.050189,0.489345,-0.101477,0.545373,8.997468,3.422226,0.044888,6.393244,-0.014458,-0.191738,0.687916,0.699857,91.182137,14.387950,-162.948345
15792,NaN,-5.343233,17.161417,0.782805,1.010195,1.806013,8.054966,3.520453,-0.066039,6.397585,-0.033171,-0.169659,0.705944,0.686847,93.167082,10.732654,-163.131160
15793,NaN,-5.479475,16.256037,1.298657,2.082359,3.214760,6.955425,3.561173,-0.118019,6.352680,-0.051399,-0.147135,0.723335,0.672678,95.187710,7.099448,-163.489861
15794,NaN,-5.662109,15.262645,1.905232,3.088668,4.578702,5.615206,3.521023,-0.341857,6.230969,-0.068438,-0.124295,0.739417,0.658126,97.158533,3.577364,-164.072058
15795,NaN,-5.465096,14.253883,2.434849,3.649427,5.622012,4.113642,3.632492,-0.594769,6.155683,-0.084097,-0.100606,0.755095,0.642369,99.240544,0.128948,-164.931276
15796,NaN,-5.183504,13.342408,2.890124,4.029557,6.447552,2.651016,3.751035,-0.951613,6.021105,-0.097848,-0.076369,0.770120,0.625707,101.427958,-3.160884,-166.087425
15797,NaN,-4.809167,12.480616,2.933660,4.317590,6.745224,1.290681,3.866499,-1.380869,5.793107,-0.109036,-0.051470,0.784761,0.607958,103.792503,-6.231760,-167.606183
15798,NaN,-4.304557,11.616896,2.193706,4.540939,6.153523,0.174837,3.856659,-1.823237,5.423351,-0.117261,-0.026762,0.798440,0.589938,106.251738,-8.956034,-169.436500
15799,NaN,-3.543415,11.014089,1.099524,4.487241,5.182340,-0.429695,3.821705,-1.966742,5.065984,-0.123705,-0.002862,0.811224,0.571494,108.816147,-11.386931,-171.432797
15800,NaN,-2.782353,10.702551,0.660379,4.232122,4.887496,-0.818771,3.527228,-1.816660,4.719141,-0.129669,0.019246,0.822143,0.553982,111.265842,-13.564295,-173.382734
15801,NaN,-2.028836,10.177149,0.286824,3.867688,4.542124,-1.317995,2.987156,-1.582300,4.284614,-0.135214,0.039375,0.830826,0.538419,113.459829,-15.490516,-175.227601
15802,NaN,-1.272050,9.613585,-0.054888,3.412999,4.170875,-1.751610,2.598229,-1.221270,3.895204,-0.141060,0.057032,0.837673,0.524551,115.413493,-17.226839,-176.852802
15803,NaN,-0.518906,9.259742,0.091593,2.868833,4.312953,-2.120097,2.366083,-0.806735,3.516040,-0.147495,0.072254,0.843339,0.511668,117.216360,-18.827276,-178.240108
15804,NaN,0.085366,9.460758,0.546573,2.525416,4.982108,-2.157504,2.199231,-0.494754,3.116957,-0.154114,0.084982,0.848085,0.499779,118.869995,-20.264161,-179.395235
15805,NaN,0.503718,10.069262,0.893292,2.486057,5.763332,-1.873248,2.123553,-0.202273,2.800562,-0.161123,0.095708,0.852289,0.488347,120.443907,-21.599977,179.644196
15806,NaN,0.479323,10.781428,1.259950,2.882539,6.617102,-1.691609,1.939834,0.160684,2.462537,-0.168696,0.104189,0.855650,0.478069,121.827649,-22.849253,178.942891
15807,NaN,0.035601,11.368147,1.563882,3.615324,7.331972,-1.759984,1.655435,0.548990,2.088340,-0.176880,0.110383,0.858031,0.469373,122.951728,-24.026482,178.533241
15808,NaN,-0.590392,11.819182,1.931699,4.414102,8.001657,-2.050163,1.423766,0.900530,1.715131,-0.185510,0.114313,0.859605,0.462167,123.823967,-25.124990,178.414247
15809,NaN,-1.207845,12.405005,2.400439,5.183168,8.819665,-2.299439,1.302683,1.247572,1.399688,-0.194840,0.116195,0.860649,0.455872,124.513313,-26.187994,178.572063
15810,NaN,-2.190340,13.239506,3.200573,6.236593,10.047122,-2.707616,1.158120,1.648201,1.073701,-0.205010,0.115873,0.861040,0.450726,124.968862,-27.225774,179.050408
15811,NaN,-3.175351,13.846656,3.621300,7.222417,10.848887,-3.099911,0.958676,1.964276,0.735244,-0.215667,0.113575,0.860745,0.446885,125.169881,-28.214794,179.820389
15812,NaN,-3.814551,13.724362,3.893250,7.598690,11.122221,-3.761266,0.690520,2.070498,0.444072,-0.225919,0.110058,0.859786,0.444540,125.121332,-29.099887,-179.238882
15813,NaN,-3.967030,12.585113,3.326112,7.362888,10.114025,-4.457533,0.555910,2.066119,0.214861,-0.235567,0.105706,0.858556,0.442963,124.938673,-29.877150,-178.203332
15814,NaN,-3.926971,11.403528,2.383404,7.063302,8.767175,-4.874418,0.562305,2.135878,-0.018650,-0.244947,0.100175,0.857280,0.441631,124.677890,-30.561076,-177.031266
15815,NaN,-4.139149,10.720272,1.794571,7.071143,8.012124,-5.221398,0.472112,2.258377,-0.282771,-0.254207,0.093349,0.855675,0.441005,124.263012,-31.156189,-175.680120
15816,NaN,-4.522635,10.247796,1.474439,7.215977,7.613644,-5.616803,0.280691,2.315741,-0.536551,-0.263014,0.085532,0.853575,0.441495,123.653189,-31.636455,-174.187513
15817,NaN,-4.956234,9.956739,1.319331,7.410127,7.467680,-5.970431,0.163359,2.295380,-0.717324,-0.271257,0.077134,0.851193,0.442651,122.930002,-32.010325,-172.625906
15818,NaN,-5.339147,9.986273,1.191913,7.666399,7.541486,-6.070690,0.218344,2.041358,-0.846603,-0.278107,0.068659,0.849217,0.443591,122.278403,-32.225974,-171.151981
15819,NaN,-5.555731,10.896768,0.710259,8.242723,7.855713,-5.290252,0.581837,1.535295,-0.909197,-0.282766,0.060539,0.848679,0.442858,121.972848,-32.247347,-169.942911
15820,NaN,-6.052846,13.564712,0.914854,9.348416,9.842502,-3.713320,1.097617,0.965353,-0.941691,-0.285066,0.052798,0.850031,0.439769,122.132850,-32.077601,-169.048991
15821,NaN,-6.995807,17.705165,1.376630,11.114626,13.056391,-1.428431,1.327318,0.346519,-1.111493,-0.284388,0.045388,0.852749,0.435756,122.583448,-31.639886,-168.451720
15822,NaN,-7.398068,21.461319,1.058844,12.530959,15.380939,1.270269,1.120234,-0.404531,-1.306119,-0.280027,0.039052,0.856061,0.432689,123.103071,-30.879498,-168.202752
15823,NaN,-7.112867,23.067317,0.173096,12.911650,15.750282,3.146217,0.410017,-0.980168,-1.341249,-0.272927,0.034854,0.858589,0.432575,123.374168,-29.921849,-168.265199
15824,NaN,-6.444918,22.168779,-1.223902,12.488758,13.933486,3.765418,-0.643031,-1.260906,-1.403783,-0.264319,0.032376,0.859153,0.436971,123.103718,-28.847194,-168.450707
15825,NaN,-5.373482,20.274207,-3.371503,11.783802,10.675771,4.273899,-1.521226,-1.181803,-1.611504,-0.255394,0.029989,0.857603,0.445412,122.271721,-27.695155,-168.529899
15826,NaN,-5.247629,19.099507,-3.671997,11.316719,9.353499,3.979658,-1.924247,-1.194954,-1.759454,-0.246002,0.027507,0.855052,0.455646,121.201919,-26.471688,-168.586536
15827,NaN,-5.188304,18.295804,-4.517690,11.206321,7.770951,4.189417,-2.261284,-1.581583,-1.987622,-0.234294,0.025334,0.852011,0.467484,120.003498,-25.019574,-168.807760
15828,NaN,-4.495333,18.091626,-5.935691,10.831759,5.866239,5.384648,-2.584090,-1.962095,-2.237752,-0.220296,0.023359,0.848421,0.480734,118.687075,-23.345012,-169.191706
15829,NaN,-3.495025,18.242052,-7.048314,10.028682,4.224103,6.806107,-2.990717,-2.192966,-2.499439,-0.204499,0.021259,0.843742,0.495811,117.155161,-21.479540,-169.667009
15830,NaN,-2.345597,18.277173,-8.281894,8.948383,2.260441,8.156135,-3.445633,-2.315670,-2.830293,-0.187247,0.018528,0.837637,0.512795,115.363544,-19.432216,-170.170071
15831,NaN,-0.909683,18.406629,-8.982458,7.303871,0.615835,9.331100,-3.945521,-2.109179,-3.204417,-0.169668,0.014146,0.829488,0.531942,113.218015,-17.248996,-170.535532
15832,NaN,0.002309,18.435629,-8.501230,5.704764,-0.058633,9.667347,-4.452622,-1.867262,-3.576078,-0.151984,0.008007,0.819145,0.553026,110.738323,-14.942577,-170.769413
15833,NaN,0.587099,18.166379,-7.662266,4.225261,-0.536968,9.443341,-4.814165,-1.777468,-3.978333,-0.133332,0.000226,0.806923,0.575411,108.030220,-12.441187,-170.981314
15834,NaN,1.087470,17.756733,-6.769703,2.765086,-0.985460,8.990395,-4.939978,-1.774996,-4.368238,-0.113481,-0.009037,0.793468,0.597870,105.256769,-9.746018,-171.243747
15835,NaN,1.488124,17.562893,-5.777938,1.382380,-1.207014,8.641157,-4.914517,-1.733408,-4.764093,-0.092410,-0.020015,0.779061,0.619778,102.486728,-6.844512,-171.559663
15836,NaN,1.487910,17.514355,-4.713468,0.369912,-1.198375,8.338607,-4.746738,-1.627956,-5.125362,-0.070560,-0.032763,0.764131,0.640353,99.805717,-3.777093,-171.909184
15837,NaN,1.085714,17.507491,-4.000583,-0.213837,-1.397351,8.119444,-4.412827,-1.451044,-5.393271,-0.048319,-0.047195,0.749153,0.658944,97.291831,-0.584362,-172.276201
15838,NaN,0.235151,17.489218,-3.495098,-0.345956,-1.666101,7.938855,-4.043284,-1.295477,-5.604579,-0.025881,-0.062942,0.734401,0.675296,94.974231,2.693619,-172.672281
15839,NaN,-0.639552,17.342050,-3.277134,-0.429534,-2.162180,7.706203,-3.716813,-1.123700,-5.723354,-0.003473,-0.079690,0.719760,0.689625,92.813300,6.022221,-173.098148
15840,NaN,-1.464856,17.097622,-3.089214,-0.541629,-2.633043,7.411573,-3.469829,-0.946708,-5.755423,0.018447,-0.097056,0.705145,0.702147,90.772190,9.341018,-173.542668
15841,NaN,-1.945755,16.240801,-3.227602,-0.820038,-3.394685,6.486692,-3.259353,-0.775818,-5.733242,0.039832,-0.114834,0.690462,0.713084,88.816632,12.637284,-174.013407
15842,NaN,-1.996082,15.032777,-3.561669,-1.309464,-4.265208,5.109301,-3.050837,-0.583743,-5.661933,0.060314,-0.132866,0.675896,0.722408,86.959293,15.872549,-174.483618
15843,NaN,-2.016544,13.775995,-3.522622,-1.704224,-4.636179,3.670310,-2.887909,-0.338159,-5.534087,0.079614,-0.151190,0.661357,0.730350,85.175937,19.035228,-174.920897
15844,NaN,-2.105964,12.458269,-3.505798,-1.848497,-4.892239,2.209639,-2.688485,-0.134928,-5.335799,0.097531,-0.169360,0.647193,0.736848,83.499264,22.075510,-175.327696
15845,NaN,-2.023769,11.312680,-3.461020,-2.062977,-5.046623,0.878050,-2.522212,0.059222,-5.155247,0.114273,-0.187455,0.633298,0.742116,81.905687,25.021843,-175.707583
15846,NaN,-1.746180,10.390791,-3.317503,-2.424491,-5.060042,-0.298760,-2.291270,0.131529,-4.971829,0.130172,-0.204937,0.620009,0.746086,80.417602,27.853772,-176.116187
15847,NaN,-1.363966,9.648542,-3.218891,-2.845576,-5.081335,-1.364142,-2.062632,0.169447,-4.821546,0.145589,-0.221819,0.607271,0.748880,79.013586,30.601015,-176.579689
15848,NaN,-0.964523,9.105932,-3.016240,-3.304114,-4.982435,-2.250467,-1.848397,0.177948,-4.668041,0.160492,-0.237944,0.595143,0.750619,77.685118,33.246511,-177.101844
15849,NaN,-0.857217,8.803727,-2.630338,-3.611140,-4.704723,-2.743749,-1.628897,0.161692,-4.498009,0.175020,-0.253203,0.583639,0.751413,76.416843,35.790101,-177.701374
15850,NaN,-0.926126,8.780399,-2.175899,-3.914110,-4.395971,-2.882333,-1.355291,0.023148,-4.300499,0.189411,-0.266968,0.573005,0.751343,75.199331,38.187477,-178.445534
15851,NaN,-0.944734,8.903560,-1.911672,-4.306007,-4.293687,-2.969423,-1.155122,-0.275631,-4.155553,0.204334,-0.278895,0.562725,0.750870,73.892916,40.450856,-179.471008
15852,NaN,-0.679378,9.146101,-2.068596,-4.906178,-4.617627,-3.256337,-1.038358,-0.608842,-4.044099,0.219800,-0.288990,0.552468,0.750301,72.411787,42.572653,179.181778
15853,NaN,-0.432574,9.387254,-2.186168,-5.487472,-4.888151,-3.562290,-1.020538,-0.865454,-3.894969,0.235384,-0.297584,0.541946,0.749888,70.707652,44.542704,177.549382
15854,NaN,-0.424399,9.375594,-2.300521,-5.709903,-5.076701,-3.897804,-1.087105,-1.102008,-3.708411,0.250674,-0.304721,0.530972,0.749917,68.738845,46.322104,175.650785
15855,NaN,-0.487136,9.183343,-2.522990,-5.714130,-5.311004,-4.329344,-1.125227,-1.358042,-3.484805,0.265680,-0.310250,0.519645,0.750419,66.500196,47.880952,173.467233
15856,NaN,-0.496160,9.167344,-2.964005,-5.816396,-5.794726,-4.747964,-1.107423,-1.645851,-3.233656,0.280389,-0.313890,0.508220,0.751378,64.021442,49.173897,170.996975
15857,NaN,-0.340489,9.615222,-3.463318,-6.346097,-6.450444,-5.051308,-0.996992,-1.899172,-2.946738,0.294763,-0.315600,0.497111,0.752590,61.396796,50.183144,168.296063
15858,NaN,-0.065530,10.492506,-4.083172,-7.252919,-7.320979,-5.278808,-0.908522,-2.049358,-2.627899,0.308333,-0.315708,0.486476,0.754056,58.728041,50.906341,165.505166
15859,NaN,0.345447,11.549594,-4.602811,-8.399901,-8.112028,-5.532122,-0.899451,-2.021680,-2.305133,0.320563,-0.315047,0.476280,0.755739,56.116160,51.402035,162.805421
15860,NaN,0.930041,12.354815,-4.563063,-9.529972,-8.255340,-5.895244,-1.078957,-1.873946,-1.983671,0.330852,-0.314379,0.466049,0.757959,53.568075,51.716850,160.332800
15861,NaN,1.672319,12.156978,-4.649150,-9.888710,-8.132578,-6.937127,-1.352676,-1.698491,-1.711996,0.339210,-0.314143,0.455399,0.760831,51.051630,51.903265,158.108827
15862,NaN,2.320919,11.256373,-4.804746,-9.562050,-7.828261,-8.245306,-1.453624,-1.482690,-1.481637,0.345977,-0.314307,0.445015,0.763854,48.689730,52.008189,156.158550
15863,NaN,2.949047,10.664918,-4.956402,-9.432612,-7.602860,-9.343097,-1.308955,-1.271838,-1.286961,0.351702,-0.314557,0.435796,0.766447,46.614611,52.066368,154.468854
15864,NaN,3.454302,10.749682,-5.151178,-9.757554,-7.666120,-10.012039,-1.015815,-1.018246,-1.083690,0.356528,-0.314779,0.428415,0.768286,44.939717,52.107418,153.074829
15865,NaN,3.754466,11.371891,-5.196288,-10.427171,-7.845498,-10.183244,-0.794760,-0.674330,-0.861183,0.360070,-0.315437,0.422834,0.769454,43.686646,52.178907,152.054941
15866,NaN,3.622199,12.098236,-4.941312,-10.993434,-7.940229,-9.800826,-0.661988,-0.282435,-0.576692,0.361904,-0.316746,0.418890,0.770213,42.853422,52.290307,151.471919
15867,NaN,3.068447,12.591953,-4.751062,-11.118787,-8.154318,-9.161232,-0.516286,0.111063,-0.204212,0.361677,-0.318525,0.416827,0.770706,42.508161,52.418892,151.399251
15868,NaN,2.651473,12.952898,-5.074826,-11.096518,-8.746617,-8.850780,-0.295994,0.465494,0.212289,0.359481,-0.320397,0.416889,0.770923,42.689923,52.535570,151.833479
15869,NaN,2.688435,13.254319,-5.902168,-11.147095,-9.640325,-9.074332,-0.127553,0.844488,0.581782,0.355296,-0.322651,0.418901,0.770833,43.376192,52.663547,152.778464
15870,NaN,2.820474,13.407633,-6.343655,-11.168437,-10.141164,-9.195622,-0.146782,1.298170,0.892898,0.348954,-0.326023,0.422093,0.770569,44.455149,52.847330,154.230705
15871,NaN,2.640290,13.240869,-6.000524,-10.877965,-9.947204,-8.805563,-0.233636,1.809936,1.237694,0.339977,-0.330756,0.426413,0.770187,45.970539,53.075602,156.285303
15872,NaN,2.112910,12.729315,-5.470168,-10.128009,-9.545376,-8.162828,-0.180283,2.236530,1.664574,0.328535,-0.336083,0.432256,0.769589,47.986787,53.255757,158.924635
15873,NaN,1.561238,12.530639,-5.027154,-9.574995,-9.324583,-7.345864,0.053825,2.568619,2.103999,0.314933,-0.341266,0.440237,0.768470,50.582152,53.301962,162.111927
15874,NaN,0.847864,12.949124,-4.219256,-9.486911,-9.003328,-5.923900,0.356373,2.860747,2.515104,0.299591,-0.346090,0.450346,0.766587,53.703275,53.173608,165.743811
15875,NaN,-0.260932,13.559530,-3.562426,-9.244888,-8.856421,-4.094819,0.637341,3.089417,2.879989,0.282619,-0.350393,0.462383,0.763907,57.261686,52.815319,169.729695
15876,NaN,-1.611892,14.198354,-2.842437,-8.842929,-8.542517,-1.997918,0.900869,3.227187,3.253538,0.264302,-0.353824,0.475981,0.760523,61.092956,52.165680,173.899189
15877,NaN,-2.955686,14.752441,-2.069322,-8.319911,-7.965091,0.084390,1.081154,3.236492,3.674437,0.244432,-0.355826,0.490810,0.756800,65.025942,51.125070,178.111173
15878,NaN,-4.127052,14.976553,-1.540273,-7.502862,-7.299054,1.766852,1.217268,3.056127,4.160982,0.223338,-0.355565,0.506404,0.753159,68.801008,49.622514,-177.903304
15879,NaN,-4.675777,15.130424,-1.281756,-6.857009,-6.719421,2.844651,1.415661,2.749056,4.627642,0.201344,-0.352462,0.522928,0.749518,72.319598,47.640415,-174.309988
15880,NaN,-4.981472,15.795413,-1.017848,-6.631293,-6.228473,4.061901,1.713182,2.407658,5.067268,0.179063,-0.346364,0.540500,0.745539,75.544421,45.236806,-171.225306
15881,NaN,-5.380134,17.025158,-0.979152,-6.508644,-6.002994,5.719998,2.002181,2.015282,5.450179,0.156636,-0.337173,0.559046,0.741112,78.464458,42.446351,-168.681845
15882,NaN,-5.975284,18.292882,-1.043276,-6.069139,-5.699202,7.564863,2.219691,1.627168,5.819638,0.134256,-0.325032,0.578090,0.736303,81.049469,39.336063,-166.687856
15883,NaN,-6.576333,19.255601,-0.653748,-5.398218,-4.721195,9.236478,2.257499,1.224625,6.134842,0.111668,-0.310096,0.596970,0.731435,83.266102,35.941287,-165.195160
15884,NaN,-6.936812,19.397682,-0.260513,-4.309407,-3.478667,10.027186,2.266238,0.747537,6.392972,0.089576,-0.292318,0.615264,0.726620,85.111018,32.346267,-164.235250
15885,NaN,-6.837140,18.884449,-0.033851,-3.133189,-2.327339,9.884357,2.400028,0.208503,6.566597,0.068467,-0.271607,0.633397,0.721354,86.730480,28.592834,-163.777864
15886,NaN,-6.456707,18.332213,-0.033536,-2.122689,-1.489705,9.445509,2.635455,-0.311599,6.651942,0.049065,-0.248362,0.651448,0.715209,88.241347,24.783338,-163.792683
15887,NaN,-5.845173,17.814840,-0.096938,-1.358039,-0.816242,8.865794,2.854387,-0.723511,6.661568,0.031044,-0.223200,0.669418,0.707883,89.747004,20.950514,-164.161862
15888,NaN,-5.290654,17.155822,-0.264905,-0.548669,-0.275139,8.128143,2.975237,-1.006937,6.595908,0.014432,-0.196976,0.686734,0.699563,91.247874,17.182525,-164.808689
15889,NaN,-4.820411,16.312303,-0.086014,0.203171,0.556361,7.183436,3.015627,-1.123229,6.450170,-0.001381,-0.170546,0.703207,0.690226,92.780640,13.502531,-165.603135
15890,NaN,-4.572431,15.306550,0.242575,1.049783,1.485678,6.057034,3.005222,-1.114836,6.298564,-0.016575,-0.144498,0.718548,0.680099,94.330945,9.946369,-166.484125
15891,NaN,-4.444404,14.154739,0.424585,1.948189,2.187787,4.734653,3.038567,-1.036581,6.139658,-0.031591,-0.119075,0.733070,0.668904,95.958292,6.487287,-167.394224
15892,NaN,-4.214691,13.256550,0.845344,2.525755,3.008464,3.555662,3.102312,-0.885049,5.971156,-0.046397,-0.094684,0.746751,0.656693,97.666468,3.156530,-168.307718
15893,NaN,-3.965514,12.465439,1.140834,2.986796,3.631916,2.444622,3.105073,-0.787077,5.772211,-0.060980,-0.071217,0.759550,0.643657,99.437674,-0.054842,-169.240552
15894,NaN,-3.844908,11.719516,1.358321,3.475776,4.126422,1.359387,3.165087,-0.789740,5.565047,-0.074680,-0.048505,0.771598,0.629847,101.286688,-3.103788,-170.260117
15895,NaN,-3.595485,11.100854,1.347143,3.778485,4.333374,0.428038,3.267800,-0.884761,5.300732,-0.087192,-0.026470,0.783213,0.615040,103.267130,-5.970680,-171.400521
15896,NaN,-3.213885,10.716615,1.234131,3.892187,4.423711,-0.224041,3.333208,-1.000955,5.023947,-0.098192,-0.005197,0.794235,0.599602,105.346481,-8.611998,-172.678005
15897,NaN,-2.708031,10.422977,1.045638,3.839085,4.422007,-0.716479,3.313892,-1.069524,4.706909,-0.107984,0.015066,0.804562,0.583775,107.496522,-11.031597,-174.044793
15898,NaN,-2.192979,10.224415,0.895043,3.725729,4.462885,-1.076318,3.224369,-1.045150,4.355960,-0.116653,0.033852,0.813940,0.568109,109.643708,-13.200555,-175.437980
15899,NaN,-1.664324,10.123266,0.855028,3.554411,4.630479,-1.334244,3.110455,-0.918140,3.996928,-0.124810,0.050886,0.822444,0.552647,111.772257,-15.161585,-176.777929
15900,NaN,-1.277521,10.199622,0.810481,3.522493,4.865764,-1.433088,3.033818,-0.686263,3.660567,-0.132799,0.065885,0.830124,0.537510,113.855719,-16.936240,-178.000522
15901,NaN,-1.172392,10.519233,1.003491,3.760746,5.433496,-1.484970,2.974274,-0.375832,3.333547,-0.141193,0.078721,0.837135,0.522564,115.896812,-18.582412,-179.046994
15902,NaN,-1.369108,11.105873,1.400169,4.306701,6.305737,-1.515280,2.860980,-0.029116,3.025609,-0.150036,0.089380,0.843295,0.508285,117.823020,-20.115273,-179.891706
15903,NaN,-1.796882,11.706749,1.869859,5.041635,7.247060,-1.699912,2.726419,0.273498,2.763702,-0.159447,0.098253,0.848692,0.494617,119.639006,-21.582299,179.442782
15904,NaN,-2.184077,12.200536,2.331685,5.675155,8.114995,-2.003555,2.523011,0.585410,2.536031,-0.169382,0.105493,0.853117,0.482051,121.274447,-22.998805,178.960841
15905,NaN,-2.493952,12.442070,2.623985,6.149267,8.690022,-2.425835,2.241768,0.867969,2.336624,-0.179913,0.111429,0.856492,0.470783,122.700118,-24.400087,178.648701
15906,NaN,-2.838785,12.515715,2.889061,6.562154,9.127213,-2.981291,2.019724,1.140373,2.156378,-0.190944,0.116100,0.858949,0.460726,123.925604,-25.785469,178.504288
15907,NaN,-3.269544,12.865416,3.195426,7.105689,9.734264,-3.397015,1.887257,1.377532,2.001295,-0.202574,0.119678,0.860769,0.451350,125.019583,-27.178965,178.507747
15908,NaN,-3.647702,13.238334,3.399868,7.599552,10.263863,-3.729297,1.671698,1.504309,1.821935,-0.214109,0.122369,0.861875,0.443120,125.932604,-28.523399,178.618617
15909,NaN,-3.888054,13.273478,3.208630,7.915326,10.269280,-4.026638,1.414267,1.630726,1.659581,-0.225680,0.124349,0.862212,0.436115,126.648174,-29.843333,178.838271
15910,NaN,-4.009215,12.611312,2.299915,8.033164,9.268177,-4.338002,1.059918,1.687993,1.428099,-0.236685,0.125569,0.861702,0.430908,127.094938,-31.072400,179.168713
15911,NaN,-4.039143,11.873219,1.599851,7.981513,8.368111,-4.702469,0.735763,1.744120,1.156197,-0.247151,0.125878,0.860484,0.427363,127.282240,-32.203572,179.635357
15912,NaN,-3.879681,11.104120,0.784270,7.791765,7.339291,-4.874099,0.506399,1.795970,0.887998,-0.257053,0.125175,0.858778,0.425153,127.249826,-33.225770,-179.754939
15913,NaN,-3.986854,10.623480,0.776027,7.678499,7.111897,-5.361152,0.187288,1.883080,0.556952,-0.266430,0.123277,0.856401,0.424729,126.919667,-34.129197,-178.949756
15914,NaN,-4.246392,10.293032,0.770668,7.734781,6.966043,-5.785364,-0.148980,1.881462,0.170201,-0.274716,0.120149,0.853471,0.426241,126.285278,-34.844440,-177.967850
15915,NaN,-4.405770,10.073973,0.623904,7.792919,6.768283,-5.972704,-0.217199,1.673187,-0.121805,-0.281450,0.116314,0.850786,0.428276,125.592995,-35.347655,-176.966814
15916,NaN,-4.489835,10.523191,-0.029269,8.264215,6.577068,-5.414790,0.067834,1.208258,-0.361811,-0.285820,0.112035,0.849461,0.429152,125.149886,-35.573492,-176.124034
15917,NaN,-4.441448,12.902079,-0.149386,9.236726,7.999967,-3.738620,0.590652,0.680426,-0.621830,-0.287686,0.107040,0.850122,0.427869,125.119199,-35.502191,-175.477724
15918,NaN,-4.637826,17.019272,0.250480,10.857058,10.970201,-1.268587,0.996528,0.145815,-0.988029,-0.286689,0.101038,0.852588,0.425083,125.416108,-35.082353,-174.991310
15919,NaN,-4.729324,20.999578,0.194945,12.369546,13.527184,1.473840,0.633326,-0.383878,-1.583760,-0.281964,0.094137,0.855279,0.424420,125.542137,-34.209750,-174.565969
15920,NaN,-3.829006,22.629664,-1.579129,12.683066,13.096045,4.218252,-0.515889,-0.458173,-2.177408,-0.275094,0.086465,0.855834,0.429413,124.916260,-33.033356,-173.956932
15921,NaN,-3.709336,21.440407,-2.757424,12.288233,11.226843,4.469383,-1.661700,-0.210365,-2.381507,-0.268284,0.078944,0.853517,0.439660,123.540985,-31.829082,-173.162817
15922,NaN,-3.936393,18.773358,-3.836847,11.640289,8.439282,3.450017,-2.315453,-0.184575,-2.706917,-0.260558,0.070839,0.849642,0.452989,121.768273,-30.460257,-172.287144
15923,NaN,-4.119419,17.432182,-4.820962,11.393417,6.479491,3.311884,-2.427095,-0.423379,-3.202797,-0.250525,0.061277,0.845677,0.467240,119.961092,-28.750001,-171.441757
15924,NaN,-3.843669,17.669576,-5.876765,11.232371,5.256022,4.598166,-2.507098,-0.708010,-3.735626,-0.237939,0.050209,0.841667,0.482141,118.170743,-26.676088,-170.666313
15925,NaN,-3.000882,18.452163,-6.967754,10.604759,4.076710,6.584639,-2.851624,-0.922798,-4.188020,-0.223079,0.038120,0.836680,0.498748,116.238009,-24.287492,-169.971041
15926,NaN,-1.435401,19.008961,-7.646952,8.941201,2.797996,8.462554,-3.444924,-1.114241,-4.636291,-0.206069,0.025282,0.829890,0.517860,114.037339,-21.605465,-169.372390
15927,NaN,0.609491,18.709957,-8.783834,6.578135,0.394024,9.783509,-4.044108,-1.093708,-5.114886,-0.187562,0.010974,0.820753,0.539504,111.516155,-18.646295,-168.779828
15928,NaN,2.595010,18.495051,-9.327929,3.974524,-1.641983,10.611175,-4.555131,-0.647711,-5.604503,-0.169376,-0.006055,0.808880,0.563017,108.680538,-15.497208,-167.989900
15929,NaN,3.813381,18.214804,-8.522334,1.638599,-2.476609,10.434077,-4.863665,-0.068841,-6.027079,-0.152040,-0.026182,0.794472,0.587378,105.652760,-12.170731,-166.980998
15930,NaN,4.401999,17.909953,-6.946426,-0.300366,-2.521314,9.725418,-5.067295,0.408487,-6.481748,-0.135121,-0.049289,0.777798,0.611836,102.547744,-8.619947,-165.830991
15931,NaN,4.599320,17.529673,-5.301976,-1.884487,-2.412837,8.814388,-4.982299,0.841266,-6.966454,-0.118067,-0.075608,0.759566,0.635140,99.549001,-4.779249,-164.587820
15932,NaN,3.560504,16.974916,-4.054509,-2.170539,-2.288239,7.712261,-4.601348,1.262152,-7.352482,-0.101094,-0.104778,0.740742,0.655823,96.855296,-0.706909,-163.270879
15933,NaN,1.066899,16.382034,-2.606257,-1.115313,-1.363273,6.711196,-4.017246,1.730059,-7.592090,-0.084494,-0.136496,0.722019,0.672992,94.590748,3.537902,-161.854748
15934,NaN,-1.988774,16.117214,-1.803214,0.603643,-0.607242,6.499762,-3.416205,1.895254,-7.647650,-0.067806,-0.168935,0.703878,0.686600,92.775356,7.846902,-160.484669
15935,NaN,-4.488153,16.213949,-1.482085,1.815564,-0.289492,6.971731,-2.750373,1.689768,-7.458920,-0.050289,-0.199970,0.686990,0.696798,91.399846,12.097876,-159.349280
15936,NaN,-5.996698,16.586665,-1.272910,2.014897,-0.315836,7.748856,-2.147049,1.285857,-7.064080,-0.032151,-0.228056,0.671677,0.704136,90.376839,16.139330,-158.526929
15937,NaN,-6.177114,16.726539,-1.731843,1.295988,-1.351348,8.000686,-1.629186,0.920226,-6.500013,-0.014063,-0.252790,0.657999,0.709180,89.618044,19.879300,-157.978107
15938,NaN,-4.895670,16.420589,-2.389216,-0.388326,-2.954008,7.226963,-1.318823,0.671523,-5.937665,0.003181,-0.274515,0.645494,0.712719,89.004484,23.291598,-157.610418
15939,NaN,-3.115647,15.478855,-2.569300,-2.257952,-4.089240,5.485129,-1.154453,0.563672,-5.406623,0.019180,-0.293942,0.633718,0.715285,88.464469,26.411366,-157.335514
15940,NaN,-1.611890,14.004783,-2.306961,-3.619327,-4.496365,3.252387,-1.084273,0.504513,-4.982939,0.033865,-0.311560,0.622386,0.717230,87.954535,29.279871,-157.111916
15941,NaN,-0.890209,12.336784,-2.004219,-4.065748,-4.427126,1.180430,-0.895139,0.448155,-4.622235,0.047775,-0.327668,0.611876,0.718303,87.535729,31.951100,-156.940180
15942,NaN,-0.659792,11.001211,-1.708146,-4.120533,-4.157572,-0.320758,-0.591215,0.375986,-4.336632,0.061285,-0.342364,0.602616,0.718251,87.269697,34.448849,-156.820043
15943,NaN,-0.672268,10.079257,-1.355944,-4.125641,-3.779242,-1.294233,-0.314769,0.219720,-4.122020,0.075001,-0.355643,0.594368,0.717370,87.100483,36.827777,-156.813068
15944,NaN,-0.859463,9.339675,-1.172671,-3.969106,-3.493753,-1.978675,-0.093888,-0.020376,-3.958392,0.089145,-0.367313,0.586892,0.716025,86.951072,39.097930,-156.979782
15945,NaN,-0.903583,8.707116,-1.303051,-3.802553,-3.529913,-2.643377,0.102752,-0.288420,-3.822050,0.103966,-0.377424,0.580004,0.714379,86.773426,41.288396,-157.357520
