// General information: 
//  MT Manager version: 2019.0.1 
//  XDA version: 2019.0.1 build 2740 rev 84096 built on 2019-01-30
// Device information: 
//  DeviceId: 00B4381A
//  ProductCode: MTW2-3A7G6
//  Firmware Version: 4.3.4
//  Hardware Version: 1.1.0
// Device settings: 
//  Filter Profile: human(46.1)
//  Option Flags: Orientation Smoother Disabled, AHS Disabled, ICC Disabled
// Coordinate system: ENU
PacketCounter,SampleTimeFine,Acc_X,Acc_Y,Acc_Z,FreeAcc_E,FreeAcc_N,FreeAcc_U,Gyr_X,Gyr_Y,Gyr_Z,Quat_q0,Quat_q1,Quat_q2,Quat_q3,Roll,Pitch,Yaw
16622,NaN,-0.892191,3.801732,6.349456,1.305871,-3.065584,-3.144739,0.033948,-0.539770,0.087601,-0.829365,-0.426308,-0.119518,0.340779,45.822807,29.261841,-32.082079
16623,NaN,-0.864665,3.046961,5.553321,0.873366,-2.734345,-4.100289,-0.121828,-0.554431,-0.043644,-0.829869,-0.424796,-0.117510,0.342136,45.610035,29.059088,-32.372349
16624,NaN,-1.028437,2.828388,5.005429,0.644503,-2.295980,-4.481193,-0.066231,-0.508526,-0.139428,-0.830026,-0.423607,-0.115797,0.343811,45.429857,28.914898,-32.680199
16625,NaN,-1.434428,3.305016,4.735260,0.677213,-1.685885,-4.146777,0.124226,-0.480695,-0.142069,-0.829787,-0.423175,-0.113876,0.345556,45.354892,28.779941,-32.979214
16626,NaN,-2.071104,3.950435,4.532812,0.643200,-0.956288,-3.558604,0.272050,-0.570281,-0.110026,-0.829300,-0.423292,-0.111260,0.347428,45.363283,28.598147,-33.300927
16627,NaN,-2.399455,4.315103,4.200883,0.659546,-0.383745,-3.375096,0.313908,-0.723569,-0.115208,-0.828826,-0.423231,-0.107942,0.349674,45.351360,28.353879,-33.699062
16628,NaN,-2.395098,4.459921,3.743522,0.786804,0.038998,-3.566034,0.380821,-0.929641,-0.129049,-0.828243,-0.423148,-0.103683,0.352433,45.342619,28.035070,-34.194110
16629,NaN,-2.120428,4.400280,3.281301,0.977633,0.251083,-4.015557,0.448334,-1.113546,-0.155905,-0.827576,-0.422917,-0.098592,0.355723,45.320451,27.649838,-34.787802
16630,NaN,-1.785531,4.258153,2.747432,1.173250,0.448529,-4.588644,0.477246,-1.205671,-0.217376,-0.826714,-0.422670,-0.093199,0.359455,45.297388,27.255487,-35.446048
16631,NaN,-1.736016,4.288977,2.379661,1.264523,0.724952,-4.817964,0.498843,-1.244763,-0.266198,-0.825735,-0.422327,-0.087697,0.363470,45.263962,26.861453,-36.144757
16632,NaN,-1.706297,4.399197,1.858771,1.429334,1.150081,-5.084715,0.566459,-1.146198,-0.237991,-0.824549,-0.422509,-0.082422,0.367168,45.310014,26.499247,-36.780515
16633,NaN,-1.899345,4.714076,1.640373,1.528329,1.531157,-4.930004,0.701754,-0.946252,-0.160206,-0.823139,-0.423562,-0.077547,0.370167,45.484317,26.183062,-37.291904
16634,NaN,-1.957344,5.118736,1.754193,1.724254,1.609694,-4.564296,0.746506,-0.674615,-0.127997,-0.821528,-0.425371,-0.073645,0.372461,45.756048,25.968105,-37.662606
16635,NaN,-2.046107,5.593275,1.967308,1.923281,1.643352,-4.073190,0.804992,-0.404535,-0.118014,-0.819727,-0.427853,-0.070708,0.374153,46.109714,25.854557,-37.908370
16636,NaN,-2.334763,5.947642,2.223354,1.884906,1.695856,-3.540541,0.940990,-0.211055,-0.087387,-0.817571,-0.431319,-0.068256,0.375345,46.594123,25.810359,-38.049961
16637,NaN,-2.899447,6.210708,2.326254,1.613772,1.968481,-3.036884,1.147154,-0.063518,-0.070746,-0.814960,-0.435840,-0.065967,0.376208,47.222244,25.814151,-38.118213
16638,NaN,-3.496725,6.490678,2.328707,1.344455,2.319999,-2.560919,1.396899,0.004084,-0.057397,-0.811741,-0.441550,-0.063466,0.376938,48.017101,25.843177,-38.146824
16639,NaN,-3.983895,6.790001,2.307660,1.161547,2.612308,-2.123327,1.661671,0.073418,-0.043460,-0.807924,-0.448392,-0.060697,0.377517,48.974436,25.888990,-38.137767
16640,NaN,-4.427189,7.188284,2.214114,1.080448,2.938111,-1.665793,1.945384,0.171334,-0.006949,-0.803413,-0.456590,-0.057718,0.377786,50.128544,25.959040,-38.063365
16641,NaN,-4.732308,7.573053,2.039504,1.093871,3.213772,-1.305185,2.246793,0.264237,0.031807,-0.798197,-0.466090,-0.054431,0.377728,51.477657,26.040379,-37.927230
16642,NaN,-4.953840,8.104627,1.898673,1.238650,3.419191,-0.834885,2.539928,0.377194,0.039979,-0.792138,-0.476951,-0.051031,0.377401,53.028000,26.158140,-37.726943
16643,NaN,-5.130817,8.590297,1.759717,1.369535,3.542141,-0.390022,2.786626,0.507736,0.014973,-0.785288,-0.488905,-0.047717,0.376852,54.742992,26.323094,-37.466038
16644,NaN,-5.041548,9.075945,1.646757,1.669595,3.452561,-0.025646,2.992776,0.636217,-0.032543,-0.777618,-0.501829,-0.044640,0.376145,56.606734,26.547906,-37.146976
16645,NaN,-4.775250,9.373977,1.471309,1.986443,3.237272,0.107187,3.165111,0.755875,-0.079061,-0.769228,-0.515483,-0.041795,0.375258,58.592996,26.819260,-36.771079
16646,NaN,-4.521162,9.559085,1.017526,2.313056,3.207029,0.046646,3.300803,0.885593,-0.169015,-0.760055,-0.529767,-0.039429,0.374310,60.686938,27.163459,-36.339777
16647,NaN,-4.378380,9.777799,0.355973,2.657838,3.391541,0.001745,3.450412,1.132917,-0.249020,-0.750067,-0.544882,-0.037907,0.372916,62.927688,27.597379,-35.776962
16648,NaN,-4.406951,10.133640,-0.328036,2.974644,3.669716,0.181736,3.642605,1.426112,-0.309759,-0.739099,-0.561074,-0.037293,0.370860,65.367247,28.117914,-35.037574
16649,NaN,-4.757393,10.596791,-1.036015,3.127459,4.096975,0.647344,3.736573,1.802592,-0.376709,-0.727382,-0.578060,-0.038052,0.367851,67.978985,28.726945,-34.061172
16650,NaN,-5.498386,10.985815,-1.610739,2.890682,4.539999,1.346312,3.679652,2.289913,-0.392431,-0.715364,-0.595477,-0.040733,0.363321,70.730572,29.404839,-32.751587
16651,NaN,-6.469430,11.257325,-1.853614,2.261028,4.735234,2.206211,3.470722,2.848840,-0.310060,-0.703660,-0.612887,-0.045509,0.356598,73.581260,30.076396,-31.028661
16652,NaN,-7.512275,11.234956,-1.826991,1.268026,4.656447,2.941697,3.229369,3.307224,-0.184966,-0.692438,-0.629972,-0.051940,0.347803,76.493753,30.673315,-28.942314
16653,NaN,-8.216362,11.468016,-0.569431,0.194162,3.247424,3.925336,2.894097,3.435349,-0.162214,-0.681919,-0.645806,-0.059280,0.338240,79.300412,31.179705,-26.724261
16654,NaN,-7.753060,11.196588,-0.694239,0.249940,2.667557,3.557144,2.943531,2.773117,-0.053027,-0.671308,-0.660416,-0.063918,0.330319,81.943506,31.474144,-24.898122
16655,NaN,-7.965871,10.996351,-1.004848,-0.123088,2.556147,3.559324,2.952889,2.733201,0.311740,-0.661003,-0.674851,-0.067160,0.321156,84.608348,31.483347,-23.051924
16656,NaN,-8.341520,11.561270,-0.123257,-0.667933,1.311918,4.367175,2.306755,3.098387,0.466429,-0.652746,-0.687510,-0.072114,0.309923,87.029192,31.352003,-20.957023
16657,NaN,-8.203657,13.939119,2.311695,-0.381032,-1.834220,6.417229,1.956244,3.043787,0.310636,-0.645235,-0.698655,-0.077929,0.299132,89.221582,31.234735,-18.911682
16658,NaN,-10.253339,16.520335,4.832315,-1.701747,-4.551698,9.623551,1.381568,2.656567,0.081853,-0.639367,-0.707069,-0.084146,0.290142,90.941392,31.191584,-17.134125
16659,NaN,-10.312623,15.696016,6.412989,-2.655798,-6.305233,8.815885,0.458289,1.979460,-0.242881,-0.636470,-0.711306,-0.090658,0.284132,91.901410,31.306185,-15.805228
16660,NaN,-10.526548,12.492319,6.163581,-4.226600,-5.674934,6.149258,-0.488699,1.258669,-0.631359,-0.636667,-0.711262,-0.097610,0.281485,92.076353,31.648660,-14.947286
16661,NaN,-12.007036,9.824736,4.090804,-6.062920,-2.986125,4.739005,-0.716600,0.643143,-0.565306,-0.638048,-0.709626,-0.102673,0.280683,91.906378,31.963641,-14.502846
16662,NaN,-12.744939,9.400100,3.667514,-6.694483,-2.364129,4.810604,-0.251810,-0.024734,-0.167104,-0.638663,-0.708731,-0.103550,0.281224,91.761113,32.065756,-14.517834
16663,NaN,-10.522619,9.799406,3.060644,-4.534154,-2.257809,3.988169,0.621149,-1.267656,0.508920,-0.637772,-0.709194,-0.096829,0.284455,91.663042,31.801488,-15.386268
16664,NaN,-7.332524,9.698735,0.901004,-1.487127,-0.786910,2.262473,1.320819,-2.469386,1.263537,-0.635949,-0.710451,-0.082594,0.289838,91.547947,31.123369,-17.070016
16665,NaN,-4.951535,9.099869,-2.290361,1.016558,1.821420,0.590147,1.743969,-2.965612,1.877743,-0.633535,-0.712353,-0.063961,0.295119,91.528462,30.099411,-19.080061
16666,NaN,-3.594372,8.239762,-5.140065,2.598302,4.258688,-0.738287,2.223311,-2.630886,2.513309,-0.629965,-0.716186,-0.043391,0.297220,91.934732,28.711466,-20.861321
16667,NaN,-3.588347,7.533531,-5.284152,2.267432,4.497532,-1.316635,1.376769,-1.921396,2.396577,-0.628874,-0.718109,-0.026714,0.296856,92.116164,27.383794,-22.165187
16668,NaN,-2.785946,6.552759,-7.836972,3.441728,6.777188,-2.441001,0.583076,-0.299475,1.725406,-0.629297,-0.719730,-0.018720,0.292616,92.349902,26.408624,-22.402384
16669,NaN,-4.391862,6.985078,-5.421344,1.178065,4.993692,-1.378121,1.369078,0.767653,1.945979,-0.627037,-0.725321,-0.012135,0.283878,93.326943,25.278883,-21.977192
16670,NaN,-5.951156,8.601307,-3.462234,-0.525406,3.304686,0.684126,1.435577,0.979108,1.711813,-0.624096,-0.731295,-0.006969,0.275071,94.383693,24.268608,-21.434921
16671,NaN,-6.548913,10.859546,-2.407895,-0.902936,1.924792,2.918714,1.685077,0.612924,1.553039,-0.619938,-0.737439,-0.000895,0.268065,95.477656,23.357888,-21.137100
16672,NaN,-6.760799,13.190522,-1.426209,-0.990447,0.408007,5.039029,2.153980,0.004980,1.681294,-0.614133,-0.744094,0.008164,0.262864,96.676449,22.405777,-21.245971
16673,NaN,-7.107224,14.608706,-0.768769,-1.466469,-0.581229,6.374208,2.394394,-0.801577,1.843389,-0.607471,-0.750268,0.020616,0.260098,97.819610,21.422362,-21.881407
16674,NaN,-6.640186,15.000999,-1.105454,-1.181926,-0.670976,6.572823,2.361347,-1.523446,1.876872,-0.600751,-0.755192,0.035338,0.259874,98.788940,20.490439,-22.973576
16675,NaN,-5.655400,15.128265,-1.862821,-0.321301,-0.505122,6.433816,2.404176,-1.938433,1.873537,-0.593598,-0.759481,0.051336,0.261141,99.711257,19.616144,-24.324803
16676,NaN,-4.710215,15.754385,-2.012134,0.357714,-1.053957,6.715609,2.479079,-2.123182,1.816529,-0.585847,-0.763502,0.067749,0.263169,100.657011,18.812951,-25.788368
16677,NaN,-3.941882,16.625922,-2.075527,0.872885,-1.736598,7.289291,2.386958,-2.252423,1.641762,-0.577965,-0.766885,0.083727,0.266146,101.548691,18.145070,-27.315049
16678,NaN,-3.347543,17.246156,-2.358673,1.305811,-2.101749,7.739176,1.945256,-2.235888,1.448825,-0.571358,-0.768855,0.098305,0.269718,102.210682,17.602585,-28.812351
16679,NaN,-2.939563,17.096294,-2.891469,1.638476,-1.894635,7.594378,1.305364,-1.943097,1.326374,-0.567056,-0.769281,0.110692,0.272768,102.575291,17.105506,-30.122852
16680,NaN,-2.991384,16.351740,-3.479545,1.606803,-1.173371,7.053659,0.860104,-1.556862,1.287594,-0.564545,-0.768873,0.121211,0.274647,102.762398,16.587513,-31.201700
16681,NaN,-3.040397,15.701246,-3.250805,1.186952,-1.098396,6.426871,0.616189,-1.240567,1.238995,-0.563037,-0.768163,0.130306,0.275564,102.873686,16.058728,-32.088354
16682,NaN,-2.672497,15.226393,-2.919633,1.094589,-1.351868,5.823233,0.465748,-1.126050,1.153786,-0.562021,-0.767181,0.138530,0.276361,102.927483,15.564543,-32.895821
16683,NaN,-2.036571,14.880570,-2.939640,1.449618,-1.512924,5.347408,0.423487,-1.035485,1.103263,-0.561123,-0.766191,0.146244,0.276957,102.980082,15.086842,-33.642595
16684,NaN,-1.647038,14.444034,-3.088821,1.685219,-1.427670,4.884390,0.404269,-0.899822,1.023431,-0.560257,-0.765348,0.153231,0.277263,103.050212,14.637793,-34.299359
16685,NaN,-1.407742,13.921660,-3.442631,1.940540,-1.088093,4.424435,0.308106,-0.758080,0.839704,-0.559590,-0.764542,0.158986,0.277593,103.096810,14.272233,-34.848975
16686,NaN,-1.178878,13.593067,-3.942040,2.315943,-0.706628,4.181505,0.284650,-0.553312,0.716779,-0.558987,-0.764030,0.163653,0.277504,103.165690,13.950475,-35.263939
16687,NaN,-0.943129,13.320556,-4.109137,2.509192,-0.610601,3.918383,0.272402,-0.281458,0.631319,-0.558527,-0.763918,0.167225,0.276608,103.270246,13.639512,-35.511004
16688,NaN,-0.658886,13.019728,-4.178889,2.686932,-0.608893,3.597002,0.203950,0.034245,0.512557,-0.558420,-0.764142,0.169355,0.274905,103.382301,13.355392,-35.561379
16689,NaN,-0.489771,12.494593,-4.483941,2.921743,-0.281389,3.142790,-0.011680,0.350751,0.362156,-0.559197,-0.764323,0.169742,0.272575,103.417870,13.110679,-35.410120
16690,NaN,-0.422965,11.790268,-4.818531,3.108021,0.206566,2.544687,-0.316496,0.848225,0.154291,-0.561268,-0.764493,0.167513,0.269199,103.347952,12.918357,-34.946246
16691,NaN,-0.367565,11.068820,-4.780413,3.070120,0.441761,1.844279,-0.467486,1.422271,-0.044555,-0.564109,-0.765153,0.162720,0.264280,103.270143,12.758715,-34.126988
16692,NaN,-0.357955,10.408070,-4.261482,2.717460,0.313111,1.102125,-0.516389,1.861616,-0.190540,-0.567258,-0.766314,0.156036,0.258134,103.220617,12.626759,-33.037493
16693,NaN,-0.214567,9.668747,-3.862479,2.552410,0.227247,0.280995,-0.698674,2.148562,-0.363255,-0.571043,-0.767382,0.147644,0.251466,103.106903,12.551624,-31.760808
16694,NaN,0.049213,8.787705,-3.706290,2.630488,0.320793,-0.650827,-0.851251,2.427996,-0.531955,-0.575322,-0.768370,0.137572,0.244308,102.942940,12.541208,-30.302363
16695,NaN,0.315196,8.015371,-3.548750,2.720698,0.388929,-1.482933,-0.956848,2.802779,-0.704814,-0.579936,-0.769481,0.125626,0.236201,102.772016,12.579575,-28.606422
16696,NaN,0.346059,7.287530,-3.343127,2.587644,0.520837,-2.234017,-1.052558,3.266574,-0.887167,-0.584838,-0.770761,0.111462,0.226865,102.609768,12.670462,-26.621329
16697,NaN,0.294893,6.629850,-3.012791,2.322634,0.557137,-2.926989,-1.144622,3.799390,-1.070610,-0.589968,-0.772202,0.094916,0.215946,102.472792,12.797980,-24.306407
16698,NaN,0.243157,6.031988,-2.490640,1.981112,0.393047,-3.602435,-1.228240,4.239819,-1.244326,-0.595164,-0.773582,0.076237,0.203811,102.353801,12.978258,-21.715933
16699,NaN,0.021054,5.525818,-1.908753,1.491862,0.183042,-4.163020,-1.360066,4.569662,-1.429859,-0.600466,-0.774541,0.055713,0.190849,102.218812,13.222533,-18.910583
16700,NaN,-0.655207,5.000663,-1.682071,0.726689,0.394104,-4.560857,-1.495855,4.791100,-1.580480,-0.605819,-0.774830,0.033744,0.177432,102.052188,13.536986,-15.956817
16701,NaN,-1.164220,4.551009,-1.419087,0.105211,0.433910,-4.925815,-1.608577,4.839195,-1.654669,-0.611127,-0.774294,0.011251,0.163909,101.848296,13.891045,-12.962991
16702,NaN,-1.436624,4.169347,-0.841111,-0.354711,0.051131,-5.337614,-1.796526,4.676256,-1.692002,-0.616689,-0.772497,-0.011083,0.151064,101.533946,14.303698,-10.055868
16703,NaN,-1.638368,3.886669,-0.340044,-0.671379,-0.330300,-5.647836,-2.038311,4.443741,-1.679172,-0.622789,-0.769258,-0.032794,0.138923,101.069134,14.748860,-7.282569
16704,NaN,-1.632942,3.438212,0.001916,-0.768862,-0.567061,-6.128288,-2.163715,4.053899,-1.564517,-0.629123,-0.764888,-0.052948,0.127854,100.491265,15.201211,-4.747798
16705,NaN,-1.427071,2.847281,0.583734,-0.724696,-1.032266,-6.830557,-2.220755,3.538385,-1.444553,-0.635556,-0.759633,-0.070999,0.118261,99.816569,15.659353,-2.527115
16706,NaN,-0.950603,2.377199,0.912418,-0.348729,-1.281140,-7.441217,-2.153616,2.947042,-1.349035,-0.641720,-0.753943,-0.086769,0.110617,99.100096,16.150472,-0.664035
16707,NaN,-0.495940,2.124665,0.952867,0.077308,-1.265524,-7.797674,-1.880888,2.362133,-1.202453,-0.646995,-0.748627,-0.099902,0.104758,98.452663,16.625866,0.838557
16708,NaN,-0.014307,2.283023,0.799873,0.634718,-1.102125,-7.754912,-1.444134,1.816641,-0.964703,-0.650887,-0.744399,-0.110160,0.100400,97.967349,17.030419,1.996312
16709,NaN,0.418944,2.622439,0.544167,1.183061,-0.844671,-7.524554,-1.092476,1.407623,-0.743635,-0.653738,-0.741138,-0.118044,0.096994,97.611855,17.344240,2.891776
16710,NaN,0.752398,3.042047,0.093811,1.644325,-0.394512,-7.172732,-0.936321,1.230691,-0.569733,-0.656134,-0.738345,-0.124650,0.093793,97.315308,17.582412,3.668103
16711,NaN,0.809327,3.526184,-0.690803,1.835830,0.377108,-6.641957,-0.942854,1.366650,-0.425920,-0.658505,-0.735630,-0.131133,0.089573,97.037141,17.727460,4.513828
16712,NaN,0.779677,3.910895,-1.355964,1.890602,1.048255,-6.197704,-1.107207,1.836064,-0.309578,-0.661149,-0.732593,-0.138828,0.083162,96.750597,17.783370,5.631667
16713,NaN,0.657473,4.364832,-2.202506,1.827131,1.907857,-5.646650,-1.593451,2.622438,-0.438715,-0.664871,-0.728054,-0.149737,0.073909,96.331704,17.862326,7.228051
16714,NaN,-0.153053,4.919786,-1.917216,1.203763,1.563603,-4.912808,-1.553907,3.284955,-0.238960,-0.667824,-0.723835,-0.162099,0.061625,96.054604,17.801461,9.207933
16715,NaN,-1.691752,5.245666,-0.873012,-0.057778,0.321308,-4.241829,-1.581477,3.606734,0.011239,-0.670467,-0.719566,-0.174543,0.047260,95.808835,17.581596,11.362867
16716,NaN,-2.580897,5.448362,-0.489003,-0.790910,-0.215731,-3.819970,-1.960884,3.447658,0.016867,-0.674342,-0.713713,-0.186492,0.033136,95.310855,17.386634,13.421887
16717,NaN,-3.005803,5.417348,-0.332918,-1.186249,-0.446045,-3.739210,-2.049148,2.967935,0.126003,-0.678769,-0.707327,-0.196347,0.020226,94.666231,17.167220,15.187365
16718,NaN,-3.453401,5.347864,-0.287298,-1.638494,-0.593896,-3.683195,-1.774216,2.505436,0.435479,-0.682506,-0.701933,-0.203490,0.008202,94.087729,16.814898,16.662684
16719,NaN,-3.853694,5.350252,-0.225826,-2.030966,-0.772985,-3.583357,-1.409721,2.123269,0.754320,-0.685238,-0.697943,-0.208120,-0.003233,93.636492,16.302625,17.896418
16720,NaN,-4.149516,5.619835,-0.288172,-2.298812,-0.820159,-3.260866,-1.125810,1.832729,1.019624,-0.687156,-0.695099,-0.210833,-0.014234,93.288084,15.662070,18.948517
16721,NaN,-4.322517,5.999067,-0.339563,-2.444254,-0.849972,-2.877951,-0.937145,1.615356,1.276257,-0.688552,-0.693091,-0.211864,-0.025189,92.996631,14.882755,19.862723
16722,NaN,-4.359399,6.311183,-0.343332,-2.494050,-0.890476,-2.605833,-0.844388,1.431089,1.545336,-0.689686,-0.691628,-0.211342,-0.036302,92.718660,13.963548,20.661169
16723,NaN,-4.266737,6.397248,-0.314046,-2.494747,-0.930726,-2.592110,-0.741378,1.239623,1.798325,-0.690545,-0.690725,-0.209251,-0.047536,92.456327,12.904465,21.340677
16724,NaN,-4.281105,6.470962,-0.273718,-2.606686,-1.025511,-2.572002,-0.569379,1.061957,2.014916,-0.690838,-0.690600,-0.205837,-0.058694,92.259091,11.731923,21.912733
16725,NaN,-4.493222,6.726700,-0.208066,-2.864763,-1.224341,-2.344608,-0.341327,1.023742,2.197962,-0.690245,-0.691354,-0.201676,-0.070129,92.173023,10.453877,22.458355
16726,NaN,-5.127899,7.026637,0.018065,-3.451612,-1.754845,-2.023425,-0.184587,1.060286,2.339258,-0.688902,-0.692680,-0.197197,-0.081988,92.169792,9.097492,23.021223
16727,NaN,-5.767903,7.477771,0.171085,-4.062451,-2.245210,-1.586765,-0.093455,1.036025,2.485418,-0.687102,-0.694343,-0.192116,-0.094179,92.199770,7.655802,23.564062
16728,NaN,-6.036159,7.837841,0.566604,-4.275359,-2.840023,-1.336985,0.099459,0.861925,2.690078,-0.684560,-0.696827,-0.185797,-0.106250,92.315740,6.102214,23.998355
16729,NaN,-5.810837,7.956185,1.034165,-4.057338,-3.316474,-1.406230,0.340446,0.517521,2.841019,-0.681294,-0.700302,-0.177856,-0.117401,92.535975,4.468511,24.225099
16730,NaN,-5.277257,8.009122,1.178737,-3.705199,-3.375814,-1.551138,0.684565,0.101371,2.932540,-0.676974,-0.705137,-0.168348,-0.127067,92.933687,2.793427,24.201384
16731,NaN,-4.581196,8.182800,1.130042,-3.278369,-3.210851,-1.556916,1.190740,-0.287971,2.974130,-0.671027,-0.711779,-0.157656,-0.135047,93.610966,1.107951,23.938040
16732,NaN,-3.892184,8.733179,0.973618,-2.883022,-3.010621,-1.153522,1.735552,-0.544918,2.954598,-0.663151,-0.720226,-0.146496,-0.141576,94.610291,-0.552134,23.503926
16733,NaN,-3.418654,9.653161,0.839072,-2.669606,-3.015106,-0.360368,2.183214,-0.640342,2.871203,-0.653603,-0.729914,-0.135597,-0.147112,95.877058,-2.149442,22.987405
16734,NaN,-3.218938,10.749568,0.741563,-2.698742,-3.268506,0.602922,2.475615,-0.579601,2.730578,-0.642805,-0.740189,-0.125571,-0.152163,97.328451,-3.659276,22.475891
16735,NaN,-3.274594,11.715130,0.866927,-2.879454,-3.876641,1.384859,2.458591,-0.463820,2.453445,-0.632024,-0.749882,-0.116902,-0.156708,98.775272,-5.005703,22.014473
16736,NaN,-3.070224,12.613096,0.603648,-2.963065,-4.071191,2.166944,2.489570,-0.335518,2.226433,-0.621017,-0.759242,-0.109467,-0.160957,100.248158,-6.225894,21.611365
16737,NaN,-3.140955,12.847102,1.129654,-2.970139,-4.977707,2.127855,2.367400,-0.212626,2.046038,-0.610420,-0.767798,-0.102989,-0.165127,101.647949,-7.344555,21.267299
16738,NaN,-2.984992,12.582456,1.328878,-2.852877,-5.356039,1.683332,2.030575,-0.135757,1.720726,-0.601183,-0.774960,-0.097676,-0.168748,102.857588,-8.285319,20.978882
16739,NaN,-2.623384,12.070426,1.451656,-2.532057,-5.469887,1.066037,1.845918,-0.041457,1.444317,-0.592795,-0.781198,-0.093572,-0.171953,103.949728,-9.074636,20.762757
16740,NaN,-2.362878,11.544960,1.626173,-2.254198,-5.620967,0.426029,1.841204,-0.013960,1.236510,-0.584473,-0.787232,-0.090320,-0.174643,105.042359,-9.752363,20.574888
16741,NaN,-2.101652,11.134401,1.649612,-2.013823,-5.641222,-0.054138,1.862751,-0.109610,1.033197,-0.576267,-0.793191,-0.087627,-0.176314,106.149077,-10.294583,20.353856
16742,NaN,-1.937602,10.900498,1.453457,-1.939190,-5.538044,-0.312530,1.890739,-0.282183,0.855249,-0.568068,-0.799251,-0.085127,-0.176774,107.294204,-10.711179,20.052967
16743,NaN,-1.797309,11.020123,1.046545,-1.973848,-5.367857,-0.166204,1.909506,-0.432397,0.708391,-0.559985,-0.805308,-0.082830,-0.176168,108.456881,-11.009575,19.688759
16744,NaN,-1.622665,11.352959,0.885013,-1.884691,-5.481421,0.122302,1.874386,-0.550412,0.564233,-0.552101,-0.811265,-0.080707,-0.174700,109.616976,-11.206134,19.277732
16745,NaN,-1.591026,11.753569,0.682548,-1.933559,-5.629904,0.468643,1.737912,-0.602472,0.403613,-0.544945,-0.816704,-0.079005,-0.172591,110.691364,-11.291781,18.869495
16746,NaN,-1.793515,12.242380,0.597969,-2.150845,-5.982498,0.818915,1.537017,-0.595997,0.261932,-0.538619,-0.821513,-0.077679,-0.170212,111.653318,-11.302229,18.489970
16747,NaN,-2.084277,12.727121,0.625472,-2.403757,-6.439522,1.117432,1.304926,-0.602976,0.178783,-0.533364,-0.825571,-0.076519,-0.167634,112.469649,-11.254205,18.128258
16748,NaN,-2.422347,13.323682,0.837882,-2.644250,-7.097304,1.444540,1.071382,-0.695325,0.121772,-0.529054,-0.829071,-0.075102,-0.164630,113.168451,-11.157862,17.726975
16749,NaN,-2.819299,14.228936,1.112469,-2.940014,-7.935164,2.021046,0.889990,-0.875276,0.081726,-0.525662,-0.832137,-0.073274,-0.160804,113.767812,-10.987090,17.243818
16750,NaN,-3.301408,15.442414,1.366545,-3.349843,-8.904563,2.864910,0.809401,-1.153905,0.080947,-0.522597,-0.835232,-0.070598,-0.155871,114.357941,-10.753733,16.610632
16751,NaN,-3.751818,16.618271,1.727705,-3.713550,-9.927179,3.636777,0.749443,-1.555967,0.144734,-0.519944,-0.838392,-0.066609,-0.149401,114.939421,-10.442379,15.756306
16752,NaN,-4.071350,17.355154,1.846631,-4.051535,-10.493373,4.139408,0.613241,-2.021368,0.208656,-0.517819,-0.841549,-0.060978,-0.141213,115.496212,-10.050963,14.640693
16753,NaN,-4.142948,17.384351,1.681546,-4.240923,-10.393879,4.194042,0.453202,-2.370264,0.265468,-0.516484,-0.844375,-0.054146,-0.131695,115.970703,-9.582535,13.337945
16754,NaN,-4.072604,16.948562,1.529723,-4.288104,-10.027099,3.871185,0.255270,-2.477147,0.305685,-0.515791,-0.846712,-0.046666,-0.121903,116.346130,-9.107914,11.969633
16755,NaN,-3.927965,16.347723,1.587284,-4.205310,-9.714744,3.345361,0.017515,-2.301428,0.318089,-0.516117,-0.848128,-0.039503,-0.112881,116.542795,-8.667448,10.698811
16756,NaN,-4.088619,15.490616,1.713380,-4.396112,-9.377922,2.529865,-0.243029,-2.021959,0.334552,-0.517285,-0.848694,-0.032769,-0.105170,116.577852,-8.314788,9.565482
16757,NaN,-4.241972,14.345299,1.744413,-4.583975,-8.790058,1.525061,-0.493228,-1.874575,0.331003,-0.519592,-0.848359,-0.026371,-0.098057,116.432130,-7.988234,8.515702
16758,NaN,-4.197363,13.112140,1.427291,-4.633396,-7.813554,0.630524,-0.603763,-1.947242,0.329986,-0.522174,-0.847776,-0.019657,-0.090687,116.241900,-7.656595,7.422788
16759,NaN,-3.898371,12.203469,0.914413,-4.460723,-6.775205,0.144943,-0.548332,-2.206535,0.320276,-0.524654,-0.847254,-0.012408,-0.082124,116.071859,-7.246611,6.203664
16760,NaN,-3.391890,11.920216,0.175388,-4.122573,-5.813802,0.327811,-0.403554,-2.529324,0.272960,-0.526318,-0.847213,-0.004491,-0.072103,116.015671,-6.744719,4.823667
16761,NaN,-2.836908,12.259701,-0.695386,-3.741789,-5.029742,1.120363,-0.235836,-2.826118,0.243288,-0.527367,-0.847459,0.003942,-0.060674,116.035309,-6.142160,3.304676
16762,NaN,-2.359347,12.893977,-1.555873,-3.398472,-4.419638,2.152189,-0.195967,-3.046910,0.175493,-0.527974,-0.847797,0.012739,-0.048176,116.093692,-5.459284,1.684986
16763,NaN,-1.914926,13.363037,-2.536309,-3.010105,-3.630319,3.088050,-0.420775,-3.122451,0.032924,-0.529619,-0.847254,0.021103,-0.034899,115.978082,-4.674198,0.069424
16764,NaN,-1.286884,13.755520,-3.398240,-2.351696,-2.903936,3.915105,-0.769469,-2.903942,-0.118530,-0.532484,-0.845674,0.028385,-0.022159,115.653907,-3.882344,-1.401910
16765,NaN,-1.114997,14.019936,-3.158243,-2.074745,-3.060652,4.119251,-1.345623,-2.586763,-0.272926,-0.537916,-0.842245,0.034149,-0.010208,114.941875,-3.091685,-2.671535
16766,NaN,-0.875922,13.898276,-3.600469,-1.668395,-2.362784,4.276864,-2.137257,-2.181860,-0.594159,-0.546458,-0.836642,0.037585,0.000983,113.770849,-2.259862,-3.670251
16767,NaN,-0.774904,13.554848,-3.725677,-1.361023,-1.791023,4.084887,-2.429045,-1.596672,-0.698548,-0.556390,-0.829949,0.038899,0.010120,112.382633,-1.517799,-4.350398
16768,NaN,-1.131047,13.071908,-2.852196,-1.573834,-2.049070,3.363086,-2.624491,-1.223501,-0.743312,-0.566891,-0.822674,0.039047,0.017813,110.896084,-0.857274,-4.844536
16769,NaN,-1.423084,12.413807,-2.495118,-1.690670,-1.765457,2.691872,-2.935055,-1.211598,-0.917673,-0.578700,-0.814222,0.038333,0.026061,109.199297,-0.110458,-5.312457
16770,NaN,-1.521514,11.786154,-2.509866,-1.580773,-1.172386,2.172296,-3.100253,-1.276294,-1.060050,-0.590798,-0.805200,0.037270,0.034954,107.427301,0.702068,-5.815673
16771,NaN,-1.526960,11.227777,-2.442645,-1.383005,-0.703403,1.673809,-3.154801,-1.256758,-1.138809,-0.603097,-0.795648,0.035737,0.044053,105.590791,1.546884,-6.317895
16772,NaN,-1.570141,10.869317,-2.496410,-1.216079,-0.197851,1.381399,-3.235669,-1.141367,-1.226466,-0.615343,-0.785766,0.033552,0.052904,103.728130,2.398364,-6.773213
16773,NaN,-1.608089,10.462765,-2.479501,-1.054103,0.239003,1.004974,-3.305935,-0.939673,-1.295969,-0.627846,-0.775331,0.030374,0.061221,101.797462,3.255745,-7.133100
16774,NaN,-1.632179,10.001085,-2.400012,-0.901391,0.597926,0.544115,-3.379369,-0.678298,-1.369775,-0.640265,-0.764630,0.026127,0.068696,99.853030,4.105701,-7.368548
16775,NaN,-1.642356,9.487797,-2.319464,-0.750970,0.938763,0.017825,-3.435225,-0.435234,-1.456660,-0.652837,-0.753437,0.020674,0.075553,97.857349,4.982745,-7.486487
16776,NaN,-1.753337,8.931993,-2.324501,-0.711506,1.340977,-0.542100,-3.379006,-0.263517,-1.528041,-0.664799,-0.742376,0.014474,0.081914,95.923874,5.876083,-7.532623
16777,NaN,-1.867386,8.522537,-2.362459,-0.674862,1.719434,-0.964996,-3.261962,-0.178455,-1.610091,-0.676223,-0.731353,0.007663,0.088245,94.035201,6.817832,-7.555427
16778,NaN,-1.942376,8.490141,-2.463004,-0.562518,2.083234,-1.023047,-3.036498,-0.187117,-1.672577,-0.686430,-0.720998,0.000817,0.094733,92.295207,7.786572,-7.611481
16779,NaN,-2.118899,8.662531,-2.670673,-0.504587,2.538757,-0.870958,-2.784065,-0.318860,-1.691800,-0.695659,-0.711103,-0.005591,0.101784,90.660748,8.773941,-7.772835
16780,NaN,-1.973174,9.044859,-3.244436,-0.039262,3.298952,-0.574888,-2.608318,-0.561760,-1.669153,-0.703965,-0.701651,-0.010917,0.109549,89.120171,9.735564,-8.102617
16781,NaN,-1.375609,9.347521,-4.372910,0.945776,4.556578,-0.500050,-2.608011,-0.640737,-1.613104,-0.712255,-0.691850,-0.015827,0.117415,87.539704,10.661936,-8.505963
16782,NaN,-0.406940,9.256405,-5.884253,2.253333,6.130407,-0.992099,-2.676731,-0.178941,-1.491256,-0.720521,-0.682054,-0.021936,0.123168,85.983039,11.514984,-8.661625
16783,NaN,-0.821079,9.170608,-4.786439,1.818899,5.318959,-1.090425,-2.553101,0.054005,-1.250119,-0.728441,-0.672596,-0.028036,0.127290,84.500532,12.243913,-8.694817
16784,NaN,-1.781342,9.160620,-3.856408,0.885624,4.747663,-0.945247,-2.480012,-0.158376,-1.134619,-0.735966,-0.663282,-0.032866,0.131645,83.050174,12.885998,-8.861938
16785,NaN,-2.381829,9.561196,-3.604768,0.493469,4.819485,-0.506340,-2.010866,-0.667910,-0.932633,-0.742131,-0.655167,-0.034889,0.137046,81.780956,13.377148,-9.328441
16786,NaN,-2.580313,10.670131,-3.375011,0.671407,4.907538,0.548877,-1.340454,-1.373503,-0.565339,-0.746291,-0.649161,-0.032575,0.143453,80.821010,13.583890,-10.181505
16787,NaN,-1.760139,11.639662,-3.963205,1.908708,5.595790,1.111030,-0.995317,-2.166928,-0.246377,-0.749684,-0.643737,-0.026062,0.151323,79.939172,13.526792,-11.469718
16788,NaN,-0.001601,12.083686,-5.481664,4.072095,6.901361,0.763203,-1.201630,-2.501318,-0.075411,-0.753701,-0.637310,-0.017848,0.159535,78.918891,13.311822,-12.929162
16789,NaN,0.840503,11.747029,-4.781429,4.795370,6.088558,0.261650,-1.271554,-3.015230,0.193475,-0.758104,-0.629988,-0.006934,0.168360,77.793140,12.864320,-14.648028
16790,NaN,1.359913,10.379006,-6.066258,5.331691,7.036654,-1.540607,-1.295762,-3.623567,0.345586,-0.762414,-0.621964,0.006789,0.178437,76.616280,12.216732,-16.680300
16791,NaN,2.377827,9.392004,-9.501003,7.026061,9.837869,-3.650308,-1.679526,-3.005457,0.159760,-0.767582,-0.612739,0.017201,0.187276,75.297542,11.718040,-18.369672
16792,NaN,3.026506,9.703198,-10.683159,8.197805,10.764630,-3.951146,-0.911857,-1.921142,0.485434,-0.770573,-0.607407,0.025198,0.191414,74.580827,11.168672,-19.383749
16793,NaN,2.509508,10.259871,-9.606342,7.653025,10.020629,-3.114739,-0.404967,-1.237382,0.916314,-0.772504,-0.604504,0.032330,0.191748,74.241197,10.479050,-19.939475
16794,NaN,2.703140,10.665366,-9.744690,8.013047,10.172213,-2.860555,-0.928264,-1.357372,0.712828,-0.775695,-0.599524,0.038828,0.193288,73.601829,9.876393,-20.587209
16795,NaN,3.590670,10.584085,-10.775420,9.175973,10.818562,-3.505314,-1.364381,-1.307100,0.539223,-0.780006,-0.592831,0.044173,0.195424,72.712585,9.369244,-21.227282
16796,NaN,4.243978,10.208071,-11.004039,9.798622,10.750109,-4.180163,-1.243881,-0.789073,0.646287,-0.784079,-0.587094,0.047943,0.195558,71.955128,8.884302,-21.553325
16797,NaN,4.541949,9.856399,-10.781312,9.914128,10.421819,-4.606060,-1.050307,-0.256389,0.657788,-0.787706,-0.582571,0.049842,0.194026,71.351976,8.484767,-21.578120
16798,NaN,4.428409,9.813601,-11.082044,9.849711,10.808699,-4.824445,-0.952349,0.226236,0.496002,-0.790960,-0.578955,0.049465,0.191695,70.844347,8.262907,-21.364767
16799,NaN,3.836241,9.919370,-11.320170,9.324739,11.373165,-4.817258,-0.865016,0.768051,0.341269,-0.793933,-0.576208,0.046588,0.188373,70.422853,8.227775,-20.883469
16800,NaN,2.886115,9.977501,-10.725154,8.170392,11.320466,-4.521466,-0.778326,1.295660,0.248707,-0.796643,-0.574312,0.041421,0.183876,70.092122,8.349376,-20.132458
16801,NaN,1.948026,9.781803,-9.309697,6.715672,10.446664,-4.163594,-0.675218,1.684367,0.172680,-0.799011,-0.573163,0.034596,0.178519,69.852445,8.589591,-19.185196
16802,NaN,1.222206,9.717710,-7.583399,5.428662,9.218179,-3.568659,-0.390433,1.959364,0.122929,-0.800494,-0.573349,0.026765,0.172520,69.801104,8.915570,-18.098213
16803,NaN,0.788404,9.995674,-5.948985,4.557107,8.019624,-2.682327,0.096508,2.235174,0.168834,-0.800558,-0.575669,0.018400,0.165447,70.063265,9.266352,-16.850019
16804,NaN,0.494996,10.512359,-4.603449,3.972084,7.042229,-1.653399,0.634542,2.573807,0.238844,-0.799052,-0.580312,0.009302,0.157059,70.672103,9.637913,-15.399069
16805,NaN,0.078141,10.765828,-3.310999,3.251987,5.991532,-0.846316,1.046216,2.733553,0.215023,-0.796167,-0.586639,-0.000156,0.148235,71.545709,10.030313,-13.858093
16806,NaN,-0.362768,10.692011,-2.846972,2.618358,5.552525,-0.600371,1.331038,2.815033,0.162491,-0.792241,-0.593998,-0.009907,0.139365,72.597032,10.443330,-12.273175
16807,NaN,-0.801140,10.453012,-2.874461,2.033855,5.474527,-0.644340,1.638744,2.904824,0.178810,-0.787180,-0.602517,-0.019720,0.130122,73.851960,10.827215,-10.624918
16808,NaN,-1.212880,10.427219,-2.638400,1.484151,5.136795,-0.401866,2.002961,3.028670,0.262960,-0.780845,-0.612341,-0.029552,0.120191,75.338584,11.148163,-8.883346
16809,NaN,-1.755108,10.760977,-2.428627,0.885279,4.850627,0.210073,2.344183,3.095113,0.423868,-0.773249,-0.623379,-0.038905,0.109414,77.047409,11.336997,-7.071303
16810,NaN,-2.230683,11.380671,-2.200763,0.398620,4.505046,1.090134,2.652199,2.981164,0.658562,-0.764562,-0.635306,-0.046933,0.098122,78.924073,11.328889,-5.290407
16811,NaN,-2.543430,12.112284,-1.890421,0.068341,3.989211,2.053859,2.860964,2.722468,0.938757,-0.755067,-0.647749,-0.052929,0.086566,80.898385,11.074004,-3.631320
16812,NaN,-2.743253,12.570343,-1.778832,-0.225578,3.551730,2.678047,2.943839,2.368789,1.244963,-0.745253,-0.660130,-0.056572,0.075009,82.867677,10.565060,-2.163564
16813,NaN,-2.824119,12.824848,-1.694950,-0.474937,3.073112,3.057232,2.993006,2.049057,1.550629,-0.735156,-0.672441,-0.057944,0.063330,84.822031,9.809129,-0.883060
16814,NaN,-2.862816,12.912383,-1.641912,-0.743988,2.588819,3.238868,3.047976,1.847363,1.847942,-0.724767,-0.684670,-0.057564,0.051249,86.761137,8.836636,0.263102
16815,NaN,-2.841898,12.885191,-1.425723,-0.999001,1.921143,3.280229,3.098444,1.671611,2.115742,-0.713991,-0.696869,-0.055565,0.038770,88.694993,7.665034,1.276641
16816,NaN,-2.820296,12.782994,-1.057880,-1.275514,1.098917,3.211097,3.108188,1.559961,2.337811,-0.702981,-0.708803,-0.052396,0.025896,90.593485,6.337070,2.183604
16817,NaN,-2.739328,12.616864,-0.590179,-1.502979,0.188765,3.021596,3.019826,1.569696,2.515611,-0.691956,-0.720197,-0.048593,0.012306,92.421107,4.874557,3.046973
16818,NaN,-2.658421,12.335468,0.041064,-1.724569,-0.853598,2.657565,2.876563,1.690668,2.661602,-0.681150,-0.730775,-0.044696,-0.002243,94.139140,3.302674,3.927537
16819,NaN,-2.528839,11.985172,0.810935,-1.868348,-1.990406,2.154933,2.714747,1.861794,2.769495,-0.670547,-0.740522,-0.040940,-0.017840,95.747075,1.632151,4.852581
16820,NaN,-2.392298,11.604387,1.725272,-1.950906,-3.220682,1.552364,2.541979,2.028147,2.862406,-0.660265,-0.749314,-0.037387,-0.034371,97.223386,-0.122557,5.820851
16821,NaN,-2.366486,11.165794,2.583893,-2.095354,-4.351096,0.846260,2.382377,2.057436,2.940772,-0.650221,-0.757268,-0.033570,-0.051302,98.583408,-1.950929,6.755170
16822,NaN,-2.500913,10.503538,3.351885,-2.346816,-5.328487,-0.122528,2.350960,1.865314,3.003695,-0.640047,-0.764804,-0.028889,-0.067676,99.898338,-3.815070,7.533788
16823,NaN,-2.564167,9.942438,3.779842,-2.527728,-5.943292,-0.981656,2.546891,1.449823,3.109757,-0.628831,-0.772798,-0.022506,-0.082755,101.327916,-5.716155,8.022225
16824,NaN,-2.519502,9.349720,3.926975,-2.615043,-6.233934,-1.845863,2.826077,0.912658,3.179363,-0.616302,-0.781519,-0.014291,-0.095893,102.939321,-7.600792,8.150906
16825,NaN,-2.194599,9.176143,3.662072,-2.519568,-6.159546,-2.188707,2.962385,0.431980,3.126740,-0.602990,-0.790533,-0.004842,-0.106948,104.674607,-9.395723,7.960497
16826,NaN,-1.762745,9.433281,3.178587,-2.411747,-5.972677,-2.022101,2.956989,0.178529,3.002689,-0.589516,-0.799287,0.004870,-0.116567,106.441475,-11.074301,7.591609
16827,NaN,-1.490960,9.810539,2.893783,-2.451636,-6.044910,-1.795334,2.837836,0.140938,2.855533,-0.576338,-0.807383,0.014183,-0.125558,108.162424,-12.655915,7.172590
16828,NaN,-1.552273,10.264910,2.884725,-2.778644,-6.446313,-1.638900,2.579125,0.213799,2.646481,-0.564140,-0.814393,0.022589,-0.134167,109.736783,-14.123626,6.785769
16829,NaN,-1.838887,10.574874,3.127457,-3.238500,-7.040897,-1.755548,2.225695,0.377153,2.396932,-0.553385,-0.820077,0.029755,-0.142662,111.092935,-15.481053,6.499779
16830,NaN,-2.422993,10.748076,3.838713,-3.834221,-8.011577,-2.247470,1.849007,0.579950,2.137025,-0.544265,-0.824414,0.035548,-0.151174,112.200436,-16.735525,6.351663
16831,NaN,-3.195391,10.903750,4.772882,-4.516669,-9.157295,-2.912016,1.547338,0.694499,1.901719,-0.536487,-0.827731,0.040283,-0.159439,113.109924,-17.888618,6.297409
16832,NaN,-3.951623,11.271891,5.892870,-5.153625,-10.526617,-3.486515,1.414810,0.576246,1.712018,-0.529305,-0.830704,0.044648,-0.166652,113.956888,-18.913628,6.204409
16833,NaN,-4.562024,11.811869,6.818517,-5.722705,-11.762307,-3.836437,1.458505,0.221606,1.586551,-0.521913,-0.834007,0.049384,-0.172049,114.888920,-19.787227,5.930198
16834,NaN,-4.982271,12.255764,7.426107,-6.173893,-12.640434,-4.132282,1.599589,-0.301591,1.486284,-0.513816,-0.838059,0.054944,-0.175017,116.003381,-20.475834,5.375294
16835,NaN,-5.073252,12.587273,7.394473,-6.464088,-12.860144,-4.184400,1.716102,-0.837647,1.355964,-0.505156,-0.842794,0.061213,-0.175409,117.283579,-20.947476,4.547004
16836,NaN,-4.782999,12.905269,6.918727,-6.519474,-12.652442,-3.922468,1.709885,-1.213326,1.168556,-0.496475,-0.847795,0.067652,-0.173723,118.627435,-21.206928,3.553818
16837,NaN,-4.414614,13.310227,6.337109,-6.552410,-12.397925,-3.475490,1.547552,-1.386967,0.949468,-0.488584,-0.852482,0.073703,-0.170668,119.888000,-21.284733,2.528741
16838,NaN,-3.965923,13.596552,5.826666,-6.448356,-12.147370,-3.074720,1.268138,-1.419413,0.716551,-0.481975,-0.856519,0.079092,-0.166793,120.974614,-21.220795,1.554778
16839,NaN,-3.410696,13.484453,5.414987,-6.083067,-11.767098,-2.934112,0.910030,-1.353590,0.445110,-0.477162,-0.859646,0.083423,-0.162375,121.802129,-21.025440,0.707766
16840,NaN,-2.923933,13.217187,5.178714,-5.669986,-11.444694,-2.962000,0.552493,-1.184139,0.173618,-0.474097,-0.861870,0.086497,-0.157893,122.364523,-20.743389,0.037679
16841,NaN,-2.576747,13.088155,5.073454,-5.370764,-11.295907,-2.939800,0.291016,-0.995529,-0.082592,-0.472491,-0.863376,0.088189,-0.153481,122.699453,-20.387042,-0.442826
16842,NaN,-2.219501,13.480842,4.970628,-5.188652,-11.426157,-2.471894,0.170830,-0.949038,-0.291001,-0.471506,-0.864661,0.088996,-0.148737,122.938309,-19.946268,-0.831566
16843,NaN,-2.022328,14.937531,4.946048,-5.429510,-12.198884,-1.245853,0.226596,-1.038953,-0.428135,-0.470405,-0.866146,0.089339,-0.143281,123.194455,-19.405695,-1.212686
16844,NaN,-2.279704,17.314720,5.127182,-6.301712,-13.648542,0.448411,0.269090,-1.078187,-0.540037,-0.469089,-0.867811,0.089296,-0.137426,123.474856,-18.801779,-1.577091
16845,NaN,-2.953741,19.188748,5.389171,-7.372617,-14.870634,1.610261,-0.048659,-0.971448,-0.727782,-0.469400,-0.868668,0.088358,-0.131422,123.519256,-18.136100,-1.816738
16846,NaN,-3.507719,19.589860,5.463131,-7.915224,-15.078841,1.844317,-0.721137,-0.774244,-0.951016,-0.472756,-0.867918,0.086471,-0.125473,123.135331,-17.431162,-1.889761
16847,NaN,-3.833955,18.835841,5.271825,-7.952743,-14.366385,1.484710,-1.348702,-0.691181,-1.080704,-0.479024,-0.865580,0.084161,-0.119268,122.354300,-16.684513,-1.880371
16848,NaN,-3.843427,17.966015,4.792933,-7.707412,-13.314707,1.314969,-1.549844,-0.996234,-1.122913,-0.485906,-0.862920,0.082562,-0.111575,121.514799,-15.830619,-2.028796
16849,NaN,-3.260374,17.796336,3.744891,-7.139351,-12.140640,2.145094,-1.395100,-1.672607,-1.114222,-0.491888,-0.860837,0.082490,-0.100998,120.840099,-14.775805,-2.528708
16850,NaN,-2.562301,18.251214,2.094848,-6.629473,-10.761380,3.762802,-1.269306,-2.400758,-1.134413,-0.496832,-0.859338,0.084101,-0.087307,120.334438,-13.510312,-3.407251
16851,NaN,-1.818738,18.624719,0.168225,-5.963201,-9.086457,5.421525,-1.307241,-3.048410,-1.213774,-0.501696,-0.857769,0.086915,-0.070559,119.838274,-12.020159,-4.592213
16852,NaN,-0.975187,18.953870,-1.915359,-5.041595,-7.251322,7.094537,-1.461180,-3.332474,-1.216046,-0.506802,-0.855686,0.090518,-0.052535,119.269567,-10.466197,-5.933837
16853,NaN,-0.675606,19.103283,-3.568459,-4.433056,-5.601696,8.272353,-2.004951,-3.514776,-1.326947,-0.514104,-0.851900,0.094156,-0.033142,118.346853,-8.817006,-7.345717
16854,NaN,-0.674649,19.313335,-5.047317,-3.941892,-3.953410,9.363185,-3.055502,-3.554227,-1.627572,-0.525505,-0.845176,0.096798,-0.012339,116.794086,-7.041743,-8.731274
16855,NaN,0.661561,19.198196,-8.870921,-1.649287,-0.021851,11.279488,-4.374876,-2.395754,-2.075311,-0.542848,-0.834483,0.094466,0.005434,114.354328,-5.364572,-9.455401
16856,NaN,0.926854,18.880692,-8.044976,-0.804951,0.124196,10.713399,-4.344186,-0.455208,-1.731871,-0.560509,-0.823307,0.088298,0.014119,111.859428,-4.343469,-9.304677
16857,NaN,-0.803742,17.490784,-5.081061,-2.248893,-1.029225,8.248648,-4.580271,0.564648,-1.581817,-0.579407,-0.810919,0.079766,0.018323,109.180831,-3.595840,-8.678961
16858,NaN,-1.873603,16.223761,-4.053926,-2.899271,-0.660470,6.747762,-5.040696,0.445555,-1.990943,-0.599573,-0.796892,0.069882,0.024325,106.267721,-2.580897,-8.087639
16859,NaN,-2.099208,15.422050,-4.212314,-2.607969,0.482932,6.090047,-4.887773,0.208334,-2.223597,-0.618700,-0.782705,0.059691,0.031941,103.441140,-1.367320,-7.643127
16860,NaN,-2.442848,14.794024,-3.770639,-2.538836,0.919596,5.409263,-4.592081,-0.052629,-2.266670,-0.636039,-0.768953,0.050203,0.040558,100.813836,-0.085214,-7.400289
16861,NaN,-2.462070,14.261911,-4.161565,-2.056619,2.041085,4.963536,-4.662335,-0.318483,-2.433257,-0.653230,-0.754353,0.040814,0.050762,98.132657,1.332999,-7.349937
16862,NaN,-2.496277,13.509791,-5.011840,-1.543126,3.610791,4.272664,-4.758867,-0.281884,-2.519453,-0.670194,-0.739021,0.030985,0.061049,95.413152,2.791460,-7.341158
16863,NaN,-2.715317,12.728781,-5.345367,-1.329963,4.639361,3.402217,-4.713153,-0.043489,-2.516731,-0.686646,-0.723286,0.020301,0.070439,92.707678,4.244689,-7.264369
16864,NaN,-3.155775,11.878180,-5.081769,-1.491924,5.020983,2.410419,-4.663611,0.151652,-2.470224,-0.702369,-0.707371,0.009177,0.078865,90.052786,5.663346,-7.144634
16865,NaN,-3.633150,11.196647,-4.671497,-1.750020,5.175405,1.611461,-4.556292,0.043964,-2.455285,-0.717322,-0.691210,-0.001538,0.087606,87.432609,7.083470,-7.152332
16866,NaN,-3.753026,11.008960,-4.311189,-1.613506,5.286297,1.291026,-4.402350,-0.292286,-2.466439,-0.731182,-0.675097,-0.010960,0.097448,84.880980,8.487902,-7.418761
16867,NaN,-3.845014,10.985404,-4.227870,-1.383968,5.657160,1.113981,-4.105544,-0.797605,-2.394880,-0.743755,-0.659275,-0.018042,0.108903,82.415227,9.812907,-8.062718
16868,NaN,-3.757788,10.890220,-4.460312,-0.947450,6.278864,0.782742,-3.785434,-1.515127,-2.299930,-0.754867,-0.644029,-0.022061,0.122128,80.058331,10.988566,-9.141778
16869,NaN,-2.976483,10.769167,-4.839413,0.198433,6.899980,0.216088,-3.649332,-2.226206,-2.268067,-0.765290,-0.628370,-0.023127,0.137653,77.647223,12.028141,-10.701989
16870,NaN,-1.780183,10.616759,-5.787729,1.826515,7.915349,-0.682384,-3.711127,-2.482093,-2.303797,-0.775364,-0.612041,-0.023427,0.153843,75.151536,12.982032,-12.438871
16871,NaN,-0.799446,10.469162,-6.160801,3.157229,8.312322,-1.499577,-3.496148,-2.354539,-2.198969,-0.784443,-0.596175,-0.023695,0.169303,72.744910,13.830027,-14.149376
16872,NaN,-0.202862,10.401050,-5.637279,3.954255,7.882558,-1.925503,-3.431918,-2.033219,-2.149007,-0.792848,-0.580631,-0.025033,0.183392,70.405419,14.635059,-15.694695
16873,NaN,0.152090,10.364163,-4.912404,4.458157,7.298744,-2.170424,-3.253714,-1.948013,-2.097175,-0.800431,-0.565491,-0.026374,0.197066,68.137971,15.372835,-17.232243
16874,NaN,-0.144576,10.015652,-4.944666,4.361446,7.475530,-2.751492,-3.062556,-2.113182,-2.019145,-0.807156,-0.550804,-0.026642,0.210724,65.949585,15.970629,-18.862852
16875,NaN,-0.253601,10.227098,-5.897542,4.818858,8.559022,-3.259780,-2.936896,-2.359314,-1.998300,-0.813263,-0.536029,-0.025719,0.224976,63.762193,16.440542,-20.657501
16876,NaN,0.095563,11.237834,-6.574636,5.973962,9.460060,-3.155245,-2.742989,-2.316248,-1.850084,-0.818622,-0.521968,-0.024341,0.238359,61.699353,16.779158,-22.399751
16877,NaN,0.316049,11.853702,-6.943095,6.801237,9.984416,-3.266656,-2.680823,-2.105084,-1.638133,-0.823763,-0.508169,-0.023215,0.250277,59.699647,17.014541,-23.987536
16878,NaN,0.479131,11.934913,-7.325215,7.332045,10.341371,-3.845541,-2.768503,-1.874658,-1.527288,-0.828922,-0.494203,-0.022833,0.261019,57.696359,17.208313,-25.428277
16879,NaN,0.611755,11.667616,-7.186108,7.528107,10.133385,-4.448766,-2.762935,-1.582541,-1.397028,-0.833961,-0.480441,-0.023348,0.270443,55.737675,17.385981,-26.690034
16880,NaN,0.538948,11.216669,-6.910740,7.380683,9.821583,-5.026218,-2.626384,-1.233267,-1.267197,-0.838554,-0.467660,-0.024794,0.278401,53.924629,17.576296,-27.739156
16881,NaN,0.514824,10.994814,-6.810594,7.379363,9.711891,-5.482677,-2.306987,-0.899912,-1.158889,-0.842344,-0.456553,-0.026960,0.285113,52.343721,17.803739,-28.595989
16882,NaN,0.876593,11.232170,-6.642313,7.885421,9.551085,-5.612664,-1.882481,-0.615350,-1.037247,-0.845151,-0.447624,-0.029411,0.290667,51.061741,18.055171,-29.279248
16883,NaN,1.326087,11.588497,-6.199159,8.448728,9.181400,-5.477159,-1.633613,-0.387855,-0.957658,-0.847404,-0.440015,-0.032305,0.295380,49.956070,18.342349,-29.831970
16884,NaN,1.803277,11.571220,-6.016321,8.877454,8.837190,-5.759150,-1.556970,-0.115099,-0.947475,-0.849372,-0.433122,-0.036191,0.299437,48.934107,18.715252,-30.262559
16885,NaN,1.848188,11.476705,-5.394999,8.803165,8.335689,-5.658892,-1.285415,0.260161,-0.849907,-0.850776,-0.427914,-0.041064,0.302299,48.127931,19.183099,-30.491338
16886,NaN,1.492402,12.232868,-4.740057,8.852517,8.385835,-4.748327,-0.801865,0.549862,-0.696765,-0.851269,-0.425228,-0.046095,0.303969,47.661605,19.693702,-30.532943
16887,NaN,0.996534,13.287162,-5.136756,9.143264,9.414871,-4.183416,-0.255341,0.493885,-0.460072,-0.850954,-0.424822,-0.049560,0.304873,47.530792,20.082889,-30.505584
16888,NaN,0.921496,13.389405,-6.659178,9.422416,10.648534,-5.090748,-0.161994,0.508349,-0.326071,-0.850630,-0.424869,-0.052652,0.305192,47.475638,20.420545,-30.416879
16889,NaN,1.516546,12.586023,-7.197468,9.524246,10.439364,-6.232290,-0.395319,1.065283,-0.266107,-0.850724,-0.424788,-0.058339,0.304006,47.385891,20.949049,-30.052217
16890,NaN,1.583999,11.412164,-5.690926,8.609553,8.807149,-6.146434,-0.409379,1.861360,0.018197,-0.851000,-0.425906,-0.066828,0.299896,47.465284,21.666047,-29.207389
16891,NaN,1.128137,10.302956,-4.193947,7.303207,7.451733,-5.794473,-0.090316,2.340796,0.337049,-0.850807,-0.429179,-0.076183,0.293478,47.875413,22.429335,-28.002612
16892,NaN,0.754097,10.420111,-2.960259,6.809109,6.772601,-4.745476,0.573063,2.644481,0.587337,-0.849310,-0.435722,-0.085315,0.285550,48.778602,23.188643,-26.537845
16893,NaN,0.164376,11.626761,-1.773803,6.761454,6.625008,-2.831045,1.287256,2.872313,0.841388,-0.846318,-0.445662,-0.093808,0.276282,50.206641,23.893626,-24.836296
16894,NaN,-0.710491,12.893599,-0.996371,6.527528,6.815388,-0.942677,1.708472,2.940780,1.084652,-0.842455,-0.457434,-0.101453,0.265953,51.954330,24.472159,-22.976897
16895,NaN,-1.568550,13.693539,-0.651738,6.041353,7.024931,0.411752,1.924991,2.845444,1.347501,-0.838202,-0.470009,-0.107754,0.254749,53.878109,24.841439,-21.037953
16896,NaN,-2.183798,14.001457,-0.616139,5.463883,7.113807,1.174294,2.098488,2.629688,1.643949,-0.833761,-0.482998,-0.112216,0.242823,55.908580,24.941191,-19.087347
16897,NaN,-2.436743,13.808837,-0.613257,4.888240,6.862161,1.412084,2.239522,2.334450,1.976158,-0.829234,-0.496274,-0.114408,0.230206,58.007520,24.723066,-17.175518
16898,NaN,-2.140552,13.391000,-0.242154,4.632658,6.035012,1.414852,2.337221,2.185644,2.276739,-0.824605,-0.509727,-0.115107,0.216694,60.146293,24.251655,-15.263519
16899,NaN,-1.655933,12.928129,0.296333,4.512536,5.001603,1.348349,2.382327,2.226953,2.534784,-0.819758,-0.523401,-0.115194,0.201935,62.329757,23.593738,-13.278890
16900,NaN,-1.023846,12.482373,0.868150,4.546584,3.927173,1.209988,2.481550,2.285584,2.738580,-0.814479,-0.537374,-0.114865,0.186169,64.559144,22.780050,-11.246122
16901,NaN,-0.431408,12.058097,1.383867,4.581527,2.931677,1.045325,2.624842,2.271444,2.873392,-0.808524,-0.551783,-0.113891,0.169865,66.840270,21.815853,-9.235178
16902,NaN,-0.124922,11.504249,1.689419,4.339166,2.142349,0.760070,2.781601,2.291821,2.921465,-0.801768,-0.566529,-0.112708,0.153329,69.158425,20.760516,-7.259789
16903,NaN,-0.158625,11.119516,2.021841,3.883119,1.419385,0.706240,2.917264,2.483598,2.907307,-0.794034,-0.581693,-0.112128,0.136275,71.542858,19.670313,-5.237987
16904,NaN,-0.518576,10.930204,2.736014,3.234872,0.397626,0.984855,2.903931,2.824049,2.880660,-0.785682,-0.596621,-0.112958,0.118269,73.918446,18.579582,-3.087781
16905,NaN,-1.215001,10.856816,3.644352,2.357688,-0.801718,1.430663,2.678142,3.215281,2.851082,-0.777242,-0.610551,-0.115430,0.098985,76.182462,17.475957,-0.775998
16906,NaN,-2.124972,10.569143,4.723825,1.286771,-2.257716,1.666473,2.340690,3.496302,2.859978,-0.769204,-0.622869,-0.119104,0.078575,78.233754,16.326734,1.641613
16907,NaN,-3.249416,9.946984,5.948796,0.010505,-3.975943,1.548123,2.089536,3.386298,2.933811,-0.761530,-0.633877,-0.122102,0.057995,80.067296,15.039945,3.946333
16908,NaN,-4.145405,8.886543,6.847152,-1.116019,-5.472795,0.762157,2.067235,2.836341,3.096746,-0.753897,-0.644326,-0.122471,0.038519,81.738597,13.550333,5.888881
16909,NaN,-4.568024,7.661310,7.333663,-1.841904,-6.535186,-0.473075,2.312597,1.957700,3.307543,-0.745632,-0.655360,-0.118692,0.021179,83.380534,11.815490,7.277324
16910,NaN,-4.299973,6.600799,7.161153,-1.957672,-6.779971,-1.842303,2.579494,1.037044,3.419218,-0.736707,-0.666994,-0.111074,0.006616,85.016738,9.932239,8.078425
16911,NaN,-3.581773,6.215520,6.643716,-1.583833,-6.464923,-2.651387,2.642211,0.309249,3.352126,-0.727606,-0.678513,-0.100900,-0.005270,86.591161,8.029306,8.396628
16912,NaN,-2.709271,6.416102,5.937745,-1.016876,-5.846162,-2.845577,2.616760,-0.058826,3.270021,-0.718474,-0.689574,-0.089664,-0.015591,88.103889,6.162047,8.447984
16913,NaN,-2.144596,7.060440,5.558111,-0.671010,-5.568775,-2.473090,2.457808,-0.120747,3.213645,-0.709599,-0.699773,-0.078308,-0.025589,89.518955,4.319756,8.414155
16914,NaN,-1.971726,7.807998,5.244406,-0.718892,-5.427501,-1.915124,2.197072,-0.063510,3.162826,-0.701361,-0.708724,-0.067311,-0.035670,90.782282,2.513647,8.371145
16915,NaN,-2.134706,8.419267,4.876649,-1.143671,-5.294009,-1.453380,1.929730,0.010882,3.148589,-0.693784,-0.716483,-0.056514,-0.046072,91.895971,0.710340,8.332742
16916,NaN,-2.538578,8.859301,4.832135,-1.784851,-5.510537,-1.168641,1.638919,0.125369,3.090063,-0.687020,-0.722942,-0.046277,-0.056719,92.842043,-1.055589,8.329777
16917,NaN,-3.249874,9.445739,5.199850,-2.681770,-6.179241,-0.788412,1.319011,0.354925,2.989336,-0.681178,-0.728017,-0.037054,-0.067936,93.602609,-2.776331,8.434411
16918,NaN,-4.535098,10.197180,5.872177,-4.112150,-7.243849,-0.344927,1.072585,0.563894,2.904875,-0.676059,-0.731967,-0.028791,-0.079626,94.211045,-4.452818,8.642361
16919,NaN,-6.094685,10.884441,6.846956,-5.771566,-8.650454,-0.099634,0.935008,0.506156,2.823090,-0.671317,-0.735293,-0.020541,-0.090856,94.739331,-6.086632,8.804142
16920,NaN,-7.319981,11.475145,7.654195,-7.139240,-9.832330,-0.005088,0.963342,0.121422,2.750595,-0.666403,-0.738717,-0.011305,-0.100379,95.306708,-7.656592,8.733681
16921,NaN,-7.969105,11.837362,8.080408,-8.017114,-10.514704,-0.113675,1.122839,-0.406638,2.681056,-0.660823,-0.742773,-0.000623,-0.107712,96.013271,-9.159757,8.344941
16922,NaN,-7.863781,11.989129,8.028106,-8.241302,-10.575880,-0.313237,1.331154,-0.861323,2.603692,-0.654364,-0.747598,0.011141,-0.113053,96.897676,-10.580546,7.675839
16923,NaN,-7.114616,11.888505,7.349892,-7.904645,-9.895829,-0.563615,1.470026,-1.163623,2.437509,-0.647318,-0.752873,0.023203,-0.116720,97.912307,-11.875767,6.817891
16924,NaN,-6.016155,11.747641,6.289007,-7.249052,-8.803571,-0.664656,1.539548,-1.271768,2.185429,-0.639989,-0.758304,0.034608,-0.119128,99.001206,-13.001051,5.890340
16925,NaN,-4.974855,11.649237,5.273197,-6.599861,-7.790669,-0.647653,1.473312,-1.161021,1.866001,-0.633011,-0.763346,0.044483,-0.120913,100.049121,-13.940441,5.034289
16926,NaN,-4.272923,11.562842,4.579749,-6.179004,-7.137899,-0.658677,1.220939,-0.831538,1.464259,-0.627206,-0.767389,0.051926,-0.122597,100.914215,-14.672588,4.392593
16927,NaN,-3.841402,11.517012,4.162554,-5.931700,-6.777063,-0.668916,0.891529,-0.397706,1.007108,-0.623032,-0.770171,0.056446,-0.124427,101.517791,-15.188437,4.046330
16928,NaN,-3.748639,11.687026,3.967026,-5.978750,-6.692349,-0.547588,0.679331,-0.045909,0.587863,-0.619990,-0.772184,0.058392,-0.126231,101.939991,-15.506722,3.948042
16929,NaN,-3.757480,12.769774,3.967638,-6.281438,-7.010552,0.401167,0.654712,0.071140,0.269100,-0.617298,-0.774104,0.058745,-0.127496,102.315384,-15.659331,3.957611
16930,NaN,-3.675727,15.002515,4.011094,-6.748519,-7.658616,2.454221,0.818915,-0.018932,0.058043,-0.614039,-0.776662,0.058468,-0.127801,102.796675,-15.683270,3.938617
16931,NaN,-4.170296,17.802217,3.988388,-7.887794,-8.474676,4.890286,1.015773,-0.116163,-0.109084,-0.610117,-0.779891,0.057691,-0.127272,103.394246,-15.599673,3.888444
16932,NaN,-5.069187,19.153394,3.851285,-9.029808,-8.886929,5.899229,0.795285,-0.086331,-0.401100,-0.607198,-0.782522,0.055846,-0.125900,103.855288,-15.358506,3.894367
16933,NaN,-5.599650,18.872575,3.755779,-9.367205,-8.832710,5.545460,0.048882,0.080755,-0.786568,-0.607523,-0.782842,0.052423,-0.123797,103.842237,-14.923145,4.055717
16934,NaN,-6.076817,17.840855,3.782098,-9.437596,-8.593344,4.561247,-0.627445,0.276473,-1.002048,-0.610619,-0.781055,0.048010,-0.121628,103.414124,-14.396331,4.354305
16935,NaN,-6.603697,17.034596,4.012662,-9.593386,-8.551447,3.778579,-0.788120,-0.037101,-1.028574,-0.614311,-0.778905,0.044507,-0.118100,102.933302,-13.807412,4.474864
16936,NaN,-6.894575,17.079339,3.831968,-9.798474,-8.285567,3.944440,-0.446405,-1.008648,-0.968250,-0.616338,-0.778366,0.044059,-0.111054,102.789960,-13.131754,4.022051
16937,NaN,-6.714994,18.112388,2.794863,-9.874631,-7.386489,5.316416,0.079932,-2.187108,-0.914533,-0.616028,-0.779971,0.047106,-0.099676,103.083402,-12.329013,2.893969
16938,NaN,-6.135248,19.337929,1.051261,-9.615028,-5.840933,7.102782,0.371106,-3.195536,-0.969908,-0.614181,-0.782866,0.052937,-0.084259,103.649739,-11.358841,1.204803
16939,NaN,-5.243386,20.473329,-0.751847,-8.889037,-4.225703,8.904597,0.314427,-3.925953,-1.088409,-0.612266,-0.785604,0.060498,-0.065552,104.214136,-10.199574,-0.860777
16940,NaN,-4.330684,21.376670,-2.256455,-7.913639,-2.856498,10.436022,-0.054074,-4.239762,-1.137044,-0.611376,-0.787023,0.068979,-0.045346,104.559996,-8.958606,-3.083147
16941,NaN,-3.510919,21.427108,-3.406294,-6.729545,-1.569103,11.050650,-0.893914,-4.037743,-1.228902,-0.613664,-0.785437,0.076580,-0.025315,104.346016,-7.686624,-5.165697
16942,NaN,-2.369793,20.495779,-4.765868,-4.921587,0.254736,10.780387,-2.289433,-3.274302,-1.592036,-0.621413,-0.779297,0.080613,-0.006651,103.238626,-6.347271,-6.782554
16943,NaN,-1.358109,18.883590,-5.357331,-3.137606,1.586502,9.545166,-3.078050,-1.924193,-1.696396,-0.632588,-0.770312,0.079977,0.007430,101.558164,-5.148535,-7.651731
16944,NaN,-1.332964,16.878951,-4.083170,-2.584825,1.267410,7.363567,-3.359758,-0.668502,-1.668663,-0.645035,-0.760232,0.075496,0.016664,99.656397,-4.132197,-7.853548
16945,NaN,-1.582706,15.141656,-2.917286,-2.430873,0.965221,5.465075,-3.709477,-0.203565,-1.922351,-0.658779,-0.748797,0.068430,0.025108,97.523935,-3.012814,-7.801927
16946,NaN,-1.671668,13.859244,-2.393998,-2.109663,1.129572,4.145952,-3.882673,-0.457313,-2.298815,-0.672653,-0.736589,0.060798,0.035755,95.310854,-1.668663,-7.916303
16947,NaN,-1.633209,12.956711,-2.299900,-1.635626,1.580510,3.249832,-3.689502,-0.917244,-2.531486,-0.685352,-0.724578,0.053797,0.048835,93.199664,-0.170215,-8.331469
16948,NaN,-1.566516,12.340662,-2.464997,-1.118526,2.178415,2.629108,-3.415342,-1.309275,-2.661603,-0.696500,-0.713130,0.047770,0.063647,91.242271,1.388619,-9.023519
16949,NaN,-1.483641,11.821086,-2.733348,-0.574292,2.812265,2.067780,-3.358777,-1.474207,-2.800080,-0.707061,-0.701425,0.041755,0.079518,89.281757,3.009662,-9.861137
16950,NaN,-1.220427,11.354703,-3.167902,0.171685,3.539553,1.495250,-3.527858,-1.355233,-2.963996,-0.717721,-0.688876,0.034717,0.095507,87.211366,4.689151,-10.693012
16951,NaN,-0.624253,10.745146,-3.407859,1.179809,3.977049,0.686192,-3.711926,-1.095735,-3.089558,-0.728628,-0.675339,0.026147,0.111061,85.008139,6.425121,-11.443836
16952,NaN,0.048839,10.069794,-3.374246,2.152483,4.076105,-0.246234,-3.829025,-0.789023,-3.184443,-0.739407,-0.661198,0.016119,0.125837,82.738064,8.196599,-12.095721
16953,NaN,0.620722,9.516686,-3.305244,2.979282,4.119227,-1.094245,-3.849669,-0.572831,-3.265977,-0.749795,-0.646637,0.004942,0.140154,80.432866,10.011544,-12.703905
16954,NaN,1.081457,9.112663,-3.229375,3.672524,4.145947,-1.816282,-3.793908,-0.430788,-3.342922,-0.759420,-0.632032,-0.006924,0.154175,78.149720,11.853061,-13.316250
16955,NaN,1.257458,8.709646,-3.033697,4.026250,4.082297,-2.481372,-3.764724,-0.239984,-3.381921,-0.768470,-0.617214,-0.019661,0.167673,75.860031,13.721264,-13.903654
16956,NaN,1.275812,8.235148,-2.741095,4.144177,3.918348,-3.148201,-3.713395,0.104057,-3.375467,-0.776801,-0.602552,-0.033593,0.179953,73.620147,15.607902,-14.373719
16957,NaN,0.940860,7.851267,-2.281175,3.886420,3.671415,-3.556884,-3.512833,0.503059,-3.313783,-0.784079,-0.588611,-0.048735,0.190743,71.516934,17.515902,-14.684541
16958,NaN,0.147876,7.831267,-1.718577,3.300089,3.499213,-3.397186,-3.196666,0.696060,-3.223761,-0.789991,-0.575845,-0.063992,0.200555,69.611336,19.395332,-14.939847
16959,NaN,-0.776025,8.309329,-1.185347,2.820510,3.506821,-2.686040,-2.896218,0.513546,-3.123274,-0.794837,-0.563773,-0.077949,0.210519,67.810104,21.179049,-15.345551
16960,NaN,-1.366707,9.089443,-0.999177,2.860489,3.849185,-1.908572,-2.581051,-0.073209,-2.925879,-0.798866,-0.552232,-0.088611,0.221361,66.056328,22.709707,-16.099525
16961,NaN,-1.367792,9.749008,-1.131561,3.436323,4.314057,-1.580741,-2.225525,-0.954457,-2.568934,-0.802448,-0.541049,-0.094382,0.233315,64.299201,23.824887,-17.318491
16962,NaN,-1.154568,9.972505,-1.733720,4.036811,5.005883,-1.911680,-1.946656,-1.812797,-2.184208,-0.805859,-0.530054,-0.095275,0.246084,62.521049,24.483601,-18.954956
16963,NaN,-0.649066,10.246717,-2.753989,4.950132,5.964913,-2.538903,-1.765033,-2.416371,-1.900201,-0.809201,-0.518971,-0.092766,0.259340,60.711231,24.791173,-20.870939
16964,NaN,0.106191,10.896698,-3.988285,6.303250,7.087721,-3.128456,-1.659356,-2.676076,-1.680665,-0.812396,-0.507966,-0.088435,0.272328,58.928159,24.856993,-22.869680
16965,NaN,1.075806,11.475835,-5.248057,7.814438,8.047461,-3.934107,-1.434555,-2.646835,-1.359492,-0.815221,-0.497864,-0.083103,0.283972,57.319892,24.724321,-24.747981
16966,NaN,1.630371,11.599105,-5.929300,8.634134,8.440665,-4.659713,-1.451881,-2.220662,-1.052322,-0.818137,-0.488346,-0.078719,0.293212,55.853659,24.530892,-26.286784
16967,NaN,2.419407,11.318278,-6.624893,9.382140,8.600522,-5.832300,-1.954322,-1.648073,-1.066863,-0.821883,-0.477479,-0.077455,0.300868,54.221431,24.496362,-27.528751
16968,NaN,2.642756,10.601222,-5.784370,9.132171,7.550178,-6.288344,-1.892307,-1.510191,-0.863746,-0.825576,-0.467099,-0.076145,0.307320,52.692052,24.382427,-28.621454
16969,NaN,3.185299,9.772916,-6.386855,9.272412,7.483269,-7.699607,-1.826800,-1.516342,-0.862009,-0.828992,-0.456886,-0.074705,0.313760,51.200683,24.240392,-29.712433
16970,NaN,4.155533,9.876132,-7.432992,10.351400,7.874100,-8.865410,-1.505182,-1.358161,-0.894634,-0.831441,-0.448196,-0.073468,0.320044,49.926600,24.145393,-30.733896
16971,NaN,4.872879,10.886189,-7.979199,11.674552,8.303367,-8.989951,-1.078502,-0.779849,-0.811961,-0.832779,-0.442189,-0.073764,0.324818,49.024180,24.212317,-31.443484
16972,NaN,4.751608,11.941468,-7.678159,12.209874,8.513666,-8.211179,-0.853202,-0.050064,-0.666443,-0.833547,-0.438344,-0.076403,0.327438,48.416155,24.483604,-31.749420
16973,NaN,4.030242,12.342239,-7.147172,11.818062,8.630965,-7.468823,-0.842553,0.578307,-0.518598,-0.834266,-0.435624,-0.081311,0.328056,47.961710,24.928638,-31.701091
16974,NaN,3.172942,12.282764,-6.964886,11.065460,8.942011,-7.159800,-0.743013,1.052836,-0.359347,-0.834806,-0.434137,-0.087692,0.327008,47.685824,25.489412,-31.365642
16975,NaN,2.712017,12.175911,-7.234026,10.621359,9.417392,-7.275600,-0.516376,1.519739,-0.222156,-0.834821,-0.434419,-0.095332,0.324446,47.668003,26.171649,-30.750518
16976,NaN,2.249955,11.794351,-7.503409,9.963521,9.795929,-7.524517,-0.424430,2.049985,-0.130510,-0.834467,-0.435928,-0.104845,0.320374,47.839279,27.019867,-29.840317
16977,NaN,1.769833,11.200586,-7.115818,9.048297,9.583519,-7.467194,-0.379445,2.537726,0.007832,-0.833855,-0.438456,-0.115980,0.314628,48.196154,27.990308,-28.622588
16978,NaN,1.208305,10.546050,-6.435088,7.986562,9.134801,-7.194407,-0.224026,2.974265,0.278441,-0.832925,-0.442353,-0.128100,0.306839,48.822312,29.003098,-27.055852
16979,NaN,0.757416,10.131624,-5.764183,7.156708,8.715030,-6.767402,0.101415,3.346661,0.583536,-0.831277,-0.448309,-0.140531,0.297067,49.838458,29.999722,-25.137880
16980,NaN,0.311561,10.275405,-4.766434,6.674037,8.201528,-5.740102,0.568510,3.701582,0.868876,-0.828499,-0.456736,-0.153090,0.285562,51.318792,30.965496,-22.875892
16981,NaN,-0.322414,10.803109,-3.875119,6.295311,7.913115,-4.374718,0.992249,4.074958,1.123123,-0.824464,-0.467515,-0.165906,0.272332,53.270006,31.884274,-20.252491
16982,NaN,-1.190548,11.635266,-3.030144,5.916359,7.738091,-2.665223,1.356482,4.378022,1.397504,-0.819288,-0.480129,-0.178786,0.257445,55.635408,32.695085,-17.293281
16983,NaN,-2.332160,12.557674,-1.836113,5.376575,7.193999,-0.548331,1.659857,4.503098,1.774858,-0.813233,-0.494260,-0.190726,0.240796,58.364466,33.246421,-14.055453
16984,NaN,-3.221476,13.341781,-0.989137,4.921101,6.668118,1.171724,1.726241,4.493332,2.149592,-0.806949,-0.508601,-0.201537,0.222577,61.231244,33.481366,-10.654870
16985,NaN,-4.233368,14.007965,-0.478853,4.218994,6.270354,2.726356,1.791812,4.239324,2.631421,-0.800702,-0.523131,-0.209833,0.202933,64.150756,33.253703,-7.243342
16986,NaN,-5.128762,14.441859,-0.042249,3.400278,5.697767,4.000644,1.987633,3.707410,3.168261,-0.794512,-0.538026,-0.214300,0.182631,67.029088,32.482967,-4.052019
16987,NaN,-5.401380,15.111979,0.790864,3.193785,4.673598,5.223286,2.242207,3.103528,3.691023,-0.788176,-0.553643,-0.214523,0.161979,69.838792,31.166160,-1.191775
16988,NaN,-5.371677,15.400288,1.672773,2.981581,3.386579,5.948206,2.438350,2.560573,4.155878,-0.781715,-0.569610,-0.211062,0.141133,72.500669,29.390733,1.301809
16989,NaN,-5.351380,15.320566,2.374010,2.498181,2.102282,6.258047,2.630331,2.125666,4.499774,-0.774773,-0.586026,-0.204561,0.120229,75.042392,27.251146,3.447309
16990,NaN,-5.179171,15.364764,3.186199,2.190717,0.720869,6.547729,2.832560,1.758576,4.709807,-0.767146,-0.602662,-0.195798,0.099742,77.463554,24.874547,5.246995
16991,NaN,-5.172407,15.118942,3.906968,1.578579,-0.690933,6.544522,3.025398,1.311199,4.845001,-0.758756,-0.619513,-0.184581,0.080139,79.773408,22.296470,6.646422
16992,NaN,-5.083781,14.335592,3.993878,0.744064,-1.588586,5.812871,3.215238,0.735153,4.873144,-0.749705,-0.636268,-0.170924,0.062370,81.951007,19.612299,7.563523
16993,NaN,-4.854462,13.423735,3.782686,-0.005256,-2.138393,4.796762,3.367130,0.126305,4.800956,-0.739980,-0.652861,-0.154949,0.046832,84.029756,16.886000,7.990264
16994,NaN,-4.267218,12.684895,3.182046,-0.355025,-2.136567,3.770308,3.408049,-0.396066,4.646526,-0.729903,-0.668739,-0.137475,0.033614,85.990620,14.219952,7.993569
16995,NaN,-3.439499,12.092304,2.774246,-0.320425,-2.180529,2.870029,3.236481,-0.642965,4.428533,-0.719905,-0.683328,-0.119677,0.021820,87.806794,11.661696,7.754366
16996,NaN,-2.813515,11.506085,2.627030,-0.346113,-2.409730,2.072168,2.801097,-0.518188,4.126155,-0.710829,-0.695645,-0.103396,0.010464,89.374384,9.296938,7.509705
16997,NaN,-2.492983,10.962689,2.750639,-0.536404,-2.849805,1.391368,2.253738,-0.057831,3.787403,-0.702959,-0.705533,-0.089828,-0.001630,90.675187,7.122502,7.472373
16998,NaN,-2.605036,10.361298,3.182945,-1.029880,-3.564857,0.698742,1.754082,0.462781,3.473543,-0.696359,-0.713157,-0.079224,-0.014629,91.711095,5.133191,7.695614
16999,NaN,-3.004674,9.877925,3.876365,-1.679665,-4.509594,0.109994,1.290642,0.786054,3.175478,-0.691019,-0.718828,-0.070677,-0.027973,92.492652,3.294267,8.076853
17000,NaN,-3.685327,9.405534,4.399853,-2.558758,-5.269170,-0.480732,0.885567,0.770834,2.914015,-0.687031,-0.722760,-0.063011,-0.040443,93.022432,1.611338,8.436476
17001,NaN,-4.135089,8.774162,4.521071,-3.226828,-5.543605,-1.246765,0.613648,0.428089,2.694201,-0.683984,-0.725641,-0.054825,-0.051045,93.389331,0.052603,8.591815
17002,NaN,-3.844677,8.448293,4.565964,-3.141199,-5.606513,-1.707259,0.484984,0.005470,2.531300,-0.681480,-0.727971,-0.045809,-0.059534,93.675201,-1.389148,8.504152
17003,NaN,-3.152213,8.720253,4.421581,-2.690448,-5.443935,-1.527175,0.457512,-0.157750,2.459870,-0.678987,-0.730158,-0.036418,-0.067227,93.956310,-2.792482,8.316819
17004,NaN,-2.838541,9.186462,4.432770,-2.606273,-5.503841,-1.151962,0.356893,-0.028148,2.399264,-0.676793,-0.731803,-0.027712,-0.075151,94.174740,-4.156530,8.201687
17005,NaN,-2.804987,9.497119,4.575513,-2.772799,-5.715010,-0.944488,0.084956,0.290019,2.274257,-0.675470,-0.732317,-0.020375,-0.083886,94.229023,-5.470718,8.269002
17006,NaN,-3.185835,9.438081,5.095628,-3.236581,-6.303173,-1.153324,-0.345026,0.772562,2.102097,-0.675690,-0.731037,-0.015173,-0.093796,94.000583,-6.697765,8.624711
17007,NaN,-3.947847,8.972082,5.796423,-3.952360,-7.073309,-1.810913,-0.704952,1.248566,1.968412,-0.677133,-0.728228,-0.011843,-0.105048,93.525462,-7.871973,9.266648
17008,NaN,-4.996116,8.489806,6.809857,-4.820537,-8.202138,-2.539510,-0.852452,1.477720,1.868421,-0.679075,-0.724661,-0.009627,-0.116750,92.927878,-8.982468,10.058797
17009,NaN,-6.175904,8.389160,7.744607,-5.826191,-9.336122,-2.928612,-0.654585,1.319750,1.821166,-0.680217,-0.721762,-0.007113,-0.127727,92.443693,-10.061244,10.772261
17010,NaN,-7.145681,8.841501,8.421162,-6.753167,-10.258367,-2.790787,-0.051490,0.835461,1.883220,-0.679097,-0.721125,-0.003159,-0.137095,92.340300,-11.153310,11.211442
17011,NaN,-7.595793,9.443228,8.373007,-7.390140,-10.423604,-2.484294,0.714071,0.186067,2.006711,-0.675058,-0.723460,0.002958,-0.144545,92.745890,-12.306395,11.265839
17012,NaN,-7.333734,9.993675,7.536905,-7.546878,-9.709355,-2.116862,1.145007,-0.274306,2.021923,-0.669369,-0.727487,0.010335,-0.150338,93.459463,-13.448660,11.039024
17013,NaN,-6.551313,10.204551,6.530517,-7.192840,-8.714772,-1.938160,1.152415,-0.310777,1.883153,-0.663666,-0.731473,0.017347,-0.155541,94.188533,-14.511521,10.780320
17014,NaN,-5.520883,9.994586,5.786664,-6.436937,-7.884505,-2.050406,0.948707,-0.054641,1.644925,-0.658846,-0.734532,0.022769,-0.160831,94.767463,-15.442634,10.670462
17015,NaN,-4.709822,9.488209,5.152445,-5.755738,-7.153713,-2.433695,0.789563,0.356407,1.332210,-0.654865,-0.736704,0.025830,-0.166590,95.186428,-16.217566,10.812384
17016,NaN,-4.445417,9.171187,4.695024,-5.553531,-6.709998,-2.738195,0.671911,0.763528,0.948236,-0.651646,-0.738171,0.026225,-0.172546,95.464606,-16.793070,11.212794
17017,NaN,-4.674891,9.251655,4.441254,-5.830989,-6.612866,-2.781269,0.582272,1.146937,0.562399,-0.649124,-0.739014,0.024029,-0.178657,95.612442,-17.172843,11.864118
17018,NaN,-5.324779,9.948010,4.339007,-6.591739,-6.852957,-2.347596,0.503209,1.400995,0.226033,-0.647177,-0.739391,0.019828,-0.184579,95.663645,-17.374527,12.686086
17019,NaN,-6.212611,11.827614,4.710535,-7.736378,-7.818488,-0.885458,0.502308,1.490655,-0.017368,-0.645449,-0.739642,0.014434,-0.190045,95.688209,-17.443390,13.578318
17020,NaN,-7.583246,14.860516,5.639875,-9.440544,-9.661927,1.486353,0.547781,1.354855,-0.174063,-0.643633,-0.740158,0.008857,-0.194484,95.763783,-17.415543,14.397061
17021,NaN,-9.331708,17.045786,6.196828,-11.326648,-11.126420,2.991478,0.530608,0.849292,-0.340460,-0.642024,-0.741060,0.004292,-0.196512,95.912938,-17.263450,14.926153
17022,NaN,-10.077506,17.657479,6.203234,-12.035827,-11.511905,3.394735,0.301910,0.105040,-0.637771,-0.641495,-0.741977,0.001255,-0.194815,96.063130,-16.900238,15.027423
17023,NaN,-9.713747,17.541402,5.703122,-11.712043,-10.912012,3.541603,0.014162,-0.555468,-0.911699,-0.642324,-0.742566,-0.000432,-0.189776,96.150234,-16.337088,14.757132
17024,NaN,-8.665333,17.502417,4.672255,-10.946596,-9.578337,4.032071,0.003090,-1.197730,-1.004602,-0.643213,-0.743730,-0.000358,-0.182052,96.337079,-15.684193,14.111362
17025,NaN,-7.363764,18.031439,3.417796,-10.124776,-8.044861,5.147439,0.161000,-1.939146,-1.070053,-0.643568,-0.745965,0.001666,-0.171328,96.712268,-14.936831,13.041743
17026,NaN,-6.124754,18.757804,1.911082,-9.399510,-6.313488,6.460119,0.139251,-2.599786,-1.269157,-0.644010,-0.748614,0.005140,-0.157486,97.158578,-14.028976,11.604138
17027,NaN,-5.039595,19.329206,0.365475,-8.661280,-4.528551,7.611835,-0.073676,-2.983036,-1.555654,-0.645365,-0.750655,0.008884,-0.141218,97.493908,-12.913488,9.980892
17028,NaN,-4.008777,19.640408,-1.003501,-7.729919,-2.854110,8.487827,-0.426572,-3.025476,-1.828998,-0.647982,-0.751418,0.012045,-0.123876,97.600699,-11.640761,8.362084
17029,NaN,-3.294803,19.648609,-2.289822,-6.885527,-1.207905,8.982836,-0.965429,-2.676621,-2.117893,-0.652683,-0.749948,0.013256,-0.106805,97.308726,-10.224160,6.976694
17030,NaN,-2.672492,19.607614,-3.509651,-5.979417,0.472760,9.367985,-1.900768,-1.929859,-2.626108,-0.660928,-0.744858,0.010684,-0.090809,96.378918,-8.592372,6.044569
17031,NaN,-2.280371,19.451631,-4.248879,-5.129636,1.787957,9.476099,-2.524217,-0.702905,-2.942918,-0.671521,-0.736837,0.003090,-0.078232,94.962115,-6.859637,5.810586
17032,NaN,-3.042051,18.565353,-2.977701,-5.134025,1.101459,8.495122,-2.834708,0.521596,-2.979045,-0.682953,-0.727046,-0.008560,-0.070045,93.300547,-5.172756,6.232556
17033,NaN,-3.753623,17.193535,-1.433857,-5.069450,0.164395,7.098459,-3.358000,0.951209,-3.274844,-0.696087,-0.714886,-0.022637,-0.062354,91.328734,-3.304194,6.855847
17034,NaN,-3.846928,15.850349,-0.431223,-4.486032,-0.201630,5.871738,-3.620002,0.791162,-3.559763,-0.709776,-0.701445,-0.037007,-0.053134,89.242948,-1.261064,7.317867
17035,NaN,-3.837002,14.476651,0.370348,-3.863562,-0.422451,4.653918,-3.414976,0.353146,-3.674813,-0.722574,-0.688228,-0.050037,-0.041532,87.267010,0.867677,7.406535
17036,NaN,-3.822438,13.608042,0.959938,-3.319370,-0.531846,3.948572,-2.966494,-0.231707,-3.735056,-0.733370,-0.676471,-0.061448,-0.027921,85.565025,3.000937,7.137967
17037,NaN,-3.551759,13.221032,1.079944,-2.598676,-0.192818,3.668955,-2.422124,-0.847270,-3.741043,-0.742229,-0.666315,-0.070575,-0.011783,84.117234,5.109705,6.429878
17038,NaN,-3.029431,12.836805,0.422253,-1.743819,0.857997,3.238568,-1.949928,-1.509974,-3.716188,-0.749253,-0.657733,-0.077242,0.006405,82.888509,7.133058,5.320648
17039,NaN,-2.276442,12.355393,-0.423138,-0.697912,2.024191,2.573152,-1.663762,-2.001789,-3.670187,-0.755225,-0.649802,-0.081857,0.026298,81.725395,9.080232,3.870715
17040,NaN,-1.356732,11.808952,-1.151566,0.502708,2.993914,1.736344,-1.701554,-2.165627,-3.649781,-0.760922,-0.641470,-0.085759,0.046465,80.483036,10.960034,2.294811
17041,NaN,-0.521825,11.078995,-1.881797,1.570090,3.869226,0.632398,-2.058596,-1.958798,-3.737377,-0.767295,-0.631370,-0.090808,0.066207,78.985318,12.882659,0.767984
17042,NaN,0.225004,10.236236,-2.561419,2.484674,4.614422,-0.652732,-2.407270,-1.369304,-3.855790,-0.773983,-0.619795,-0.098514,0.084264,77.310058,14.889079,-0.493338
17043,NaN,0.448655,9.497306,-2.331366,2.888012,4.439122,-1.580299,-2.433783,-0.602111,-3.837804,-0.779990,-0.608055,-0.109177,0.099830,75.672537,16.960850,-1.375602
17044,NaN,0.290420,8.985079,-1.533589,2.947990,3.741961,-2.037063,-2.516057,-0.025410,-3.883480,-0.785465,-0.595988,-0.122123,0.113708,74.042804,19.110067,-2.005042
17045,NaN,-0.203940,8.876544,-0.783872,2.795142,3.202288,-1.978937,-2.479862,0.280031,-3.916762,-0.790218,-0.583860,-0.136414,0.126706,72.444033,21.318452,-2.519844
17046,NaN,-0.873733,9.195039,-0.314521,2.634956,3.062605,-1.501597,-2.270201,0.184344,-3.899542,-0.794007,-0.572238,-0.149939,0.140052,70.900367,23.477627,-3.175107
17047,NaN,-1.376554,9.895130,-0.228351,2.794671,3.402384,-0.842786,-1.886051,-0.387322,-3.801994,-0.796826,-0.561498,-0.160680,0.154826,69.390425,25.463550,-4.210966
17048,NaN,-1.409929,10.583207,-0.593572,3.377265,4.131163,-0.546781,-1.483102,-1.208455,-3.573570,-0.798990,-0.551705,-0.167020,0.171292,67.858263,27.122791,-5.766747
17049,NaN,-1.166561,11.042285,-1.326493,4.095071,5.086779,-0.735689,-1.347456,-1.885557,-3.377677,-0.801194,-0.541775,-0.170034,0.188830,66.166164,28.494023,-7.738378
17050,NaN,-0.437047,11.263569,-2.382885,5.113042,6.176239,-1.540435,-1.553353,-2.292068,-3.278486,-0.804030,-0.530513,-0.171164,0.206867,64.179379,29.652203,-10.009202
17051,NaN,0.933213,11.484509,-3.330342,6.678158,7.008800,-2.733487,-1.833548,-2.416435,-3.144929,-0.807488,-0.517830,-0.171725,0.224332,61.939346,30.641455,-12.378815
17052,NaN,1.920604,11.632422,-3.713463,7.864152,7.284724,-3.659592,-2.035245,-2.157708,-2.896746,-0.811147,-0.504632,-0.172760,0.239877,59.639232,31.491162,-14.589346
17053,NaN,1.973668,11.613841,-3.663050,8.143597,7.266046,-4.062435,-1.991657,-1.715669,-2.596874,-0.814370,-0.492179,-0.174768,0.253017,57.495603,32.256522,-16.491626
17054,NaN,1.644613,11.746289,-3.637999,8.166555,7.427544,-4.152410,-2.106432,-1.491435,-2.490117,-0.817535,-0.479497,-0.177457,0.265005,55.331848,32.976333,-18.279445
17055,NaN,1.330906,11.889068,-3.585340,8.200421,7.580882,-4.222925,-2.001315,-1.513001,-2.302558,-0.820471,-0.467221,-0.179454,0.276275,53.220371,33.548057,-20.045021
17056,NaN,1.279292,11.627337,-3.909562,8.163795,7.815718,-4.875938,-1.869092,-1.540441,-2.086446,-0.823193,-0.455530,-0.180562,0.286781,51.197352,33.955509,-21.771000
17057,NaN,1.467933,11.454952,-4.301074,8.339861,8.045447,-5.620121,-1.705880,-1.437550,-1.895442,-0.825532,-0.444719,-0.181408,0.296334,49.323743,34.269537,-23.378298
17058,NaN,1.784683,11.440008,-4.588843,8.689478,8.184497,-6.260851,-1.502884,-1.130789,-1.695916,-0.827281,-0.435302,-0.182716,0.304522,47.692269,34.571390,-24.753384
17059,NaN,2.156160,11.758500,-4.636106,9.279948,8.231080,-6.567532,-1.240652,-0.768053,-1.469242,-0.828360,-0.427679,-0.184625,0.311165,46.365295,34.891902,-25.846737
17060,NaN,2.719450,12.147330,-4.444689,10.045446,8.036519,-6.778288,-1.045030,-0.493474,-1.241909,-0.829049,-0.421457,-0.186846,0.316449,45.279570,35.208178,-26.706764
17061,NaN,2.998925,12.333258,-4.391342,10.436623,7.969543,-6.993609,-0.874771,-0.236049,-1.012019,-0.829449,-0.416559,-0.189380,0.320357,44.425720,35.524889,-27.330561
17062,NaN,3.151269,12.638309,-4.364235,10.797438,8.029156,-7.046764,-0.629949,0.041308,-0.776037,-0.829429,-0.413309,-0.192163,0.322950,43.850421,35.854343,-27.709922
17063,NaN,3.120214,13.325835,-4.458206,11.269737,8.432416,-6.800029,-0.308248,0.321825,-0.478520,-0.828934,-0.412158,-0.194972,0.324007,43.631290,36.179885,-27.799256
17064,NaN,2.931098,14.139621,-4.948003,11.675816,9.279276,-6.561032,-0.004326,0.635393,-0.122349,-0.828082,-0.413083,-0.197852,0.323260,43.779461,36.494282,-27.556752
17065,NaN,2.646244,14.274552,-5.702107,11.487553,10.088567,-6.724698,0.148981,1.014225,0.239361,-0.827098,-0.415655,-0.201299,0.320340,44.250422,36.819066,-26.930043
17066,NaN,2.685879,13.921167,-5.797638,11.182001,10.061812,-6.923788,0.075720,1.620907,0.535439,-0.826099,-0.419123,-0.206750,0.314883,44.953696,37.267779,-25.846226
17067,NaN,2.284317,13.152625,-4.875187,10.299569,9.206777,-6.477083,0.062797,2.357517,0.940249,-0.824895,-0.424137,-0.214391,0.306093,46.036235,37.832232,-24.149568
17068,NaN,1.298996,12.328162,-3.888180,8.943283,8.447520,-5.636688,0.275992,2.965452,1.410484,-0.823140,-0.431302,-0.223170,0.294304,47.603428,38.408768,-21.878518
17069,NaN,0.211682,12.252262,-2.956636,8.002918,8.016439,-4.282347,0.695965,3.437826,1.883908,-0.820362,-0.441363,-0.232195,0.279804,49.776632,38.899695,-19.057973
17070,NaN,-0.834276,12.486448,-2.114075,7.270759,7.658440,-2.773693,1.070763,3.738222,2.327255,-0.816667,-0.453606,-0.240828,0.263245,52.425330,39.210495,-15.839571
17071,NaN,-1.670558,12.793128,-1.606807,6.655931,7.434323,-1.479181,1.333916,3.918145,2.724563,-0.812204,-0.467490,-0.248864,0.244631,55.450897,39.270491,-12.283112
17072,NaN,-2.458385,13.187357,-1.100898,6.092432,7.105297,-0.141402,1.560850,4.045466,3.111476,-0.807002,-0.482513,-0.256018,0.224461,58.722294,39.037248,-8.530483
17073,NaN,-3.184336,13.506473,-0.418300,5.514327,6.442155,1.178236,1.586172,4.076578,3.452279,-0.801445,-0.497876,-0.262359,0.202416,62.082614,38.468861,-4.630375
17074,NaN,-3.610329,13.594132,0.083055,4.962891,5.723625,2.037172,1.437737,3.948149,3.750021,-0.796130,-0.512386,-0.267287,0.179434,65.240449,37.551064,-0.852658
17075,NaN,-3.661986,13.585431,0.486478,4.596731,4.994177,2.520389,1.390118,3.593892,4.052643,-0.790990,-0.526524,-0.269998,0.155591,68.187054,36.226346,2.712722
17076,NaN,-3.531601,13.796980,1.168514,4.554275,4.083232,3.100261,1.444205,3.111347,4.276848,-0.785983,-0.540262,-0.269825,0.132445,70.815508,34.559772,5.809079
17077,NaN,-3.394814,14.324652,1.589527,4.577018,3.506703,3.824077,1.524370,2.587826,4.423090,-0.780908,-0.553896,-0.267050,0.109843,73.180773,32.599657,8.483349
17078,NaN,-3.413253,14.764338,1.729695,4.307953,3.100773,4.484495,1.721102,2.053778,4.538004,-0.775587,-0.567642,-0.261473,0.088764,75.299470,30.421858,10.636031
17079,NaN,-3.552814,15.171200,1.830602,3.863509,2.640180,5.160350,1.867705,1.671978,4.580658,-0.769745,-0.581571,-0.254129,0.068460,77.270916,28.090028,12.450121
17080,NaN,-3.924646,15.300448,1.940404,3.079849,1.994721,5.671363,1.860976,1.552027,4.591628,-0.763640,-0.594934,-0.246043,0.048683,79.058154,25.702822,14.027603
17081,NaN,-4.776722,15.039019,2.379519,1.820417,0.788218,6.019749,1.693410,1.626172,4.580690,-0.757328,-0.607380,-0.238216,0.028233,80.685360,23.272930,15.572329
17082,NaN,-5.575937,14.464564,2.831019,0.525246,-0.505536,5.927443,1.428450,1.734589,4.573838,-0.751291,-0.618317,-0.230634,0.007403,82.067239,20.836416,17.053494
17083,NaN,-6.070331,13.573542,3.409808,-0.507302,-1.902191,5.313409,1.262070,1.736198,4.637923,-0.745182,-0.628400,-0.222754,-0.014077,83.286032,18.318063,18.481634
17084,NaN,-6.178563,12.326583,4.170911,-1.144947,-3.375325,4.143525,1.157100,1.481548,4.681817,-0.739297,-0.637655,-0.213597,-0.034819,84.302794,15.748660,19.664869
17085,NaN,-5.757190,10.735948,4.386734,-1.473540,-4.152087,2.361426,1.215454,1.005716,4.672734,-0.733165,-0.646898,-0.202636,-0.054141,85.233530,13.125388,20.531424
17086,NaN,-4.951226,9.433016,4.471737,-1.327736,-4.518096,0.736920,1.362551,0.685903,4.585598,-0.726575,-0.656199,-0.190654,-0.071712,86.144348,10.540767,21.131262
17087,NaN,-4.576684,8.633031,4.579639,-1.387966,-4.903820,-0.301819,1.320837,0.728526,4.444672,-0.719636,-0.664898,-0.179175,-0.089053,87.012264,8.016540,21.718910
17088,NaN,-4.731740,8.141220,4.329664,-1.958541,-5.056554,-0.981198,1.150604,0.844204,4.294833,-0.712926,-0.672376,-0.168430,-0.106200,87.749379,5.586272,22.316640
17089,NaN,-4.960543,7.922865,4.389464,-2.411725,-5.470665,-1.393214,1.105746,0.770052,4.167363,-0.706061,-0.679355,-0.157749,-0.122760,88.439844,3.208329,22.848510
17090,NaN,-5.145301,7.985897,4.454364,-2.792739,-5.835345,-1.552819,1.076453,0.448036,4.022815,-0.699396,-0.685941,-0.146325,-0.137550,89.074619,0.915414,23.153395
17091,NaN,-5.162030,8.272749,4.320430,-3.104581,-5.933747,-1.512735,1.092383,0.041626,3.843075,-0.692758,-0.692482,-0.134015,-0.150316,89.712445,-1.289433,23.201780
17092,NaN,-5.174361,8.955332,4.065662,-3.489527,-5.921619,-1.080898,1.159311,-0.181282,3.702234,-0.685921,-0.699022,-0.121449,-0.161652,90.388121,-3.404640,23.094176
17093,NaN,-5.437470,9.913467,3.899804,-4.116601,-6.121048,-0.398792,1.102252,-0.189656,3.564135,-0.679114,-0.705064,-0.109215,-0.172514,91.040958,-5.447176,22.959660
17094,NaN,-5.716063,10.636688,3.774046,-4.755467,-6.369270,0.028938,0.915897,-0.110240,3.407123,-0.672870,-0.710058,-0.097640,-0.183115,91.585062,-7.391396,22.849435
17095,NaN,-5.909970,10.925924,3.712796,-5.258482,-6.609453,0.022823,0.682133,0.030998,3.222778,-0.667335,-0.713857,-0.086916,-0.193693,91.991056,-9.237925,22.807381
17096,NaN,-6.004223,10.760337,3.836899,-5.518390,-6.917996,-0.419380,0.435884,0.319786,3.026489,-0.662599,-0.716272,-0.077631,-0.204669,92.226797,-10.971568,22.926940
17097,NaN,-6.259955,10.384270,4.090029,-5.794063,-7.357409,-1.092785,0.218296,0.657985,2.821565,-0.658557,-0.717391,-0.069930,-0.216245,92.295058,-12.600915,23.244735
17098,NaN,-6.996345,10.173847,4.531237,-6.394331,-8.155277,-1.714267,0.110718,0.931921,2.629964,-0.654896,-0.717638,-0.063718,-0.228138,92.253297,-14.121804,23.730032
17099,NaN,-8.025328,10.348886,5.047706,-7.245670,-9.185113,-2.059545,0.098448,1.009100,2.435993,-0.651344,-0.717567,-0.058407,-0.239659,92.178803,-15.536726,24.270337
17100,NaN,-8.817697,10.496932,5.443553,-7.895054,-10.010783,-2.395500,0.159000,0.851643,2.256280,-0.647744,-0.717712,-0.053313,-0.249950,92.149929,-16.841016,24.725591
17101,NaN,-9.126580,10.195782,5.404268,-8.182935,-10.170190,-3.026340,0.287846,0.470044,2.075802,-0.643925,-0.718606,-0.047770,-0.258235,92.251293,-18.036129,24.958245
17102,NaN,-8.801980,9.593125,4.865234,-8.054330,-9.548438,-3.719820,0.455152,0.040501,1.824881,-0.639866,-0.720464,-0.041972,-0.264088,92.526407,-19.075784,24.935096
17103,NaN,-8.220747,9.345711,4.138457,-7.876518,-8.693872,-3.945586,0.625878,-0.223491,1.531254,-0.635589,-0.723090,-0.036607,-0.268006,92.951217,-19.940955,24.754326
17104,NaN,-7.711079,9.526588,3.679359,-7.753168,-8.180127,-3.752511,0.634456,-0.260302,1.175778,-0.631723,-0.725695,-0.032421,-0.270633,93.390998,-20.599342,24.554292
17105,NaN,-7.356019,9.584626,3.461942,-7.602613,-7.913020,-3.685335,0.472419,-0.135903,0.774024,-0.628957,-0.727518,-0.029874,-0.272467,93.707135,-21.030882,24.441861
17106,NaN,-7.127047,9.445665,3.517793,-7.359587,-7.884578,-3.807697,0.244622,0.035302,0.368106,-0.627529,-0.728333,-0.029023,-0.273670,93.852365,-21.236647,24.447088
17107,NaN,-7.015703,9.618945,3.674039,-7.243311,-8.043563,-3.641933,0.180223,0.128613,0.016065,-0.626819,-0.728750,-0.029672,-0.274119,93.932067,-21.243374,24.525588
17108,NaN,-7.215013,11.078887,4.081442,-7.642214,-8.823429,-2.383034,0.396588,0.044793,-0.218284,-0.625635,-0.729938,-0.031196,-0.273493,94.153450,-21.114403,24.561023
17109,NaN,-7.898661,13.890627,4.687795,-8.730141,-10.283981,-0.048602,0.745726,-0.203827,-0.362487,-0.623426,-0.732508,-0.032967,-0.271450,94.623578,-20.889869,24.454215
17110,NaN,-8.648048,16.142511,4.840264,-9.873517,-11.265773,1.780101,0.846216,-0.608069,-0.525656,-0.621099,-0.735912,-0.034189,-0.267394,95.237390,-20.553816,24.109404
17111,NaN,-8.669226,16.239254,4.438474,-10.020629,-10.943707,1.951246,0.411179,-0.975565,-0.857539,-0.620882,-0.738347,-0.034941,-0.261014,95.664843,-20.001826,23.567658
17112,NaN,-7.926046,15.384842,3.895522,-9.323510,-9.897721,1.580037,-0.238359,-0.960507,-1.198300,-0.623443,-0.738669,-0.036115,-0.253736,95.706721,-19.258039,23.057189
17113,NaN,-7.480323,14.556450,3.648138,-8.768488,-9.177528,1.143395,-0.539831,-0.900768,-1.354227,-0.627303,-0.737867,-0.037700,-0.246214,95.548898,-18.424061,22.596029
17114,NaN,-7.231489,14.519345,3.393623,-8.590538,-8.678547,1.390105,-0.387894,-1.334502,-1.458622,-0.630718,-0.738021,-0.038460,-0.236730,95.554587,-17.512209,21.879708
17115,NaN,-6.773042,15.304277,2.572641,-8.627920,-7.748488,2.525376,-0.008889,-2.075983,-1.578639,-0.632994,-0.740081,-0.037788,-0.223987,95.883588,-16.480996,20.734892
17116,NaN,-6.333493,16.370540,1.427094,-8.788385,-6.576722,3.958576,0.262722,-2.745547,-1.769099,-0.634404,-0.743593,-0.035976,-0.208103,96.455643,-15.298043,19.220879
17117,NaN,-5.765473,17.624082,0.182494,-8.770577,-5.282900,5.648143,0.292994,-3.233403,-2.025434,-0.635931,-0.747374,-0.033600,-0.189462,97.065361,-13.913884,17.457382
17118,NaN,-5.272826,18.773452,-0.999709,-8.612106,-4.025786,7.241621,0.215660,-3.445294,-2.222855,-0.637640,-0.750831,-0.031189,-0.169398,97.615689,-12.392281,15.612908
17119,NaN,-4.830388,19.557164,-2.025428,-8.225098,-2.824316,8.470114,-0.003562,-3.471191,-2.404721,-0.640148,-0.753191,-0.029166,-0.148534,97.974198,-10.743155,13.784997
17120,NaN,-4.383920,20.233008,-3.032952,-7.664454,-1.577172,9.591500,-0.343753,-3.395047,-2.623592,-0.643700,-0.754094,-0.027956,-0.127321,98.082673,-8.976759,12.042157
17121,NaN,-4.023214,20.684831,-3.883157,-6.976210,-0.367108,10.442473,-0.990667,-3.083092,-2.937620,-0.649647,-0.752243,-0.028479,-0.106202,97.722637,-7.052418,10.498617
17122,NaN,-3.408262,20.646711,-4.626401,-5.864895,0.960086,10.776720,-1.614346,-2.499000,-3.167981,-0.657562,-0.747737,-0.031448,-0.086672,96.930789,-5.063378,9.302326
17123,NaN,-3.217443,19.791114,-4.237588,-4.903334,1.272315,10.043739,-2.004940,-1.814679,-3.149006,-0.666635,-0.741231,-0.036362,-0.069659,95.833861,-3.140599,8.453055
17124,NaN,-3.160336,18.142726,-3.480641,-4.072852,1.279282,8.435074,-2.487393,-1.460580,-3.291740,-0.677064,-0.732713,-0.042849,-0.053662,94.440620,-1.181192,7.786758
17125,NaN,-2.859075,16.695338,-2.948157,-3.123645,1.484418,7.027378,-2.686886,-1.416873,-3.452181,-0.688019,-0.723017,-0.049940,-0.037162,92.894788,0.858453,7.086372
17126,NaN,-2.456503,15.548796,-2.662533,-2.165488,1.843111,5.895770,-2.637473,-1.564045,-3.572754,-0.698376,-0.713183,-0.057000,-0.019817,91.363140,2.943318,6.264944
17127,NaN,-2.054229,14.658351,-2.737565,-1.273647,2.467467,4.980156,-2.495808,-1.797799,-3.694211,-0.708001,-0.703341,-0.063602,-0.001026,89.854314,5.084020,5.237253
17128,NaN,-1.585902,13.838969,-2.991606,-0.358380,3.190428,4.066622,-2.462519,-1.833141,-3.788670,-0.717010,-0.693260,-0.070429,0.018099,88.332798,7.243776,4.144614
17129,NaN,-1.153394,13.177137,-3.354735,0.498225,3.959300,3.235698,-2.527084,-1.575546,-3.873858,-0.725799,-0.682439,-0.078380,0.036742,86.730148,9.434787,3.117309
17130,NaN,-0.697687,12.506806,-3.476411,1.340523,4.422756,2.336482,-2.539076,-1.141626,-3.898835,-0.733942,-0.671331,-0.088005,0.053832,85.130967,11.622354,2.290260
17131,NaN,-0.492251,11.782696,-3.147783,1.885260,4.362712,1.428670,-2.509503,-0.756758,-3.894680,-0.741465,-0.659986,-0.098936,0.069711,83.539736,13.811626,1.606008
17132,NaN,-0.373665,11.087495,-2.739338,2.285244,4.173375,0.575414,-2.570132,-0.481469,-3.953503,-0.748556,-0.648188,-0.111082,0.084719,81.923953,16.029313,1.023671
17133,NaN,-0.356054,10.437630,-2.452910,2.535808,4.068043,-0.216466,-2.511002,-0.278395,-3.990168,-0.754946,-0.636258,-0.124009,0.099272,80.324226,18.274211,0.477520
17134,NaN,-0.501768,10.030656,-2.236485,2.652069,4.024153,-0.723010,-2.313444,-0.220328,-3.974525,-0.760227,-0.624821,-0.136951,0.113570,78.815736,20.496426,-0.094090
17135,NaN,-0.548803,9.722074,-1.955217,2.872434,3.901910,-1.143764,-2.181186,-0.323197,-3.984565,-0.764788,-0.613446,-0.149386,0.128321,77.305028,22.701673,-0.807247
17136,NaN,-0.638327,9.419724,-1.861810,3.019829,3.941212,-1.570313,-2.137847,-0.452125,-3.980173,-0.768890,-0.601888,-0.161209,0.143355,75.740261,24.864305,-1.666703
17137,NaN,-0.636357,9.094360,-1.793774,3.212624,3.976693,-2.055057,-2.046536,-0.538830,-3.905335,-0.772467,-0.590342,-0.172352,0.158387,74.141154,26.954129,-2.649548
17138,NaN,-0.612242,8.869474,-1.865531,3.426105,4.144043,-2.491565,-1.889543,-0.654704,-3.776087,-0.775400,-0.579172,-0.182434,0.173298,72.543971,28.924538,-3.762137
17139,NaN,-0.486918,8.891210,-1.817979,3.831732,4.231538,-2.741907,-1.730638,-0.828758,-3.655175,-0.777802,-0.568298,-0.191304,0.188322,70.918651,30.773026,-5.042524
17140,NaN,-0.269751,9.323125,-2.044696,4.493047,4.666728,-2.798666,-1.521947,-1.024376,-3.509511,-0.779607,-0.557981,-0.198693,0.203448,69.290002,32.469112,-6.498532
17141,NaN,-0.270335,9.941326,-2.404478,5.070424,5.281517,-2.666451,-1.295198,-1.226721,-3.316177,-0.780891,-0.548308,-0.204485,0.218528,67.665852,33.986823,-8.115474
17142,NaN,-0.342000,10.600466,-2.796600,5.632154,5.933905,-2.507737,-1.187359,-1.432683,-3.149992,-0.781996,-0.538827,-0.208792,0.233565,65.976787,35.327708,-9.901270
17143,NaN,-0.201966,11.069775,-3.261098,6.264850,6.557301,-2.674373,-1.150273,-1.578395,-2.949229,-0.783137,-0.529342,-0.211903,0.248173,64.210754,36.486640,-11.796694
17144,NaN,-0.143037,11.139246,-3.326364,6.608604,6.677495,-2.964773,-1.071780,-1.663016,-2.633607,-0.784320,-0.520252,-0.213663,0.261778,62.450392,37.411951,-13.714950
17145,NaN,0.214766,10.990717,-3.638448,7.000665,6.897622,-3.690415,-1.384971,-1.617797,-2.528762,-0.786192,-0.509955,-0.215696,0.274451,60.489473,38.248446,-15.627219
17146,NaN,0.724964,11.059792,-3.872514,7.615949,7.071828,-4.352198,-1.409894,-1.459062,-2.354526,-0.787993,-0.499842,-0.217870,0.285934,58.562727,38.991421,-17.430886
17147,NaN,0.938633,11.492778,-3.493573,8.257963,6.851329,-4.332989,-1.177224,-1.327853,-2.066145,-0.789310,-0.491039,-0.219476,0.296143,56.847693,39.591161,-19.083938
17148,NaN,1.402995,11.982931,-3.407753,9.092032,6.834818,-4.541581,-1.044969,-1.453886,-1.872229,-0.790591,-0.482698,-0.219859,0.305991,55.176559,40.018866,-20.769856
17149,NaN,2.110934,12.370800,-3.953309,9.986993,7.251085,-5.252458,-0.951671,-1.645817,-1.718438,-0.791957,-0.474527,-0.218943,0.315741,53.504903,40.273904,-22.527968
17150,NaN,2.971927,12.518722,-4.938798,10.783312,7.891507,-6.439460,-1.080793,-1.485832,-1.653356,-0.793435,-0.466088,-0.218665,0.324667,51.823454,40.514417,-24.177686
17151,NaN,3.406272,12.542198,-5.345803,11.182940,8.091916,-7.177718,-1.128209,-0.937552,-1.492538,-0.794575,-0.458478,-0.220239,0.331577,50.360965,40.846508,-25.442136
17152,NaN,3.014826,12.682536,-4.957096,11.098808,7.927400,-6.901149,-1.055211,-0.343654,-1.228832,-0.795266,-0.452379,-0.223424,0.336135,49.232003,41.260508,-26.251119
17153,NaN,2.372738,12.980411,-4.608186,10.941084,7.972320,-6.335848,-0.906803,-0.011768,-0.928603,-0.795704,-0.447761,-0.226989,0.338884,48.404900,41.660029,-26.729300
17154,NaN,2.182786,13.572405,-4.954564,11.250319,8.595021,-6.196465,-0.681901,0.251014,-0.568592,-0.795932,-0.444854,-0.230404,0.339868,47.917827,42.001882,-26.884228
17155,NaN,2.475249,13.676141,-6.228631,11.419584,9.693588,-7.058407,-0.583157,0.628639,-0.201954,-0.796104,-0.443428,-0.234332,0.338642,47.763244,42.332559,-26.631584
17156,NaN,3.057239,13.216790,-7.311185,11.302830,10.363233,-8.286113,-0.750684,1.294927,0.039033,-0.796254,-0.442697,-0.240655,0.334789,47.854058,42.817463,-25.871905
17157,NaN,3.175980,12.368351,-7.043734,10.622407,9.929406,-8.698003,-0.842323,2.194393,0.352750,-0.795961,-0.443486,-0.249995,0.327520,48.386747,43.509387,-24.403384
17158,NaN,2.533816,11.153180,-5.831012,9.232557,8.786681,-8.276143,-0.767046,2.953534,0.716306,-0.795006,-0.446141,-0.261377,0.317185,49.436901,44.315629,-22.265731
17159,NaN,1.701267,10.397928,-4.964395,8.032999,8.134252,-7.586993,-0.516067,3.439922,1.049148,-0.793142,-0.450932,-0.273491,0.304614,51.037361,45.117393,-19.586133
17160,NaN,0.737889,10.455175,-3.977248,7.389645,7.646433,-6.264242,-0.073067,3.810073,1.379547,-0.789996,-0.458268,-0.285537,0.290456,53.243490,45.836907,-16.443339
17161,NaN,-0.377427,11.132926,-2.851233,7.144781,7.196917,-4.393963,0.295971,4.100561,1.687783,-0.785663,-0.467796,-0.297404,0.274685,56.011222,46.411572,-12.852797
17162,NaN,-1.622580,11.887781,-1.790418,6.870259,6.711940,-2.403384,0.399261,4.310968,1.979614,-0.780778,-0.478123,-0.309070,0.257409,59.090314,46.783921,-8.940053
17163,NaN,-3.066375,12.606838,-0.492131,6.488740,5.861082,-0.215319,0.362186,4.397199,2.371742,-0.775857,-0.488833,-0.320086,0.237976,62.380056,46.831399,-4.723143
17164,NaN,-4.591618,12.878368,0.472488,5.646207,4.973498,1.612187,0.208597,4.176542,2.850456,-0.771771,-0.499044,-0.328969,0.217038,65.537574,46.418865,-0.554114
17165,NaN,-5.573208,12.812143,0.921440,4.752392,4.267258,2.647022,0.329494,3.470421,3.433315,-0.768652,-0.509705,-0.333435,0.195438,68.444877,45.383361,3.220583
17166,NaN,-5.977528,12.760395,1.471814,4.227857,3.398328,3.274382,0.786304,2.427599,4.073437,-0.766325,-0.521769,-0.331522,0.174921,70.978898,43.680989,6.180754
17167,NaN,-5.872067,12.673064,1.724292,3.863943,2.759946,3.433979,1.352426,1.343232,4.657953,-0.764307,-0.535807,-0.323317,0.155604,73.210954,41.374246,8.322090
17168,NaN,-5.623462,12.975393,1.824220,3.711025,2.387036,3.744315,1.875089,0.470103,5.085690,-0.762163,-0.551387,-0.309919,0.137953,75.173752,38.649015,9.692330
17169,NaN,-5.416381,13.789792,2.006333,3.748807,2.055952,4.511304,2.247314,-0.127384,5.402464,-0.759465,-0.568119,-0.292926,0.121032,76.998771,35.623372,10.561805
17170,NaN,-5.433439,14.483845,2.239192,3.453694,1.539874,5.351176,2.407954,-0.537062,5.616797,-0.756418,-0.584923,-0.273350,0.104767,78.639120,32.418170,11.014481
17171,NaN,-5.420739,14.602535,2.359174,2.774287,0.913682,5.665377,2.550020,-0.954182,5.756480,-0.752785,-0.601764,-0.251501,0.089119,80.167348,29.072100,11.116498
17172,NaN,-5.241851,14.234010,2.181368,1.904493,0.468898,5.383137,2.809257,-1.462203,5.854107,-0.748327,-0.618743,-0.227011,0.075034,81.629475,25.633307,10.779512
17173,NaN,-4.818821,13.646174,1.701854,1.116517,0.325279,4.709884,3.170660,-1.987275,5.913070,-0.742416,-0.636318,-0.200021,0.062529,83.169237,22.121656,10.052939
17174,NaN,-4.168764,13.176848,1.088430,0.632513,0.410205,4.027577,3.501038,-2.377012,5.895668,-0.734972,-0.654079,-0.171237,0.051730,84.810170,18.625416,8.983066
17175,NaN,-3.390075,13.000694,0.706867,0.494038,0.345926,3.625291,3.711636,-2.495160,5.820234,-0.725869,-0.671727,-0.142006,0.041606,86.599946,15.191770,7.764307
17176,NaN,-2.580851,12.852099,0.642854,0.506447,-0.020530,3.299528,3.696949,-2.292880,5.702513,-0.715762,-0.688317,-0.113698,0.031267,88.443278,11.876611,6.557772
17177,NaN,-1.805266,12.429249,0.648754,0.493574,-0.459536,2.743429,3.500881,-1.902102,5.517319,-0.705124,-0.703400,-0.087342,0.020004,90.278305,8.703108,5.495348
17178,NaN,-1.089981,11.705649,0.643609,0.461116,-0.843610,1.919998,3.313749,-1.509254,5.236604,-0.694253,-0.716897,-0.063256,0.008341,92.066912,5.727098,4.560458
17179,NaN,-0.303923,11.137303,0.887088,0.641951,-1.409421,1.254637,3.029837,-0.875603,4.856678,-0.683451,-0.728731,-0.042715,-0.004465,93.774915,2.973863,3.925028
17180,NaN,-0.322070,10.722865,0.736046,0.094086,-1.585215,0.821037,2.792255,-0.065624,4.556389,-0.672904,-0.739026,-0.025965,-0.019147,95.374758,0.380679,3.677926
17181,NaN,-0.926667,10.865891,1.180470,-0.931241,-2.404374,0.847822,2.691851,0.591895,4.257482,-0.662147,-0.748437,-0.012509,-0.035312,96.933038,-2.079888,3.757328
17182,NaN,-1.378969,11.322379,1.881943,-1.764259,-3.494202,1.063629,2.443228,0.772620,3.935015,-0.652036,-0.756469,-0.000800,-0.051021,98.332258,-4.367152,3.895837
17183,NaN,-1.512647,11.311924,2.202156,-2.259451,-4.100199,0.825005,2.166374,0.520766,3.691443,-0.642637,-0.763330,0.010874,-0.065013,99.593379,-6.501479,3.864142
17184,NaN,-1.154707,10.792463,2.228051,-2.203896,-4.255506,0.176920,2.034080,0.232558,3.466459,-0.633587,-0.769488,0.022660,-0.077091,100.794957,-8.473673,3.641161
17185,NaN,-0.859077,10.511100,1.992334,-2.209390,-4.172692,-0.175008,1.992909,0.218514,3.153356,-0.624526,-0.775302,0.033303,-0.088126,101.989339,-10.267525,3.404514
17186,NaN,-0.887479,10.860852,1.864597,-2.580882,-4.338716,0.022229,1.924527,0.514613,2.824508,-0.615771,-0.780539,0.041756,-0.099205,103.111650,-11.905063,3.338969
17187,NaN,-1.438132,11.564266,2.204775,-3.455676,-5.075008,0.333941,1.674381,1.083885,2.516568,-0.608052,-0.784598,0.047382,-0.111506,104.023770,-13.449950,3.610761
17188,NaN,-2.420474,12.159402,2.852500,-4.654629,-6.101962,0.333199,1.233907,1.760002,2.259678,-0.602252,-0.786779,0.050164,-0.125518,104.571472,-14.947418,4.288599
17189,NaN,-3.579794,12.437091,3.755586,-5.852285,-7.292276,-0.108639,0.700966,2.307913,2.026763,-0.598664,-0.786889,0.050729,-0.140833,104.706425,-16.402234,5.310586
17190,NaN,-4.620331,12.300251,4.709989,-6.738074,-8.400905,-0.933110,0.305565,2.563499,1.880135,-0.596671,-0.785463,0.050191,-0.156566,104.534822,-17.809213,6.512795
17191,NaN,-5.477612,12.061504,5.570425,-7.359383,-9.379208,-1.788988,0.245564,2.435134,1.837666,-0.594759,-0.783782,0.049930,-0.171623,104.319871,-19.173029,7.658754
17192,NaN,-6.067008,11.769238,6.088740,-7.732179,-10.000221,-2.560101,0.502835,2.011266,1.875042,-0.591584,-0.783049,0.050819,-0.185149,104.308106,-20.492759,8.563081
17193,NaN,-6.356437,11.618157,6.045199,-7.977484,-10.101070,-3.011816,0.827298,1.483299,1.828644,-0.586935,-0.783642,0.052792,-0.196532,104.573418,-21.715188,9.164265
17194,NaN,-6.193216,11.528898,5.351395,-7.993241,-9.540622,-3.105430,0.970590,1.044812,1.677828,-0.581686,-0.785015,0.055300,-0.205755,105.000148,-22.791285,9.524302
17195,NaN,-5.798025,11.208317,4.359254,-7.817487,-8.577547,-3.213073,0.845914,0.856498,1.439077,-0.577055,-0.786203,0.057547,-0.213497,105.381334,-23.710714,9.804482
17196,NaN,-5.382820,10.759946,3.587924,-7.527808,-7.750437,-3.418555,0.570981,0.900553,1.162627,-0.573773,-0.786571,0.058863,-0.220511,105.572605,-24.484208,10.154322
17197,NaN,-5.086873,10.190731,3.078936,-7.223527,-7.119341,-3.784280,0.278610,1.062993,0.873349,-0.571979,-0.785960,0.058895,-0.227241,105.529352,-25.123995,10.653324
17198,NaN,-5.027014,9.695155,2.923600,-7.037114,-6.861011,-4.225258,0.081037,1.228169,0.592082,-0.571300,-0.784645,0.057571,-0.233741,105.303798,-25.631921,11.304155
17199,NaN,-5.111010,9.502799,2.900341,-7.026768,-6.846415,-4.465884,0.048923,1.255735,0.353820,-0.571013,-0.783234,0.055262,-0.239654,105.027273,-26.009636,12.017631
17200,NaN,-5.132563,10.072087,2.702652,-7.275433,-6.924261,-3.963191,0.262610,1.011991,0.140832,-0.570052,-0.782763,0.052563,-0.244051,104.920362,-26.231228,12.618031
17201,NaN,-5.232463,12.296336,2.586183,-8.149381,-7.688781,-2.083795,0.744365,0.639866,0.005266,-0.567264,-0.784128,0.049792,-0.246729,105.178029,-26.322611,13.013718
17202,NaN,-5.874160,15.826459,2.757089,-9.831768,-9.351009,0.602479,1.136220,0.293508,-0.189709,-0.563071,-0.787062,0.046766,-0.247582,105.741687,-26.256499,13.226641
17203,NaN,-6.657074,18.666032,2.703826,-11.405742,-10.649894,2.698633,1.026438,-0.060426,-0.527186,-0.559635,-0.790170,0.043524,-0.246061,106.310232,-25.949186,13.284910
17204,NaN,-6.923720,19.498576,2.165533,-11.961349,-10.618055,3.491529,0.337369,-0.247509,-0.885569,-0.559295,-0.791641,0.040255,-0.242636,106.507006,-25.416219,13.292945
17205,NaN,-6.844531,18.655226,1.621113,-11.658059,-9.765695,3.079533,-0.490891,0.041487,-1.078343,-0.562528,-0.790449,0.036393,-0.239642,106.137613,-24.821546,13.512775
17206,NaN,-7.006987,17.180354,1.549593,-11.230151,-9.076682,1.941231,-1.036483,0.287045,-1.203202,-0.568064,-0.787423,0.032025,-0.237156,105.393199,-24.196602,13.892441
17207,NaN,-7.244936,15.980539,1.443710,-10.994016,-8.442899,1.040516,-1.160308,-0.077987,-1.359977,-0.574199,-0.784430,0.028190,-0.232745,104.661467,-23.423118,14.068951
17208,NaN,-7.245534,15.619857,0.786530,-11.005137,-7.524245,1.112492,-0.904638,-1.071279,-1.515261,-0.579293,-0.783291,0.026329,-0.224013,104.309685,-22.422829,13.659216
17209,NaN,-6.853524,15.996904,-0.566914,-11.078410,-6.088581,2.161403,-0.587456,-2.180049,-1.650655,-0.583094,-0.784192,0.026755,-0.210544,104.366142,-21.187106,12.610931
17210,NaN,-6.153170,16.583364,-2.096923,-10.877340,-4.449250,3.571473,-0.451257,-3.164299,-1.837472,-0.586237,-0.786360,0.029202,-0.192644,104.670645,-19.707153,11.019235
17211,NaN,-5.303345,16.913882,-3.435457,-10.244029,-2.837320,4.781438,-0.543426,-3.980975,-2.079491,-0.589641,-0.788722,0.033130,-0.170715,105.009543,-17.960569,9.015190
17212,NaN,-4.240848,17.124646,-4.609861,-9.139380,-1.262427,5.913816,-1.065711,-4.404750,-2.465765,-0.594982,-0.789525,0.037248,-0.145803,105.037155,-15.935476,6.849784
17213,NaN,-2.740746,17.120498,-6.931015,-7.516925,1.612684,7.201382,-2.243752,-4.100162,-3.202344,-0.605170,-0.786133,0.038352,-0.119556,104.229094,-13.555836,4.980852
17214,NaN,-1.048123,17.165752,-8.082761,-5.298321,3.386498,8.117209,-2.262151,-2.912668,-3.337900,-0.615268,-0.781467,0.035347,-0.097498,103.197167,-11.296053,3.784694
17215,NaN,-0.653364,17.425592,-7.013268,-4.125747,2.822416,8.304083,-2.535336,-1.370618,-3.420388,-0.626457,-0.774745,0.027381,-0.081065,101.805696,-9.202018,3.434769
17216,NaN,-1.243395,17.081733,-5.127358,-3.828776,1.563275,7.578547,-2.984018,-0.922615,-3.753151,-0.639180,-0.766097,0.016900,-0.065261,100.118466,-6.984272,3.322971
17217,NaN,-1.430123,16.338217,-4.395069,-3.197352,1.558850,6.787738,-3.334458,-1.115448,-4.208675,-0.652993,-0.755876,0.005379,-0.047151,98.232699,-4.491140,3.073227
17218,NaN,-1.191821,15.703298,-4.064673,-2.178496,1.923282,6.187930,-3.231713,-1.229614,-4.502053,-0.665927,-0.745473,-0.006892,-0.027656,96.408203,-1.836923,2.701580
17219,NaN,-1.118351,15.192933,-3.680577,-1.341215,2.137874,5.653019,-2.996787,-1.086080,-4.661608,-0.677517,-0.735183,-0.020265,-0.008085,94.693217,0.892236,2.335921
17220,NaN,-1.444599,14.772629,-3.194198,-0.930612,2.160925,5.184737,-2.930634,-0.848177,-4.813205,-0.688250,-0.724545,-0.034984,0.011089,93.008684,3.682338,2.034668
17221,NaN,-1.921296,14.403126,-2.901454,-0.703437,2.333797,4.800978,-2.913237,-0.561926,-4.917805,-0.698334,-0.713335,-0.051054,0.029617,91.321088,6.520477,1.815231
17222,NaN,-2.328241,13.837059,-2.585569,-0.467633,2.449762,4.233560,-2.804617,-0.349360,-4.927274,-0.707369,-0.701985,-0.067824,0.047387,89.696135,9.351102,1.636700
17223,NaN,-2.545478,13.048595,-2.207179,-0.138568,2.451131,3.436615,-2.639506,-0.377026,-4.894542,-0.715300,-0.690643,-0.084323,0.065175,88.135642,12.160871,1.361908
17224,NaN,-2.558763,12.111042,-2.057238,0.271341,2.615152,2.455385,-2.480184,-0.546170,-4.853781,-0.722199,-0.679328,-0.099925,0.083401,86.614763,14.930402,0.907288
17225,NaN,-2.334264,11.043002,-2.171606,0.772407,2.964574,1.264171,-2.227270,-0.672395,-4.769093,-0.727821,-0.668405,-0.114651,0.101818,85.173716,17.637980,0.303950
17226,NaN,-2.093529,10.261355,-2.226980,1.269852,3.198153,0.324988,-1.952319,-0.737934,-4.663216,-0.732112,-0.658071,-0.128522,0.120155,83.828604,20.262703,-0.414146
17227,NaN,-1.665387,9.688513,-2.353505,1.928867,3.458112,-0.513208,-1.720673,-0.782874,-4.555412,-0.735276,-0.648197,-0.141698,0.138315,82.549757,22.810530,-1.224730
17228,NaN,-1.066132,9.454449,-2.334495,2.809969,3.557718,-1.129264,-1.541729,-0.817314,-4.430222,-0.737535,-0.638677,-0.154090,0.156174,81.306241,25.263588,-2.125451
17229,NaN,-0.895032,9.334383,-2.449223,3.298215,3.779773,-1.521164,-1.392716,-0.812839,-4.277841,-0.739038,-0.629458,-0.165840,0.173499,80.085736,27.616051,-3.083686
17230,NaN,-1.220501,9.296343,-2.475830,3.359522,3.927614,-1.608189,-1.253169,-0.871048,-4.120891,-0.739906,-0.620537,-0.176647,0.190443,78.867502,29.851827,-4.138228
17231,NaN,-1.258960,9.416698,-2.507628,3.742136,4.081358,-1.696553,-1.174551,-1.128605,-3.950677,-0.740572,-0.611507,-0.185852,0.207534,77.543397,31.944057,-5.415681
17232,NaN,-0.920365,9.474672,-2.543188,4.397210,4.190550,-2.055486,-1.168569,-1.527250,-3.702776,-0.741516,-0.602054,-0.192697,0.224841,76.014290,33.814699,-7.011414
17233,NaN,-0.518103,9.163650,-2.704672,4.857286,4.336400,-2.802252,-1.272128,-1.835564,-3.426586,-0.743063,-0.591865,-0.197628,0.241861,74.238529,35.450363,-8.862079
17234,NaN,-0.146068,8.700757,-2.941650,5.145286,4.505862,-3.681568,-1.318767,-1.911810,-3.164675,-0.744838,-0.581444,-0.201451,0.257985,72.339239,36.877333,-10.811594
17235,NaN,0.183573,8.438420,-3.145450,5.469690,4.655685,-4.378298,-1.289943,-1.953586,-2.919846,-0.746615,-0.571096,-0.204313,0.273261,70.378561,38.112124,-12.827049
17236,NaN,0.179239,8.549096,-3.237380,5.742200,4.798849,-4.560058,-1.084309,-2.094367,-2.615282,-0.748116,-0.561457,-0.205413,0.287913,68.443405,39.097904,-14.943654
17237,NaN,0.239813,9.131052,-3.445694,6.371309,5.116228,-4.471385,-0.875212,-2.376195,-2.274393,-0.749585,-0.552366,-0.204154,0.302218,66.498879,39.786647,-17.224067
17238,NaN,0.844887,9.915041,-3.806641,7.548102,5.469554,-4.653748,-0.796566,-2.706553,-1.970763,-0.751412,-0.543228,-0.200625,0.316280,64.469769,40.175251,-19.682266
17239,NaN,1.788140,10.492367,-4.477452,8.834260,5.935528,-5.334741,-0.859384,-2.771642,-1.695493,-0.753691,-0.533864,-0.196155,0.329337,62.409055,40.340027,-22.118786
17240,NaN,2.843415,10.568027,-5.454321,9.841599,6.492679,-6.572634,-1.005250,-2.488308,-1.465833,-0.756266,-0.524509,-0.192319,0.340537,60.430174,40.399848,-24.295241
17241,NaN,3.560009,10.353046,-5.657950,10.316467,6.332455,-7.502580,-0.944814,-2.046424,-1.184717,-0.758583,-0.516301,-0.189282,0.349511,58.738803,40.396814,-26.080543
17242,NaN,3.876109,10.161543,-5.607875,10.473508,6.068339,-8.021999,-0.888057,-1.623043,-0.991272,-0.760591,-0.509161,-0.187219,0.356660,57.305814,40.390166,-27.517325
17243,NaN,4.096645,10.089859,-5.771659,10.643366,6.064442,-8.456820,-0.772246,-1.291568,-0.849637,-0.762169,-0.503143,-0.185835,0.362506,56.113352,40.395490,-28.686752
17244,NaN,4.262527,10.443204,-6.047353,11.083698,6.284825,-8.608130,-0.596960,-0.907888,-0.707983,-0.763169,-0.498585,-0.185226,0.366984,55.213510,40.440905,-29.557803
17245,NaN,4.288945,11.127586,-5.914087,11.630294,6.284852,-8.253592,-0.415392,-0.399502,-0.501592,-0.763594,-0.495841,-0.185702,0.369568,54.679020,40.548785,-30.027622
17246,NaN,4.044275,11.709805,-5.408853,11.873614,6.064303,-7.582738,-0.315452,0.089137,-0.236349,-0.763809,-0.494612,-0.187202,0.370014,54.469409,40.692512,-30.082652
17247,NaN,3.667343,12.227415,-5.125931,11.981005,6.109349,-6.920389,-0.214548,0.470718,0.036776,-0.763909,-0.494744,-0.189288,0.368568,54.551684,40.835577,-29.782743
17248,NaN,3.399355,12.883648,-5.361201,12.280708,6.630466,-6.420514,-0.004060,0.842445,0.348079,-0.763709,-0.496636,-0.191641,0.365206,54.993214,40.954886,-29.115398
17249,NaN,3.344274,13.630056,-5.979825,12.781187,7.457630,-6.105451,0.153786,1.300128,0.624951,-0.763145,-0.500236,-0.194746,0.359788,55.797912,41.086462,-28.039062
17250,NaN,3.123249,14.017919,-6.190524,12.831242,7.922541,-5.669363,0.141275,1.829333,0.861879,-0.762476,-0.504910,-0.199298,0.352102,56.884093,41.260292,-26.522759
17251,NaN,2.444008,13.924641,-5.601902,12.126597,7.724857,-4.861423,0.053870,2.354558,1.141024,-0.761878,-0.510414,-0.205256,0.341890,58.232930,41.435118,-24.544435
17252,NaN,1.510791,13.502711,-4.869919,10.965766,7.377293,-4.012704,0.116942,2.765650,1.492885,-0.761154,-0.517086,-0.211750,0.329284,59.893310,41.520242,-22.149422
17253,NaN,0.660882,13.526880,-4.327951,10.155684,7.223261,-2.970286,0.398654,3.103525,1.855526,-0.759707,-0.525656,-0.218042,0.314624,61.961633,41.457510,-19.389995
17254,NaN,-0.209851,14.310977,-3.672907,9.824008,7.058200,-1.327891,0.773858,3.414696,2.190506,-0.757191,-0.536273,-0.223988,0.298167,64.442880,41.223695,-16.315873
17255,NaN,-1.198305,15.324075,-3.162852,9.499358,6.987911,0.539867,0.941646,3.597743,2.441486,-0.754029,-0.547870,-0.229571,0.280315,67.125733,40.795273,-13.068631
17256,NaN,-2.023135,16.271826,-2.897818,9.160122,6.991642,2.205750,0.923310,3.692632,2.692470,-0.750787,-0.559497,-0.234759,0.261096,69.821001,40.141158,-9.742395
17257,NaN,-3.035405,17.208392,-2.257362,8.595840,6.553364,4.100101,0.850562,3.779879,3.063581,-0.747681,-0.571119,-0.239162,0.239997,72.487975,39.180647,-6.347676
17258,NaN,-4.329563,17.679732,-1.748680,7.395474,6.042777,5.779606,0.722825,3.729199,3.524931,-0.745094,-0.582348,-0.242093,0.217019,74.989437,37.844839,-3.007703
17259,NaN,-5.169586,17.853731,-1.162161,6.265995,5.250001,6.918979,0.666784,3.409153,3.965243,-0.743009,-0.593200,-0.242405,0.193108,77.220442,36.108921,0.044455
17260,NaN,-5.414815,18.257659,-0.185674,5.719442,4.053877,7.892858,0.702398,2.916217,4.345132,-0.741287,-0.603714,-0.239597,0.169166,79.134113,34.019492,2.661979
17261,NaN,-5.351581,18.626893,0.588771,5.314552,3.018199,8.586243,0.803960,2.344663,4.663070,-0.739678,-0.614124,-0.233413,0.145764,80.759118,31.623479,4.786442
17262,NaN,-5.242795,18.484462,1.242044,4.620580,1.975085,8.771616,0.942967,1.876194,4.926710,-0.737878,-0.624538,-0.224465,0.122895,82.171499,28.996846,6.499886
17263,NaN,-5.175769,18.008031,2.132410,3.766072,0.609733,8.653249,1.089766,1.547813,5.116920,-0.735549,-0.635091,-0.213410,0.100414,83.457752,26.199102,7.901730
17264,NaN,-4.866747,16.860020,2.619589,2.809744,-0.454228,7.698252,1.284335,1.185796,5.240480,-0.732517,-0.645791,-0.200421,0.078771,84.654499,23.288646,8.985401
17265,NaN,-4.300358,15.455214,2.659766,2.004810,-1.071025,6.286925,1.705232,0.775423,5.322440,-0.727981,-0.657486,-0.185293,0.058502,85.918746,20.286073,9.727280
17266,NaN,-3.612080,14.224522,2.413669,1.447507,-1.340181,4.926986,2.179688,0.380183,5.336486,-0.721681,-0.670234,-0.168440,0.039884,87.309434,17.252537,10.145346
17267,NaN,-2.713676,13.411900,1.742094,1.251295,-1.087777,3.879422,2.601233,0.107616,5.297924,-0.713559,-0.683875,-0.150455,0.022628,88.855864,14.221166,10.310206
17268,NaN,-1.634798,12.852333,1.031944,1.388602,-0.724729,3.087547,2.887908,0.022328,5.244271,-0.703902,-0.697853,-0.132234,0.006062,90.523997,11.222541,10.338111
17269,NaN,-0.447904,12.246407,0.335767,1.719411,-0.332402,2.318956,3.057071,0.105053,5.094200,-0.692951,-0.711737,-0.114654,-0.010171,92.283709,8.303749,10.322130
17270,NaN,0.308138,11.680985,0.001208,1.804542,-0.320358,1.726219,2.948704,0.496078,4.707111,-0.681626,-0.724385,-0.099756,-0.026495,93.996880,5.601352,10.457701
17271,NaN,0.521615,11.265430,-0.680192,1.403241,0.034127,1.396757,2.057071,1.551374,4.087541,-0.672602,-0.733077,-0.090460,-0.044972,95.239027,3.195970,11.152823
17272,NaN,-0.191037,10.865706,-1.924265,0.019609,0.853938,1.189659,1.554986,2.968900,3.873435,-0.664428,-0.739187,-0.086598,-0.068109,96.188722,0.824280,12.624055
17273,NaN,-1.877872,10.795618,-0.807664,-1.801067,-0.899470,0.987670,1.609759,4.002142,4.007783,-0.655037,-0.744643,-0.085573,-0.095449,97.105004,-1.721670,14.631528
17274,NaN,-3.073805,10.898274,0.526522,-2.971294,-2.813212,0.757906,0.831191,4.025191,3.769184,-0.648129,-0.746805,-0.085120,-0.122334,97.485078,-4.150770,16.646360
17275,NaN,-3.292889,10.492787,0.991974,-3.326536,-3.507793,0.114200,0.172801,3.338557,3.554956,-0.643643,-0.746667,-0.082733,-0.146173,97.442166,-6.418233,18.281160
17276,NaN,-3.200054,9.566232,1.169508,-3.383636,-3.697754,-0.981623,0.346353,2.608393,3.651389,-0.638404,-0.747235,-0.077765,-0.167430,97.487343,-8.680744,19.500674
17277,NaN,-3.497853,9.000467,1.373183,-3.768091,-4.089292,-1.800393,0.827010,2.005164,3.729957,-0.631230,-0.749513,-0.070889,-0.186420,97.820411,-10.950123,20.361848
17278,NaN,-3.760481,9.357152,1.266659,-4.306880,-4.369792,-1.710516,1.091993,1.577778,3.608677,-0.623050,-0.752650,-0.063389,-0.203247,98.324393,-13.118104,20.979123
17279,NaN,-3.981609,10.460565,1.003006,-4.999339,-4.683845,-0.905618,1.173232,1.411330,3.513799,-0.614485,-0.755862,-0.055723,-0.219033,98.875157,-15.226520,21.486482
17280,NaN,-4.407144,11.608685,0.943183,-5.848815,-5.313941,-0.189304,1.068166,1.406444,3.494329,-0.606079,-0.758471,-0.048041,-0.234697,99.354729,-17.324879,21.984049
17281,NaN,-4.782752,12.213796,1.001385,-6.532762,-5.910992,-0.044420,0.711142,1.462080,3.465379,-0.598847,-0.759628,-0.040145,-0.250472,99.600586,-19.417520,22.504149
17282,NaN,-5.163636,12.170489,1.144815,-7.041467,-6.383680,-0.552890,0.299902,1.584947,3.418466,-0.592970,-0.759130,-0.032321,-0.266577,99.567300,-21.493904,23.110926
17283,NaN,-5.509853,11.781912,1.523823,-7.298851,-6.909870,-1.418674,-0.012509,1.701076,3.362256,-0.588148,-0.757260,-0.024583,-0.282904,99.296817,-23.549836,23.805118
17284,NaN,-5.928732,11.284274,1.932711,-7.517613,-7.419332,-2.420396,-0.182400,1.656155,3.286091,-0.583857,-0.754696,-0.016796,-0.298768,98.907656,-25.552938,24.506792
17285,NaN,-6.417799,10.959033,2.140158,-7.886381,-7.806894,-3.277101,-0.167815,1.461895,3.197247,-0.579499,-0.752197,-0.008758,-0.313534,98.541142,-27.485747,25.117311
17286,NaN,-7.147595,11.027205,2.364762,-8.528686,-8.419994,-3.927844,0.021398,1.202207,3.141115,-0.574331,-0.750446,-0.000509,-0.327069,98.334998,-29.360968,25.590714
17287,NaN,-7.947715,11.365978,2.623146,-9.276474,-9.177729,-4.433644,0.196625,0.890942,3.070964,-0.568482,-0.749495,0.008104,-0.339146,98.306887,-31.170718,25.878273
17288,NaN,-8.602501,11.513980,2.540044,-9.986913,-9.508615,-5.031547,0.247766,0.567312,2.963449,-0.562459,-0.749072,0.017125,-0.349625,98.409603,-32.891753,25.965393
17289,NaN,-8.986849,11.153128,2.262671,-10.364124,-9.355805,-5.899149,0.195314,0.287927,2.800778,-0.556787,-0.748834,0.026420,-0.358522,98.576124,-34.497375,25.875353
17290,NaN,-9.106909,10.449974,1.860334,-10.436482,-8.827956,-6.857198,0.098882,0.070234,2.583442,-0.551721,-0.748621,0.035666,-0.365922,98.769905,-35.960607,25.649722
17291,NaN,-9.006513,9.788214,1.842053,-10.145038,-8.526439,-7.647083,0.031645,-0.078885,2.284834,-0.547362,-0.748426,0.044324,-0.371872,98.976194,-37.240352,25.342248
17292,NaN,-8.829404,9.273144,1.952737,-9.780012,-8.343033,-8.230773,0.052387,-0.233429,1.965615,-0.543406,-0.748573,0.052166,-0.376335,99.254503,-38.325038,24.948357
17293,NaN,-8.597989,9.054331,2.273505,-9.402082,-8.426373,-8.520977,0.139628,-0.478199,1.597154,-0.539729,-0.749437,0.059118,-0.378868,99.676470,-39.174999,24.409346
17294,NaN,-8.032427,9.279225,2.545293,-9.035322,-8.536985,-8.205572,0.342780,-0.895723,1.173581,-0.535915,-0.751733,0.065228,-0.378733,100.392857,-39.741577,23.602102
17295,NaN,-6.925081,10.580879,2.508866,-8.987648,-8.683756,-6.647385,0.775331,-1.494516,0.745615,-0.531078,-0.756392,0.070498,-0.375310,101.610552,-39.989128,22.402163
17296,NaN,-5.915714,13.490865,2.293172,-9.880777,-9.463413,-3.890624,1.302182,-2.033053,0.255916,-0.524889,-0.763560,0.074362,-0.368697,103.342627,-39.874471,20.877003
17297,NaN,-4.930450,16.621431,1.294026,-11.183823,-9.793841,-0.798435,1.572478,-2.313774,-0.313089,-0.518553,-0.772018,0.076259,-0.359548,105.272780,-39.363957,19.269536
17298,NaN,-3.672893,18.274547,0.447428,-11.345759,-9.601051,1.445148,1.252601,-2.336837,-0.972443,-0.514494,-0.779801,0.076251,-0.348414,106.911254,-38.451268,17.814703
17299,NaN,-2.485758,18.183597,-0.516260,-10.657111,-8.473381,2.504251,0.337307,-2.046840,-1.785192,-0.515476,-0.784859,0.073888,-0.335889,107.736508,-37.115589,16.786711
17300,NaN,-1.826565,17.561415,-1.247703,-9.932881,-7.295585,2.891255,-0.483286,-1.322313,-2.510729,-0.521016,-0.786720,0.068194,-0.323981,107.675378,-35.508589,16.434096
17301,NaN,-1.992159,17.415362,-1.368538,-9.740266,-6.938231,3.075162,-0.996649,-0.668322,-3.081861,-0.529668,-0.786153,0.059353,-0.312876,106.990895,-33.697799,16.631242
17302,NaN,-2.586964,17.708708,-1.271849,-9.940493,-6.989487,3.385886,-1.299951,-0.538146,-3.580476,-0.540088,-0.784509,0.048676,-0.300800,106.068255,-31.637221,16.973372
17303,NaN,-2.994835,18.095610,-1.379245,-10.053625,-6.785104,4.013225,-1.439157,-0.882435,-4.033320,-0.551522,-0.782731,0.037344,-0.285939,105.158757,-29.263018,17.129322
17304,NaN,-2.924712,18.647596,-1.959146,-9.926621,-6.032483,5.191463,-1.516216,-1.471081,-4.477209,-0.563378,-0.781288,0.025987,-0.267428,104.382257,-26.561496,16.946874
17305,NaN,-2.640732,19.282908,-2.927963,-9.642749,-4.813220,6.653510,-1.494031,-1.997119,-4.821702,-0.575292,-0.780053,0.014741,-0.245640,103.722809,-23.589797,16.457605
17306,NaN,-2.280247,19.901754,-3.702223,-9.022227,-3.633939,8.083059,-1.829380,-2.404328,-5.249784,-0.588396,-0.777812,0.003378,-0.220877,102.942407,-20.339122,15.759853
17307,NaN,-1.320582,20.769637,-5.627794,-8.076622,-1.123644,10.140308,-2.466437,-2.426898,-5.854346,-0.604207,-0.772820,-0.009506,-0.193890,101.730480,-16.750034,15.071445
17308,NaN,0.029812,22.105679,-6.835800,-6.333374,0.904002,12.418831,-2.802324,-1.807949,-6.196861,-0.620714,-0.765374,-0.025305,-0.168157,100.222205,-13.061174,14.718094
17309,NaN,0.276877,22.532329,-6.355339,-4.785499,1.450201,13.055303,-3.031455,-1.054485,-6.253976,-0.637454,-0.755515,-0.043358,-0.144808,98.473327,-9.411968,14.687422
17310,NaN,-0.083177,21.538198,-5.040951,-3.440172,1.386805,11.989383,-3.643059,-0.747064,-6.452513,-0.655566,-0.742563,-0.062717,-0.122067,96.385262,-5.684749,14.740442
17311,NaN,0.106019,20.002427,-4.397467,-1.827994,2.175908,10.464209,-4.076269,-0.731978,-6.749971,-0.674682,-0.726854,-0.082759,-0.098178,94.034946,-1.779299,14.649559
17312,NaN,-0.002061,18.809507,-3.729124,-0.643253,2.692764,9.157050,-3.917782,-0.630418,-6.796259,-0.691952,-0.710614,-0.103372,-0.074460,91.795800,2.133752,14.485421
17313,NaN,-0.492520,18.183037,-2.956856,0.104571,2.845636,8.389827,-3.700359,-0.416978,-6.798409,-0.707415,-0.693852,-0.124581,-0.051112,89.648697,6.046338,14.274570
17314,NaN,-1.194095,17.769494,-2.137524,0.604787,2.798598,7.890390,-3.558192,-0.182743,-6.714194,-0.721037,-0.676671,-0.146251,-0.028860,87.588269,9.895315,14.073310
17315,NaN,-2.378747,17.172374,-1.320207,0.550096,2.549365,7.373276,-3.367967,-0.109112,-6.482255,-0.733037,-0.659289,-0.167155,-0.007354,85.586291,13.613179,13.760871
17316,NaN,-3.381046,16.426727,-0.781449,0.488131,2.506210,6.777819,-3.227286,-0.236765,-6.252621,-0.743610,-0.641873,-0.186695,0.013705,83.612854,17.172585,13.268745
17317,NaN,-3.647947,15.602639,-0.596302,0.908635,2.864938,5.934597,-2.972014,-0.388708,-5.968348,-0.752731,-0.624816,-0.204467,0.034557,81.673693,20.548584,12.551084
17318,NaN,-3.653609,14.796906,-0.164543,1.516043,2.898226,5.072136,-2.311289,-0.671357,-5.430999,-0.759330,-0.610209,-0.219232,0.054775,80.000223,23.564912,11.603887
17319,NaN,-3.230171,13.828368,0.029845,2.256771,3.036951,3.872905,-1.708296,-1.149866,-4.936135,-0.764200,-0.597739,-0.230294,0.075307,78.466689,26.232116,10.288593
17320,NaN,-2.410059,12.909505,-0.517831,3.036058,3.794949,2.397088,-1.210263,-1.575584,-4.577920,-0.767632,-0.587098,-0.238353,0.096152,77.031933,28.609349,8.664459
17321,NaN,-1.525804,12.335730,-1.048097,3.916216,4.499141,1.141375,-0.834387,-1.715957,-4.264828,-0.769867,-0.577801,-0.244616,0.116679,75.674306,30.762374,6.885913
17322,NaN,-0.839320,11.868683,-1.594930,4.593509,5.116992,0.026414,-0.695001,-1.655787,-4.029583,-0.771324,-0.569123,-0.250240,0.136158,74.343889,32.752610,5.102019
17323,NaN,-0.345231,11.329948,-1.885323,5.066096,5.381798,-1.015300,-0.654461,-1.478962,-3.825519,-0.772249,-0.560672,-0.255820,0.154385,73.012944,34.627023,3.373068
17324,NaN,0.052786,10.858471,-1.858243,5.494876,5.316198,-1.882297,-0.740696,-1.293249,-3.683051,-0.772945,-0.552024,-0.261679,0.171317,71.631371,36.417830,1.714047
17325,NaN,0.408986,10.326824,-1.849361,5.788482,5.217746,-2.778063,-0.839797,-1.228039,-3.564601,-0.773649,-0.542954,-0.267445,0.187459,70.132270,38.125104,0.026618
17326,NaN,0.688942,9.837405,-1.664985,6.023431,4.939157,-3.541081,-0.849696,-1.280042,-3.430499,-0.774277,-0.533815,-0.272560,0.203098,68.535003,39.710362,-1.751736
17327,NaN,0.844816,9.407878,-1.425203,6.160769,4.606805,-4.150032,-0.871114,-1.404307,-3.309458,-0.774989,-0.524423,-0.276806,0.218521,66.787166,41.165608,-3.684390
17328,NaN,0.792989,9.060470,-1.287356,6.133847,4.393094,-4.573753,-0.917273,-1.522879,-3.186072,-0.775852,-0.514737,-0.280216,0.233618,64.883698,42.478777,-5.760865
17329,NaN,0.593809,8.795678,-1.139491,6.027537,4.206904,-4.814838,-0.937269,-1.659326,-3.020078,-0.776901,-0.504863,-0.282612,0.248330,62.837492,43.619719,-7.979499
17330,NaN,0.603812,8.634453,-0.954086,6.126654,4.002469,-5.093913,-0.935450,-1.876815,-2.824511,-0.778248,-0.494859,-0.283568,0.262744,60.644735,44.540563,-10.370755
17331,NaN,0.742018,8.618308,-0.886038,6.372842,3.933899,-5.394901,-0.922616,-2.144226,-2.616477,-0.779976,-0.484683,-0.282870,0.276957,58.304146,45.213455,-12.946892
17332,NaN,1.070076,8.691180,-1.096904,6.746179,4.103102,-5.871412,-0.860512,-2.361824,-2.386273,-0.781940,-0.474637,-0.280587,0.290792,55.906277,45.630627,-15.630549
17333,NaN,1.276009,9.015161,-1.401483,7.191419,4.444940,-6.153873,-0.778109,-2.449455,-2.141090,-0.783961,-0.464984,-0.277183,0.303916,53.558659,45.826551,-18.295173
17334,NaN,1.413542,9.549366,-1.674436,7.748188,4.833639,-6.264528,-0.747229,-2.395986,-1.894644,-0.786003,-0.455760,-0.273291,0.315904,51.329985,45.853966,-20.814445
17335,NaN,1.447436,10.186236,-1.822768,8.330282,5.170089,-6.200259,-0.765872,-2.249626,-1.638658,-0.788110,-0.446937,-0.269360,0.326459,49.255299,45.756676,-23.105528
17336,NaN,1.418595,10.648028,-1.830104,8.752414,5.339522,-6.121651,-0.818208,-2.136815,-1.359015,-0.790488,-0.438384,-0.265279,0.335522,47.323427,45.526528,-25.161423
17337,NaN,1.563814,10.761637,-1.960105,8.991916,5.439282,-6.398396,-0.888247,-2.111138,-1.125667,-0.793240,-0.429835,-0.260860,0.343461,45.479517,45.162655,-27.048588
17338,NaN,2.033306,10.573568,-2.269119,9.167819,5.464368,-7.134394,-0.891575,-2.118128,-0.915379,-0.796246,-0.421464,-0.255926,0.350518,43.747973,44.669924,-28.787198
17339,NaN,2.670509,10.426131,-2.917517,9.431322,5.705102,-8.125086,-0.760907,-2.094213,-0.710278,-0.799186,-0.413865,-0.250386,0.356826,42.223195,44.072276,-30.355834
17340,NaN,3.016392,10.524309,-3.193735,9.742640,5.796414,-8.571282,-0.466219,-1.974336,-0.458675,-0.801721,-0.407913,-0.244251,0.362204,41.050475,43.403997,-31.675699
17341,NaN,3.580359,11.123810,-4.247813,10.500687,6.642245,-9.346967,-0.624554,-1.502532,-0.473301,-0.803898,-0.402142,-0.240296,0.366453,39.978771,42.928001,-32.732188
