// General information: 
//  MT Manager version: 2019.0.1 
//  XDA version: 2019.0.1 build 2740 rev 84096 built on 2019-01-30
// Device information: 
//  DeviceId: 00B43876
//  ProductCode: MTW2-3A7G6
//  Firmware Version: 4.3.4
//  Hardware Version: 1.1.0
// Device settings: 
//  Filter Profile: human(46.1)
//  Option Flags: Orientation Smoother Disabled, AHS Disabled, ICC Disabled
// Coordinate system: ENU
PacketCounter,SampleTimeFine,Acc_X,Acc_Y,Acc_Z,FreeAcc_E,FreeAcc_N,FreeAcc_U,Gyr_X,Gyr_Y,Gyr_Z,Quat_q0,Quat_q1,Quat_q2,Quat_q3,Roll,Pitch,Yaw
24399,NaN,1.657135,9.723186,-0.376991,0.023024,0.029725,0.057832,0.008083,0.007386,-0.003266,0.688920,0.718965,-0.028749,0.087472,92.061424,-9.519906,4.605151
24400,NaN,1.699569,9.734847,-0.337235,0.065743,-0.008448,0.074936,0.013187,0.011671,0.005610,0.688856,0.719019,-0.028760,0.087533,92.070539,-9.526223,4.608351
24401,NaN,1.714136,9.790690,-0.353808,0.068363,0.005128,0.132983,0.006405,0.009662,0.010327,0.688814,0.719049,-0.028799,0.087602,92.075910,-9.535238,4.610322
24402,NaN,1.691750,9.741509,-0.359300,0.052334,0.010656,0.081011,-0.000640,0.022944,0.010018,0.688799,0.719050,-0.028793,0.087717,92.076032,-9.544313,4.619973
24403,NaN,1.648489,9.736283,-0.339865,0.010241,-0.011779,0.068000,-0.005323,0.027927,0.020191,0.688797,0.719031,-0.028809,0.087884,92.072957,-9.559359,4.632340
24404,NaN,1.620132,9.687265,-0.424739,-0.019798,0.073486,0.018007,-0.012472,0.023988,0.022953,0.688819,0.718988,-0.028851,0.088045,92.066240,-9.575861,4.642328
24405,NaN,1.588575,9.721396,-0.368784,-0.054653,0.013971,0.044388,-0.002459,0.023382,0.028135,0.688803,0.718979,-0.028910,0.088224,92.065266,-9.595359,4.651895
24406,NaN,1.617256,9.739932,-0.428938,-0.038446,0.075593,0.069549,-0.014258,0.015359,0.034945,0.688825,0.718933,-0.029026,0.088395,92.058397,-9.618549,4.656624
24407,NaN,1.627484,9.715814,-0.354003,-0.022269,0.003893,0.044825,-0.016403,0.011118,0.040298,0.688852,0.718879,-0.029177,0.088570,92.050662,-9.644757,4.658820
24408,NaN,1.644799,9.747975,-0.375058,-0.017022,0.025948,0.080142,-0.024052,0.009739,0.040932,0.688905,0.718800,-0.029338,0.088740,92.038744,-9.671258,4.660169
24409,NaN,1.703611,9.745213,-0.369408,0.036630,0.027318,0.087102,-0.034981,0.007404,0.047164,0.688995,0.718684,-0.029534,0.088922,92.020745,-9.701320,4.660076
24410,NaN,1.704102,9.704789,-0.321318,0.042956,-0.015804,0.045712,-0.036705,0.008662,0.038995,0.689095,0.718562,-0.029698,0.089080,92.001672,-9.726690,4.660855
24411,NaN,1.752190,9.685879,-0.344024,0.086761,0.014152,0.036020,-0.030122,0.011070,0.038716,0.689171,0.718461,-0.029849,0.089247,91.986067,-9.751987,4.663084
24412,NaN,1.724141,9.713250,-0.345559,0.050373,0.014267,0.058308,-0.027207,0.010098,0.031166,0.689240,0.718373,-0.029976,0.089384,91.972265,-9.772902,4.664869
24413,NaN,1.691889,9.700840,-0.303358,0.020755,-0.028227,0.039194,-0.017235,0.002657,0.030125,0.689273,0.718322,-0.030119,0.089493,91.964839,-9.793115,4.662390
24414,NaN,1.704893,9.716533,-0.272992,0.030137,-0.057319,0.055849,-0.015469,-0.001352,0.027496,0.689300,0.718279,-0.030267,0.089579,91.958881,-9.811703,4.657601
24415,NaN,1.664496,9.681458,-0.320094,-0.010820,-0.011561,0.016015,-0.009436,-0.009522,0.023525,0.689306,0.718261,-0.030425,0.089622,91.957108,-9.827900,4.648179
24416,NaN,1.711782,9.685907,-0.337834,0.030362,0.009863,0.029066,-0.013087,-0.012407,0.027165,0.689323,0.718232,-0.030608,0.089667,91.953613,-9.846083,4.636973
24417,NaN,1.713986,9.685544,-0.337055,0.029899,0.009380,0.029068,-0.008924,-0.021143,0.019514,0.689327,0.718222,-0.030792,0.089655,91.953284,-9.859757,4.620880
24418,NaN,1.696434,9.699498,-0.379190,0.004494,0.049061,0.041220,-0.007283,-0.020665,0.016717,0.689326,0.718218,-0.030964,0.089636,91.953907,-9.871795,4.605081
24419,NaN,1.699265,9.745695,-0.363753,-0.001261,0.031543,0.086675,-0.009354,-0.020827,0.017474,0.689332,0.718206,-0.031140,0.089618,91.953300,-9.884305,4.589210
24420,NaN,1.732368,9.717479,-0.358594,0.034224,0.030431,0.064407,-0.012492,-0.019949,0.018569,0.689350,0.718183,-0.031318,0.089606,91.950880,-9.897419,4.573790
24421,NaN,1.766828,9.735698,-0.338134,0.064403,0.012288,0.087592,-0.014745,-0.013381,0.019079,0.689376,0.718149,-0.031476,0.089620,91.946456,-9.910997,4.562218
24422,NaN,1.800033,9.707453,-0.332503,0.099889,0.011171,0.065330,-0.013860,-0.007693,0.018498,0.689400,0.718117,-0.031612,0.089652,91.942032,-9.924311,4.553925
24423,NaN,1.702478,9.704716,-0.315392,0.003674,-0.013020,0.045265,-0.008401,-0.002003,0.018453,0.689405,0.718099,-0.031726,0.089705,91.940106,-9.937751,4.548983
24424,NaN,1.744710,9.646083,-0.296188,0.054289,-0.025699,-0.005800,-0.012663,0.002161,0.019801,0.689426,0.718066,-0.031832,0.089777,91.935387,-9.952003,4.546394
24425,NaN,1.738357,9.699355,-0.301297,0.036041,-0.023141,0.045726,-0.009274,0.007689,0.020513,0.689435,0.718041,-0.031921,0.089872,91.931993,-9.966815,4.547045
24426,NaN,1.754064,9.731731,-0.323703,0.041277,-0.001127,0.081069,-0.003658,0.000317,0.025398,0.689421,0.718039,-0.032049,0.089958,91.932640,-9.984236,4.543275
24427,NaN,1.757051,9.754560,-0.315362,0.038151,-0.010139,0.103792,-0.013238,0.000637,0.022277,0.689442,0.718003,-0.032170,0.090033,91.927687,-9.999923,4.539785
24428,NaN,1.748483,9.714895,-0.350319,0.030545,0.026507,0.064431,-0.013499,0.003278,0.026635,0.689463,0.717965,-0.032297,0.090132,91.922402,-10.018110,4.537715
24429,NaN,1.761428,9.730524,-0.319983,0.039885,-0.002597,0.081074,-0.016694,0.006402,0.027651,0.689495,0.717914,-0.032419,0.090246,91.914909,-10.036985,4.537480
24430,NaN,1.798784,9.718773,-0.365469,0.071268,0.047401,0.077531,-0.020953,0.010567,0.029007,0.689543,0.717847,-0.032533,0.090379,91.904621,-10.056670,4.539607
24431,NaN,1.766612,9.706386,-0.323185,0.041625,0.004948,0.058358,-0.022336,0.016490,0.033627,0.689594,0.717771,-0.032644,0.090548,91.892889,-10.079160,4.545131
24432,NaN,1.823651,9.680180,-0.325722,0.097944,0.014760,0.042660,-0.019430,0.024578,0.032218,0.689637,0.717702,-0.032721,0.090742,91.882054,-10.100948,4.555354
24433,NaN,1.858787,9.674825,-0.311544,0.130764,0.005112,0.043136,-0.014623,0.039554,0.029814,0.689666,0.717643,-0.032735,0.090983,91.872370,-10.121692,4.574378
24434,NaN,1.872567,9.713573,-0.273125,0.137431,-0.032548,0.082496,-0.009292,0.058295,0.024870,0.689682,0.717594,-0.032664,0.091274,91.863861,-10.139898,4.604363
24435,NaN,1.788480,9.720557,-0.285680,0.049568,-0.025647,0.075001,-0.011215,0.059976,0.021127,0.689706,0.717539,-0.032576,0.091559,91.853985,-10.156036,4.635431
24436,NaN,1.758564,9.725103,-0.295634,0.015824,-0.016982,0.074529,-0.009458,0.055966,0.018496,0.689724,0.717492,-0.032490,0.091820,91.845580,-10.170539,4.664189
24437,NaN,1.735220,9.629633,-0.315095,0.005229,0.005746,-0.022895,-0.001579,0.048344,0.018191,0.689713,0.717475,-0.032427,0.092054,91.842399,-10.184783,4.688556
24438,NaN,1.772962,9.664434,-0.346909,0.031288,0.038664,0.019024,0.008525,0.042731,0.012608,0.689667,0.717497,-0.032357,0.092250,91.845626,-10.195668,4.709729
24439,NaN,1.762825,9.701046,-0.301520,0.017105,-0.009918,0.051813,0.012090,0.041520,0.013577,0.689608,0.717531,-0.032294,0.092446,91.850956,-10.207143,4.730214
24440,NaN,1.754674,9.708004,-0.323005,0.004189,0.009679,0.057898,0.005239,0.032722,0.012049,0.689573,0.717547,-0.032259,0.092604,91.853323,-10.217525,4.745572
24441,NaN,1.691349,9.694313,-0.355336,-0.060158,0.036077,0.034226,0.020022,0.031656,0.013353,0.689484,0.717613,-0.032226,0.092765,91.864207,-10.228678,4.760329
24442,NaN,1.637888,9.673327,-0.367296,-0.112036,0.042379,0.004466,0.021577,0.019474,0.019897,0.689384,0.717690,-0.032257,0.092905,91.877327,-10.243312,4.767827
24443,NaN,1.704815,9.686281,-0.337632,-0.048617,0.015004,0.028138,0.024248,0.004009,0.026180,0.689269,0.717781,-0.032363,0.093012,91.893539,-10.261304,4.766249
24444,NaN,1.794633,9.701424,-0.317747,0.035632,-0.001471,0.058382,0.029357,-0.000809,0.028942,0.689134,0.717892,-0.032493,0.093111,91.913248,-10.280735,4.761760
24445,NaN,1.829316,9.695911,-0.308740,0.068448,-0.011140,0.058867,0.034459,0.002942,0.026955,0.688982,0.718019,-0.032600,0.093219,91.935420,-10.299144,4.759519
24446,NaN,1.862548,9.754076,-0.417222,0.077966,0.092947,0.125645,0.033125,0.024229,0.033107,0.688835,0.718131,-0.032657,0.093423,91.954701,-10.321444,4.769506
24447,NaN,1.926975,9.860205,-0.438122,0.116769,0.111107,0.242303,0.024716,0.071869,0.034097,0.688726,0.718191,-0.032557,0.093801,91.964129,-10.345298,4.807238
24448,NaN,1.785211,9.795951,-0.227542,0.003591,-0.108206,0.146614,0.014401,0.104048,0.040854,0.688655,0.718199,-0.032376,0.094315,91.964347,-10.373605,4.863528
24449,NaN,1.702482,9.669442,-0.147327,-0.052891,-0.189359,0.004624,0.016844,0.097533,0.046894,0.688572,0.718218,-0.032237,0.094828,91.966580,-10.405305,4.915945
24450,NaN,1.757771,9.549767,-0.183197,0.014223,-0.145389,-0.101867,0.043583,0.073748,0.044959,0.688390,0.718340,-0.032161,0.095253,91.986664,-10.435375,4.954516
24451,NaN,1.736636,9.563820,-0.311306,-0.024969,-0.025923,-0.087557,0.076763,0.050023,0.036339,0.688088,0.718589,-0.032120,0.095568,92.028160,-10.460110,4.979491
24452,NaN,1.837767,9.704485,-0.369322,0.040337,0.025563,0.071064,0.081914,0.033910,0.033026,0.687767,0.718863,-0.032120,0.095815,92.074349,-10.482580,4.995080
24453,NaN,1.933943,9.705695,-0.471426,0.121813,0.128347,0.093451,0.059277,0.033589,0.025774,0.687531,0.719061,-0.032105,0.096032,92.107507,-10.500961,5.010660
24454,NaN,1.958770,9.707211,-0.484821,0.142195,0.138740,0.100047,0.044100,0.043562,0.017609,0.687354,0.719203,-0.032034,0.096254,92.130940,-10.514827,5.032176
24455,NaN,1.892179,9.676956,-0.467376,0.081957,0.114084,0.057598,0.026626,0.053788,0.014627,0.687244,0.719281,-0.031926,0.096500,92.143192,-10.527264,5.059747
24456,NaN,1.824763,9.623537,-0.456516,0.024433,0.097983,-0.007564,0.028059,0.054655,0.016296,0.687127,0.719362,-0.031820,0.096755,92.156239,-10.540628,5.087747
24457,NaN,1.802856,9.697587,-0.367532,-0.003600,0.001269,0.057903,0.025939,0.047699,0.010772,0.687020,0.719441,-0.031720,0.096966,92.168714,-10.550726,5.111843
24458,NaN,1.870967,9.680530,-0.403640,0.061143,0.042018,0.054967,0.021417,0.045476,0.010284,0.686929,0.719505,-0.031627,0.097166,92.178900,-10.560460,5.134627
24459,NaN,1.856607,9.701042,-0.308014,0.050943,-0.057694,0.068919,0.028902,0.044958,0.014255,0.686808,0.719594,-0.031547,0.097379,92.193387,-10.572530,5.157060
24460,NaN,1.790402,9.694242,-0.283174,-0.011997,-0.090889,0.049140,0.036614,0.044034,0.013779,0.686660,0.719711,-0.031464,0.097588,92.212441,-10.584244,5.178921
24461,NaN,1.824759,9.712114,-0.266628,0.018102,-0.109151,0.072339,0.044660,0.036479,0.020045,0.686479,0.719858,-0.031426,0.097794,92.236881,-10.599441,5.196291
24462,NaN,1.795123,9.716553,-0.283207,-0.015624,-0.100448,0.071832,0.054317,0.031629,0.023444,0.686261,0.720039,-0.031412,0.097994,92.267439,-10.616427,5.210698
24463,NaN,1.780060,9.776773,-0.315933,-0.046398,-0.077861,0.129420,0.049338,0.022924,0.014604,0.686063,0.720209,-0.031399,0.098133,92.295976,-10.628221,5.220270
24464,NaN,1.803925,9.655101,-0.424689,-0.013783,0.034996,0.018593,0.031896,0.011603,0.021220,0.685923,0.720324,-0.031456,0.098250,92.315827,-10.643485,5.223048
24465,NaN,1.792142,9.622038,-0.405613,-0.019912,0.012074,-0.016803,0.056278,0.007867,0.025984,0.685693,0.720523,-0.031532,0.098375,92.350012,-10.661454,5.223575
24466,NaN,1.796227,9.667893,-0.396232,-0.025790,-0.005556,0.028598,0.056279,0.007860,0.026003,0.685462,0.720723,-0.031608,0.098499,92.384260,-10.679371,5.224042
24467,NaN,1.870778,9.689626,-0.480254,0.032203,0.077700,0.067202,0.047095,-0.000630,0.029600,0.685261,0.720894,-0.031730,0.098604,92.414131,-10.699198,5.219531
24468,NaN,1.896068,9.690967,-0.493450,0.052593,0.088076,0.073813,0.037632,-0.004737,0.026519,0.685095,0.721036,-0.031860,0.098681,92.439064,-10.717106,5.212627
24469,NaN,1.865949,9.671994,-0.516729,0.021593,0.105366,0.050612,0.034076,-0.003520,0.025529,0.684942,0.721164,-0.031984,0.098760,92.461768,-10.734534,5.206490
24470,NaN,1.858352,9.755390,-0.460155,0.001863,0.039597,0.128705,0.028859,-0.002762,0.027334,0.684808,0.721274,-0.032115,0.098846,92.481471,-10.752952,5.200702
24471,NaN,1.851094,9.738519,-0.490820,-0.008305,0.067771,0.112107,0.008357,-0.006845,0.030310,0.684745,0.721316,-0.032280,0.098924,92.489831,-10.773029,5.192498
24472,NaN,1.849326,9.698441,-0.447576,-0.001985,0.024743,0.070605,0.019348,-0.006354,0.035228,0.684640,0.721394,-0.032456,0.099023,92.504520,-10.795874,5.184406
24473,NaN,1.840057,9.711987,-0.410963,-0.013566,-0.015310,0.080591,0.002169,-0.009512,0.032605,0.684598,0.721415,-0.032642,0.099099,92.509644,-10.817186,5.174582
24474,NaN,1.928069,9.656700,-0.410354,0.078811,-0.006256,0.042841,0.007898,-0.006022,0.039244,0.684533,0.721453,-0.032837,0.099210,92.517764,-10.842335,5.166573
24475,NaN,1.932749,9.702663,-0.396183,0.072895,-0.023905,0.088235,-0.003004,-0.009261,0.023431,0.684514,0.721457,-0.032992,0.099255,92.519858,-10.858403,5.157118
24476,NaN,1.894528,9.737644,-0.422752,0.024018,-0.003651,0.116515,-0.000785,-0.005058,0.018078,0.684490,0.721469,-0.033111,0.099296,92.522799,-10.871460,5.150210
24477,NaN,1.817540,9.691807,-0.430854,-0.045906,0.000492,0.057374,-0.017550,-0.008522,0.017518,0.684527,0.721424,-0.033250,0.099320,92.516449,-10.884172,5.141321
24478,NaN,1.776527,9.633578,-0.486268,-0.083837,0.055064,-0.005126,0.007574,-0.010194,0.037355,0.684463,0.721463,-0.033452,0.099410,92.524843,-10.908134,5.130924
24479,NaN,1.825754,9.737132,-0.417055,-0.052281,-0.017664,0.102756,0.009926,-0.014438,0.043316,0.684387,0.721511,-0.033690,0.099506,92.535027,-10.935460,5.117924
24480,NaN,1.764039,9.676543,-0.464464,-0.111040,0.026048,0.033634,-0.001535,-0.024872,0.052202,0.684345,0.721524,-0.034001,0.099592,92.539912,-10.967545,5.098577
24481,NaN,1.819004,9.632964,-0.417411,-0.050633,-0.015322,-0.000746,0.011294,-0.034632,0.065732,0.684249,0.721583,-0.034388,0.099692,92.553250,-11.007166,5.073218
24482,NaN,1.879455,9.628568,-0.415947,0.003021,-0.014204,0.006400,0.013040,-0.038662,0.063116,0.684147,0.721650,-0.034778,0.099769,92.568106,-11.045137,5.045526
24483,NaN,1.947133,9.709942,-0.445279,0.044420,0.012252,0.100457,0.022711,-0.034505,0.072775,0.684007,0.721746,-0.035184,0.099895,92.588053,-11.088782,5.020037
24484,NaN,2.059527,9.709232,-0.381554,0.153437,-0.044697,0.118620,0.008417,-0.025109,0.068625,0.683921,0.721790,-0.035550,0.100038,92.598811,-11.130242,5.000075
24485,NaN,2.081697,9.709727,-0.472205,0.160121,0.045428,0.127510,0.001289,-0.007894,0.050580,0.683873,0.721803,-0.035795,0.100181,92.603408,-11.161875,4.990669
24486,NaN,1.948814,9.650804,-0.433010,0.040152,-0.003075,0.042350,0.015297,0.000093,0.043101,0.683779,0.721862,-0.035980,0.100329,92.615153,-11.189377,4.986074
24487,NaN,1.981340,9.815089,-0.391260,0.041292,-0.052821,0.207805,-0.012948,0.013536,0.019419,0.683802,0.721822,-0.036047,0.100440,92.609007,-11.203728,4.989983
24488,NaN,1.991714,9.544262,-0.426384,0.095936,0.000898,-0.053975,-0.018491,0.019707,0.036551,0.683837,0.721757,-0.036157,0.100631,92.599135,-11.227993,4.997008
24489,NaN,2.061389,9.603075,-0.378941,0.153747,-0.043878,0.015151,0.011387,0.036222,0.025311,0.683774,0.721787,-0.036156,0.100848,92.604379,-11.246305,5.014002
24490,NaN,1.969415,9.641501,-0.409434,0.050775,-0.025207,0.036250,0.019473,0.050190,0.021877,0.683684,0.721838,-0.036090,0.101105,92.612706,-11.262967,5.039206
24491,NaN,2.003791,9.635670,-0.398687,0.083577,-0.034971,0.036783,0.035078,0.048340,0.027504,0.683536,0.721943,-0.036043,0.101379,92.630159,-11.282864,5.063249
24492,NaN,1.954143,9.684973,-0.390025,0.023524,-0.054255,0.074982,0.035758,0.045362,0.025206,0.683385,0.722052,-0.035998,0.101633,92.648371,-11.301316,5.085540
24493,NaN,1.895534,9.664214,-0.483780,-0.041929,0.032028,0.047400,0.029670,0.036002,0.027758,0.683254,0.722144,-0.035996,0.101861,92.664115,-11.321032,5.102350
24494,NaN,1.898668,9.663479,-0.486164,-0.042370,0.031520,0.047400,0.032081,0.027271,0.033912,0.683109,0.722248,-0.036046,0.102079,92.682328,-11.343997,5.113835
24495,NaN,1.953227,9.666581,-0.425918,0.012507,-0.027068,0.058402,0.029931,0.031609,0.034498,0.682972,0.722342,-0.036084,0.102314,92.698754,-11.367475,5.127880
24496,NaN,1.922421,9.678247,-0.381394,-0.019961,-0.077978,0.061681,0.028706,0.026864,0.050590,0.682831,0.722432,-0.036197,0.102587,92.715164,-11.399981,5.138656
24497,NaN,1.939179,9.639366,-0.428184,-0.006472,-0.030331,0.029069,0.020127,0.028982,0.057944,0.682717,0.722489,-0.036334,0.102891,92.726394,-11.436835,5.150501
24498,NaN,2.047857,9.630774,-0.503551,0.087632,0.052081,0.045745,0.022688,0.024310,0.059473,0.682592,0.722558,-0.036491,0.103184,92.739690,-11.474359,5.159525
24499,NaN,2.076835,9.654603,-0.507361,0.105254,0.053817,0.075085,0.030344,0.029523,0.047763,0.682446,0.722652,-0.036584,0.103457,92.756630,-11.505393,5.171937
24500,NaN,2.015934,9.617487,-0.549257,0.043844,0.089048,0.028647,0.033480,0.028592,0.046724,0.682289,0.722757,-0.036674,0.103724,92.775532,-11.535744,5.183801
24501,NaN,2.003217,9.653850,-0.587562,0.015805,0.120170,0.063558,0.028183,0.022574,0.042219,0.682153,0.722848,-0.036772,0.103953,92.792034,-11.563407,5.192363
24502,NaN,1.969722,9.735216,-0.601831,-0.038608,0.123246,0.137174,0.016646,0.016175,0.039904,0.682058,0.722903,-0.036889,0.104148,92.802699,-11.589515,5.197155
24503,NaN,1.947026,9.716726,-0.541646,-0.055913,0.060838,0.111638,0.005150,0.003579,0.048878,0.681998,0.722924,-0.037087,0.104327,92.808249,-11.620445,5.194379
24504,NaN,1.938236,9.707008,-0.511061,-0.064784,0.029374,0.098866,-0.006972,-0.006553,0.049128,0.681979,0.722909,-0.037327,0.104467,92.808110,-11.651195,5.185622
24505,NaN,1.948887,9.629083,-0.510173,-0.044503,0.034568,0.024716,-0.018182,-0.024036,0.053789,0.681996,0.722864,-0.037650,0.104558,92.803579,-11.684194,5.166525
24506,NaN,1.948417,9.588939,-0.464564,-0.038188,-0.008401,-0.016853,-0.008920,-0.033128,0.055365,0.681976,0.722855,-0.038004,0.104623,92.805519,-11.717768,5.142059
24507,NaN,1.948324,9.664780,-0.465064,-0.059378,-0.014607,0.057291,0.005092,-0.042200,0.064127,0.681899,0.722896,-0.038414,0.104689,92.816597,-11.756150,5.112117
24508,NaN,1.988403,9.704664,-0.439497,-0.032131,-0.041624,0.103190,0.004097,-0.045630,0.064649,0.681824,0.722936,-0.038838,0.104743,92.827576,-11.794678,5.080058
24509,NaN,1.985910,9.710347,-0.462308,-0.044994,-0.022016,0.109303,0.004055,-0.045138,0.075748,0.681744,0.722973,-0.039300,0.104837,92.838527,-11.839627,5.048033
24510,NaN,1.984239,9.715877,-0.484893,-0.057845,-0.002414,0.115416,-0.000329,-0.044989,0.081753,0.681677,0.722993,-0.039785,0.104951,92.847048,-11.887949,5.015828
24511,NaN,2.020163,9.638806,-0.494810,-0.016700,0.013616,0.047941,-0.003941,-0.056767,0.085781,0.681618,0.723007,-0.040327,0.105035,92.854931,-11.938290,4.976665
24512,NaN,2.040491,9.622483,-0.533061,-0.005916,0.052655,0.038055,-0.010149,-0.059393,0.088135,0.681579,0.723000,-0.040890,0.105116,92.859671,-11.989845,4.935824
24513,NaN,2.114871,9.656135,-0.494192,0.054554,0.016326,0.084515,-0.008291,-0.058881,0.091952,0.681531,0.722998,-0.041464,0.105213,92.865426,-12.043648,4.895206
24514,NaN,2.209246,9.644644,-0.478542,0.141446,0.008026,0.092303,-0.016207,-0.055727,0.085796,0.681516,0.722968,-0.042010,0.105299,92.866310,-12.093964,4.856554
24515,NaN,2.300314,9.586592,-0.476669,0.233906,0.016952,0.054754,-0.020035,-0.045607,0.077888,0.681521,0.722922,-0.042494,0.105393,92.863706,-12.140103,4.824127
24516,NaN,2.278275,9.544500,-0.421809,0.219370,-0.036833,0.006501,-0.015615,-0.026529,0.055549,0.681525,0.722885,-0.042829,0.105481,92.861204,-12.173947,4.803443
24517,NaN,2.251195,9.549095,-0.433388,0.185674,-0.028043,0.005951,-0.009114,-0.009073,0.043627,0.681516,0.722863,-0.043060,0.105593,92.860147,-12.201516,4.793364
24518,NaN,2.203305,9.599004,-0.421920,0.125554,-0.047309,0.044059,0.003387,0.011391,0.033886,0.681471,0.722876,-0.043178,0.105748,92.863723,-12.224049,4.795512
24519,NaN,2.146078,9.656168,-0.432341,0.053022,-0.046444,0.088281,0.005208,0.016393,0.037482,0.681419,0.722891,-0.043291,0.105935,92.867691,-12.248823,4.800549
24520,NaN,2.116310,9.637849,-0.451799,0.022130,-0.029035,0.065049,0.000418,0.018640,0.030201,0.681389,0.722890,-0.043373,0.106103,92.868640,-12.269455,4.807048
24521,NaN,2.173512,9.632979,-0.448323,0.075765,-0.028051,0.072296,0.001129,0.008947,0.028137,0.681354,0.722897,-0.043480,0.106230,92.871161,-12.288668,4.808057
24522,NaN,2.175856,9.632443,-0.448463,0.075320,-0.028573,0.072298,0.006118,0.010282,0.019641,0.681307,0.722923,-0.043549,0.106333,92.876348,-12.303017,4.809970
24523,NaN,2.167354,9.615882,-0.477283,0.065271,-0.000338,0.055755,0.001943,0.012284,0.021042,0.681275,0.722932,-0.043619,0.106448,92.878828,-12.318272,4.813036
24524,NaN,2.232424,9.604060,-0.452219,0.131310,-0.019492,0.056890,-0.003223,0.010385,0.011834,0.681265,0.722928,-0.043665,0.106522,92.878601,-12.328158,4.815238
24525,NaN,2.179126,9.608114,-0.455365,0.076767,-0.021491,0.049637,0.006103,0.014273,0.008364,0.681225,0.722953,-0.043680,0.106602,92.883137,-12.336237,4.819834
24526,NaN,2.142080,9.613394,-0.548746,0.029554,0.067107,0.051469,0.005688,0.014600,0.006274,0.681187,0.722977,-0.043686,0.106675,92.887452,-12.343063,4.824669
24527,NaN,2.112392,9.642277,-0.554053,-0.006945,0.067294,0.073571,0.003195,0.014810,0.004927,0.681159,0.722993,-0.043689,0.106744,92.890226,-12.349193,4.829663
24528,NaN,2.114443,9.665451,-0.546345,-0.010194,0.058148,0.096239,-0.008607,0.008894,0.007134,0.681171,0.722972,-0.043726,0.106796,92.887071,-12.356347,4.831129
24529,NaN,2.116946,9.595759,-0.486512,0.011302,0.003724,0.025839,-0.003347,0.001349,0.005581,0.681163,0.722973,-0.043780,0.106818,92.887817,-12.362457,4.828288
24530,NaN,2.109702,9.626159,-0.500400,-0.004343,0.014701,0.054630,-0.003779,0.003916,0.003403,0.681159,0.722971,-0.043817,0.106841,92.888028,-12.367332,4.826949
24531,NaN,2.160176,9.605921,-0.444532,0.053221,-0.035384,0.042951,-0.005029,0.003143,0.008329,0.681157,0.722965,-0.043876,0.106877,92.887582,-12.375067,4.825026
24532,NaN,2.151727,9.612988,-0.465665,0.040388,-0.015779,0.049078,-0.001268,0.001466,0.004839,0.681142,0.722973,-0.043926,0.106897,92.889548,-12.380692,4.822209
24533,NaN,2.143007,9.620107,-0.486999,0.027546,0.003840,0.055207,-0.001664,-0.000445,0.002834,0.681129,0.722981,-0.043975,0.106902,92.891432,-12.385167,4.818319
24534,NaN,2.123481,9.665181,-0.463407,0.000619,-0.024740,0.093827,-0.001629,-0.004923,0.003005,0.681115,0.722991,-0.044041,0.106892,92.893984,-12.389559,4.811812
24535,NaN,2.143694,9.619969,-0.486709,0.026653,0.002813,0.055210,-0.004341,-0.004307,0.006168,0.681110,0.722991,-0.044116,0.106895,92.894851,-12.395816,4.805593
24536,NaN,2.121487,9.618461,-0.477174,0.005362,-0.008495,0.048504,-0.007231,-0.006008,0.002813,0.681116,0.722984,-0.044188,0.106878,92.894329,-12.400066,4.798456
24537,NaN,2.154962,9.635920,-0.457290,0.035321,-0.026980,0.071743,-0.001215,-0.005252,0.005098,0.681100,0.722995,-0.044261,0.106875,92.897109,-12.405699,4.791722
24538,NaN,2.166084,9.597893,-0.502293,0.048988,0.020690,0.039264,0.000811,0.001583,0.004097,0.681078,0.723011,-0.044307,0.106892,92.900249,-12.410904,4.788994
24539,NaN,2.139111,9.673393,-0.493176,0.006830,0.003601,0.106662,0.002256,0.002433,0.005775,0.681050,0.723030,-0.044354,0.106920,92.904073,-12.417132,4.786797
24540,NaN,2.150326,9.635350,-0.538089,0.020505,0.051272,0.074191,-0.001320,0.008184,0.004583,0.681037,0.723034,-0.044380,0.106962,92.905164,-12.422805,4.787921
24541,NaN,2.200779,9.615068,-0.482456,0.078046,0.001158,0.062515,0.000108,0.011272,0.006175,0.681018,0.723041,-0.044401,0.107023,92.906642,-12.429562,4.790851
24542,NaN,2.211846,9.631025,-0.453685,0.087155,-0.028136,0.079044,0.005244,0.019401,0.004020,0.680984,0.723062,-0.044383,0.107105,92.910075,-12.435240,4.798565
24543,NaN,2.144511,9.626589,-0.426929,0.024147,-0.060990,0.058893,0.015366,0.027106,0.004568,0.680915,0.723113,-0.044335,0.107221,92.918304,-12.441522,4.810882
24544,NaN,2.024785,9.688486,-0.522182,-0.115966,0.018285,0.098186,0.011198,0.025114,0.017259,0.680854,0.723148,-0.044343,0.107371,92.924510,-12.454944,4.821547
24545,NaN,2.159662,9.611213,-0.465557,0.034548,-0.022471,0.049088,0.000527,0.013623,0.019568,0.680827,0.723152,-0.044404,0.107485,92.926015,-12.469419,4.825461
24546,NaN,2.220591,9.622172,-0.514583,0.084280,0.029461,0.075389,0.014514,0.022019,0.022786,0.680750,0.723199,-0.044440,0.107643,92.934543,-12.485914,4.834145
24547,NaN,2.133649,9.639262,-0.472209,-0.002416,-0.022793,0.071153,0.018250,0.024810,0.019166,0.680662,0.723258,-0.044452,0.107800,92.944767,-12.500480,4.844598
24548,NaN,2.126962,9.645893,-0.494564,-0.015237,-0.003183,0.077286,0.009886,0.022386,0.027540,0.680600,0.723288,-0.044506,0.107975,92.950625,-12.519709,4.853350
24549,NaN,2.135755,9.591514,-0.488020,0.002364,-0.006523,0.025844,0.010475,0.015010,0.024902,0.680535,0.723324,-0.044576,0.108115,92.957677,-12.537283,4.857885
24550,NaN,2.184983,9.616986,-0.499650,0.040786,0.005845,0.061953,0.010739,0.012572,0.026249,0.680467,0.723362,-0.044659,0.108249,92.965260,-12.555485,4.860920
24551,NaN,2.201016,9.624984,-0.530792,0.048812,0.036228,0.074821,0.007852,0.015325,0.022886,0.680413,0.723389,-0.044722,0.108383,92.970768,-12.571893,4.865752
24552,NaN,2.173450,9.599449,-0.609648,0.016937,0.113405,0.047933,-0.001602,0.015999,0.025723,0.680391,0.723384,-0.044798,0.108526,92.970838,-12.589896,4.870809
24553,NaN,2.172643,9.606474,-0.549774,0.017535,0.053214,0.051583,-0.005842,0.008927,0.021170,0.680385,0.723368,-0.044884,0.108627,92.969273,-12.605168,4.871836
24554,NaN,2.165472,9.613288,-0.570767,0.004724,0.072825,0.057724,-0.002278,0.002950,0.016692,0.680368,0.723369,-0.044972,0.108691,92.970563,-12.617616,4.869518
24555,NaN,2.180721,9.675570,-0.526935,0.008105,0.026212,0.119538,-0.013562,-0.003368,0.021579,0.680387,0.723334,-0.045106,0.108748,92.966176,-12.632709,4.863410
24556,NaN,2.199079,9.637552,-0.489383,0.035255,-0.005920,0.084614,-0.024692,-0.008033,0.015926,0.680449,0.723265,-0.045240,0.108765,92.956029,-12.644393,4.854676
24557,NaN,2.220168,9.592144,-0.510602,0.061355,0.021635,0.046057,-0.026167,-0.013311,0.014116,0.680516,0.723195,-0.045387,0.108758,92.945677,-12.654967,4.843007
24558,NaN,2.215204,9.552906,-0.463646,0.067654,-0.021251,0.004394,-0.023603,-0.011583,0.010175,0.680575,0.723133,-0.045513,0.108743,92.936574,-12.663260,4.832368
24559,NaN,2.194654,9.574767,-0.445631,0.043490,-0.041187,0.020301,-0.017146,-0.004959,0.003369,0.680617,0.723090,-0.045587,0.108731,92.930255,-12.667942,4.825936
24560,NaN,2.235746,9.654520,-0.462450,0.063819,-0.026050,0.107868,-0.009994,-0.009804,0.005817,0.680630,0.723075,-0.045684,0.108711,92.928694,-12.673795,4.816472
24561,NaN,2.192541,9.674981,-0.436213,0.018791,-0.056735,0.117026,-0.013086,-0.006656,0.007051,0.680655,0.723046,-0.045776,0.108706,92.924891,-12.680529,4.808801
24562,NaN,2.211318,9.606432,-0.465773,0.047775,-0.020516,0.055834,-0.015479,-0.015431,0.006261,0.680687,0.723015,-0.045896,0.108666,92.920917,-12.686474,4.796024
24563,NaN,2.178503,9.589002,-0.484605,0.016953,-0.002981,0.032584,-0.008495,-0.013682,0.002159,0.680697,0.723007,-0.045992,0.108620,92.920626,-12.690222,4.784391
24564,NaN,2.184716,9.628123,-0.528845,0.009774,0.038852,0.074264,-0.009526,-0.012632,0.002569,0.680709,0.722995,-0.046086,0.108579,92.919680,-12.694136,4.773366
24565,NaN,2.117318,9.623947,-0.501253,-0.053248,0.006095,0.054013,-0.004904,-0.012553,0.009082,0.680702,0.722997,-0.046201,0.108561,92.921361,-12.701850,4.762241
24566,NaN,2.172594,9.619221,-0.497528,0.000386,0.006935,0.061372,-0.008650,-0.015341,0.012685,0.680706,0.722987,-0.046340,0.108545,92.921336,-12.711472,4.749323
24567,NaN,2.229745,9.637659,-0.486750,0.051130,-0.000899,0.091379,-0.002230,-0.014922,0.017022,0.680684,0.722998,-0.046491,0.108547,92.924946,-12.723718,4.736610
24568,NaN,2.238414,9.606870,-0.472519,0.065916,-0.012890,0.062595,-0.002959,-0.010104,0.007646,0.680670,0.723006,-0.046591,0.108534,92.927476,-12.730610,4.726913
24569,NaN,2.207968,9.612487,-0.484967,0.032252,-0.004005,0.061985,0.000315,-0.004040,0.018553,0.680641,0.723019,-0.046708,0.108580,92.931080,-12.743922,4.720442
24570,NaN,2.292239,9.555165,-0.483805,0.124843,0.004766,0.024690,0.000728,-0.004819,0.009372,0.680615,0.723036,-0.046794,0.108593,92.935054,-12.751956,4.713793
24571,NaN,2.264194,9.607453,-0.482166,0.085428,-0.003701,0.069362,0.007339,0.003915,0.003319,0.680571,0.723072,-0.046826,0.108618,92.941599,-12.756843,4.712525
24572,NaN,2.259732,9.630530,-0.556238,0.068762,0.066923,0.094567,0.006105,0.004905,-0.002946,0.680534,0.723105,-0.046831,0.108625,92.947312,-12.758113,4.711951
24573,NaN,2.253052,9.591536,-0.511635,0.075042,0.024072,0.052877,0.001220,0.007266,-0.010804,0.680520,0.723122,-0.046804,0.108613,92.949796,-12.755037,4.712987
24574,NaN,2.221829,9.620964,-0.516759,0.038508,0.024275,0.074903,-0.000110,0.004098,-0.011875,0.680511,0.723136,-0.046784,0.108585,92.951994,-12.751173,4.712209
24575,NaN,2.250603,9.592133,-0.511221,0.074150,0.023042,0.052887,-0.004583,0.006128,-0.017646,0.680522,0.723135,-0.046739,0.108544,92.951214,-12.744109,4.712706
24576,NaN,2.246066,9.599914,-0.451594,0.074684,-0.037169,0.056464,-0.000522,0.004429,-0.013966,0.680515,0.723148,-0.046710,0.108510,92.953118,-12.739059,4.712185
24577,NaN,2.235378,9.607551,-0.473030,0.061861,-0.017547,0.062614,0.001482,0.004379,-0.020731,0.680504,0.723170,-0.046657,0.108454,92.956081,-12.730260,4.711856
24578,NaN,2.234746,9.631307,-0.466033,0.058535,-0.026751,0.085252,0.007470,0.013833,-0.024289,0.680477,0.723208,-0.046554,0.108421,92.961280,-12.719582,4.717166
24579,NaN,2.264307,9.625912,-0.453837,0.091289,-0.036674,0.085876,0.005854,0.022257,-0.021245,0.680455,0.723234,-0.046436,0.108428,92.964399,-12.710969,4.727280
24580,NaN,2.194398,9.622249,-0.426915,0.028265,-0.069380,0.065557,0.010008,0.024717,-0.022766,0.680420,0.723274,-0.046300,0.108440,92.969660,-12.701485,4.738929
24581,NaN,2.174371,9.637151,-0.470292,0.003104,-0.029604,0.077856,0.009386,0.025436,-0.020270,0.680386,0.723311,-0.046173,0.108463,92.974382,-12.693493,4.750852
24582,NaN,2.186090,9.646181,-0.501048,0.011167,0.000738,0.090783,0.005849,0.022256,-0.021261,0.680364,0.723338,-0.046053,0.108470,92.977591,-12.684799,4.761012
24583,NaN,2.227957,9.626124,-0.526273,0.055309,0.030351,0.081707,0.001399,0.015578,-0.021229,0.680357,0.723353,-0.045960,0.108453,92.979065,-12.676057,4.767286
24584,NaN,2.182534,9.593069,-0.574429,0.015089,0.076761,0.041971,0.000778,0.016297,-0.018730,0.680351,0.723366,-0.045873,0.108446,92.980155,-12.668634,4.773874
24585,NaN,2.180788,9.593477,-0.574259,0.014637,0.076239,0.041975,0.003899,0.019807,-0.019839,0.680334,0.723387,-0.045767,0.108451,92.982577,-12.660765,4.782751
24586,NaN,2.199716,9.626058,-0.516498,0.033109,0.018059,0.074936,-0.001342,0.020441,-0.023862,0.680340,0.723391,-0.045649,0.108441,92.981887,-12.650530,4.791925
24587,NaN,2.189076,9.633686,-0.537361,0.020313,0.037672,0.081092,-0.002384,0.021940,-0.012172,0.680342,0.723389,-0.045566,0.108478,92.980520,-12.647064,4.801934
24588,NaN,2.195482,9.603517,-0.521917,0.035117,0.025698,0.052311,-0.010720,0.025718,-0.014965,0.680377,0.723356,-0.045467,0.108516,92.973841,-12.642076,4.813931
24589,NaN,2.224351,9.574824,-0.515106,0.070764,0.024446,0.030317,-0.008778,0.028168,-0.016405,0.680407,0.723329,-0.045353,0.108558,92.967902,-12.636446,4.827437
24590,NaN,2.192646,9.604316,-0.519121,0.034217,0.024661,0.052316,-0.003445,0.033913,-0.017570,0.680420,0.723317,-0.045213,0.108618,92.964326,-12.630208,4.844316
24591,NaN,2.150560,9.617736,-0.551901,-0.011786,0.053717,0.057841,-0.008665,0.028073,-0.015820,0.680448,0.723290,-0.045101,0.108663,92.958497,-12.624851,4.857861
24592,NaN,2.146048,9.625500,-0.491261,-0.011300,-0.006494,0.061366,-0.010254,0.016439,-0.012583,0.680479,0.723263,-0.045041,0.108675,92.953295,-12.620948,4.864341
24593,NaN,2.143638,9.602519,-0.497113,-0.008850,0.001695,0.038738,-0.010893,0.017169,-0.010159,0.680511,0.723233,-0.044989,0.108697,92.947568,-12.618515,4.871148
24594,NaN,2.199936,9.644958,-0.477723,0.038966,-0.014948,0.091423,-0.010467,0.014602,-0.007984,0.680539,0.723206,-0.044953,0.108718,92.942510,-12.617187,4.876411
24595,NaN,2.166420,9.627651,-0.496155,0.008212,0.002669,0.068160,-0.010697,0.015003,-0.003469,0.680566,0.723176,-0.044931,0.108757,92.937265,-12.618519,4.881876
24596,NaN,2.211561,9.630629,-0.512832,0.049496,0.023555,0.081756,-0.009239,0.013613,-0.001705,0.680586,0.723152,-0.044920,0.108796,92.933078,-12.620754,4.886371
24597,NaN,2.212671,9.654034,-0.504343,0.046122,0.014337,0.104384,-0.011072,0.010857,-0.005400,0.680614,0.723124,-0.044907,0.108813,92.928122,-12.620915,4.889381
24598,NaN,2.159479,9.588854,-0.447659,0.013594,-0.041180,0.026417,-0.009615,0.009467,-0.003637,0.680635,0.723101,-0.044903,0.108831,92.924238,-12.621923,4.891503
24599,NaN,2.195401,9.599116,-0.486075,0.042524,-0.000152,0.046180,-0.008942,0.004262,-0.005901,0.680655,0.723084,-0.044909,0.108823,92.921373,-12.621568,4.890769
24600,NaN,2.182715,9.613837,-0.447560,0.030644,-0.040222,0.055841,-0.006027,0.001483,-0.002377,0.680661,0.723077,-0.044935,0.108816,92.920576,-12.623064,4.888172
24601,NaN,2.168718,9.605244,-0.416697,0.021660,-0.071580,0.042874,-0.000834,0.002896,-0.004261,0.680649,0.723088,-0.044947,0.108811,92.922516,-12.623601,4.886527
24602,NaN,2.185639,9.606607,-0.506120,0.028849,0.018434,0.052347,-0.006208,-0.004828,0.002371,0.680652,0.723083,-0.045011,0.108798,92.922456,-12.627630,4.880087
24603,NaN,2.224771,9.570344,-0.479003,0.076838,-0.002976,0.024213,-0.000817,0.000659,-0.004183,0.680640,0.723095,-0.045032,0.108784,92.924695,-12.628226,4.877071
24604,NaN,2.192761,9.669166,-0.543360,0.018291,0.050967,0.116728,0.004077,0.011421,-0.001867,0.680612,0.723118,-0.045020,0.108818,92.928417,-12.630304,4.880286
24605,NaN,2.145929,9.643055,-0.532224,-0.020963,0.037767,0.080488,-0.008192,0.012551,-0.002028,0.680628,0.723098,-0.045010,0.108854,92.924963,-12.632346,4.884404
24606,NaN,2.200254,9.545816,-0.475657,0.057571,-0.006525,-0.005210,-0.011304,0.011255,-0.000881,0.680655,0.723068,-0.045011,0.108887,92.919900,-12.634983,4.887492
24607,NaN,2.225705,9.593832,-0.469458,0.072133,-0.013773,0.046845,0.004435,0.017802,-0.000004,0.680625,0.723087,-0.044984,0.108951,92.922989,-12.638391,4.894504
24608,NaN,2.217990,9.624374,-0.483699,0.056432,-0.002861,0.075630,0.004618,0.024112,-0.004748,0.680599,0.723105,-0.044919,0.109021,92.925373,-12.639191,4.905248
24609,NaN,2.196380,9.646293,-0.467003,0.032186,-0.022765,0.091433,-0.003099,0.027383,-0.004370,0.680602,0.723095,-0.044849,0.109101,92.922800,-12.640344,4.917792
24610,NaN,2.196733,9.592499,-0.540232,0.036733,0.053833,0.042731,0.003586,0.022933,-0.004333,0.680580,0.723110,-0.044790,0.109168,92.924747,-12.641347,4.927831
24611,NaN,2.174851,9.614464,-0.523805,0.012476,0.033913,0.058532,0.001349,0.020506,-0.010121,0.680567,0.723120,-0.044719,0.109207,92.925677,-12.639096,4.936769
24612,NaN,2.131238,9.658335,-0.491236,-0.035562,-0.005403,0.090122,0.002042,0.013066,-0.012311,0.680552,0.723137,-0.044666,0.109211,92.927953,-12.635246,4.941262
24613,NaN,2.137876,9.628047,-0.476760,-0.020746,-0.017356,0.061338,-0.002677,0.002376,-0.008035,0.680549,0.723142,-0.044665,0.109191,92.928913,-12.633558,4.939566
24614,NaN,2.126758,9.612211,-0.505129,-0.030582,0.010991,0.044888,-0.006163,-0.003064,-0.008830,0.680559,0.723139,-0.044684,0.109146,92.928579,-12.631227,4.934496
24615,NaN,2.216637,9.618252,-0.540555,0.052426,0.053197,0.072194,-0.002591,-0.008807,-0.007652,0.680553,0.723151,-0.044726,0.109085,92.930934,-12.629514,4.925901
24616,NaN,2.211011,9.602524,-0.488409,0.055774,0.001696,0.053034,-0.005062,-0.010833,-0.008930,0.680557,0.723156,-0.044769,0.109012,92.932227,-12.626898,4.916278
24617,NaN,2.223772,9.611452,-0.518737,0.063860,0.032005,0.066035,-0.001967,-0.007300,-0.010148,0.680551,0.723170,-0.044795,0.108949,92.934781,-12.623767,4.908811
24618,NaN,2.208942,9.603011,-0.488195,0.054878,0.000657,0.053039,-0.002391,-0.004735,-0.012314,0.680548,0.723181,-0.044805,0.108887,92.936799,-12.619393,4.902866
24619,NaN,2.200033,9.633824,-0.502294,0.039153,0.011566,0.081824,-0.002817,-0.002169,-0.014480,0.680548,0.723190,-0.044798,0.108828,92.938195,-12.613944,4.898578
24620,NaN,2.144248,9.638463,-0.505616,-0.015350,0.009853,0.074328,-0.004292,0.001455,-0.016316,0.680555,0.723193,-0.044772,0.108775,92.938305,-12.607462,4.896384
24621,NaN,2.184827,9.649070,-0.463825,0.026771,-0.029028,0.091433,-0.004490,-0.002618,-0.011651,0.680560,0.723196,-0.044777,0.108724,92.938849,-12.603578,4.891879
24622,NaN,2.173373,9.633307,-0.492299,0.016950,-0.000673,0.074993,-0.003440,-0.003677,-0.011981,0.680561,0.723203,-0.044785,0.108667,92.940131,-12.599426,4.886545
24623,NaN,2.175110,9.587129,-0.425689,0.035542,-0.063576,0.027031,-0.005521,-0.003797,-0.011243,0.680569,0.723203,-0.044797,0.108611,92.940141,-12.595754,4.881044
24624,NaN,2.226817,9.559905,-0.428950,0.092108,-0.054192,0.011928,-0.001822,0.003481,-0.015034,0.680568,0.723212,-0.044769,0.108570,92.941414,-12.590065,4.880000
24625,NaN,2.207576,9.574655,-0.472351,0.067014,-0.014392,0.024275,0.010836,0.004271,-0.012855,0.680520,0.723264,-0.044739,0.108541,92.949748,-12.585699,4.879276
24626,NaN,2.169457,9.657735,-0.485547,0.012205,-0.011460,0.097604,0.009595,0.007493,-0.019197,0.680480,0.723311,-0.044675,0.108503,92.957022,-12.577746,4.880711
24627,NaN,2.145156,9.656576,-0.477164,-0.009134,-0.022642,0.090759,0.004810,0.005745,-0.015227,0.680454,0.723342,-0.044635,0.108472,92.961784,-12.572157,4.881101
24628,NaN,2.133684,9.640776,-0.506203,-0.018941,0.005723,0.074325,0.002513,0.003790,-0.009905,0.680434,0.723365,-0.044621,0.108450,92.965534,-12.569411,4.880084
24629,NaN,2.175589,9.597403,-0.538690,0.028259,0.043999,0.042808,0.000859,0.001105,-0.007003,0.680419,0.723382,-0.044629,0.108428,92.968605,-12.568321,4.877340
24630,NaN,2.145800,9.649838,-0.536900,-0.011285,0.035508,0.087348,0.001521,-0.001862,-0.009346,0.680400,0.723405,-0.044637,0.108388,92.972511,-12.565727,4.872994
24631,NaN,2.158763,9.658724,-0.567402,-0.003188,0.065793,0.100376,-0.002214,-0.004667,-0.005708,0.680393,0.723416,-0.044670,0.108351,92.974668,-12.565230,4.867116
24632,NaN,2.200407,9.669149,-0.525630,0.038912,0.026878,0.117483,-0.007662,-0.003448,0.000602,0.680402,0.723406,-0.044724,0.108336,92.973581,-12.568281,4.861537
24633,NaN,2.182291,9.590765,-0.515902,0.038780,0.021770,0.036645,-0.015300,-0.002898,-0.010051,0.680445,0.723371,-0.044744,0.108286,92.967894,-12.565378,4.856517
24634,NaN,2.178790,9.544482,-0.529287,0.044270,0.038726,-0.008558,-0.008301,0.003517,-0.008310,0.680463,0.723357,-0.044743,0.108266,92.965494,-12.563537,4.855291
24635,NaN,2.166969,9.582478,-0.483930,0.029327,-0.010072,0.023617,0.001889,0.002284,-0.007408,0.680444,0.723378,-0.044744,0.108249,92.969055,-12.562266,4.853384
24636,NaN,2.191347,9.630721,-0.478770,0.043823,-0.017425,0.075679,0.007744,0.000738,-0.011629,0.680405,0.723421,-0.044731,0.108211,92.976180,-12.558443,4.850631
24637,NaN,2.168885,9.652695,-0.463218,0.019521,-0.037335,0.091422,0.006673,0.004032,-0.011374,0.680371,0.723459,-0.044709,0.108188,92.982257,-12.554964,4.849947
24638,NaN,2.158927,9.660120,-0.485045,0.006765,-0.017700,0.097600,0.001461,0.004848,-0.009571,0.680354,0.723477,-0.044694,0.108171,92.985271,-12.552441,4.849541
24639,NaN,2.194616,9.577612,-0.472792,0.060713,-0.021664,0.024303,0.002124,0.001882,-0.011913,0.680336,0.723501,-0.044679,0.108137,92.989027,-12.548592,4.847658
24640,NaN,2.196636,9.570593,-0.532444,0.059499,0.037517,0.020929,0.006542,-0.000515,-0.017813,0.680304,0.723542,-0.044649,0.108073,92.995580,-12.541192,4.844362
24641,NaN,2.198946,9.640730,-0.511521,0.050115,0.010776,0.088730,0.010489,-0.002108,-0.014701,0.680257,0.723595,-0.044636,0.108015,93.004506,-12.535635,4.839874
24642,NaN,2.227746,9.612092,-0.506936,0.085831,0.009480,0.066821,0.005471,0.002777,-0.017556,0.680230,0.723631,-0.044596,0.107965,93.010027,-12.528480,4.838501
24643,NaN,2.195855,9.641391,-0.512353,0.049216,0.009728,0.088736,-0.002853,0.002291,-0.014613,0.680232,0.723637,-0.044573,0.107922,93.010854,-12.523081,4.836947
24644,NaN,2.213074,9.573485,-0.542711,0.078586,0.046087,0.027818,-0.002638,0.004125,-0.019193,0.680235,0.723645,-0.044528,0.107869,93.011547,-12.515031,4.836415
24645,NaN,2.167107,9.594122,-0.517486,0.033406,0.015552,0.036677,0.002553,0.005546,-0.021067,0.680221,0.723669,-0.044468,0.107816,93.014976,-12.506027,4.836845
24646,NaN,2.166456,9.617838,-0.510135,0.029984,0.006281,0.059275,-0.001630,0.007538,-0.019670,0.680222,0.723678,-0.044408,0.107774,93.015810,-12.497806,4.838329
24647,NaN,2.150874,9.609528,-0.479377,0.020955,-0.025013,0.046218,0.000386,0.014368,-0.020630,0.680219,0.723690,-0.044323,0.107753,93.016806,-12.489334,4.843673
24648,NaN,2.172938,9.634796,-0.480688,0.038402,-0.023655,0.075689,-0.002680,0.008593,-0.019336,0.680223,0.723695,-0.044262,0.107715,93.016907,-12.481336,4.845765
24649,NaN,2.140877,9.664100,-0.485761,0.001781,-0.023386,0.097590,0.001223,0.011477,-0.016376,0.680214,0.723710,-0.044200,0.107699,93.018815,-12.475189,4.849411
24650,NaN,2.117337,9.609086,-0.550234,-0.014302,0.042678,0.042178,-0.004524,0.008065,-0.023099,0.680227,0.723710,-0.044128,0.107647,93.017902,-12.465023,4.851310
24651,NaN,2.189225,9.614315,-0.495485,0.060902,-0.005836,0.059978,-0.006673,0.008422,-0.011274,0.680241,0.723700,-0.044097,0.107638,93.015843,-12.461767,4.853383
24652,NaN,2.171229,9.652294,-0.530911,0.032868,0.025207,0.094945,0.002297,0.008183,-0.016624,0.680226,0.723721,-0.044044,0.107609,93.018867,-12.455309,4.855151
24653,NaN,2.125532,9.672803,-0.505304,-0.012345,-0.005315,0.103772,-0.008946,0.010456,-0.017199,0.680253,0.723703,-0.043989,0.107585,93.015110,-12.448740,4.858278
24654,NaN,2.178014,9.592063,-0.581372,0.049518,0.081229,0.040249,-0.012463,0.009479,-0.018143,0.680293,0.723674,-0.043934,0.107552,93.009504,-12.441452,4.860851
24655,NaN,2.127503,9.596626,-0.503331,0.008027,-0.000222,0.029811,-0.002342,0.014971,-0.017459,0.680297,0.723675,-0.043860,0.107544,93.008898,-12.434868,4.866416
24656,NaN,2.128543,9.643529,-0.488036,0.001593,-0.018262,0.074991,-0.008132,0.009801,-0.013022,0.680319,0.723660,-0.043820,0.107531,93.005767,-12.430519,4.869020
24657,NaN,2.118261,9.651078,-0.508303,-0.011163,0.001388,0.081178,-0.014137,0.009025,-0.015319,0.680363,0.723624,-0.043779,0.107507,92.999231,-12.424918,4.871294
24658,NaN,2.138585,9.629711,-0.523332,0.012272,0.020248,0.065481,-0.006243,0.005855,-0.009105,0.680374,0.723616,-0.043766,0.107493,92.997706,-12.422692,4.871465
24659,NaN,2.116395,9.651604,-0.506076,-0.012078,0.000352,0.081178,-0.013539,0.006538,-0.006573,0.680411,0.723582,-0.043764,0.107491,92.991895,-12.422110,4.871969
24660,NaN,2.169067,9.624503,-0.508280,0.044533,0.009661,0.066188,-0.010669,0.008245,-0.003210,0.680436,0.723556,-0.043767,0.107505,92.987572,-12.423328,4.873360
24661,NaN,2.146243,9.623000,-0.498090,0.023187,-0.001456,0.059295,-0.011363,0.013446,-0.000941,0.680464,0.723524,-0.043763,0.107545,92.982101,-12.426149,4.877517
24662,NaN,2.122500,9.598157,-0.495192,0.004873,-0.003820,0.029812,-0.008517,0.017388,0.002350,0.680480,0.723500,-0.043753,0.107612,92.977894,-12.430820,4.884095
24663,NaN,2.130191,9.660662,-0.531495,-0.005307,0.029077,0.094265,-0.006676,0.017914,0.006117,0.680488,0.723480,-0.043756,0.107694,92.974617,-12.437761,4.890781
24664,NaN,2.106795,9.635755,-0.528479,-0.023618,0.026718,0.064781,-0.014162,0.020755,0.001994,0.680526,0.723435,-0.043736,0.107770,92.966747,-12.442328,4.899344
24665,NaN,2.139137,9.630088,-0.514066,0.009101,0.016626,0.065491,-0.013568,0.018266,0.010737,0.680555,0.723391,-0.043754,0.107871,92.959671,-12.451888,4.906695
24666,NaN,2.148090,9.599420,-0.498164,0.023963,0.004712,0.036715,-0.013139,0.015702,0.012897,0.680581,0.723350,-0.043791,0.107966,92.953094,-12.462542,4.911969
24667,NaN,2.164020,9.631369,-0.519801,0.029082,0.026185,0.072398,-0.011197,0.013517,0.005653,0.680604,0.723317,-0.043807,0.108032,92.947875,-12.469080,4.916442
24668,NaN,2.142124,9.629657,-0.509672,0.007763,0.015061,0.065494,-0.009334,0.011806,0.009493,0.680618,0.723292,-0.043842,0.108102,92.943948,-12.477670,4.919538
24669,NaN,2.106627,9.619060,-0.469665,-0.022155,-0.026816,0.045485,-0.002590,0.002911,0.009663,0.680606,0.723293,-0.043906,0.108143,92.944942,-12.486126,4.917431
24670,NaN,2.137720,9.683016,-0.515337,-0.011448,0.016647,0.116855,-0.007402,0.003389,0.013547,0.680609,0.723277,-0.043984,0.108198,92.943214,-12.496788,4.915472
24671,NaN,2.207388,9.594519,-0.489426,0.075771,0.003140,0.044348,-0.010270,0.001684,0.010182,0.680623,0.723254,-0.044055,0.108237,92.940089,-12.505565,4.912983
24672,NaN,2.194496,9.585516,-0.458559,0.066737,-0.028147,0.031243,0.002580,0.006574,0.007726,0.680593,0.723272,-0.044095,0.108285,92.943638,-12.512991,4.913066
24673,NaN,2.200008,9.601414,-0.510601,0.062575,0.022260,0.050552,0.003182,0.010317,0.005169,0.680564,0.723290,-0.044114,0.108340,92.947036,-12.519233,4.915525
24674,NaN,2.179081,9.622958,-0.494520,0.038231,0.002363,0.066219,0.003182,0.010317,0.005169,0.680535,0.723309,-0.044133,0.108393,92.950439,-12.525306,4.917878
24675,NaN,2.224440,9.626151,-0.512138,0.079523,0.023031,0.080055,-0.000274,0.011105,-0.006939,0.680525,0.723318,-0.044107,0.108408,92.951636,-12.524634,4.921035
24676,NaN,2.222616,9.603043,-0.519140,0.082108,0.031287,0.057482,-0.000297,0.013340,-0.007009,0.680515,0.723325,-0.044073,0.108430,92.952580,-12.523828,4.925528
24677,NaN,2.176468,9.600042,-0.501202,0.039890,0.009589,0.043647,0.002388,0.017206,-0.010297,0.680499,0.723340,-0.044013,0.108456,92.954511,-12.521347,4.932441
24678,NaN,2.169110,9.654007,-0.507933,0.021109,0.011669,0.095002,0.000328,0.014846,-0.009493,0.680489,0.723350,-0.043964,0.108475,92.955607,-12.519165,4.937892
24679,NaN,2.207657,9.618084,-0.480472,0.069116,-0.009812,0.066952,-0.004842,0.011182,-0.007556,0.680496,0.723343,-0.043940,0.108487,92.954152,-12.518125,4.941047
24680,NaN,2.196510,9.602313,-0.508744,0.059427,0.018619,0.050579,-0.001890,0.012414,-0.015273,0.680496,0.723348,-0.043880,0.108477,92.954249,-12.512563,4.945247
24681,NaN,2.150912,9.622696,-0.483595,0.014174,-0.011843,0.059305,0.003732,0.011280,-0.014982,0.680477,0.723371,-0.043823,0.108465,92.957609,-12.507209,4.948623
24682,NaN,2.164527,9.655112,-0.506480,0.019301,0.009601,0.095008,-0.002919,0.011232,-0.014869,0.680481,0.723373,-0.043769,0.108452,92.957269,-12.501843,4.952119
24683,NaN,2.207311,9.635425,-0.530816,0.063632,0.039018,0.086294,-0.006387,0.005784,-0.015681,0.680496,0.723366,-0.043732,0.108419,92.955680,-12.496024,4.952739
24684,NaN,2.213466,9.605341,-0.515712,0.078507,0.027112,0.057524,-0.007867,0.009401,-0.017501,0.680518,0.723352,-0.043677,0.108389,92.952721,-12.489098,4.955241
24685,NaN,2.166377,9.602532,-0.497200,0.036276,0.005437,0.043664,-0.004779,0.012940,-0.018699,0.680532,0.723347,-0.043606,0.108370,92.951029,-12.481739,4.959836
24686,NaN,2.149152,9.663952,-0.524825,0.005202,0.027674,0.101216,-0.008270,0.009726,-0.019580,0.680557,0.723333,-0.043543,0.108334,92.947785,-12.473633,4.962590
24687,NaN,2.146426,9.641099,-0.530939,0.007784,0.035970,0.078646,-0.012657,0.007638,-0.013548,0.680596,0.723302,-0.043514,0.108309,92.942169,-12.469016,4.963556
24688,NaN,2.141413,9.648636,-0.470303,0.007964,-0.024263,0.081875,-0.012657,0.007638,-0.013546,0.680633,0.723272,-0.043483,0.108285,92.936715,-12.464301,4.964903
24689,NaN,2.092346,9.599185,-0.466124,-0.028171,-0.028347,0.022857,-0.009472,0.002240,-0.014471,0.680658,0.723256,-0.043463,0.108242,92.933802,-12.458996,4.963439
24690,NaN,2.113806,9.601136,-0.474181,-0.007728,-0.018293,0.029794,-0.004550,0.006307,-0.011902,0.680665,0.723254,-0.043437,0.108221,92.933173,-12.455182,4.963956
24691,NaN,2.150360,9.635186,-0.505559,0.018272,0.013710,0.072449,-0.004476,-0.000397,-0.011698,0.680670,0.723256,-0.043435,0.108178,92.933394,-12.451326,4.960637
24692,NaN,2.158235,9.628226,-0.483258,0.030102,-0.006984,0.066245,-0.010748,0.001457,-0.009571,0.680697,0.723235,-0.043438,0.108146,92.929841,-12.448704,4.958242
24693,NaN,2.169878,9.614128,-0.519867,0.041315,0.032051,0.056829,-0.011151,0.001784,-0.011652,0.680728,0.723212,-0.043433,0.108107,92.925893,-12.444952,4.955945
24694,NaN,2.156093,9.628816,-0.481068,0.029207,-0.008010,0.066247,-0.010148,0.005199,-0.012118,0.680755,0.723192,-0.043414,0.108080,92.922195,-12.440983,4.955818
24695,NaN,2.167599,9.614758,-0.517715,0.040420,0.031017,0.056836,-0.009119,0.006379,-0.012516,0.680779,0.723174,-0.043389,0.108057,92.918872,-12.436909,4.956366
24696,NaN,2.208089,9.625535,-0.475010,0.082346,-0.008093,0.073938,-0.010173,0.007432,-0.012183,0.680807,0.723153,-0.043362,0.108038,92.914877,-12.432968,4.957549
24697,NaN,2.174162,9.608178,-0.493786,0.051785,0.009798,0.050634,-0.013687,0.006450,-0.013132,0.680847,0.723120,-0.043336,0.108013,92.908982,-12.428585,4.958336
24698,NaN,2.172669,9.608586,-0.492431,0.051345,0.009276,0.050637,-0.010379,0.011830,-0.018890,0.680880,0.723096,-0.043270,0.107986,92.904272,-12.420934,4.962295
24699,NaN,2.124279,9.582456,-0.480894,0.012178,-0.003557,0.014169,-0.011758,0.006506,-0.020436,0.680918,0.723072,-0.043216,0.107937,92.899432,-12.412329,4.963366
24700,NaN,2.159913,9.616824,-0.511418,0.038183,0.028408,0.056853,-0.013162,0.003416,-0.022049,0.680961,0.723044,-0.043168,0.107869,92.894168,-12.402625,4.962488
24701,NaN,2.170335,9.603081,-0.547689,0.049420,0.067434,0.047459,-0.015997,-0.000527,-0.025344,0.681015,0.723010,-0.043123,0.107776,92.887699,-12.390965,4.959428
24702,NaN,2.154022,9.594789,-0.515979,0.040360,0.036183,0.034296,-0.011859,0.001964,-0.026868,0.681056,0.722988,-0.043063,0.107686,92.883334,-12.378462,4.957839
24703,NaN,2.137005,9.679663,-0.535770,0.006172,0.049590,0.114408,-0.013914,-0.000402,-0.026067,0.681103,0.722961,-0.043014,0.107592,92.878061,-12.366482,4.954868
24704,NaN,2.120699,9.671360,-0.503694,-0.002895,0.018340,0.101239,-0.021619,0.000587,-0.025615,0.681178,0.722907,-0.042968,0.107500,92.868285,-12.354656,4.952433
24705,NaN,2.144022,9.626991,-0.444390,0.036514,-0.033918,0.060042,-0.019786,0.001112,-0.021849,0.681243,0.722859,-0.042928,0.107427,92.859625,-12.345030,4.950830
24706,NaN,2.132022,9.611501,-0.471741,0.026880,-0.005449,0.043694,-0.012705,-0.001387,-0.019816,0.681282,0.722835,-0.042905,0.107349,92.855239,-12.336467,4.947066
24707,NaN,2.107220,9.610283,-0.461958,0.005528,-0.016518,0.036730,-0.007916,0.000384,-0.023754,0.681306,0.722827,-0.042858,0.107268,92.853354,-12.325834,4.944612
24708,NaN,2.106332,9.634000,-0.453851,0.002012,-0.025851,0.059288,-0.007734,-0.001783,-0.017116,0.681325,0.722820,-0.042843,0.107199,92.851882,-12.318806,4.940537
24709,NaN,2.118472,9.643393,-0.483222,0.010192,0.004340,0.072470,-0.014327,-0.006318,-0.016869,0.681367,0.722793,-0.042845,0.107116,92.847274,-12.311825,4.934306
24710,NaN,2.092246,9.595509,-0.488025,-0.004985,0.010911,0.020385,-0.012091,-0.006119,-0.011029,0.681398,0.722772,-0.042869,0.107052,92.843884,-12.308157,4.927513
24711,NaN,2.106235,9.627976,-0.510330,0.000110,0.032308,0.056129,-0.006602,-0.015777,-0.005998,0.681405,0.722773,-0.042942,0.106971,92.844801,-12.307185,4.914827
24712,NaN,2.105647,9.628131,-0.509829,-0.000331,0.031790,0.056131,-0.010766,-0.016041,-0.004532,0.681425,0.722760,-0.043023,0.106893,92.843448,-12.306953,4.902034
24713,NaN,2.088463,9.666002,-0.544883,-0.028388,0.062808,0.091121,-0.011302,-0.024257,-0.001858,0.681444,0.722750,-0.043141,0.106796,92.842836,-12.308152,4.884519
24714,NaN,2.088485,9.666032,-0.544267,-0.028829,0.062289,0.091123,-0.012173,-0.025374,0.005112,0.681463,0.722735,-0.043289,0.106717,92.841904,-12.313174,4.865979
24715,NaN,2.086975,9.619453,-0.558155,-0.023116,0.079401,0.046016,-0.016613,-0.023010,0.011008,0.681494,0.722703,-0.043450,0.106668,92.838250,-12.321720,4.849128
24716,NaN,2.119511,9.613824,-0.544095,0.009589,0.069240,0.046780,-0.021210,-0.020713,0.010336,0.681543,0.722654,-0.043606,0.106622,92.831594,-12.329866,4.833166
24717,NaN,2.162093,9.624156,-0.501122,0.051437,0.030071,0.063881,-0.017611,-0.026433,0.011481,0.681578,0.722620,-0.043783,0.106561,92.827717,-12.338632,4.813957
24718,NaN,2.121135,9.690178,-0.460163,-0.000050,-0.017989,0.117579,-0.014834,-0.018019,0.014647,0.681602,0.722590,-0.043942,0.106540,92.824408,-12.349324,4.799448
24719,NaN,2.130422,9.659428,-0.444361,0.014826,-0.029861,0.088807,-0.026760,-0.012831,0.016452,0.681670,0.722516,-0.044096,0.106543,92.813601,-12.361303,4.787978
24720,NaN,2.172337,9.646407,-0.408114,0.059771,-0.060213,0.083351,-0.020948,-0.009871,0.012107,0.681720,0.722462,-0.044221,0.106541,92.805757,-12.370774,4.778318
24721,NaN,2.123212,9.643031,-0.469441,0.004774,-0.001901,0.072474,-0.018414,-0.001067,0.019764,0.681758,0.722410,-0.044340,0.106601,92.798364,-12.384881,4.774044
24722,NaN,2.125007,9.642718,-0.467740,0.004329,-0.002419,0.072475,-0.018735,-0.007444,0.017884,0.681797,0.722361,-0.044476,0.106629,92.791522,-12.397728,4.765643
24723,NaN,2.133544,9.588620,-0.459694,0.022317,-0.005443,0.021154,-0.013734,-0.010077,0.020636,0.681817,0.722328,-0.044630,0.106657,92.787795,-12.412113,4.755502
24724,NaN,2.111729,9.563244,-0.457579,0.004080,-0.007652,-0.008385,-0.004625,-0.007975,0.021786,0.681803,0.722326,-0.044775,0.106699,92.789132,-12.427179,4.746678
24725,NaN,2.131004,9.641508,-0.465403,0.002960,-0.003950,0.072475,-0.005219,-0.011726,0.024334,0.681789,0.722323,-0.044944,0.106737,92.790557,-12.443739,4.735490
24726,NaN,2.185270,9.590714,-0.476148,0.062745,0.014056,0.035144,-0.006652,-0.012580,0.022659,0.681781,0.722316,-0.045108,0.106765,92.791325,-12.459176,4.723941
24727,NaN,2.242477,9.609685,-0.464699,0.113219,0.005557,0.065462,-0.003705,-0.011324,0.014949,0.681766,0.722321,-0.045239,0.106773,92.793574,-12.470294,4.713538
24728,NaN,2.225771,9.624031,-0.507786,0.088284,0.045399,0.077915,0.001053,-0.007311,0.010929,0.681738,0.722340,-0.045339,0.106782,92.798023,-12.479164,4.705411
24729,NaN,2.245295,9.632520,-0.457318,0.109210,-0.004311,0.088019,-0.004515,-0.004403,-0.000474,0.681737,0.722341,-0.045393,0.106761,92.798737,-12.481666,4.699133
24730,NaN,2.244966,9.632621,-0.456813,0.108764,-0.004836,0.088024,-0.007813,-0.003540,-0.005975,0.681750,0.722332,-0.045424,0.106724,92.797523,-12.480968,4.693700
24731,NaN,2.243105,9.609593,-0.463567,0.111415,0.003505,0.065483,-0.006217,0.003629,-0.008986,0.681763,0.722324,-0.045422,0.106700,92.796126,-12.478791,4.692159
24732,NaN,2.209078,9.592272,-0.483185,0.080944,0.021493,0.042167,-0.001190,0.005018,-0.017437,0.681760,0.722335,-0.045379,0.106656,92.797552,-12.471772,4.692071
24733,NaN,2.164145,9.635706,-0.450319,0.032498,-0.017728,0.073251,-0.003001,0.002261,-0.021128,0.681765,0.722343,-0.045331,0.106591,92.798261,-12.462539,4.690741
24734,NaN,2.139165,9.634495,-0.441298,0.011158,-0.028757,0.066245,0.000378,0.000951,-0.026694,0.681761,0.722364,-0.045268,0.106501,92.801043,-12.450109,4.688534
24735,NaN,2.127810,9.642347,-0.462615,-0.001551,-0.009098,0.072471,-0.003407,0.002590,-0.023201,0.681768,0.722371,-0.045213,0.106431,92.801501,-12.439858,4.687426
24736,NaN,2.124661,9.619580,-0.469786,0.001118,-0.000772,0.049929,-0.002512,-0.004780,-0.018848,0.681769,0.722384,-0.045199,0.106346,92.803398,-12.431758,4.681637
24737,NaN,2.157862,9.607623,-0.516417,0.033321,0.048771,0.047637,-0.000188,-0.005037,-0.024076,0.681765,0.722405,-0.045168,0.106243,92.806496,-12.420749,4.675550
24738,NaN,2.151780,9.615024,-0.457214,0.033343,-0.011469,0.050712,-0.000565,-0.006943,-0.026086,0.681762,0.722427,-0.045135,0.106126,92.809734,-12.408445,4.668702
24739,NaN,2.172956,9.640587,-0.458860,0.050650,-0.010349,0.080267,0.003512,0.000029,-0.027752,0.681746,0.722460,-0.045067,0.106034,92.814507,-12.395516,4.666440
24740,NaN,2.169005,9.617989,-0.466548,0.053325,-0.002022,0.057729,0.001674,-0.000497,-0.031501,0.681739,0.722487,-0.044991,0.105923,92.818180,-12.380294,4.663528
24741,NaN,2.157020,9.625962,-0.488132,0.040613,0.017663,0.063961,0.000590,0.002788,-0.031225,0.681738,0.722508,-0.044908,0.105823,92.820703,-12.365491,4.662197
24742,NaN,2.149250,9.610265,-0.436375,0.043744,-0.033729,0.044485,0.003668,0.006341,-0.032422,0.681726,0.722539,-0.044804,0.105734,92.824653,-12.349935,4.663319
24743,NaN,2.137322,9.618211,-0.457992,0.031043,-0.014057,0.050716,0.001963,0.008110,-0.029669,0.681719,0.722562,-0.044705,0.105662,92.827400,-12.336124,4.665469
24744,NaN,2.134475,9.618852,-0.457812,0.030597,-0.014575,0.050717,-0.002575,0.005934,-0.030202,0.681729,0.722571,-0.044613,0.105577,92.827839,-12.321827,4.666290
24745,NaN,2.104734,9.641329,-0.522400,-0.006554,0.045475,0.069414,0.005597,0.000156,-0.028463,0.681706,0.722611,-0.044543,0.105481,92.833678,-12.308402,4.663850
24746,NaN,2.142437,9.629204,-0.488424,0.038363,0.015073,0.063975,-0.001864,0.000738,-0.032476,0.681713,0.722625,-0.044460,0.105371,92.835158,-12.292656,4.661695
24747,NaN,2.086411,9.656683,-0.484971,-0.019240,0.004926,0.078695,0.006378,0.001732,-0.024368,0.681687,0.722665,-0.044401,0.105292,92.841175,-12.281595,4.659730
24748,NaN,2.129434,9.660831,-0.502626,0.022106,0.025388,0.092748,-0.006921,0.001575,-0.024099,0.681708,0.722661,-0.044348,0.105212,92.839704,-12.270666,4.657825
24749,NaN,2.116265,9.622145,-0.538336,0.015675,0.062753,0.053916,-0.006109,0.000917,-0.019947,0.681722,0.722659,-0.044311,0.105147,92.838910,-12.262246,4.655915
24750,NaN,2.074402,9.618474,-0.439486,-0.013904,-0.038649,0.036660,0.000851,0.007373,-0.018197,0.681713,0.722676,-0.044256,0.105110,92.841207,-12.254860,4.657233
24751,NaN,2.087552,9.651163,-0.462203,-0.008836,-0.017364,0.072457,-0.001881,0.007957,-0.015049,0.681711,0.722684,-0.044209,0.105088,92.841980,-12.249394,4.659300
24752,NaN,2.148382,9.617404,-0.443812,0.060106,-0.028434,0.051518,-0.004433,0.012619,-0.016514,0.681721,0.722680,-0.044146,0.105074,92.840609,-12.243120,4.663641
24753,NaN,2.183065,9.628749,-0.482801,0.089205,0.012199,0.071825,0.004982,0.009880,-0.019726,0.681698,0.722711,-0.044074,0.105044,92.844966,-12.235055,4.666673
24754,NaN,2.112985,9.623664,-0.456377,0.026069,-0.019764,0.050721,0.004040,0.019476,-0.024125,0.681684,0.722734,-0.043955,0.105030,92.847553,-12.224621,4.675251
24755,NaN,2.101685,9.631440,-0.477879,0.013372,-0.000105,0.056958,0.002709,0.011911,-0.025604,0.681672,0.722757,-0.043855,0.104988,92.850390,-12.213280,4.679844
24756,NaN,2.135721,9.642923,-0.517227,0.042497,0.040526,0.077275,0.005229,0.009484,-0.024198,0.681650,0.722790,-0.043769,0.104939,92.854898,-12.202520,4.682574
24757,NaN,2.120708,9.657540,-0.479491,0.030194,0.000478,0.086529,-0.000363,0.008350,-0.024400,0.681649,0.722803,-0.043692,0.104884,92.856297,-12.191842,4.684521
24758,NaN,2.064299,9.661531,-0.483027,-0.024271,-0.000799,0.078685,-0.002657,0.006370,-0.019118,0.681653,0.722809,-0.043639,0.104839,92.856704,-12.183900,4.685280
24759,NaN,2.115799,9.635209,-0.486096,0.032458,0.008323,0.064004,-0.006134,0.003138,-0.019992,0.681670,0.722805,-0.043595,0.104778,92.855427,-12.175321,4.684185
24760,NaN,2.081357,9.617765,-0.505929,0.002043,0.026394,0.040673,0.000000,-0.004996,-0.017459,0.681661,0.722826,-0.043586,0.104698,92.858770,-12.168004,4.678243
24761,NaN,2.125934,9.645145,-0.516115,0.040245,0.037952,0.077294,-0.003510,-0.005993,-0.018397,0.681664,0.722835,-0.043576,0.104613,92.860223,-12.160131,4.672029
24762,NaN,2.141939,9.631088,-0.472714,0.064242,-0.002952,0.064817,-0.006437,-0.003243,-0.021868,0.681681,0.722834,-0.043548,0.104523,92.859633,-12.150340,4.667242
24763,NaN,2.112771,9.653357,-0.536900,0.027120,0.057100,0.083543,-0.001286,0.000455,-0.023796,0.681680,0.722850,-0.043497,0.104443,92.861572,-12.139656,4.665007
24764,NaN,2.106816,9.660692,-0.477239,0.027060,-0.003144,0.086538,-0.006471,-0.001010,-0.021926,0.681698,0.722847,-0.043461,0.104361,92.860685,-12.129896,4.661530
24765,NaN,2.093659,9.622010,-0.512837,0.020674,0.034280,0.047732,-0.010386,-0.001683,-0.024933,0.681731,0.722832,-0.043420,0.104267,92.857595,-12.118607,4.657719
24766,NaN,2.121945,9.594012,-0.506743,0.056508,0.032909,0.026023,-0.008305,-0.001545,-0.025664,0.681757,0.722824,-0.043373,0.104170,92.855699,-12.106693,4.654037
24767,NaN,2.056133,9.605233,-0.531915,-0.010197,0.051846,0.024402,0.003971,-0.002550,-0.025525,0.681737,0.722859,-0.043323,0.104075,92.861011,-12.095004,4.650032
24768,NaN,2.031758,9.627056,-0.516575,-0.034700,0.031997,0.039870,0.013428,-0.007510,-0.028666,0.681685,0.722930,-0.043275,0.103950,92.872277,-12.081201,4.642949
24769,NaN,2.026278,9.657579,-0.451819,-0.037947,-0.037128,0.065366,0.024029,-0.008980,-0.025720,0.681592,0.723036,-0.043235,0.103836,92.889863,-12.069093,4.635334
24770,NaN,2.070565,9.685003,-0.463957,0.000242,-0.025602,0.102004,0.010679,-0.010940,-0.014370,0.681541,0.723096,-0.043251,0.103748,92.900057,-12.063367,4.625829
24771,NaN,2.091188,9.663906,-0.480896,0.023838,-0.006780,0.086544,-0.001439,-0.009871,-0.007960,0.681531,0.723112,-0.043294,0.103683,92.903194,-12.061467,4.616799
24772,NaN,2.088779,9.617572,-0.495400,0.029728,0.010464,0.041505,-0.009431,-0.006288,-0.003083,0.681548,0.723098,-0.043345,0.103646,92.901367,-12.062334,4.609682
24773,NaN,2.154372,9.676829,-0.447240,0.085968,-0.036191,0.110703,-0.003669,-0.001071,-0.007482,0.681547,0.723102,-0.043360,0.103616,92.902241,-12.061045,4.606042
24774,NaN,2.153628,9.677040,-0.446262,0.085519,-0.036712,0.110705,-0.015035,0.007820,-0.008206,0.681590,0.723063,-0.043348,0.103611,92.895446,-12.059389,4.607332
24775,NaN,2.165778,9.663214,-0.481944,0.096896,0.002301,0.101504,-0.024456,0.010539,-0.004997,0.681667,0.722989,-0.043345,0.103625,92.882908,-12.059857,4.610035
24776,NaN,2.140759,9.615054,-0.485297,0.081896,0.009099,0.049404,-0.024974,0.017569,-0.007252,0.681747,0.722911,-0.043308,0.103656,92.869234,-12.059028,4.617001
24777,NaN,2.067762,9.633177,-0.529442,0.003022,0.048280,0.054010,-0.023877,0.014286,-0.007520,0.681823,0.722838,-0.043280,0.103676,92.856566,-12.057926,4.622300
24778,NaN,2.058206,9.640688,-0.548397,-0.009630,0.067964,0.060261,-0.023434,0.011722,-0.005385,0.681896,0.722768,-0.043269,0.103693,92.844500,-12.057996,4.625790
24779,NaN,2.045331,9.654888,-0.507738,-0.021966,0.027890,0.069457,-0.031931,0.007078,0.002155,0.681993,0.722670,-0.043302,0.103722,92.828344,-12.062388,4.627101
24780,NaN,2.034834,9.615780,-0.541403,-0.028259,0.065351,0.030677,-0.023742,0.001331,0.003880,0.682060,0.722602,-0.043360,0.103733,92.817428,-12.067464,4.624242
24781,NaN,2.045057,9.631784,-0.510354,-0.019666,0.035751,0.046943,-0.020489,-0.006280,0.002995,0.682114,0.722549,-0.043437,0.103715,92.809314,-12.071775,4.617331
24782,NaN,2.031712,9.622571,-0.478338,-0.028805,0.004599,0.033616,-0.018911,-0.014359,0.004913,0.682159,0.722505,-0.043550,0.103674,92.803093,-12.077003,4.605262
24783,NaN,2.066609,9.686886,-0.441740,-0.005735,-0.032379,0.101983,-0.017521,-0.011265,0.006525,0.682198,0.722466,-0.043655,0.103655,92.797479,-12.083495,4.595611
24784,NaN,2.179567,9.673458,-0.491235,0.101515,0.028193,0.114876,-0.031300,-0.006664,0.004614,0.682290,0.722376,-0.043747,0.103637,92.783217,-12.088770,4.588056
24785,NaN,2.149931,9.585342,-0.450311,0.093210,-0.006929,0.020676,-0.025896,0.005654,0.004513,0.682364,0.722298,-0.043794,0.103668,92.770581,-12.094464,4.587976
24786,NaN,2.026477,9.676312,-0.476210,-0.049229,0.004923,0.084886,-0.016835,0.010036,0.005589,0.682407,0.722248,-0.043825,0.103717,92.762565,-12.100762,4.590169
24787,NaN,2.089627,9.642390,-0.455992,0.019724,-0.006247,0.064039,-0.030637,0.001615,0.008519,0.682495,0.722156,-0.043898,0.103748,92.747828,-12.108529,4.588098
24788,NaN,2.131476,9.553527,-0.501741,0.073850,0.049693,-0.011826,-0.009910,-0.001489,-0.005269,0.682516,0.722139,-0.043926,0.103720,92.745130,-12.108296,4.583853
24789,NaN,2.111496,9.644622,-0.462884,0.039708,0.003164,0.071129,0.010458,0.002503,-0.014762,0.682470,0.722190,-0.043897,0.103679,92.753493,-12.102881,4.582085
24790,NaN,2.089530,9.689288,-0.439766,0.011968,-0.025581,0.109059,0.005063,-0.000819,-0.008355,0.682439,0.722224,-0.043903,0.103646,92.759274,-12.100899,4.578319
24791,NaN,2.119366,9.660948,-0.434563,0.047811,-0.026991,0.087386,-0.006559,-0.000547,-0.010878,0.682449,0.722220,-0.043902,0.103608,92.758471,-12.097536,4.575476
24792,NaN,2.107648,9.622056,-0.470334,0.041556,0.010494,0.048627,-0.009256,-0.002208,-0.007675,0.682469,0.722205,-0.043923,0.103569,92.756222,-12.095906,4.570878
24793,NaN,2.140476,9.663338,-0.441796,0.067799,-0.017581,0.094483,-0.007942,0.005357,-0.006182,0.682486,0.722190,-0.043925,0.103562,92.753689,-12.095431,4.570384
24794,NaN,2.139744,9.663561,-0.440474,0.067349,-0.018100,0.094485,-0.017445,0.003536,-0.009380,0.682537,0.722145,-0.043925,0.103537,92.746032,-12.092983,4.569196
24795,NaN,2.127857,9.624775,-0.475137,0.061069,0.019400,0.055733,-0.018332,0.008664,-0.013632,0.682596,0.722095,-0.043895,0.103515,92.737141,-12.088450,4.570892
24796,NaN,2.158305,9.619826,-0.460382,0.093725,0.009103,0.056578,-0.020489,0.012989,-0.013010,0.682662,0.722035,-0.043851,0.103511,92.726561,-12.084183,4.575337
24797,NaN,2.133298,9.595052,-0.456925,0.075538,0.007080,0.026978,-0.018197,0.014979,-0.018275,0.682724,0.721983,-0.043783,0.103497,92.716940,-12.077190,4.580829
24798,NaN,2.078138,9.622038,-0.451466,0.017880,-0.002978,0.041539,-0.011587,0.017316,-0.018471,0.682762,0.721953,-0.043700,0.103491,92.710900,-12.069913,4.587956
24799,NaN,2.049478,9.644407,-0.514665,-0.019173,0.057118,0.060316,-0.007019,0.017274,-0.017874,0.682783,0.721938,-0.043617,0.103490,92.707476,-12.063109,4.595105
24800,NaN,2.021710,9.649295,-0.445401,-0.040251,-0.013543,0.056091,-0.009927,0.013761,-0.010140,0.682810,0.721913,-0.043575,0.103501,92.702872,-12.060503,4.599920
24801,NaN,2.061545,9.636909,-0.409766,0.004579,-0.044040,0.050676,-0.015111,0.012281,-0.008269,0.682855,0.721871,-0.043549,0.103512,92.695443,-12.059008,4.603807
24802,NaN,2.104921,9.618037,-0.433414,0.049155,-0.014816,0.042389,-0.012046,0.006855,-0.015769,0.682891,0.721844,-0.043511,0.103478,92.690437,-12.052994,4.604734
24803,NaN,2.076622,9.640343,-0.496736,0.012125,0.045266,0.061173,-0.009116,0.004106,-0.012313,0.682913,0.721829,-0.043490,0.103450,92.687560,-12.048933,4.604580
24804,NaN,2.042228,9.622830,-0.517117,-0.018202,0.063458,0.037825,0.012721,-0.002244,-0.026380,0.682863,0.721893,-0.043433,0.103353,92.697796,-12.036602,4.600475
24805,NaN,2.111305,9.605546,-0.472050,0.059731,0.023132,0.033269,0.024206,0.001463,-0.041514,0.682779,0.722000,-0.043298,0.103224,92.714182,-12.015763,4.599624
24806,NaN,2.033363,9.677011,-0.446768,-0.025279,-0.015147,0.085688,0.023089,0.000714,-0.030101,0.682694,0.722099,-0.043212,0.103126,92.729972,-12.001380,4.597360
24807,NaN,2.142386,9.641267,-0.507772,0.085217,0.054182,0.076271,0.017210,0.002180,-0.025881,0.682627,0.722177,-0.043136,0.103052,92.742368,-11.989636,4.596419
24808,NaN,2.127685,9.678896,-0.463359,0.069611,0.005218,0.107892,0.004082,0.006040,-0.030183,0.682612,0.722209,-0.043041,0.102969,92.746618,-11.975352,4.597280
24809,NaN,2.068947,9.636262,-0.482355,0.021574,0.021941,0.054926,0.001222,0.013312,-0.027212,0.682608,0.722226,-0.042935,0.102923,92.748303,-11.963141,4.602150
24810,NaN,2.053014,9.627435,-0.451361,0.012408,-0.009181,0.041543,-0.010820,0.009869,-0.020680,0.682643,0.722203,-0.042869,0.102883,92.743607,-11.954401,4.604984
24811,NaN,2.088225,9.662532,-0.481708,0.038326,0.022408,0.084549,-0.009800,0.011058,-0.021072,0.682675,0.722181,-0.042800,0.102846,92.739249,-11.945688,4.608187
24812,NaN,2.050967,9.674751,-0.433726,0.005021,-0.028034,0.086534,-0.014173,0.008917,-0.015077,0.682719,0.722146,-0.042759,0.102821,92.732780,-11.940127,4.610306
24813,NaN,2.018310,9.680265,-0.444521,-0.028506,-0.018732,0.085673,-0.021327,0.009578,-0.006002,0.682784,0.722084,-0.042750,0.102830,92.722147,-11.939686,4.612840
24814,NaN,2.080424,9.646809,-0.424423,0.040460,-0.029943,0.064898,-0.020922,0.009249,-0.003935,0.682846,0.722023,-0.042752,0.102843,92.711835,-11.940510,4.614842
24815,NaN,2.007269,9.641443,-0.476902,-0.035143,0.018265,0.046948,-0.015226,0.012699,0.002742,0.682883,0.721979,-0.042758,0.102899,92.704590,-11.945373,4.619548
24816,NaN,2.000550,9.695101,-0.481524,-0.054237,0.020112,0.098201,-0.017073,0.008141,0.010121,0.682924,0.721929,-0.042812,0.102957,92.696698,-11.954211,4.620514
24817,NaN,2.010914,9.687616,-0.457826,-0.042516,-0.000615,0.091932,-0.025610,0.005700,0.017585,0.682991,0.721849,-0.042904,0.103032,92.684289,-11.967331,4.620205
24818,NaN,2.065007,9.614518,-0.474005,0.020743,0.026229,0.032452,-0.026034,0.002001,0.026636,0.683055,0.721768,-0.043043,0.103123,92.672101,-11.985456,4.617131
24819,NaN,2.046632,9.658380,-0.447801,-0.007114,-0.002552,0.070302,-0.020084,0.005061,0.028851,0.683095,0.721706,-0.043175,0.103237,92.663078,-12.005103,4.616303
24820,NaN,2.063440,9.667205,-0.476165,0.001167,0.027532,0.083707,-0.018749,-0.002633,0.035214,0.683127,0.721650,-0.043357,0.103342,92.655678,-12.028016,4.610290
24821,NaN,2.084682,9.651938,-0.430837,0.025074,-0.013428,0.071169,-0.031389,-0.003574,0.033102,0.683203,0.721553,-0.043536,0.103438,92.641307,-12.049742,4.604676
24822,NaN,2.131498,9.609123,-0.460513,0.072927,0.024692,0.040468,-0.033834,-0.005629,0.031837,0.683290,0.721448,-0.043724,0.103517,92.625614,-12.070646,4.597009
24823,NaN,2.135063,9.631846,-0.450024,0.069201,0.015267,0.062962,-0.027456,0.001131,0.025004,0.683361,0.721361,-0.043867,0.103596,92.612543,-12.088024,4.592910
24824,NaN,2.139051,9.677846,-0.431887,0.062264,-0.003117,0.107942,-0.032466,0.003731,0.022302,0.683450,0.721257,-0.043988,0.103677,92.596435,-12.103717,4.590986
24825,NaN,2.193529,9.627953,-0.439437,0.122272,0.014774,0.070985,-0.043793,0.001372,0.015381,0.683583,0.721118,-0.044097,0.103725,92.574145,-12.115571,4.588163
24826,NaN,2.194787,9.627836,-0.435696,0.121824,0.014254,0.070991,-0.029494,0.018041,0.009860,0.683671,0.721020,-0.044123,0.103815,92.557911,-12.124511,4.594954
24827,NaN,2.133075,9.661666,-0.450675,0.051958,0.024436,0.091736,-0.018585,0.027004,0.003561,0.683723,0.720957,-0.044084,0.103924,92.546937,-12.130065,4.608032
24828,NaN,2.096921,9.650226,-0.409251,0.021863,-0.017049,0.071171,-0.020374,0.024243,-0.000119,0.683785,0.720889,-0.044048,0.104004,92.535109,-12.133448,4.618717
24829,NaN,2.065202,9.655690,-0.419684,-0.011675,-0.007714,0.070295,-0.017556,0.019211,-0.003159,0.683837,0.720834,-0.044017,0.104056,92.525398,-12.134971,4.626455
24830,NaN,2.109397,9.636795,-0.442512,0.032951,0.021461,0.062111,-0.022487,0.017346,-0.005760,0.683908,0.720763,-0.043985,0.104092,92.513176,-12.134947,4.633248
24831,NaN,2.099925,9.644431,-0.461564,0.020338,0.041148,0.068389,-0.019422,0.020918,-0.006937,0.683968,0.720703,-0.043932,0.104140,92.502324,-12.134295,4.642737
24832,NaN,2.093603,9.604632,-0.415173,0.026580,-0.001222,0.026204,-0.020807,0.017825,-0.008555,0.684034,0.720638,-0.043887,0.104168,92.490991,-12.132681,4.649883
24833,NaN,2.084901,9.635442,-0.426831,0.010692,0.009517,0.054964,-0.016860,0.016262,-0.005504,0.684083,0.720588,-0.043854,0.104206,92.482217,-12.132851,4.656542
24834,NaN,2.044737,9.671567,-0.451354,-0.038269,0.030114,0.082842,-0.018903,0.013879,-0.004715,0.684140,0.720532,-0.043836,0.104233,92.472481,-12.133335,4.661279
24835,NaN,2.083265,9.612620,-0.430613,0.013058,0.017443,0.032484,-0.014258,0.009375,-0.004026,0.684179,0.720493,-0.043833,0.104249,92.465902,-12.134086,4.663451
24836,NaN,2.097665,9.645400,-0.451486,0.018092,0.038563,0.068404,-0.015977,0.011125,-0.001271,0.684222,0.720447,-0.043835,0.104279,92.458200,-12.136472,4.666489
24837,NaN,2.116284,9.653804,-0.399096,0.038734,-0.011324,0.078331,-0.015977,0.011124,-0.001269,0.684265,0.720402,-0.043835,0.104310,92.450494,-12.138764,4.669918
24838,NaN,2.128328,9.617075,-0.442804,0.053558,0.036631,0.046814,-0.016056,0.015590,-0.001362,0.684310,0.720353,-0.043821,0.104356,92.442196,-12.141207,4.675575
24839,NaN,2.115518,9.630768,-0.403364,0.041101,-0.003399,0.055854,-0.009665,0.016077,0.002966,0.684330,0.720325,-0.043818,0.104420,92.437456,-12.146123,4.681459
24840,NaN,2.061062,9.634141,-0.406003,-0.013340,-0.004424,0.047804,-0.013636,0.010899,-0.006476,0.684368,0.720289,-0.043801,0.104432,92.431094,-12.145523,4.684497
24841,NaN,2.137818,9.633055,-0.409204,0.061065,0.005923,0.063025,-0.011450,0.013320,-0.000720,0.684395,0.720257,-0.043798,0.104475,92.425722,-12.148573,4.688765
24842,NaN,2.128451,9.640652,-0.429376,0.048451,0.025619,0.069309,-0.010854,0.008108,-0.009574,0.684424,0.720232,-0.043778,0.104467,92.421283,-12.146131,4.690245
24843,NaN,2.112196,9.585040,-0.413429,0.045788,0.012421,0.010908,-0.009392,0.006731,-0.007854,0.684445,0.720213,-0.043765,0.104463,92.417942,-12.144706,4.691422
24844,NaN,2.104130,9.639011,-0.418686,0.026630,0.014213,0.062144,-0.005227,0.007031,-0.009328,0.684453,0.720208,-0.043747,0.104454,92.416861,-12.142379,4.692265
24845,NaN,2.111221,9.608664,-0.404080,0.041632,0.002409,0.033389,-0.010075,0.000701,-0.011843,0.684477,0.720191,-0.043737,0.104417,92.413945,-12.138404,4.690492
24846,NaN,2.091306,9.600697,-0.454195,0.020136,0.051279,0.023481,-0.002607,-0.008822,-0.014216,0.684475,0.720205,-0.043753,0.104334,92.416291,-12.132896,4.682172
24847,NaN,2.064624,9.651428,-0.370699,-0.007690,-0.037221,0.063988,-0.001045,-0.001638,-0.017152,0.684471,0.720219,-0.043739,0.104266,92.418501,-12.126112,4.677650
24848,NaN,2.107695,9.632801,-0.395696,0.036967,-0.008077,0.055868,-0.001706,-0.000932,-0.014742,0.684467,0.720231,-0.043727,0.104209,92.420388,-12.120493,4.673965
24849,NaN,2.093309,9.646732,-0.357543,0.024454,-0.048114,0.064879,-0.002888,0.006808,-0.014532,0.684470,0.720235,-0.043690,0.104182,92.420615,-12.115339,4.674777
24850,NaN,2.140554,9.621948,-0.441547,0.068993,0.040764,0.054045,-0.005209,-0.001941,-0.015674,0.684479,0.720236,-0.043680,0.104118,92.420613,-12.109162,4.670524
24851,NaN,2.082599,9.677912,-0.370767,0.008094,-0.037868,0.093632,0.003902,0.006964,-0.008144,0.684455,0.720261,-0.043663,0.104113,92.424643,-12.107571,4.671015
24852,NaN,2.072133,9.662371,-0.399551,-0.001231,-0.009206,0.077445,-0.009354,0.004492,-0.007802,0.684476,0.720243,-0.043661,0.104098,92.421517,-12.106056,4.670334
24853,NaN,2.125199,9.636148,-0.402064,0.055596,-0.000293,0.063059,-0.011697,0.004712,-0.002593,0.684503,0.720215,-0.043676,0.104104,92.417066,-12.107518,4.670029
24854,NaN,2.133883,9.628795,-0.379630,0.067303,-0.021028,0.056776,-0.005130,0.009298,-0.002831,0.684508,0.720208,-0.043673,0.104124,92.415796,-12.108964,4.672039
24855,NaN,2.042893,9.638683,-0.477039,-0.032492,0.067832,0.051365,0.004941,0.014894,-0.002134,0.684478,0.720232,-0.043650,0.104170,92.419584,-12.111088,4.677318
24856,NaN,2.012211,9.667120,-0.482414,-0.069300,0.068234,0.072932,0.006225,0.009424,0.004144,0.684438,0.720261,-0.043666,0.104218,92.424840,-12.116531,4.679228
24857,NaN,2.080800,9.655057,-0.376253,0.008630,-0.031984,0.071154,0.001120,0.003462,0.006098,0.684415,0.720276,-0.043714,0.104248,92.427811,-12.123039,4.677401
24858,NaN,2.124020,9.589771,-0.416843,0.059896,0.015075,0.018137,0.001723,-0.001747,-0.002754,0.684393,0.720297,-0.043745,0.104231,92.431826,-12.124262,4.672941
24859,NaN,2.108641,9.674116,-0.436565,0.025239,0.028097,0.098117,-0.005807,-0.003022,0.004317,0.684394,0.720292,-0.043811,0.104232,92.431683,-12.129589,4.667590
24860,NaN,2.130065,9.629889,-0.459849,0.052302,0.055851,0.060384,-0.011835,-0.001615,0.002012,0.684418,0.720267,-0.043867,0.104228,92.427938,-12.133543,4.663089
24861,NaN,2.175555,9.634152,-0.476155,0.093688,0.075962,0.074785,-0.010234,0.003337,-0.000876,0.684437,0.720246,-0.043887,0.104240,92.424698,-12.135978,4.662631
24862,NaN,2.154433,9.678396,-0.451018,0.065723,0.047168,0.112523,-0.007913,0.012085,0.000272,0.684451,0.720227,-0.043888,0.104280,92.421506,-12.139268,4.666195
24863,NaN,2.116225,9.620486,-0.426414,0.042180,0.023704,0.046909,-0.009816,0.016028,-0.003550,0.684473,0.720201,-0.043859,0.104325,92.416783,-12.140558,4.672583
24864,NaN,2.101394,9.587855,-0.403075,0.036268,0.001614,0.010956,0.000214,0.023855,-0.002892,0.684462,0.720204,-0.043804,0.104399,92.416781,-12.142321,4.683118
24865,NaN,2.079915,9.632132,-0.378617,0.008300,-0.027164,0.048679,0.002918,0.025533,-0.006078,0.684444,0.720216,-0.043729,0.104468,92.418037,-12.142259,4.694806
24866,NaN,2.057616,9.653256,-0.361964,-0.016374,-0.046980,0.063935,0.001316,0.020580,-0.003190,0.684428,0.720225,-0.043683,0.104530,92.419068,-12.143773,4.703431
24867,NaN,2.094725,9.688165,-0.392537,0.009514,-0.015614,0.107099,-0.005210,0.013761,-0.002913,0.684434,0.720215,-0.043665,0.104569,92.417246,-12.145515,4.708233
24868,NaN,2.083982,9.649410,-0.428571,0.003535,0.022045,0.068470,-0.007610,0.009479,-0.004152,0.684448,0.720199,-0.043658,0.104585,92.414525,-12.146209,4.710381
24869,NaN,2.083715,9.649506,-0.427713,0.003111,0.021524,0.068471,-0.007129,0.004679,-0.002003,0.684458,0.720188,-0.043670,0.104594,92.412724,-12.147880,4.710297
24870,NaN,2.105659,9.628520,-0.443126,0.026893,0.040308,0.053224,-0.010896,0.004039,0.001531,0.684480,0.720162,-0.043704,0.104609,92.408820,-12.151696,4.709120
24871,NaN,2.114698,9.621082,-0.420494,0.038577,0.019554,0.046933,-0.009957,0.009696,0.001057,0.684499,0.720138,-0.043714,0.104647,92.404841,-12.155467,4.711770
24872,NaN,2.097113,9.636016,-0.462199,0.013841,0.059482,0.059526,-0.012040,0.009544,0.001794,0.684527,0.720106,-0.043731,0.104683,92.399604,-12.159566,4.713810
24873,NaN,2.083603,9.626426,-0.430610,0.004601,0.028434,0.046018,-0.012785,0.014713,0.004120,0.684557,0.720068,-0.043739,0.104746,92.393276,-12.165223,4.718835
24874,NaN,2.138360,9.623169,-0.425284,0.058134,0.028323,0.054158,-0.004094,0.017218,0.003199,0.684556,0.720058,-0.043730,0.104816,92.391652,-12.170310,4.725336
24875,NaN,2.093410,9.618846,-0.407150,0.015810,0.007186,0.039725,-0.005778,0.016730,0.005998,0.684561,0.720042,-0.043737,0.104893,92.389089,-12.177214,4.731317
24876,NaN,2.116604,9.620897,-0.415099,0.036281,0.016981,0.046946,-0.000989,0.018562,0.002078,0.684550,0.720043,-0.043718,0.104965,92.389070,-12.181691,4.738633
24877,NaN,2.094921,9.641883,-0.398248,0.011558,-0.002840,0.062183,-0.000989,0.018561,0.002080,0.684539,0.720044,-0.043699,0.105039,92.389081,-12.186368,4.746094
24878,NaN,2.095279,9.641833,-0.397555,0.011109,-0.003356,0.062183,-0.006136,0.014832,0.003981,0.684545,0.720029,-0.043702,0.105102,92.386582,-12.191844,4.751179
24879,NaN,2.094863,9.618648,-0.404345,0.013944,0.005109,0.039729,-0.007515,0.011743,0.002348,0.684556,0.720011,-0.043712,0.105151,92.383694,-12.196555,4.754579
24880,NaN,2.074163,9.662729,-0.379900,-0.014078,-0.023692,0.077411,0.004534,0.008929,0.006964,0.684521,0.720034,-0.043741,0.105206,92.388054,-12.203599,4.756135
24881,NaN,2.087948,9.649039,-0.417471,-0.002406,0.015306,0.068483,-0.005698,0.012264,0.006086,0.684523,0.720022,-0.043757,0.105270,92.386171,-12.210152,4.760160
24882,NaN,2.094073,9.670663,-0.328029,0.005976,-0.074172,0.087259,-0.007384,0.011775,0.008885,0.684530,0.720003,-0.043789,0.105339,92.383360,-12.218363,4.763336
24883,NaN,2.138875,9.628459,-0.359528,0.054022,-0.036116,0.056814,-0.011989,0.014038,0.008253,0.684554,0.719968,-0.043810,0.105417,92.377714,-12.226300,4.768448
24884,NaN,2.143997,9.622244,-0.417757,0.053554,0.023110,0.054198,-0.005300,0.011926,0.008153,0.684554,0.719956,-0.043838,0.105484,92.376073,-12.234095,4.771732
24885,NaN,2.132427,9.658789,-0.371573,0.037625,-0.025906,0.085567,-0.002155,0.011038,0.007072,0.684545,0.719955,-0.043866,0.105545,92.376224,-12.241397,4.774210
24886,NaN,2.139802,9.722006,-0.407252,0.027153,0.006330,0.150305,-0.003137,0.007614,0.007499,0.684536,0.719953,-0.043905,0.105595,92.376353,-12.248716,4.774984
24887,NaN,2.182747,9.633570,-0.454534,0.081908,0.062363,0.074984,-0.010659,0.012630,0.003437,0.684557,0.719925,-0.043910,0.105653,92.371687,-12.253749,4.779770
24888,NaN,2.144924,9.575536,-0.430227,0.058431,0.039024,0.009315,-0.005112,0.016020,0.003606,0.684560,0.719912,-0.043907,0.105720,92.369619,-12.259037,4.785564
24889,NaN,2.167863,9.577626,-0.438358,0.078884,0.048794,0.016560,0.001845,0.013541,-0.000968,0.684539,0.719926,-0.043892,0.105766,92.371848,-12.261790,4.790219
24890,NaN,2.114725,9.627255,-0.427141,0.017782,0.029919,0.053282,0.002820,0.010239,-0.007812,0.684518,0.719947,-0.043864,0.105774,92.374985,-12.260406,4.792902
24891,NaN,2.136803,9.629519,-0.435697,0.038267,0.039743,0.060527,0.000736,0.010087,-0.007077,0.684507,0.719958,-0.043845,0.105779,92.376649,-12.259353,4.794772
24892,NaN,2.146520,9.668483,-0.398293,0.043261,0.000992,0.099117,-0.004891,0.011158,-0.007323,0.684513,0.719951,-0.043819,0.105791,92.375256,-12.258271,4.797983
24893,NaN,2.131152,9.635915,-0.375225,0.037365,-0.021041,0.063123,-0.004891,0.011157,-0.007322,0.684520,0.719945,-0.043792,0.105805,92.373871,-12.257186,4.801527
24894,NaN,2.112158,9.627899,-0.425330,0.016006,0.027901,0.053291,-0.002491,0.015436,-0.006069,0.684518,0.719944,-0.043755,0.105837,92.373328,-12.256923,4.807213
24895,NaN,2.130850,9.659347,-0.366089,0.033121,-0.031070,0.085568,-0.005677,0.018553,-0.005024,0.684529,0.719929,-0.043712,0.105884,92.370496,-12.257298,4.814743
24896,NaN,2.120250,9.620650,-0.402023,0.027244,0.006651,0.046988,-0.008388,0.016872,-0.001841,0.684546,0.719907,-0.043689,0.105934,92.366417,-12.259488,4.821168
24897,NaN,2.075204,9.639657,-0.375872,-0.018419,-0.023445,0.054929,-0.010201,0.016352,-0.005578,0.684572,0.719879,-0.043654,0.105972,92.361388,-12.259633,4.827690
24898,NaN,2.097812,9.641856,-0.383413,0.002055,-0.013681,0.062180,-0.004451,0.015312,0.001206,0.684573,0.719870,-0.043644,0.106028,92.359774,-12.263530,4.833127
24899,NaN,2.111774,9.651492,-0.412967,0.010363,0.016274,0.075743,-0.000596,0.011491,-0.002247,0.684560,0.719878,-0.043631,0.106065,92.361023,-12.265610,4.837075
24900,NaN,2.120581,9.644008,-0.391267,0.022040,-0.004474,0.069435,0.001256,0.009779,0.001530,0.684540,0.719891,-0.043639,0.106104,92.363369,-12.269562,4.839263
24901,NaN,2.152406,9.638586,-0.378300,0.054575,-0.014966,0.070384,0.002673,0.010635,0.003208,0.684513,0.719909,-0.043651,0.106154,92.366506,-12.274865,4.842016
24902,NaN,2.126340,9.660977,-0.442981,0.017756,0.045204,0.089316,0.004798,0.008556,0.002512,0.684479,0.719934,-0.043664,0.106193,92.371038,-12.279351,4.843464
24903,NaN,2.112648,9.651302,-0.412920,0.008469,0.014142,0.075748,-0.001770,0.003973,0.002721,0.684465,0.719942,-0.043695,0.106220,92.372597,-12.284094,4.842983
24904,NaN,2.145353,9.669000,-0.391957,0.037703,-0.005351,0.099138,-0.002398,0.002445,0.005168,0.684454,0.719945,-0.043743,0.106244,92.373782,-12.289955,4.840786
24905,NaN,2.166969,9.624794,-0.415259,0.064859,0.022433,0.061529,-0.012903,-0.000579,0.002333,0.684482,0.719915,-0.043800,0.106245,92.369266,-12.294389,4.836656
24906,NaN,2.120473,9.597507,-0.404690,0.025929,0.010392,0.024565,-0.012357,-0.001312,-0.006612,0.684513,0.719889,-0.043823,0.106213,92.365154,-12.293418,4.832544
24907,NaN,2.126071,9.637885,-0.447397,0.018772,0.051575,0.066895,-0.011213,-0.000091,-0.000460,0.684536,0.719866,-0.043864,0.106209,92.361634,-12.296169,4.829266
24908,NaN,2.134593,9.630497,-0.424788,0.030445,0.030825,0.060586,-0.010038,0.007428,-0.005426,0.684559,0.719843,-0.043861,0.106213,92.357765,-12.296084,4.830245
24909,NaN,2.121099,9.644115,-0.385793,0.017788,-0.009229,0.069440,-0.010351,0.010024,-0.000988,0.684581,0.719817,-0.043864,0.106244,92.353510,-12.298805,4.832980
24910,NaN,2.121042,9.644176,-0.384582,0.017339,-0.009748,0.069440,-0.010351,0.010023,-0.000987,0.684604,0.719791,-0.043868,0.106273,92.349161,-12.301322,4.835373
24911,NaN,2.044856,9.668438,-0.371445,-0.061398,-0.029863,0.076370,-0.009643,0.013810,0.003067,0.684621,0.719766,-0.043871,0.106333,92.344883,-12.306394,4.840398
24912,NaN,2.082339,9.680088,-0.409082,-0.032116,0.010375,0.097230,-0.007824,-0.000922,0.011528,0.684626,0.719751,-0.043956,0.106365,92.343413,-12.315819,4.836078
24913,NaN,2.077842,9.639529,-0.364428,-0.025865,-0.031833,0.054889,-0.009828,0.001182,0.018762,0.684635,0.719727,-0.044060,0.106430,92.340513,-12.329325,4.833056
24914,NaN,2.125064,9.643459,-0.380316,0.015536,-0.011833,0.069441,-0.014787,0.001550,0.016106,0.684662,0.719686,-0.044157,0.106485,92.334769,-12.341429,4.830076
24915,NaN,2.148798,9.622119,-0.395369,0.039357,0.006906,0.054289,-0.012817,-0.006857,0.019989,0.684678,0.719657,-0.044294,0.106528,92.331353,-12.355766,4.822552
24916,NaN,2.182119,9.616349,-0.381665,0.071948,-0.003592,0.055255,-0.005540,-0.005207,0.017407,0.684670,0.719651,-0.044413,0.106566,92.331763,-12.368457,4.815581
24917,NaN,2.134650,9.636469,-0.436928,0.014205,0.046297,0.066929,-0.010182,-0.000714,0.016744,0.684678,0.719629,-0.044514,0.106622,92.329157,-12.381059,4.812065
24918,NaN,2.194912,9.631277,-0.350727,0.079751,-0.033934,0.071372,-0.010182,-0.000715,0.016746,0.684688,0.719605,-0.044619,0.106673,92.326342,-12.393476,4.807743
24919,NaN,2.199977,9.601901,-0.417132,0.082751,0.034319,0.046439,-0.004361,0.002312,0.012448,0.684680,0.719601,-0.044694,0.106722,92.326473,-12.403627,4.805479
24920,NaN,2.192995,9.632370,-0.429972,0.066806,0.045001,0.075192,-0.010891,0.010753,0.007974,0.684701,0.719570,-0.044728,0.106784,92.321764,-12.411290,4.808089
24921,NaN,2.156817,9.620528,-0.390397,0.036582,0.003762,0.054302,-0.004007,0.012740,0.003325,0.684700,0.719563,-0.044739,0.106837,92.320618,-12.416533,4.811620
24922,NaN,2.158952,9.666676,-0.374207,0.029355,-0.014824,0.099157,-0.003219,0.012063,0.007453,0.684693,0.719558,-0.044762,0.106903,92.320136,-12.423927,4.815011
24923,NaN,2.144147,9.610644,-0.358821,0.026833,-0.027779,0.040693,-0.009907,0.014174,0.007558,0.684709,0.719530,-0.044782,0.106980,92.315667,-12.431642,4.820045
24924,NaN,2.117523,9.610093,-0.429951,-0.006549,0.041444,0.037231,-0.008926,0.010882,0.000704,0.684726,0.719508,-0.044788,0.107017,92.312030,-12.435145,4.822904
24925,NaN,2.087787,9.661779,-0.426228,-0.046848,0.032835,0.081110,-0.009555,0.009351,0.003152,0.684743,0.719484,-0.044809,0.107060,92.308294,-12.440202,4.825055
24926,NaN,2.168834,9.635746,-0.356165,0.042986,-0.028144,0.070413,-0.011132,0.002167,0.006049,0.684763,0.719458,-0.044865,0.107084,92.304519,-12.446565,4.822680
24927,NaN,2.192201,9.637759,-0.363581,0.063460,-0.018412,0.077710,-0.011132,0.002167,0.006050,0.684784,0.719431,-0.044922,0.107108,92.300665,-12.452932,4.820293
24928,NaN,2.159657,9.596879,-0.391077,0.036773,0.009142,0.031891,-0.009123,0.006780,0.005251,0.684798,0.719410,-0.044960,0.107146,92.297454,-12.458943,4.820642
24929,NaN,2.173924,9.606527,-0.420064,0.045126,0.039103,0.045517,-0.011212,-0.000084,-0.000456,0.684821,0.719385,-0.045002,0.107140,92.293837,-12.461658,4.817012
24930,NaN,2.137896,9.617910,-0.373077,0.011527,-0.011166,0.047015,-0.000114,0.006691,-0.000098,0.684806,0.719396,-0.045015,0.107161,92.295772,-12.464605,4.817435
24931,NaN,2.184365,9.645205,-0.382459,0.049533,-0.000278,0.084043,0.005866,0.007509,0.002177,0.684767,0.719427,-0.045026,0.107199,92.301156,-12.468869,4.819019
24932,NaN,2.175731,9.652730,-0.404095,0.036980,0.019437,0.090370,0.000871,0.010113,-0.000514,0.684749,0.719439,-0.045026,0.107232,92.303221,-12.471657,4.821458
24933,NaN,2.151927,9.627564,-0.403264,0.019025,0.017719,0.060646,0.002132,0.013175,-0.005406,0.684729,0.719456,-0.044992,0.107263,92.305657,-12.471621,4.826505
24934,NaN,2.144642,9.681405,-0.408647,-0.000339,0.019347,0.111813,-0.006523,0.015154,0.001974,0.684738,0.719439,-0.044987,0.107321,92.302859,-12.475949,4.831840
24935,NaN,2.192239,9.614618,-0.366984,0.063276,-0.013581,0.055306,-0.013526,0.013144,0.000082,0.684771,0.719401,-0.044980,0.107367,92.296383,-12.479057,4.836808
24936,NaN,2.197552,9.631899,-0.417060,0.059554,0.036601,0.075273,-0.010417,0.014488,-0.001032,0.684795,0.719372,-0.044969,0.107411,92.291422,-12.481648,4.841825
24937,NaN,2.129009,9.625681,-0.390047,-0.003701,0.005398,0.053341,-0.014273,0.011592,-0.004009,0.684834,0.719332,-0.044959,0.107436,92.284607,-12.482597,4.845336
24938,NaN,2.168749,9.612833,-0.354122,0.040977,-0.025374,0.047998,-0.010456,0.010007,-0.007506,0.684860,0.719307,-0.044940,0.107441,92.280158,-12.481378,4.847877
24939,NaN,2.183022,9.645790,-0.375314,0.045945,-0.004500,0.084059,-0.005539,0.011863,-0.004877,0.684867,0.719298,-0.044917,0.107468,92.278409,-12.481712,4.852110
24940,NaN,2.172849,9.630432,-0.403644,0.036812,0.024269,0.067975,-0.009825,0.011538,-0.009949,0.684893,0.719275,-0.044884,0.107471,92.274117,-12.479128,4.855605
24941,NaN,2.171118,9.607579,-0.410403,0.039781,0.032801,0.045563,-0.006716,0.012882,-0.011063,0.684909,0.719262,-0.044838,0.107478,92.271423,-12.475941,4.860184
24942,NaN,2.165695,9.613662,-0.350310,0.039179,-0.027471,0.048000,-0.003808,0.010126,-0.007639,0.684911,0.719260,-0.044815,0.107485,92.270769,-12.474648,4.862797
24943,NaN,2.165653,9.636967,-0.342224,0.035291,-0.037057,0.070414,0.002488,0.008356,-0.009806,0.684892,0.719281,-0.044785,0.107483,92.273986,-12.472187,4.864755
24944,NaN,2.146327,9.629238,-0.393014,0.014071,0.011958,0.060663,0.002573,0.019146,-0.014432,0.684877,0.719297,-0.044702,0.107501,92.275812,-12.467210,4.872816
24945,NaN,2.136437,9.637072,-0.414302,0.001499,0.031698,0.066997,-0.000067,0.013001,-0.011194,0.684870,0.719306,-0.044657,0.107506,92.276789,-12.464112,4.876826
24946,NaN,2.145928,9.675909,-0.376955,0.006296,-0.007177,0.105489,0.001147,0.009752,-0.004976,0.684854,0.719320,-0.044642,0.107522,92.279035,-12.464336,4.879158
24947,NaN,2.159796,9.685656,-0.406776,0.014698,0.022750,0.119149,-0.000195,0.011148,-0.000149,0.684839,0.719328,-0.044636,0.107562,92.280389,-12.467263,4.882759
24948,NaN,2.153630,9.645309,-0.362739,0.020930,-0.019406,0.076745,-0.001649,0.012525,-0.001859,0.684832,0.719331,-0.044624,0.107598,92.280698,-12.469334,4.886645
24949,NaN,2.143400,9.606663,-0.399483,0.015224,0.018396,0.038260,-0.002242,0.008764,0.000614,0.684822,0.719334,-0.044629,0.107636,92.281378,-12.472879,4.889129
24950,NaN,2.190499,9.657172,-0.400331,0.049778,0.020170,0.097743,-0.003657,0.007912,-0.001067,0.684820,0.719332,-0.044636,0.107657,92.281124,-12.475298,4.890291
24951,NaN,2.188863,9.610988,-0.415649,0.056178,0.037791,0.052930,0.000515,0.008220,-0.002530,0.684805,0.719344,-0.044637,0.107675,92.283089,-12.476958,4.891439
24952,NaN,2.165333,9.609040,-0.406739,0.034801,0.027064,0.045599,-0.005963,0.007719,-0.013409,0.684818,0.719337,-0.044602,0.107654,92.281476,-12.472307,4.892777
24953,NaN,2.173870,9.624818,-0.376854,0.043015,-0.002749,0.061673,-0.001330,0.009936,-0.006302,0.684812,0.719342,-0.044582,0.107666,92.282188,-12.471735,4.895301
24954,NaN,2.163463,9.609502,-0.405765,0.033914,0.026038,0.045605,-0.002892,0.011294,-0.014548,0.684815,0.719344,-0.044529,0.107654,92.281875,-12.466514,4.898761
24955,NaN,2.108775,9.636172,-0.401974,-0.023929,0.016261,0.059672,-0.004158,0.008231,-0.009663,0.684818,0.719343,-0.044500,0.107653,92.281432,-12.464087,4.901153
24956,NaN,2.170793,9.625575,-0.375257,0.041660,-0.004344,0.061678,-0.005532,0.005149,-0.011315,0.684828,0.719338,-0.044481,0.107629,92.280401,-12.460576,4.900934
24957,NaN,2.138238,9.631255,-0.387632,0.008218,0.005188,0.060676,-0.006555,0.003956,-0.010934,0.684841,0.719331,-0.044465,0.107604,92.278898,-12.457108,4.900404
24958,NaN,2.154703,9.616363,-0.343899,0.031942,-0.035819,0.047999,-0.006165,0.003617,-0.008872,0.684852,0.719324,-0.044461,0.107583,92.277712,-12.454961,4.899230
24959,NaN,2.141084,9.653109,-0.297607,0.015799,-0.084917,0.079121,-0.004549,0.008569,-0.011721,0.684859,0.719321,-0.044423,0.107573,92.276814,-12.451064,4.901673
24960,NaN,2.145006,9.647473,-0.356224,0.015554,-0.025684,0.076741,-0.006527,0.008433,-0.004454,0.684869,0.719310,-0.044418,0.107585,92.274833,-12.451556,4.903219
24961,NaN,2.142955,9.601417,-0.371075,0.022010,-0.008072,0.031936,-0.006284,0.010304,-0.008955,0.684881,0.719300,-0.044385,0.107592,92.272822,-12.449433,4.906731
24962,NaN,2.112259,9.653204,-0.368009,-0.018347,-0.016687,0.075730,0.001145,0.009751,-0.004964,0.684864,0.719314,-0.044369,0.107608,92.275068,-12.449663,4.909062
24963,NaN,2.126011,9.663022,-0.397628,-0.009951,0.013244,0.089421,-0.004091,0.010477,-0.003150,0.684866,0.719309,-0.044361,0.107632,92.274139,-12.450965,4.911748
24964,NaN,2.147254,9.619018,-0.421083,0.017433,0.041065,0.051973,-0.005747,0.007753,-0.000330,0.684872,0.719300,-0.044373,0.107655,92.272712,-12.453802,4.912800
24965,NaN,2.184759,9.654064,-0.451305,0.043345,0.072074,0.095426,0.001575,0.007182,-0.002874,0.684850,0.719318,-0.044367,0.107674,92.275639,-12.455023,4.914468
24966,NaN,2.216043,9.648712,-0.438125,0.075913,0.061492,0.096445,-0.000511,0.007026,-0.002143,0.684838,0.719327,-0.044372,0.107689,92.277295,-12.456805,4.915136
24967,NaN,2.200902,9.615963,-0.415556,0.070046,0.039604,0.060353,-0.004480,0.010815,-0.005209,0.684841,0.719322,-0.044354,0.107710,92.276236,-12.457048,4.918398
24968,NaN,2.168656,9.621555,-0.428194,0.036587,0.049144,0.059343,0.000959,0.014190,-0.011548,0.684830,0.719334,-0.044300,0.107720,92.277781,-12.453610,4.923486
24969,NaN,2.186099,9.652959,-0.369171,0.053403,-0.010013,0.091453,-0.001192,0.011786,-0.017322,0.684829,0.719342,-0.044233,0.107700,92.278268,-12.446687,4.927450
24970,NaN,2.151761,9.612483,-0.397315,0.026860,0.017693,0.045645,-0.005098,0.017821,-0.013880,0.684842,0.719332,-0.044161,0.107714,92.275873,-12.441996,4.934720
24971,NaN,2.146336,9.641739,-0.329275,0.022718,-0.051696,0.070385,-0.005446,0.015930,-0.015911,0.684854,0.719325,-0.044083,0.107719,92.273690,-12.436091,4.941875
24972,NaN,2.203033,9.610043,-0.390570,0.079915,0.016732,0.054032,-0.012832,0.014249,-0.019873,0.684897,0.719292,-0.044006,0.107697,92.267286,-12.427886,4.947190
24973,NaN,2.200403,9.587419,-0.397445,0.082895,0.025314,0.031643,-0.000947,0.013655,-0.021809,0.684899,0.719299,-0.043922,0.107668,92.267621,-12.418761,4.951736
24974,NaN,2.118371,9.664020,-0.311018,-0.003071,-0.072501,0.085406,0.013800,0.027782,-0.025004,0.684852,0.719352,-0.043766,0.107683,92.274746,-12.407926,4.965103
24975,NaN,2.061516,9.644486,-0.323712,-0.054016,-0.064032,0.054619,0.000054,0.021548,-0.015727,0.684848,0.719358,-0.043672,0.107706,92.274807,-12.402357,4.974703
24976,NaN,2.103662,9.579879,-0.363820,-0.002195,-0.016939,0.002176,0.002309,0.012790,-0.016350,0.684834,0.719377,-0.043605,0.107694,92.277282,-12.396136,4.979081
24977,NaN,2.118906,9.659143,-0.370754,-0.004229,-0.014298,0.083071,0.014701,0.016358,-0.003216,0.684769,0.719433,-0.043569,0.107743,92.286417,-12.397758,4.985023
24978,NaN,2.110555,9.689842,-0.385484,-0.020221,-0.003660,0.111810,0.014271,0.018924,-0.005298,0.684708,0.719487,-0.043514,0.107794,92.295030,-12.398007,4.992739
24979,NaN,2.141410,9.661352,-0.380703,0.015755,-0.005196,0.090444,0.004958,0.019352,0.004495,0.684673,0.719508,-0.043497,0.107882,92.298421,-12.404188,5.000747
24980,NaN,2.133504,9.668736,-0.402207,0.003235,0.014531,0.096795,0.003563,0.022975,0.009293,0.684643,0.719520,-0.043487,0.107995,92.300460,-12.412884,5.010494
24981,NaN,2.132390,9.599207,-0.425663,0.013221,0.041265,0.029628,0.005305,0.021240,0.006534,0.684606,0.719541,-0.043465,0.108098,92.303850,-12.419925,5.020164
24982,NaN,2.188805,9.642091,-0.405325,0.059764,0.022636,0.082816,0.005734,0.018673,0.008621,0.684568,0.719564,-0.043466,0.108194,92.307670,-12.428138,5.027405
24983,NaN,2.204514,9.674750,-0.427361,0.064675,0.043437,0.118941,0.002153,0.022118,0.007616,0.684544,0.719571,-0.043455,0.108298,92.308928,-12.436033,5.036510
24984,NaN,2.193989,9.589684,-0.479936,0.066078,0.099546,0.035748,0.001766,0.022455,0.005559,0.684522,0.719578,-0.043434,0.108396,92.309979,-12.442581,5.046040
24985,NaN,2.202647,9.582149,-0.458012,0.077731,0.078784,0.029404,0.000552,0.021220,-0.007123,0.684512,0.719585,-0.043368,0.108447,92.310385,-12.441683,5.055551
24986,NaN,2.194701,9.636082,-0.463619,0.058258,0.080314,0.080537,0.002682,0.019148,-0.007822,0.684493,0.719600,-0.043310,0.108488,92.312310,-12.440494,5.063460
24987,NaN,2.134259,9.645364,-0.408764,0.003562,0.019935,0.074415,-0.002663,0.015371,-0.019029,0.684497,0.719602,-0.043223,0.108480,92.311785,-12.432972,5.070109
24988,NaN,2.151220,9.676876,-0.349430,0.020276,-0.039289,0.106477,-0.002871,0.011275,-0.014510,0.684501,0.719604,-0.043170,0.108468,92.311489,-12.427772,5.073560
24989,NaN,2.126288,9.651913,-0.348069,0.002347,-0.040894,0.076701,-0.009864,0.009253,-0.016427,0.684528,0.719584,-0.043119,0.108446,92.307584,-12.421613,5.076425
24990,NaN,2.152043,9.625531,-0.422626,0.026619,0.037598,0.059426,-0.005939,0.007698,-0.013384,0.684541,0.719577,-0.043084,0.108424,92.305989,-12.416976,5.077751
24991,NaN,2.077378,9.625019,-0.337396,-0.036941,-0.053183,0.039528,-0.009987,0.000701,-0.011863,0.684564,0.719562,-0.043074,0.108389,92.303235,-12.413117,5.076104
24992,NaN,2.121244,9.606618,-0.361065,0.007975,-0.024295,0.031930,-0.007899,0.000858,-0.012586,0.684582,0.719551,-0.043066,0.108346,92.301383,-12.408779,5.073402
24993,NaN,2.180068,9.621071,-0.407060,0.058242,0.025906,0.060475,-0.004060,0.003759,-0.009591,0.684586,0.719551,-0.043062,0.108322,92.301234,-12.406409,5.071884
24994,NaN,2.142836,9.632392,-0.360746,0.024491,-0.024271,0.061707,0.002846,0.010238,-0.007717,0.684565,0.719571,-0.043034,0.108331,92.304381,-12.405074,5.074566
24995,NaN,2.071335,9.673830,-0.400918,-0.057547,0.006574,0.088363,0.003146,0.014354,-0.005703,0.684544,0.719589,-0.043002,0.108361,92.307120,-12.405197,5.079384
24996,NaN,2.079413,9.643159,-0.387102,-0.042437,-0.005089,0.059622,-0.000080,0.008930,0.006435,0.684525,0.719597,-0.043031,0.108413,92.308828,-12.411934,5.080965
24997,NaN,2.147285,9.603460,-0.427780,0.026890,0.043007,0.037069,0.003073,0.008053,0.005360,0.684494,0.719618,-0.043055,0.108464,92.312627,-12.418261,5.082639
24998,NaN,2.125890,9.624161,-0.411876,0.002010,0.023234,0.052047,0.005338,0.003778,0.011208,0.684452,0.719646,-0.043116,0.108515,92.318113,-12.427612,5.081085
24999,NaN,2.144756,9.631946,-0.361248,0.022157,-0.026953,0.061706,0.002907,0.001731,0.009897,0.684416,0.719670,-0.043175,0.108561,92.322734,-12.436325,5.079383
25000,NaN,2.197707,9.676538,-0.421905,0.056903,0.034337,0.119024,0.005338,0.003777,0.011210,0.684375,0.719698,-0.043236,0.108612,92.328220,-12.445677,5.077827
25001,NaN,2.229556,9.647866,-0.416225,0.092898,0.032794,0.097700,-0.009411,0.004882,0.009731,0.684387,0.719676,-0.043298,0.108660,92.325160,-12.454544,5.076913
25002,NaN,2.242951,9.611359,-0.460477,0.108346,0.080887,0.066726,-0.013938,0.013434,-0.001964,0.684424,0.719636,-0.043289,0.108697,92.318314,-12.456578,5.081333
25003,NaN,2.196968,9.607076,-0.442394,0.065976,0.060086,0.051912,-0.010062,0.009631,-0.005426,0.684447,0.719612,-0.043281,0.108710,92.314152,-12.456840,5.083483
25004,NaN,2.196209,9.607295,-0.441405,0.065533,0.059562,0.051919,-0.005634,0.011814,-0.011364,0.684459,0.719603,-0.043239,0.108710,92.312221,-12.453454,5.087176
25005,NaN,2.173401,9.651606,-0.416733,0.037118,0.030662,0.089258,-0.001885,0.014694,-0.014892,0.684459,0.719607,-0.043171,0.108712,92.312103,-12.448191,5.093025
25006,NaN,2.151888,9.624897,-0.334982,0.030956,-0.050888,0.055338,-0.000481,0.011073,-0.019687,0.684457,0.719618,-0.043099,0.108682,92.313176,-12.440024,5.096480
25007,NaN,2.117389,9.584420,-0.363623,0.004564,-0.023075,0.009538,-0.001461,0.007652,-0.019291,0.684455,0.719629,-0.043032,0.108647,92.314316,-12.431905,5.099043
25008,NaN,2.156629,9.618235,-0.312707,0.042133,-0.072218,0.048970,-0.003296,0.009362,-0.023053,0.684464,0.719632,-0.042956,0.108599,92.313977,-12.421771,5.101575
25009,NaN,2.163903,9.584081,-0.438544,0.045889,0.055907,0.022157,-0.006704,0.003894,-0.023970,0.684485,0.719626,-0.042896,0.108528,92.312329,-12.411059,5.100971
25010,NaN,2.104897,9.685826,-0.352850,-0.022906,-0.040862,0.105383,0.009836,0.003314,-0.018743,0.684443,0.719677,-0.042849,0.108476,92.320298,-12.403253,5.099855
25011,NaN,2.088250,9.653311,-0.331136,-0.028776,-0.062652,0.069220,-0.002352,-0.000224,-0.018846,0.684444,0.719687,-0.042821,0.108410,92.321778,-12.395597,5.096714
25012,NaN,2.163342,9.629707,-0.342621,0.049163,-0.043936,0.062754,0.006902,-0.002469,-0.011079,0.684407,0.719729,-0.042822,0.108363,92.328831,-12.392044,5.092028
25013,NaN,2.076676,9.638213,-0.361708,-0.038250,-0.034325,0.053209,0.011759,0.001627,-0.008453,0.684352,0.719785,-0.042817,0.108343,92.338241,-12.390376,5.089840
25014,NaN,2.067031,9.622706,-0.391882,-0.047222,-0.005459,0.037206,0.003243,-0.005329,-0.001031,0.684322,0.719814,-0.042866,0.108319,92.343610,-12.392506,5.083238
25015,NaN,2.112617,9.627209,-0.408928,-0.005817,0.014227,0.052062,0.001288,-0.012168,-0.000243,0.684296,0.719841,-0.042940,0.108277,92.348903,-12.395112,5.073235
25016,NaN,2.173337,9.664534,-0.448082,0.040984,0.055185,0.103092,0.002443,-0.013179,0.005929,0.684264,0.719870,-0.043041,0.108249,92.354837,-12.401041,5.061863
25017,NaN,2.172857,9.641376,-0.456392,0.044094,0.063776,0.080730,0.001925,-0.010639,-0.002671,0.684238,0.719898,-0.043097,0.108204,92.360217,-12.401950,5.053128
25018,NaN,2.195586,9.643627,-0.465185,0.064591,0.073367,0.088170,0.002695,-0.011313,0.001444,0.684208,0.719928,-0.043176,0.108167,92.366039,-12.405353,5.042958
25019,NaN,2.203730,9.636201,-0.443601,0.076155,0.052592,0.081806,-0.008309,-0.011816,-0.010039,0.684224,0.719922,-0.043224,0.108086,92.365488,-12.402383,5.032495
25020,NaN,2.211719,9.652085,-0.413556,0.084223,0.022676,0.097805,-0.009169,-0.006689,-0.014196,0.684246,0.719911,-0.043237,0.108009,92.363849,-12.396942,5.025414
25021,NaN,2.201014,9.636885,-0.442214,0.075244,0.051545,0.081819,-0.008577,-0.002932,-0.016647,0.684268,0.719901,-0.043229,0.107938,92.362035,-12.390311,5.020629
25022,NaN,2.185536,9.650655,-0.403680,0.062367,0.011518,0.090375,-0.007395,0.004582,-0.021548,0.684290,0.719893,-0.043176,0.107877,92.359955,-12.380928,5.020331
25023,NaN,2.159376,9.602693,-0.410251,0.048036,0.019149,0.038213,-0.005783,0.009531,-0.024369,0.684308,0.719888,-0.043094,0.107828,92.358218,-12.370143,5.023367
25024,NaN,2.142796,9.593443,-0.379738,0.038693,-0.011737,0.024400,-0.001698,0.014304,-0.025856,0.684314,0.719895,-0.042989,0.107788,92.358161,-12.358523,5.028870
25025,NaN,2.216152,9.547148,-0.398278,0.120174,0.016079,-0.004360,-0.007731,-0.001790,-0.030049,0.684340,0.719890,-0.042928,0.107676,92.356602,-12.344225,5.025042
25026,NaN,2.108344,9.524986,-0.476203,0.015829,0.084566,-0.045916,0.022888,-0.020646,-0.046843,0.684262,0.720004,-0.042855,0.107444,92.374899,-12.319765,5.010574
25027,NaN,1.959094,9.588999,-0.428584,-0.132931,0.016287,-0.017143,0.057251,-0.032144,-0.060663,0.684064,0.720244,-0.042751,0.107132,92.414209,-12.287144,4.989894
25028,NaN,2.082504,9.707845,-0.334540,-0.022717,-0.079712,0.121301,0.050647,-0.030049,-0.054023,0.683887,0.720459,-0.042669,0.106848,92.449523,-12.258328,4.970128
25029,NaN,2.100541,9.711029,-0.347357,-0.002273,-0.070157,0.128746,0.030308,-0.021201,-0.042784,0.683778,0.720599,-0.042608,0.106632,92.472241,-12.236425,4.955503
25030,NaN,2.095779,9.665476,-0.366075,0.004369,-0.052392,0.084027,0.027344,-0.007273,-0.033281,0.683678,0.720717,-0.042534,0.106496,92.491468,-12.220030,4.948580
25031,NaN,2.021576,9.683683,-0.416715,-0.074110,-0.012362,0.088247,0.025345,-0.002918,-0.019580,0.683577,0.720826,-0.042493,0.106427,92.509307,-12.211810,4.944581
25032,NaN,2.052240,9.701865,-0.397750,-0.045130,-0.032190,0.111677,0.015389,-0.004026,-0.007404,0.683508,0.720897,-0.042509,0.106389,92.521418,-12.210306,4.938904
25033,NaN,2.119188,9.662639,-0.439643,0.024357,0.015859,0.089332,0.008398,-0.001583,-0.002861,0.683461,0.720942,-0.042533,0.106375,92.529279,-12.211428,4.935021
25034,NaN,2.196226,9.662163,-0.443466,0.098773,0.025352,0.105330,-0.004028,-0.007004,0.001520,0.683456,0.720946,-0.042601,0.106352,92.530684,-12.214955,4.927370
25035,NaN,2.218362,9.641430,-0.458988,0.122842,0.044049,0.090441,-0.010916,-0.000507,-0.004954,0.683479,0.720925,-0.042621,0.106334,92.527421,-12.214843,4.924578
25036,NaN,2.217142,9.641778,-0.457588,0.122397,0.043523,0.090449,-0.016247,0.008678,-0.020736,0.683533,0.720884,-0.042562,0.106288,92.519760,-12.206027,4.926686
25037,NaN,2.236248,9.575337,-0.487454,0.153561,0.080571,0.030860,-0.017556,0.016358,-0.026966,0.683599,0.720834,-0.042457,0.106247,92.510154,-12.193856,4.933053
25038,NaN,2.148044,9.607135,-0.495608,0.062669,0.081163,0.043592,-0.019054,0.015461,-0.035146,0.683672,0.720782,-0.042324,0.106176,92.499970,-12.176961,4.939499
25039,NaN,2.090418,9.610725,-0.498624,0.008205,0.080732,0.035049,-0.010518,0.024683,-0.036068,0.683718,0.720755,-0.042160,0.106137,92.493504,-12.160386,4.950627
25040,NaN,2.069033,9.653741,-0.392193,-0.008717,-0.028200,0.068029,-0.011832,0.023850,-0.031233,0.683765,0.720723,-0.042009,0.106111,92.486450,-12.145938,4.961880
25041,NaN,2.138706,9.609491,-0.490286,0.061215,0.079597,0.043614,-0.017360,0.020432,-0.031439,0.683831,0.720674,-0.041872,0.106073,92.476646,-12.131435,4.971218
25042,NaN,2.080984,9.686554,-0.329493,0.007290,-0.088075,0.099960,-0.014497,0.028435,-0.039094,0.683893,0.720631,-0.041678,0.106037,92.467467,-12.112597,4.985348
25043,NaN,1.979048,9.731410,-0.299198,-0.096118,-0.126935,0.121150,-0.033493,0.027352,-0.021644,0.684015,0.720520,-0.041563,0.106051,92.447489,-12.103808,4.998138
25044,NaN,2.043293,9.600348,-0.367342,-0.012331,-0.042274,0.009468,-0.036304,0.017114,-0.013953,0.684139,0.720405,-0.041510,0.106055,92.427344,-12.099077,5.005001
25045,NaN,2.065769,9.626132,-0.365198,0.004555,-0.041868,0.039288,-0.009059,0.026028,-0.003874,0.684162,0.720375,-0.041451,0.106132,92.421721,-12.100576,5.016610
25046,NaN,1.989596,9.672650,-0.345131,-0.077894,-0.070660,0.067936,-0.000921,0.027081,0.004201,0.684152,0.720371,-0.041411,0.106241,92.420719,-12.106477,5.028858
25047,NaN,1.996321,9.689805,-0.395623,-0.081477,-0.020552,0.088175,-0.009331,0.020135,0.018099,0.684164,0.720338,-0.041452,0.106371,92.415698,-12.120312,5.036403
25048,NaN,2.012549,9.699329,-0.424017,-0.073005,0.009269,0.102035,-0.015003,0.010400,0.022395,0.684191,0.720291,-0.041541,0.106480,92.408769,-12.136224,5.038436
25049,NaN,2.090680,9.629282,-0.449036,0.012085,0.046194,0.051052,-0.020094,0.004421,0.024250,0.684235,0.720228,-0.041665,0.106571,92.399576,-12.153334,5.036468
25050,NaN,2.129144,9.594919,-0.501086,0.048665,0.104404,0.027717,-0.015918,0.004749,0.022814,0.684264,0.720181,-0.041776,0.106661,92.392819,-12.169350,5.035187
25051,NaN,2.164157,9.658713,-0.462832,0.070404,0.066198,0.095853,-0.010390,0.008164,0.023038,0.684274,0.720150,-0.041878,0.106764,92.388741,-12.185874,5.035515
25052,NaN,2.188342,9.637662,-0.477339,0.094486,0.084905,0.081002,-0.019979,0.008482,0.013264,0.684324,0.720089,-0.041943,0.106834,92.379146,-12.196513,5.036657
25053,NaN,2.188299,9.591367,-0.490787,0.101184,0.102688,0.036326,-0.022970,0.011187,0.003361,0.684388,0.720019,-0.041963,0.106883,92.367593,-12.201691,5.040217
25054,NaN,2.188872,9.614563,-0.480584,0.097160,0.092999,0.058678,-0.020581,0.010990,-0.001811,0.684449,0.719958,-0.041967,0.106910,92.357264,-12.203758,5.043196
25055,NaN,2.151780,9.625576,-0.432682,0.063286,0.042895,0.059660,-0.012079,0.017966,-0.009201,0.684482,0.719925,-0.041907,0.106944,92.351064,-12.201623,5.051527
25056,NaN,2.114667,9.659747,-0.377542,0.025796,-0.016352,0.082975,-0.005814,0.018460,-0.011360,0.684495,0.719912,-0.041843,0.106968,92.348224,-12.198398,5.059111
25057,NaN,2.037169,9.683435,-0.364779,-0.053086,-0.035929,0.089227,-0.019463,0.020725,-0.006700,0.684557,0.719849,-0.041794,0.107013,92.337189,-12.197820,5.067930
25058,NaN,2.067721,9.655383,-0.357127,-0.016982,-0.037487,0.067987,-0.020864,0.006868,-0.003822,0.684618,0.719790,-0.041804,0.107018,92.327199,-12.198638,5.068544
25059,NaN,2.121502,9.652832,-0.350083,0.036456,-0.038190,0.076585,-0.017122,0.009759,-0.007329,0.684667,0.719743,-0.041787,0.107027,92.319129,-12.197663,5.071554
25060,NaN,2.112447,9.660522,-0.370072,0.023991,-0.018443,0.082976,-0.010827,0.012504,-0.003001,0.684693,0.719714,-0.041776,0.107058,92.314196,-12.199082,5.075450
25061,NaN,2.012774,9.681646,-0.348798,-0.075913,-0.048096,0.081711,-0.025575,0.000550,0.000076,0.684768,0.719641,-0.041827,0.107054,92.302374,-12.202338,5.072249
25062,NaN,2.083034,9.594622,-0.321738,0.012360,-0.061790,0.010517,-0.029548,-0.008686,0.001587,0.684854,0.719559,-0.041914,0.107020,92.289361,-12.205896,5.063626
25063,NaN,2.134285,9.593834,-0.395488,0.054304,0.017564,0.023470,-0.016656,-0.003555,0.005786,0.684893,0.719517,-0.041994,0.107022,92.283065,-12.212079,5.057837
25064,NaN,2.113395,9.660603,-0.362457,0.022118,-0.020536,0.082976,-0.004248,0.006365,0.007900,0.684889,0.719511,-0.042039,0.107069,92.282715,-12.219596,5.057883
25065,NaN,2.105177,9.644909,-0.391304,0.013249,0.008387,0.067035,-0.005368,0.009620,0.008238,0.684888,0.719501,-0.042074,0.107131,92.281347,-12.227426,5.060171
25066,NaN,2.106362,9.644682,-0.390530,0.012802,0.007867,0.067036,-0.008244,0.001600,0.015880,0.684892,0.719483,-0.042166,0.107187,92.279338,-12.239403,5.057240
25067,NaN,2.098448,9.605753,-0.427064,0.007512,0.045983,0.028765,-0.009263,0.000404,0.016250,0.684900,0.719462,-0.042267,0.107240,92.276849,-12.251775,5.053411
25068,NaN,2.167810,9.589600,-0.459167,0.073517,0.084774,0.028962,-0.003664,-0.002876,0.010015,0.684890,0.719463,-0.042352,0.107261,92.277994,-12.260292,5.047994
25069,NaN,2.200983,9.630437,-0.429669,0.098848,0.055642,0.074749,-0.003178,0.005334,0.007551,0.684880,0.719463,-0.042391,0.107308,92.278504,-12.267440,5.048434
25070,NaN,2.232944,9.625178,-0.415673,0.131360,0.044886,0.075872,-0.008504,0.006014,0.002841,0.684893,0.719445,-0.042422,0.107336,92.275734,-12.272053,5.048393
25071,NaN,2.192853,9.637979,-0.449418,0.085918,0.074840,0.081161,-0.011155,0.010619,-0.005024,0.684920,0.719417,-0.042408,0.107356,92.270958,-12.272459,5.051677
25072,NaN,2.191906,9.638273,-0.447726,0.085473,0.074316,0.081169,-0.017729,0.016762,-0.015913,0.684978,0.719366,-0.042340,0.107356,92.261472,-12.266578,5.058369
25073,NaN,2.107470,9.621550,-0.391203,0.013216,0.013363,0.044712,-0.015004,0.018460,-0.019049,0.685028,0.719323,-0.042251,0.107355,92.253390,-12.259099,5.066500
25074,NaN,2.083936,9.665713,-0.365551,-0.015403,-0.015565,0.081853,-0.009629,0.015554,-0.014323,0.685057,0.719300,-0.042188,0.107358,92.248705,-12.254100,5.072446
25075,NaN,2.113987,9.660903,-0.350836,0.017097,-0.026358,0.082972,-0.013068,0.012302,-0.015268,0.685095,0.719267,-0.042129,0.107351,92.242649,-12.248538,5.077454
25076,NaN,2.075666,9.648815,-0.311179,-0.013245,-0.067215,0.061530,-0.015411,0.010263,-0.010077,0.685141,0.719226,-0.042102,0.107348,92.235330,-12.245850,5.080201
25077,NaN,2.111620,9.638361,-0.355591,0.019784,-0.018231,0.060644,-0.013526,0.006332,-0.006316,0.685176,0.719193,-0.042100,0.107348,92.229709,-12.245415,5.080944
25078,NaN,2.096983,9.628482,-0.324657,0.010391,-0.049052,0.046719,-0.009068,-0.002219,-0.001202,0.685192,0.719177,-0.042145,0.107332,92.227618,-12.247530,5.076176
25079,NaN,2.041273,9.562020,-0.353344,-0.033104,-0.021791,-0.028910,-0.000943,-0.020887,-0.001566,0.685173,0.719201,-0.042244,0.107253,92.232593,-12.249054,5.061107
25080,NaN,1.987348,9.587786,-0.352200,-0.091070,-0.031277,-0.015240,0.026568,-0.027583,0.002119,0.685053,0.719321,-0.042368,0.107164,92.254091,-12.252500,5.041402
25081,NaN,2.157577,9.689387,-0.359137,0.052650,-0.018679,0.120349,0.013958,-0.028605,-0.000049,0.684979,0.719399,-0.042490,0.107066,92.268560,-12.254622,5.021842
25082,NaN,2.179129,9.645664,-0.385177,0.080397,0.009212,0.083233,0.016630,-0.011680,-0.007739,0.684904,0.719479,-0.042530,0.106999,92.282339,-12.252775,5.011682
25083,NaN,2.178797,9.645674,-0.386785,0.079903,0.008645,0.083238,0.015615,0.006834,0.001055,0.684829,0.719544,-0.042536,0.107034,92.293516,-12.256671,5.012804
25084,NaN,2.107548,9.663435,-0.436042,0.001555,0.048900,0.087388,0.010318,0.009755,0.002838,0.684775,0.719588,-0.042544,0.107079,92.301065,-12.261367,5.014953
25085,NaN,2.125583,9.671286,-0.385440,0.021432,-0.001366,0.096903,0.003034,0.008058,0.005371,0.684746,0.719607,-0.042574,0.107125,92.304630,-12.267750,5.015795
25086,NaN,2.196679,9.607147,-0.353117,0.106140,-0.024275,0.048119,0.000613,0.006002,0.004057,0.684726,0.719620,-0.042604,0.107158,92.307092,-12.273059,5.015717
25087,NaN,2.184987,9.616671,-0.455420,0.082278,0.075503,0.058962,-0.000203,0.008902,-0.000058,0.684710,0.719630,-0.042606,0.107192,92.308797,-12.276098,5.018060
25088,NaN,2.185460,9.662957,-0.439010,0.074569,0.056575,0.103609,-0.007313,0.009058,-0.008498,0.684726,0.719616,-0.042585,0.107192,92.306275,-12.274289,5.020068
25089,NaN,2.162110,9.683887,-0.421673,0.049494,0.036860,0.118394,-0.011338,0.015045,-0.011551,0.684760,0.719585,-0.042540,0.107199,92.300503,-12.271110,5.024968
25090,NaN,2.145977,9.651216,-0.397964,0.043728,0.015252,0.082131,-0.019516,0.016229,-0.019634,0.684827,0.719528,-0.042461,0.107184,92.290040,-12.263091,5.031438
25091,NaN,2.120701,9.626245,-0.395379,0.025942,0.013899,0.052272,-0.021248,0.013480,-0.023347,0.684900,0.719468,-0.042376,0.107151,92.279046,-12.253046,5.036985
25092,NaN,2.073647,9.668122,-0.360294,-0.023684,-0.025051,0.081818,-0.030901,0.007497,-0.022113,0.685008,0.719378,-0.042324,0.107093,92.263137,-12.243406,5.038393
25093,NaN,2.079812,9.638024,-0.343315,-0.008526,-0.036626,0.053090,-0.037012,0.000314,-0.019905,0.685135,0.719269,-0.042310,0.107016,92.244537,-12.235017,5.035286
25094,NaN,2.092271,9.648576,-0.369531,-0.000017,-0.006861,0.067045,-0.036681,0.002198,-0.017860,0.685260,0.719160,-0.042294,0.106952,92.225995,-12.227693,5.033487
25095,NaN,2.105294,9.659012,-0.396186,0.008474,0.022901,0.081004,-0.026190,0.007520,-0.008485,0.685343,0.719083,-0.042288,0.106944,92.212845,-12.225965,5.034746
25096,NaN,2.081487,9.633715,-0.393175,-0.009279,0.021587,0.051140,-0.026600,0.012321,-0.004052,0.685426,0.719000,-0.042282,0.106967,92.198891,-12.226771,5.038562
25097,NaN,2.066931,9.623810,-0.361028,-0.018714,-0.009266,0.037177,-0.018395,0.006673,-0.002451,0.685475,0.718951,-0.042291,0.106984,92.190659,-12.228558,5.040126
25098,NaN,2.065909,9.577781,-0.375524,-0.011865,0.008642,-0.007450,-0.009606,0.004787,-0.003278,0.685495,0.718931,-0.042304,0.106986,92.187380,-12.229640,5.039511
25099,NaN,2.058155,9.631516,-0.380959,-0.031644,0.009932,0.043586,0.006446,-0.003929,0.004356,0.685449,0.718970,-0.042364,0.106992,92.194670,-12.235188,5.034293
25100,NaN,2.136660,9.677298,-0.368543,0.035451,0.000704,0.104469,0.001528,-0.001354,0.008192,0.685422,0.718989,-0.042434,0.107014,92.198588,-12.242703,5.029822
25101,NaN,2.159287,9.633516,-0.392340,0.063218,0.028585,0.067407,-0.008512,0.005997,0.002855,0.685433,0.718971,-0.042464,0.107045,92.195936,-12.247568,5.030079
25102,NaN,2.122218,9.597853,-0.361451,0.036509,-0.002990,0.023567,-0.004850,0.015587,0.005822,0.685434,0.718959,-0.042471,0.107117,92.194084,-12.254097,5.035587
25103,NaN,2.114555,9.628443,-0.374208,0.020403,0.007510,0.052292,-0.005231,0.015925,0.003775,0.685434,0.718948,-0.042463,0.107191,92.192206,-12.259581,5.042329
25104,NaN,2.114805,9.605254,-0.381694,0.023612,0.016209,0.029984,0.000247,0.008572,0.008508,0.685414,0.718957,-0.042501,0.107249,92.194159,-12.267495,5.043667
25105,NaN,2.130333,9.638220,-0.403040,0.028436,0.036667,0.066275,-0.005382,0.009600,0.008260,0.685409,0.718949,-0.042530,0.107318,92.193173,-12.275540,5.046900
25106,NaN,2.176017,9.620027,-0.426582,0.073553,0.065348,0.059104,-0.007341,0.013519,-0.001991,0.685422,0.718932,-0.042517,0.107356,92.190111,-12.277551,5.051373
25107,NaN,2.176197,9.643187,-0.417525,0.069444,0.055573,0.081418,-0.009707,0.009238,-0.003298,0.685442,0.718910,-0.042509,0.107380,92.186404,-12.278748,5.054290
25108,NaN,2.152814,9.640903,-0.407959,0.048046,0.045062,0.073854,-0.014010,0.011113,-0.008363,0.685482,0.718873,-0.042485,0.107386,92.179790,-12.277058,5.057495
25109,NaN,2.143402,9.648765,-0.428201,0.035589,0.064806,0.080276,-0.007795,0.013847,-0.010535,0.685501,0.718856,-0.042440,0.107398,92.176443,-12.274340,5.062594
25110,NaN,2.127375,9.615953,-0.405558,0.029840,0.043245,0.043986,-0.003741,0.016401,-0.018484,0.685510,0.718852,-0.042356,0.107391,92.175008,-12.266969,5.069122
25111,NaN,2.112236,9.652376,-0.358988,0.013089,-0.005961,0.074606,-0.006468,0.014693,-0.015348,0.685529,0.718839,-0.042292,0.107386,92.172066,-12.261358,5.074314
25112,NaN,2.104900,9.635045,-0.306813,0.015652,-0.057024,0.054193,-0.004759,0.015202,-0.018114,0.685542,0.718833,-0.042214,0.107375,92.170199,-12.254173,5.080131
25113,NaN,2.135186,9.653316,-0.284928,0.044443,-0.077094,0.077651,0.001526,0.017947,-0.013783,0.685529,0.718847,-0.042136,0.107395,92.171738,-12.249675,5.087939
25114,NaN,2.079140,9.633221,-0.297709,-0.006225,-0.068066,0.046610,-0.003307,0.013834,-0.016418,0.685536,0.718846,-0.042068,0.107385,92.170882,-12.243431,5.092917
25115,NaN,2.069053,9.618039,-0.326868,-0.015036,-0.039136,0.030724,0.001268,0.016070,-0.009320,0.685519,0.718860,-0.042011,0.107417,92.172748,-12.241643,5.099966
25116,NaN,2.083052,9.651361,-0.348276,-0.010185,-0.018627,0.067025,-0.002424,0.010940,-0.005816,0.685516,0.718862,-0.041991,0.107434,92.172809,-12.241407,5.103012
25117,NaN,2.090954,9.643892,-0.326593,0.001345,-0.039467,0.060602,0.003951,0.007004,-0.007960,0.685488,0.718890,-0.041966,0.107437,92.177233,-12.239878,5.104861
25118,NaN,2.095682,9.638687,-0.386102,0.001568,0.019783,0.058729,0.002932,0.005807,-0.007595,0.685466,0.718913,-0.041954,0.107431,92.180992,-12.238511,5.104939
25119,NaN,2.095106,9.638821,-0.385893,0.001083,0.019229,0.058730,-0.005372,0.002898,-0.004709,0.685469,0.718910,-0.041964,0.107426,92.180550,-12.238974,5.103768
25120,NaN,2.085946,9.623434,-0.415280,-0.007661,0.048226,0.042856,0.004930,0.012661,-0.001840,0.685438,0.718935,-0.041948,0.107464,92.184629,-12.241052,5.107734
25121,NaN,2.095573,9.661858,-0.377895,-0.003487,0.008942,0.081030,0.003721,0.009599,0.009478,0.685403,0.718955,-0.041979,0.107534,92.188525,-12.249521,5.110276
25122,NaN,2.141951,9.666698,-0.394359,0.037973,0.028359,0.096211,0.004565,0.015234,0.002604,0.685371,0.718977,-0.041971,0.107596,92.192096,-12.254200,5.115650
25123,NaN,2.111042,9.671697,-0.407998,0.004594,0.038128,0.095047,0.006395,0.013530,0.006343,0.685329,0.719006,-0.041976,0.107670,92.197075,-12.261004,5.120673
25124,NaN,2.160326,9.651175,-0.351567,0.061026,-0.013274,0.083367,0.001630,0.009428,0.010200,0.685303,0.719019,-0.042016,0.107737,92.199723,-12.269905,5.122473
25125,NaN,2.189376,9.648154,-0.418758,0.082188,0.055941,0.089116,-0.002994,0.009413,0.003094,0.685297,0.719017,-0.042035,0.107779,92.199635,-12.274939,5.124194
25126,NaN,2.166223,9.622616,-0.417952,0.064477,0.054694,0.059232,-0.005256,0.013680,-0.002698,0.685303,0.719006,-0.042018,0.107816,92.197745,-12.276548,5.128776
25127,NaN,2.142837,9.620279,-0.408946,0.043053,0.044210,0.051640,-0.005428,0.018116,-0.009208,0.685314,0.718994,-0.041963,0.107847,92.195156,-12.274673,5.136138
25128,NaN,2.141782,9.620535,-0.408461,0.042609,0.043688,0.051644,0.002659,0.014690,-0.014114,0.685298,0.719013,-0.041897,0.107850,92.197621,-12.269769,5.141569
25129,NaN,2.094910,9.638942,-0.383919,-0.003463,0.014015,0.058738,-0.001260,0.016221,-0.017131,0.685298,0.719018,-0.041819,0.107847,92.197559,-12.263312,5.147783
25130,NaN,2.111110,9.670199,-0.324269,0.012642,-0.045562,0.090466,-0.002864,0.011264,-0.014352,0.685302,0.719019,-0.041767,0.107836,92.197286,-12.258196,5.151211
25131,NaN,2.100971,9.655058,-0.352919,0.003893,-0.016579,0.074601,-0.011602,0.010916,-0.013525,0.685334,0.718992,-0.041721,0.107828,92.192186,-12.253706,5.154891
25132,NaN,2.085653,9.645200,-0.321820,-0.005541,-0.047338,0.060566,-0.012557,0.009729,-0.006666,0.685368,0.718960,-0.041707,0.107835,92.186587,-12.252957,5.157247
25133,NaN,2.099355,9.632374,-0.358300,0.006631,-0.008402,0.052310,-0.008368,0.012306,-0.001611,0.685383,0.718940,-0.041702,0.107873,92.183232,-12.255546,5.161102
25134,NaN,2.068082,9.637482,-0.370983,-0.026739,0.001411,0.051132,-0.003000,0.009410,0.003099,0.685377,0.718938,-0.041719,0.107915,92.183195,-12.260381,5.163053
25135,NaN,2.045943,9.657951,-0.354683,-0.051896,-0.018293,0.065808,0.003973,0.011471,0.005034,0.685346,0.718958,-0.041738,0.107970,92.186793,-12.266662,5.165592
25136,NaN,2.069432,9.637189,-0.371046,-0.027684,0.000389,0.051129,0.005484,0.010116,0.013221,0.685304,0.718983,-0.041784,0.108051,92.191577,-12.277307,5.167730
25137,NaN,2.117040,9.688056,-0.371369,0.006308,0.001220,0.110929,-0.000363,0.004806,0.010935,0.685281,0.718993,-0.041843,0.108108,92.193865,-12.286907,5.167173
25138,NaN,2.126255,9.657177,-0.357136,0.021530,-0.010336,0.082210,-0.011515,0.002403,0.010435,0.685301,0.718965,-0.041915,0.108148,92.189858,-12.295788,5.164853
25139,NaN,2.132338,9.605507,-0.431489,0.029190,0.067395,0.035836,-0.005722,0.009935,0.012718,0.685298,0.718952,-0.041966,0.108227,92.188364,-12.306409,5.167173
