// General information: 
//  MT Manager version: 2019.0.1 
//  XDA version: 2019.0.1 build 2740 rev 84096 built on 2019-01-30
// Device information: 
//  DeviceId: 00B43876
//  ProductCode: MTW2-3A7G6
//  Firmware Version: 4.3.4
//  Hardware Version: 1.1.0
// Device settings: 
//  Filter Profile: human(46.1)
//  Option Flags: Orientation Smoother Disabled, AHS Disabled, ICC Disabled
// Coordinate system: ENU
PacketCounter,SampleTimeFine,Acc_X,Acc_Y,Acc_Z,FreeAcc_E,FreeAcc_N,FreeAcc_U,Gyr_X,Gyr_Y,Gyr_Z,Quat_q0,Quat_q1,Quat_q2,Quat_q3,Roll,Pitch,Yaw
50563,NaN,-0.807190,9.832194,0.025760,-0.018369,-0.012949,0.052593,-0.003073,0.001663,-0.000933,0.443958,0.487853,-0.511408,-0.550783,89.947019,4.779206,-97.484279
50564,NaN,-0.809003,9.856099,0.030587,-0.023183,-0.012271,0.076570,-0.002032,0.003407,-0.004081,0.443951,0.487848,-0.511419,-0.550784,89.947682,4.778772,-97.485587
50565,NaN,-0.786901,9.814850,-0.006220,0.010886,-0.035242,0.033590,-0.004998,0.005934,-0.000598,0.443966,0.487835,-0.511425,-0.550778,89.946883,4.776333,-97.485532
50566,NaN,-0.807934,9.832130,0.026816,-0.019054,-0.011409,0.052593,-0.006333,0.003693,-0.004791,0.443968,0.487822,-0.511421,-0.550790,89.945095,4.776307,-97.486676
50567,NaN,-0.784189,9.834517,0.022780,-0.018096,-0.035273,0.052992,-0.000429,0.004054,0.001547,0.443975,0.487808,-0.511448,-0.550772,89.946676,4.772603,-97.487491
50568,NaN,-0.769835,9.845357,-0.028759,0.030751,-0.056692,0.062553,0.000425,0.006163,-0.004527,0.443968,0.487817,-0.511458,-0.550760,89.948880,4.772426,-97.487213
50569,NaN,-0.783139,9.810549,0.018463,-0.013928,-0.034399,0.029017,-0.007990,0.006369,-0.003021,0.443987,0.487803,-0.511449,-0.550766,89.946180,4.771236,-97.486802
50570,NaN,-0.789711,9.838676,-0.000203,0.005203,-0.032490,0.057577,0.000693,0.004568,-0.003091,0.443979,0.487805,-0.511467,-0.550755,89.948460,4.770236,-97.487441
50571,NaN,-0.814015,9.836240,0.004308,0.003827,-0.007574,0.057175,-0.005104,0.005072,-0.005013,0.443982,0.487799,-0.511463,-0.550761,89.947379,4.770195,-97.487818
50572,NaN,-0.784247,9.810459,0.019482,-0.014582,-0.032846,0.029022,-0.006413,0.004923,-0.003299,0.443992,0.487786,-0.511460,-0.550767,89.945605,4.769314,-97.488253
50573,NaN,-0.817895,9.816481,-0.022899,0.031926,-0.005501,0.037781,-0.003607,0.004855,-0.003801,0.443993,0.487780,-0.511465,-0.550767,89.945465,4.768661,-97.488755
50574,NaN,-0.788388,9.858226,0.029608,-0.024225,-0.031451,0.076978,-0.006436,0.002831,-0.009206,0.443981,0.487777,-0.511452,-0.550791,89.943577,4.771163,-97.490396
50575,NaN,-0.814470,9.812147,0.001617,0.007543,-0.005691,0.033200,-0.004304,0.010505,-0.003686,0.444000,0.487785,-0.511441,-0.550779,89.943245,4.770430,-97.487565
50576,NaN,-0.821267,9.840258,-0.017097,0.026672,-0.003780,0.061761,-0.002216,0.003775,-0.007004,0.443986,0.487788,-0.511443,-0.550786,89.943821,4.771672,-97.488662
50577,NaN,-0.810675,9.807840,0.025775,-0.016843,-0.005857,0.028617,-0.004997,0.005936,-0.000595,0.444002,0.487772,-0.511450,-0.550780,89.942900,4.769068,-97.488729
50578,NaN,-0.812534,9.831739,0.030835,-0.021663,-0.005159,0.052593,-0.005101,0.005073,-0.005011,0.444005,0.487767,-0.511447,-0.550786,89.941884,4.769168,-97.489079
50579,NaN,-0.816002,9.812019,0.003029,0.006665,-0.003616,0.033202,-0.003687,0.006085,-0.002308,0.444014,0.487761,-0.511451,-0.550780,89.941729,4.767675,-97.488787
50580,NaN,-0.813138,9.831687,0.031463,-0.022105,-0.004127,0.052592,-0.002110,0.004639,-0.002587,0.444014,0.487756,-0.511462,-0.550774,89.942406,4.766386,-97.489385
50581,NaN,-0.794100,9.838322,0.003731,0.002770,-0.026783,0.057595,-0.002192,0.005868,-0.001096,0.444022,0.487749,-0.511474,-0.550762,89.943128,4.764219,-97.489227
50582,NaN,-0.822994,9.840117,-0.015220,0.025345,-0.000680,0.061765,-0.005100,0.005074,-0.005010,0.444025,0.487744,-0.511471,-0.550768,89.942113,4.764319,-97.489576
50583,NaN,-0.818617,9.835855,0.008616,0.001185,-0.001378,0.057178,-0.001311,0.010072,-0.001259,0.444042,0.487753,-0.511474,-0.550743,89.943452,4.762263,-97.486781
50584,NaN,-0.788415,9.810116,0.023367,-0.017234,-0.026654,0.029036,-0.001658,0.002676,0.001771,0.444048,0.487731,-0.511501,-0.550732,89.944295,4.758476,-97.488505
50585,NaN,-0.812556,9.807678,0.027981,-0.018598,-0.001751,0.028615,-0.005018,0.003846,-0.006501,0.444044,0.487727,-0.511497,-0.550744,89.943242,4.759370,-97.489467
50586,NaN,-0.793846,9.814293,0.000409,0.006276,-0.024419,0.033626,-0.002376,0.006236,-0.004020,0.444045,0.487729,-0.511500,-0.550738,89.943843,4.758903,-97.489147
50587,NaN,-0.772045,9.840593,0.001037,0.002595,-0.048080,0.058027,-0.005017,0.003846,-0.006501,0.444040,0.487724,-0.511496,-0.550750,89.942822,4.759787,-97.490205
50588,NaN,-0.766291,9.812392,0.020329,-0.016973,-0.048974,0.029466,-0.002376,0.006236,-0.004019,0.444041,0.487726,-0.511499,-0.550744,89.943424,4.759319,-97.489885
50589,NaN,-0.768472,9.836266,0.025277,-0.021789,-0.048240,0.053443,-0.005283,0.005443,-0.007933,0.444038,0.487728,-0.511487,-0.550756,89.942261,4.760978,-97.489991
50590,NaN,-0.767404,9.812304,0.020925,-0.017407,-0.047934,0.029470,-0.001229,0.008845,-0.002748,0.444047,0.487736,-0.511491,-0.550738,89.943644,4.759783,-97.488171
50591,NaN,-0.821911,9.835578,0.011033,-0.000547,0.002764,0.057178,-0.009397,0.005362,-0.005719,0.444060,0.487724,-0.511473,-0.550756,89.940090,4.760196,-97.488205
50592,NaN,-0.773261,9.816452,-0.001644,0.006112,-0.045701,0.034065,-0.002742,0.006974,-0.009866,0.444047,0.487742,-0.511459,-0.550762,89.940516,4.763078,-97.487465
50593,NaN,-0.801051,9.861806,0.012103,-0.004469,-0.020393,0.081585,-0.002723,0.009064,-0.003958,0.444057,0.487752,-0.511455,-0.550750,89.941099,4.762616,-97.485350
50594,NaN,-0.795527,9.833582,0.031698,-0.024033,-0.021287,0.053019,-0.011687,0.010372,-0.011227,0.444072,0.487762,-0.511406,-0.550774,89.936563,4.766280,-97.482657
50595,NaN,-0.777320,9.840177,0.004471,0.000831,-0.043950,0.058047,-0.003436,0.012628,-0.009744,0.444077,0.487794,-0.511379,-0.550768,89.936840,4.769008,-97.478647
50596,NaN,-0.824479,9.811307,0.008735,0.002954,0.005114,0.033203,-0.004664,0.011250,-0.009523,0.444081,0.487818,-0.511351,-0.550768,89.936371,4.771696,-97.475449
50597,NaN,-0.801448,9.813674,0.004733,0.003858,-0.018745,0.033640,-0.002821,0.008206,-0.008371,0.444077,0.487835,-0.511340,-0.550768,89.936851,4.773641,-97.474102
50598,NaN,-0.830720,9.815420,-0.014494,0.026457,0.007339,0.037796,-0.000181,0.010596,-0.005887,0.444078,0.487858,-0.511335,-0.550750,89.938919,4.774246,-97.471276
50599,NaN,-0.782379,9.863821,0.009911,-0.004699,-0.041647,0.082030,-0.003799,0.003142,-0.012624,0.444050,0.487868,-0.511323,-0.550775,89.938690,4.778582,-97.473124
50600,NaN,-0.832706,9.815253,-0.013940,0.025996,0.008380,0.037797,-0.005541,0.007046,-0.009360,0.444046,0.487879,-0.511303,-0.550787,89.937517,4.781175,-97.472342
50601,NaN,-0.811213,9.841552,-0.013248,0.022293,-0.015269,0.062213,-0.002902,0.009436,-0.006877,0.444050,0.487896,-0.511291,-0.550781,89.937948,4.782317,-97.470034
50602,NaN,-0.835704,9.839053,-0.009043,0.020949,0.009626,0.061771,0.002889,0.008934,-0.004953,0.444042,0.487919,-0.511300,-0.550757,89.941696,4.782386,-97.468164
50603,NaN,-0.829960,9.810844,0.009697,0.001409,0.008741,0.033201,0.000168,0.007772,-0.005945,0.444037,0.487935,-0.511302,-0.550745,89.943744,4.782919,-97.466850
50604,NaN,-0.827363,9.830477,0.037888,-0.027372,0.008294,0.052577,-0.000878,0.006023,-0.002802,0.444038,0.487936,-0.511313,-0.550733,89.945193,4.781753,-97.466652
50605,NaN,-0.782975,9.815682,0.001235,0.003215,-0.039006,0.034095,-0.002287,0.005013,-0.005505,0.444033,0.487939,-0.511315,-0.550733,89.945733,4.782114,-97.466799
50606,NaN,-0.831219,9.810737,0.009822,0.000758,0.010272,0.033199,0.000699,0.004577,-0.003082,0.444025,0.487941,-0.511333,-0.550721,89.948017,4.781108,-97.467433
50607,NaN,-0.807380,9.813187,0.005507,0.001650,-0.013583,0.033649,-0.000780,0.006882,0.001613,0.444039,0.487933,-0.511355,-0.550697,89.949599,4.777307,-97.466881
50608,NaN,-0.807404,9.813185,0.005326,0.001428,-0.013074,0.033650,0.003420,0.005739,-0.002089,0.444030,0.487941,-0.511380,-0.550674,89.953498,4.775733,-97.466846
50609,NaN,-0.790073,9.843779,-0.018011,0.021667,-0.035537,0.062675,-0.002022,0.003415,-0.004074,0.444025,0.487937,-0.511389,-0.550673,89.954079,4.775288,-97.467812
50610,NaN,-0.766446,9.846213,-0.022305,0.022554,-0.059412,0.063132,0.001496,0.010013,-0.001748,0.444033,0.487952,-0.511400,-0.550643,89.957080,4.773520,-97.465320
50611,NaN,-0.808199,9.813120,0.005174,0.000774,-0.011544,0.033652,-0.002801,0.010298,-0.002460,0.444050,0.487960,-0.511397,-0.550625,89.957665,4.772153,-97.462575
50612,NaN,-0.810032,9.837019,0.009843,-0.004065,-0.010795,0.057625,0.000616,0.005806,-0.001589,0.444050,0.487961,-0.511416,-0.550607,89.959960,4.770292,-97.462502
50613,NaN,-0.810235,9.837002,0.009879,-0.004279,-0.010271,0.057625,-0.002453,0.007471,-0.002520,0.444059,0.487962,-0.511420,-0.550595,89.960545,4.768888,-97.461408
50614,NaN,-0.810266,9.837000,0.010052,-0.004501,-0.009760,0.057626,-0.002356,0.008330,0.001894,0.444082,0.487954,-0.511433,-0.550570,89.961258,4.765033,-97.459882
50615,NaN,-0.808655,9.813082,0.005244,-0.000137,-0.009514,0.033654,0.004998,0.004293,-0.002367,0.444064,0.487965,-0.511465,-0.550546,89.966163,4.763761,-97.460522
50616,NaN,-0.788183,9.863359,0.010061,-0.008495,-0.032898,0.082060,-0.002188,0.005873,-0.001089,0.444072,0.487958,-0.511477,-0.550534,89.966855,4.761614,-97.460411
50617,NaN,-0.781851,9.835201,0.029325,-0.028020,-0.033780,0.053487,-0.004813,0.005569,0.002332,0.444097,0.487936,-0.511490,-0.550522,89.965891,4.757367,-97.460328
50618,NaN,-0.786460,9.839450,0.006244,-0.004296,-0.032100,0.058092,-0.006485,0.006158,-0.001802,0.444114,0.487923,-0.511488,-0.550522,89.964134,4.755629,-97.460053
50619,NaN,-0.786603,9.839438,0.006623,-0.004523,-0.031576,0.058093,-0.002188,0.005873,-0.001089,0.444122,0.487916,-0.511500,-0.550510,89.964862,4.753405,-97.460007
50620,NaN,-0.784986,9.815521,0.002233,-0.000126,-0.031316,0.034123,-0.003848,0.008549,0.000684,0.444146,0.487908,-0.511506,-0.550492,89.964731,4.750244,-97.458356
50621,NaN,-0.813550,9.817310,-0.016870,0.022523,-0.005240,0.038261,-0.002187,0.005874,-0.001088,0.444155,0.487902,-0.511518,-0.550480,89.965326,4.747978,-97.458143
50622,NaN,-0.782016,9.835184,0.030653,-0.029122,-0.031187,0.053492,0.002026,0.006818,0.001118,0.444161,0.487901,-0.511545,-0.550450,89.968477,4.744567,-97.457487
50623,NaN,-0.805924,9.832724,0.034917,-0.030411,-0.006267,0.053022,-0.003068,0.001665,-0.000932,0.444163,0.487880,-0.511564,-0.550450,89.968331,4.742176,-97.459696
50624,NaN,-0.789818,9.819757,-0.020638,0.022976,-0.028076,0.038736,-0.007628,0.003550,-0.003076,0.444173,0.487861,-0.511561,-0.550462,89.965796,4.741166,-97.460920
50625,NaN,-0.809048,9.813048,0.007496,-0.002259,-0.004328,0.033658,0.000629,0.007894,0.004321,0.444196,0.487852,-0.511588,-0.550425,89.968067,4.735821,-97.459418
50626,NaN,-0.789809,9.819758,-0.020304,0.022555,-0.027045,0.038740,-0.002628,0.007844,-0.005440,0.444198,0.487861,-0.511584,-0.550419,89.968601,4.736168,-97.458174
50627,NaN,-0.790198,9.819727,-0.020115,0.022309,-0.026525,0.038742,-0.002449,0.007474,-0.002517,0.444205,0.487862,-0.511590,-0.550407,89.969360,4.734788,-97.457372
50628,NaN,-0.763550,9.841831,0.004054,-0.005402,-0.051294,0.058584,-0.002449,0.007474,-0.002517,0.444214,0.487863,-0.511594,-0.550396,89.969978,4.733460,-97.456340
50629,NaN,-0.805480,9.808706,0.031880,-0.027100,-0.003403,0.029049,-0.006661,0.006531,-0.004723,0.444225,0.487856,-0.511585,-0.550402,89.968076,4.733221,-97.455945
50630,NaN,-0.788299,9.839301,0.008810,-0.006919,-0.025858,0.058109,0.002898,0.008942,-0.004942,0.444218,0.487879,-0.511594,-0.550378,89.971827,4.733283,-97.454070
50631,NaN,-0.788876,9.839254,0.008791,-0.007151,-0.025357,0.058110,-0.003423,0.002408,-0.006776,0.444205,0.487877,-0.511596,-0.550389,89.971692,4.734458,-97.455708
50632,NaN,-0.789790,9.839181,0.009338,-0.007375,-0.024845,0.058111,-0.008507,0.007492,-0.011778,0.444203,0.487888,-0.511561,-0.550413,89.968841,4.738436,-97.454668
50633,NaN,-0.836629,9.810273,0.013503,-0.005122,0.024193,0.033174,0.000272,0.008638,-0.001521,0.444210,0.487894,-0.511574,-0.550390,89.971075,4.736378,-97.453151
50634,NaN,-0.741437,9.820121,-0.003296,-0.001037,-0.072840,0.035114,-0.003685,0.004009,-0.008205,0.444198,0.487898,-0.511568,-0.550402,89.970820,4.738307,-97.454113
50635,NaN,-0.811033,9.832293,0.037961,-0.033055,-0.000026,0.053016,-0.004379,0.009666,-0.008078,0.444202,0.487914,-0.511549,-0.550402,89.970407,4.740040,-97.451866
50636,NaN,-0.814824,9.812568,0.010278,-0.004700,0.001357,0.033657,-0.007979,0.004294,-0.008918,0.444198,0.487910,-0.511530,-0.550426,89.967706,4.742378,-97.452664
50637,NaN,-0.793500,9.838880,0.011103,-0.008454,-0.022220,0.058116,-0.001141,0.005545,-0.010130,0.444180,0.487928,-0.511523,-0.550432,89.968850,4.745267,-97.452630
50638,NaN,-0.816721,9.812409,0.010950,-0.005116,0.002398,0.033657,-0.004826,0.001401,-0.009478,0.444159,0.487925,-0.511517,-0.550456,89.967817,4.747925,-97.455092
50639,NaN,-0.821930,9.816619,-0.011982,0.018612,0.004069,0.038270,-0.009200,0.004998,-0.002794,0.444178,0.487904,-0.511508,-0.550468,89.964450,4.746648,-97.455545
50640,NaN,-0.842738,9.766296,-0.016677,0.026587,0.028399,-0.010161,0.000966,0.002982,-0.001645,0.444169,0.487898,-0.511534,-0.550457,89.966812,4.744818,-97.457095
50641,NaN,-0.823857,9.840508,-0.007237,0.013545,0.005380,0.062239,0.004295,-0.000284,0.000715,0.444151,0.487884,-0.511582,-0.550439,89.970895,4.741575,-97.460419
50642,NaN,-0.823882,9.840506,-0.007375,0.013323,0.005890,0.062239,-0.001491,0.000219,-0.001212,0.444143,0.487864,-0.511608,-0.550439,89.971718,4.739497,-97.463558
50643,NaN,-0.801607,9.866902,-0.006820,0.009540,-0.017680,0.086705,-0.000966,-0.002982,0.001645,0.444133,0.487828,-0.511650,-0.550439,89.972656,4.735666,-97.468557
50644,NaN,-0.795158,9.838745,0.012327,-0.009997,-0.018593,0.058122,-0.002890,0.001294,0.001990,0.444139,0.487800,-0.511678,-0.550434,89.972728,4.731753,-97.471077
50645,NaN,-0.820554,9.860187,0.021400,-0.015937,0.006601,0.081592,-0.001661,0.002675,0.001773,0.444144,0.487778,-0.511707,-0.550422,89.973713,4.727946,-97.472959
50646,NaN,-0.839698,9.853455,0.049345,-0.041164,0.030365,0.076473,-0.000966,-0.002982,0.001645,0.444134,0.487743,-0.511748,-0.550422,89.974686,4.724229,-97.477937
50647,NaN,-0.874116,9.883441,0.011489,0.000840,0.057854,0.109170,-0.008322,0.001053,0.005907,0.444165,0.487691,-0.511771,-0.550422,89.971522,4.717889,-97.480607
50648,NaN,-0.848406,9.862023,0.003375,0.006312,0.033687,0.085703,-0.006581,-0.004934,-0.003266,0.444150,0.487651,-0.511790,-0.550453,89.969186,4.716986,-97.486709
50649,NaN,-0.861195,9.827119,0.050795,-0.038241,0.056017,0.051992,-0.005874,-0.006424,0.008419,0.444162,0.487579,-0.511842,-0.550459,89.967300,4.709458,-97.493561
50650,NaN,-0.816688,9.768964,-0.018089,0.025449,0.009125,-0.009665,-0.007187,-0.006577,0.010130,0.444181,0.487498,-0.511895,-0.550465,89.964541,4.700879,-97.500603
50651,NaN,-0.809389,9.740871,0.001463,0.005903,0.008208,-0.038252,-0.004120,-0.008243,0.011061,0.444190,0.487418,-0.511964,-0.550465,89.963570,4.691754,-97.508675
50652,NaN,-0.850709,9.664324,-0.003666,0.017497,0.056584,-0.111173,-0.002095,-0.009578,0.021039,0.444219,0.487312,-0.512064,-0.550442,89.963590,4.676923,-97.517437
50653,NaN,-0.807927,9.586640,-0.100986,0.109747,0.010484,-0.192165,-0.006134,-0.021128,0.024704,0.444237,0.487157,-0.512189,-0.550448,89.960907,4.660001,-97.532943
50654,NaN,-0.846384,9.553792,-0.074006,0.088130,0.058319,-0.221774,0.018779,-0.022883,0.040957,0.444236,0.487010,-0.512425,-0.550360,89.972274,4.633753,-97.549347
50655,NaN,-0.892493,9.708063,0.012030,0.005446,0.107470,-0.064272,0.031656,-0.036054,0.040149,0.444167,0.486859,-0.512724,-0.550271,89.990491,4.607995,-97.573256
50656,NaN,-0.777352,9.840168,0.012116,-0.012747,-0.012424,0.058129,0.013770,-0.041558,0.034482,0.444113,0.486666,-0.512972,-0.550255,89.998141,4.585465,-97.600407
50657,NaN,-0.754847,9.823421,0.105269,-0.108781,-0.016389,0.039641,0.016966,-0.040266,0.045753,0.444083,0.486455,-0.513254,-0.550202,90.007846,4.556456,-97.627025
50658,NaN,-0.660698,9.881451,0.222080,-0.239535,-0.093703,0.089977,0.033101,-0.026873,0.034019,0.444018,0.486346,-0.513522,-0.550101,90.027264,4.534199,-97.645742
50659,NaN,-0.551789,9.906556,0.126477,-0.162767,-0.211779,0.106434,0.039184,-0.008512,0.031462,0.443976,0.486311,-0.513758,-0.549945,90.051218,4.513593,-97.653755
50660,NaN,-0.638168,9.936551,0.195043,-0.224332,-0.115320,0.143051,0.060546,0.012974,0.032095,0.443941,0.486378,-0.514007,-0.549681,90.088172,4.492429,-97.649589
50661,NaN,-0.638642,9.917145,0.160480,-0.195963,-0.113979,0.123709,0.064866,0.031062,0.020983,0.443913,0.486533,-0.514201,-0.549386,90.128354,4.477540,-97.634900
50662,NaN,-0.568746,9.837198,0.074960,-0.126623,-0.185645,0.038660,0.075821,0.038435,0.002790,0.443825,0.486779,-0.514364,-0.549086,90.175201,4.473120,-97.616087
50663,NaN,-0.621169,9.904310,0.087971,-0.142871,-0.135384,0.109519,0.104711,0.067008,0.000655,0.443733,0.487172,-0.514540,-0.548646,90.239980,4.469753,-97.581117
50664,NaN,-0.614167,9.919955,0.129466,-0.195640,-0.136771,0.124238,0.093860,0.070524,-0.012160,0.443643,0.487584,-0.514645,-0.548254,90.298601,4.473775,-97.543832
50665,NaN,-0.544473,9.859400,0.069425,-0.154922,-0.209242,0.058546,0.102362,0.086624,-0.031346,0.443520,0.488108,-0.514693,-0.547844,90.362957,4.488631,-97.497480
50666,NaN,-0.625820,9.812466,0.015023,-0.101064,-0.133988,0.018293,0.106841,0.093302,-0.040915,0.443377,0.488685,-0.514712,-0.547426,90.430071,4.508955,-97.446979
50667,NaN,-0.669442,9.846024,-0.058700,-0.035154,-0.105411,0.055617,0.114413,0.098334,-0.049520,0.443203,0.489312,-0.514723,-0.546996,90.501925,4.533983,-97.393991
50668,NaN,-0.655387,9.852040,-0.098275,-0.010413,-0.128182,0.060779,0.110999,0.099918,-0.060638,0.443013,0.489967,-0.514690,-0.546595,90.571780,4.565447,-97.339528
50669,NaN,-0.686964,9.805196,-0.138091,0.021566,-0.102793,0.016952,0.109516,0.097222,-0.072074,0.442787,0.490637,-0.514635,-0.546229,90.640753,4.603169,-97.287012
50670,NaN,-0.667492,9.826891,-0.126048,-0.006235,-0.127456,0.036827,0.118292,0.104910,-0.079358,0.442540,0.491369,-0.514564,-0.545838,90.715105,4.645191,-97.229469
50671,NaN,-0.648024,9.892552,-0.082145,-0.067278,-0.152497,0.100005,0.118389,0.112264,-0.092523,0.442274,0.492150,-0.514450,-0.545458,90.789928,4.694267,-97.168238
50672,NaN,-0.606596,9.916779,-0.074669,-0.094069,-0.201534,0.120417,0.116439,0.117024,-0.094994,0.442019,0.492950,-0.514308,-0.545074,90.863907,4.744997,-97.103485
50673,NaN,-0.659787,9.907226,-0.054931,-0.120262,-0.153270,0.114724,0.110879,0.138122,-0.102791,0.441810,0.493810,-0.514090,-0.544672,90.935669,4.799442,-97.027192
50674,NaN,-0.730274,9.845051,-0.165721,-0.012799,-0.100589,0.060281,0.097684,0.140973,-0.109267,0.441624,0.494670,-0.513808,-0.544308,91.000208,4.857958,-96.948396
50675,NaN,-0.837920,9.745804,-0.224976,0.049424,-0.001598,-0.028467,0.102072,0.142117,-0.106854,0.441434,0.495529,-0.513547,-0.543927,91.067332,4.914444,-96.869857
50676,NaN,-0.947710,9.738363,-0.244462,0.069094,0.097539,-0.025997,0.110742,0.145159,-0.097779,0.441256,0.496398,-0.513319,-0.543493,91.139715,4.966146,-96.788630
50677,NaN,-0.971701,9.772496,-0.323613,0.136132,0.101791,0.011858,0.111132,0.131307,-0.099089,0.441038,0.497223,-0.513127,-0.543098,91.211411,5.017806,-96.716542
50678,NaN,-0.891083,9.808108,-0.220747,0.009910,0.024326,0.038254,0.116950,0.134401,-0.089559,0.440839,0.498055,-0.512959,-0.542656,91.286952,5.064728,-96.641461
50679,NaN,-1.002860,9.848444,-0.233391,0.020363,0.124313,0.088634,0.115431,0.128735,-0.075908,0.440663,0.498820,-0.512843,-0.542205,91.361125,5.102808,-96.571468
50680,NaN,-1.024742,9.838248,-0.344150,0.120578,0.128827,0.083196,0.094819,0.124858,-0.072498,0.440540,0.499533,-0.512678,-0.541805,91.423591,5.139903,-96.501987
50681,NaN,-1.049087,9.718345,-0.394477,0.166569,0.153074,-0.032543,0.085511,0.112319,-0.059142,0.440445,0.500156,-0.512548,-0.541430,91.480087,5.169373,-96.439865
50682,NaN,-1.041234,9.706463,-0.333700,0.094517,0.150285,-0.046448,0.108217,0.105805,-0.044939,0.440314,0.500776,-0.512530,-0.540981,91.549281,5.190824,-96.381674
50683,NaN,-1.122033,9.814234,-0.289968,0.044087,0.224600,0.067081,0.104258,0.097825,-0.023663,0.440230,0.501310,-0.512571,-0.540516,91.615765,5.200065,-96.328379
50684,NaN,-1.237934,9.841641,-0.376126,0.131001,0.327333,0.107370,0.078823,0.075966,-0.012287,0.440184,0.501700,-0.512620,-0.540145,91.666539,5.203177,-96.287838
50685,NaN,-1.211991,9.731094,-0.455496,0.202959,0.303852,-0.002638,0.072742,0.049482,0.009295,0.440143,0.501949,-0.512765,-0.539809,91.712402,5.194266,-96.262886
50686,NaN,-1.099989,9.751144,-0.379923,0.106301,0.202793,0.004985,0.095266,0.031762,0.022094,0.440035,0.502167,-0.513041,-0.539431,91.770235,5.178388,-96.248360
50687,NaN,-0.974802,9.918091,-0.285507,-0.017307,0.079503,0.156950,0.096072,0.017285,0.036735,0.439928,0.502310,-0.513388,-0.539055,91.827739,5.154299,-96.242435
50688,NaN,-0.938535,9.913796,-0.250270,-0.064430,0.053446,0.148227,0.076230,0.006876,0.045683,0.439867,0.502359,-0.513727,-0.538737,91.873329,5.125345,-96.242687
50689,NaN,-0.978032,9.816301,-0.289212,-0.024066,0.102376,0.055894,0.065898,-0.001531,0.047307,0.439815,0.502357,-0.514061,-0.538462,91.912553,5.095550,-96.247822
50690,NaN,-0.999072,9.793493,-0.320126,0.003323,0.127971,0.036004,0.077026,-0.008479,0.055971,0.439741,0.502340,-0.514461,-0.538157,91.957797,5.061002,-96.257144
50691,NaN,-0.941478,9.795446,-0.310976,-0.018861,0.078614,0.032479,0.073295,-0.024221,0.058115,0.439641,0.502265,-0.514891,-0.537896,92.000095,5.025478,-96.275582
50692,NaN,-0.873773,9.878943,-0.341233,-0.006153,0.008102,0.110685,0.068651,-0.032674,0.058898,0.439533,0.502156,-0.515329,-0.537667,92.039328,4.989756,-96.298921
50693,NaN,-0.810012,9.853347,-0.310576,-0.047639,-0.042688,0.078568,0.052478,-0.040680,0.058469,0.439444,0.501991,-0.515740,-0.537500,92.068897,4.954392,-96.326871
50694,NaN,-0.842936,9.796238,-0.442314,0.084847,-0.013538,0.029318,0.056068,-0.045446,0.062405,0.439343,0.501811,-0.516181,-0.537327,92.100309,4.916955,-96.357662
50695,NaN,-0.793779,9.804869,-0.478647,0.110531,-0.060750,0.035091,0.053140,-0.048172,0.049673,0.439209,0.501649,-0.516588,-0.537196,92.129937,4.886815,-96.389764
50696,NaN,-0.734306,9.827217,-0.439295,0.059710,-0.110823,0.050909,0.045624,-0.041938,0.059613,0.439136,0.501462,-0.516986,-0.537048,92.155574,4.850932,-96.418514
50697,NaN,-0.737399,9.834249,-0.490805,0.107366,-0.108190,0.060198,0.039056,-0.037699,0.048833,0.439062,0.501300,-0.517330,-0.536929,92.177677,4.821074,-96.444604
50698,NaN,-0.826319,9.845314,-0.451186,0.074607,-0.010857,0.077252,0.031016,-0.029229,0.051469,0.439037,0.501136,-0.517640,-0.536803,92.195601,4.789598,-96.465899
50699,NaN,-0.849608,9.846585,-0.473459,0.097345,0.015091,0.081327,0.021172,-0.042988,0.050134,0.438997,0.500917,-0.517951,-0.536741,92.207231,4.759126,-96.495071
50700,NaN,-0.846742,9.870974,-0.471153,0.092452,0.015946,0.105290,0.015924,-0.047011,0.049506,0.438958,0.500677,-0.518254,-0.536704,92.215688,4.729177,-96.526549
50701,NaN,-0.890458,9.821827,-0.495414,0.123546,0.065529,0.060867,0.005793,-0.056977,0.052612,0.438927,0.500380,-0.518561,-0.536710,92.217874,4.697604,-96.563817
50702,NaN,-0.821320,9.768767,-0.438978,0.062758,0.013283,0.000159,0.000601,-0.060052,0.056396,0.438911,0.500053,-0.518869,-0.536730,92.216962,4.664002,-96.602941
50703,NaN,-0.787631,9.812901,-0.387024,0.006285,-0.011983,0.039368,-0.003930,-0.071948,0.049855,0.438858,0.499701,-0.519174,-0.536805,92.212928,4.634340,-96.648742
50704,NaN,-0.805082,9.900384,-0.320496,-0.061466,0.012287,0.125348,0.014863,-0.069490,0.061754,0.438796,0.499367,-0.519555,-0.536799,92.219787,4.597879,-96.693401
50705,NaN,-0.807425,9.952362,-0.336291,-0.047082,0.014616,0.177913,-0.013338,-0.076020,0.051403,0.438760,0.498979,-0.519848,-0.536906,92.210226,4.567420,-96.741573
50706,NaN,-0.704744,9.824658,-0.419689,0.032437,-0.082623,0.045752,-0.023929,-0.071277,0.050062,0.438759,0.498585,-0.520098,-0.537030,92.194848,4.537682,-96.786987
50707,NaN,-0.629106,9.787366,-0.460509,0.068377,-0.155004,0.004220,-0.014094,-0.058460,0.046988,0.438758,0.498254,-0.520340,-0.537104,92.185709,4.509345,-96.824959
50708,NaN,-0.653614,9.857589,-0.443907,0.053173,-0.128977,0.075531,-0.006894,-0.044994,0.051673,0.438787,0.497963,-0.520582,-0.537116,92.181318,4.478096,-96.855300
50709,NaN,-0.725238,9.854492,-0.453688,0.073994,-0.054251,0.078440,-0.030704,-0.039282,0.044967,0.438872,0.497651,-0.520733,-0.537189,92.163569,4.450430,-96.882337
50710,NaN,-0.765401,9.802257,-0.449854,0.081175,-0.005769,0.029356,-0.034043,-0.033864,0.048399,0.438988,0.497339,-0.520869,-0.537251,92.144155,4.420800,-96.906197
50711,NaN,-0.761130,9.802748,-0.446397,0.080945,-0.005277,0.029359,-0.030828,-0.038930,0.042069,0.439066,0.497037,-0.521010,-0.537330,92.126381,4.394828,-96.932806
50712,NaN,-0.699959,9.845493,-0.372016,0.001458,-0.055943,0.064506,-0.032722,-0.036837,0.036453,0.439139,0.496751,-0.521128,-0.537421,92.107636,4.372085,-96.958100
50713,NaN,-0.691890,9.842433,-0.344496,-0.022719,-0.056493,0.059859,-0.037739,-0.040211,0.043193,0.439235,0.496426,-0.521255,-0.537519,92.085870,4.345475,-96.985456
50714,NaN,-0.660877,9.796987,-0.352053,-0.012658,-0.081182,0.012530,-0.039547,-0.039374,0.036102,0.439317,0.496119,-0.521359,-0.537635,92.063128,4.322967,-97.012180
50715,NaN,-0.703744,9.768792,-0.343795,-0.010127,-0.032302,-0.012605,-0.038026,-0.039540,0.037364,0.439399,0.495811,-0.521470,-0.537745,92.041259,4.299658,-97.039009
50716,NaN,-0.706044,9.796743,-0.359954,0.008914,-0.030371,0.016007,-0.033747,-0.038494,0.039660,0.439479,0.495509,-0.521596,-0.537835,92.021896,4.275076,-97.065282
50717,NaN,-0.732318,9.822462,-0.372190,0.027006,-0.004038,0.044027,-0.035816,-0.033880,0.037000,0.439569,0.495222,-0.521699,-0.537926,92.001560,4.251842,-97.088837
50718,NaN,-0.704985,9.825107,-0.371975,0.027723,-0.027939,0.044622,-0.045329,-0.038891,0.034130,0.439661,0.494909,-0.521781,-0.538060,91.975575,4.230414,-97.115208
50719,NaN,-0.716761,9.816228,-0.316090,-0.021343,-0.005137,0.034724,-0.037536,-0.029893,0.040226,0.439774,0.494620,-0.521879,-0.538138,91.954440,4.205238,-97.136514
50720,NaN,-0.744507,9.866056,-0.324088,-0.007923,0.021593,0.086699,-0.038609,-0.033788,0.037494,0.439872,0.494326,-0.521976,-0.538234,91.932538,4.181764,-97.160002
50721,NaN,-0.697419,9.874441,-0.351615,0.017680,-0.025639,0.092546,-0.044441,-0.033351,0.035474,0.439981,0.494025,-0.522051,-0.538349,91.907326,4.159360,-97.183178
50722,NaN,-0.587812,9.783892,-0.354780,0.015972,-0.125369,-0.005549,-0.050773,-0.029754,0.030547,0.440101,0.493733,-0.522089,-0.538482,91.878650,4.139767,-97.204196
50723,NaN,-0.628638,9.844813,-0.283293,-0.048059,-0.076943,0.055826,-0.030622,-0.018015,0.033163,0.440209,0.493510,-0.522161,-0.538528,91.862010,4.118375,-97.218502
50724,NaN,-0.654146,9.915063,-0.263906,-0.063262,-0.050829,0.127103,-0.039880,-0.013110,0.030165,0.440344,0.493287,-0.522191,-0.538592,91.840277,4.098678,-97.229941
50725,NaN,-0.599012,9.847604,-0.278850,-0.047592,-0.100329,0.056433,-0.059244,-0.008783,0.022871,0.440519,0.493053,-0.522141,-0.538712,91.807641,4.083001,-97.238743
50726,NaN,-0.580150,9.833256,-0.328934,0.005672,-0.122566,0.042394,-0.050378,-0.000293,0.019912,0.440686,0.492868,-0.522088,-0.538795,91.780437,4.068934,-97.242619
50727,NaN,-0.626593,9.897646,-0.280496,-0.034411,-0.073074,0.108409,-0.045117,0.001507,0.014624,0.440831,0.492714,-0.522033,-0.538871,91.756328,4.057787,-97.245349
50728,NaN,-0.644401,9.936477,-0.366118,0.056448,-0.068031,0.150999,-0.063889,0.001437,0.008768,0.441005,0.492534,-0.521913,-0.539010,91.721469,4.050068,-97.248024
50729,NaN,-0.687164,9.860275,-0.363173,0.068383,-0.019998,0.077916,-0.071729,-0.006236,0.004190,0.441167,0.492327,-0.521778,-0.539197,91.681810,4.045024,-97.255002
50730,NaN,-0.640418,9.820530,-0.395714,0.103313,-0.068093,0.035877,-0.076137,-0.006897,-0.000992,0.441324,0.492123,-0.521619,-0.539409,91.639609,4.043030,-97.262289
50731,NaN,-0.597159,9.828875,-0.420345,0.128880,-0.115342,0.041761,-0.070290,-0.009504,-0.004853,0.441449,0.491934,-0.521472,-0.539621,91.600664,4.043209,-97.271002
50732,NaN,-0.583405,9.862364,-0.310097,0.023508,-0.118122,0.071049,-0.076026,-0.010293,-0.008336,0.441577,0.491739,-0.521303,-0.539857,91.558397,4.045464,-97.280120
50733,NaN,-0.602807,9.900941,-0.242455,-0.034904,-0.094431,0.109039,-0.085420,-0.005015,-0.014219,0.441726,0.491554,-0.521082,-0.540118,91.510974,4.050926,-97.286104
50734,NaN,-0.641433,9.910102,-0.300492,0.035763,-0.066466,0.122410,-0.097463,0.000005,-0.016693,0.441910,0.491361,-0.520811,-0.540403,91.456851,4.057799,-97.289188
50735,NaN,-0.668693,9.863787,-0.318396,0.067909,-0.041395,0.078545,-0.103344,-0.000426,-0.023085,0.442091,0.491171,-0.520510,-0.540718,91.399355,4.068256,-97.292438
50736,NaN,-0.702935,9.868333,-0.201012,-0.034623,0.004214,0.082629,-0.104548,-0.001773,-0.022828,0.442271,0.490974,-0.520209,-0.541039,91.341103,4.078662,-97.296472
50737,NaN,-0.755867,9.843712,-0.210708,-0.008068,0.054097,0.062099,-0.098678,-0.002192,-0.020779,0.442442,0.490783,-0.519929,-0.541341,91.286199,4.087825,-97.300757
50738,NaN,-0.742962,9.921882,-0.215271,0.002516,0.032520,0.139247,-0.116930,-0.015563,-0.020620,0.442622,0.490515,-0.519630,-0.541724,91.220283,4.097130,-97.312760
50739,NaN,-0.723795,9.835976,-0.271362,0.069828,0.008956,0.053364,-0.126350,-0.020454,-0.023412,0.442806,0.490220,-0.519310,-0.542148,91.148759,4.107996,-97.327524
50740,NaN,-0.675005,9.792693,-0.275554,0.080799,-0.040195,0.006694,-0.122626,-0.026472,-0.020973,0.442971,0.489911,-0.519018,-0.542572,91.079125,4.117596,-97.345812
50741,NaN,-0.573938,9.818111,-0.228872,0.031654,-0.138845,0.023816,-0.105629,-0.013167,-0.019339,0.443134,0.489671,-0.518747,-0.542915,91.019785,4.126036,-97.356458
50742,NaN,-0.649481,9.903380,-0.164736,-0.014006,-0.064448,0.113114,-0.118772,-0.008579,-0.017095,0.443346,0.489408,-0.518435,-0.543276,90.953089,4.133198,-97.364528
50743,NaN,-0.628671,9.861776,-0.188710,0.019988,-0.088181,0.070494,-0.131661,0.003775,-0.020803,0.443612,0.489160,-0.518052,-0.543648,90.879519,4.142280,-97.365453
50744,NaN,-0.693727,9.846944,-0.116686,-0.030863,-0.016539,0.059290,-0.122392,0.010347,-0.019335,0.443876,0.488946,-0.517683,-0.543977,90.811533,4.150546,-97.362651
50745,NaN,-0.703159,9.898916,-0.119615,-0.016523,-0.014128,0.111868,-0.122664,0.013239,-0.019220,0.444148,0.488739,-0.517306,-0.544299,90.743513,4.158663,-97.358142
50746,NaN,-0.683839,9.881359,-0.139406,0.012783,-0.037442,0.093208,-0.128896,0.019104,-0.018090,0.444453,0.488531,-0.516902,-0.544620,90.672164,4.166159,-97.350339
50747,NaN,-0.715172,9.839365,-0.178550,0.068908,-0.011406,0.054002,-0.137518,0.020967,-0.018020,0.444785,0.488308,-0.516471,-0.544958,90.595953,4.173546,-97.341428
50748,NaN,-0.748320,9.889159,-0.176001,0.082340,0.015384,0.105951,-0.134129,0.017771,-0.015556,0.445106,0.488078,-0.516061,-0.545290,90.521550,4.179618,-97.334423
50749,NaN,-0.745223,9.885126,-0.139227,0.058168,0.014892,0.101285,-0.133971,0.018715,-0.011060,0.445442,0.487838,-0.515661,-0.545608,90.447288,4.183053,-97.326876
50750,NaN,-0.743405,9.904979,-0.097324,0.029307,0.014840,0.120572,-0.146041,0.014842,-0.008914,0.445802,0.487556,-0.515242,-0.545963,90.365934,4.185351,-97.321597
50751,NaN,-0.725709,9.868022,-0.143422,0.087244,-0.007920,0.082634,-0.146122,0.017392,-0.005834,0.446178,0.487272,-0.514823,-0.546304,90.284640,4.185808,-97.314829
50752,NaN,-0.768738,9.902743,-0.064285,0.027951,0.040260,0.119935,-0.152720,0.013760,-0.007566,0.446555,0.486968,-0.514391,-0.546674,90.199414,4.187351,-97.310182
50753,NaN,-0.689759,9.857817,-0.046380,0.015856,-0.034297,0.069268,-0.163678,0.013770,-0.002598,0.446973,0.486626,-0.513940,-0.547061,90.107906,4.185988,-97.305478
50754,NaN,-0.664314,9.836354,-0.039218,0.021212,-0.058632,0.045954,-0.160031,0.020478,-0.000111,0.447405,0.486304,-0.513490,-0.547417,90.018771,4.183270,-97.296982
50755,NaN,-0.674636,9.869054,-0.066127,0.064172,-0.055656,0.079254,-0.160260,0.023409,0.000070,0.447846,0.485989,-0.513032,-0.547765,89.929639,4.180399,-97.286753
50756,NaN,-0.682930,9.872971,0.053009,-0.037415,-0.034296,0.083886,-0.166498,0.028481,-0.003107,0.448305,0.485682,-0.512539,-0.548124,89.837134,4.179433,-97.273654
50757,NaN,-0.636386,9.834359,0.028811,-0.002535,-0.082471,0.041936,-0.180618,0.030586,-0.001945,0.448808,0.485345,-0.512004,-0.548511,89.736635,4.177770,-97.259280
50758,NaN,-0.719951,9.816637,-0.017290,0.071082,-0.006262,0.030070,-0.183530,0.032396,-0.002735,0.449319,0.485008,-0.511455,-0.548902,89.634535,4.176648,-97.243928
50759,NaN,-0.723520,9.864357,0.010253,0.061465,-0.004819,0.077980,-0.182656,0.025606,-0.004285,0.449806,0.484659,-0.510919,-0.549310,89.532658,4.176364,-97.232400
50760,NaN,-0.670255,9.840707,0.039372,0.043762,-0.054544,0.050648,-0.192454,0.025371,-0.008295,0.450305,0.484296,-0.510347,-0.549753,89.425149,4.178446,-97.221108
50761,NaN,-0.669606,9.883649,0.091381,0.010194,-0.054090,0.093886,-0.186574,0.027002,-0.000287,0.450816,0.483931,-0.509806,-0.550158,89.321096,4.175959,-97.208693
50762,NaN,-0.669756,9.883447,0.110268,0.009961,-0.053572,0.093889,-0.199548,0.030945,-0.002166,0.451362,0.483552,-0.509215,-0.550590,89.209758,4.174613,-97.194162
50763,NaN,-0.695227,9.837783,0.100520,0.042179,-0.028606,0.050009,-0.210852,0.032229,-0.005827,0.451929,0.483159,-0.508581,-0.551056,89.092004,4.175378,-97.178800
50764,NaN,-0.675998,9.844762,0.093606,0.066771,-0.051490,0.055339,-0.211171,0.037673,-0.002514,0.452519,0.482772,-0.507942,-0.551501,88.974288,4.174354,-97.160402
50765,NaN,-0.667843,9.834880,0.160812,0.018655,-0.052952,0.045991,-0.202570,0.036343,-0.005372,0.453077,0.482407,-0.507321,-0.551933,88.861448,4.174993,-97.142613
50766,NaN,-0.621165,9.905986,0.211869,-0.017857,-0.100779,0.114487,-0.200846,0.046557,-0.006775,0.453651,0.482077,-0.506678,-0.552340,88.750016,4.176590,-97.119160
50767,NaN,-0.665737,9.895566,0.263227,-0.043791,-0.052458,0.108503,-0.212512,0.051957,-0.008758,0.454262,0.481741,-0.505986,-0.552766,88.632136,4.179429,-97.092484
50768,NaN,-0.597677,9.883609,0.244522,-0.012757,-0.124590,0.091201,-0.230347,0.049707,-0.014161,0.454894,0.481371,-0.505236,-0.553255,88.503928,4.185399,-97.067335
50769,NaN,-0.641424,9.849105,0.292619,-0.033986,-0.076742,0.061260,-0.229454,0.067298,-0.016619,0.455561,0.481057,-0.504441,-0.553703,88.376980,4.193074,-97.032026
50770,NaN,-0.685427,9.814395,0.340723,-0.055208,-0.028899,0.031312,-0.235512,0.061041,-0.018337,0.456222,0.480715,-0.503639,-0.554186,88.246289,4.201739,-97.000465
50771,NaN,-0.655120,9.815307,0.255926,0.046775,-0.073692,0.027398,-0.224759,0.063338,-0.027397,0.456837,0.480426,-0.502840,-0.554655,88.121825,4.215638,-96.967660
50772,NaN,-0.677043,9.849035,0.339328,-0.011614,-0.049776,0.065286,-0.224703,0.063956,-0.030091,0.457445,0.480145,-0.502032,-0.555129,87.997444,4.231228,-96.934691
50773,NaN,-0.656344,9.850598,0.357847,-0.010980,-0.073629,0.065953,-0.235293,0.060924,-0.032361,0.458064,0.479837,-0.501195,-0.555641,87.866884,4.248092,-96.903448
50774,NaN,-0.728346,9.794313,0.381081,-0.004412,-0.000903,0.016057,-0.249342,0.064925,-0.032264,0.458726,0.479507,-0.500310,-0.556177,87.728438,4.265098,-96.870041
50775,NaN,-0.762515,9.777486,0.356061,0.047081,0.025495,0.000800,-0.248280,0.057044,-0.035358,0.459357,0.479164,-0.499437,-0.556736,87.590259,4.283699,-96.841205
50776,NaN,-0.740386,9.755321,0.369330,0.052421,0.001142,-0.022484,-0.224157,0.054069,-0.033848,0.459926,0.478864,-0.498642,-0.557238,87.465789,4.301500,-96.814148
50777,NaN,-0.702806,9.776952,0.515012,-0.076059,-0.026605,0.002680,-0.205312,0.059222,-0.037024,0.460454,0.478628,-0.497879,-0.557686,87.352352,4.321232,-96.784224
50778,NaN,-0.712053,9.846507,0.552478,-0.090403,-0.024593,0.074534,-0.210150,0.054341,-0.039007,0.460974,0.478373,-0.497109,-0.558163,87.235921,4.342103,-96.757223
50779,NaN,-0.713722,9.863105,0.602630,-0.119282,-0.024518,0.093802,-0.220975,0.054932,-0.036681,0.461528,0.478087,-0.496312,-0.558658,87.113335,4.361639,-96.729826
50780,NaN,-0.770439,9.820013,0.573114,-0.063939,0.025759,0.053918,-0.234256,0.052060,-0.038407,0.462101,0.477767,-0.495479,-0.559197,86.983005,4.382214,-96.704205
50781,NaN,-0.705283,9.767031,0.519887,0.000404,-0.046405,-0.006546,-0.226877,0.050099,-0.036698,0.462656,0.477453,-0.494675,-0.559718,86.856836,4.401723,-96.679686
50782,NaN,-0.700853,9.754259,0.587050,-0.047710,-0.047811,-0.015913,-0.198468,0.056530,-0.034342,0.463165,0.477217,-0.493941,-0.560147,86.747230,4.420226,-96.651457
50783,NaN,-0.771347,9.821706,0.710482,-0.141155,0.025005,0.063805,-0.186169,0.059523,-0.030522,0.463662,0.477007,-0.493243,-0.560529,86.644825,4.436606,-96.621402
50784,NaN,-0.692274,9.834592,0.794536,-0.215354,-0.050018,0.075731,-0.195781,0.061470,-0.028379,0.464192,0.476775,-0.492518,-0.560924,86.537005,4.451970,-96.590203
50785,NaN,-0.647994,9.797009,0.771865,-0.180527,-0.098269,0.033874,-0.219915,0.057863,-0.029502,0.464768,0.476479,-0.491731,-0.561390,86.415205,4.467823,-96.561131
50786,NaN,-0.756108,9.672192,0.652770,-0.036210,0.001638,-0.089121,-0.223332,0.068135,-0.019279,0.465405,0.476179,-0.490934,-0.561815,86.291934,4.478355,-96.525840
50787,NaN,-0.866402,9.636180,0.580418,0.065349,0.102594,-0.121006,-0.197546,0.062017,-0.009686,0.465992,0.475896,-0.490246,-0.562168,86.183197,4.483155,-96.493704
50788,NaN,-0.968981,9.653339,0.594024,0.080967,0.202154,-0.095110,-0.164792,0.054817,0.002820,0.466518,0.475640,-0.489696,-0.562429,86.092940,4.480672,-96.465233
50789,NaN,-1.101771,9.682128,0.741222,-0.034219,0.346718,-0.046136,-0.144115,0.046151,0.020519,0.467023,0.475362,-0.489266,-0.562617,86.014198,4.467687,-96.441016
50790,NaN,-1.173044,9.735525,0.627792,0.102813,0.402319,0.004550,-0.138111,0.021486,0.037339,0.467501,0.474989,-0.488950,-0.562811,85.937838,4.444216,-96.430255
50791,NaN,-1.003420,9.696424,0.552079,0.170525,0.232522,-0.053122,-0.149018,-0.000519,0.045850,0.467974,0.474507,-0.488676,-0.563062,85.854284,4.414914,-96.431715
50792,NaN,-0.934679,9.636526,0.615066,0.109595,0.180365,-0.113718,-0.113451,-0.009686,0.059005,0.468378,0.474050,-0.488553,-0.563218,85.790748,4.377790,-96.437851
50793,NaN,-0.653530,9.753833,0.735106,-0.024637,-0.089588,-0.009825,-0.056577,-0.003719,0.065686,0.468680,0.473726,-0.488593,-0.563205,85.760091,4.337020,-96.440243
50794,NaN,-0.504790,10.021302,0.914401,-0.196093,-0.233953,0.258273,-0.047600,0.000661,0.061201,0.468958,0.473447,-0.488636,-0.563170,85.734750,4.299072,-96.440306
50795,NaN,-0.532241,10.094656,0.922070,-0.187382,-0.206465,0.334126,-0.113518,0.016571,0.057623,0.469422,0.473066,-0.488449,-0.563267,85.672316,4.263775,-96.431368
50796,NaN,-0.468599,9.957641,0.711288,0.020169,-0.276544,0.177469,-0.179392,0.031893,0.049682,0.470055,0.472594,-0.488020,-0.563506,85.572758,4.233773,-96.413962
50797,NaN,-0.476139,9.749166,0.648949,0.085454,-0.255337,-0.034059,-0.164569,0.059522,0.049845,0.470722,0.472233,-0.487569,-0.563643,85.482856,4.204861,-96.380664
50798,NaN,-0.518062,9.760076,0.699765,0.054885,-0.206446,-0.016183,-0.134876,0.073193,0.040311,0.471324,0.472003,-0.487146,-0.563698,85.410492,4.182143,-96.339943
50799,NaN,-0.584015,9.808875,0.787879,-0.009883,-0.133045,0.044190,-0.113765,0.080983,0.043970,0.471906,0.471836,-0.486773,-0.563674,85.350550,4.157657,-96.294555
50800,NaN,-0.675624,9.918972,0.743270,0.064274,-0.053411,0.156662,-0.137417,0.083780,0.031316,0.472514,0.471652,-0.486296,-0.563730,85.277110,4.140666,-96.248144
50801,NaN,-0.903671,9.855236,0.650583,0.190413,0.169827,0.101971,-0.163550,0.074773,0.030314,0.473159,0.471382,-0.485764,-0.563873,85.188316,4.123797,-96.206902
50802,NaN,-0.706156,9.829344,0.626570,0.206248,-0.025810,0.059700,-0.160070,0.051846,0.012111,0.473688,0.471100,-0.485253,-0.564104,85.100496,4.116359,-96.179655
50803,NaN,-0.615867,9.827773,0.753963,0.084075,-0.102630,0.062295,-0.135011,0.058977,0.009036,0.474167,0.470905,-0.484789,-0.564265,85.027323,4.110980,-96.148455
50804,NaN,-0.657614,9.871965,0.863846,-0.003794,-0.054539,0.118646,-0.143761,0.051047,0.001566,0.474625,0.470684,-0.484300,-0.564483,84.948774,4.109595,-96.122174
50805,NaN,-0.529484,9.807598,0.865705,-0.009696,-0.178469,0.045650,-0.169088,0.043680,-0.017234,0.475072,0.470428,-0.483713,-0.564824,84.855354,4.118515,-96.101052
50806,NaN,-0.436092,9.711310,0.968231,-0.113013,-0.257419,-0.047538,-0.175775,0.039430,-0.038144,0.475465,0.470194,-0.483068,-0.565240,84.757844,4.139269,-96.083477
50807,NaN,-0.485286,9.697341,1.013881,-0.138845,-0.209012,-0.053645,-0.160683,0.048215,-0.053814,0.475800,0.470058,-0.482407,-0.565636,84.669299,4.169365,-96.061726
50808,NaN,-0.550928,9.789873,1.039323,-0.135676,-0.156571,0.045425,-0.142522,0.040006,-0.072734,0.476017,0.469988,-0.481772,-0.566052,84.590745,4.209935,-96.045744
50809,NaN,-0.758366,9.858783,1.106201,-0.161359,0.041296,0.135510,-0.145667,0.044158,-0.077581,0.476239,0.469933,-0.481107,-0.566477,84.510558,4.253424,-96.027695
50810,NaN,-0.870926,9.858482,1.087255,-0.116989,0.141306,0.142041,-0.162815,0.025492,-0.092863,0.476412,0.469821,-0.480401,-0.567023,84.419689,4.304717,-96.021244
50811,NaN,-0.862235,9.848927,1.046244,-0.063803,0.118834,0.128198,-0.155293,0.018633,-0.097687,0.476537,0.469718,-0.479722,-0.567578,84.332817,4.358294,-96.019054
50812,NaN,-0.796435,9.848414,1.074364,-0.085529,0.045292,0.125644,-0.136659,0.008354,-0.105083,0.476571,0.469648,-0.479102,-0.568130,84.256133,4.415596,-96.023253
50813,NaN,-0.756852,9.828647,1.074564,-0.079412,-0.003453,0.103132,-0.139259,0.008589,-0.104388,0.476615,0.469571,-0.478475,-0.568686,84.177964,4.472421,-96.027345
50814,NaN,-0.754086,9.742847,1.113598,-0.113355,-0.006410,0.021889,-0.152392,0.005275,-0.110567,0.476663,0.469467,-0.477804,-0.569295,84.092081,4.532657,-96.033787
50815,NaN,-0.848417,9.672691,0.992358,0.022570,0.069808,-0.052558,-0.135172,0.008804,-0.113774,0.476670,0.469422,-0.477166,-0.569861,84.016196,4.594831,-96.038478
50816,NaN,-0.743684,9.732040,1.002692,0.016941,-0.050481,-0.001051,-0.098763,0.008519,-0.121320,0.476569,0.469480,-0.476614,-0.570360,83.961111,4.661372,-96.043868
50817,NaN,-0.852008,9.797131,1.099467,-0.053305,0.048005,0.082431,-0.092862,0.004916,-0.119774,0.476449,0.469538,-0.476091,-0.570848,83.909235,4.726720,-96.051277
50818,NaN,-0.919750,9.842146,1.107153,-0.040664,0.099397,0.133568,-0.114385,0.005448,-0.119495,0.476382,0.469546,-0.475505,-0.571386,83.845039,4.792023,-96.058442
50819,NaN,-0.830746,9.726725,1.017018,0.038568,0.000934,0.002206,-0.132249,-0.002731,-0.120595,0.476334,0.469489,-0.474886,-0.571987,83.770194,4.857351,-96.070420
50820,NaN,-0.814026,9.681179,1.011777,0.048597,-0.024019,-0.044955,-0.124151,-0.001276,-0.116192,0.476283,0.469446,-0.474295,-0.572555,83.700063,4.920335,-96.081385
50821,NaN,-0.700692,9.609137,0.955283,0.095233,-0.146716,-0.132375,-0.108431,-0.009047,-0.119982,0.476165,0.469426,-0.473759,-0.573112,83.638516,4.984886,-96.097096
50822,NaN,-0.626676,9.612171,1.055195,-0.003077,-0.222487,-0.125043,-0.087067,0.005712,-0.115986,0.476043,0.469490,-0.473259,-0.573575,83.589946,5.048175,-96.104189
50823,NaN,-0.747789,9.681167,1.051338,0.027176,-0.120808,-0.046718,-0.077518,0.006210,-0.107632,0.475924,0.469558,-0.472804,-0.573993,83.546911,5.106643,-96.110500
50824,NaN,-0.864648,9.742930,1.070760,0.033497,-0.020064,0.026890,-0.089749,0.008260,-0.104787,0.475846,0.469596,-0.472315,-0.574429,83.496977,5.163709,-96.115513
50825,NaN,-0.867094,9.726937,1.125925,-0.014607,-0.021337,0.017479,-0.097769,0.008693,-0.102954,0.475793,0.469611,-0.471807,-0.574878,83.442474,5.219664,-96.120200
50826,NaN,-1.010515,9.752797,1.088248,0.048267,0.104519,0.051856,-0.085235,0.006760,-0.091057,0.475740,0.469623,-0.471366,-0.575274,83.395111,5.268808,-96.125270
50827,NaN,-1.088615,9.802828,0.994820,0.161416,0.159065,0.097854,-0.083484,-0.006944,-0.080698,0.475680,0.469575,-0.470988,-0.575672,83.348088,5.311055,-96.137513
50828,NaN,-1.147765,9.817617,1.014475,0.154878,0.208979,0.120311,-0.039231,-0.008009,-0.101928,0.475453,0.469679,-0.470689,-0.576019,83.326215,5.365396,-96.151821
50829,NaN,-1.005629,9.760099,1.160219,-0.004209,0.080584,0.067110,-0.103041,-0.031968,-0.054885,0.475454,0.469451,-0.470375,-0.576461,83.266787,5.391269,-96.176690
50830,NaN,-1.049130,9.744517,1.042197,0.123933,0.108989,0.042018,-0.077410,-0.031679,-0.045704,0.475422,0.469263,-0.470154,-0.576820,83.222100,5.412002,-96.200810
50831,NaN,-0.941218,9.728477,1.129049,0.031122,0.008329,0.026157,-0.058796,-0.029100,-0.037792,0.475376,0.469108,-0.470000,-0.577110,83.188265,5.428306,-96.222919
50832,NaN,-0.970353,9.747129,1.146111,0.025377,0.033863,0.049355,-0.068391,-0.026131,-0.026689,0.475391,0.468913,-0.469837,-0.577389,83.149154,5.438568,-96.242595
50833,NaN,-0.980266,9.760430,1.107017,0.073031,0.036279,0.058774,-0.068170,-0.027283,-0.020951,0.475419,0.468701,-0.469691,-0.577656,83.110147,5.445389,-96.262529
50834,NaN,-0.866095,9.737382,1.216461,-0.043737,-0.065296,0.038217,-0.063893,-0.017242,-0.015231,0.475477,0.468516,-0.469546,-0.577877,83.074164,5.449719,-96.276347
50835,NaN,-0.833732,9.741484,1.295992,-0.119726,-0.091261,0.048780,-0.056817,-0.008463,-0.011685,0.475549,0.468363,-0.469409,-0.578051,83.042741,5.452548,-96.284893
50836,NaN,-0.838734,9.747802,1.278947,-0.096017,-0.089771,0.053495,-0.064572,0.000715,-0.010726,0.475664,0.468217,-0.469231,-0.578220,83.007371,5.455550,-96.288142
50837,NaN,-0.907267,9.690309,1.279693,-0.089119,-0.017188,0.003350,-0.077570,0.008458,-0.014574,0.475816,0.468071,-0.468987,-0.578411,82.964954,5.461194,-96.287228
50838,NaN,-0.899818,9.635959,1.294012,-0.103807,-0.018707,-0.049250,-0.062230,0.015695,-0.007098,0.475971,0.467966,-0.468788,-0.578531,82.931765,5.463182,-96.281669
50839,NaN,-0.928651,9.639057,1.278572,-0.080870,0.007179,-0.045294,-0.033964,0.014695,-0.007495,0.476057,0.467925,-0.468672,-0.578587,82.914717,5.465242,-96.276698
50840,NaN,-1.061061,9.736563,1.335210,-0.108667,0.132663,0.070626,-0.031025,0.001184,-0.006278,0.476107,0.467849,-0.468599,-0.578666,82.898623,5.465741,-96.279369
50841,NaN,-0.991287,9.730640,1.298707,-0.077878,0.060400,0.053666,-0.035070,-0.010006,-0.006275,0.476140,0.467732,-0.468542,-0.578780,82.879604,5.465360,-96.288422
50842,NaN,-1.000383,9.690042,1.187315,0.031867,0.062818,0.000693,-0.036143,-0.011965,-0.003265,0.476180,0.467599,-0.468493,-0.578894,82.859884,5.463210,-96.298388
50843,NaN,-0.931832,9.668533,1.119565,0.091323,-0.009153,-0.035477,-0.016685,-0.017978,-0.003619,0.476160,0.467495,-0.468514,-0.578977,82.850984,5.460747,-96.311803
50844,NaN,-0.849382,9.734727,1.256432,-0.045224,-0.083892,0.039007,0.012607,-0.015957,0.001814,0.476091,0.467455,-0.468627,-0.578975,82.859013,5.455421,-96.323685
50845,NaN,-0.758719,9.833713,1.296553,-0.085261,-0.179364,0.133124,0.018792,-0.000300,0.000240,0.476040,0.467478,-0.468718,-0.578924,82.871428,5.452024,-96.326729
50846,NaN,-0.783597,9.869240,1.336674,-0.119683,-0.154091,0.175533,0.006184,0.015656,-0.001576,0.476051,0.467522,-0.468729,-0.578871,82.877471,5.450877,-96.320799
50847,NaN,-0.835554,9.830581,1.282177,-0.064097,-0.104115,0.135554,-0.025530,0.034235,-0.007764,0.476161,0.467559,-0.468591,-0.578863,82.866310,5.454483,-96.304692
50848,NaN,-0.864739,9.740573,1.157111,0.054360,-0.078569,0.033952,-0.027364,0.038588,-0.007006,0.476288,0.467602,-0.468438,-0.578847,82.854341,5.458057,-96.286054
50849,NaN,-0.936336,9.745683,1.198006,0.023157,-0.005110,0.050868,-0.003742,0.042639,-0.008924,0.476364,0.467717,-0.468340,-0.578771,82.856114,5.462925,-96.265230
50850,NaN,-0.964719,9.803913,1.247390,-0.015996,0.020779,0.117201,-0.009741,0.036929,-0.006600,0.476447,0.467797,-0.468243,-0.578717,82.854157,5.466152,-96.247511
50851,NaN,-0.950696,9.720013,1.271119,-0.049863,0.017738,0.035938,-0.015411,0.028357,-0.004581,0.476529,0.467833,-0.468155,-0.578691,82.848500,5.467534,-96.234533
50852,NaN,-0.993066,9.682577,1.293074,-0.070803,0.065579,0.005724,-0.005011,0.031277,-0.002231,0.476601,0.467897,-0.468095,-0.578629,82.848976,5.467876,-96.219729
50853,NaN,-1.018613,9.717885,1.334035,-0.105206,0.090888,0.048103,0.008900,0.015012,-0.006578,0.476589,0.467957,-0.468105,-0.578582,82.856507,5.469443,-96.214515
50854,NaN,-0.907146,9.749852,1.272532,-0.053754,-0.028692,0.061428,0.001598,0.009056,-0.002541,0.476592,0.467973,-0.468117,-0.578557,82.859558,5.468376,-96.212424
50855,NaN,-0.934732,9.714813,1.214046,0.002627,-0.003159,0.022210,-0.000737,0.005780,-0.006679,0.476581,0.467983,-0.468120,-0.578554,82.861063,5.469342,-96.212491
50856,NaN,-0.873132,9.676950,1.268470,-0.063147,-0.054671,-0.014332,0.016191,0.010367,-0.001235,0.476557,0.468035,-0.468174,-0.578489,82.872555,5.467626,-96.209558
50857,NaN,-0.913646,9.741629,1.216019,-0.001809,-0.025774,0.046934,0.020437,0.020379,0.004494,0.476563,0.468112,-0.468230,-0.578376,82.887061,5.463277,-96.200490
50858,NaN,-0.942311,9.784500,1.232409,-0.012281,0.000432,0.094031,0.016147,0.022586,0.002688,0.476579,0.468190,-0.468264,-0.578273,82.899219,5.460195,-96.190299
50859,NaN,-0.993343,9.746185,1.175409,0.043356,0.050333,0.054026,0.011741,0.025925,0.002459,0.476612,0.468267,-0.468277,-0.578173,82.909029,5.457391,-96.178210
50860,NaN,-0.942699,9.730321,1.160064,0.049385,0.001496,0.031658,0.018254,0.028136,0.009992,0.476657,0.468349,-0.468321,-0.578034,82.922743,5.450545,-96.164332
50861,NaN,-0.944130,9.753769,1.165184,0.044415,0.002705,0.055599,0.028636,0.031603,0.016789,0.476706,0.468449,-0.468402,-0.577846,82.942635,5.439988,-96.147986
50862,NaN,-0.967752,9.789577,1.203966,0.010008,0.028033,0.097964,0.017273,0.025586,0.015854,0.476764,0.468507,-0.468463,-0.577702,82.955684,5.429620,-96.135155
50863,NaN,-0.969219,9.758258,1.141548,0.067156,0.029132,0.059534,0.000507,0.020345,0.020532,0.476863,0.468499,-0.468499,-0.577598,82.958870,5.416139,-96.124980
50864,NaN,-0.981536,9.662852,1.113350,0.085184,0.051557,-0.037016,0.004661,0.019819,0.028361,0.476973,0.468481,-0.468566,-0.577467,82.964459,5.398252,-96.114565
50865,NaN,-1.055445,9.699060,1.136200,0.073229,0.126570,0.008478,0.019372,0.008855,0.033060,0.477037,0.468456,-0.468714,-0.577315,82.977914,5.376838,-96.110074
50866,NaN,-1.028834,9.742001,1.169411,0.040318,0.103132,0.052420,0.024837,-0.003117,0.039684,0.477079,0.468393,-0.468920,-0.577164,82.993903,5.350903,-96.111971
50867,NaN,-0.950279,9.729895,1.150993,0.047077,0.029906,0.030867,0.016556,-0.012161,0.045140,0.477135,0.468272,-0.469138,-0.577039,83.004703,5.321152,-96.118648
50868,NaN,-1.001873,9.777072,1.147894,0.059803,0.081412,0.081874,0.012769,-0.013448,0.053179,0.477219,0.468119,-0.469366,-0.576907,83.013321,5.286822,-96.125510
50869,NaN,-0.896653,9.784100,1.158110,0.038605,-0.016446,0.080343,0.010742,-0.019040,0.053180,0.477296,0.467945,-0.469602,-0.576793,83.020491,5.252025,-96.135562
50870,NaN,-0.850740,9.805983,1.105272,0.087725,-0.062896,0.091405,0.011592,-0.014251,0.057787,0.477395,0.467776,-0.469839,-0.576655,83.028430,5.215021,-96.142570
50871,NaN,-0.840865,9.799310,1.127836,0.063560,-0.063194,0.086681,-0.000120,-0.016838,0.061596,0.477526,0.467562,-0.470058,-0.576541,83.029555,5.175590,-96.150782
50872,NaN,-0.804549,9.772884,1.140180,0.044882,-0.088540,0.058823,0.003441,-0.012719,0.061174,0.477657,0.467370,-0.470276,-0.576411,83.032932,5.136767,-96.156682
50873,NaN,-0.773131,9.792560,1.167632,0.016696,-0.112577,0.078843,0.003257,-0.011531,0.055469,0.477775,0.467194,-0.470477,-0.576291,83.036237,5.101191,-96.162292
50874,NaN,-0.835485,9.775791,1.199422,-0.009674,-0.039714,0.071698,0.000568,-0.010843,0.060517,0.477916,0.467002,-0.470681,-0.576164,83.038066,5.062872,-96.167170
50875,NaN,-0.789490,9.797334,1.148127,0.039431,-0.086158,0.082779,-0.011541,-0.011065,0.052888,0.478062,0.466799,-0.470832,-0.576084,83.032907,5.028793,-96.172697
50876,NaN,-0.816167,9.723068,1.209150,-0.024558,-0.040736,0.019096,-0.016041,-0.006569,0.054243,0.478233,0.466594,-0.470963,-0.576001,83.025402,4.994339,-96.175566
50877,NaN,-0.790744,9.733877,1.184671,-0.000123,-0.063669,0.024641,-0.013235,-0.007826,0.052079,0.478388,0.466397,-0.471100,-0.575919,83.019435,4.960945,-96.179289
50878,NaN,-0.845127,9.749419,1.122601,0.069995,-0.011705,0.037216,-0.004637,-0.012795,0.051286,0.478509,0.466209,-0.471271,-0.575831,83.018144,4.927739,-96.185913
50879,NaN,-0.838518,9.765537,1.154265,0.041074,-0.011339,0.056422,-0.013438,-0.018312,0.046899,0.478626,0.465993,-0.471421,-0.575787,83.011524,4.896558,-96.195982
50880,NaN,-0.845030,9.787655,1.086433,0.112649,-0.008160,0.070624,-0.006034,-0.024098,0.050697,0.478722,0.465770,-0.471614,-0.575729,83.008888,4.862897,-96.209093
50881,NaN,-0.786601,9.803031,1.134626,0.061239,-0.057437,0.086731,-0.000224,-0.028908,0.043185,0.478771,0.465565,-0.471818,-0.575687,83.009316,4.833090,-96.225460
50882,NaN,-0.706607,9.844594,1.187842,0.005786,-0.130448,0.127596,-0.012798,-0.036234,0.042411,0.478830,0.465310,-0.472001,-0.575694,83.002189,4.803294,-96.246074
50883,NaN,-0.683644,9.839420,1.132994,0.058898,-0.153178,0.113958,-0.018894,-0.029647,0.041355,0.478916,0.465062,-0.472149,-0.575702,82.991895,4.774472,-96.262985
50884,NaN,-0.767693,9.811974,1.193508,0.007909,-0.056781,0.101210,-0.028123,-0.031151,0.038860,0.479013,0.464793,-0.472267,-0.575741,82.976228,4.747043,-96.280935
50885,NaN,-0.699674,9.750215,1.244694,-0.053171,-0.108902,0.040780,-0.042585,-0.021292,0.039906,0.479169,0.464516,-0.472323,-0.575789,82.952764,4.719618,-96.293165
50886,NaN,-0.713373,9.716472,1.266663,-0.073297,-0.085472,0.011288,-0.031246,-0.001962,0.046353,0.479363,0.464306,-0.472380,-0.575750,82.936737,4.689970,-96.293911
50887,NaN,-0.740694,9.727913,1.226284,-0.026378,-0.058769,0.019939,-0.021442,0.006084,0.044871,0.479550,0.464146,-0.472443,-0.575672,82.926700,4.661645,-96.290151
50888,NaN,-0.790513,9.752000,1.219168,-0.008867,-0.007884,0.046960,-0.023664,0.013901,0.043072,0.479754,0.464008,-0.472476,-0.575586,82.915733,4.634983,-96.282068
50889,NaN,-0.859566,9.688040,1.161302,0.050918,0.065572,-0.017857,-0.023335,0.012156,0.051687,0.479979,0.463845,-0.472535,-0.575482,82.904926,4.603211,-96.274353
50890,NaN,-0.854798,9.688335,1.162358,0.050692,0.066137,-0.017859,-0.000569,0.011824,0.049613,0.480143,0.463740,-0.472655,-0.575330,82.907126,4.572685,-96.266984
50891,NaN,-0.792742,9.735094,1.269892,-0.058140,0.016533,0.036651,0.028860,0.012538,0.053514,0.480253,0.463699,-0.472866,-0.575098,82.926245,4.539903,-96.258925
50892,NaN,-0.890138,9.831421,1.340421,-0.108964,0.117203,0.148251,0.029959,0.015051,0.054969,0.480370,0.463665,-0.473078,-0.574853,82.946101,4.506555,-96.249354
50893,NaN,-0.801344,9.780729,1.359615,-0.145406,0.041556,0.093396,0.015871,0.008710,0.050196,0.480491,0.463589,-0.473254,-0.574668,82.957575,4.475388,-96.243732
50894,NaN,-0.794743,9.758327,1.349721,-0.140872,0.041455,0.069455,0.026979,0.016959,0.046985,0.480596,0.463572,-0.473435,-0.574446,82.975753,4.446708,-96.233653
50895,NaN,-0.824218,9.793710,1.311481,-0.098705,0.068834,0.102029,0.031367,0.013040,0.042771,0.480670,0.463564,-0.473628,-0.574232,82.996248,4.420062,-96.226108
50896,NaN,-0.731198,9.782616,1.211827,-0.014785,-0.026954,0.071735,0.036077,0.007378,0.047175,0.480732,0.463540,-0.473857,-0.574009,83.019209,4.390599,-96.221502
50897,NaN,-0.682745,9.796846,1.179040,0.010321,-0.074292,0.078159,0.040325,0.016853,0.041155,0.480790,0.463568,-0.474063,-0.573769,83.044983,4.365133,-96.211912
50898,NaN,-0.767252,9.770770,1.233029,-0.040592,0.022133,0.065310,0.037054,0.023303,0.046835,0.480886,0.463593,-0.474256,-0.573508,83.069185,4.336962,-96.198271
50899,NaN,-0.759238,9.764279,1.252280,-0.064758,0.021869,0.060565,0.036278,0.017947,0.045108,0.480967,0.463605,-0.474457,-0.573265,83.092697,4.309313,-96.187810
50900,NaN,-0.642337,9.755912,1.149249,0.019842,-0.098337,0.031150,0.039961,0.020895,0.043092,0.481040,0.463639,-0.474655,-0.573011,83.118427,4.283094,-96.175826
50901,NaN,-0.688477,9.773774,1.158218,0.013439,-0.048282,0.053397,0.051507,0.025695,0.042468,0.481096,0.463715,-0.474874,-0.572721,83.150967,4.257469,-96.161150
50902,NaN,-0.729028,9.800287,1.220582,-0.045598,0.000760,0.090082,0.043769,0.023284,0.043972,0.481168,0.463763,-0.475080,-0.572450,83.178971,4.230900,-96.147772
50903,NaN,-0.702898,9.788193,1.183196,-0.016434,-0.022891,0.071742,0.030439,0.022311,0.040908,0.481261,0.463783,-0.475243,-0.572221,83.199275,4.205919,-96.135156
50904,NaN,-0.778446,9.755476,1.104241,0.062587,0.051990,0.035562,0.039916,0.022095,0.044747,0.481341,0.463817,-0.475443,-0.571961,83.225013,4.178818,-96.122426
50905,NaN,-0.746255,9.752015,1.120214,0.039114,0.027335,0.031666,0.041042,0.012364,0.049619,0.481410,0.463813,-0.475680,-0.571708,83.251011,4.148197,-96.114926
50906,NaN,-0.719290,9.739949,1.082297,0.068275,0.003653,0.013333,0.046633,0.010363,0.049741,0.481461,0.463817,-0.475939,-0.571447,83.280124,4.117454,-96.108579
50907,NaN,-0.756941,9.704619,1.098509,0.047499,0.051461,-0.017056,0.058005,0.004629,0.051263,0.481477,0.463828,-0.476247,-0.571168,83.315524,4.085376,-96.105408
50908,NaN,-0.785454,9.779377,1.095107,0.056193,0.079371,0.058632,0.065985,-0.007477,0.050057,0.481442,0.463826,-0.476604,-0.570901,83.354994,4.053259,-96.109256
50909,NaN,-0.669440,9.724272,1.130801,-0.003544,-0.021545,-0.000050,0.067594,-0.010114,0.048052,0.481391,0.463825,-0.476968,-0.570641,83.395272,4.022026,-96.114757
50910,NaN,-0.592652,9.773174,1.153491,-0.035204,-0.093571,0.045644,0.067212,-0.006658,0.045494,0.481341,0.463840,-0.477315,-0.570380,83.435458,3.992566,-96.118483
50911,NaN,-0.589674,9.758248,1.116465,-0.006739,-0.092859,0.026466,0.066258,-0.009123,0.051434,0.481305,0.463831,-0.477680,-0.570112,83.475031,3.959485,-96.123234
50912,NaN,-0.564777,9.808459,1.122034,-0.015849,-0.115258,0.075198,0.066449,0.000244,0.040369,0.481259,0.463875,-0.477997,-0.569849,83.515029,3.933395,-96.123396
50913,NaN,-0.573577,9.785094,1.187899,-0.088573,-0.092798,0.060089,0.060907,0.002871,0.044747,0.481245,0.463903,-0.478303,-0.569582,83.551975,3.904901,-96.121779
50914,NaN,-0.587970,9.821719,1.066877,0.030846,-0.088044,0.083847,0.055937,0.011406,0.040612,0.481250,0.463953,-0.478563,-0.569318,83.586381,3.879389,-96.115589
50915,NaN,-0.624851,9.802573,1.113707,-0.018622,-0.040355,0.072617,0.049172,0.012079,0.040657,0.481274,0.463989,-0.478803,-0.569067,83.616936,3.853802,-96.109022
50916,NaN,-0.674972,9.749500,1.023235,0.065908,0.009339,0.013345,0.049748,0.005757,0.035618,0.481266,0.464020,-0.479048,-0.568842,83.647552,3.830768,-96.106402
50917,NaN,-0.601313,9.781937,1.016465,0.062923,-0.062534,0.039886,0.057925,0.004158,0.032288,0.481226,0.464074,-0.479313,-0.568609,83.682778,3.809439,-96.104915
50918,NaN,-0.550071,9.788387,1.004433,0.064031,-0.110751,0.041632,0.065926,0.004874,0.032138,0.481168,0.464150,-0.479597,-0.568356,83.722612,3.788329,-96.103047
50919,NaN,-0.584118,9.801674,1.111078,-0.042850,-0.063276,0.068743,0.064052,0.009825,0.029997,0.481121,0.464240,-0.479860,-0.568101,83.761554,3.768663,-96.098485
50920,NaN,-0.530153,9.801024,1.122089,-0.065681,-0.112316,0.065738,0.059616,0.011401,0.016309,0.481049,0.464357,-0.480074,-0.567885,83.797949,3.756971,-96.093905
50921,NaN,-0.569151,9.850376,1.034465,0.024350,-0.083298,0.107818,0.053954,0.014587,0.017778,0.481001,0.464465,-0.480269,-0.567672,83.831226,3.744545,-96.087415
50922,NaN,-0.610874,9.815157,1.050873,0.003611,-0.035511,0.077385,0.051204,0.012927,0.004946,0.480920,0.464594,-0.480429,-0.567501,83.862810,3.739415,-96.082677
50923,NaN,-0.577422,9.781232,1.081633,-0.039047,-0.061705,0.044823,0.051303,0.011777,0.003370,0.480831,0.464722,-0.480589,-0.567335,83.894408,3.735018,-96.078690
50924,NaN,-0.660595,9.794518,1.015962,0.030502,0.014507,0.056457,0.055388,0.010674,-0.000520,0.480719,0.464867,-0.480754,-0.567172,83.928282,3.732860,-96.075577
50925,NaN,-0.690490,9.822545,0.997254,0.048747,0.041033,0.084263,0.063952,0.005040,-0.005703,0.480559,0.465029,-0.480944,-0.567013,83.966835,3.733218,-96.075991
50926,NaN,-0.617314,9.847679,1.012704,0.021787,-0.031662,0.106080,0.059309,-0.003320,-0.012741,0.480369,0.465173,-0.481125,-0.566902,84.002387,3.737179,-96.081607
50927,NaN,-0.535563,9.835613,1.067314,-0.048261,-0.106719,0.094459,0.058722,0.001819,-0.016637,0.480182,0.465339,-0.481284,-0.566790,84.037780,3.743580,-96.084504
50928,NaN,-0.552344,9.796204,1.103392,-0.092251,-0.084147,0.060133,0.059539,0.006608,-0.019378,0.479997,0.465528,-0.481426,-0.566671,84.073807,3.751919,-96.084839
50929,NaN,-0.563691,9.833851,1.058705,-0.049416,-0.081180,0.093583,0.056055,0.013603,-0.024003,0.479824,0.465739,-0.481531,-0.566555,84.108081,3.763210,-96.081441
50930,NaN,-0.566721,9.834246,1.053401,-0.049662,-0.080613,0.093586,0.049942,0.018965,-0.034111,0.479649,0.465975,-0.481582,-0.566466,84.139018,3.780672,-96.075575
50931,NaN,-0.592654,9.808472,1.044582,-0.045780,-0.056386,0.068771,0.039765,0.026053,-0.035857,0.479510,0.466210,-0.481583,-0.566389,84.164388,3.799446,-96.065742
50932,NaN,-0.622492,9.789557,1.012735,-0.017965,-0.031359,0.048715,0.047386,0.030203,-0.038591,0.479355,0.466482,-0.481590,-0.566290,84.194275,3.820108,-96.053699
50933,NaN,-0.624860,9.766598,1.000097,-0.013419,-0.031528,0.024787,0.059408,0.030999,-0.041011,0.479167,0.466791,-0.481623,-0.566166,84.231078,3.842093,-96.041323
50934,NaN,-0.657225,9.810628,1.011126,-0.023889,-0.005083,0.071752,0.066313,0.028603,-0.047023,0.478940,0.467125,-0.481667,-0.566046,84.271726,3.867455,-96.030653
50935,NaN,-0.708418,9.821713,1.040643,-0.054152,0.044209,0.089128,0.066538,0.026920,-0.045687,0.478713,0.467450,-0.481719,-0.565925,84.312442,3.891850,-96.020846
50936,NaN,-0.715016,9.805625,1.003914,-0.025672,0.044836,0.069959,0.060432,0.020664,-0.047811,0.478478,0.467749,-0.481763,-0.565839,84.349420,3.917197,-96.014722
50937,NaN,-0.768128,9.760499,0.965832,0.006299,0.093499,0.025067,0.069340,0.012190,-0.053200,0.478188,0.468057,-0.481840,-0.565764,84.391153,3.945038,-96.013728
50938,NaN,-0.667880,9.735355,0.986278,-0.034414,-0.005879,-0.004797,0.072175,0.011533,-0.050850,0.477895,0.468365,-0.481932,-0.565678,84.434496,3.971600,-96.012956
50939,NaN,-0.691374,9.702889,0.997159,-0.054437,0.017517,-0.034390,0.092846,0.008000,-0.049425,0.477549,0.468708,-0.482095,-0.565547,84.489536,3.997042,-96.014116
50940,NaN,-0.705737,9.780141,0.985492,-0.045113,0.021158,0.042155,0.107822,0.007011,-0.051040,0.477161,0.469089,-0.482298,-0.565386,84.553126,4.023463,-96.015890
50941,NaN,-0.671967,9.823321,0.930396,-0.000990,-0.024666,0.077418,0.094327,0.007111,-0.052631,0.476801,0.469441,-0.482459,-0.565261,84.608988,4.050704,-96.017674
50942,NaN,-0.649085,9.780134,0.904438,0.008994,-0.050020,0.030470,0.085847,0.011591,-0.049055,0.476480,0.469777,-0.482593,-0.565137,84.660182,4.076242,-96.016670
50943,NaN,-0.705605,9.741576,0.841052,0.064914,-0.000582,-0.009661,0.092902,0.008688,-0.052124,0.476128,0.470128,-0.482748,-0.565010,84.715295,4.103276,-96.017482
50944,NaN,-0.751690,9.762849,0.920310,-0.017981,0.047855,0.022078,0.116137,0.007430,-0.048042,0.475729,0.470522,-0.482980,-0.564820,84.783682,4.128016,-96.018753
50945,NaN,-0.689902,9.802294,0.883859,0.002844,-0.023168,0.053497,0.116491,0.004612,-0.048242,0.475323,0.470908,-0.483219,-0.564636,84.852143,4.152620,-96.021621
50946,NaN,-0.720071,9.783291,0.845972,0.030690,0.001811,0.033429,0.100067,0.007774,-0.041699,0.474980,0.471249,-0.483419,-0.564469,84.911364,4.173761,-96.022313
50947,NaN,-0.749914,9.764152,0.808899,0.058541,0.026802,0.013360,0.101012,-0.000801,-0.042433,0.474613,0.471569,-0.483641,-0.564320,84.970763,4.194787,-96.027937
50948,NaN,-0.722686,9.754564,0.841495,0.011081,0.001357,0.004735,0.122775,-0.001133,-0.042353,0.474193,0.471939,-0.483924,-0.564120,85.042621,4.215858,-96.033714
50949,NaN,-0.677342,9.818235,0.889936,-0.050128,-0.046133,0.068803,0.138727,0.002855,-0.039314,0.473754,0.472351,-0.484251,-0.563865,85.123781,4.235265,-96.037088
50950,NaN,-0.665025,9.875297,0.864247,-0.035396,-0.067617,0.122343,0.129137,0.004149,-0.041631,0.473333,0.472749,-0.484541,-0.563634,85.199511,4.256194,-96.039748
50951,NaN,-0.672968,9.882458,0.829695,-0.011705,-0.066241,0.127117,0.098687,0.010005,-0.043924,0.472992,0.473097,-0.484727,-0.563469,85.258025,4.278599,-96.039173
50952,NaN,-0.772411,9.790483,0.758594,0.052578,0.030354,0.037285,0.086432,0.011497,-0.038408,0.472699,0.473407,-0.484887,-0.563317,85.309614,4.298040,-96.037429
50953,NaN,-0.703714,9.759514,0.703943,0.087753,-0.043009,-0.003034,0.095544,0.002555,-0.040758,0.472357,0.473718,-0.485088,-0.563169,85.366040,4.318297,-96.040938
50954,NaN,-0.757814,9.777366,0.706146,0.081463,0.007091,0.019052,0.118151,0.007714,-0.038955,0.471978,0.474094,-0.485345,-0.562950,85.435641,4.337873,-96.041346
50955,NaN,-0.812034,9.835676,0.744152,0.041658,0.057985,0.084210,0.113873,-0.001660,-0.032783,0.471604,0.474417,-0.485627,-0.562748,85.502392,4.353370,-96.046872
50956,NaN,-0.811628,9.829840,0.757113,0.017494,0.057740,0.079434,0.096989,-0.008691,-0.034264,0.471248,0.474684,-0.485873,-0.562608,85.559173,4.369535,-96.056424
50957,NaN,-0.818056,9.796118,0.688158,0.074722,0.058324,0.041130,0.088980,-0.022347,-0.034985,0.470876,0.474895,-0.486128,-0.562521,85.610749,4.385386,-96.073881
50958,NaN,-0.802714,9.788669,0.622902,0.127770,0.035274,0.027680,0.100364,-0.039673,-0.039722,0.470421,0.475096,-0.486444,-0.562458,85.668082,4.403337,-96.101393
50959,NaN,-0.678546,9.791594,0.644300,0.082780,-0.087689,0.022775,0.114724,-0.032932,-0.034710,0.469963,0.475337,-0.486797,-0.562333,85.733958,4.418616,-96.124896
50960,NaN,-0.758655,9.870365,0.692629,0.037552,-0.011611,0.110913,0.103180,-0.039038,-0.035702,0.469514,0.475537,-0.487128,-0.562252,85.792933,4.434357,-96.151836
50961,NaN,-0.713311,9.836209,0.640892,0.072088,-0.060613,0.069705,0.089481,-0.037929,-0.035844,0.469100,0.475707,-0.487418,-0.562202,85.844077,4.450111,-96.178193
50962,NaN,-0.737743,9.867912,0.695092,0.013772,-0.035669,0.107072,0.090843,-0.038351,-0.041949,0.468664,0.475894,-0.487698,-0.562164,85.895981,4.469500,-96.204969
50963,NaN,-0.645016,9.839729,0.637839,0.049530,-0.133458,0.067741,0.090362,-0.033754,-0.042997,0.468238,0.476095,-0.487964,-0.562119,85.947797,4.489574,-96.229190
50964,NaN,-0.669918,9.871516,0.692004,-0.008788,-0.108503,0.105107,0.088039,-0.024804,-0.043437,0.467837,0.476318,-0.488200,-0.562059,85.998683,4.510406,-96.248226
50965,NaN,-0.773805,9.865694,0.672858,0.012455,-0.009594,0.106142,0.078668,-0.025836,-0.041639,0.467462,0.476510,-0.488418,-0.562019,86.044157,4.530051,-96.267852
50966,NaN,-0.701625,9.828182,0.643469,0.023659,-0.083814,0.061112,0.070981,-0.018535,-0.047019,0.467107,0.476719,-0.488583,-0.561994,86.085531,4.553207,-96.283403
50967,NaN,-0.728030,9.801779,0.633306,0.027627,-0.059657,0.036254,0.068954,-0.012469,-0.047712,0.466770,0.476940,-0.488727,-0.561960,86.125967,4.576842,-96.295563
50968,NaN,-0.705065,9.798891,0.646433,0.004071,-0.084285,0.032419,0.078613,-0.013723,-0.052540,0.466393,0.477193,-0.488889,-0.561918,86.171908,4.603363,-96.308534
50969,NaN,-0.618435,9.858309,0.639373,-0.003344,-0.179659,0.084041,0.077685,-0.005093,-0.051836,0.466042,0.477466,-0.489031,-0.561855,86.217689,4.629657,-96.316615
50970,NaN,-0.716029,9.839981,0.667747,-0.029935,-0.082340,0.075494,0.070761,0.007617,-0.055613,0.465727,0.477768,-0.489113,-0.561787,86.260103,4.658757,-96.317420
50971,NaN,-0.747796,9.860363,0.670559,-0.035574,-0.056575,0.098475,0.063575,0.011009,-0.055474,0.465438,0.478062,-0.489169,-0.561728,86.298535,4.687766,-96.316291
50972,NaN,-0.783493,9.886705,0.650066,-0.017289,-0.030054,0.126235,0.067900,0.021128,-0.057175,0.465158,0.478399,-0.489208,-0.561638,86.339943,4.718256,-96.309362
50973,NaN,-0.789434,9.886660,0.643523,-0.017518,-0.029485,0.126236,0.061259,0.019288,-0.060357,0.464882,0.478722,-0.489226,-0.561577,86.377440,4.750360,-96.303630
50974,NaN,-0.764735,9.819326,0.615378,-0.002730,-0.055767,0.055420,0.056480,0.025441,-0.060539,0.464630,0.479053,-0.489214,-0.561512,86.412512,4.782921,-96.294306
50975,NaN,-0.769076,9.836751,0.639228,-0.031690,-0.055157,0.074562,0.058464,0.032960,-0.054630,0.464410,0.479394,-0.489206,-0.561411,86.449065,4.812202,-96.280504
50976,NaN,-0.724660,9.819580,0.620566,-0.025922,-0.104207,0.052547,0.062252,0.035297,-0.061031,0.464167,0.479767,-0.489187,-0.561310,86.487932,4.845380,-96.265499
50977,NaN,-0.779028,9.813124,0.620328,-0.027340,-0.054860,0.050645,0.061538,0.041568,-0.063439,0.463935,0.480160,-0.489146,-0.561201,86.526672,4.879971,-96.247069
50978,NaN,-0.798973,9.854170,0.550498,0.039402,-0.051190,0.088923,0.052899,0.045913,-0.060076,0.463743,0.480539,-0.489078,-0.561095,86.560725,4.912949,-96.225891
50979,NaN,-0.878343,9.826751,0.524430,0.066142,0.022487,0.066921,0.051367,0.048094,-0.055255,0.463575,0.480907,-0.489013,-0.560976,86.593983,4.943071,-96.203318
50980,NaN,-0.965816,9.852067,0.487651,0.107187,0.098545,0.097541,0.049513,0.040784,-0.053804,0.463396,0.481247,-0.488962,-0.560875,86.625886,4.972264,-96.184831
50981,NaN,-0.937055,9.819879,0.519696,0.064510,0.072357,0.065003,0.053758,0.040598,-0.045826,0.463229,0.481577,-0.488944,-0.560746,86.660237,4.996737,-96.166229
50982,NaN,-0.926916,9.837463,0.644959,-0.064979,0.070717,0.088909,0.026539,0.028933,-0.026755,0.463152,0.481765,-0.488921,-0.560668,86.678480,5.010045,-96.153612
50983,NaN,-0.985187,9.804478,0.362076,0.216668,0.100768,0.044918,0.038068,0.024052,-0.027694,0.463034,0.481967,-0.488941,-0.560575,86.703079,5.023581,-96.143910
50984,NaN,-0.906221,9.758472,0.561799,0.002264,0.045648,0.003754,0.059432,0.017626,-0.023249,0.462860,0.482191,-0.489045,-0.560435,86.739615,5.034501,-96.137658
50985,NaN,-1.011458,9.816056,0.586360,-0.014726,0.146252,0.071654,0.063112,0.010309,-0.015552,0.462681,0.482383,-0.489195,-0.560286,86.777872,5.040624,-96.135402
50986,NaN,-1.042748,9.842288,0.566711,0.003584,0.172772,0.099389,0.046591,-0.000198,-0.007191,0.462540,0.482488,-0.489343,-0.560184,86.806199,5.041779,-96.138855
50987,NaN,-0.918583,9.752899,0.469673,0.078198,0.048739,-0.005806,0.040088,-0.014795,-0.003822,0.462388,0.482528,-0.489515,-0.560124,86.830067,5.040424,-96.150616
50988,NaN,-0.860735,9.724589,0.499670,0.036092,-0.001862,-0.037368,0.057727,-0.012514,0.001786,0.462215,0.482602,-0.489744,-0.560003,86.864179,5.036058,-96.160856
50989,NaN,-0.915212,9.788952,0.518156,0.020269,0.049974,0.032452,0.068963,-0.013641,0.012786,0.462043,0.482671,-0.490035,-0.559831,86.904677,5.025252,-96.171406
50990,NaN,-0.883444,9.822428,0.591425,-0.060794,0.025528,0.066888,0.062931,-0.020595,0.013568,0.461870,0.482706,-0.490325,-0.559690,86.941400,5.013911,-96.185930
50991,NaN,-0.940879,9.833622,0.521854,0.009613,0.077129,0.079313,0.049822,-0.025233,0.020144,0.461736,0.482680,-0.490606,-0.559576,86.970392,4.998560,-96.202947
50992,NaN,-0.957715,9.783838,0.507906,0.018448,0.100368,0.030496,0.052213,-0.033426,0.025140,0.461590,0.482625,-0.490925,-0.559465,87.000369,4.980227,-96.224502
50993,NaN,-0.886760,9.799775,0.470104,0.043870,0.028508,0.038210,0.061563,-0.042747,0.025889,0.461401,0.482564,-0.491293,-0.559351,87.035256,4.961091,-96.251439
50994,NaN,-0.816538,9.857035,0.467105,0.035720,-0.042433,0.088979,0.068480,-0.042480,0.030490,0.461208,0.482508,-0.491690,-0.559209,87.074132,4.939456,-96.278057
50995,NaN,-0.738635,9.902889,0.511066,-0.020294,-0.114856,0.130168,0.057195,-0.039964,0.028348,0.461042,0.482438,-0.492045,-0.559093,87.106677,4.919052,-96.303281
50996,NaN,-0.710336,9.924397,0.532957,-0.048709,-0.138606,0.150278,0.039855,-0.032750,0.026079,0.460930,0.482354,-0.492329,-0.559008,87.129636,4.900250,-96.324461
50997,NaN,-0.713290,9.853315,0.411492,0.066039,-0.138451,0.073788,0.032828,-0.019435,0.026570,0.460869,0.482289,-0.492564,-0.558907,87.149228,4.881450,-96.338000
50998,NaN,-0.758688,9.847239,0.414883,0.064671,-0.089145,0.071832,0.026577,-0.013044,0.025119,0.460834,0.482232,-0.492763,-0.558809,87.165551,4.863772,-96.347900
50999,NaN,-0.756262,9.847525,0.412524,0.064435,-0.088597,0.071839,0.022416,-0.001003,0.023549,0.460835,0.482203,-0.492920,-0.558696,87.180090,4.847239,-96.350946
51000,NaN,-0.795863,9.812257,0.433747,0.043969,-0.040891,0.041161,0.025397,0.008913,0.023479,0.460853,0.482208,-0.493061,-0.558552,87.196801,4.831122,-96.348292
51001,NaN,-0.797523,9.818187,0.407727,0.067662,-0.039600,0.045960,0.025966,0.003673,0.020211,0.460848,0.482208,-0.493209,-0.558426,87.213602,4.816632,-96.348763
51002,NaN,-0.812956,9.845426,0.491086,-0.014552,-0.015197,0.078421,0.017615,0.004408,0.018866,0.460860,0.482194,-0.493328,-0.558323,87.225625,4.803029,-96.348834
51003,NaN,-0.761012,9.828411,0.477410,-0.008846,-0.064280,0.056482,0.011366,-0.001578,0.013893,0.460859,0.482162,-0.493431,-0.558260,87.233786,4.792012,-96.352482
51004,NaN,-0.729734,9.802548,0.490352,-0.027626,-0.089737,0.028761,0.017109,-0.004117,0.009799,0.460827,0.482145,-0.493546,-0.558200,87.245089,4.783362,-96.357704
51005,NaN,-0.706683,9.888764,0.556560,-0.094452,-0.111603,0.115829,0.017690,0.002309,0.005619,0.460797,0.482158,-0.493638,-0.558131,87.257037,4.777185,-96.359353
51006,NaN,-0.729490,9.844242,0.522882,-0.061670,-0.087663,0.071804,0.007700,0.005003,0.001743,0.460787,0.482166,-0.493687,-0.558091,87.263367,4.773397,-96.359562
51007,NaN,-0.800626,9.793329,0.496444,-0.029987,-0.014940,0.025790,-0.003621,0.007492,-0.000440,0.460805,0.482159,-0.493693,-0.558076,87.263331,4.770826,-96.358397
51008,NaN,-0.830841,9.819373,0.481398,-0.011667,0.011585,0.053511,0.016637,0.010697,-0.001087,0.460779,0.482210,-0.493746,-0.558006,87.275048,4.768813,-96.355414
51009,NaN,-0.834913,9.825054,0.456212,0.012031,0.012870,0.058310,0.017200,0.005452,-0.004356,0.460731,0.482255,-0.493806,-0.557954,87.286835,4.768430,-96.355522
51010,NaN,-0.833684,9.843003,0.484829,-0.016950,0.013539,0.077425,-0.000983,0.008601,0.000587,0.460748,0.482255,-0.493819,-0.557929,87.288359,4.765401,-96.353698
51011,NaN,-0.787741,9.771978,0.384221,0.074996,-0.035974,-0.001836,-0.000211,0.001677,-0.001342,0.460740,0.482242,-0.493846,-0.557922,87.290010,4.763194,-96.355910
51012,NaN,-0.739881,9.778312,0.377104,0.075856,-0.084223,0.000170,0.018509,0.006359,-0.001631,0.460698,0.482287,-0.493913,-0.557859,87.302591,4.761374,-96.355434
51013,NaN,-0.731913,9.826550,0.487456,-0.034563,-0.083979,0.052714,0.011132,0.010863,-0.000065,0.460690,0.482322,-0.493954,-0.557799,87.311173,4.758679,-96.352329
51014,NaN,-0.739720,9.837780,0.440046,0.013053,-0.081984,0.062324,-0.003038,0.013917,-0.004625,0.460710,0.482345,-0.493936,-0.557778,87.311762,4.758775,-96.347594
51015,NaN,-0.787417,9.789961,0.410219,0.045318,-0.033689,0.017290,0.010851,0.024702,-0.005194,0.460722,0.482432,-0.493932,-0.557697,87.320837,4.759387,-96.336684
51016,NaN,-0.813837,9.869785,0.483045,-0.022621,-0.006708,0.102340,0.009640,0.023311,-0.005036,0.460733,0.482511,-0.493927,-0.557623,87.329136,4.759969,-96.326565
51017,NaN,-0.767879,9.858137,0.446832,0.006977,-0.055087,0.085245,-0.001470,0.024121,-0.005884,0.460772,0.482569,-0.493888,-0.557576,87.331129,4.760970,-96.315990
51018,NaN,-0.804621,9.913245,0.415070,0.044397,-0.026948,0.141680,-0.004341,0.025394,-0.003838,0.460826,0.482620,-0.493842,-0.557528,87.331520,4.760920,-96.304643
51019,NaN,-0.798221,9.842516,0.397834,0.058655,-0.029050,0.069937,-0.015332,0.025014,-0.006226,0.460899,0.482649,-0.493762,-0.557514,87.325600,4.762121,-96.293586
51020,NaN,-0.813065,9.804484,0.442853,0.014868,-0.006467,0.035401,-0.009728,0.024369,-0.004356,0.460962,0.482685,-0.493702,-0.557483,87.322854,4.762342,-96.282841
51021,NaN,-0.792025,9.831116,0.446424,0.010340,-0.029419,0.060330,-0.006526,0.020231,-0.006595,0.461001,0.482723,-0.493656,-0.557460,87.321743,4.763634,-96.274506
51022,NaN,-0.803515,9.907277,0.441808,0.019537,-0.025496,0.136882,-0.013783,0.023547,-0.006570,0.461065,0.482753,-0.493581,-0.557446,87.316631,4.765100,-96.264293
51023,NaN,-0.817705,9.827691,0.452128,0.009343,-0.003952,0.059317,-0.027080,0.019188,-0.010190,0.461141,0.482749,-0.493472,-0.557484,87.303703,4.768434,-96.256660
51024,NaN,-0.744428,9.813465,0.439315,0.015531,-0.077475,0.038456,-0.023433,0.023376,-0.010646,0.461217,0.482766,-0.493361,-0.557504,87.293045,4.772233,-96.246656
51025,NaN,-0.744439,9.831194,0.470531,-0.013464,-0.076752,0.057566,-0.015580,0.026499,-0.014837,0.461270,0.482820,-0.493255,-0.557506,87.287044,4.778423,-96.234957
51026,NaN,-0.758167,9.889351,0.437195,0.024482,-0.072992,0.115016,-0.020077,0.029738,-0.015313,0.461341,0.482875,-0.493128,-0.557514,87.278605,4.785069,-96.221427
51027,NaN,-0.774246,9.851077,0.483949,-0.019293,-0.050382,0.080465,-0.041834,0.027305,-0.018758,0.461449,0.482880,-0.492938,-0.557588,87.257586,4.793513,-96.209395
51028,NaN,-0.795718,9.800449,0.478776,-0.010381,-0.027259,0.031618,-0.041465,0.023746,-0.023364,0.461534,0.482888,-0.492745,-0.557681,87.236590,4.804610,-96.199532
51029,NaN,-0.756621,9.776380,0.393627,0.071872,-0.075146,0.000273,-0.030201,0.021057,-0.028454,0.461571,0.482927,-0.492578,-0.557764,87.221938,4.818459,-96.191353
51030,NaN,-0.778402,9.844314,0.517085,-0.043925,-0.049474,0.075661,-0.022585,0.026566,-0.029556,0.461600,0.483002,-0.492417,-0.557818,87.211885,4.833183,-96.180049
51031,NaN,-0.805390,9.840715,0.522895,-0.044678,-0.024532,0.074635,-0.038977,0.025862,-0.028055,0.461671,0.483033,-0.492216,-0.557910,87.192423,4.846921,-96.169117
51032,NaN,-0.835111,9.801343,0.470504,0.012095,0.000001,0.035407,-0.040021,0.022594,-0.033847,0.461720,0.483066,-0.492004,-0.558026,87.172182,4.863995,-96.160224
51033,NaN,-0.842439,9.806561,0.450247,0.035790,0.001259,0.040220,-0.029408,0.025655,-0.038526,0.461739,0.483145,-0.491805,-0.558119,87.158165,4.883729,-96.149695
51034,NaN,-0.795720,9.848265,0.505863,-0.020937,-0.046583,0.080481,-0.025022,0.023616,-0.036501,0.461747,0.483222,-0.491626,-0.558202,87.146566,4.902356,-96.140300
51035,NaN,-0.829342,9.873809,0.494010,-0.002597,-0.020026,0.108177,-0.031419,0.031899,-0.031987,0.461804,0.483297,-0.491422,-0.558270,87.131731,4.918539,-96.125998
51036,NaN,-0.902247,9.840070,0.500063,0.000474,0.052759,0.081165,-0.040754,0.029561,-0.031850,0.461877,0.483344,-0.491198,-0.558366,87.111428,4.934680,-96.113063
51037,NaN,-0.877685,9.778025,0.459358,0.039199,0.026888,0.015276,-0.046042,0.028044,-0.029493,0.461967,0.483368,-0.490968,-0.558473,87.088039,4.949333,-96.100924
51038,NaN,-0.897416,9.703788,0.447325,0.052982,0.049058,-0.057497,-0.028102,0.027300,-0.031328,0.462006,0.483436,-0.490785,-0.558543,87.074880,4.965118,-96.089283
51039,NaN,-0.801852,9.752157,0.496326,-0.002743,-0.047519,-0.015157,-0.009375,0.032197,-0.024279,0.462031,0.483544,-0.490660,-0.558538,87.072727,4.976914,-96.074613
51040,NaN,-0.859475,9.815897,0.520833,-0.018510,0.004539,0.054503,-0.002417,0.031944,-0.016815,0.462060,0.483649,-0.490573,-0.558500,87.074558,4.984533,-96.059881
51041,NaN,-0.885737,9.812364,0.524507,-0.019245,0.029478,0.053462,-0.018251,0.025794,-0.025900,0.462087,0.483722,-0.490435,-0.558536,87.067001,4.997067,-96.048948
51042,NaN,-0.920471,9.802458,0.452346,0.056636,0.055575,0.042960,-0.015465,0.025906,-0.019116,0.462126,0.483785,-0.490320,-0.558550,87.061053,5.005827,-96.037752
51043,NaN,-0.935289,9.722695,0.461314,0.046513,0.077042,-0.034637,-0.008895,0.016635,-0.017882,0.462130,0.483835,-0.490248,-0.558566,87.058415,5.013503,-96.031846
51044,NaN,-0.867589,9.815028,0.523761,-0.019431,0.006713,0.054500,0.011483,0.018870,-0.012728,0.462105,0.483925,-0.490240,-0.558516,87.067573,5.018402,-96.024504
51045,NaN,-0.894380,9.852922,0.561323,-0.053769,0.032808,0.096455,0.006764,0.012090,-0.013684,0.462072,0.483988,-0.490233,-0.558496,87.073683,5.023548,-96.021054
51046,NaN,-0.870084,9.814881,0.522366,-0.019889,0.007799,0.054498,-0.001542,0.013002,-0.007763,0.462077,0.484020,-0.490214,-0.558480,87.075097,5.025433,-96.016935
51047,NaN,-0.843090,9.753351,0.477431,0.018834,-0.018132,-0.011365,0.003761,0.014540,-0.010097,0.462067,0.484073,-0.490201,-0.558453,87.079629,5.028600,-96.011990
51048,NaN,-0.896952,9.793679,0.494741,0.007924,0.033032,0.034357,0.007548,0.017734,-0.004792,0.462071,0.484132,-0.490204,-0.558397,87.086497,5.028921,-96.005065
51049,NaN,-0.879827,9.826215,0.473220,0.027266,0.010818,0.064138,0.016061,0.015139,-0.009378,0.462034,0.484214,-0.490226,-0.558336,87.098113,5.031696,-95.999752
51050,NaN,-0.822823,9.797928,0.506778,-0.014981,-0.039739,0.032689,0.011717,0.017374,-0.004107,0.462029,0.484280,-0.490242,-0.558269,87.107353,5.031613,-95.993015
51051,NaN,-0.874821,9.797041,0.487624,0.007731,0.010274,0.035406,0.014546,0.016798,-0.001737,0.462022,0.484344,-0.490275,-0.558191,87.118191,5.030046,-95.986545
51052,NaN,-0.857337,9.829624,0.465692,0.027066,-0.011955,0.065193,0.017555,0.014353,-0.005317,0.461991,0.484418,-0.490312,-0.558120,87.130621,5.030566,-95.981578
51053,NaN,-0.873236,9.773629,0.477969,0.012120,0.010413,0.011495,0.017430,0.015541,-0.003774,0.461968,0.484491,-0.490350,-0.558042,87.143048,5.030144,-95.975852
51054,NaN,-0.824419,9.798156,0.499711,-0.015908,-0.037575,0.032696,0.022556,0.018955,-0.000151,0.461951,0.484576,-0.490403,-0.557935,87.158589,5.027837,-95.968093
51055,NaN,-0.784036,9.816279,0.444554,0.032672,-0.084428,0.044466,0.025951,0.012950,-0.008348,0.461888,0.484672,-0.490461,-0.557853,87.175775,5.029946,-95.964047
51056,NaN,-0.801424,9.801638,0.492050,-0.015892,-0.060880,0.033760,0.018066,0.022198,-0.000620,0.461888,0.484758,-0.490493,-0.557751,87.188905,5.027994,-95.954440
51057,NaN,-0.835708,9.833243,0.452086,0.026388,-0.033631,0.066261,0.017851,0.023704,-0.009225,0.461869,0.484867,-0.490500,-0.557665,87.201975,5.030891,-95.944248
51058,NaN,-0.830435,9.804078,0.467394,0.007082,-0.034729,0.037529,0.020881,0.021445,-0.005521,0.461847,0.484969,-0.490530,-0.557569,87.216668,5.031718,-95.935212
51059,NaN,-0.808098,9.789624,0.432655,0.036101,-0.058837,0.019514,0.023312,0.024251,-0.005803,0.461826,0.485084,-0.490559,-0.557460,87.232905,5.032688,-95.924553
51060,NaN,-0.895648,9.800746,0.547142,-0.071436,0.038417,0.043762,0.031653,0.023536,-0.004419,0.461786,0.485214,-0.490617,-0.557330,87.253878,5.032937,-95.914284
51061,NaN,-0.882915,9.821163,0.470951,0.000577,0.016619,0.059308,0.024304,0.015630,-0.006426,0.461739,0.485309,-0.490668,-0.557241,87.270258,5.034010,-95.908640
51062,NaN,-0.880917,9.797735,0.462042,0.005198,0.016197,0.035399,0.030975,0.017580,-0.003147,0.461689,0.485417,-0.490740,-0.557124,87.290545,5.033362,-95.901758
51063,NaN,-0.859962,9.824677,0.462194,0.000589,-0.006687,0.060377,0.029135,0.009525,-0.006146,0.461617,0.485505,-0.490819,-0.557038,87.309372,5.034107,-95.899584
51064,NaN,-0.857948,9.801258,0.453019,0.005210,-0.007113,0.036469,0.032852,0.013238,-0.003700,0.461551,0.485607,-0.490905,-0.556928,87.330515,5.033655,-95.895212
51065,NaN,-0.877144,9.751018,0.440458,0.014216,0.015903,-0.012418,0.032599,0.015620,-0.000617,0.461500,0.485707,-0.490993,-0.556805,87.351649,5.031400,-95.889383
51066,NaN,-0.883020,9.780355,0.419189,0.033054,0.018061,0.016319,0.042627,0.012444,0.006166,0.461435,0.485805,-0.491133,-0.556650,87.378375,5.025277,-95.885207
51067,NaN,-0.884950,9.804137,0.420509,0.027971,0.019566,0.040226,0.050977,0.011742,0.007566,0.461353,0.485917,-0.491300,-0.556473,87.409853,5.018229,-95.881386
51068,NaN,-0.877039,9.793222,0.462536,-0.020103,0.018752,0.030563,0.048626,0.008449,0.010732,0.461277,0.486006,-0.491477,-0.556303,87.439824,5.009385,-95.879394
51069,NaN,-0.834047,9.829294,0.434552,-0.000336,-0.027835,0.061456,0.048307,0.011335,0.010948,0.461210,0.486101,-0.491646,-0.556125,87.469762,5.000364,-95.875798
51070,NaN,-0.867820,9.782708,0.499878,-0.068406,0.018495,0.020895,0.048713,0.007972,0.013623,0.461140,0.486182,-0.491831,-0.555949,87.499764,4.989851,-95.874017
51071,NaN,-0.850541,9.779547,0.415612,0.008445,-0.004308,0.012565,0.051482,0.007911,0.013144,0.461062,0.486270,-0.492023,-0.555767,87.531372,4.979504,-95.872331
51072,NaN,-0.940678,9.779131,0.474388,-0.046329,0.093398,0.022477,0.059022,0.002444,0.017368,0.460964,0.486350,-0.492258,-0.555570,87.567012,4.966710,-95.873646
51073,NaN,-0.924387,9.817509,0.424794,-0.003116,0.071859,0.057128,0.058302,-0.015230,0.019521,0.460830,0.486374,-0.492537,-0.555412,87.601399,4.952160,-95.885114
51074,NaN,-0.898484,9.821221,0.416245,-0.002887,0.048002,0.058209,0.061859,-0.022233,0.017107,0.460664,0.486393,-0.492836,-0.555269,87.637441,4.938930,-95.900630
51075,NaN,-0.852051,9.833723,0.381176,0.021715,0.000437,0.065214,0.062599,-0.028461,0.019595,0.460488,0.486389,-0.493158,-0.555133,87.673626,4.924051,-95.919669
51076,NaN,-0.771967,9.814888,0.384366,0.003785,-0.073831,0.039735,0.063071,-0.032513,0.017879,0.460295,0.486380,-0.493485,-0.555009,87.709863,4.910161,-95.941090
51077,NaN,-0.823903,9.837804,0.366417,0.021700,-0.022878,0.066303,0.063799,-0.026313,0.023900,0.460132,0.486375,-0.493816,-0.554855,87.746863,4.892876,-95.958860
51078,NaN,-0.825083,9.843687,0.337168,0.045387,-0.021692,0.071142,0.057000,-0.027074,0.022165,0.459980,0.486356,-0.494124,-0.554723,87.779906,4.876680,-95.977076
51079,NaN,-0.792745,9.818284,0.346533,0.026542,-0.047174,0.043493,0.057908,-0.022779,0.022234,0.459836,0.486350,-0.494426,-0.554578,87.813703,4.860451,-95.992846
51080,NaN,-0.817923,9.820873,0.320306,0.049779,-0.021607,0.047241,0.058889,-0.018968,0.025176,0.459706,0.486351,-0.494729,-0.554415,87.848238,4.842728,-96.006357
51081,NaN,-0.791647,9.824483,0.311800,0.049995,-0.045451,0.048338,0.058757,-0.017987,0.019444,0.459565,0.486368,-0.495015,-0.554263,87.882735,4.828209,-96.019438
51082,NaN,-0.809958,9.816182,0.332456,0.025393,-0.021198,0.042407,0.061486,-0.017325,0.023384,0.459428,0.486383,-0.495316,-0.554093,87.918839,4.811563,-96.032064
51083,NaN,-0.812718,9.863726,0.338414,0.015432,-0.018685,0.090218,0.056347,-0.020765,0.019771,0.459286,0.486386,-0.495603,-0.553953,87.951847,4.796827,-96.046749
51084,NaN,-0.711049,9.871550,0.345243,-0.006950,-0.116353,0.089772,0.050628,-0.018936,0.019414,0.459161,0.486381,-0.495868,-0.553823,87.981651,4.782437,-96.060400
51085,NaN,-0.757244,9.865420,0.346268,-0.008078,-0.067039,0.087579,0.048692,-0.014099,0.017077,0.459046,0.486391,-0.496111,-0.553691,88.010603,4.769400,-96.071326
51086,NaN,-0.801218,9.835685,0.341834,-0.004331,-0.018733,0.061477,0.044638,-0.014947,0.014844,0.458933,0.486396,-0.496339,-0.553577,88.037163,4.757719,-96.082790
51087,NaN,-0.800575,9.817734,0.308471,0.024218,-0.018534,0.042415,0.040284,-0.012676,0.020083,0.458850,0.486383,-0.496563,-0.553456,88.061371,4.742990,-96.092861
51088,NaN,-0.820473,9.791196,0.301590,0.028412,0.005379,0.017410,0.044778,-0.016131,0.013330,0.458729,0.486388,-0.496791,-0.553347,88.087958,4.732163,-96.105044
51089,NaN,-0.797585,9.818244,0.299867,0.023746,-0.017475,0.042418,0.050650,-0.019133,0.012186,0.458583,0.486401,-0.497039,-0.553234,88.117801,4.721860,-96.118970
51090,NaN,-0.791480,9.831433,0.348148,-0.029195,-0.017248,0.056637,0.044673,-0.014912,0.014882,0.458470,0.486405,-0.497267,-0.553119,88.144391,4.710179,-96.130434
51091,NaN,-0.821167,9.839158,0.300101,0.017976,0.008970,0.065217,0.036825,-0.018775,0.014624,0.458365,0.486380,-0.497482,-0.553034,88.166325,4.698480,-96.144140
51092,NaN,-0.794460,9.800652,0.258665,0.051830,-0.016249,0.023364,0.038177,-0.018566,0.012951,0.458253,0.486364,-0.497696,-0.552949,88.189022,4.687847,-96.157748
51093,NaN,-0.760881,9.811719,0.328220,-0.024605,-0.041023,0.033845,0.043521,-0.017021,0.010646,0.458126,0.486370,-0.497916,-0.552851,88.214888,4.678467,-96.170555
51094,NaN,-0.763299,9.817259,0.300115,-0.000920,-0.039858,0.038692,0.051593,-0.014812,0.012270,0.457988,0.486397,-0.498157,-0.552725,88.245451,4.668303,-96.182028
51095,NaN,-0.760997,9.835829,0.324521,-0.029945,-0.038953,0.057751,0.049405,-0.020011,0.009521,0.457836,0.486410,-0.498397,-0.552623,88.274531,4.659529,-96.196545
51096,NaN,-0.791302,9.843430,0.276000,0.017233,-0.012765,0.066330,0.041919,-0.015053,0.008128,0.457710,0.486424,-0.498601,-0.552530,88.299537,4.651744,-96.208237
51097,NaN,-0.732938,9.815761,0.307527,-0.025121,-0.063277,0.034967,0.042499,-0.020324,0.004897,0.457561,0.486433,-0.498812,-0.552457,88.324638,4.645615,-96.223036
51098,NaN,-0.765770,9.846934,0.264921,0.017189,-0.036085,0.067449,0.043565,-0.016976,0.010694,0.457433,0.486439,-0.499031,-0.552359,88.350502,4.636339,-96.235797
51099,NaN,-0.770771,9.875996,0.243169,0.036005,-0.033893,0.096201,0.036399,-0.014898,0.009114,0.457324,0.486437,-0.499223,-0.552278,88.372352,4.627875,-96.247434
51100,NaN,-0.786523,9.802107,0.225678,0.049964,-0.012026,0.023380,0.038606,-0.009679,0.011875,0.457230,0.486449,-0.499414,-0.552172,88.395719,4.618051,-96.255990
51101,NaN,-0.783986,9.820708,0.251087,0.020937,-0.011113,0.042434,0.039917,-0.008736,0.014611,0.457142,0.486460,-0.499614,-0.552054,88.419910,4.606602,-96.263920
51102,NaN,-0.788513,9.849783,0.229406,0.039750,-0.008944,0.071186,0.036825,-0.005791,0.015275,0.457071,0.486469,-0.499801,-0.551935,88.442442,4.594898,-96.270195
51103,NaN,-0.810884,9.846861,0.228811,0.039100,0.015980,0.070064,0.037239,-0.009122,0.017988,0.456999,0.486464,-0.500003,-0.551817,88.465081,4.581482,-96.278369
51104,NaN,-0.800361,9.855149,0.301332,-0.037764,0.015629,0.079413,0.041083,-0.005834,0.023301,0.456940,0.486463,-0.500220,-0.551670,88.490062,4.565185,-96.284556
51105,NaN,-0.851018,9.835933,0.251134,0.013887,0.065176,0.062961,0.030563,-0.010844,0.021997,0.456890,0.486428,-0.500417,-0.551563,88.508813,4.549471,-96.293644
51106,NaN,-0.840212,9.783730,0.260447,-0.000512,0.063024,0.010305,0.035060,-0.013299,0.026963,0.456837,0.486384,-0.500644,-0.551440,88.530011,4.530972,-96.304078
51107,NaN,-0.837386,9.784066,0.256902,-0.000744,0.063561,0.010302,0.040982,-0.028446,0.029715,0.456739,0.486304,-0.500929,-0.551333,88.553951,4.510577,-96.323213
51108,NaN,-0.789969,9.795805,0.223171,0.023764,0.015936,0.017411,0.047973,-0.028830,0.029972,0.456624,0.486239,-0.501234,-0.551209,88.581858,4.490140,-96.342542
51109,NaN,-0.749657,9.878472,0.205750,0.033633,-0.028591,0.096226,0.046883,-0.031425,0.028615,0.456501,0.486167,-0.501539,-0.551096,88.609063,4.470358,-96.363420
51110,NaN,-0.694938,9.879800,0.219206,0.010290,-0.077463,0.093640,0.040002,-0.031473,0.031270,0.456402,0.486073,-0.501831,-0.550995,88.632298,4.449159,-96.384268
51111,NaN,-0.735154,9.826620,0.210536,0.018994,-0.030217,0.043577,0.038715,-0.019975,0.031960,0.456337,0.486006,-0.502096,-0.550868,88.655339,4.427640,-96.398502
51112,NaN,-0.735570,9.832070,0.183623,0.042677,-0.029077,0.048434,0.032273,-0.024103,0.032916,0.456279,0.485910,-0.502354,-0.550764,88.674487,4.405613,-96.415109
51113,NaN,-0.684541,9.838468,0.174382,0.043240,-0.077315,0.050710,0.034882,-0.023250,0.026676,0.456201,0.485839,-0.502602,-0.550666,88.695207,4.387104,-96.431295
51114,NaN,-0.752395,9.848124,0.209326,0.013005,-0.003229,0.066345,0.035764,-0.018215,0.031110,0.456145,0.485772,-0.502852,-0.550544,88.716622,4.366200,-96.444558
51115,NaN,-0.777005,9.850498,0.185751,0.036286,0.022307,0.070062,0.029435,-0.023551,0.030541,0.456089,0.485677,-0.503095,-0.550451,88.734216,4.345479,-96.460876
51116,NaN,-0.723809,9.833162,0.171469,0.041727,-0.026981,0.048444,0.027920,-0.022829,0.026459,0.456028,0.485591,-0.503322,-0.550370,88.750941,4.327189,-96.476860
51117,NaN,-0.697080,9.836434,0.165737,0.041880,-0.050834,0.049588,0.029361,-0.023082,0.027671,0.455965,0.485505,-0.503557,-0.550283,88.768539,4.308136,-96.492971
51118,NaN,-0.692918,9.855259,0.192021,0.012845,-0.049890,0.068633,0.029949,-0.015933,0.027850,0.455920,0.485439,-0.503778,-0.550177,88.786735,4.289143,-96.504988
51119,NaN,-0.712984,9.871063,0.221741,-0.016590,-0.024541,0.086531,0.021764,-0.017687,0.023353,0.455878,0.485361,-0.503969,-0.550105,88.800205,4.272620,-96.518082
51120,NaN,-0.715869,9.857761,0.167138,0.035891,-0.023839,0.072352,0.020450,-0.018633,0.020628,0.455829,0.485284,-0.504152,-0.550046,88.812843,4.257739,-96.531745
51121,NaN,-0.704051,9.824090,0.206973,-0.007306,-0.025573,0.038737,0.020870,-0.021948,0.023360,0.455778,0.485192,-0.504351,-0.549987,88.825642,4.241171,-96.547314
51122,NaN,-0.729523,9.826381,0.184455,0.015988,-0.000060,0.042450,0.023768,-0.023223,0.021360,0.455711,0.485108,-0.504555,-0.549929,88.839993,4.225822,-96.563611
51123,NaN,-0.731076,9.831657,0.158689,0.039670,0.001083,0.047311,0.024096,-0.026087,0.021205,0.455636,0.485017,-0.504766,-0.549877,88.854437,4.210443,-96.581538
51124,NaN,-0.681016,9.837806,0.150399,0.040207,-0.047168,0.049614,0.021553,-0.028432,0.018641,0.455554,0.484921,-0.504970,-0.549843,88.867306,4.196601,-96.600865
51125,NaN,-0.699346,9.829930,0.175002,0.015665,-0.022858,0.043603,0.025014,-0.021806,0.021218,0.455488,0.484844,-0.505174,-0.549778,88.882480,4.181270,-96.616372
51126,NaN,-0.649969,9.878392,0.200951,-0.017492,-0.069605,0.088844,0.023906,-0.024411,0.019859,0.455414,0.484761,-0.505377,-0.549726,88.896875,4.166784,-96.633382
51127,NaN,-0.649528,9.859917,0.170079,0.011067,-0.069518,0.069813,0.016385,-0.019480,0.018412,0.455366,0.484678,-0.505546,-0.549684,88.907208,4.153097,-96.647578
51128,NaN,-0.745741,9.871939,0.186404,0.004423,0.029593,0.089089,0.019943,-0.013303,0.023875,0.455341,0.484606,-0.505723,-0.549605,88.919805,4.136439,-96.658170
51129,NaN,-0.712818,9.803991,0.165389,0.019222,0.002569,0.018555,0.014615,-0.015581,0.021789,0.455317,0.484521,-0.505886,-0.549550,88.929297,4.120872,-96.670085
51130,NaN,-0.720359,9.837973,0.121886,0.061936,0.005347,0.052181,0.022955,-0.015790,0.020354,0.455268,0.484458,-0.506068,-0.549478,88.943521,4.106209,-96.682149
51131,NaN,-0.734712,9.825130,0.170145,0.013484,0.029060,0.041292,0.022361,-0.022154,0.024623,0.455216,0.484366,-0.506274,-0.549413,88.957207,4.088962,-96.697824
51132,NaN,-0.734496,9.849049,0.173648,0.008364,0.030641,0.065186,0.020022,-0.026157,0.023428,0.455157,0.484260,-0.506479,-0.549366,88.969335,4.072435,-96.715816
51133,NaN,-0.727764,9.801837,0.161249,0.017905,0.029045,0.017393,0.016664,-0.033213,0.023765,0.455088,0.484126,-0.506693,-0.549344,88.979288,4.055564,-96.737839
51134,NaN,-0.655544,9.834516,0.155653,0.013897,-0.042523,0.044780,0.017689,-0.030153,0.022241,0.455021,0.484007,-0.506898,-0.549316,88.989927,4.039684,-96.758144
51135,NaN,-0.675589,9.850468,0.186017,-0.015523,-0.017137,0.062646,0.023244,-0.029521,0.025705,0.454952,0.483893,-0.507125,-0.549264,89.003832,4.021766,-96.778024
51136,NaN,-0.653349,9.901008,0.191996,-0.025170,-0.038861,0.111604,0.013583,-0.030253,0.024425,0.454900,0.483759,-0.507324,-0.549241,89.012128,4.004642,-96.798370
51137,NaN,-0.650605,9.858771,0.156491,0.008287,-0.039872,0.068683,0.012742,-0.023632,0.018949,0.454852,0.483655,-0.507493,-0.549216,89.020234,3.990640,-96.814935
51138,NaN,-0.576466,9.867620,0.146178,0.009146,-0.112503,0.072193,0.003977,-0.019331,0.022075,0.454845,0.483535,-0.507635,-0.549197,89.023470,3.974974,-96.829036
51139,NaN,-0.624183,9.843256,0.123150,0.036976,-0.063687,0.050833,0.007673,-0.015910,0.017166,0.454824,0.483444,-0.507768,-0.549170,89.029020,3.962087,-96.841211
51140,NaN,-0.654585,9.892930,0.112969,0.050507,-0.036046,0.102324,0.005912,-0.012785,0.016115,0.454812,0.483362,-0.507887,-0.549144,89.033626,3.949901,-96.851612
51141,NaN,-0.672735,9.842716,0.105395,0.059688,-0.013287,0.053365,-0.003865,-0.012306,0.016356,0.454826,0.483257,-0.507978,-0.549140,89.032693,3.937517,-96.861689
51142,NaN,-0.615586,9.838545,0.146194,0.012340,-0.062713,0.045974,0.004153,-0.009659,0.015063,0.454824,0.483182,-0.508081,-0.549112,89.036419,3.925964,-96.870306
51143,NaN,-0.640238,9.859481,0.154458,0.006839,-0.036721,0.068696,0.004154,-0.009658,0.015065,0.454821,0.483106,-0.508185,-0.549084,89.040220,3.914362,-96.878898
51144,NaN,-0.686785,9.853831,0.160631,0.005889,0.012565,0.066344,0.002926,-0.011053,0.015231,0.454818,0.483024,-0.508289,-0.549063,89.043192,3.902701,-96.888316
51145,NaN,-0.685338,9.853928,0.160832,0.005642,0.013097,0.066343,-0.005514,-0.010390,0.013784,0.454834,0.482927,-0.508366,-0.549064,89.041438,3.891811,-96.897389
51146,NaN,-0.654253,9.828133,0.176135,-0.013259,-0.012435,0.038756,0.000582,-0.015830,0.009618,0.454809,0.482841,-0.508460,-0.549073,89.042880,3.883319,-96.909603
51147,NaN,-0.631242,9.854795,0.178133,-0.018041,-0.035199,0.063831,0.004375,-0.012081,0.012020,0.454792,0.482767,-0.508563,-0.549057,89.046670,3.873418,-96.919573
51148,NaN,-0.609828,9.862761,0.151096,0.005989,-0.058481,0.069889,0.001063,-0.007487,0.011284,0.454792,0.482700,-0.508644,-0.549041,89.048717,3.864053,-96.926982
51149,NaN,-0.656712,9.857106,0.157793,0.005036,-0.009190,0.067525,-0.004493,-0.007337,0.012251,0.454809,0.482618,-0.508712,-0.549036,89.047680,3.854119,-96.934233
51150,NaN,-0.579295,9.818314,0.137719,0.015639,-0.084002,0.023294,-0.003477,-0.004289,0.010714,0.454826,0.482551,-0.508772,-0.549025,89.047251,3.845111,-96.939809
51151,NaN,-0.626630,9.855083,0.178469,-0.019015,-0.033100,0.063836,0.005875,-0.000692,0.012146,0.454834,0.482512,-0.508854,-0.548977,89.052393,3.835261,-96.943293
51152,NaN,-0.635141,9.888928,0.136588,0.023680,-0.030332,0.097483,-0.004116,0.001444,0.011019,0.454869,0.482458,-0.508899,-0.548953,89.051819,3.826133,-96.945576
51153,NaN,-0.602160,9.839367,0.146839,0.009656,-0.056949,0.046012,-0.010099,0.004900,0.009241,0.454922,0.482405,-0.508917,-0.548940,89.048033,3.817997,-96.945902
51154,NaN,-0.645512,9.828684,0.177603,-0.015182,-0.008239,0.038757,-0.004648,0.005963,0.009799,0.454966,0.482365,-0.508949,-0.548909,89.047326,3.809611,-96.945602
51155,NaN,-0.624250,9.836623,0.151064,0.008826,-0.031521,0.044827,-0.002295,0.009967,0.010993,0.455017,0.482340,-0.508980,-0.548859,89.048201,3.800537,-96.942951
51156,NaN,-0.597646,9.858206,0.177178,-0.019886,-0.054856,0.065035,-0.006302,0.007874,0.007221,0.455063,0.482308,-0.508997,-0.548834,89.046618,3.793646,-96.941578
51157,NaN,-0.648836,9.857580,0.160707,0.003108,-0.004983,0.067528,-0.008063,0.010998,0.006167,0.455118,0.482284,-0.508999,-0.548807,89.044191,3.787300,-96.938428
51158,NaN,-0.598245,9.839564,0.149577,0.008446,-0.054332,0.046028,-0.008168,0.011437,0.003270,0.455167,0.482268,-0.508992,-0.548787,89.041671,3.782707,-96.935046
51159,NaN,-0.666629,9.868422,0.217355,-0.050440,0.020419,0.080463,0.004281,0.012087,0.004069,0.455189,0.482281,-0.509021,-0.548731,89.046374,3.777604,-96.931259
51160,NaN,-0.646175,9.876311,0.190643,-0.026427,-0.002872,0.086540,-0.007636,0.006144,0.000066,0.455214,0.482260,-0.509020,-0.548730,89.043957,3.774795,-96.930947
51161,NaN,-0.663805,9.802307,0.178520,-0.012291,0.018717,0.013667,-0.010308,0.005783,0.003448,0.455254,0.482223,-0.509020,-0.548728,89.040033,3.769996,-96.930715
51162,NaN,-0.619484,9.813018,0.149321,0.012051,-0.028965,0.020949,-0.007422,0.003718,-0.002985,0.455264,0.482204,-0.509018,-0.548739,89.037644,3.768912,-96.931826
51163,NaN,-0.627692,9.865473,0.136897,0.025915,-0.025649,0.073614,-0.000424,0.003306,-0.002744,0.455257,0.482199,-0.509037,-0.548731,89.039292,3.767623,-96.933112
51164,NaN,-0.596499,9.858202,0.181227,-0.021823,-0.050638,0.065053,-0.007633,0.005371,-0.004356,0.455268,0.482187,-0.509027,-0.548742,89.036844,3.767340,-96.933287
51165,NaN,-0.600860,9.863193,0.158640,0.001845,-0.049545,0.069939,-0.013505,0.007618,-0.007658,0.455290,0.482177,-0.508988,-0.548769,89.031164,3.768922,-96.932132
51166,NaN,-0.606795,9.849524,0.107080,0.054340,-0.049020,0.055820,-0.008694,0.015186,-0.002366,0.455334,0.482185,-0.508958,-0.548754,89.028480,3.767594,-96.926651
51167,NaN,-0.597832,9.815657,0.149956,0.011177,-0.050726,0.022165,-0.015474,0.012399,-0.010081,0.455366,0.482189,-0.508897,-0.548779,89.021828,3.770580,-96.922794
51168,NaN,-0.606697,9.868067,0.138172,0.025040,-0.047412,0.074832,-0.006441,0.018859,-0.008486,0.455397,0.482227,-0.508850,-0.548764,89.020570,3.772795,-96.915265
51169,NaN,-0.583838,9.870832,0.136186,0.025119,-0.071262,0.076045,-0.020639,0.020566,-0.014759,0.455450,0.482254,-0.508745,-0.548794,89.011261,3.778554,-96.906732
51170,NaN,-0.633230,9.865016,0.144156,0.024240,-0.021979,0.073628,-0.013854,0.022584,-0.011462,0.455500,0.482294,-0.508662,-0.548795,89.005896,3.782512,-96.897094
51171,NaN,-0.628689,9.836140,0.163617,0.004985,-0.023131,0.044853,-0.015184,0.021633,-0.014192,0.455544,0.482335,-0.508571,-0.548807,88.999808,3.787991,-96.887971
51172,NaN,-0.656111,9.856879,0.173646,-0.000477,0.002895,0.067530,-0.016308,0.019799,-0.011129,0.455593,0.482360,-0.508488,-0.548820,88.992933,3.791732,-96.879930
51173,NaN,-0.631110,9.835937,0.166443,0.004505,-0.022082,0.044856,-0.014757,0.018329,-0.011445,0.455635,0.482386,-0.508412,-0.548833,88.986934,3.795581,-96.872672
51174,NaN,-0.676578,9.825032,0.197514,-0.020272,0.026649,0.037536,-0.010538,0.017995,-0.010719,0.455668,0.482418,-0.508350,-0.548835,88.983298,3.799071,-96.865662
51175,NaN,-0.635717,9.859448,0.174045,-0.000889,-0.019905,0.068747,-0.012244,0.007486,-0.016657,0.455662,0.482433,-0.508294,-0.548879,88.978345,3.805816,-96.864682
51176,NaN,-0.658950,9.832753,0.173153,0.003474,0.003865,0.043641,-0.017001,0.013887,-0.009745,0.455702,0.482437,-0.508226,-0.548905,88.970850,3.808707,-96.860022
51177,NaN,-0.660086,9.832649,0.174724,0.003232,0.004395,0.043640,-0.016464,0.008595,-0.012955,0.455719,0.482436,-0.508164,-0.548949,88.963507,3.813324,-96.858377
51178,NaN,-0.661202,9.832558,0.175603,0.002996,0.004915,0.043640,-0.002695,0.010197,-0.009416,0.455716,0.482462,-0.508145,-0.548947,88.964069,3.815990,-96.855833
51179,NaN,-0.691910,9.858393,0.161085,0.021463,0.031519,0.071196,-0.008039,0.008693,-0.007083,0.455730,0.482465,-0.508120,-0.548956,88.961485,3.817174,-96.854080
51180,NaN,-0.637104,9.853940,0.202812,-0.025987,-0.017814,0.063860,-0.010815,0.008770,-0.006599,0.455751,0.482461,-0.508088,-0.548971,88.957343,3.818211,-96.852326
51181,NaN,-0.687175,9.829500,0.180827,0.001988,0.030891,0.042414,-0.005379,0.010599,-0.001614,0.455777,0.482461,-0.508080,-0.548957,88.956437,3.816326,-96.849479
51182,NaN,-0.641555,9.858954,0.180484,-0.002555,-0.016211,0.068753,-0.006389,0.006779,-0.004506,0.455788,0.482456,-0.508070,-0.548961,88.954755,3.816143,-96.848846
51183,NaN,-0.645638,9.864007,0.157490,0.021126,-0.015130,0.073648,-0.006816,0.010860,-0.002819,0.455816,0.482457,-0.508054,-0.548952,88.952968,3.814924,-96.845790
51184,NaN,-0.610203,9.809287,0.191283,-0.016807,-0.042360,0.017316,-0.008045,0.009464,-0.002657,0.455843,0.482452,-0.508038,-0.548950,88.950441,3.813710,-96.843596
51185,NaN,-0.640093,9.835174,0.176889,0.001652,-0.015759,0.044869,-0.005387,0.011368,0.002811,0.455884,0.482443,-0.508038,-0.548923,88.949542,3.809293,-96.840235
51186,NaN,-0.619640,9.843161,0.150617,0.025624,-0.039083,0.050997,-0.005486,0.011814,-0.000083,0.455917,0.482443,-0.508030,-0.548903,88.948573,3.806629,-96.836665
51187,NaN,-0.666186,9.855970,0.186408,-0.004036,0.010826,0.067523,-0.005485,0.011814,-0.000083,0.455951,0.482443,-0.508022,-0.548882,88.947636,3.803876,-96.833079
51188,NaN,-0.640028,9.835152,0.178342,0.000938,-0.014185,0.044871,-0.006714,0.010418,0.000079,0.455985,0.482435,-0.508014,-0.548868,88.945910,3.801105,-96.830308
51189,NaN,-0.667652,9.837356,0.158283,0.024316,0.011262,0.048533,-0.002926,0.014164,0.002493,0.456026,0.482441,-0.508014,-0.548829,88.946540,3.796927,-96.825308
51190,NaN,-0.639691,9.835161,0.179058,0.000459,-0.013134,0.044873,-0.005068,0.008501,0.002653,0.456058,0.482426,-0.508021,-0.548809,88.945686,3.792661,-96.823611
51191,NaN,-0.619076,9.843162,0.152854,0.024420,-0.036447,0.051010,-0.006614,0.009975,0.002975,0.456098,0.482410,-0.508021,-0.548789,88.944035,3.788139,-96.821045
51192,NaN,-0.615001,9.838079,0.176835,0.000270,-0.036460,0.046114,-0.002826,0.013720,0.005390,0.456145,0.482408,-0.508029,-0.548744,88.944664,3.782361,-96.816322
51193,NaN,-0.661148,9.850910,0.212583,-0.029379,0.013467,0.062620,-0.007526,0.005709,0.002974,0.456177,0.482378,-0.508038,-0.548737,88.942346,3.777783,-96.816267
51194,NaN,-0.612164,9.814401,0.172606,0.004706,-0.036563,0.022233,-0.009388,0.010053,0.003458,0.456225,0.482355,-0.508031,-0.548722,88.939075,3.773073,-96.813670
51195,NaN,-0.641727,9.840322,0.158317,0.023170,-0.009962,0.049776,-0.006295,0.007106,0.002815,0.456257,0.482333,-0.508039,-0.548708,88.937511,3.768633,-96.812730
51196,NaN,-0.641411,9.840336,0.158756,0.022933,-0.009444,0.049777,-0.003628,0.008242,0.003863,0.456288,0.482317,-0.508053,-0.548683,88.937472,3.763671,-96.811168
51197,NaN,-0.591474,9.864716,0.182026,-0.005581,-0.057032,0.071254,-0.006611,0.009978,0.002978,0.456329,0.482302,-0.508054,-0.548662,88.935827,3.759151,-96.808608
51198,NaN,-0.614699,9.819544,0.151213,0.027655,-0.033938,0.027143,-0.006817,0.011637,0.001613,0.456370,0.482294,-0.508046,-0.548642,88.934087,3.755515,-96.805120
51199,NaN,-0.637119,9.835235,0.184120,-0.001700,-0.008384,0.044878,-0.009799,0.013373,0.000729,0.456421,0.482286,-0.508025,-0.548626,88.930745,3.752339,-96.800591
51200,NaN,-0.631238,9.806407,0.203318,-0.020925,-0.009556,0.016091,-0.013803,0.012054,0.001370,0.456479,0.482264,-0.507997,-0.548623,88.925017,3.748847,-96.796866
51201,NaN,-0.666579,9.861152,0.170915,0.016533,0.018744,0.072414,-0.002506,0.010853,0.005236,0.456518,0.482255,-0.508012,-0.548585,88.925761,3.743036,-96.793792
51202,NaN,-0.686455,9.853175,0.197905,-0.007887,0.043125,0.066256,-0.004650,0.005189,0.005391,0.456548,0.482224,-0.508035,-0.548566,88.925022,3.737167,-96.793965
51203,NaN,-0.633483,9.811586,0.181304,0.002262,-0.007453,0.020996,-0.006904,0.000737,0.007074,0.456577,0.482173,-0.508065,-0.548559,88.922885,3.730240,-96.796616
51204,NaN,-0.638588,9.840436,0.163858,0.021011,-0.005242,0.049784,-0.006588,-0.002134,0.006910,0.456597,0.482114,-0.508103,-0.548559,88.920764,3.723422,-96.800976
51205,NaN,-0.589923,9.846231,0.158116,0.021307,-0.053468,0.052299,-0.002473,-0.002027,0.004742,0.456601,0.482070,-0.508146,-0.548553,88.921040,3.717759,-96.805292
51206,NaN,-0.585758,9.841129,0.182168,-0.002844,-0.053464,0.047396,-0.006794,-0.000475,0.005546,0.456623,0.482019,-0.508176,-0.548553,88.918863,3.711740,-96.808714
51207,NaN,-0.633299,9.835389,0.188988,-0.003621,-0.004171,0.044880,-0.006193,0.006665,0.005715,0.456661,0.481989,-0.508192,-0.548533,88.917332,3.705627,-96.807991
51208,NaN,-0.616104,9.848539,0.139615,0.044227,-0.027004,0.055956,-0.012756,0.003000,0.003778,0.456701,0.481938,-0.508193,-0.548543,88.911868,3.700658,-96.809437
51209,NaN,-0.582349,9.817469,0.178901,0.001354,-0.053058,0.023522,-0.001654,0.002687,0.001853,0.456708,0.481917,-0.508221,-0.548530,88.912789,3.696702,-96.811071
51210,NaN,-0.604426,9.833172,0.211494,-0.027985,-0.027485,0.041235,-0.007531,0.006481,0.007405,0.456753,0.481878,-0.508238,-0.548511,88.910449,3.689693,-96.810479
51211,NaN,-0.632988,9.816893,0.162698,0.024255,-0.002741,0.025907,-0.008967,0.006744,0.006199,0.456800,0.481841,-0.508247,-0.548497,88.907357,3.683329,-96.809695
51212,NaN,-0.606881,9.838354,0.189182,-0.004562,-0.025924,0.046146,-0.002186,0.007984,0.005078,0.456830,0.481824,-0.508269,-0.548466,88.908133,3.677669,-96.808265
51213,NaN,-0.632551,9.859198,0.198057,-0.009999,0.000175,0.068762,-0.004646,0.005191,0.005395,0.456860,0.481794,-0.508291,-0.548446,88.907470,3.671751,-96.808397
51214,NaN,-0.629835,9.835534,0.192988,-0.005307,-0.000494,0.044880,-0.004441,0.003532,0.006760,0.456889,0.481757,-0.508321,-0.548427,88.906792,3.665079,-96.809504
51215,NaN,-0.659205,9.861514,0.178456,0.013171,0.026116,0.072402,-0.005345,-0.001501,0.002328,0.456895,0.481714,-0.508350,-0.548433,88.905470,3.660828,-96.813530
51216,NaN,-0.581227,9.841293,0.187744,-0.005285,-0.048201,0.047422,-0.003583,-0.005401,-0.001056,0.456878,0.481674,-0.508384,-0.548451,88.904951,3.658536,-96.819850
51217,NaN,-0.608574,9.843576,0.167636,0.018130,-0.022787,0.051065,-0.003921,-0.000998,0.007961,0.456898,0.481622,-0.508429,-0.548439,88.904429,3.651068,-96.823433
51218,NaN,-0.602896,9.857007,0.220766,-0.034860,-0.022074,0.065121,-0.005344,-0.001500,0.002328,0.456904,0.481580,-0.508457,-0.548444,88.903047,3.646880,-96.827477
51219,NaN,-0.561266,9.830797,0.133314,0.046972,-0.071200,0.034651,-0.004428,0.002767,0.002336,0.456919,0.481551,-0.508478,-0.548437,88.902464,3.642723,-96.829051
51220,NaN,-0.585814,9.870165,0.171477,0.012708,-0.044403,0.076226,-0.006068,0.004690,-0.000236,0.456935,0.481531,-0.508484,-0.548436,88.900891,3.640071,-96.829570
51221,NaN,-0.580218,9.841306,0.190147,-0.006512,-0.045568,0.047434,-0.006479,0.008009,-0.002965,0.456954,0.481525,-0.508476,-0.548433,88.899233,3.638936,-96.828174
51222,NaN,-0.580635,9.841266,0.190943,-0.006752,-0.045047,0.047436,-0.010580,0.007140,-0.005221,0.456974,0.481514,-0.508452,-0.548449,88.895162,3.639167,-96.827342
51223,NaN,-0.608882,9.843495,0.171240,0.016669,-0.019641,0.051074,-0.006574,0.008458,-0.005859,0.456987,0.481517,-0.508434,-0.548452,88.893469,3.639732,-96.825647
51224,NaN,-0.585245,9.846330,0.168958,0.016671,-0.043501,0.052357,-0.010796,0.009566,-0.002158,0.457022,0.481504,-0.508411,-0.548455,88.889364,3.638235,-96.823388
51225,NaN,-0.633736,9.840540,0.175989,0.015944,0.005789,0.049794,-0.008117,0.009935,-0.005534,0.457043,0.481507,-0.508387,-0.548458,88.886850,3.638610,-96.820902
51226,NaN,-0.608304,9.819664,0.168344,0.020882,-0.019280,0.027199,-0.012107,0.007855,-0.009320,0.457057,0.481504,-0.508347,-0.548485,88.881926,3.641198,-96.819705
51227,NaN,-0.635193,9.840416,0.177661,0.015451,0.006836,0.049794,-0.003906,0.009593,-0.004807,0.457068,0.481514,-0.508338,-0.548476,88.881882,3.641190,-96.817465
51228,NaN,-0.605962,9.814400,0.193321,-0.003521,-0.018727,0.022283,-0.010466,0.005932,-0.006748,0.457080,0.481503,-0.508313,-0.548498,88.877830,3.642283,-96.817343
51229,NaN,-0.632760,9.835148,0.202825,-0.008935,0.007398,0.044875,-0.009031,0.005668,-0.005541,0.457093,0.481492,-0.508296,-0.548513,88.874620,3.642612,-96.817279
51230,NaN,-0.587447,9.864547,0.202982,-0.013644,-0.039623,0.071332,-0.007377,0.002981,-0.007396,0.457088,0.481482,-0.508285,-0.548536,88.872230,3.644043,-96.818858
51231,NaN,-0.632461,9.853567,0.233215,-0.038269,0.009174,0.063832,-0.003701,0.007934,-0.003441,0.457099,0.481485,-0.508283,-0.548527,88.872206,3.643246,-96.817449
51232,NaN,-0.613951,9.843056,0.178250,0.014479,-0.014927,0.051086,-0.013034,0.004352,-0.004901,0.457119,0.481459,-0.508259,-0.548555,88.866627,3.643263,-96.818213
51233,NaN,-0.614517,9.843005,0.179090,0.014230,-0.014397,0.051087,-0.004398,0.001243,-0.006513,0.457105,0.481449,-0.508263,-0.548571,88.865953,3.644121,-96.820739
51234,NaN,-0.617373,9.866637,0.185041,0.009051,-0.012655,0.074966,-0.004601,0.002904,-0.007876,0.457093,0.481446,-0.508259,-0.548588,88.865150,3.645825,-96.822368
51235,NaN,-0.591873,9.845793,0.176966,0.013967,-0.037726,0.052385,-0.006255,0.005591,-0.006019,0.457096,0.481443,-0.508248,-0.548598,88.863572,3.646447,-96.822403
51236,NaN,-0.618624,9.866533,0.186406,0.008562,-0.011602,0.074967,-0.011802,0.005750,-0.005056,0.457116,0.481424,-0.508225,-0.548619,88.858749,3.646568,-96.822366
51237,NaN,-0.638847,9.816224,0.179336,0.017978,0.010855,0.025915,-0.007594,0.005407,-0.004331,0.457128,0.481413,-0.508215,-0.548629,88.856366,3.646212,-96.822440
51238,NaN,-0.596768,9.850850,0.155680,0.037150,-0.035675,0.057316,-0.003919,0.010359,-0.000374,0.457153,0.481413,-0.508214,-0.548609,88.856232,3.643704,-96.819704
51239,NaN,-0.643871,9.863524,0.191353,0.007604,0.014363,0.073668,-0.006033,0.003171,-0.009080,0.457141,0.481411,-0.508203,-0.548631,88.854716,3.646050,-96.821220
51240,NaN,-0.619566,9.824195,0.154434,0.041379,-0.011479,0.032142,-0.010382,0.006248,0.000577,0.457174,0.481383,-0.508195,-0.548635,88.850729,3.642951,-96.820833
51241,NaN,-0.620278,9.866368,0.189653,0.007340,-0.008955,0.074971,-0.002061,0.006011,-0.000867,0.457183,0.481376,-0.508208,-0.548621,88.851548,3.640584,-96.820617
51242,NaN,-0.587003,9.835213,0.228413,-0.035553,-0.034997,0.042548,-0.002579,0.010546,-0.002060,0.457201,0.481384,-0.508206,-0.548601,88.852188,3.639044,-96.817793
51243,NaN,-0.566860,9.843271,0.202036,-0.011669,-0.058358,0.048783,-0.003698,0.007938,-0.003435,0.457212,0.481386,-0.508204,-0.548592,88.852093,3.638148,-96.816464
51244,NaN,-0.615311,9.837440,0.208448,-0.012336,-0.009081,0.046170,-0.003698,0.007938,-0.003435,0.457222,0.481387,-0.508201,-0.548585,88.851995,3.637365,-96.815153
51245,NaN,-0.595266,9.845498,0.181928,0.011536,-0.032456,0.052407,0.000620,0.006383,-0.004241,0.457216,0.481397,-0.508212,-0.548571,88.854370,3.636978,-96.814682
51246,NaN,-0.589986,9.816607,0.199948,-0.007664,-0.033647,0.023605,-0.000813,0.006648,-0.005447,0.457211,0.481407,-0.508216,-0.548563,88.855877,3.637333,-96.814135
51247,NaN,-0.623910,9.847717,0.161262,0.034746,-0.006558,0.056028,0.001850,0.007781,-0.004396,0.457205,0.481424,-0.508227,-0.548543,88.859006,3.637053,-96.812848
51248,NaN,-0.600232,9.850595,0.158459,0.034715,-0.030417,0.057342,-0.007387,0.003747,-0.002967,0.457215,0.481405,-0.508225,-0.548554,88.856642,3.635955,-96.813937
51249,NaN,-0.580146,9.858658,0.132147,0.058570,-0.053805,0.063590,0.000307,0.009258,-0.004070,0.457218,0.481422,-0.508229,-0.548533,88.858989,3.635550,-96.811786
51250,NaN,-0.573489,9.848262,0.179241,0.010516,-0.054220,0.053732,-0.000098,0.012583,-0.006792,0.457222,0.481453,-0.508217,-0.548513,88.861120,3.636743,-96.807848
51251,NaN,-0.596874,9.863797,0.211736,-0.018793,-0.028526,0.071362,-0.008197,0.010398,-0.008413,0.457236,0.481465,-0.508185,-0.548521,88.858594,3.638776,-96.805164
51252,NaN,-0.619549,9.837145,0.209847,-0.014285,-0.004876,0.046170,-0.005847,0.014405,-0.007190,0.457258,0.481489,-0.508153,-0.548512,88.857497,3.640218,-96.800184
51253,NaN,-0.616706,9.831903,0.233846,-0.038441,-0.004809,0.041237,-0.004302,0.012929,-0.007514,0.457271,0.481514,-0.508127,-0.548502,88.857309,3.641791,-96.795997
51254,NaN,-0.597106,9.839945,0.207509,-0.014575,-0.028202,0.047491,-0.002647,0.010243,-0.009371,0.457268,0.481539,-0.508108,-0.548499,88.857893,3.644436,-96.793430
51255,NaN,-0.644898,9.852529,0.242798,-0.044072,0.021883,0.063787,-0.000880,0.006346,-0.012759,0.457243,0.481567,-0.508095,-0.548509,88.859394,3.648897,-96.793129
51256,NaN,-0.628346,9.823575,0.158313,0.037507,-0.003104,0.032164,-0.006938,-0.001096,-0.009094,0.457222,0.481551,-0.508090,-0.548544,88.857105,3.651253,-96.797068
51257,NaN,-0.624181,9.836824,0.211170,-0.015507,-0.002240,0.046169,0.003934,0.001014,-0.007951,0.457184,0.481563,-0.508114,-0.548543,88.861203,3.652956,-96.799698
51258,NaN,-0.603222,9.863373,0.213485,-0.020505,-0.024836,0.071368,0.000468,-0.005601,-0.010550,0.457131,0.481556,-0.508136,-0.548573,88.862991,3.656095,-96.806240
51259,NaN,-0.581631,9.847741,0.181605,0.008312,-0.049475,0.053759,-0.005281,-0.003782,-0.010950,0.457096,0.481541,-0.508138,-0.548614,88.861534,3.659366,-96.811682
51260,NaN,-0.605214,9.863237,0.214169,-0.020978,-0.023770,0.071370,-0.003045,0.001436,-0.008195,0.457075,0.481538,-0.508141,-0.548631,88.861568,3.661237,-96.814158
51261,NaN,-0.607448,9.844693,0.185206,0.007631,-0.024043,0.052435,-0.000586,0.004232,-0.008504,0.457054,0.481550,-0.508144,-0.548636,88.863185,3.663240,-96.815067
51262,NaN,-0.639514,9.852077,0.141219,0.055016,0.001761,0.060980,-0.003045,0.001436,-0.008195,0.457033,0.481547,-0.508146,-0.548653,88.863220,3.665111,-96.817542
51263,NaN,-0.656838,9.838734,0.191564,0.006765,0.025765,0.049772,-0.000517,0.004537,-0.001189,0.457033,0.481541,-0.508167,-0.548639,88.864928,3.662940,-96.818232
51264,NaN,-0.638893,9.870516,0.170312,0.025663,0.003628,0.079916,0.004025,0.000564,-0.005057,0.457002,0.481545,-0.508198,-0.548633,88.868984,3.663004,-96.821172
51265,NaN,-0.687018,9.864642,0.176209,0.025051,0.052915,0.077246,-0.000937,-0.003515,0.004406,0.456998,0.481502,-0.508249,-0.548628,88.870109,3.657538,-96.826310
51266,NaN,-0.634086,9.823192,0.159208,0.035093,0.002138,0.032173,-0.001251,-0.000641,0.004577,0.457003,0.481465,-0.508292,-0.548616,88.871105,3.652069,-96.829833
51267,NaN,-0.605994,9.820975,0.179487,0.011127,-0.022149,0.028572,0.007272,-0.002536,0.004497,0.456982,0.481443,-0.508363,-0.548587,88.876951,3.646515,-96.834482
51268,NaN,-0.613505,9.873551,0.166417,0.024878,-0.018634,0.081257,0.004499,-0.002459,0.004978,0.456969,0.481413,-0.508427,-0.548564,88.881176,3.640797,-96.839045
51269,NaN,-0.603574,9.839542,0.207899,-0.018224,-0.020267,0.047504,-0.001363,0.000570,0.006109,0.456981,0.481376,-0.508471,-0.548545,88.882228,3.634399,-96.841863
51270,NaN,-0.607858,9.826280,0.155124,0.034305,-0.020136,0.033518,0.002416,0.004312,0.008538,0.457001,0.481352,-0.508522,-0.548503,88.885510,3.626717,-96.842499
51271,NaN,-0.603685,9.821139,0.178297,0.010157,-0.020051,0.028577,0.005841,-0.002271,0.003292,0.456981,0.481331,-0.508585,-0.548480,88.890549,3.621916,-96.846869
51272,NaN,-0.611001,9.873723,0.165426,0.023903,-0.016528,0.081263,0.001704,-0.001622,0.009882,0.456991,0.481285,-0.508651,-0.548451,88.893209,3.613399,-96.850898
51273,NaN,-0.620474,9.789453,0.198855,-0.009432,0.003662,-0.001580,0.001614,-0.001170,0.006990,0.456994,0.481247,-0.508710,-0.548427,88.895835,3.606411,-96.854720
51274,NaN,-0.631370,9.847222,0.162463,0.028218,0.007629,0.056048,0.004702,-0.004121,0.006340,0.456981,0.481210,-0.508781,-0.548404,88.900121,3.599896,-96.860223
51275,NaN,-0.602910,9.845024,0.182385,0.004240,-0.016657,0.052452,0.008685,-0.002042,0.010129,0.456974,0.481178,-0.508868,-0.548357,88.906802,3.591181,-96.864381
51276,NaN,-0.626738,9.884353,0.219554,-0.029994,0.010377,0.093898,0.002020,-0.004494,0.009713,0.456975,0.481126,-0.508941,-0.548335,88.909542,3.582730,-96.870063
51277,NaN,-0.578340,9.829573,0.149555,0.032797,-0.040824,0.034881,0.002334,-0.007368,0.009543,0.456968,0.481066,-0.509022,-0.548318,88.912357,3.574223,-96.877383
51278,NaN,-0.579798,9.853300,0.154772,0.027594,-0.039015,0.058754,0.004814,-0.005331,0.004810,0.456946,0.481030,-0.509093,-0.548302,88.916666,3.568572,-96.883599
51279,NaN,-0.573451,9.824480,0.172464,0.008409,-0.040206,0.029940,0.002846,0.000230,0.006837,0.456950,0.480999,-0.509151,-0.548272,88.920085,3.561730,-96.886591
51280,NaN,-0.593343,9.816424,0.199001,-0.015895,-0.015744,0.023640,-0.001250,-0.000638,0.004579,0.456955,0.480963,-0.509194,-0.548260,88.921087,3.556262,-96.890117
51281,NaN,-0.596399,9.821639,0.175260,0.007766,-0.014774,0.028589,0.004704,-0.004120,0.006342,0.456941,0.480926,-0.509266,-0.548237,88.925415,3.549649,-96.895628
51282,NaN,-0.598047,9.845355,0.180556,0.002562,-0.012958,0.052458,0.000608,-0.004987,0.004084,0.456929,0.480883,-0.509323,-0.548232,88.927328,3.544419,-96.901656
51283,NaN,-0.572305,9.866783,0.206548,-0.026398,-0.035933,0.072737,0.001746,-0.003139,0.001036,0.456910,0.480855,-0.509371,-0.548226,88.930022,3.540895,-96.906631
51284,NaN,-0.573675,9.848284,0.177421,0.002231,-0.036281,0.053820,-0.001230,-0.001398,0.000155,0.456901,0.480828,-0.509405,-0.548226,88.931007,3.537955,-96.910640
51285,NaN,-0.595618,9.821691,0.174993,0.006797,-0.012679,0.028592,-0.000203,0.001662,-0.001361,0.456893,0.480816,-0.509431,-0.548219,88.932727,3.535876,-96.912770
51286,NaN,-0.577558,9.853445,0.153899,0.025648,-0.034805,0.058775,0.000535,-0.005296,-0.003233,0.456860,0.480791,-0.509471,-0.548232,88.934583,3.534835,-96.919053
51287,NaN,-0.574038,9.848262,0.177475,0.001499,-0.034696,0.053826,-0.000111,0.001211,0.001532,0.456859,0.480770,-0.509506,-0.548219,88.936349,3.531052,-96.921542
51288,NaN,-0.553574,9.856349,0.150929,0.025311,-0.058126,0.060145,-0.001433,0.000265,-0.001206,0.456850,0.480750,-0.509533,-0.548219,88.937276,3.528909,-96.924612
51289,NaN,-0.576716,9.871906,0.183363,-0.003970,-0.032342,0.077697,-0.004482,0.001697,-0.009405,0.456830,0.480749,-0.509528,-0.548241,88.936621,3.531467,-96.926914
51290,NaN,-0.597207,9.821580,0.175768,0.005581,-0.010063,0.028596,-0.004704,0.004120,-0.006341,0.456825,0.480745,-0.509525,-0.548251,88.935807,3.532307,-96.927827
51291,NaN,-0.553293,9.832547,0.146419,0.029526,-0.057859,0.036289,-0.001727,0.002379,-0.005460,0.456811,0.480741,-0.509536,-0.548256,88.936707,3.532547,-96.929754
51292,NaN,-0.572950,9.842915,0.202177,-0.023633,-0.032492,0.048880,0.000844,0.003964,-0.007302,0.456790,0.480753,-0.509546,-0.548255,88.939066,3.533935,-96.930766
51293,NaN,-0.606983,9.873999,0.163730,0.018810,-0.005424,0.081286,-0.004501,0.002457,-0.004980,0.456784,0.480741,-0.509551,-0.548266,88.938376,3.533870,-96.932701
51294,NaN,-0.603303,9.826590,0.153300,0.028513,-0.007534,0.033554,-0.008798,0.003253,-0.008598,0.456780,0.480731,-0.509532,-0.548294,88.935184,3.535994,-96.934136
51295,NaN,-0.602389,9.845050,0.182725,-0.000598,-0.006106,0.052465,0.001943,0.007332,-0.001500,0.456782,0.480740,-0.509551,-0.548268,88.938299,3.534042,-96.932969
