// General information: 
//  MT Manager version: 2019.0.1 
//  XDA version: 2019.0.1 build 2740 rev 84096 built on 2019-01-30
// Device information: 
//  DeviceId: 00B43876
//  ProductCode: MTW2-3A7G6
//  Firmware Version: 4.3.4
//  Hardware Version: 1.1.0
// Device settings: 
//  Filter Profile: human(46.1)
//  Option Flags: Orientation Smoother Disabled, AHS Disabled, ICC Disabled
// Coordinate system: ENU
PacketCounter,SampleTimeFine,Acc_X,Acc_Y,Acc_Z,FreeAcc_E,FreeAcc_N,FreeAcc_U,Gyr_X,Gyr_Y,Gyr_Z,Quat_q0,Quat_q1,Quat_q2,Quat_q3,Roll,Pitch,Yaw
11307,NaN,-1.137586,9.673037,-1.489539,-0.016355,-0.017791,0.040225,0.005674,0.014292,-0.008224,0.340045,0.470643,-0.595461,-0.555239,98.813720,6.757746,-109.147927
11308,NaN,-1.149817,9.652637,-1.525418,0.023819,-0.017136,0.027105,0.004381,0.010891,-0.007300,0.340039,0.470672,-0.595470,-0.555209,98.818175,6.758081,-109.145076
11309,NaN,-1.127265,9.656990,-1.519178,0.009244,-0.036193,0.027775,0.002272,0.015291,-0.006959,0.340052,0.470710,-0.595466,-0.555173,98.821753,6.757761,-109.139709
11310,NaN,-1.133711,9.679804,-1.513762,0.001657,-0.029291,0.050097,0.001937,0.014833,-0.003940,0.340072,0.470736,-0.595470,-0.555135,98.825037,6.755847,-109.134908
11311,NaN,-1.155944,9.645188,-1.503868,0.005654,-0.002442,0.017238,0.001966,0.013090,-0.002616,0.340091,0.470753,-0.595479,-0.555098,98.828246,6.753260,-109.131178
11312,NaN,-1.155999,9.645128,-1.504209,0.005631,-0.001919,0.017238,0.001966,0.013090,-0.002616,0.340110,0.470771,-0.595488,-0.555062,98.831416,6.750749,-109.127488
11313,NaN,-1.110928,9.684080,-1.508215,-0.012978,-0.047275,0.050774,0.005594,0.008834,-0.002742,0.340108,0.470783,-0.595515,-0.555024,98.836419,6.748608,-109.126176
11314,NaN,-1.121492,9.669668,-1.463360,-0.049174,-0.020553,0.031032,0.005003,0.013378,-0.002186,0.340122,0.470805,-0.595533,-0.554977,98.841343,6.745828,-109.122361
11315,NaN,-1.121569,9.633566,-1.527905,0.016641,-0.039392,0.005468,0.007704,0.013208,0.001263,0.340139,0.470822,-0.595567,-0.554916,98.847808,6.741033,-109.118910
11316,NaN,-1.070081,9.649609,-1.537874,0.005580,-0.091143,0.016695,0.003287,0.014749,-0.002217,0.340161,0.470845,-0.595579,-0.554871,98.851841,6.738149,-109.114312
11317,NaN,-1.138374,9.605973,-1.541676,0.038704,-0.025137,-0.017522,0.004945,0.016865,-0.004836,0.340178,0.470884,-0.595585,-0.554820,98.857031,6.736483,-109.108235
11318,NaN,-1.121517,9.633294,-1.529654,0.016559,-0.037811,0.005474,0.001402,0.015891,-0.000739,0.340212,0.470903,-0.595592,-0.554776,98.860045,6.732661,-109.103117
11319,NaN,-1.127514,9.656159,-1.524268,0.008972,-0.030881,0.027793,0.003118,0.014520,-0.000708,0.340238,0.470921,-0.595607,-0.554729,98.863989,6.728864,-109.098744
11320,NaN,-1.098230,9.637670,-1.523844,0.001939,-0.056335,0.006158,0.004805,0.014893,-0.002002,0.340257,0.470946,-0.595622,-0.554679,98.868898,6.725844,-109.094083
11321,NaN,-1.092175,9.614648,-1.530259,0.009466,-0.062194,-0.016155,0.005142,0.015351,-0.005021,0.340269,0.470983,-0.595631,-0.554631,98.874101,6.724414,-109.088853
11322,NaN,-1.156871,9.674269,-1.527035,0.015901,-0.003316,0.049432,0.003060,0.018008,-0.003358,0.340298,0.471018,-0.595633,-0.554581,98.878232,6.721886,-109.082297
11323,NaN,-1.127811,9.655763,-1.526554,0.008862,-0.028757,0.027800,0.003849,0.011949,-0.004097,0.340305,0.471040,-0.595647,-0.554544,98.882459,6.720233,-109.079088
11324,NaN,-1.139572,9.635411,-1.562248,0.049035,-0.028163,0.014682,0.001936,0.014835,-0.003944,0.340326,0.471066,-0.595650,-0.554506,98.885739,6.718316,-109.074289
11325,NaN,-1.162646,9.666873,-1.505515,-0.002252,0.011393,0.039552,0.001038,0.008403,-0.003389,0.340331,0.471072,-0.595663,-0.554484,98.888113,6.716575,-109.073164
11326,NaN,-1.123117,9.662684,-1.550270,0.026852,-0.040278,0.037686,0.002951,0.005518,-0.003542,0.340323,0.471073,-0.595685,-0.554464,98.891350,6.715255,-109.073710
11327,NaN,-1.111786,9.682867,-1.515351,-0.013378,-0.039800,0.050807,0.002754,0.007033,-0.003357,0.340320,0.471077,-0.595706,-0.554440,98.894612,6.713618,-109.073371
11328,NaN,-1.140514,9.671103,-1.499824,-0.016901,-0.006592,0.040238,0.004779,0.007863,-0.007669,0.340303,0.471100,-0.595720,-0.554416,98.899096,6.714426,-109.072214
11329,NaN,-1.123218,9.632323,-1.534515,0.016249,-0.031982,0.005495,0.003008,0.002032,-0.000892,0.340291,0.471083,-0.595755,-0.554399,98.902148,6.711836,-109.074942
11330,NaN,-1.130579,9.685165,-1.546237,0.019183,-0.031745,0.060007,0.006524,0.004749,-0.006312,0.340264,0.471096,-0.595782,-0.554375,98.907409,6.712152,-109.075680
11331,NaN,-1.136077,9.677897,-1.524142,0.001086,-0.018095,0.050124,0.005452,0.006864,0.000094,0.340264,0.471095,-0.595819,-0.554338,98.912171,6.708576,-109.075746
11332,NaN,-1.158168,9.643274,-1.514391,0.005127,0.008695,0.017235,0.002386,0.008319,-0.001664,0.340271,0.471097,-0.595839,-0.554310,98.915251,6.705944,-109.074865
11333,NaN,-1.101409,9.666524,-1.546710,0.012067,-0.056129,0.038394,0.003368,0.009521,0.001755,0.340288,0.471094,-0.595869,-0.554270,98.918978,6.701191,-109.073566
11334,NaN,-1.163871,9.666088,-1.509603,-0.002475,0.016175,0.039545,0.006405,0.009810,0.002189,0.340300,0.471095,-0.595908,-0.554219,98.924420,6.696246,-109.072180
11335,NaN,-1.111305,9.652111,-1.502612,-0.024120,-0.028839,0.018623,0.008121,0.008439,0.002221,0.340305,0.471096,-0.595953,-0.554167,98.930794,6.691326,-109.071537
11336,NaN,-1.048327,9.652364,-1.541189,-0.009644,-0.100097,0.017484,0.008234,0.012154,-0.001939,0.340308,0.471120,-0.595983,-0.554113,98.937481,6.688508,-109.068446
11337,NaN,-1.105880,9.658958,-1.527267,-0.006115,-0.040889,0.028516,0.009723,0.014042,-0.003047,0.340310,0.471154,-0.596012,-0.554051,98.945201,6.686070,-109.064141
11338,NaN,-1.093616,9.612953,-1.539845,0.008957,-0.053218,-0.016102,0.009921,0.012527,-0.003231,0.340307,0.471186,-0.596042,-0.553993,98.952894,6.683950,-109.060723
11339,NaN,-1.122829,9.631165,-1.542046,0.015966,-0.026692,0.005511,0.011071,0.013958,-0.001321,0.340311,0.471217,-0.596079,-0.553925,98.961361,6.680541,-109.056620
11340,NaN,-1.152174,9.649369,-1.544202,0.022982,-0.000180,0.027122,0.008545,0.014354,-0.006284,0.340308,0.471260,-0.596095,-0.553872,98.968417,6.679984,-109.051887
11341,NaN,-1.106585,9.658177,-1.531689,-0.006233,-0.038763,0.028524,0.010657,0.009954,-0.006618,0.340287,0.471296,-0.596125,-0.553824,98.976437,6.679928,-109.049591
11342,NaN,-1.112305,9.650842,-1.510004,-0.024318,-0.025120,0.018633,0.008770,0.011097,-0.005142,0.340276,0.471327,-0.596150,-0.553776,98.983395,6.679016,-109.046817
11343,NaN,-1.129471,9.623196,-1.523643,-0.002204,-0.011458,-0.004377,0.012202,0.008356,-0.005074,0.340251,0.471356,-0.596191,-0.553724,98.992180,6.678229,-109.045571
11344,NaN,-1.073126,9.646224,-1.556874,0.004684,-0.076291,0.016822,0.013324,0.011531,-0.004490,0.340233,0.471394,-0.596229,-0.553660,99.001768,6.676908,-109.042608
11345,NaN,-1.148551,9.655341,-1.572798,0.040901,-0.010648,0.037018,0.010117,0.011014,-0.003416,0.340225,0.471422,-0.596263,-0.553605,99.009514,6.674943,-109.039996
11346,NaN,-1.124760,9.629603,-1.550372,0.015768,-0.023000,0.005521,0.015991,0.013108,-0.002363,0.340211,0.471463,-0.596312,-0.553526,99.020712,6.672276,-109.036328
11347,NaN,-1.136266,9.645152,-1.523525,-0.009860,-0.002899,0.017932,0.014500,0.011221,-0.001254,0.340199,0.471492,-0.596362,-0.553454,99.030962,6.669068,-109.033794
11348,NaN,-1.095465,9.610699,-1.552551,0.008653,-0.047940,-0.016075,0.017536,0.011511,-0.000819,0.340182,0.471526,-0.596422,-0.553372,99.042923,6.665669,-109.031177
11349,NaN,-1.107729,9.656241,-1.543031,-0.006470,-0.034513,0.028540,0.018855,0.013171,-0.000419,0.340168,0.471566,-0.596483,-0.553281,99.055790,6.661813,-109.027610
11350,NaN,-1.124481,9.628459,-1.557662,0.015652,-0.020888,0.005526,0.022656,0.009144,-0.002040,0.340127,0.471606,-0.596557,-0.553191,99.070541,6.659317,-109.026231
11351,NaN,-1.107723,9.655547,-1.547373,-0.006530,-0.033452,0.028544,0.020940,0.010514,-0.002076,0.340096,0.471647,-0.596625,-0.553102,99.084439,6.656636,-109.024030
11352,NaN,-1.096438,9.639351,-1.577890,0.019033,-0.052508,0.016142,0.020359,0.006278,-0.005860,0.340042,0.471687,-0.596689,-0.553033,99.097725,6.656560,-109.023937
11353,NaN,-1.096881,9.638943,-1.580069,0.019000,-0.051972,0.016144,0.023394,0.006569,-0.005424,0.339984,0.471731,-0.596762,-0.552952,99.112806,6.656129,-109.023678
11354,NaN,-1.097426,9.638546,-1.582116,0.018970,-0.051452,0.016147,0.017068,0.010987,-0.008770,0.339944,0.471787,-0.596802,-0.552886,99.124548,6.657272,-109.020638
11355,NaN,-1.121219,9.633607,-1.590781,0.033551,-0.031372,0.015435,0.019353,0.006813,-0.010607,0.339881,0.471840,-0.596852,-0.552825,99.137387,6.659751,-109.019763
11356,NaN,-1.105178,9.660647,-1.580373,0.011364,-0.043939,0.038456,0.022046,0.006652,-0.007152,0.339821,0.471888,-0.596917,-0.552752,99.151677,6.660371,-109.019339
11357,NaN,-1.128895,9.655662,-1.589333,0.025948,-0.023860,0.037741,0.020671,0.008474,-0.010208,0.339761,0.471947,-0.596968,-0.552682,99.165376,6.662472,-109.017553
11358,NaN,-1.111980,9.652726,-1.561846,-0.006739,-0.029750,0.028555,0.020102,0.011279,-0.008337,0.339716,0.472007,-0.597017,-0.552606,99.178871,6.663340,-109.014384
11359,NaN,-1.112576,9.652311,-1.563985,-0.006770,-0.029212,0.028557,0.021420,0.012940,-0.007938,0.339674,0.472073,-0.597068,-0.552520,99.193271,6.663747,-109.010265
11360,NaN,-1.084016,9.633513,-1.565032,-0.013879,-0.054695,0.006977,0.021789,0.011652,-0.009629,0.339623,0.472141,-0.597118,-0.552440,99.207771,6.665311,-109.006765
11361,NaN,-1.136930,9.646867,-1.575258,0.007791,-0.008616,0.027839,0.021391,0.014682,-0.009268,0.339583,0.472216,-0.597163,-0.552352,99.222283,6.666308,-109.001526
11362,NaN,-1.126014,9.630531,-1.605944,0.033342,-0.027699,0.015447,0.023533,0.008543,-0.008262,0.339521,0.472274,-0.597226,-0.552272,99.237563,6.667382,-108.999922
11363,NaN,-1.126593,9.630083,-1.608222,0.033310,-0.027166,0.015448,0.021645,0.009687,-0.006791,0.339473,0.472328,-0.597286,-0.552191,99.251864,6.667435,-108.997762
11364,NaN,-1.132618,9.622589,-1.587753,0.015246,-0.013513,0.005540,0.023903,0.007253,-0.009952,0.339402,0.472388,-0.597348,-0.552115,99.267289,6.669583,-108.996734
11365,NaN,-1.076064,9.651747,-1.541208,-0.054241,-0.051969,0.020106,0.022613,0.003852,-0.009021,0.339327,0.472434,-0.597415,-0.552049,99.281785,6.671435,-108.997685
11366,NaN,-1.152005,9.660492,-1.558286,-0.017924,0.013627,0.040229,0.022441,0.003627,-0.007511,0.339256,0.472475,-0.597485,-0.551982,99.296107,6.672538,-108.998948
11367,NaN,-1.130214,9.658194,-1.634438,0.043683,-0.031728,0.047666,0.023615,0.003325,-0.004274,0.339190,0.472507,-0.597567,-0.551906,99.311089,6.671754,-109.000644
11368,NaN,-1.128745,9.597854,-1.602571,0.022667,-0.017890,-0.016757,0.026250,0.006650,-0.003479,0.339130,0.472550,-0.597652,-0.551814,99.327748,6.670297,-109.000563
11369,NaN,-1.090024,9.659434,-1.603239,-0.003676,-0.056595,0.039214,0.029112,0.006719,-0.001532,0.339069,0.472593,-0.597750,-0.551709,99.346078,6.667650,-109.000578
11370,NaN,-1.118372,9.647385,-1.590030,-0.007102,-0.023407,0.028572,0.025478,0.010972,-0.001433,0.339030,0.472641,-0.597831,-0.551605,99.362559,6.664634,-108.998228
11371,NaN,-1.163526,9.607793,-1.589307,0.011647,0.022840,-0.005102,0.030799,0.007092,-0.002824,0.338962,0.472691,-0.597929,-0.551496,99.381891,6.662681,-108.997918
11372,NaN,-1.107999,9.696862,-1.577991,-0.036873,-0.028906,0.073902,0.032572,0.002246,-0.000121,0.338883,0.472723,-0.598047,-0.551390,99.401846,6.659738,-109.000660
11373,NaN,-1.140676,9.611339,-1.588747,-0.003046,0.004363,-0.004371,0.032942,0.000954,-0.001810,0.338795,0.472757,-0.598165,-0.551287,99.421989,6.657786,-109.003941
11374,NaN,-1.077895,9.611007,-1.629380,0.011233,-0.066944,-0.005365,0.032942,0.000955,-0.001811,0.338707,0.472791,-0.598282,-0.551185,99.442089,6.655921,-109.007260
11375,NaN,-1.039261,9.672477,-1.630758,-0.015130,-0.105620,0.050621,0.035719,0.006243,-0.003862,0.338622,0.472850,-0.598393,-0.551065,99.464192,6.654634,-109.007333
11376,NaN,-1.078485,9.609775,-1.636239,0.011166,-0.065898,-0.005357,0.035234,0.014490,-0.007507,0.338553,0.472942,-0.598480,-0.550934,99.486560,6.654713,-109.002412
11377,NaN,-1.102004,9.604522,-1.646465,0.025776,-0.045846,-0.006091,0.031971,0.017450,-0.009101,0.338497,0.473042,-0.598550,-0.550808,99.507316,6.655326,-108.995614
11378,NaN,-1.091207,9.624467,-1.614896,-0.014457,-0.045208,0.007024,0.038237,0.016526,-0.008405,0.338424,0.473147,-0.598639,-0.550665,99.531549,6.655717,-108.989449
11379,NaN,-1.115630,9.649039,-1.642711,0.010644,-0.031806,0.038504,0.035203,0.016231,-0.008843,0.338357,0.473248,-0.598720,-0.550531,99.554075,6.656294,-108.983366
11380,NaN,-1.093452,9.652948,-1.639556,-0.004036,-0.050807,0.039246,0.037863,0.010761,-0.012351,0.338257,0.473349,-0.598809,-0.550409,99.577757,6.659457,-108.980101
11381,NaN,-1.094497,9.652187,-1.643335,-0.004070,-0.050273,0.039248,0.037633,0.014015,-0.013510,0.338165,0.473462,-0.598890,-0.550281,99.601580,6.662877,-108.974829
11382,NaN,-1.101450,9.637636,-1.705157,0.054118,-0.063045,0.036062,0.040264,0.017345,-0.012723,0.338078,0.473586,-0.598973,-0.550137,99.627078,6.665619,-108.967781
11383,NaN,-1.096158,9.613861,-1.714638,0.061614,-0.069021,0.013772,0.038088,0.025219,-0.015088,0.338014,0.473735,-0.599032,-0.549984,99.651922,6.668850,-108.955982
11384,NaN,-1.143286,9.640560,-1.668737,0.025140,-0.009681,0.037768,0.034537,0.024260,-0.010995,0.337966,0.473863,-0.599092,-0.549838,99.674577,6.669944,-108.945167
11385,NaN,-1.149497,9.632921,-1.649721,0.007093,0.004002,0.027842,0.038315,0.021969,-0.013929,0.337895,0.474000,-0.599160,-0.549690,99.699324,6.672824,-108.935325
11386,NaN,-1.121928,9.643683,-1.669658,0.010421,-0.028147,0.038515,0.039713,0.018427,-0.009528,0.337821,0.474116,-0.599247,-0.549539,99.724543,6.673644,-108.927969
11387,NaN,-1.133348,9.629182,-1.628023,-0.025638,-0.001307,0.018662,0.038626,0.013511,-0.008759,0.337738,0.474215,-0.599342,-0.549401,99.748853,6.674416,-108.923438
11388,NaN,-1.111348,9.626100,-1.705692,0.035898,-0.046770,0.026155,0.038480,0.011557,-0.005912,0.337657,0.474299,-0.599447,-0.549265,99.772871,6.673856,-108.920339
11389,NaN,-1.117278,9.618489,-1.686819,0.017852,-0.033086,0.016228,0.040543,0.010630,-0.008889,0.337560,0.474394,-0.599552,-0.549128,99.798089,6.674977,-108.917433
11390,NaN,-1.146223,9.606207,-1.674801,0.014473,0.000088,0.005550,0.038450,0.013294,-0.007252,0.337480,0.474487,-0.599650,-0.548990,99.822220,6.675001,-108.913215
11391,NaN,-1.083712,9.605536,-1.716018,0.028659,-0.071227,0.004623,0.040569,0.008897,-0.007552,0.337382,0.474573,-0.599761,-0.548855,99.847324,6.675535,-108.911424
11392,NaN,-1.095995,9.620921,-1.691674,0.003088,-0.051038,0.016986,0.037334,0.010115,-0.007819,0.337293,0.474657,-0.599860,-0.548728,99.870612,6.676187,-108.908958
11393,NaN,-1.131507,9.631595,-1.674235,-0.007816,-0.011325,0.028593,0.041058,0.011289,-0.013426,0.337185,0.474768,-0.599954,-0.548596,99.896222,6.679799,-108.905225
11394,NaN,-1.092220,9.626164,-1.722328,0.021025,-0.063157,0.026924,0.039078,0.007018,-0.006434,0.337087,0.474842,-0.600066,-0.548469,99.920289,6.679973,-108.904655
11395,NaN,-1.121238,9.613947,-1.709928,0.017653,-0.029968,0.016239,0.032957,0.009885,-0.009992,0.337003,0.474925,-0.600148,-0.548359,99.941126,6.681782,-108.902059
11396,NaN,-1.100083,9.647690,-1.724058,0.013427,-0.055591,0.049219,0.038484,0.004491,-0.011530,0.336885,0.475007,-0.600251,-0.548248,99.964744,6.685082,-108.902417
11397,NaN,-1.100331,9.617137,-1.710277,0.002913,-0.048429,0.016999,0.037342,0.003042,-0.013433,0.336760,0.475088,-0.600349,-0.548147,99.987682,6.689510,-108.903363
11398,NaN,-1.079617,9.650822,-1.724478,-0.001318,-0.074047,0.049983,0.036201,0.001593,-0.015335,0.336628,0.475170,-0.600441,-0.548056,100.009845,6.695244,-108.904983
11399,NaN,-1.057258,9.625015,-1.703569,-0.026508,-0.086383,0.018523,0.034454,0.004692,-0.016725,0.336507,0.475261,-0.600521,-0.547965,100.031277,6.701365,-108.904657
11400,NaN,-1.099347,9.621518,-1.743622,0.020810,-0.060045,0.026944,0.037426,0.008462,-0.018970,0.336382,0.475374,-0.600596,-0.547860,100.054640,6.708466,-108.902006
11401,NaN,-1.078201,9.625430,-1.740185,0.006095,-0.079012,0.027708,0.031103,0.012838,-0.022362,0.336278,0.475499,-0.600639,-0.547769,100.074760,6.716950,-108.896479
11402,NaN,-1.137651,9.631343,-1.729181,0.009897,-0.019813,0.038536,0.037424,0.008465,-0.018971,0.336153,0.475612,-0.600714,-0.547665,100.098124,6.724049,-108.893820
11403,NaN,-1.156776,9.632498,-1.762478,0.042541,-0.012961,0.047713,0.035531,0.009615,-0.017511,0.336042,0.475721,-0.600786,-0.547560,100.120511,6.730117,-108.890608
11404,NaN,-1.192979,9.643153,-1.744757,0.031673,0.026746,0.059296,0.035327,0.011132,-0.017343,0.335935,0.475833,-0.600855,-0.547452,100.142833,6.736026,-108.886594
11405,NaN,-1.153774,9.645159,-1.711721,-0.015721,0.001462,0.050883,0.035241,0.005722,-0.011804,0.335828,0.475913,-0.600946,-0.547348,100.164729,6.739266,-108.886168
11406,NaN,-1.148487,9.621436,-1.720446,-0.008228,-0.004572,0.028598,0.035443,0.004207,-0.011973,0.335715,0.475990,-0.601040,-0.547248,100.186593,6.742845,-108.886630
11407,NaN,-1.086392,9.620674,-1.761262,0.005873,-0.075905,0.027733,0.038299,0.004298,-0.010024,0.335601,0.476067,-0.601146,-0.547135,100.210124,6.745225,-108.887192
11408,NaN,-1.122081,9.631388,-1.743700,-0.004988,-0.036192,0.039310,0.036957,0.004361,-0.011756,0.335485,0.476146,-0.601244,-0.547029,100.232863,6.748666,-108.887585
11409,NaN,-1.116523,9.607675,-1.752440,0.002498,-0.042215,0.017028,0.033874,0.012878,-0.007947,0.335413,0.476232,-0.601328,-0.546905,100.254406,6.749001,-108.883487
11410,NaN,-1.168494,9.590733,-1.746559,0.013857,0.010432,0.005545,0.031860,0.004991,-0.009222,0.335319,0.476297,-0.601417,-0.546809,100.274237,6.750950,-108.883780
11411,NaN,-1.131746,9.681930,-1.766244,-0.002144,-0.034695,0.093827,0.037188,0.001116,-0.010578,0.335196,0.476364,-0.601524,-0.546707,100.296926,6.753969,-108.886087
11412,NaN,-1.130648,9.621852,-1.734553,-0.023113,-0.020947,0.029371,0.036026,0.006755,-0.006888,0.335103,0.476434,-0.601627,-0.546591,100.319233,6.754421,-108.885619
11413,NaN,-1.136945,9.606736,-1.795623,0.035042,-0.033846,0.026211,0.031480,0.006296,-0.007547,0.335018,0.476497,-0.601717,-0.546489,100.338962,6.755200,-108.885297
11414,NaN,-1.125880,9.589741,-1.826779,0.060515,-0.053075,0.013878,0.031623,0.008239,-0.010405,0.334931,0.476573,-0.601797,-0.546388,100.358888,6.757482,-108.883621
11415,NaN,-1.121088,9.603524,-1.772169,0.002290,-0.039122,0.017041,0.032234,0.003691,-0.010904,0.334827,0.476640,-0.601886,-0.546295,100.378916,6.760421,-108.884429
11416,NaN,-1.122069,9.602830,-1.775305,0.002257,-0.038616,0.017043,0.032233,0.003692,-0.010904,0.334723,0.476707,-0.601974,-0.546204,100.398895,6.763453,-108.885281
11417,NaN,-1.117796,9.608768,-1.801245,0.020204,-0.051270,0.026995,0.031269,0.002447,-0.014314,0.334608,0.476779,-0.602053,-0.546123,100.418329,6.768443,-108.886436
11418,NaN,-1.102621,9.635885,-1.792122,-0.002051,-0.063675,0.050056,0.028443,0.000623,-0.014918,0.334493,0.476844,-0.602126,-0.546057,100.435980,6.774055,-108.888608
11419,NaN,-1.120754,9.607377,-1.806822,0.020132,-0.050243,0.027000,0.026837,0.005655,-0.019179,0.334385,0.476932,-0.602177,-0.545990,100.453150,6.781453,-108.887431
11420,NaN,-1.151566,9.624854,-1.811205,0.027287,-0.023698,0.048503,0.027625,0.006691,-0.014259,0.334292,0.477009,-0.602239,-0.545911,100.470731,6.786064,-108.886225
11421,NaN,-1.118092,9.612684,-1.834952,0.038040,-0.062398,0.036959,0.024596,0.006382,-0.014698,0.334204,0.477082,-0.602293,-0.545842,100.486612,6.790861,-108.885101
11422,NaN,-1.182488,9.612148,-1.800143,0.023950,0.009981,0.037770,0.022876,0.007744,-0.014753,0.334124,0.477156,-0.602339,-0.545775,100.501549,6.795640,-108.883244
11423,NaN,-1.132271,9.627909,-1.811573,0.012475,-0.041618,0.049289,0.022355,0.007110,-0.010216,0.334055,0.477214,-0.602397,-0.545703,100.516140,6.797835,-108.882176
11424,NaN,-1.160420,9.586334,-1.780037,-0.001284,-0.001854,0.006319,0.021976,0.008415,-0.008540,0.333996,0.477269,-0.602454,-0.545628,100.530529,6.799043,-108.880590
11425,NaN,-1.202219,9.612368,-1.836526,0.056543,0.017811,0.046940,0.021045,0.010815,-0.003676,0.333960,0.477315,-0.602517,-0.545540,100.544536,6.797165,-108.878109
11426,NaN,-1.178190,9.587274,-1.813873,0.031340,0.005452,0.015491,0.017997,0.001654,0.004142,0.333925,0.477307,-0.602606,-0.545471,100.556034,6.791937,-108.881697
11427,NaN,-1.189724,9.603369,-1.787724,0.005819,0.025738,0.027810,0.020299,-0.002529,0.002358,0.333867,0.477297,-0.602703,-0.545407,100.568643,6.788062,-108.887425
11428,NaN,-1.121749,9.647218,-1.786790,-0.027902,-0.038753,0.062406,0.018785,-0.002684,0.002139,0.333811,0.477285,-0.602796,-0.545350,100.580327,6.784421,-108.893264
11429,NaN,-1.103434,9.607465,-1.821733,0.005059,-0.064583,0.027814,0.020677,-0.003834,0.000682,0.333744,0.477277,-0.602893,-0.545291,100.593087,6.781629,-108.899555
11430,NaN,-1.116176,9.653108,-1.813478,-0.010002,-0.050908,0.072370,0.020063,0.000716,0.001171,0.333692,0.477279,-0.602981,-0.545223,100.605743,6.778177,-108.903365
11431,NaN,-1.080398,9.611576,-1.818926,-0.009737,-0.083019,0.028611,0.023029,0.004482,-0.001091,0.333640,0.477303,-0.603067,-0.545140,100.620430,6.775509,-108.904753
11432,NaN,-1.114522,9.585009,-1.862633,0.045152,-0.063375,0.014719,0.018015,0.010502,-0.004122,0.333608,0.477344,-0.603120,-0.545063,100.632633,6.774005,-108.902451
11433,NaN,-1.092756,9.619054,-1.875503,0.040845,-0.088915,0.047751,0.019088,0.015418,-0.004928,0.333587,0.477403,-0.603167,-0.544972,100.645843,6.772340,-108.897229
11434,NaN,-1.121448,9.607216,-1.861351,0.037567,-0.055765,0.037000,0.016203,0.017044,-0.008229,0.333569,0.477471,-0.603196,-0.544893,100.657497,6.772455,-108.890781
11435,NaN,-1.133776,9.623266,-1.835150,0.012053,-0.035459,0.049314,0.016202,0.017044,-0.008230,0.333551,0.477540,-0.603224,-0.544812,100.669204,6.772474,-108.884285
11436,NaN,-1.139822,9.616358,-1.813741,-0.005945,-0.021763,0.039352,0.010320,0.016631,-0.010620,0.333539,0.477604,-0.603231,-0.544755,100.677491,6.773976,-108.877815
11437,NaN,-1.135017,9.622588,-1.837938,0.011982,-0.034434,0.049318,0.013379,0.015217,-0.008831,0.333520,0.477665,-0.603254,-0.544689,100.687465,6.774525,-108.872291
11438,NaN,-1.158502,9.617358,-1.846261,0.026680,-0.014479,0.048523,0.013378,0.015217,-0.008831,0.333501,0.477725,-0.603276,-0.544623,100.697387,6.775169,-108.866813
11439,NaN,-1.118703,9.612037,-1.891502,0.055342,-0.066401,0.046981,0.010001,0.014486,-0.006245,0.333496,0.477770,-0.603296,-0.544564,100.705346,6.774338,-108.861980
11440,NaN,-1.181076,9.582349,-1.837866,0.030894,0.012587,0.015486,0.012238,0.019139,-0.003808,0.333505,0.477824,-0.603321,-0.544484,100.714813,6.771734,-108.854818
11441,NaN,-1.130097,9.598376,-1.848361,0.019348,-0.038990,0.027053,0.011423,0.019821,-0.010079,0.333502,0.477898,-0.603327,-0.544414,100.723991,6.772491,-108.846548
11442,NaN,-1.107430,9.602996,-1.842752,0.004576,-0.057937,0.027856,0.010990,0.014015,-0.001488,0.333505,0.477929,-0.603362,-0.544346,100.732371,6.769126,-108.842541
11443,NaN,-1.135976,9.591301,-1.828004,0.001319,-0.024771,0.017088,0.011690,0.014852,-0.007539,0.333493,0.477982,-0.603384,-0.544283,100.741338,6.768980,-108.837361
11444,NaN,-1.107117,9.572887,-1.827457,-0.005948,-0.050325,-0.004379,0.011453,0.018095,-0.008729,0.333488,0.478046,-0.603396,-0.544216,100.750347,6.769254,-108.830263
11445,NaN,-1.115069,9.625139,-1.841490,-0.003045,-0.049783,0.050135,0.010351,0.014905,-0.009272,0.333474,0.478102,-0.603409,-0.544160,100.758572,6.770076,-108.824866
11446,NaN,-1.137541,9.590413,-1.831685,0.001214,-0.023248,0.017091,0.009969,0.016213,-0.007598,0.333470,0.478156,-0.603423,-0.544100,100.766592,6.769913,-108.818956
11447,NaN,-1.115080,9.595033,-1.826009,-0.013567,-0.042171,0.017898,0.011689,0.014854,-0.007539,0.333458,0.478209,-0.603445,-0.544037,100.775558,6.769763,-108.813776
11448,NaN,-1.139432,9.619361,-1.852044,0.011590,-0.028813,0.049336,0.012100,0.011820,-0.007861,0.333434,0.478255,-0.603471,-0.543982,100.784508,6.770217,-108.810328
11449,NaN,-1.122611,9.617391,-1.823734,-0.021146,-0.034529,0.040172,0.014860,0.017103,-0.009964,0.333415,0.478326,-0.603492,-0.543908,100.795473,6.771189,-108.803610
11450,NaN,-1.134175,9.595605,-1.860212,0.019023,-0.034411,0.027071,0.016610,0.014018,-0.008551,0.333385,0.478388,-0.603525,-0.543835,100.807163,6.771793,-108.798841
11451,NaN,-1.157538,9.590355,-1.868553,0.033735,-0.014454,0.026263,0.010204,0.012972,-0.006409,0.333374,0.478430,-0.603549,-0.543779,100.815139,6.771206,-108.794849
11452,NaN,-1.135101,9.594980,-1.862868,0.018950,-0.033392,0.027074,0.011656,0.016581,-0.008894,0.333363,0.478491,-0.603564,-0.543715,100.824166,6.771726,-108.788591
11453,NaN,-1.135553,9.594675,-1.864164,0.018911,-0.032873,0.027076,0.011274,0.017889,-0.007221,0.333362,0.478550,-0.603580,-0.543646,100.833094,6.771065,-108.781724
11454,NaN,-1.113054,9.599317,-1.858465,0.004122,-0.051808,0.027890,0.009967,0.016215,-0.007602,0.333358,0.478604,-0.603594,-0.543586,100.841112,6.770896,-108.775813
11455,NaN,-1.136333,9.594112,-1.866583,0.018838,-0.031855,0.027079,0.011717,0.013130,-0.006188,0.333344,0.478648,-0.603621,-0.543525,100.849963,6.770165,-108.771755
11456,NaN,-1.142155,9.587331,-1.844900,0.000859,-0.018147,0.017102,0.010234,0.011248,-0.005057,0.333331,0.478681,-0.603650,-0.543471,100.857770,6.769097,-108.768935
11457,NaN,-1.131455,9.600069,-1.891916,0.036707,-0.044047,0.037063,0.013436,0.011771,-0.006127,0.333309,0.478724,-0.603685,-0.543408,100.867515,6.768477,-108.765654
11458,NaN,-1.132000,9.599734,-1.893292,0.036671,-0.043548,0.037065,0.012038,0.015273,-0.010568,0.333289,0.478788,-0.603699,-0.543349,100.876695,6.770075,-108.759954
11459,NaN,-1.098639,9.625832,-1.852726,-0.018333,-0.062042,0.050986,0.007892,0.017159,-0.004641,0.333301,0.478832,-0.603713,-0.543287,100.883604,6.768034,-108.753782
11460,NaN,-1.138150,9.592725,-1.872600,0.018656,-0.029321,0.027088,0.009344,0.020768,-0.007127,0.333313,0.478895,-0.603719,-0.543217,100.891563,6.767100,-108.745343
11461,NaN,-1.144821,9.615491,-1.868739,0.011117,-0.022163,0.049354,0.009404,0.017318,-0.004420,0.333322,0.478941,-0.603738,-0.543150,100.899347,6.764915,-108.739106
11462,NaN,-1.145027,9.615265,-1.869779,0.011082,-0.021663,0.049355,0.008275,0.015851,-0.006314,0.333324,0.478987,-0.603751,-0.543094,100.906354,6.764054,-108.733542
11463,NaN,-1.116002,9.596970,-1.868790,0.003775,-0.047210,0.027913,0.008482,0.014334,-0.006473,0.333321,0.479030,-0.603767,-0.543040,100.913436,6.763347,-108.728771
11464,NaN,-1.132542,9.568816,-1.881644,0.026006,-0.033931,0.004830,0.007951,0.013710,-0.001935,0.333329,0.479057,-0.603793,-0.542983,100.920058,6.760253,-108.724899
11465,NaN,-1.093315,9.601528,-1.863725,-0.011072,-0.065613,0.028741,0.008098,0.015643,-0.004802,0.333336,0.479097,-0.603810,-0.542924,100.926986,6.758462,-108.719569
11466,NaN,-1.099964,9.624347,-1.859641,-0.018608,-0.058464,0.051007,0.005932,0.021762,-0.005902,0.333362,0.479154,-0.603808,-0.542860,100.933039,6.756724,-108.710702
11467,NaN,-1.059053,9.589539,-1.886409,-0.000495,-0.103878,0.017298,0.008124,0.024477,-0.013086,0.333373,0.479244,-0.603790,-0.542794,100.940677,6.758630,-108.699461
11468,NaN,-1.090363,9.636741,-1.907548,0.017176,-0.083877,0.070989,0.011444,0.028660,-0.018375,0.333373,0.479366,-0.603761,-0.542718,100.950509,6.763156,-108.685321
11469,NaN,-1.084110,9.583881,-1.895694,0.014195,-0.083443,0.016482,0.004561,0.034095,-0.018633,0.333406,0.479493,-0.603705,-0.542649,100.956822,6.767132,-108.668023
11470,NaN,-1.113899,9.572091,-1.880709,0.011002,-0.050308,0.005669,0.006814,0.033361,-0.023108,0.333419,0.479634,-0.603644,-0.542583,100.964379,6.773805,-108.650698
11471,NaN,-1.190515,9.579824,-1.897638,0.047801,0.015111,0.025446,0.005569,0.028236,-0.020781,0.333426,0.479753,-0.603595,-0.542528,100.970909,6.779622,-108.636481
11472,NaN,-1.185201,9.556522,-1.903331,0.055263,0.008949,0.003185,0.003998,0.020970,-0.014074,0.333433,0.479829,-0.603569,-0.542486,100.975910,6.782560,-108.627167
11473,NaN,-1.197918,9.572871,-1.875962,0.029804,0.029344,0.015453,0.000080,0.019613,-0.006957,0.333464,0.479874,-0.603553,-0.542445,100.978541,6.781541,-108.619352
11474,NaN,-1.227560,9.590817,-1.878244,0.037060,0.055914,0.036880,0.000766,0.011611,-0.004721,0.333476,0.479891,-0.603556,-0.542419,100.980944,6.780239,-108.616365
11475,NaN,-1.181817,9.600776,-1.864270,0.007457,0.017609,0.038542,-0.002079,0.000943,0.002960,0.333483,0.479851,-0.603589,-0.542414,100.980960,6.775680,-108.620216
11476,NaN,-1.204156,9.595935,-1.870891,0.022210,0.037517,0.037708,-0.005401,-0.003242,0.008248,0.333500,0.479779,-0.603631,-0.542420,100.978668,6.768704,-108.627068
11477,NaN,-1.191091,9.579648,-1.898168,0.047591,0.018143,0.025442,-0.003530,-0.013225,0.015087,0.333501,0.479661,-0.603712,-0.542433,100.976752,6.758870,-108.640276
11478,NaN,-1.172552,9.578428,-1.867575,0.014848,0.012458,0.016281,-0.007562,-0.021911,0.018163,0.333493,0.479505,-0.603804,-0.542474,100.971853,6.748353,-108.658790
11479,NaN,-1.188410,9.580326,-1.896425,0.047521,0.019154,0.025441,-0.007503,-0.025361,0.020872,0.333483,0.479331,-0.603909,-0.542518,100.966784,6.736587,-108.679506
11480,NaN,-1.141132,9.590641,-1.881435,0.017905,-0.019160,0.027114,-0.006819,-0.033362,0.023105,0.333452,0.479129,-0.604033,-0.542576,100.961494,6.724534,-108.705045
11481,NaN,-1.155806,9.563105,-1.892227,0.040151,-0.005912,0.004020,-0.008036,-0.040212,0.026785,0.333414,0.478896,-0.604175,-0.542648,100.955070,6.711055,-108.734818
11482,NaN,-1.165432,9.550562,-1.845136,0.004281,0.021043,-0.015977,-0.009255,-0.050732,0.022202,0.333334,0.478646,-0.604320,-0.542756,100.947259,6.701395,-108.770093
11483,NaN,-1.093192,9.669279,-1.818889,-0.066987,-0.042572,0.086408,-0.008427,-0.056799,0.021565,0.333233,0.478382,-0.604476,-0.542877,100.939593,6.692650,-108.808683
11484,NaN,-1.021666,9.616929,-1.841629,-0.056231,-0.114130,0.031323,-0.003833,-0.049215,0.015301,0.333126,0.478166,-0.604616,-0.542977,100.935087,6.686699,-108.842340
11485,NaN,-0.998220,9.613612,-1.914386,0.004958,-0.159983,0.039076,-0.004368,-0.039279,0.010202,0.333037,0.477992,-0.604726,-0.543062,100.931054,6.682434,-108.869762
11486,NaN,-0.975321,9.618684,-1.906766,-0.009887,-0.178881,0.039927,-0.004101,-0.019460,0.001743,0.332984,0.477897,-0.604784,-0.543115,100.928532,6.680874,-108.885081
11487,NaN,-1.027965,9.631870,-1.915219,0.012177,-0.132882,0.060503,-0.001877,-0.004243,-0.005459,0.332952,0.477869,-0.604805,-0.543135,100.928439,6.681609,-108.890943
11488,NaN,-1.039812,9.618867,-1.869048,-0.023690,-0.105911,0.040504,-0.007189,0.008460,-0.012413,0.332952,0.477887,-0.604774,-0.543153,100.926168,6.684980,-108.888900
11489,NaN,-1.098730,9.625431,-1.854752,-0.019525,-0.046677,0.051068,-0.001465,0.017509,-0.016783,0.332955,0.477953,-0.604733,-0.543139,100.927889,6.689722,-108.881202
11490,NaN,-1.129591,9.643369,-1.856475,-0.012244,-0.020091,0.072478,-0.006958,0.015776,-0.020855,0.332953,0.478018,-0.604670,-0.543153,100.926342,6.697046,-108.874092
11491,NaN,-1.113028,9.603684,-1.889067,0.020602,-0.046185,0.037977,-0.001682,0.015358,-0.024888,0.332928,0.478102,-0.604613,-0.543158,100.927901,6.706581,-108.866725
11492,NaN,-1.104039,9.616519,-1.934518,0.056381,-0.072161,0.057992,-0.008119,0.016034,-0.024103,0.332921,0.478175,-0.604539,-0.543181,100.925750,6.715705,-108.859113
11493,NaN,-1.123689,9.626345,-1.883361,0.013039,-0.038472,0.060235,-0.005394,0.023045,-0.027562,0.332921,0.478282,-0.604452,-0.543183,100.925730,6.725909,-108.847100
11494,NaN,-1.142249,9.598193,-1.894946,0.035301,-0.025278,0.037134,-0.007324,0.025921,-0.027466,0.332933,0.478393,-0.604356,-0.543185,100.924736,6.735851,-108.833519
11495,NaN,-1.150800,9.621045,-1.889475,0.027776,-0.018062,0.059387,-0.009431,0.028589,-0.025858,0.332963,0.478503,-0.604253,-0.543184,100.922754,6.744494,-108.818551
11496,NaN,-1.138584,9.545456,-1.880869,0.032296,-0.024417,-0.017376,-0.011060,0.024771,-0.021861,0.332996,0.478588,-0.604161,-0.543190,100.919475,6.751409,-108.806235
11497,NaN,-1.135784,9.589817,-1.840590,-0.015432,-0.016645,0.017972,-0.005394,0.026717,-0.019299,0.333029,0.478680,-0.604089,-0.543170,100.919601,6.756567,-108.793045
11498,NaN,-1.131623,9.596277,-1.862944,0.002435,-0.029387,0.027983,-0.011655,0.027598,-0.020032,0.333077,0.478766,-0.603995,-0.543169,100.916148,6.762146,-108.779327
11499,NaN,-1.162368,9.614208,-1.864507,0.009730,-0.002779,0.049380,-0.004541,0.033156,-0.019952,0.333126,0.478879,-0.603912,-0.543132,100.917203,6.766973,-108.762418
11500,NaN,-1.203547,9.610701,-1.901014,0.057237,0.023242,0.057680,-0.009551,0.028599,-0.013377,0.333190,0.478952,-0.603839,-0.543110,100.914939,6.768701,-108.748860
11501,NaN,-1.185946,9.579667,-1.852702,0.014066,0.024161,0.016260,-0.009280,0.023630,-0.010830,0.333245,0.479003,-0.603781,-0.543095,100.912526,6.769431,-108.738344
11502,NaN,-1.168854,9.569803,-1.902769,0.057314,-0.008540,0.014037,-0.008380,0.014110,-0.008761,0.333275,0.479024,-0.603746,-0.543097,100.909907,6.770134,-108.733499
11503,NaN,-1.164184,9.584801,-1.844276,-0.000825,0.005800,0.017117,-0.010892,0.005578,-0.005468,0.333295,0.479008,-0.603726,-0.543121,100.905297,6.769806,-108.733797
11504,NaN,-1.181770,9.586492,-1.873198,0.031864,0.012430,0.026272,-0.008867,-0.002476,-0.001503,0.333296,0.478961,-0.603735,-0.543153,100.901197,6.768224,-108.739141
11505,NaN,-1.165656,9.614648,-1.860179,0.009518,0.000285,0.049381,-0.011651,-0.006039,-0.000758,0.333295,0.478897,-0.603744,-0.543199,100.895316,6.766504,-108.746533
11506,NaN,-1.177677,9.631321,-1.831176,-0.015890,0.020751,0.061612,-0.010191,-0.012994,0.006391,0.333289,0.478796,-0.603785,-0.543246,100.889655,6.761619,-108.758697
11507,NaN,-1.170846,9.608643,-1.834743,-0.008445,0.014557,0.039363,-0.015824,-0.016667,0.005176,0.333282,0.478679,-0.603815,-0.543321,100.880599,6.757709,-108.772759
11508,NaN,-1.158367,9.592548,-1.861072,0.016895,-0.004911,0.027133,-0.011191,-0.021368,0.009905,0.333262,0.478542,-0.603876,-0.543385,100.873764,6.751748,-108.790048
11509,NaN,-1.134897,9.597848,-1.852831,0.002025,-0.023764,0.027998,-0.009647,-0.022934,0.011481,0.333239,0.478399,-0.603948,-0.543446,100.867752,6.744965,-108.808345
11510,NaN,-1.139885,9.591586,-1.828804,-0.015899,-0.010011,0.017980,-0.009052,-0.025758,0.009648,0.333200,0.478255,-0.604021,-0.543515,100.861858,6.739619,-108.828092
11511,NaN,-1.162252,9.586876,-1.834684,-0.001101,0.009880,0.017114,-0.007299,-0.028841,0.011062,0.333152,0.478101,-0.604109,-0.543582,100.856808,6.733705,-108.849690
11512,NaN,-1.127790,9.605242,-1.872317,0.019805,-0.035495,0.038023,-0.008812,-0.029000,0.010839,0.333106,0.477945,-0.604191,-0.543656,100.850825,6.728035,-108.871402
11513,NaN,-1.115011,9.589121,-1.899061,0.045131,-0.054957,0.025802,-0.007831,-0.029470,0.015599,0.333070,0.477775,-0.604288,-0.543720,100.845376,6.719633,-108.893845
11514,NaN,-1.074781,9.622355,-1.879121,0.007936,-0.086463,0.049789,-0.007394,-0.019999,0.015272,0.333060,0.477632,-0.604370,-0.543761,100.840752,6.710494,-108.910937
11515,NaN,-1.092128,9.662098,-1.845210,-0.024947,-0.059223,0.084259,-0.010607,-0.006296,0.014983,0.333098,0.477522,-0.604420,-0.543778,100.835259,6.699936,-108.920180
11516,NaN,-1.186804,9.606458,-1.831545,0.006099,0.038521,0.038484,-0.004795,-0.002417,0.014682,0.333133,0.477433,-0.604478,-0.543770,100.833300,6.689233,-108.927244
11517,NaN,-1.163259,9.641296,-1.841738,0.001626,0.013156,0.071623,-0.008289,-0.006818,0.021478,0.333183,0.477306,-0.604551,-0.543771,100.829025,6.675076,-108.937487
11518,NaN,-1.143855,9.640085,-1.811108,-0.031133,0.007557,0.062470,-0.006714,-0.010113,0.024404,0.333226,0.477164,-0.604640,-0.543771,100.825341,6.659729,-108.949962
11519,NaN,-1.077347,9.610904,-1.829660,-0.028030,-0.057374,0.029758,-0.000869,-0.007963,0.025454,0.333264,0.477034,-0.604744,-0.543745,100.825197,6.643457,-108.961282
11520,NaN,-1.028081,9.583247,-1.878470,0.007795,-0.116229,0.006205,0.000849,0.004909,0.024161,0.333334,0.476946,-0.604827,-0.543687,100.826839,6.626630,-108.965219
11521,NaN,-1.100648,9.591685,-1.894485,0.044824,-0.050892,0.025825,0.001116,0.014169,0.025349,0.333435,0.476879,-0.604900,-0.543603,100.829287,6.608033,-108.963990
11522,NaN,-1.108863,9.578789,-1.849322,0.009033,-0.023870,0.005770,0.006132,0.022385,0.027043,0.333552,0.476839,-0.604976,-0.543482,100.835061,6.587703,-108.958341
11523,NaN,-1.095958,9.629855,-1.833306,-0.020808,-0.029216,0.051133,0.008683,0.029189,0.025106,0.333680,0.476827,-0.605043,-0.543339,100.842819,6.567625,-108.948580
11524,NaN,-1.081120,9.621797,-1.781774,-0.071449,-0.021540,0.031953,0.008090,0.032015,0.026939,0.333822,0.476816,-0.605108,-0.543189,100.850334,6.546314,-108.937471
11525,NaN,-1.013874,9.592241,-1.802086,-0.068378,-0.086480,-0.000736,0.012512,0.039394,0.022199,0.333963,0.476846,-0.605161,-0.543016,100.860973,6.526767,-108.921622
11526,NaN,-0.975405,9.551059,-1.807046,-0.068329,-0.118827,-0.044332,0.018656,0.045414,0.017523,0.334094,0.476918,-0.605210,-0.542818,100.875511,6.509302,-108.901909
11527,NaN,-0.985810,9.588551,-1.879931,-0.007373,-0.131997,0.007129,0.020411,0.052898,0.009311,0.334223,0.477037,-0.605232,-0.542610,100.891689,6.495537,-108.877018
11528,NaN,-0.977796,9.565178,-1.887602,0.000055,-0.138249,-0.015104,0.023446,0.063782,0.000130,0.334351,0.477219,-0.605221,-0.542382,100.910351,6.485857,-108.845019
11529,NaN,-1.035316,9.600960,-1.894404,0.014784,-0.085520,0.027614,0.019949,0.069960,-0.002708,0.334500,0.477421,-0.605184,-0.542155,100.927495,6.476984,-108.809164
11530,NaN,-1.040368,9.594008,-1.874044,-0.003127,-0.071752,0.017584,0.016252,0.073989,-0.013654,0.334639,0.477660,-0.605104,-0.541948,100.942847,6.473930,-108.769884
11531,NaN,-0.978440,9.631267,-1.850353,-0.055237,-0.122513,0.042484,0.018510,0.073259,-0.018128,0.334759,0.477914,-0.605021,-0.541742,100.959562,6.473351,-108.730478
11532,NaN,-1.051818,9.571581,-1.913687,0.036989,-0.071413,0.004503,0.014511,0.073417,-0.023346,0.334874,0.478178,-0.604913,-0.541558,100.974000,6.475789,-108.690461
11533,NaN,-1.036726,9.598935,-1.903869,0.014605,-0.083478,0.027632,0.016038,0.069911,-0.031387,0.334953,0.478459,-0.604797,-0.541390,100.989252,6.483011,-108.651492
11534,NaN,-1.119978,9.629589,-1.917109,0.044228,-0.011421,0.069445,0.006309,0.075248,-0.033632,0.335066,0.478745,-0.604640,-0.541243,100.999244,6.491015,-108.609305
11535,NaN,-1.133705,9.645606,-1.890832,0.018851,0.009137,0.081645,0.007088,0.074576,-0.027360,0.335192,0.479012,-0.604501,-0.541085,101.009628,6.495446,-108.568135
11536,NaN,-1.099132,9.604112,-1.895019,0.018880,-0.023237,0.038062,0.006199,0.069868,-0.028065,0.335303,0.479266,-0.604366,-0.540942,101.019151,6.500894,-108.529603
11537,NaN,-1.054773,9.613642,-1.881926,-0.010910,-0.061397,0.039846,0.001916,0.078663,-0.027580,0.335453,0.479536,-0.604205,-0.540789,101.026844,6.504988,-108.486092
11538,NaN,-1.066689,9.591822,-1.917948,0.029250,-0.061601,0.026761,0.004394,0.076417,-0.032207,0.335577,0.479817,-0.604044,-0.540642,101.035812,6.512035,-108.443394
11539,NaN,-1.068144,9.591431,-1.919091,0.029203,-0.061082,0.026765,0.001644,0.083645,-0.030142,0.335736,0.480107,-0.603868,-0.540482,101.043710,6.517010,-108.396778
11540,NaN,-1.062926,9.568073,-1.925059,0.036626,-0.067358,0.004533,0.001824,0.083859,-0.031659,0.335890,0.480403,-0.603689,-0.540325,101.051686,6.522919,-108.349926
11541,NaN,-1.076950,9.584187,-1.898229,0.011252,-0.046789,0.016728,-0.001923,0.080767,-0.035695,0.336034,0.480696,-0.603495,-0.540192,101.057435,6.531320,-108.304321
11542,NaN,-1.090060,9.591928,-1.951531,0.061803,-0.053511,0.035922,-0.006040,0.077257,-0.036708,0.336173,0.480975,-0.603292,-0.540082,101.060557,6.540786,-108.260644
11543,NaN,-1.149245,9.568621,-1.920570,0.055805,0.012229,0.014042,-0.008594,0.070450,-0.034780,0.336304,0.481226,-0.603100,-0.539992,101.061822,6.549801,-108.220979
11544,NaN,-1.180513,9.586393,-1.922844,0.063183,0.038836,0.035377,-0.009610,0.062075,-0.031264,0.336421,0.481442,-0.602926,-0.539921,101.061863,6.557872,-108.186495
11545,NaN,-1.188855,9.609223,-1.917661,0.055674,0.046134,0.057608,-0.010175,0.048934,-0.026706,0.336513,0.481608,-0.602785,-0.539874,101.060741,6.564712,-108.159900
11546,NaN,-1.127332,9.588097,-1.854692,-0.017262,0.008418,0.017979,-0.009065,0.037889,-0.024780,0.336573,0.481740,-0.602669,-0.539848,101.059455,6.571797,-108.139823
11547,NaN,-1.099400,9.570092,-1.851650,-0.024729,-0.017175,-0.003353,-0.012414,0.033693,-0.019515,0.336643,0.481839,-0.602565,-0.539832,101.055976,6.576271,-108.122650
11548,NaN,-1.111719,9.578136,-1.903849,0.025819,-0.023913,0.015843,-0.008328,0.026425,-0.019831,0.336680,0.481926,-0.602482,-0.539823,101.054309,6.581833,-108.109610
11549,NaN,-1.093839,9.538703,-1.935808,0.058550,-0.050256,-0.018570,-0.009790,0.022808,-0.017355,0.336717,0.481994,-0.602408,-0.539822,101.051603,6.586290,-108.098838
11550,NaN,-1.107658,9.555158,-1.907245,0.033192,-0.029689,-0.006386,-0.014110,0.020807,-0.018216,0.336756,0.482052,-0.602324,-0.539841,101.046241,6.591563,-108.089157
11551,NaN,-1.112218,9.622607,-1.861355,-0.021986,-0.014836,0.051163,-0.013470,0.016252,-0.018687,0.336778,0.482099,-0.602247,-0.539869,101.041020,6.597490,-108.081949
11552,NaN,-1.152379,9.589606,-1.879858,0.015223,0.017518,0.027122,-0.012123,0.014476,-0.015586,0.336800,0.482135,-0.602185,-0.539893,101.036352,6.601980,-108.076144
11553,NaN,-1.119119,9.607901,-1.916674,0.035974,-0.027857,0.048132,-0.018985,0.005656,-0.014523,0.336815,0.482133,-0.602122,-0.539957,101.027228,6.606728,-108.075395
11554,NaN,-1.141358,9.543969,-1.886723,0.030062,0.004941,-0.017339,-0.014592,0.002473,-0.009596,0.336823,0.482114,-0.602088,-0.540007,101.020289,6.609166,-108.077046
11555,NaN,-1.099192,9.592016,-1.808154,-0.065290,-0.012328,0.009736,-0.011142,-0.000240,-0.009440,0.336815,0.482093,-0.602068,-0.540052,101.015211,6.611702,-108.080198
11556,NaN,-1.065430,9.610310,-1.845396,-0.044546,-0.057721,0.030755,-0.008952,0.004428,-0.006987,0.336822,0.482081,-0.602052,-0.540076,101.011597,6.612458,-108.081030
11557,NaN,-1.075488,9.559399,-1.861834,-0.014773,-0.051485,-0.014609,-0.007278,0.006529,-0.009618,0.336825,0.482086,-0.602030,-0.540094,101.009177,6.614352,-108.080330
11558,NaN,-1.093023,9.560963,-1.891377,0.017926,-0.044960,-0.005462,-0.006624,0.012764,-0.008753,0.336846,0.482106,-0.602002,-0.540094,101.007463,6.615190,-108.076248
11559,NaN,-1.117114,9.585491,-1.916073,0.043161,-0.031612,0.025913,-0.006385,0.009517,-0.007556,0.336862,0.482114,-0.601983,-0.540098,101.005722,6.615597,-108.074083
11560,NaN,-1.135996,9.595309,-1.865270,-0.000019,0.002275,0.028027,-0.003527,0.007900,-0.004219,0.336874,0.482112,-0.601983,-0.540093,101.005408,6.614417,-108.073254
11561,NaN,-1.078396,9.589032,-1.878009,-0.004582,-0.055932,0.017686,-0.002720,0.005286,-0.007558,0.336867,0.482115,-0.601981,-0.540097,101.005490,6.615288,-108.073484
11562,NaN,-1.114054,9.600373,-1.857379,-0.015014,-0.016016,0.028942,-0.005656,0.010564,-0.002629,0.336897,0.482112,-0.601974,-0.540089,101.004110,6.612922,-108.071322
11563,NaN,-1.107609,9.577419,-1.862118,-0.007602,-0.022307,0.006716,-0.000342,0.010165,-0.006614,0.336902,0.482129,-0.601973,-0.540072,101.005861,6.612728,-108.068894
11564,NaN,-1.096014,9.590565,-1.907675,0.028024,-0.048398,0.026839,-0.001124,0.011050,-0.001922,0.336924,0.482133,-0.601978,-0.540048,101.007100,6.609911,-108.066535
11565,NaN,-1.085989,9.611971,-1.872681,-0.012229,-0.047076,0.039923,-0.000960,0.012991,-0.004788,0.336944,0.482152,-0.601975,-0.540023,101.008659,6.608381,-108.062709
11566,NaN,-1.144093,9.618215,-1.859774,-0.007735,0.012154,0.050251,-0.001554,0.014086,-0.001607,0.336976,0.482162,-0.601976,-0.539992,101.009845,6.605054,-108.058665
11567,NaN,-1.112941,9.592070,-1.937872,0.060628,-0.040854,0.035990,-0.001150,0.012780,-0.003276,0.337000,0.482175,-0.601976,-0.539966,101.011262,6.602697,-108.055125
11568,NaN,-1.073568,9.595552,-1.900501,0.012918,-0.065671,0.027769,0.000310,0.016401,-0.005749,0.337024,0.482207,-0.601967,-0.539931,101.013719,6.601446,-108.049315
11569,NaN,-1.089644,9.567540,-1.912734,0.035242,-0.052670,0.004628,-0.004336,0.010515,-0.000883,0.337056,0.482201,-0.601969,-0.539916,101.013131,6.597990,-108.047322
11570,NaN,-1.073837,9.595597,-1.900123,0.012821,-0.064652,0.027776,-0.005328,0.014446,-0.008363,0.337080,0.482227,-0.601942,-0.539907,101.012264,6.598423,-108.042331
11571,NaN,-1.132339,9.601816,-1.887084,0.017331,-0.005402,0.038090,-0.000771,0.013203,-0.006300,0.337097,0.482250,-0.601935,-0.539884,101.013965,6.597719,-108.038217
11572,NaN,-1.122572,9.623217,-1.851963,-0.022916,-0.004075,0.051171,-0.003982,0.012667,-0.005261,0.337121,0.482264,-0.601923,-0.539870,101.013713,6.596603,-108.034574
11573,NaN,-1.100049,9.628262,-1.844552,-0.037887,-0.022850,0.052096,0.000119,0.016191,-0.004237,0.337150,0.482291,-0.601918,-0.539833,101.016092,6.594411,-108.028997
11574,NaN,-1.116125,9.600214,-1.856961,-0.015551,-0.009880,0.028949,-0.001822,0.019065,-0.004159,0.337191,0.482322,-0.601903,-0.539796,101.017479,6.591974,-108.021854
11575,NaN,-1.116157,9.600188,-1.857073,-0.015598,-0.009357,0.028949,-0.000312,0.019228,-0.003923,0.337231,0.482356,-0.601893,-0.539752,101.019802,6.589273,-108.014591
11576,NaN,-1.086798,9.582197,-1.855071,-0.023116,-0.034988,0.007656,0.005680,0.023337,-0.005683,0.337263,0.482416,-0.601888,-0.539685,101.025784,6.587224,-108.004862
11577,NaN,-1.086775,9.582064,-1.855771,-0.023165,-0.034466,0.007658,0.004244,0.017986,-0.001857,0.337294,0.482447,-0.601897,-0.539627,101.030612,6.583496,-107.998534
11578,NaN,-1.113387,9.562069,-1.921569,0.049746,-0.028830,0.003723,0.004028,0.019504,-0.001701,0.337329,0.482482,-0.601903,-0.539567,101.035347,6.579626,-107.991415
11579,NaN,-1.090577,9.567041,-1.914697,0.034765,-0.047606,0.004655,0.002924,0.018035,-0.003607,0.337358,0.482517,-0.601905,-0.539516,101.039440,6.576875,-107.984864
11580,NaN,-1.113226,9.561885,-1.922577,0.049653,-0.027819,0.003726,0.003404,0.011539,-0.001212,0.337372,0.482528,-0.601924,-0.539476,101.043294,6.573603,-107.982308
11581,NaN,-1.103825,9.612819,-1.905670,0.019766,-0.032906,0.049099,0.000192,0.011003,-0.000176,0.337396,0.482529,-0.601938,-0.539444,101.045326,6.569694,-107.980119
11582,NaN,-1.096832,9.589871,-1.910687,0.027171,-0.039253,0.026882,0.000457,0.006025,0.002377,0.337410,0.482509,-0.601967,-0.539421,101.047089,6.565009,-107.981081
11583,NaN,-1.096362,9.589892,-1.910856,0.027122,-0.038734,0.026884,0.001345,0.009013,0.004440,0.337438,0.482492,-0.601999,-0.539383,101.049592,6.558722,-107.980526
11584,NaN,-1.079135,9.588390,-1.880861,-0.005678,-0.044213,0.017745,0.000241,0.007543,0.002533,0.337458,0.482476,-0.602026,-0.539356,101.051328,6.553783,-107.980647
11585,NaN,-1.098250,9.627703,-1.848538,-0.038441,-0.016680,0.052106,0.001703,0.011166,0.000062,0.337479,0.482479,-0.602044,-0.539319,101.054230,6.549721,-107.978393
11586,NaN,-1.108019,9.606201,-1.884096,0.001719,-0.017057,0.039030,0.006905,0.005368,0.001661,0.337474,0.482471,-0.602090,-0.539278,101.059654,6.545511,-107.979649
11587,NaN,-1.085097,9.611180,-1.877252,-0.013274,-0.035818,0.039969,0.002973,0.014576,-0.000899,0.337500,0.482488,-0.602104,-0.539231,101.063515,6.541614,-107.975354
11588,NaN,-1.101570,9.612630,-1.907930,0.019436,-0.029350,0.049111,0.004507,0.013009,0.000694,0.337521,0.482499,-0.602128,-0.539181,101.068070,6.537108,-107.972179
11589,NaN,-1.077832,9.588073,-1.883220,-0.005922,-0.041652,0.017756,0.004723,0.011491,0.000538,0.337537,0.482506,-0.602156,-0.539133,101.072719,6.532741,-107.969795
11590,NaN,-1.110330,9.561487,-1.926226,0.049184,-0.022768,0.003742,0.003404,0.011540,-0.001212,0.337551,0.482517,-0.602175,-0.539094,101.076571,6.529469,-107.967241
11591,NaN,-1.122920,9.577795,-1.898985,0.023881,-0.002075,0.015877,0.002134,0.008129,-0.000252,0.337562,0.482514,-0.602199,-0.539063,101.079529,6.525916,-107.966671
11592,NaN,-1.099317,9.553299,-1.873902,-0.001474,-0.014401,-0.015477,0.000647,0.006237,0.000864,0.337572,0.482500,-0.602224,-0.539041,101.081434,6.522059,-107.967349
11593,NaN,-1.086981,9.566462,-1.919627,0.034087,-0.040518,0.004689,0.003284,0.006140,0.004364,0.337586,0.482479,-0.602266,-0.539004,101.084865,6.516130,-107.968416
11594,NaN,-1.064541,9.601079,-1.930277,0.029445,-0.065751,0.037934,0.000479,0.004296,0.003731,0.337599,0.482450,-0.602301,-0.538982,101.086513,6.510875,-107.970511
11595,NaN,-1.092939,9.589406,-1.915250,0.026544,-0.032639,0.026908,0.004315,0.002006,0.000872,0.337588,0.482431,-0.602345,-0.538958,101.090315,6.507365,-107.973532
11596,NaN,-1.081950,9.581299,-1.862524,-0.024062,-0.024774,0.007685,-0.000576,-0.000633,0.004534,0.337591,0.482385,-0.602387,-0.538950,101.091033,6.502202,-107.978505
11597,NaN,-1.092196,9.589437,-1.915519,0.026448,-0.031623,0.026911,0.002229,0.001210,0.005168,0.337595,0.482347,-0.602436,-0.538927,101.093533,6.496364,-107.982451
11598,NaN,-1.046432,9.599591,-1.900726,-0.003518,-0.069667,0.028810,-0.000168,-0.001941,0.002867,0.337588,0.482303,-0.602478,-0.538923,101.094423,6.492283,-107.987979
11599,NaN,-1.056039,9.578203,-1.935727,0.036632,-0.070073,0.015740,-0.001007,0.002404,0.004847,0.337602,0.482263,-0.602516,-0.538907,101.095153,6.486494,-107.991213
11600,NaN,-1.085097,9.596162,-1.938172,0.044103,-0.043434,0.037005,-0.002133,0.002664,0.001585,0.337611,0.482232,-0.602542,-0.538901,101.095228,6.482626,-107.993993
11601,NaN,-1.078120,9.573240,-1.943013,0.051494,-0.049793,0.014796,0.001126,-0.000260,0.003262,0.337607,0.482194,-0.602586,-0.538888,101.097030,6.478021,-107.998557
11602,NaN,-1.068222,9.594681,-1.907894,0.011243,-0.048360,0.027872,-0.002444,0.000308,-0.005012,0.337592,0.482176,-0.602599,-0.538899,101.096860,6.478122,-108.001938
11603,NaN,-1.090392,9.560121,-1.897142,0.015805,-0.022130,-0.005380,-0.005177,0.004069,-0.000247,0.337607,0.482150,-0.602610,-0.538901,101.095371,6.475012,-108.003668
11604,NaN,-1.068643,9.594771,-1.907210,0.011143,-0.047341,0.027877,-0.002444,0.000309,-0.005012,0.337592,0.482132,-0.602624,-0.538912,101.095200,6.475113,-108.007049
11605,NaN,-1.075838,9.617766,-1.901875,0.003650,-0.039937,0.050089,-0.007406,0.002859,-0.005415,0.337595,0.482114,-0.602618,-0.538932,101.092422,6.475042,-108.008886
11606,NaN,-1.093660,9.648942,-1.949139,0.046717,-0.039946,0.091531,-0.009324,0.004004,-0.003986,0.337610,0.482091,-0.602609,-0.538953,101.088533,6.474158,-108.010290
11607,NaN,-1.086482,9.596582,-1.935315,0.043756,-0.039871,0.037021,-0.009539,0.005523,-0.003830,0.337631,0.482072,-0.602598,-0.538970,101.084682,6.472902,-108.010797
11608,NaN,-1.070067,9.595194,-1.904280,0.010945,-0.045304,0.027887,-0.009324,0.004004,-0.003986,0.337645,0.482049,-0.602588,-0.538991,101.080793,6.472018,-108.012200
11609,NaN,-1.087070,9.596890,-1.933458,0.043657,-0.038856,0.037026,-0.012105,0.000431,-0.003266,0.337659,0.482010,-0.602580,-0.539027,101.075143,6.471005,-108.015652
11610,NaN,-1.070964,9.595544,-1.902012,0.010846,-0.044285,0.027891,-0.014572,0.002471,-0.009633,0.337666,0.481991,-0.602546,-0.539078,101.068219,6.473465,-108.017297
11611,NaN,-1.048975,9.600824,-1.893083,-0.004184,-0.063019,0.028854,-0.016443,0.000155,-0.005495,0.337683,0.481951,-0.602521,-0.539131,101.060095,6.473735,-108.020656
11612,NaN,-1.094944,9.590905,-1.906576,0.025727,-0.024011,0.026935,-0.013015,-0.000826,-0.006685,0.337685,0.481917,-0.602503,-0.539180,101.053817,6.474899,-108.024494
11613,NaN,-1.050325,9.601230,-1.890274,-0.004285,-0.061997,0.028861,-0.016299,0.003828,-0.009715,0.337701,0.481899,-0.602462,-0.539231,101.046060,6.477137,-108.025309
11614,NaN,-1.051164,9.601439,-1.888747,-0.004333,-0.061497,0.028864,-0.016515,0.005347,-0.009558,0.337722,0.481885,-0.602418,-0.539281,101.038205,6.479238,-108.025336
11615,NaN,-1.039471,9.585307,-1.914804,0.020833,-0.081210,0.016761,-0.017449,0.005821,-0.014332,0.337735,0.481885,-0.602359,-0.539338,101.029975,6.483853,-108.024514
11616,NaN,-1.092067,9.568743,-1.905319,0.032974,-0.028878,0.004734,-0.019392,0.008696,-0.014256,0.337760,0.481889,-0.602290,-0.539396,101.020745,6.488229,-108.022128
11617,NaN,-1.084184,9.619915,-1.886203,0.003064,-0.033798,0.050112,-0.020494,0.007228,-0.016165,0.337779,0.481893,-0.602216,-0.539463,101.010879,6.493720,-108.020305
11618,NaN,-1.078546,9.597228,-1.889185,0.010454,-0.040204,0.027909,-0.021480,0.007896,-0.009963,0.337819,0.481878,-0.602153,-0.539522,101.000349,6.495770,-108.018846
11619,NaN,-1.078788,9.567875,-1.869669,0.000061,-0.033251,-0.004396,-0.016157,0.007505,-0.013936,0.337834,0.481883,-0.602096,-0.539571,100.992962,6.499978,-108.017115
11620,NaN,-1.067890,9.581376,-1.913395,0.035570,-0.059431,0.015814,-0.021530,0.011359,-0.012670,0.337877,0.481886,-0.602021,-0.539626,100.982658,6.503173,-108.013399
11621,NaN,-1.046191,9.586689,-1.904198,0.020525,-0.078155,0.016787,-0.016783,0.010330,-0.012110,0.337908,0.481892,-0.601961,-0.539667,100.975070,6.506046,-108.010270
11622,NaN,-1.085787,9.553825,-1.922377,0.057899,-0.046084,-0.007354,-0.021772,0.014610,-0.013866,0.337958,0.481907,-0.601877,-0.539717,100.964852,6.509560,-108.004583
11623,NaN,-1.083615,9.598373,-1.880450,0.010209,-0.037637,0.027920,-0.020455,0.014560,-0.012116,0.338010,0.481919,-0.601801,-0.539759,100.955438,6.511976,-107.999065
11624,NaN,-1.124000,9.595149,-1.916124,0.057930,-0.011999,0.036084,-0.024359,0.011249,-0.014665,0.338054,0.481922,-0.601713,-0.539826,100.943532,6.516307,-107.995195
11625,NaN,-1.102506,9.600583,-1.906187,0.042883,-0.030718,0.037058,-0.028406,0.004259,-0.012998,0.338091,0.481895,-0.601631,-0.539918,100.928908,6.520341,-107.995407
11626,NaN,-1.116235,9.617242,-1.875894,0.017633,-0.009957,0.049153,-0.027475,0.003780,-0.008225,0.338138,0.481854,-0.601562,-0.540002,100.914656,6.521862,-107.996472
11627,NaN,-1.094425,9.622730,-1.865817,0.002583,-0.028670,0.050129,-0.027090,0.004210,-0.011248,0.338177,0.481824,-0.601488,-0.540088,100.900765,6.524917,-107.996908
11628,NaN,-1.105087,9.601847,-1.898312,0.042742,-0.029201,0.037063,-0.029396,0.004922,-0.006796,0.338235,0.481778,-0.601416,-0.540172,100.885469,6.525510,-107.997483
11629,NaN,-1.079242,9.622009,-1.830122,-0.030283,-0.033531,0.040998,-0.030739,0.006707,-0.009900,0.338294,0.481744,-0.601331,-0.540260,100.869625,6.527536,-107.996647
11630,NaN,-1.095793,9.594442,-1.839923,-0.007892,-0.020720,0.017821,-0.026377,0.005249,-0.006316,0.338348,0.481703,-0.601268,-0.540333,100.856073,6.527824,-107.997089
11631,NaN,-1.045941,9.641388,-1.862631,-0.009855,-0.078427,0.062205,-0.030305,0.003673,-0.010221,0.338396,0.481663,-0.601188,-0.540428,100.840292,6.530359,-107.997935
11632,NaN,-1.078715,9.585850,-1.884694,0.034974,-0.053320,0.015851,-0.031866,0.006978,-0.013165,0.338449,0.481638,-0.601090,-0.540525,100.823791,6.534314,-107.996655
11633,NaN,-1.092548,9.602487,-1.854093,0.009728,-0.032517,0.027939,-0.030767,0.008444,-0.011253,0.338510,0.481613,-0.600999,-0.540612,100.808068,6.536916,-107.994686
11634,NaN,-1.099541,9.596172,-1.828632,-0.008079,-0.018666,0.017825,-0.029065,0.008824,-0.012524,0.338563,0.481596,-0.600907,-0.540695,100.793284,6.540313,-107.992432
11635,NaN,-1.117276,9.598220,-1.856145,0.024645,-0.012263,0.026959,-0.028629,0.005789,-0.012846,0.338607,0.481572,-0.600822,-0.540784,100.778631,6.544096,-107.991802
11636,NaN,-1.082849,9.587555,-1.873622,0.034778,-0.051278,0.015862,-0.028823,0.005573,-0.011335,0.338653,0.481542,-0.600739,-0.540872,100.763761,6.547173,-107.991520
11637,NaN,-1.079994,9.602425,-1.813092,-0.023238,-0.036337,0.018813,-0.027313,0.005737,-0.011095,0.338698,0.481515,-0.600662,-0.540955,100.749844,6.549977,-107.991113
11638,NaN,-1.103702,9.597701,-1.818069,-0.008266,-0.016609,0.017829,-0.026440,-0.000335,-0.011740,0.338720,0.481475,-0.600595,-0.541051,100.735962,6.553913,-107.994135
11639,NaN,-1.131161,9.578535,-1.881017,0.064665,-0.011286,0.013898,-0.025316,-0.000605,-0.008478,0.338748,0.481427,-0.600540,-0.541138,100.722736,6.555919,-107.997599
11640,NaN,-1.099411,9.605174,-1.836029,0.009400,-0.028934,0.027950,-0.021222,0.002921,-0.007430,0.338779,0.481391,-0.600492,-0.541203,100.712001,6.557080,-107.999241
11641,NaN,-1.077340,9.610609,-1.826327,-0.005670,-0.047629,0.028940,-0.024192,-0.000876,-0.005216,0.338812,0.481334,-0.600448,-0.541282,100.699362,6.557280,-108.003190
11642,NaN,-1.139134,9.572823,-1.851663,0.046778,0.003586,0.003779,-0.024025,0.001078,-0.008076,0.338842,0.481291,-0.600394,-0.541361,100.686910,6.559000,-108.005808
11643,NaN,-1.056069,9.616402,-1.814255,-0.020788,-0.065817,0.029935,-0.022979,0.006013,-0.008858,0.338883,0.481265,-0.600333,-0.541426,100.675448,6.560514,-108.005475
11644,NaN,-1.114837,9.622625,-1.799592,-0.015962,-0.006569,0.040028,-0.019906,0.002868,-0.005678,0.338916,0.481227,-0.600293,-0.541484,100.665441,6.560693,-108.007335
11645,NaN,-1.102461,9.606801,-1.825659,0.009165,-0.026351,0.027958,-0.015839,0.008130,-0.005976,0.338954,0.481210,-0.600255,-0.541517,100.658191,6.560363,-108.006114
11646,NaN,-1.073396,9.589241,-1.821675,0.001519,-0.052017,0.006758,-0.017569,0.009485,-0.006056,0.338999,0.481195,-0.600209,-0.541554,100.649957,6.560053,-108.004184
11647,NaN,-1.080704,9.612342,-1.815185,-0.005959,-0.044534,0.028954,-0.014601,0.013284,-0.008268,0.339043,0.481201,-0.600160,-0.541575,100.643784,6.560467,-107.999817
11648,NaN,-1.096890,9.584572,-1.826519,0.016451,-0.031774,0.005769,-0.014961,0.011111,-0.003899,0.339093,0.481188,-0.600124,-0.541595,100.637123,6.558771,-107.997195
11649,NaN,-1.139645,9.618635,-1.799915,-0.001161,0.015243,0.039033,-0.015673,0.010086,-0.008836,0.339129,0.481185,-0.600076,-0.541628,100.630127,6.559842,-107.994574
11650,NaN,-1.140033,9.618844,-1.798550,-0.001202,0.015747,0.039032,-0.014252,0.003084,-0.001693,0.339159,0.481145,-0.600060,-0.541663,100.623326,6.557753,-107.996736
11651,NaN,-1.111335,9.630975,-1.812519,0.001460,-0.016296,0.050157,-0.010133,0.004872,0.000708,0.339192,0.481109,-0.600059,-0.541675,100.619059,6.554003,-107.998083
11652,NaN,-1.146685,9.642171,-1.791196,-0.008713,0.023745,0.061222,-0.015103,0.007418,0.000306,0.339242,0.481073,-0.600039,-0.541698,100.612027,6.550330,-107.998000
11653,NaN,-1.080659,9.583931,-1.790250,-0.016571,-0.035036,-0.003353,-0.008597,0.003299,0.002297,0.339271,0.481031,-0.600048,-0.541707,100.608521,6.545853,-108.000395
11654,NaN,-1.075231,9.620652,-1.829684,0.011448,-0.054295,0.039100,-0.008404,0.003518,0.000787,0.339295,0.480994,-0.600054,-0.541719,100.605070,6.542321,-108.002573
11655,NaN,-1.074284,9.591097,-1.811354,0.001077,-0.047370,0.006782,-0.008404,0.003518,0.000787,0.339319,0.480958,-0.600060,-0.541729,100.601694,6.538666,-108.004700
11656,NaN,-1.081066,9.614124,-1.805504,-0.006389,-0.039896,0.028974,-0.007526,-0.002553,0.000133,0.339321,0.480908,-0.600076,-0.541754,100.598362,6.536141,-108.010250
11657,NaN,-1.081282,9.614221,-1.804859,-0.006438,-0.039367,0.028976,-0.006119,0.004560,-0.005012,0.339328,0.480895,-0.600073,-0.541765,100.596425,6.535643,-108.011156
11658,NaN,-1.075613,9.621112,-1.827034,0.011255,-0.052230,0.039112,-0.004364,0.001468,-0.003586,0.339324,0.480873,-0.600082,-0.541777,100.595209,6.534789,-108.014032
11659,NaN,-1.104608,9.609225,-1.811550,0.008512,-0.019133,0.027975,-0.004364,0.001468,-0.003586,0.339321,0.480851,-0.600092,-0.541787,100.594075,6.533813,-108.016853
11660,NaN,-1.069561,9.598283,-1.831418,0.018577,-0.058175,0.016929,-0.002247,0.000552,-0.006527,0.339302,0.480838,-0.600102,-0.541800,100.594049,6.534712,-108.019936
11661,NaN,-1.075433,9.561694,-1.790944,-0.009530,-0.037886,-0.025527,-0.004003,0.003644,-0.007953,0.339292,0.480836,-0.600099,-0.541812,100.593331,6.535968,-108.021070
11662,NaN,-1.047625,9.573550,-1.805929,-0.006891,-0.069952,-0.014381,0.001109,0.004794,-0.011756,0.339263,0.480856,-0.600097,-0.541813,100.595564,6.539364,-108.021194
11663,NaN,-1.068469,9.612281,-1.773340,-0.039513,-0.042086,0.019859,0.002567,0.008432,-0.014207,0.339235,0.480896,-0.600089,-0.541804,100.598981,6.543633,-108.018973
11664,NaN,-1.065829,9.545221,-1.819107,0.015480,-0.056711,-0.037570,0.001715,0.003716,-0.014941,0.339193,0.480924,-0.600084,-0.541811,100.601530,6.548937,-108.019370
11665,NaN,-1.017722,9.621477,-1.862023,0.023676,-0.120722,0.039245,0.003340,0.009312,-0.020249,0.339150,0.480986,-0.600061,-0.541808,100.605524,6.556518,-108.015981
11666,NaN,-1.083351,9.590370,-1.809800,0.000549,-0.041711,0.006808,0.006205,0.011015,-0.030579,0.339076,0.481089,-0.600018,-0.541811,100.611309,6.569859,-108.010579
11667,NaN,-1.085847,9.590002,-1.810256,0.000496,-0.041183,0.006810,0.000431,0.014417,-0.026288,0.339039,0.481178,-0.599965,-0.541815,100.614049,6.580303,-108.003628
11668,NaN,-1.059464,9.601632,-1.825745,0.003120,-0.073246,0.017967,0.005623,0.010358,-0.026049,0.338977,0.481264,-0.599932,-0.541813,100.619404,6.591162,-107.999078
11669,NaN,-1.143339,9.631639,-1.838879,0.033417,-0.001165,0.059296,0.003477,0.013009,-0.024456,0.338933,0.481349,-0.599893,-0.541808,100.623768,6.600720,-107.993124
11670,NaN,-1.106283,9.634681,-1.801636,-0.014474,-0.025659,0.051184,0.005181,0.013394,-0.025723,0.338882,0.481441,-0.599855,-0.541800,100.629066,6.611073,-107.986885
11671,NaN,-1.139768,9.578323,-1.827663,0.030432,-0.000750,0.004785,0.006109,0.012900,-0.020949,0.338841,0.481520,-0.599832,-0.541781,100.634890,6.618669,-107.981338
11672,NaN,-1.103049,9.611122,-1.808191,-0.007153,-0.031621,0.029004,0.007453,0.011108,-0.017847,0.338800,0.481587,-0.599823,-0.541758,100.641246,6.624828,-107.977232
11673,NaN,-1.116614,9.597063,-1.763894,-0.042651,-0.004332,0.008715,0.010473,0.011438,-0.017360,0.338753,0.481658,-0.599823,-0.541724,100.649444,6.630557,-107.972915
11674,NaN,-1.138084,9.584105,-1.853176,0.048021,-0.012605,0.014932,0.010362,0.006006,-0.011807,0.338706,0.481698,-0.599845,-0.541694,100.657059,6.633854,-107.972343
11675,NaN,-1.136109,9.627796,-1.814051,0.000357,-0.003874,0.050170,0.014532,0.004325,-0.006707,0.338657,0.481724,-0.599893,-0.541647,100.666977,6.634335,-107.973208
11676,NaN,-1.107253,9.609777,-1.812763,-0.007343,-0.029555,0.029010,0.010195,0.004049,-0.008949,0.338612,0.481750,-0.599925,-0.541617,100.674333,6.636231,-107.974049
11677,NaN,-1.123547,9.581489,-1.826490,0.015089,-0.016854,0.005808,0.011345,0.002038,-0.004336,0.338570,0.481758,-0.599975,-0.541581,100.682258,6.635621,-107.976468
11678,NaN,-1.117998,9.588028,-1.850411,0.032764,-0.029737,0.015958,0.014753,0.002808,-0.006870,0.338516,0.481782,-0.600026,-0.541538,100.692119,6.636478,-107.978235
11679,NaN,-1.125344,9.610580,-1.846697,0.025305,-0.022202,0.038140,0.012883,0.000467,-0.002744,0.338470,0.481783,-0.600086,-0.541498,100.700775,6.635137,-107.981705
11680,NaN,-1.102182,9.585753,-1.822842,-0.000119,-0.034503,0.006836,0.014809,-0.000666,-0.004174,0.338412,0.481789,-0.600149,-0.541458,100.710407,6.634846,-107.985729
11681,NaN,-1.067148,9.574539,-1.844458,0.009880,-0.073552,-0.004165,0.016234,0.004711,-0.007976,0.338358,0.481824,-0.600199,-0.541406,100.721331,6.636002,-107.986211
11682,NaN,-1.109370,9.578202,-1.803298,-0.017925,-0.020089,-0.003313,0.016513,-0.000280,-0.005441,0.338294,0.481838,-0.600263,-0.541363,100.731980,6.636384,-107.989881
11683,NaN,-1.059567,9.624661,-1.830112,-0.020121,-0.077665,0.041229,0.019476,0.003526,-0.007651,0.338228,0.481874,-0.600324,-0.541304,100.744699,6.637486,-107.991075
11684,NaN,-1.075971,9.596165,-1.844735,0.002323,-0.065007,0.018025,0.020957,0.005429,-0.008757,0.338161,0.481921,-0.600383,-0.541239,100.758309,6.639127,-107.991152
11685,NaN,-1.089754,9.611721,-1.819134,-0.022848,-0.044072,0.030052,0.020678,0.010420,-0.011294,0.338104,0.481988,-0.600427,-0.541166,100.772195,6.641537,-107.988055
11686,NaN,-1.107228,9.612848,-1.851484,0.009901,-0.037789,0.039179,0.020204,0.015192,-0.012321,0.338059,0.482071,-0.600459,-0.541086,100.786059,6.644138,-107.982215
11687,NaN,-1.124748,9.613951,-1.883851,0.042645,-0.031485,0.048306,0.020175,0.016929,-0.013671,0.338016,0.482162,-0.600485,-0.541002,100.800119,6.647186,-107.975175
11688,NaN,-1.115167,9.605024,-1.832989,-0.007901,-0.023369,0.029026,0.018944,0.011773,-0.011377,0.337966,0.482230,-0.600521,-0.540932,100.813025,6.649620,-107.971372
11689,NaN,-1.125665,9.583260,-1.870357,0.032252,-0.024097,0.015975,0.021712,0.015361,-0.012078,0.337919,0.482316,-0.600557,-0.540846,100.827841,6.651941,-107.965354
11690,NaN,-1.116760,9.604010,-1.837326,-0.007993,-0.022341,0.029028,0.021100,0.016443,-0.008896,0.337884,0.482393,-0.600597,-0.540754,100.842259,6.652474,-107.959174
11691,NaN,-1.139049,9.568630,-1.829637,-0.003244,0.003711,-0.004341,0.024564,0.013742,-0.008730,0.337834,0.482468,-0.600652,-0.540657,100.858529,6.653074,-107.954468
11692,NaN,-1.127297,9.581687,-1.877418,0.032122,-0.022578,0.015979,0.024455,0.008318,-0.003167,0.337783,0.482512,-0.600729,-0.540565,100.874263,6.651257,-107.953513
11693,NaN,-1.127445,9.581192,-1.879855,0.032074,-0.022056,0.015981,0.024454,0.008318,-0.003168,0.337732,0.482555,-0.600806,-0.540472,100.890069,6.649317,-107.952472
11694,NaN,-1.082254,9.591125,-1.867134,0.001839,-0.059878,0.018058,0.025323,0.011304,-0.001093,0.337693,0.482602,-0.600885,-0.540366,100.906470,6.646010,-107.950053
11695,NaN,-1.102167,9.629630,-1.836940,-0.030718,-0.031883,0.052247,0.022052,0.014223,-0.002774,0.337667,0.482657,-0.600946,-0.540266,100.921262,6.643207,-107.945677
11696,NaN,-1.127191,9.579757,-1.887306,0.031942,-0.020540,0.015984,0.027476,0.015976,0.001385,0.337644,0.482713,-0.601029,-0.540138,100.939171,6.637996,-107.940885
11697,NaN,-1.120551,9.586017,-1.912833,0.049590,-0.033417,0.026150,0.028818,0.014193,0.004491,0.337621,0.482757,-0.601126,-0.540005,100.957771,6.631109,-107.937350
11698,NaN,-1.093871,9.605308,-1.850268,-0.023454,-0.037390,0.030078,0.028984,0.016145,0.001627,0.337595,0.482815,-0.601214,-0.539872,100.976550,6.625740,-107.932492
11699,NaN,-1.080242,9.588679,-1.880813,0.001596,-0.057309,0.018073,0.028593,0.015713,0.004649,0.337577,0.482862,-0.601308,-0.539736,100.995102,6.618594,-107.928109
11700,NaN,-1.124865,9.577721,-1.898992,0.031758,-0.018505,0.015989,0.028732,0.019399,0.000432,0.337558,0.482932,-0.601386,-0.539598,101.013963,6.613539,-107.921281
11701,NaN,-1.095800,9.589118,-1.917080,0.034293,-0.050536,0.027202,0.030687,0.016531,0.000359,0.337527,0.482998,-0.601475,-0.539460,101.033854,6.608716,-107.915986
11702,NaN,-1.070274,9.638035,-1.872379,-0.028464,-0.060839,0.063470,0.028703,0.021135,-0.000923,0.337509,0.483076,-0.601547,-0.539320,101.052827,6.604228,-107.908029
11703,NaN,-1.017074,9.595408,-1.847513,-0.061617,-0.099310,0.011056,0.033146,0.026841,-0.004250,0.337490,0.483188,-0.601613,-0.539158,101.074799,6.600849,-107.896400
11704,NaN,-1.078696,9.585739,-1.896618,0.001353,-0.054768,0.018088,0.034152,0.033514,-0.006399,0.337483,0.483325,-0.601665,-0.538982,101.097768,6.598070,-107.880833
11705,NaN,-1.070073,9.635989,-1.882992,-0.028619,-0.059281,0.063479,0.037588,0.032549,-0.007579,0.337461,0.483470,-0.601726,-0.538798,101.122773,6.595932,-107.865624
11706,NaN,-1.072802,9.590870,-1.927046,0.018934,-0.067151,0.028265,0.037308,0.037536,-0.010133,0.337447,0.483635,-0.601771,-0.538608,101.147858,6.594794,-107.847367
11707,NaN,-1.092885,9.629159,-1.898592,-0.013603,-0.039109,0.062435,0.036018,0.043183,-0.006486,0.337464,0.483802,-0.601812,-0.538401,101.172573,6.590844,-107.826206
11708,NaN,-1.102400,9.606938,-1.937605,0.026551,-0.039932,0.049389,0.033115,0.048261,-0.012557,0.337487,0.483996,-0.601822,-0.538202,101.195981,6.589861,-107.801611
11709,NaN,-1.138321,9.617121,-1.921469,0.016537,0.000198,0.060335,0.033140,0.046531,-0.011204,0.337508,0.484181,-0.601838,-0.538004,101.219306,6.588172,-107.778009
11710,NaN,-1.138407,9.616371,-1.925169,0.016493,0.000696,0.060335,0.033191,0.043068,-0.008494,0.337526,0.484349,-0.601866,-0.537810,101.242367,6.585465,-107.756809
11711,NaN,-1.145367,9.638543,-1.923946,0.009044,0.008282,0.082503,0.031932,0.039650,-0.007542,0.337539,0.484503,-0.601899,-0.537626,101.264547,6.582473,-107.737541
11712,NaN,-1.109641,9.626915,-1.947039,0.018958,-0.030834,0.071565,0.027881,0.034375,-0.007237,0.337546,0.484634,-0.601931,-0.537467,101.283983,6.580017,-107.721401
11713,NaN,-1.128987,9.635879,-1.900040,-0.023849,0.003575,0.073381,0.029163,0.036065,-0.006836,0.337558,0.484772,-0.601964,-0.537299,101.304293,6.577014,-107.704216
11714,NaN,-1.108899,9.596147,-1.935230,0.008579,-0.023476,0.039225,0.023804,0.030832,-0.008289,0.337562,0.484890,-0.601988,-0.537162,101.321176,6.575538,-107.689963
11715,NaN,-1.160311,9.578360,-1.930827,0.021102,0.028726,0.026933,0.028352,0.029610,-0.006191,0.337557,0.485007,-0.602032,-0.537011,101.340603,6.572885,-107.676536
11716,NaN,-1.108108,9.565466,-1.923064,-0.001800,-0.016122,0.006883,0.025413,0.024076,-0.002614,0.337552,0.485093,-0.602086,-0.536877,101.357896,6.568973,-107.666749
11717,NaN,-1.088540,9.555341,-1.975644,0.040909,-0.049507,0.005078,0.021589,0.017280,-0.002460,0.337537,0.485153,-0.602141,-0.536769,101.372567,6.565607,-107.660696
11718,NaN,-1.152962,9.553977,-1.943164,0.028369,0.023153,0.004764,0.020556,0.012341,-0.001656,0.337511,0.485197,-0.602204,-0.536676,101.386305,6.562478,-107.657654
11719,NaN,-1.124841,9.594960,-1.978250,0.041157,-0.015217,0.048351,0.023597,0.010950,0.000198,0.337479,0.485236,-0.602281,-0.536574,101.401670,6.558334,-107.655462
11720,NaN,-1.101065,9.570325,-1.954896,0.015696,-0.027517,0.017068,0.021966,0.005375,0.005537,0.337448,0.485241,-0.602377,-0.536482,101.415672,6.551954,-107.657182
11721,NaN,-1.077198,9.545715,-1.931511,-0.009766,-0.039795,-0.014214,0.023647,0.007488,0.002914,0.337413,0.485263,-0.602467,-0.536382,101.430850,6.546685,-107.657234
11722,NaN,-1.097916,9.613989,-1.919552,-0.031996,-0.018053,0.052278,0.022789,0.004493,0.000849,0.337365,0.485282,-0.602555,-0.536298,101.445327,6.543038,-107.658919
11723,NaN,-1.070614,9.551435,-1.958701,0.007799,-0.052203,-0.004026,0.022738,0.007955,-0.001870,0.337320,0.485318,-0.602630,-0.536208,101.460114,6.540404,-107.658211
11724,NaN,-1.039446,9.607343,-1.936247,-0.037313,-0.075788,0.042433,0.027060,0.008254,0.000385,0.337271,0.485355,-0.602722,-0.536102,101.477286,6.536590,-107.657719
11725,NaN,-1.061890,9.601508,-1.946673,-0.022225,-0.056142,0.041370,0.027009,0.011715,-0.002335,0.337226,0.485409,-0.602802,-0.535991,101.494726,6.533767,-107.654934
11726,NaN,-1.065027,9.585925,-2.007043,0.035592,-0.070454,0.038517,0.023744,0.014625,-0.004040,0.337193,0.485471,-0.602863,-0.535887,101.510465,6.531709,-107.650335
11727,NaN,-1.071290,9.578825,-1.986869,0.017876,-0.056517,0.028333,0.024801,0.017834,-0.003489,0.337168,0.485541,-0.602924,-0.535771,101.527030,6.528829,-107.643966
11728,NaN,-1.093897,9.572988,-1.997109,0.032968,-0.036905,0.027267,0.023018,0.022644,-0.006308,0.337155,0.485630,-0.602965,-0.535653,101.542897,6.527124,-107.634576
11729,NaN,-1.093932,9.572508,-1.999390,0.032922,-0.036391,0.027269,0.020077,0.017114,-0.002723,0.337142,0.485688,-0.603015,-0.535551,101.556696,6.523901,-107.628624
11730,NaN,-1.100016,9.565576,-1.978590,0.015207,-0.022476,0.017081,0.014904,0.019430,-0.001655,0.337151,0.485740,-0.603051,-0.535458,101.567647,6.519948,-107.621588
11731,NaN,-1.116250,9.566462,-2.010741,0.047972,-0.016268,0.026201,0.017738,0.012216,-0.003672,0.337126,0.485784,-0.603102,-0.535377,101.579808,6.517809,-107.618380
11732,NaN,-1.083740,9.563620,-1.951654,-0.017699,-0.027159,0.007966,0.016730,0.005547,-0.001500,0.337089,0.485802,-0.603166,-0.535312,101.590912,6.515364,-107.619207
11733,NaN,-1.061298,9.568574,-1.945654,-0.032905,-0.045754,0.009041,0.018438,0.005929,-0.002763,0.337046,0.485828,-0.603231,-0.535241,101.603111,6.513450,-107.619630
11734,NaN,-1.070735,9.546461,-1.982732,0.007243,-0.046677,-0.003998,0.021427,0.008000,-0.003628,0.336999,0.485867,-0.603299,-0.535160,101.617091,6.511916,-107.618825
11735,NaN,-1.078690,9.598362,-1.998195,0.010078,-0.045380,0.050515,0.021202,0.009520,-0.003478,0.336959,0.485908,-0.603364,-0.535074,101.631061,6.509979,-107.617144
11736,NaN,-1.094401,9.569637,-2.012828,0.032569,-0.032884,0.027283,0.022909,0.009901,-0.004742,0.336911,0.485958,-0.603429,-0.534985,101.646026,6.508850,-107.615136
11737,NaN,-1.130276,9.580206,-1.995511,0.022627,0.007278,0.038169,0.022056,0.012521,-0.001419,0.336883,0.486003,-0.603496,-0.534886,101.660693,6.505419,-107.611975
11738,NaN,-1.121164,9.601436,-1.962717,-0.017622,0.009201,0.051208,0.023585,0.005344,-0.005191,0.336819,0.486044,-0.603570,-0.534807,101.675760,6.505069,-107.612490
11739,NaN,-1.060350,9.610369,-1.919209,-0.080800,-0.034171,0.044249,0.025969,0.001166,-0.006902,0.336732,0.486082,-0.603653,-0.534732,101.691979,6.506027,-107.615091
11740,NaN,-1.048355,9.622824,-1.967141,-0.045543,-0.060536,0.064645,0.026347,0.008935,-0.005908,0.336670,0.486138,-0.603727,-0.534637,101.708868,6.505663,-107.613493
11741,NaN,-1.041816,9.599314,-1.974420,-0.038209,-0.067130,0.042493,0.026297,0.012393,-0.008635,0.336612,0.486212,-0.603788,-0.534538,101.726018,6.506286,-107.609564
11742,NaN,-1.081216,9.594509,-2.015263,0.009716,-0.041861,0.050530,0.026046,0.015641,-0.009850,0.336561,0.486298,-0.603839,-0.534434,101.743216,6.507350,-107.603719
11743,NaN,-1.090390,9.542646,-2.035089,0.039602,-0.036479,0.005140,0.029236,0.017922,-0.012229,0.336503,0.486401,-0.603890,-0.534318,101.762438,6.509333,-107.596289
11744,NaN,-1.114410,9.566029,-2.063668,0.064982,-0.023206,0.036413,0.024062,0.020238,-0.011168,0.336466,0.486500,-0.603926,-0.534211,101.778811,6.510595,-107.587693
11745,NaN,-1.105743,9.587168,-2.031354,0.024744,-0.021240,0.049452,0.028380,0.020547,-0.008910,0.336427,0.486600,-0.603978,-0.534086,101.797620,6.510405,-107.579101
11746,NaN,-1.105494,9.557144,-2.015931,0.014429,-0.014437,0.017098,0.021625,0.027873,-0.012192,0.336417,0.486718,-0.603991,-0.533970,101.813099,6.511342,-107.566074
11747,NaN,-1.084289,9.591283,-2.028919,0.009474,-0.039333,0.050541,0.028605,0.019030,-0.009057,0.336372,0.486814,-0.604046,-0.533848,101.832001,6.511410,-107.558383
11748,NaN,-1.084128,9.561228,-2.013635,-0.000841,-0.032532,0.018187,0.025542,0.022141,-0.012286,0.336335,0.486924,-0.604080,-0.533734,101.849359,6.513066,-107.548578
11749,NaN,-1.078497,9.567056,-2.038993,0.016752,-0.045456,0.028393,0.025339,0.021934,-0.010775,0.336302,0.487028,-0.604117,-0.533618,101.866610,6.513756,-107.539018
11750,NaN,-1.056539,9.571793,-2.033950,0.001524,-0.064063,0.029484,0.026140,0.028394,-0.011452,0.336284,0.487153,-0.604143,-0.533485,101.884701,6.514201,-107.525783
11751,NaN,-1.081641,9.520978,-2.084126,0.064236,-0.053067,-0.006790,0.025661,0.033161,-0.012525,0.336280,0.487292,-0.604158,-0.533344,101.902828,6.514528,-107.509702
11752,NaN,-1.021661,9.559411,-2.059003,0.011269,-0.102726,0.018637,0.025206,0.036202,-0.012234,0.336286,0.487438,-0.604167,-0.533196,101.920894,6.514479,-107.491968
11753,NaN,-1.067197,9.547956,-2.077394,0.041567,-0.064032,0.016459,0.025383,0.038138,-0.015114,0.336291,0.487598,-0.604166,-0.533047,101.939281,6.515671,-107.472748
11754,NaN,-1.074964,9.570199,-2.075622,0.034132,-0.056410,0.038612,0.023624,0.041212,-0.016587,0.336304,0.487769,-0.604152,-0.532900,101.956822,6.517457,-107.451667
11755,NaN,-1.068629,9.546574,-2.083004,0.041459,-0.063037,0.016465,0.027089,0.038522,-0.016378,0.336302,0.487936,-0.604152,-0.532747,101.976205,6.519292,-107.432104
11756,NaN,-1.081893,9.533061,-2.040313,0.006130,-0.035664,-0.003951,0.019747,0.043495,-0.013778,0.336339,0.488097,-0.604130,-0.532601,101.991633,6.519219,-107.410071
11757,NaN,-1.163209,9.532734,-2.039025,0.026614,0.042692,0.004703,0.022438,0.032618,-0.011519,0.336343,0.488227,-0.604140,-0.532468,102.007934,6.519026,-107.394423
11758,NaN,-1.103220,9.571327,-2.013603,-0.026371,-0.006934,0.030140,0.023739,0.032587,-0.009756,0.336349,0.488354,-0.604157,-0.532329,102.024896,6.517988,-107.379024
11759,NaN,-1.126651,9.594648,-2.042324,-0.000985,0.006364,0.061403,0.025268,0.031037,-0.008138,0.336350,0.488474,-0.604185,-0.532186,102.042689,6.516089,-107.364644
11760,NaN,-1.148448,9.559305,-2.034654,0.003898,0.032235,0.027944,0.024289,0.022646,-0.004575,0.336338,0.488559,-0.604233,-0.532062,102.059258,6.513327,-107.355478
11761,NaN,-1.097260,9.575993,-2.044319,-0.008909,-0.018862,0.040354,0.026431,0.021712,-0.007492,0.336310,0.488654,-0.604281,-0.531936,102.077124,6.512180,-107.346425
11762,NaN,-1.097415,9.575387,-2.047069,-0.008962,-0.018374,0.040355,0.026249,0.019782,-0.004612,0.336284,0.488736,-0.604339,-0.531813,102.094632,6.509777,-107.338871
11763,NaN,-1.077627,9.564660,-2.099632,0.033616,-0.051913,0.038639,0.026705,0.016743,-0.004900,0.336248,0.488810,-0.604403,-0.531695,102.112279,6.507765,-107.332937
11764,NaN,-1.071246,9.570452,-2.125035,0.051188,-0.064879,0.048858,0.025563,0.024344,-0.004184,0.336238,0.488901,-0.604452,-0.531562,102.129679,6.504569,-107.322864
11765,NaN,-1.048109,9.546006,-2.101528,0.025677,-0.077151,0.017601,0.022481,0.029171,-0.008798,0.336239,0.489014,-0.604474,-0.531432,102.145760,6.503241,-107.309441
11766,NaN,-1.058673,9.581999,-2.175745,0.086321,-0.090791,0.069300,0.027060,0.044169,-0.011041,0.336268,0.489180,-0.604477,-0.531257,102.165377,6.501488,-107.287360
11767,NaN,-0.982400,9.586010,-1.945376,-0.153313,-0.089946,0.016330,0.020351,0.048032,-0.011627,0.336324,0.489348,-0.604454,-0.531093,102.181466,6.499453,-107.262972
11768,NaN,-1.134170,9.582941,-2.043953,-0.019096,0.024313,0.051180,0.021242,0.043678,-0.013568,0.336358,0.489511,-0.604436,-0.530941,102.197751,6.499161,-107.240862
11769,NaN,-1.098798,9.571191,-2.065866,-0.009357,-0.014862,0.040360,0.025327,0.041604,-0.017884,0.336366,0.489688,-0.604423,-0.530788,102.216379,6.501394,-107.219347
11770,NaN,-1.077592,9.605261,-2.079137,-0.014366,-0.039737,0.073833,0.026257,0.037718,-0.010353,0.336379,0.489834,-0.604436,-0.530631,102.235114,6.500012,-107.200989
11771,NaN,-1.101279,9.524903,-2.110935,0.038101,-0.022581,0.005188,0.023246,0.037368,-0.010863,0.336397,0.489976,-0.604441,-0.530482,102.252180,6.498814,-107.182717
11772,NaN,-1.087261,9.478417,-2.122418,0.052791,-0.036434,-0.039098,0.025690,0.029739,-0.009803,0.336388,0.490098,-0.604468,-0.530345,102.270072,6.498084,-107.168923
11773,NaN,-1.140063,9.519036,-2.154891,0.086017,0.003082,0.013194,0.025068,0.029129,-0.005267,0.336392,0.490204,-0.604505,-0.530202,102.287586,6.494750,-107.155970
11774,NaN,-1.105600,9.532473,-2.038678,-0.037507,0.007366,-0.002227,0.024066,0.022464,-0.003061,0.336384,0.490284,-0.604556,-0.530075,102.303989,6.491124,-107.147104
11775,NaN,-1.082787,9.537468,-2.033253,-0.052776,-0.011187,-0.001116,0.024406,0.012323,0.003658,0.336362,0.490317,-0.604642,-0.529961,102.319922,6.484838,-107.144723
11776,NaN,-1.091129,9.514872,-2.070847,-0.012633,-0.012271,-0.014144,0.028542,0.006797,0.002093,0.336308,0.490347,-0.604744,-0.529851,102.337819,6.480239,-107.145320
11777,NaN,-1.055178,9.532460,-2.111099,0.007323,-0.057747,0.007422,0.029193,0.007885,0.007025,0.336271,0.490366,-0.604858,-0.529726,102.356161,6.472611,-107.145850
11778,NaN,-1.018490,9.520744,-2.133170,0.017034,-0.096965,-0.003375,0.030357,0.018201,0.000555,0.336243,0.490434,-0.604941,-0.529585,102.375845,6.467474,-107.139837
11779,NaN,-0.986766,9.547705,-2.093431,-0.038449,-0.113937,0.010772,0.030920,0.026185,-0.000006,0.336238,0.490526,-0.605012,-0.529423,102.396441,6.461532,-107.129204
11780,NaN,-1.044742,9.552629,-2.085814,-0.033058,-0.054692,0.020458,0.036893,0.030339,-0.001735,0.336225,0.490644,-0.605087,-0.529236,102.420668,6.456177,-107.116075
11781,NaN,-1.060898,9.581864,-2.138641,0.009947,-0.054870,0.061942,0.036641,0.033585,-0.002971,0.336220,0.490774,-0.605153,-0.529043,102.445051,6.450973,-107.100909
11782,NaN,-1.044683,9.580245,-2.111903,-0.022942,-0.059978,0.052832,0.037056,0.033991,-0.005998,0.336206,0.490915,-0.605211,-0.528854,102.469659,6.447540,-107.085199
11783,NaN,-1.000697,9.516058,-2.120829,-0.016126,-0.100077,-0.012463,0.038286,0.039136,-0.008355,0.336200,0.491079,-0.605259,-0.528652,102.495407,6.444646,-107.066244
11784,NaN,-1.061528,9.504906,-2.171298,0.047088,-0.055902,-0.005584,0.035465,0.040708,-0.011755,0.336195,0.491252,-0.605288,-0.528461,102.519607,6.443587,-107.046036
11785,NaN,-0.994334,9.624112,-2.148818,-0.025741,-0.116322,0.097684,0.035923,0.037669,-0.012032,0.336180,0.491419,-0.605323,-0.528275,102.543959,6.442915,-107.027445
11786,NaN,-1.116488,9.499053,-2.248010,0.127849,-0.024705,0.011525,0.031578,0.040784,-0.017066,0.336172,0.491602,-0.605328,-0.528104,102.566012,6.444800,-107.006531
11787,NaN,-1.078033,9.473895,-2.193987,0.069489,-0.042563,-0.028834,0.023240,0.037373,-0.010923,0.336190,0.491743,-0.605333,-0.527956,102.583060,6.443529,-106.988245
11788,NaN,-1.126674,9.546313,-2.111504,-0.012845,0.027094,0.029011,0.023160,0.024626,-0.009247,0.336173,0.491846,-0.605362,-0.527837,102.599158,6.443047,-106.977405
11789,NaN,-1.075635,9.563030,-2.120746,-0.025765,-0.023965,0.041493,0.025166,0.018319,-0.006512,0.336141,0.491927,-0.605415,-0.527722,102.616047,6.441683,-106.970398
11790,NaN,-1.106260,9.505442,-2.147868,0.019371,0.000217,-0.005027,0.027633,0.008969,-0.004047,0.336080,0.491980,-0.605495,-0.527620,102.633646,6.440247,-106.969023
11791,NaN,-1.070193,9.493667,-2.169410,0.029039,-0.038996,-0.015800,0.025708,0.008391,-0.001279,0.336030,0.492019,-0.605578,-0.527519,102.650145,6.437199,-106.968264
11792,NaN,-1.010128,9.532632,-2.143963,-0.024090,-0.088452,0.009715,0.029967,0.012169,-0.001750,0.335979,0.492078,-0.605665,-0.527397,102.669251,6.434077,-106.965380
11793,NaN,-1.060527,9.485489,-2.121899,-0.021519,-0.030114,-0.035146,0.032090,0.015169,0.002059,0.335942,0.492136,-0.605762,-0.527255,102.689785,6.428309,-106.961230
11794,NaN,-1.104072,9.548096,-2.120583,-0.028432,0.011016,0.030130,0.034265,0.012505,0.000532,0.335887,0.492195,-0.605865,-0.527116,102.711342,6.423868,-106.958448
11795,NaN,-1.067612,9.536178,-2.142871,-0.018775,-0.028197,0.019364,0.034265,0.012506,0.000531,0.335833,0.492255,-0.605969,-0.526975,102.732974,6.419287,-106.955607
11796,NaN,-1.137991,9.603165,-2.069374,-0.085830,0.060579,0.076047,0.033072,0.003926,0.005651,0.335769,0.492274,-0.606095,-0.526853,102.753234,6.413067,-106.958305
11797,NaN,-1.074519,9.586855,-2.163950,-0.016033,-0.026271,0.073875,0.038927,-0.001226,0.002858,0.335668,0.492298,-0.606240,-0.526728,102.776641,6.408923,-106.963485
11798,NaN,-0.994841,9.540638,-2.209571,0.010690,-0.112450,0.030226,0.038424,0.005258,0.000367,0.335581,0.492346,-0.606366,-0.526595,102.800126,6.405488,-106.964764
11799,NaN,-1.046100,9.522541,-2.206372,0.023516,-0.060395,0.017724,0.033663,0.007964,-0.001649,0.335509,0.492399,-0.606470,-0.526471,102.821159,6.402697,-106.964206
11800,NaN,-0.972989,9.573721,-2.227067,0.005533,-0.136769,0.063746,0.035685,0.019567,-0.004741,0.335458,0.492495,-0.606551,-0.526319,102.844044,6.400296,-106.956789
11801,NaN,-1.068323,9.515393,-2.221244,0.038632,-0.040384,0.016596,0.031080,0.028142,-0.002945,0.335450,0.492601,-0.606612,-0.526156,102.864879,6.395656,-106.944724
11802,NaN,-1.091924,9.463831,-2.271037,0.101377,-0.029761,-0.019688,0.022755,0.022505,-0.004886,0.335440,0.492684,-0.606654,-0.526036,102.880540,6.392956,-106.935640
11803,NaN,-1.120129,9.526027,-2.238227,0.061643,0.005871,0.036460,0.020211,0.019105,-0.005666,0.335424,0.492756,-0.606694,-0.525932,102.894621,6.390983,-106.928306
11804,NaN,-1.075097,9.536711,-2.224357,0.031080,-0.031716,0.038733,0.021388,0.010296,0.004520,0.335405,0.492775,-0.606777,-0.525831,102.908600,6.384587,-106.927295
11805,NaN,-1.110120,9.518457,-2.188995,0.011097,0.014781,0.017101,0.019306,0.003851,0.003476,0.335369,0.492778,-0.606862,-0.525752,102.921077,6.379460,-106.929713
11806,NaN,-1.028725,9.518000,-2.193573,-0.009783,-0.062534,0.008634,0.017591,0.003475,0.004731,0.335339,0.492773,-0.606947,-0.525679,102.932452,6.373819,-106.932565
11807,NaN,-1.020873,9.494699,-2.199444,-0.002495,-0.069256,-0.013491,0.018420,0.006501,0.006765,0.335322,0.492771,-0.607034,-0.525591,102.944540,6.366516,-106.933920
11808,NaN,-1.056274,9.505594,-2.182621,-0.012241,-0.029044,-0.002750,0.021888,0.003817,0.007016,0.335288,0.492767,-0.607135,-0.525500,102.958365,6.359557,-106.936877
11809,NaN,-1.049653,9.540383,-2.225989,0.015494,-0.048286,0.039882,0.020096,0.010314,0.002746,0.335268,0.492790,-0.607210,-0.525404,102.971708,6.354008,-106.935573
11810,NaN,-1.127254,9.527326,-2.149331,-0.031723,0.051414,0.018722,0.024930,0.000740,0.010293,0.335226,0.492773,-0.607332,-0.525306,102.987039,6.345617,-106.940686
11811,NaN,-1.075563,9.573264,-2.176873,-0.034509,-0.005869,0.063637,0.022386,-0.002661,0.009516,0.335179,0.492745,-0.607451,-0.525224,103.000791,6.337960,-106.947552
11812,NaN,-1.052303,9.578429,-2.171129,-0.049833,-0.024409,0.064780,0.025392,-0.002302,0.010030,0.335126,0.492722,-0.607579,-0.525132,103.016203,6.330111,-106.954344
11813,NaN,-1.037584,9.561101,-2.200309,-0.024969,-0.044626,0.052909,0.025160,-0.000780,0.010160,0.335079,0.492701,-0.607704,-0.525036,103.031653,6.321855,-106.960241
11814,NaN,-0.978213,9.554883,-2.213571,-0.030634,-0.102910,0.043329,0.026126,0.009313,0.005149,0.335047,0.492725,-0.607802,-0.524921,103.048274,6.315232,-106.959879
11815,NaN,-0.948188,9.536927,-2.212252,-0.038620,-0.128660,0.022354,0.026033,0.017899,-0.001765,0.335024,0.492791,-0.607869,-0.524796,103.065549,6.311217,-106.953737
11816,NaN,-0.999256,9.519103,-2.208204,-0.025725,-0.076659,0.009810,0.024860,0.027227,-0.002497,0.335029,0.492882,-0.607915,-0.524654,103.082659,6.306539,-106.942324
11817,NaN,-1.044422,9.536369,-2.245564,0.014961,-0.044379,0.039902,0.024537,0.037335,-0.009284,0.335048,0.493020,-0.607927,-0.524499,103.100382,6.304192,-106.924290
11818,NaN,-1.060177,9.536178,-2.279085,0.047740,-0.038386,0.049014,0.026287,0.034277,-0.007774,0.335058,0.493148,-0.607951,-0.524344,103.118819,6.301537,-106.908232
11819,NaN,-1.030742,9.518122,-2.277837,0.039750,-0.064143,0.028041,0.022747,0.043830,-0.013567,0.335090,0.493313,-0.607937,-0.524185,103.135976,6.300723,-106.885993
11820,NaN,-1.045448,9.563438,-2.272343,0.024978,-0.049179,0.072292,0.020762,0.048413,-0.014952,0.335137,0.493491,-0.607906,-0.524024,103.152221,6.300221,-106.861060
11821,NaN,-1.026330,9.491889,-2.130165,-0.096345,-0.020214,-0.031214,0.013125,0.038739,-0.007811,0.335193,0.493609,-0.607889,-0.523897,103.163469,6.296848,-106.842434
11822,NaN,-1.066339,9.469820,-2.228166,0.009477,-0.010453,-0.026008,0.016941,0.023698,-0.008842,0.335190,0.493696,-0.607904,-0.523798,103.175913,6.296151,-106.832177
11823,NaN,-1.030881,9.487094,-2.267198,0.029260,-0.055958,-0.004330,0.013259,0.026189,-0.007589,0.335208,0.493781,-0.607909,-0.523701,103.186460,6.294287,-106.820626
11824,NaN,-1.055028,9.464593,-2.334290,0.102235,-0.051728,-0.008230,0.014565,0.024459,-0.004433,0.335225,0.493853,-0.607927,-0.523600,103.197525,6.291028,-106.810521
11825,NaN,-1.030867,9.486304,-2.270509,0.029122,-0.054992,-0.004324,0.016014,0.029789,-0.008329,0.335245,0.493954,-0.607932,-0.523487,103.209882,6.289100,-106.796852
11826,NaN,-0.992274,9.462014,-2.214985,-0.029284,-0.072784,-0.044662,0.020803,0.023660,-0.003526,0.335247,0.494032,-0.607970,-0.523368,103.224458,6.285435,-106.787317
11827,NaN,-1.006583,9.507487,-2.209166,-0.044059,-0.057769,-0.000416,0.019283,0.025197,-0.005171,0.335253,0.494117,-0.607999,-0.523251,103.238359,6.282341,-106.776643
11828,NaN,-1.029301,9.530351,-2.238266,-0.018630,-0.044535,0.030816,0.022843,0.033545,-0.005268,0.335275,0.494230,-0.608021,-0.523104,103.254735,6.278345,-106.761333
11829,NaN,-1.059780,9.501573,-2.283617,0.036782,-0.026798,0.016650,0.022610,0.035069,-0.005142,0.335303,0.494345,-0.608042,-0.522953,103.271146,6.273930,-106.745126
11830,NaN,-1.015972,9.466685,-2.308646,0.053684,-0.073357,-0.016162,0.022609,0.035070,-0.005143,0.335330,0.494461,-0.608062,-0.522802,103.287476,6.269655,-106.728979
11831,NaN,-1.021424,9.505637,-2.249874,-0.011492,-0.050323,0.008703,0.024989,0.034310,-0.009551,0.335339,0.494592,-0.608079,-0.522653,103.305265,6.267789,-106.712616
11832,NaN,-1.007656,9.488028,-2.279088,0.013345,-0.070622,-0.003145,0.022217,0.032426,-0.010199,0.335346,0.494716,-0.608090,-0.522519,103.321281,6.266672,-106.697284
11833,NaN,-1.073764,9.516041,-2.267422,0.011606,-0.004093,0.028504,0.026937,0.033164,-0.010932,0.335342,0.494852,-0.608110,-0.522369,103.340135,6.265717,-106.681381
11834,NaN,-1.031733,9.538972,-2.330092,0.048907,-0.063137,0.060478,0.023578,0.026724,-0.013733,0.335320,0.494973,-0.608126,-0.522250,103.356633,6.267316,-106.668778
11835,NaN,-1.045777,9.526278,-2.287375,0.013728,-0.035624,0.039939,0.025649,0.033179,-0.012709,0.335315,0.495112,-0.608138,-0.522107,103.374777,6.267340,-106.652630
11836,NaN,-1.038565,9.577229,-2.273942,-0.016331,-0.039599,0.085338,0.020092,0.031123,-0.015393,0.335309,0.495245,-0.608133,-0.521991,103.389571,6.269273,-106.637337
11837,NaN,-1.009867,9.559260,-2.272048,-0.024358,-0.065360,0.064388,0.021793,0.033214,-0.018034,0.335300,0.495393,-0.608122,-0.521868,103.405586,6.272251,-106.620458
11838,NaN,-1.062240,9.541297,-2.267920,-0.011375,-0.013398,0.051787,0.018790,0.032851,-0.018558,0.335295,0.495538,-0.608103,-0.521757,103.419788,6.275710,-106.603772
11839,NaN,-1.071598,9.518005,-2.304715,0.028749,-0.014699,0.038780,0.017755,0.029625,-0.019071,0.335282,0.495673,-0.608085,-0.521657,103.433287,6.279735,-106.588765
11840,NaN,-1.051154,9.552066,-2.317103,0.023581,-0.039449,0.072339,0.012902,0.022997,-0.022132,0.335253,0.495793,-0.608058,-0.521595,103.443566,6.286491,-106.577123
11841,NaN,-1.060498,9.499943,-2.334270,0.053502,-0.034527,0.026943,0.008648,0.019213,-0.021655,0.335224,0.495894,-0.608027,-0.521552,103.451249,6.293337,-106.567604
11842,NaN,-1.046977,9.528252,-2.323014,0.030783,-0.045763,0.050228,0.003960,0.015044,-0.018152,0.335203,0.495966,-0.608000,-0.521530,103.455860,6.298932,-106.560953
11843,NaN,-1.106870,9.504629,-2.294345,0.026237,0.019728,0.027337,0.001281,0.007457,-0.024101,0.335150,0.496031,-0.607964,-0.521543,103.458637,6.308707,-106.557695
11844,NaN,-1.065321,9.470136,-2.316512,0.043094,-0.026873,-0.005444,-0.004455,0.001773,-0.022498,0.335098,0.496067,-0.607926,-0.521587,103.457675,6.318492,-106.557900
11845,NaN,-1.038340,9.481649,-2.330770,0.045252,-0.058877,0.006008,-0.000734,-0.004143,-0.020958,0.335023,0.496090,-0.607912,-0.521630,103.458536,6.328064,-106.561567
11846,NaN,-1.062161,9.446790,-2.320011,0.050298,-0.033205,-0.027553,-0.000482,-0.007380,-0.019694,0.334941,0.496100,-0.607906,-0.521679,103.459242,6.337508,-106.567280
11847,NaN,-1.040908,9.497991,-2.273115,-0.012626,-0.042570,0.008738,-0.000448,-0.010810,-0.016917,0.334856,0.496093,-0.607914,-0.521731,103.459794,6.345716,-106.575226
11848,NaN,-1.078484,9.480121,-2.235887,-0.032455,0.003913,-0.012997,0.002336,-0.010634,-0.014880,0.334769,0.496085,-0.607934,-0.521772,103.461840,6.352912,-106.583409
11849,NaN,-1.067104,9.520798,-2.300303,0.012744,-0.028852,0.039962,0.005590,-0.013504,-0.013092,0.334671,0.496070,-0.607971,-0.521806,103.465625,6.359348,-106.593380
11850,NaN,-1.038892,9.503311,-2.296391,0.004702,-0.054653,0.019027,0.004920,-0.012366,-0.009940,0.334585,0.496047,-0.608013,-0.521834,103.468969,6.364023,-106.603196
11851,NaN,-1.062521,9.497315,-2.305046,0.019947,-0.035183,0.017854,0.008356,-0.011613,-0.012444,0.334487,0.496039,-0.608056,-0.521854,103.474445,6.369848,-106.612193
11852,NaN,-1.084771,9.508051,-2.256241,-0.022528,-0.000373,0.019397,0.003147,-0.007597,-0.012856,0.334413,0.496034,-0.608077,-0.521881,103.477112,6.375512,-106.618943
11853,NaN,-1.034860,9.525231,-2.263085,-0.035709,-0.051338,0.032037,0.007867,-0.006852,-0.013584,0.334328,0.496041,-0.608109,-0.521893,103.482619,6.381338,-106.625117
11854,NaN,-1.030343,9.485204,-2.325087,0.029290,-0.073548,0.007214,0.008915,-0.005338,-0.011685,0.334249,0.496048,-0.608144,-0.521895,103.488713,6.386048,-106.630757
11855,NaN,-1.061332,9.502079,-2.330169,0.037200,-0.046782,0.028149,0.009349,-0.004953,-0.014712,0.334163,0.496066,-0.608173,-0.521899,103.495204,6.392249,-106.635713
11856,NaN,-1.053953,9.495508,-2.277472,-0.013252,-0.038232,0.008755,0.008896,-0.003623,-0.013074,0.334086,0.496082,-0.608202,-0.521899,103.501414,6.397506,-106.640204
11857,NaN,-1.101028,9.541570,-2.332119,0.037711,-0.012240,0.071190,0.007650,-0.007044,-0.012071,0.334005,0.496084,-0.608237,-0.521909,103.506761,6.402516,-106.646687
11858,NaN,-1.079110,9.518125,-2.305758,0.012128,-0.024519,0.039975,0.006076,-0.003245,-0.005643,0.333956,0.496073,-0.608277,-0.521904,103.511266,6.403583,-106.651966
11859,NaN,-1.116271,9.529185,-2.287679,0.002524,0.015779,0.050611,0.002497,-0.008174,-0.008314,0.333894,0.496052,-0.608309,-0.521926,103.513534,6.406653,-106.659587
11860,NaN,-1.080647,9.517804,-2.306362,0.011992,-0.023554,0.039977,0.005340,-0.013140,-0.002109,0.333825,0.496004,-0.608372,-0.521943,103.516945,6.407077,-106.670889
11861,NaN,-1.029247,9.506221,-2.294266,-0.011409,-0.068293,0.020240,0.003839,-0.013324,-0.002371,0.333760,0.495953,-0.608431,-0.521964,103.519569,6.407527,-106.682198
11862,NaN,-1.060299,9.477645,-2.337157,0.044053,-0.050749,0.006059,0.001093,-0.016931,-0.001628,0.333691,0.495887,-0.608491,-0.522002,103.520303,6.408191,-106.695690
11863,NaN,-1.096987,9.385297,-2.319330,0.061618,-0.007230,-0.083215,-0.002702,-0.022052,-0.002784,0.333614,0.495804,-0.608547,-0.522064,103.518639,6.410040,-106.711836
11864,NaN,-1.091042,9.569492,-2.321034,0.014571,-0.020517,0.094488,0.001537,-0.034436,0.001283,0.333499,0.495683,-0.608644,-0.522140,103.518487,6.411427,-106.735534
11865,NaN,-1.090588,9.436970,-2.302922,0.031477,-0.010600,-0.037815,0.002861,-0.037870,0.005836,0.333383,0.495542,-0.608762,-0.522210,103.518891,6.410592,-106.761709
11866,NaN,-1.084967,9.471873,-2.344255,0.059116,-0.029880,0.004882,0.002046,-0.040906,0.003811,0.333253,0.495397,-0.608877,-0.522296,103.518587,6.411438,-106.789375
11867,NaN,-1.062088,9.523378,-2.297256,-0.003825,-0.039115,0.041175,-0.000337,-0.040143,0.008216,0.333144,0.495237,-0.608996,-0.522378,103.516982,6.409581,-106.817145
11868,NaN,-1.068354,9.488484,-2.255572,-0.031589,-0.018901,-0.001523,0.006096,-0.039019,0.006226,0.333017,0.495097,-0.609125,-0.522442,103.519081,6.408828,-106.844078
11869,NaN,-1.133689,9.562569,-2.202857,-0.080678,0.056928,0.065106,0.007528,-0.049864,0.006866,0.332855,0.494929,-0.609277,-0.522527,103.521395,6.409027,-106.877116
11870,NaN,-0.965578,9.568899,-2.230806,-0.105607,-0.111562,0.058942,0.011283,-0.041314,0.005237,0.332705,0.494795,-0.609421,-0.522582,103.526337,6.409136,-106.905202
11871,NaN,-1.070945,9.545911,-2.294451,-0.011429,-0.029848,0.063285,0.010791,-0.036555,0.004096,0.332568,0.494675,-0.609553,-0.522628,103.531393,6.409099,-106.930406
11872,NaN,-0.990962,9.471266,-2.317363,0.004651,-0.110138,-0.012437,0.011736,-0.026472,-0.000954,0.332446,0.494599,-0.609657,-0.522656,103.537617,6.410670,-106.949337
11873,NaN,-1.093900,9.510745,-2.285073,-0.006389,-0.003725,0.029690,0.008733,-0.026840,-0.001471,0.332330,0.494518,-0.609754,-0.522694,103.542186,6.412435,-106.968344
11874,NaN,-1.019277,9.550501,-2.227109,-0.092701,-0.058162,0.046269,0.012980,-0.023050,-0.001962,0.332212,0.494456,-0.609854,-0.522711,103.549350,6.414113,-106.985221
11875,NaN,-1.052716,9.504867,-2.327951,0.020478,-0.056120,0.029390,0.009350,-0.024552,-0.007404,0.332086,0.494401,-0.609933,-0.522751,103.554503,6.418879,-107.002144
11876,NaN,-1.040120,9.487546,-2.355205,0.045252,-0.076532,0.017596,0.009562,-0.024361,-0.008918,0.331955,0.494350,-0.610009,-0.522793,103.559730,6.424611,-107.018815
11877,NaN,-1.071207,9.504487,-2.359768,0.053207,-0.049758,0.038503,0.004823,-0.023393,-0.009566,0.331837,0.494297,-0.610070,-0.522848,103.562392,6.430428,-107.034794
11878,NaN,-1.065389,9.481318,-2.363789,0.060473,-0.056634,0.016406,0.003556,-0.025099,-0.009949,0.331716,0.494238,-0.610128,-0.522912,103.564144,6.436835,-107.051740
11879,NaN,-1.089153,9.475360,-2.371916,0.075763,-0.037203,0.015210,0.004610,-0.023583,-0.008053,0.331602,0.494179,-0.610192,-0.522965,103.566646,6.441836,-107.068031
11880,NaN,-1.052240,9.480827,-2.333119,0.027475,-0.061072,0.007305,-0.000531,-0.024711,-0.004281,0.331507,0.494097,-0.610253,-0.523031,103.565991,6.445034,-107.085526
11881,NaN,-1.082181,9.469017,-2.318287,0.025265,-0.028096,-0.004200,0.003692,-0.019208,-0.006166,0.331414,0.494042,-0.610313,-0.523073,103.568213,6.448396,-107.099620
11882,NaN,-1.014219,9.502939,-2.237471,-0.078582,-0.068932,0.002090,0.010987,-0.018473,-0.003369,0.331312,0.493993,-0.610396,-0.523087,103.574535,6.450249,-107.113741
11883,NaN,-1.082640,9.514303,-2.280969,-0.022384,-0.017825,0.030893,0.007044,-0.012756,-0.003383,0.331237,0.493952,-0.610460,-0.523098,103.579040,6.451195,-107.124594
11884,NaN,-1.083275,9.514012,-2.281880,-0.022444,-0.017355,0.030893,0.014504,-0.008404,-0.004881,0.331153,0.493940,-0.610532,-0.523079,103.588034,6.452539,-107.132867
11885,NaN,-1.061521,9.519413,-2.275184,-0.037879,-0.035788,0.032098,0.013799,-0.003839,-0.004508,0.331086,0.493937,-0.610596,-0.523050,103.596988,6.452914,-107.138570
11886,NaN,-1.040519,9.553649,-2.287667,-0.043140,-0.060441,0.065713,0.020227,-0.002716,-0.006513,0.331001,0.493953,-0.610669,-0.523002,103.609643,6.454403,-107.143433
11887,NaN,-1.061990,9.489548,-2.259780,-0.048177,-0.028623,-0.000307,0.019521,0.001850,-0.006140,0.330933,0.493980,-0.610735,-0.522943,103.622258,6.454921,-107.145726
11888,NaN,-1.079660,9.546943,-2.330347,0.004966,-0.035161,0.073618,0.023320,0.006972,-0.004999,0.330874,0.494022,-0.610804,-0.522860,103.637273,6.454261,-107.145366
11889,NaN,-1.034583,9.529057,-2.297671,-0.036017,-0.066325,0.043625,0.019328,0.016111,-0.007797,0.330846,0.494091,-0.610842,-0.522769,103.650701,6.453775,-107.139443
11890,NaN,-1.078943,9.488038,-2.296819,-0.015498,-0.021811,0.008802,0.021041,0.016488,-0.009056,0.330811,0.494167,-0.610879,-0.522676,103.665071,6.454086,-107.133198
11891,NaN,-1.051378,9.528031,-2.332689,-0.003283,-0.059983,0.052737,0.021463,0.016869,-0.012086,0.330768,0.494254,-0.610910,-0.522584,103.679836,6.455882,-107.126266
11892,NaN,-1.118925,9.510041,-2.358818,0.042788,-0.002744,0.049111,0.021323,0.011544,-0.006398,0.330724,0.494309,-0.610963,-0.522497,103.694015,6.455380,-107.123154
11893,NaN,-1.081377,9.515187,-2.322065,-0.005526,-0.026540,0.041216,0.017242,0.011366,-0.010197,0.330681,0.494369,-0.610997,-0.522429,103.705986,6.456868,-107.119562
11894,NaN,-1.091194,9.520687,-2.377309,0.044770,-0.034262,0.060640,0.017501,0.008133,-0.008929,0.330629,0.494417,-0.611040,-0.522367,103.717801,6.458237,-107.118015
11895,NaN,-1.055546,9.508941,-2.397582,0.054130,-0.073615,0.050080,0.015528,0.010990,-0.008939,0.330592,0.494469,-0.611073,-0.522302,103.728747,6.459075,-107.114804
11896,NaN,-1.127976,9.502131,-2.342996,0.025053,0.012729,0.038793,0.014263,0.009282,-0.009319,0.330550,0.494516,-0.611104,-0.522248,103.738785,6.460504,-107.112559
11897,NaN,-1.120176,9.524590,-2.309880,-0.015204,0.015237,0.051779,0.014311,0.005860,-0.006535,0.330507,0.494545,-0.611148,-0.522196,103.748674,6.460701,-107.112550
11898,NaN,-1.077786,9.518861,-2.352496,0.011639,-0.037703,0.051542,0.011072,0.007009,-0.006926,0.330473,0.494573,-0.611181,-0.522153,103.756703,6.461107,-107.111906
11899,NaN,-1.055721,9.524380,-2.345603,-0.003817,-0.056122,0.052760,0.009704,0.012717,-0.003406,0.330469,0.494603,-0.611209,-0.522093,103.764335,6.458628,-107.108487
11900,NaN,-1.063476,9.472309,-2.362440,0.026151,-0.051497,0.007364,0.013130,0.013470,-0.005923,0.330453,0.494649,-0.611239,-0.522025,103.773935,6.457595,-107.104363
11901,NaN,-1.027523,9.460666,-2.382408,0.035491,-0.090858,-0.003184,0.013082,0.016892,-0.008708,0.330440,0.494712,-0.611256,-0.521954,103.783848,6.457495,-107.097878
11902,NaN,-1.048298,9.471494,-2.334478,-0.006854,-0.055890,-0.001737,0.011712,0.022601,-0.005190,0.330456,0.494776,-0.611269,-0.521867,103.793199,6.454806,-107.088740
11903,NaN,-1.107155,9.476551,-2.325321,-0.000933,0.003369,0.007594,0.013058,0.018603,-0.010101,0.330445,0.494848,-0.611280,-0.521793,103.803228,6.455245,-107.081105
11904,NaN,-1.064519,9.470762,-2.368163,0.025885,-0.049587,0.007374,0.015918,0.013657,-0.003894,0.330428,0.494892,-0.611322,-0.521714,103.814405,6.453055,-107.077155
11905,NaN,-1.079289,9.516277,-2.362241,0.011178,-0.034324,0.051555,0.015421,0.018412,-0.005044,0.330423,0.494952,-0.611352,-0.521625,103.825698,6.450703,-107.070324
11906,NaN,-1.086753,9.464113,-2.379459,0.041151,-0.029727,0.006158,0.014759,0.019557,-0.001893,0.330432,0.495003,-0.611385,-0.521531,103.836550,6.446589,-107.063348
11907,NaN,-1.062575,9.486628,-2.315776,-0.031983,-0.032525,0.010037,0.015705,0.013470,-0.002379,0.330418,0.495042,-0.611431,-0.521449,103.847653,6.443430,-107.059651
11908,NaN,-1.091939,9.503440,-2.321463,-0.023962,-0.005763,0.030903,0.012087,0.010819,0.003044,0.330420,0.495051,-0.611484,-0.521377,103.856348,6.437767,-107.058250
11909,NaN,-1.113918,9.497322,-2.330774,-0.008626,0.013635,0.029680,0.013720,0.001876,0.000802,0.330384,0.495047,-0.611552,-0.521324,103.865535,6.434428,-107.061484
11910,NaN,-1.033697,9.451503,-2.372930,0.017397,-0.073022,-0.013473,0.015267,-0.001356,0.003847,0.330342,0.495027,-0.611636,-0.521271,103.875276,6.429990,-107.067011
11911,NaN,-1.092035,9.456606,-2.363877,0.023351,-0.013766,-0.004164,0.015244,0.000354,0.002453,0.330303,0.495017,-0.611714,-0.521215,103.885216,6.425943,-107.071327
11912,NaN,-1.078550,9.467956,-2.410907,0.058226,-0.040446,0.016499,0.017217,-0.002502,0.002468,0.330249,0.495001,-0.611801,-0.521161,103.896025,6.422431,-107.077306
11913,NaN,-1.120712,9.444272,-2.351828,0.021164,0.019655,-0.015722,0.008449,-0.005150,0.000804,0.330205,0.494970,-0.611866,-0.521142,103.901753,6.420061,-107.084476
11914,NaN,-0.988947,9.565483,-2.362016,-0.040902,-0.111777,0.088900,0.019214,-0.007068,0.003878,0.330136,0.494942,-0.611970,-0.521091,103.913399,6.416395,-107.093206
11915,NaN,-0.980896,9.438476,-2.367941,-0.006458,-0.115821,-0.033082,0.021696,-0.000229,0.001844,0.330077,0.494942,-0.612064,-0.521018,103.927010,6.412770,-107.097766
11916,NaN,-1.034414,9.506908,-2.420092,0.037284,-0.082507,0.051387,0.017337,0.004524,-0.004626,0.330026,0.494967,-0.612122,-0.520958,103.938437,6.412239,-107.098830
11917,NaN,-1.012453,9.512285,-2.413786,0.021797,-0.100908,0.052622,0.016580,0.012509,-0.007055,0.329995,0.495019,-0.612160,-0.520883,103.950052,6.411805,-107.095027
11918,NaN,-1.070749,9.488483,-2.385845,0.017636,-0.035511,0.029492,0.013579,0.012134,-0.007570,0.329969,0.495067,-0.612189,-0.520820,103.959847,6.411859,-107.091424
11919,NaN,-1.048253,9.539894,-2.340916,-0.045354,-0.044405,0.065788,0.011927,0.007754,-0.012990,0.329920,0.495117,-0.612208,-0.520782,103.968590,6.415380,-107.089456
11920,NaN,-1.108950,9.498918,-2.369912,0.008150,0.005321,0.040008,0.012377,0.006420,-0.014625,0.329861,0.495169,-0.612226,-0.520749,103.977450,6.420146,-107.088068
11921,NaN,-1.096799,9.510149,-2.416585,0.043000,-0.021342,0.060685,0.010686,0.004336,-0.011972,0.329807,0.495205,-0.612249,-0.520720,103.985254,6.423574,-107.088153
11922,NaN,-1.119329,9.475108,-2.406618,0.048214,0.004171,0.027030,0.009976,0.008902,-0.011613,0.329770,0.495251,-0.612264,-0.520683,103.992846,6.426322,-107.085795
11923,NaN,-1.097654,9.480610,-2.399755,0.032724,-0.014225,0.028266,0.012597,0.005487,-0.005278,0.329732,0.495272,-0.612308,-0.520635,104.001712,6.425869,-107.086169
11924,NaN,-1.061661,9.543773,-2.400175,0.004647,-0.050279,0.085242,0.010046,0.003775,-0.007427,0.329690,0.495292,-0.612341,-0.520604,104.008959,6.426999,-107.087262
11925,NaN,-1.039244,9.445768,-2.393257,0.016363,-0.065877,-0.013421,0.008623,0.012907,-0.006711,0.329681,0.495331,-0.612359,-0.520552,104.016035,6.426314,-107.083285
11926,NaN,-1.077448,9.439570,-2.432988,0.064605,-0.041236,-0.005551,0.008410,0.012720,-0.005196,0.329675,0.495364,-0.612379,-0.520500,104.022870,6.424963,-107.079685
11927,NaN,-1.026224,9.456881,-2.440690,0.051130,-0.092094,0.007272,0.008984,0.017288,-0.003066,0.329689,0.495404,-0.612399,-0.520430,104.030371,6.421642,-107.073767
11928,NaN,-1.143152,9.467491,-2.420773,0.063263,0.025896,0.025791,0.006605,0.018061,0.001341,0.329721,0.495428,-0.612422,-0.520360,104.036403,6.415914,-107.068094
11929,NaN,-1.074138,9.502165,-2.340429,-0.040738,-0.014535,0.032141,0.010080,0.015395,0.001618,0.329738,0.495450,-0.612460,-0.520284,104.044340,6.410251,-107.063890
11930,NaN,-1.096555,9.524901,-2.368474,-0.015227,-0.001350,0.063325,0.006889,0.013123,0.004013,0.329762,0.495454,-0.612498,-0.520220,104.050183,6.403723,-107.061355
11931,NaN,-1.059633,9.513512,-2.387568,-0.005974,-0.040745,0.052834,0.003842,0.016163,0.000705,0.329794,0.495471,-0.612516,-0.520162,104.054606,6.398461,-107.056595
11932,NaN,-1.095459,9.524692,-2.369823,-0.015356,-0.000390,0.063325,0.007363,0.010079,0.003776,0.329806,0.495468,-0.612560,-0.520105,104.060534,6.392488,-107.055731
11933,NaN,-1.029077,9.496244,-2.384296,-0.014239,-0.066092,0.032004,-0.000972,0.007797,-0.000922,0.329821,0.495460,-0.612575,-0.520086,104.061702,6.389293,-107.055423
11934,NaN,-1.052121,9.444378,-2.430432,0.048629,-0.056339,-0.004288,-0.002473,0.007608,-0.001180,0.329837,0.495450,-0.612585,-0.520073,104.061918,6.386419,-107.055246
11935,NaN,-1.037977,9.502098,-2.437397,0.035947,-0.073443,0.051464,-0.006261,0.002476,-0.002311,0.329845,0.495424,-0.612592,-0.520085,104.059748,6.384736,-107.057720
11936,NaN,-1.076186,9.496356,-2.475311,0.084205,-0.048833,0.059325,-0.013050,-0.003035,-0.003958,0.329848,0.495377,-0.612585,-0.520136,104.053285,6.384887,-107.063106
11937,NaN,-1.090031,9.485061,-2.428317,0.049251,-0.021164,0.038627,-0.017551,-0.003601,-0.004733,0.329859,0.495323,-0.612567,-0.520202,104.044306,6.385395,-107.068638
11938,NaN,-1.025210,9.485897,-2.459585,0.060484,-0.093061,0.039751,-0.020268,-0.008918,-0.002577,0.329865,0.495245,-0.612555,-0.520287,104.033320,6.385594,-107.077508
11939,NaN,-1.001398,9.480627,-2.373208,-0.022800,-0.089525,0.011195,-0.020413,-0.013111,-0.007738,0.329846,0.495172,-0.612537,-0.520390,104.022157,6.389091,-107.087940
11940,NaN,-1.047101,9.469308,-2.387080,0.008027,-0.051332,0.008701,-0.023437,-0.011779,-0.009651,0.329832,0.495102,-0.612503,-0.520504,104.009286,6.393615,-107.097424
11941,NaN,-1.072015,9.521479,-2.430898,0.043670,-0.044278,0.072310,-0.022175,-0.010068,-0.009274,0.329823,0.495038,-0.612472,-0.520607,103.997326,6.397539,-107.105941
11942,NaN,-1.085788,9.481442,-2.364093,-0.001398,-0.010476,0.019175,-0.023699,-0.008547,-0.010928,0.329817,0.494981,-0.612430,-0.520715,103.984525,6.402322,-107.113440
11943,NaN,-1.058714,9.522451,-2.395391,0.010648,-0.048588,0.063211,-0.025889,-0.005879,-0.009431,0.329829,0.494922,-0.612381,-0.520820,103.970699,6.405749,-107.119591
11944,NaN,-1.065472,9.488295,-2.351230,-0.016981,-0.028379,0.020428,-0.024054,0.000399,-0.006920,0.329862,0.494875,-0.612333,-0.520901,103.958190,6.407064,-107.122645
11945,NaN,-1.066352,9.488751,-2.348988,-0.017050,-0.027884,0.020429,-0.023175,-0.000558,-0.011586,0.329878,0.494842,-0.612278,-0.520988,103.946284,6.410951,-107.125523
11946,NaN,-1.030190,9.523864,-2.327087,-0.055326,-0.057680,0.045011,-0.020888,0.004386,-0.010709,0.329905,0.494822,-0.612222,-0.521055,103.935896,6.413820,-107.125820
11947,NaN,-1.091193,9.512512,-2.371919,0.008405,-0.014214,0.051607,-0.023316,0.008575,-0.009091,0.329956,0.494804,-0.612157,-0.521115,103.924441,6.415059,-107.123934
11948,NaN,-1.098406,9.507087,-2.347111,-0.009086,-0.000148,0.041249,-0.022268,0.010097,-0.007197,0.330013,0.494786,-0.612097,-0.521167,103.913565,6.415189,-107.121523
11949,NaN,-1.062423,9.496346,-2.363548,0.000115,-0.039565,0.030794,-0.021982,0.005154,-0.004530,0.330062,0.494748,-0.612053,-0.521225,103.902587,6.414363,-107.122184
11950,NaN,-1.062599,9.496819,-2.361570,0.000052,-0.039100,0.030796,-0.021173,0.008198,-0.002515,0.330123,0.494712,-0.612010,-0.521270,103.892148,6.412150,-107.121484
11951,NaN,-1.069225,9.491395,-2.336971,-0.017444,-0.025003,0.020436,-0.019887,0.008198,-0.000742,0.330186,0.494673,-0.611976,-0.521307,103.882506,6.408799,-107.120968
11952,NaN,-1.078167,9.497715,-2.388864,0.032808,-0.032894,0.039903,-0.016458,0.008955,-0.003254,0.330236,0.494650,-0.611942,-0.521337,103.874827,6.406893,-107.119741
11953,NaN,-1.068972,9.492236,-2.333666,-0.017575,-0.024041,0.020438,-0.020267,0.004397,0.005074,0.330303,0.494583,-0.611927,-0.521375,103.864640,6.400829,-107.122154
11954,NaN,-1.038789,9.475649,-2.327605,-0.025806,-0.049888,-0.000369,-0.019077,0.011242,0.001274,0.330378,0.494547,-0.611894,-0.521400,103.855533,6.396091,-107.120272
11955,NaN,-1.038700,9.476081,-2.325885,-0.025877,-0.049392,-0.000367,-0.019220,0.007058,-0.003894,0.330428,0.494516,-0.611856,-0.521443,103.846250,6.394649,-107.119960
11956,NaN,-1.003379,9.494148,-2.361615,-0.006571,-0.094984,0.021629,-0.017029,0.004393,-0.005394,0.330459,0.494487,-0.611823,-0.521490,103.837992,6.394560,-107.120991
11957,NaN,-1.070832,9.476879,-2.384212,0.039771,-0.037959,0.017844,-0.018125,0.006297,-0.010076,0.330488,0.494475,-0.611773,-0.521542,103.829381,6.396661,-107.120245
11958,NaN,-1.033717,9.483043,-2.343611,-0.008657,-0.061572,0.010007,-0.020102,0.009152,-0.010091,0.330529,0.494467,-0.611713,-0.521594,103.819731,6.398534,-107.117965
11959,NaN,-1.050142,9.483437,-2.372686,0.024163,-0.055845,0.019113,-0.018149,0.008010,-0.011469,0.330560,0.494463,-0.611657,-0.521644,103.811236,6.401175,-107.116073
11960,NaN,-1.029636,9.518513,-2.381754,0.018742,-0.080356,0.052817,-0.020697,0.006302,-0.013626,0.330584,0.494457,-0.611591,-0.521711,103.801122,6.405405,-107.114902
11961,NaN,-1.073750,9.524070,-2.338666,-0.007977,-0.026323,0.052882,-0.021653,0.012389,-0.013136,0.330632,0.494464,-0.611514,-0.521764,103.790917,6.408375,-107.110330
11962,NaN,-1.075292,9.478612,-2.375297,0.039443,-0.035587,0.017854,-0.018843,0.010864,-0.009711,0.330677,0.494462,-0.611455,-0.521807,103.782090,6.409804,-107.107144
11963,NaN,-1.052241,9.501722,-2.308277,-0.033707,-0.038061,0.021716,-0.017367,0.012766,-0.010843,0.330721,0.494470,-0.611395,-0.521842,103.774332,6.411449,-107.102673
11964,NaN,-1.090163,9.467326,-2.326711,0.004488,-0.007405,-0.002885,-0.018653,0.012769,-0.012618,0.330764,0.494482,-0.611326,-0.521885,103.765778,6.414237,-107.098022
11965,NaN,-1.069962,9.456610,-2.374436,0.046535,-0.041622,-0.004204,-0.016272,0.010860,-0.006163,0.330812,0.494472,-0.611284,-0.521913,103.758457,6.413538,-107.095264
11966,NaN,-1.053330,9.473721,-2.284863,-0.044018,-0.030496,-0.010717,-0.016058,0.011052,-0.007678,0.330855,0.494469,-0.611237,-0.521944,103.751206,6.413811,-107.092253
11967,NaN,-1.054518,9.502858,-2.302553,-0.033972,-0.036126,0.021722,-0.011557,0.011618,-0.006897,0.330892,0.494471,-0.611203,-0.521957,103.746648,6.413418,-107.088971
11968,NaN,-1.084475,9.520091,-2.305980,-0.025840,-0.009339,0.042515,-0.009250,0.014848,-0.004615,0.330938,0.494479,-0.611175,-0.521953,103.743488,6.411471,-107.084253
11969,NaN,-1.100085,9.520375,-2.335992,0.006989,-0.003628,0.051618,-0.010463,0.009711,-0.002216,0.330979,0.494465,-0.611159,-0.521960,103.739358,6.408732,-107.082679
11970,NaN,-1.077554,9.451827,-2.346581,0.028802,-0.025636,-0.014569,-0.011133,0.010849,0.000936,0.331032,0.494442,-0.611147,-0.521962,103.734784,6.404240,-107.080961
11971,NaN,-1.032010,9.509595,-2.290991,-0.049728,-0.053017,0.023003,-0.010136,0.015795,0.000052,0.331096,0.494437,-0.611127,-0.521950,103.731193,6.399413,-107.076287
11972,NaN,-1.032370,9.538685,-2.309275,-0.039680,-0.058671,0.055445,-0.005396,0.014840,0.000711,0.331147,0.494435,-0.611122,-0.521925,103.730159,6.394503,-107.072302
11973,NaN,-1.039207,9.487080,-2.324771,-0.009676,-0.054339,0.010049,-0.004854,0.021116,0.001465,0.331218,0.494448,-0.611111,-0.521880,103.729898,6.388164,-107.064846
11974,NaN,-1.112089,9.463603,-2.326227,0.019348,0.016216,-0.004159,-0.004614,0.019595,0.001342,0.331283,0.494458,-0.611102,-0.521840,103.729597,6.382257,-107.058284
11975,NaN,-1.052956,9.533163,-2.316706,-0.024390,-0.038376,0.054175,-0.002635,0.016740,0.001356,0.331335,0.494464,-0.611104,-0.521800,103.730338,6.376574,-107.053262
11976,NaN,-0.956671,9.562714,-2.306766,-0.069052,-0.126808,0.069672,-0.003378,0.023020,0.000335,0.331404,0.494488,-0.611090,-0.521749,103.730973,6.370761,-107.044645
11977,NaN,-1.081461,9.475678,-2.340665,0.021054,-0.014774,0.007500,-0.001909,0.039387,-0.003967,0.331510,0.494570,-0.611043,-0.521660,103.733616,6.364960,-107.026213
11978,NaN,-1.052138,9.487504,-2.355478,0.022886,-0.046752,0.019164,-0.000758,0.035207,-0.007366,0.331590,0.494653,-0.610996,-0.521584,103.736623,6.361775,-107.009717
11979,NaN,-1.044654,9.539145,-2.340102,-0.007264,-0.050060,0.064565,0.002241,0.035585,-0.006843,0.331666,0.494741,-0.610959,-0.521496,103.741451,6.358090,-106.993020
11980,NaN,-1.081510,9.504354,-2.360781,0.030967,-0.019469,0.039945,0.000741,0.035397,-0.007106,0.331744,0.494827,-0.610917,-0.521414,103.745323,6.354732,-106.976454
11981,NaN,-1.088010,9.498311,-2.338457,0.013505,-0.005347,0.029561,-0.000452,0.028544,-0.003319,0.331814,0.494881,-0.610893,-0.521346,103.748111,6.350041,-106.964184
11982,NaN,-1.074141,9.510269,-2.384016,0.048226,-0.032137,0.050333,-0.001952,0.028356,-0.003582,0.331886,0.494933,-0.610864,-0.521284,103.749948,6.345679,-106.952044
11983,NaN,-1.064962,9.504194,-2.330632,-0.002134,-0.023197,0.030846,-0.000385,0.023402,0.000854,0.331952,0.494962,-0.610860,-0.521221,103.752391,6.339365,-106.943223
11984,NaN,-1.086116,9.469366,-2.320292,0.003208,0.002195,-0.002882,0.002248,0.021124,-0.003671,0.331991,0.495002,-0.610853,-0.521165,103.756187,6.336036,-106.935121
11985,NaN,-1.063407,9.475279,-2.312181,-0.012371,-0.016119,-0.001596,-0.004818,0.017692,0.004237,0.332059,0.494998,-0.610855,-0.521124,103.755685,6.328617,-106.929965
11986,NaN,-1.041860,9.539010,-2.341898,-0.007743,-0.046686,0.064581,0.005337,0.014645,0.002423,0.332087,0.495008,-0.610883,-0.521064,103.760757,6.322779,-106.926327
11987,NaN,-1.098697,9.486340,-2.294468,-0.021660,0.024801,0.008783,-0.000662,0.013889,0.001367,0.332125,0.495009,-0.610894,-0.521025,103.762447,6.317476,-106.922905
11988,NaN,-0.997000,9.504944,-2.364676,0.008554,-0.093198,0.032154,0.004536,0.011604,0.000400,0.332140,0.495017,-0.610920,-0.520978,103.766902,6.313179,-106.920692
11989,NaN,-0.965851,9.504614,-2.303531,-0.057325,-0.103043,0.013955,0.005511,0.018267,-0.001875,0.332168,0.495049,-0.610932,-0.520914,103.772447,6.309081,-106.914379
11990,NaN,-1.023787,9.480746,-2.275264,-0.061123,-0.037699,-0.009405,0.004208,0.019985,-0.005045,0.332196,0.495094,-0.610930,-0.520857,103.777312,6.306670,-106.906728
11991,NaN,-1.003527,9.498502,-2.343977,-0.009049,-0.078104,0.021775,0.006145,0.020559,-0.007809,0.332214,0.495153,-0.610925,-0.520796,103.783448,6.305560,-106.898314
11992,NaN,-1.062413,9.503493,-2.334651,-0.002738,-0.018874,0.030855,0.004448,0.018463,-0.005168,0.332236,0.495194,-0.610926,-0.520741,103.788358,6.303423,-106.891499
11993,NaN,-1.099964,9.497506,-2.374598,0.045618,0.005585,0.038665,0.008487,0.020362,-0.002738,0.332261,0.495240,-0.610940,-0.520665,103.795747,6.299516,-106.883893
11994,NaN,-1.078302,9.532161,-2.385838,0.040127,-0.018856,0.072407,-0.000270,0.017704,-0.004449,0.332294,0.495270,-0.610931,-0.520626,103.797896,6.297082,-106.877602
11995,NaN,-1.014326,9.470174,-2.514975,0.156066,-0.116681,0.036180,0.009165,0.019224,-0.005888,0.332305,0.495324,-0.610941,-0.520555,103.805650,6.295082,-106.870200
11996,NaN,-0.985916,9.531306,-2.201771,-0.157432,-0.048833,0.017798,0.001525,0.025695,-0.003310,0.332361,0.495374,-0.610927,-0.520489,103.809300,6.290921,-106.859593
11997,NaN,-1.067612,9.438919,-2.277605,-0.040645,0.009398,-0.044436,0.006187,0.017132,-0.005026,0.332376,0.495415,-0.610935,-0.520432,103.815206,6.288726,-106.853481
11998,NaN,-0.960369,9.492224,-2.389589,0.016945,-0.128358,0.021844,0.006069,0.012952,-0.010199,0.332364,0.495460,-0.610936,-0.520394,103.820782,6.290138,-106.849059
11999,NaN,-1.035111,9.497243,-2.411177,0.056182,-0.063949,0.040008,0.004088,0.015808,-0.010221,0.332366,0.495510,-0.610928,-0.520355,103.825482,6.291013,-106.842973
12000,NaN,-1.035090,9.468189,-2.392631,0.046020,-0.057386,0.007562,0.000093,0.010479,-0.009868,0.332362,0.495538,-0.610919,-0.520342,103.827477,6.292580,-106.839980
12001,NaN,-1.007013,9.479956,-2.407053,0.047782,-0.089326,0.019265,-0.002268,0.012391,-0.016334,0.332354,0.495587,-0.610885,-0.520340,103.828420,6.297322,-106.834964
12002,NaN,-1.015972,9.456979,-2.441789,0.087895,-0.091264,0.006322,-0.000475,0.020383,-0.015195,0.332368,0.495656,-0.610844,-0.520313,103.830778,6.300496,-106.825694
12003,NaN,-0.969331,9.444651,-2.272665,-0.078544,-0.084054,-0.050884,-0.005507,0.013534,-0.016744,0.332370,0.495704,-0.610799,-0.520320,103.829943,6.305309,-106.819981
12004,NaN,-1.082363,9.443981,-2.332352,0.009172,0.004243,-0.024937,-0.006772,-0.000932,-0.015343,0.332334,0.495708,-0.610777,-0.520365,103.827387,6.311484,-106.822621
12005,NaN,-1.033619,9.444915,-2.395198,0.052938,-0.062536,-0.014471,-0.006026,-0.007214,-0.014315,0.332281,0.495693,-0.610771,-0.520420,103.824941,6.317787,-106.828856
12006,NaN,-1.013818,9.434023,-2.443487,0.094876,-0.096920,-0.015706,-0.009201,-0.011216,-0.010549,0.332232,0.495652,-0.610771,-0.520490,103.820286,6.322702,-106.837914
12007,NaN,-0.999712,9.434090,-2.411509,0.061892,-0.101567,-0.024802,-0.011448,-0.005124,-0.011841,0.332204,0.495626,-0.610754,-0.520553,103.814826,6.327342,-106.843321
12008,NaN,-1.000336,9.405330,-2.391521,0.051733,-0.095013,-0.057249,-0.011228,-0.004931,-0.013356,0.332172,0.495606,-0.610732,-0.520618,103.809438,6.332957,-106.848475
12009,NaN,-1.037627,9.462151,-2.334112,-0.004892,-0.044559,-0.011920,-0.004147,0.006675,-0.009394,0.332169,0.495615,-0.610720,-0.520625,103.808852,6.334619,-106.847614
12010,NaN,-1.017092,9.496985,-2.344279,-0.010420,-0.068966,0.021842,-0.006992,0.011632,-0.015615,0.332172,0.495652,-0.610676,-0.520640,103.806948,6.339226,-106.843186
12011,NaN,-1.047308,9.484977,-2.329712,-0.012306,-0.036041,0.010130,0.001495,0.004781,-0.013382,0.332138,0.495679,-0.610671,-0.520641,103.809539,6.343366,-106.842835
12012,NaN,-1.048164,9.530537,-2.291466,-0.059829,-0.025578,0.045120,0.002994,0.004972,-0.013117,0.332102,0.495707,-0.610671,-0.520638,103.812907,6.347494,-106.842479
12013,NaN,-1.027373,9.490440,-2.322340,-0.027996,-0.053852,0.011442,0.008461,0.012210,-0.014593,0.332071,0.495768,-0.610669,-0.520601,103.819967,6.351291,-106.837803
12014,NaN,-1.058182,9.507069,-2.327748,-0.019783,-0.027048,0.032179,0.008218,0.013733,-0.014472,0.332045,0.495832,-0.610664,-0.520563,103.826892,6.354973,-106.832354
12015,NaN,-1.096810,9.500852,-2.367809,0.028610,-0.002660,0.039971,0.006961,0.012020,-0.014860,0.332017,0.495891,-0.610658,-0.520532,103.833086,6.358943,-106.827746
12016,NaN,-1.097599,9.546357,-2.329865,-0.018908,0.007822,0.074957,0.002024,0.011061,-0.012631,0.332002,0.495932,-0.610646,-0.520516,103.836269,6.361966,-106.824047
12017,NaN,-1.090893,9.523299,-2.333870,-0.011706,0.000754,0.052913,0.000327,0.008962,-0.009990,0.331994,0.495957,-0.610640,-0.520505,103.838397,6.363646,-106.821823
12018,NaN,-1.054623,9.437586,-2.371638,0.034668,-0.042715,-0.024843,-0.002428,0.007057,-0.010645,0.331984,0.495975,-0.610628,-0.520509,103.838751,6.366113,-106.820638
12019,NaN,-1.018796,9.472318,-2.351160,-0.003796,-0.072186,-0.000171,-0.000970,-0.002076,-0.011375,0.331941,0.495973,-0.610634,-0.520531,103.839471,6.370076,-106.824402
12020,NaN,-1.079783,9.460396,-2.398344,0.060171,-0.029083,0.006305,-0.004760,-0.005502,-0.013932,0.331890,0.495964,-0.610628,-0.520579,103.837759,6.376092,-106.829794
12021,NaN,-1.066578,9.489262,-2.385613,0.037266,-0.039781,0.029663,-0.007469,-0.010838,-0.011802,0.331835,0.495930,-0.610631,-0.520643,103.834217,6.381492,-106.838403
12022,NaN,-1.044864,9.466338,-2.357839,0.011557,-0.051998,-0.001477,-0.003922,-0.005889,-0.009123,0.331793,0.495906,-0.610640,-0.520682,103.832886,6.384886,-106.844675
12023,NaN,-1.097540,9.477355,-2.370130,0.035348,-0.006402,0.017932,-0.005069,-0.003425,-0.004337,0.331775,0.495873,-0.610654,-0.520708,103.831066,6.385117,-106.850163
12024,NaN,-1.053531,9.489313,-2.353261,0.004149,-0.043461,0.020569,-0.001036,-0.001521,-0.001902,0.331758,0.495843,-0.610682,-0.520715,103.831550,6.383895,-106.854986
12025,NaN,-1.088358,9.488196,-2.258842,-0.072569,0.019266,0.000932,0.000572,0.002849,0.003538,0.331765,0.495812,-0.610720,-0.520696,103.833235,6.378886,-106.858047
12026,NaN,-1.089484,9.545920,-2.297116,-0.052480,0.007575,0.065849,0.011270,-0.006655,0.004283,0.331718,0.495770,-0.610803,-0.520667,103.840356,6.374927,-106.866596
12027,NaN,-1.037097,9.534736,-2.285400,-0.076425,-0.037021,0.046451,0.011332,0.000954,0.006672,0.331701,0.495742,-0.610881,-0.520614,103.848038,6.368435,-106.871153
