// General information: 
//  MT Manager version: 2019.0.1 
//  XDA version: 2019.0.1 build 2740 rev 84096 built on 2019-01-30
// Device information: 
//  DeviceId: 00B4381A
//  ProductCode: MTW2-3A7G6
//  Firmware Version: 4.3.4
//  Hardware Version: 1.1.0
// Device settings: 
//  Filter Profile: human(46.1)
//  Option Flags: Orientation Smoother Disabled, AHS Disabled, ICC Disabled
// Coordinate system: ENU
PacketCounter,SampleTimeFine,Acc_X,Acc_Y,Acc_Z,FreeAcc_E,FreeAcc_N,FreeAcc_U,Gyr_X,Gyr_Y,Gyr_Z,Quat_q0,Quat_q1,Quat_q2,Quat_q3,Roll,Pitch,Yaw
09970,NaN,4.523155,9.008414,0.915832,-0.983560,-0.521083,0.247638,-0.466253,-0.059299,-0.144343,0.013074,-0.234822,-0.598081,-0.766150,79.159609,-22.052585,163.653660
09971,NaN,4.367679,8.701454,1.228417,-0.854859,-0.213537,-0.039026,-0.419882,-0.098890,-0.158640,0.011639,-0.234725,-0.596727,-0.767258,78.956856,-21.967436,163.572203
09972,NaN,4.237157,8.562314,1.467479,-0.720526,-0.008142,-0.174175,-0.369193,-0.165106,-0.196655,0.009925,-0.234772,-0.595604,-0.768140,78.798708,-21.869798,163.445963
09973,NaN,4.488679,8.530733,1.698387,-0.895931,0.268944,-0.069428,-0.271353,-0.191750,-0.239497,0.008077,-0.234781,-0.594914,-0.768693,78.705454,-21.750093,163.298192
09974,NaN,4.535146,8.462163,1.978265,-0.881078,0.557708,-0.065795,-0.167297,-0.198751,-0.267537,0.006228,-0.234735,-0.594646,-0.768932,78.673237,-21.616797,163.142901
09975,NaN,4.358198,8.423616,2.109804,-0.709677,0.650623,-0.144416,-0.067899,-0.192718,-0.290961,0.004419,-0.234586,-0.594795,-0.768875,78.698336,-21.468560,162.988434
09976,NaN,4.263640,8.455878,2.203659,-0.602719,0.718690,-0.135045,0.046056,-0.185586,-0.292721,0.002762,-0.234407,-0.595372,-0.768491,78.785677,-21.319508,162.838504
09977,NaN,4.192448,8.623261,2.203905,-0.509460,0.676331,-0.010780,0.135589,-0.182601,-0.288949,0.001229,-0.234221,-0.596295,-0.767835,78.923958,-21.170968,162.691175
09978,NaN,4.186383,8.833905,2.295559,-0.426637,0.728791,0.193312,0.180378,-0.188951,-0.260577,-0.000156,-0.234148,-0.597347,-0.767041,79.086560,-21.039722,162.544011
09979,NaN,4.119454,8.872380,2.171425,-0.411638,0.617716,0.179960,0.190550,-0.184982,-0.211439,-0.001334,-0.234200,-0.598385,-0.766214,79.252538,-20.934391,162.405323
09980,NaN,4.053850,8.913303,2.150524,-0.356331,0.599438,0.188265,0.182035,-0.201448,-0.182496,-0.002456,-0.234407,-0.599348,-0.765395,79.414737,-20.847651,162.260508
09981,NaN,4.082559,8.883479,2.198840,-0.377570,0.689352,0.177336,0.147486,-0.223877,-0.167310,-0.003631,-0.234739,-0.600165,-0.764648,79.561857,-20.770595,162.104115
09982,NaN,4.250729,8.908540,2.162313,-0.537988,0.723327,0.251790,0.114818,-0.219573,-0.163910,-0.004815,-0.235069,-0.600845,-0.764006,79.688090,-20.695513,161.951054
09983,NaN,4.351613,8.894792,2.134939,-0.647746,0.755441,0.268062,0.094518,-0.196529,-0.180103,-0.006018,-0.235256,-0.601472,-0.763446,79.798874,-20.607889,161.810279
09984,NaN,4.179821,8.902892,2.141082,-0.499826,0.730868,0.213906,0.072228,-0.182197,-0.207081,-0.007305,-0.235311,-0.602039,-0.762971,79.893820,-20.504131,161.675562
09985,NaN,4.222299,8.955448,2.142967,-0.534784,0.752227,0.275339,0.065605,-0.178228,-0.225884,-0.008662,-0.235289,-0.602607,-0.762515,79.985166,-20.388498,161.541433
09986,NaN,4.238097,8.893958,2.201846,-0.558444,0.850781,0.231034,0.077402,-0.193530,-0.273012,-0.010228,-0.235188,-0.603267,-0.762005,80.087142,-20.248240,161.393502
09987,NaN,4.129151,8.752205,2.250450,-0.497028,0.927542,0.066991,0.109359,-0.212370,-0.274258,-0.011820,-0.235152,-0.604052,-0.761370,80.211471,-20.108284,161.234476
09988,NaN,3.897440,8.646955,2.195302,-0.352583,0.865168,-0.122161,0.158956,-0.236277,-0.267731,-0.013399,-0.235232,-0.605010,-0.760558,80.367807,-19.974527,161.062316
09989,NaN,3.787486,8.603862,2.092557,-0.314673,0.782661,-0.219012,0.198139,-0.273076,-0.255687,-0.014999,-0.235487,-0.606102,-0.759580,80.553625,-19.850109,160.869779
09990,NaN,3.665430,8.528693,2.011787,-0.262818,0.726564,-0.345682,0.211100,-0.312083,-0.231299,-0.016608,-0.235967,-0.607204,-0.758516,80.752954,-19.742979,160.656845
09991,NaN,3.553849,8.449296,1.906681,-0.227400,0.652760,-0.475773,0.224878,-0.344241,-0.209889,-0.018218,-0.236632,-0.608330,-0.757369,80.965840,-19.649752,160.427168
09992,NaN,3.543012,8.454034,1.771645,-0.268048,0.561058,-0.497344,0.226764,-0.364137,-0.178975,-0.019768,-0.237467,-0.609419,-0.756193,81.181977,-19.575398,160.188979
09993,NaN,3.279923,8.466953,1.627835,-0.083924,0.377284,-0.595987,0.214735,-0.383317,-0.143233,-0.021257,-0.238478,-0.610417,-0.755028,81.393907,-19.521754,159.942922
09994,NaN,2.779414,8.481083,1.432764,0.292251,0.065771,-0.778480,0.200250,-0.410148,-0.117287,-0.022745,-0.239670,-0.611320,-0.753876,81.601558,-19.484597,159.683369
09995,NaN,2.518614,8.337834,1.392941,0.476122,0.007636,-1.004942,0.160237,-0.424272,-0.089397,-0.024221,-0.240992,-0.612037,-0.752826,81.788384,-19.463216,159.417940
09996,NaN,2.443280,8.472641,1.537190,0.639937,0.102618,-0.885306,0.104656,-0.421230,-0.088472,-0.025749,-0.242299,-0.612538,-0.751948,81.942328,-19.441732,159.154538
09997,NaN,2.519554,8.492066,1.672037,0.633684,0.265430,-0.824528,0.072226,-0.396266,-0.141957,-0.027443,-0.243341,-0.612984,-0.751187,82.074229,-19.386866,158.901759
09998,NaN,2.753672,8.617047,1.691406,0.462763,0.352785,-0.628004,0.086527,-0.323505,-0.241710,-0.029269,-0.243807,-0.613610,-0.750456,82.201901,-19.269568,158.684720
09999,NaN,3.151038,9.031962,1.468633,0.113405,0.212719,-0.137770,0.119066,-0.227205,-0.369381,-0.031241,-0.243521,-0.614527,-0.749719,82.332068,-19.071422,158.515659
10000,NaN,3.628408,9.867194,1.348325,-0.174680,0.100749,0.784669,0.148934,-0.085179,-0.472832,-0.033126,-0.242390,-0.615699,-0.749043,82.453329,-18.803880,158.424247
10001,NaN,4.275793,10.667951,1.088919,-0.695952,-0.064812,1.710526,0.125533,0.133262,-0.520696,-0.034548,-0.240286,-0.616874,-0.748689,82.520024,-18.492179,158.460657
10002,NaN,3.783628,10.768327,1.224383,-0.236111,-0.110210,1.663535,0.044211,0.258677,-0.458507,-0.035445,-0.237891,-0.617685,-0.748743,82.514957,-18.206931,158.577103
10003,NaN,2.632107,9.824334,1.393399,0.576866,-0.120594,0.436198,-0.022843,0.211951,-0.338927,-0.036121,-0.236024,-0.618094,-0.748965,82.477962,-17.992656,158.674775
10004,NaN,2.258587,9.192549,1.529203,0.777432,0.029523,-0.255634,-0.042531,0.082657,-0.311936,-0.037116,-0.234723,-0.618369,-0.749098,82.452976,-17.803785,158.697155
10005,NaN,2.274568,9.168119,1.446259,0.697324,-0.024718,-0.282063,-0.012924,-0.076915,-0.280615,-0.038455,-0.234119,-0.618689,-0.748955,82.473391,-17.644209,158.626855
10006,NaN,1.847690,8.994938,1.338051,0.973290,-0.220195,-0.586776,-0.022760,-0.229765,-0.224197,-0.040065,-0.234262,-0.618873,-0.748674,82.514000,-17.528574,158.470010
10007,NaN,1.832962,8.940007,1.265185,0.932544,-0.270068,-0.650723,-0.028549,-0.268594,-0.142130,-0.041497,-0.234799,-0.618933,-0.748378,82.556155,-17.461755,158.296662
10008,NaN,2.483940,8.924240,1.083429,0.272383,-0.193226,-0.492049,0.010181,-0.199509,-0.098710,-0.042504,-0.235223,-0.619097,-0.748053,82.606842,-17.414949,158.167880
10009,NaN,3.056521,9.170009,1.177494,-0.145694,0.047070,-0.076444,0.029449,-0.017333,-0.069339,-0.042818,-0.235056,-0.619339,-0.747887,82.635462,-17.370676,158.149973
10010,NaN,2.911283,9.450712,1.357359,0.111701,0.099120,0.167875,0.017189,0.148575,-0.078089,-0.042662,-0.234243,-0.619579,-0.747952,82.627690,-17.309903,158.230098
10011,NaN,2.688815,9.562233,1.487433,0.374607,0.115103,0.223492,0.016235,0.244686,-0.084522,-0.042237,-0.233046,-0.619844,-0.748130,82.602749,-17.237712,158.366921
10012,NaN,2.566810,9.651698,1.525974,0.504688,0.086329,0.277417,-0.013678,0.296332,-0.069041,-0.041625,-0.231702,-0.619987,-0.748463,82.551308,-17.171069,158.535509
10013,NaN,2.437806,9.622057,1.605282,0.629618,0.116762,0.221939,-0.036972,0.298009,-0.065581,-0.041026,-0.230351,-0.620040,-0.748869,82.486445,-17.105403,158.705311
10014,NaN,2.435493,9.557062,1.677944,0.631532,0.193095,0.169718,-0.032417,0.258018,-0.065170,-0.040540,-0.229157,-0.620098,-0.749214,82.431305,-17.043508,158.851175
10015,NaN,2.447425,9.460111,1.808145,0.638195,0.335699,0.098568,-0.019225,0.179455,-0.053304,-0.040242,-0.228291,-0.620177,-0.749429,82.397300,-16.993422,158.951308
10016,NaN,2.460066,9.413110,1.902305,0.645033,0.436454,0.070165,-0.001948,0.094982,-0.034323,-0.040111,-0.227810,-0.620280,-0.749498,82.387451,-16.961250,159.002658
10017,NaN,2.602030,9.407701,1.848935,0.490974,0.439704,0.099909,0.010686,0.038259,-0.031860,-0.040137,-0.227545,-0.620417,-0.749463,82.394581,-16.933961,159.020626
10018,NaN,2.693699,9.511672,1.763525,0.395389,0.372870,0.214405,0.013475,0.009535,-0.028176,-0.040231,-0.227405,-0.620554,-0.749388,82.408241,-16.911761,159.021729
10019,NaN,2.673733,9.644713,1.638064,0.389970,0.224598,0.318949,-0.006738,-0.007138,-0.041817,-0.040455,-0.227276,-0.620627,-0.749354,82.413395,-16.882231,159.011986
10020,NaN,2.555140,9.590548,1.634299,0.477300,0.194918,0.232833,-0.027222,-0.028747,-0.057251,-0.040822,-0.227181,-0.620636,-0.749355,82.410995,-16.846415,158.988076
10021,NaN,2.532669,9.531448,1.507932,0.429126,0.087425,0.154508,-0.027394,-0.062620,-0.059196,-0.041307,-0.227201,-0.620641,-0.749319,82.414182,-16.811174,158.944049
10022,NaN,2.539317,9.448058,1.342261,0.334346,-0.040305,0.056566,-0.041005,-0.086572,-0.065317,-0.041900,-0.227295,-0.620595,-0.749295,82.413949,-16.775150,158.885208
10023,NaN,2.488873,9.247607,1.146311,0.252556,-0.188699,-0.172803,-0.035253,-0.085777,-0.065792,-0.042490,-0.227379,-0.620572,-0.749255,82.416663,-16.737875,158.826958
10024,NaN,2.301004,9.107660,1.053771,0.348191,-0.305392,-0.371288,-0.052177,-0.059743,-0.039826,-0.042917,-0.227450,-0.620461,-0.749301,82.404799,-16.714302,158.786060
10025,NaN,2.597602,9.138334,1.049075,0.083268,-0.215827,-0.257390,-0.068454,-0.002496,-0.026554,-0.043140,-0.227336,-0.620287,-0.749467,82.373364,-16.692976,158.780303
10026,NaN,2.869534,9.227214,1.083770,-0.132279,-0.114672,-0.090568,-0.074597,0.065232,-0.023473,-0.043144,-0.226984,-0.620100,-0.749729,82.326989,-16.669199,158.814776
10027,NaN,3.044213,9.262687,1.173163,-0.252810,0.012954,0.004483,-0.073633,0.118473,-0.027042,-0.042999,-0.226414,-0.619933,-0.750047,82.272085,-16.638318,158.880627
10028,NaN,3.006947,9.324032,1.242595,-0.187650,0.043722,0.060823,-0.050389,0.138509,-0.044631,-0.042827,-0.225727,-0.619876,-0.750311,82.227705,-16.596809,158.956754
10029,NaN,2.960311,9.331072,1.262477,-0.146417,0.040868,0.056612,-0.035244,0.125886,-0.059669,-0.042739,-0.225036,-0.619891,-0.750511,82.194417,-16.546768,159.024273
10030,NaN,2.975559,9.310938,1.252006,-0.177244,0.039835,0.040334,-0.015705,0.100376,-0.048280,-0.042660,-0.224488,-0.619959,-0.750624,82.176556,-16.506076,159.077440
10031,NaN,2.911430,9.302771,1.263013,-0.124506,0.030234,0.015677,-0.006611,0.065235,-0.048853,-0.042686,-0.224065,-0.620056,-0.750669,82.169735,-16.466889,159.109861
10032,NaN,2.786058,9.379409,1.371015,0.040755,0.070199,0.067016,0.000266,0.025999,-0.037672,-0.042780,-0.223832,-0.620156,-0.750650,82.173322,-16.438011,159.119840
10033,NaN,2.706417,9.355189,1.374527,0.104998,0.053844,0.021927,-0.003389,-0.008881,-0.016875,-0.042912,-0.223787,-0.620213,-0.750609,82.180043,-16.422774,159.111004
10034,NaN,2.711680,9.339459,1.404446,0.106976,0.088333,0.012379,-0.007579,-0.026165,-0.013208,-0.043085,-0.223823,-0.620246,-0.750561,82.187303,-16.411849,159.092107
10035,NaN,2.711639,9.410727,1.422465,0.127650,0.090398,0.082449,-0.007858,-0.026522,-0.015528,-0.043272,-0.223848,-0.620281,-0.750514,82.194361,-16.398740,159.072935
10036,NaN,2.626730,9.459733,1.466610,0.229742,0.092405,0.110814,-0.005982,-0.027376,-0.018646,-0.043467,-0.223872,-0.620325,-0.750459,82.202853,-16.384817,159.052886
10037,NaN,2.506335,9.433710,1.378125,0.295704,-0.021436,0.040634,-0.003260,-0.024102,-0.018630,-0.043653,-0.223879,-0.620381,-0.750400,82.212190,-16.369745,159.034905
10038,NaN,2.406317,9.430411,1.397407,0.390463,-0.035408,0.011876,-0.006071,-0.021296,-0.015865,-0.043819,-0.223890,-0.620423,-0.750353,82.219542,-16.356924,159.018685
10039,NaN,2.365644,9.321529,1.266773,0.351431,-0.141348,-0.119989,0.009185,-0.021383,-0.012537,-0.043960,-0.223907,-0.620519,-0.750259,82.235389,-16.345058,159.002827
10040,NaN,2.170069,9.264201,1.336795,0.541447,-0.129110,-0.220409,0.007810,-0.018305,-0.001482,-0.044047,-0.223954,-0.620598,-0.750175,82.249863,-16.340164,158.989544
10041,NaN,2.570371,9.307083,1.411665,0.221324,0.069315,-0.057299,0.013518,0.016346,0.010514,-0.043980,-0.223903,-0.620693,-0.750116,82.261387,-16.338414,158.997873
10042,NaN,2.752401,9.319847,1.418315,0.063193,0.137030,0.006890,0.020615,0.061656,-0.000528,-0.043800,-0.223655,-0.620836,-0.750082,82.269869,-16.327890,159.031976
10043,NaN,2.713158,9.333385,1.533640,0.144557,0.227321,0.023612,0.022369,0.097678,0.004936,-0.043492,-0.223283,-0.620988,-0.750085,82.273054,-16.316699,159.087962
10044,NaN,2.782061,9.303554,1.483365,0.055482,0.212788,0.008106,0.024821,0.114619,0.013792,-0.043090,-0.222883,-0.621142,-0.750099,82.274835,-16.310231,159.154544
10045,NaN,2.825040,9.318346,1.522930,0.034264,0.260851,0.039343,0.021129,0.105664,0.017734,-0.042710,-0.222520,-0.621277,-0.750117,82.275677,-16.305706,159.216311
10046,NaN,2.898263,9.308858,1.523397,-0.033531,0.288650,0.050936,0.019287,0.089751,0.026215,-0.042345,-0.222250,-0.621390,-0.750124,82.278145,-16.308209,159.269176
10047,NaN,2.941901,9.315480,1.459761,-0.094897,0.243538,0.061296,0.007384,0.061825,0.041586,-0.042027,-0.222123,-0.621437,-0.750141,82.277816,-16.320616,159.306912
10048,NaN,2.939914,9.272528,1.359790,-0.137933,0.160260,0.007048,0.007395,0.038958,0.054620,-0.041726,-0.222129,-0.621464,-0.750134,82.281256,-16.343159,159.332012
10049,NaN,2.994273,9.275517,1.273039,-0.215697,0.097368,0.014088,-0.004195,0.025128,0.060318,-0.041465,-0.222195,-0.621438,-0.750150,82.279950,-16.369052,159.349512
10050,NaN,2.976247,9.287624,1.187154,-0.225970,0.008056,0.009543,-0.009060,0.025406,0.057259,-0.041215,-0.222257,-0.621397,-0.750179,82.276141,-16.394135,159.366810
10051,NaN,2.885140,9.366784,1.172370,-0.128989,-0.056015,0.057234,-0.005125,0.022507,0.060469,-0.040962,-0.222334,-0.621367,-0.750195,82.274726,-16.420351,159.382780
10052,NaN,2.748050,9.410597,1.067910,-0.032540,-0.209116,0.046661,-0.002487,0.013256,0.052623,-0.040760,-0.222428,-0.621354,-0.750189,82.276807,-16.443737,159.392520
10053,NaN,2.601549,9.443998,1.039134,0.099012,-0.293590,0.033173,-0.008216,-0.001260,0.054607,-0.040606,-0.222575,-0.621314,-0.750187,82.277742,-16.468475,159.393993
10054,NaN,2.462564,9.340126,1.054883,0.212018,-0.304306,-0.103033,-0.015757,-0.028620,0.061272,-0.040516,-0.222850,-0.621232,-0.750178,82.279050,-16.499996,159.379634
10055,NaN,2.439647,9.304980,1.023593,0.218043,-0.334308,-0.147132,-0.015669,-0.046894,0.063358,-0.040479,-0.223194,-0.621146,-0.750149,82.283233,-16.533186,159.354763
10056,NaN,2.411133,9.222216,1.047954,0.240688,-0.305041,-0.230932,-0.026766,-0.052373,0.069327,-0.040445,-0.223581,-0.621009,-0.750149,82.282075,-16.571107,159.326974
10057,NaN,2.439629,9.256271,1.104534,0.249800,-0.254458,-0.183400,-0.035804,-0.040081,0.072412,-0.040376,-0.223923,-0.620838,-0.750192,82.273424,-16.608874,159.306829
10058,NaN,2.657784,9.298771,1.147485,0.084949,-0.155180,-0.075317,-0.046265,-0.018912,0.066181,-0.040272,-0.224171,-0.620638,-0.750289,82.255528,-16.642436,159.298615
10059,NaN,2.749988,9.325510,1.229720,0.043115,-0.060353,-0.012980,-0.060657,0.005172,0.056746,-0.040149,-0.224290,-0.620401,-0.750456,82.225340,-16.667800,159.304056
10060,NaN,2.736625,9.365291,1.302810,0.094237,-0.014071,0.030382,-0.071533,0.021385,0.059133,-0.039974,-0.224360,-0.620122,-0.750675,82.186273,-16.694239,159.319184
10061,NaN,2.766666,9.361738,1.344964,0.084528,0.027247,0.041125,-0.083541,0.020930,0.060918,-0.039813,-0.224427,-0.619797,-0.750932,82.140194,-16.720734,159.334332
10062,NaN,2.851306,9.332704,1.382958,0.019190,0.088130,0.042957,-0.089498,0.009424,0.069439,-0.039657,-0.224570,-0.619437,-0.751195,82.092604,-16.753939,159.343264
10063,NaN,2.925848,9.285390,1.393347,-0.051178,0.124430,0.021048,-0.089249,-0.003946,0.073264,-0.039533,-0.224768,-0.619071,-0.751443,82.047166,-16.789377,159.344717
10064,NaN,3.023854,9.230292,1.332394,-0.170571,0.107351,-0.010818,-0.052698,-0.026290,0.071737,-0.039437,-0.225060,-0.618839,-0.751552,82.026702,-16.826709,159.332722
10065,NaN,3.018887,9.253000,1.433092,-0.117152,0.186742,0.022801,-0.055023,-0.027362,0.079607,-0.039323,-0.225372,-0.618590,-0.751670,82.004724,-16.867637,159.320874
10066,NaN,2.901980,9.234635,1.474486,0.005585,0.183573,-0.022879,-0.048765,-0.033525,0.088114,-0.039183,-0.225742,-0.618353,-0.751761,81.987374,-16.914847,159.305976
10067,NaN,3.017095,9.231236,1.435598,-0.106716,0.182717,0.002339,-0.037806,-0.025076,0.088734,-0.039008,-0.226077,-0.618158,-0.751830,81.974637,-16.960813,159.296332
10068,NaN,2.953220,9.295331,1.510569,0.000182,0.209459,0.054563,-0.046366,-0.021487,0.084780,-0.038841,-0.226392,-0.617936,-0.751927,81.956674,-17.005174,159.288315
10069,NaN,2.773385,9.298584,1.476717,0.154832,0.111244,0.000552,-0.053559,-0.031383,0.090604,-0.038696,-0.226754,-0.617678,-0.752037,81.935955,-17.052728,159.275062
10070,NaN,2.841371,9.303810,1.473576,0.100951,0.123829,0.025004,-0.058018,-0.042597,0.096957,-0.038562,-0.227184,-0.617394,-0.752147,81.914698,-17.105701,159.255571
10071,NaN,2.828870,9.264807,1.422952,0.090616,0.075960,-0.022388,-0.065955,-0.050446,0.092034,-0.038484,-0.227619,-0.617084,-0.752274,81.890168,-17.155613,159.231172
10072,NaN,2.762358,9.251402,1.377909,0.136234,0.008471,-0.060813,-0.066715,-0.037518,0.096265,-0.038347,-0.228025,-0.616768,-0.752417,81.863078,-17.207798,159.214675
10073,NaN,2.857517,9.218308,1.389598,0.054350,0.051582,-0.062407,-0.074271,-0.023647,0.087875,-0.038212,-0.228345,-0.616436,-0.752599,81.829191,-17.253193,159.205889
10074,NaN,2.885501,9.243940,1.347443,0.023461,0.009020,-0.035596,-0.068217,-0.009066,0.075583,-0.038066,-0.228580,-0.616143,-0.752774,81.796756,-17.291345,159.204575
10075,NaN,2.990745,9.285463,1.458665,-0.013565,0.128643,0.050138,-0.066775,0.003353,0.079046,-0.037873,-0.228773,-0.615855,-0.752962,81.762605,-17.329524,159.211073
10076,NaN,2.984079,9.301339,1.457997,-0.000116,0.114801,0.063152,-0.058714,0.006691,0.074044,-0.037673,-0.228946,-0.615602,-0.753126,81.732853,-17.365509,159.219032
10077,NaN,2.913337,9.274968,1.466319,0.064225,0.098127,0.018329,-0.057188,0.002415,0.072399,-0.037497,-0.229124,-0.615357,-0.753281,81.704499,-17.400002,159.224436
10078,NaN,2.935515,9.266844,1.425734,0.030962,0.063954,0.011737,-0.062258,-0.003415,0.076904,-0.037322,-0.229342,-0.615086,-0.753444,81.674418,-17.438438,159.226679
10079,NaN,3.001630,9.271907,1.424052,-0.023089,0.076589,0.036148,-0.065451,-0.014666,0.078791,-0.037183,-0.229602,-0.614799,-0.753607,81.644179,-17.477981,159.222572
10080,NaN,3.028577,9.232947,1.465704,-0.034991,0.126258,0.013334,-0.064151,-0.025332,0.072021,-0.037096,-0.229888,-0.614522,-0.753750,81.617042,-17.515475,159.211404
10081,NaN,3.074311,9.208889,1.511368,-0.058605,0.182821,0.010876,-0.057561,-0.023581,0.078527,-0.036977,-0.230182,-0.614262,-0.753877,81.592918,-17.555632,159.202004
10082,NaN,3.078300,9.185743,1.464936,-0.080307,0.141753,-0.016091,-0.049282,-0.018436,0.079144,-0.036825,-0.230467,-0.614034,-0.753983,81.572880,-17.596593,159.195591
10083,NaN,3.034735,9.172003,1.452880,-0.043896,0.114129,-0.043800,-0.040738,-0.012962,0.082073,-0.036640,-0.230735,-0.613836,-0.754072,81.556374,-17.637894,159.192851
10084,NaN,3.040200,9.205442,1.477350,-0.025610,0.124976,-0.007114,-0.039900,-0.008885,0.085206,-0.036425,-0.231004,-0.613638,-0.754161,81.539827,-17.681490,159.192677
10085,NaN,3.021924,9.189854,1.499168,0.001730,0.137264,-0.024220,-0.039720,-0.013138,0.087972,-0.036216,-0.231291,-0.613436,-0.754247,81.523762,-17.726168,159.190399
10086,NaN,3.009202,9.208242,1.519145,0.031574,0.141219,-0.007899,-0.043523,-0.012938,0.090852,-0.035997,-0.231592,-0.613217,-0.754344,81.505714,-17.773306,159.188341
10087,NaN,3.057693,9.197958,1.510688,-0.010914,0.146962,-0.003897,-0.041392,-0.013462,0.090040,-0.035784,-0.231886,-0.613006,-0.754435,81.488668,-17.819189,159.186050
10088,NaN,3.039100,9.233079,1.501218,0.016441,0.117910,0.022218,-0.044183,-0.012132,0.089487,-0.035568,-0.232179,-0.612786,-0.754534,81.470126,-17.865487,159.184380
10089,NaN,3.036271,9.212437,1.477131,0.010992,0.094605,-0.001430,-0.040849,-0.009729,0.090844,-0.035340,-0.232462,-0.612576,-0.754627,81.452670,-17.911518,159.184380
10090,NaN,3.020164,9.210977,1.446922,0.019605,0.056074,-0.011997,-0.050229,-0.005369,0.095950,-0.035085,-0.232748,-0.612327,-0.754754,81.429238,-17.960902,159.187348
10091,NaN,3.036479,9.204925,1.428302,0.002594,0.039677,-0.015274,-0.048625,-0.000498,0.093346,-0.034829,-0.233003,-0.612087,-0.754882,81.405542,-18.007574,159.193145
10092,NaN,3.047743,9.164633,1.411890,-0.016603,0.031577,-0.051981,-0.054834,0.004640,0.106879,-0.034508,-0.233284,-0.611808,-0.755035,81.377301,-18.062288,159.203109
10093,NaN,3.069194,9.177723,1.444247,-0.012387,0.057682,-0.028368,-0.045250,-0.000739,0.113381,-0.034172,-0.233601,-0.611557,-0.755156,81.354998,-18.120336,159.210642
10094,NaN,3.197086,9.188753,1.433390,-0.119734,0.081636,0.020325,-0.038973,0.001941,0.108215,-0.033836,-0.233899,-0.611336,-0.755258,81.336273,-18.176032,159.219170
10095,NaN,3.255413,9.231522,1.473748,-0.138668,0.121619,0.084616,-0.029451,0.011127,0.089030,-0.033537,-0.234099,-0.611175,-0.755340,81.321466,-18.219272,159.231600
10096,NaN,3.213772,9.274540,1.532695,-0.062143,0.145989,0.120559,-0.016301,0.017137,0.083356,-0.033222,-0.234267,-0.611071,-0.755385,81.313580,-18.259570,159.246961
10097,NaN,3.093577,9.295903,1.594133,0.079253,0.152131,0.111821,-0.026332,0.007006,0.072616,-0.032994,-0.234434,-0.610940,-0.755450,81.301775,-18.293891,159.255455
10098,NaN,3.064135,9.320069,1.659604,0.141871,0.191720,0.134674,-0.032935,-0.014132,0.066956,-0.032856,-0.234667,-0.610787,-0.755507,81.290665,-18.327606,159.250686
10099,NaN,3.005639,9.276196,1.671859,0.192377,0.190089,0.076885,-0.051736,-0.038815,0.054177,-0.032867,-0.234946,-0.610574,-0.755592,81.273397,-18.355454,159.230138
10100,NaN,2.975278,9.208013,1.644922,0.196347,0.168067,-0.000514,-0.056266,-0.046925,0.056658,-0.032896,-0.235268,-0.610339,-0.755680,81.255382,-18.386194,159.204874
10101,NaN,3.068550,9.188301,1.601526,0.095596,0.160367,0.004180,-0.056623,-0.045785,0.057627,-0.032921,-0.235583,-0.610102,-0.755773,81.236518,-18.416615,159.180562
10102,NaN,3.102625,9.161372,1.565618,0.048445,0.141376,-0.015451,-0.054814,-0.031755,0.054132,-0.032911,-0.235840,-0.609878,-0.755874,81.216568,-18.444614,159.164133
10103,NaN,3.166606,9.166159,1.562164,-0.005619,0.154066,0.008842,-0.046053,-0.009828,0.049671,-0.032844,-0.235996,-0.609696,-0.755975,81.197189,-18.467399,159.160566
10104,NaN,3.161155,9.161737,1.485261,-0.029787,0.079924,-0.008145,-0.026453,0.016972,0.047403,-0.032677,-0.236054,-0.609595,-0.756045,81.184475,-18.487322,159.172616
10105,NaN,3.190155,9.157299,1.522200,-0.039479,0.121254,0.002304,-0.015794,0.038177,0.052490,-0.032418,-0.236042,-0.609531,-0.756112,81.173252,-18.507500,159.197973
10106,NaN,3.173216,9.177426,1.541604,-0.009651,0.125258,0.018650,-0.009517,0.055736,0.046984,-0.032114,-0.235954,-0.609502,-0.756176,81.162893,-18.523771,159.233141
10107,NaN,3.150028,9.163838,1.561981,0.017719,0.137468,0.001546,0.005964,0.058394,0.046602,-0.031790,-0.235852,-0.609530,-0.756199,81.160446,-18.538840,159.270013
10108,NaN,3.134741,9.147890,1.558190,0.028842,0.131897,-0.018801,0.012079,0.052034,0.055007,-0.031442,-0.235806,-0.609572,-0.756194,81.162904,-18.559976,159.303723
10109,NaN,3.158221,9.160788,1.563330,0.016646,0.140240,0.001509,0.010598,0.041425,0.057022,-0.031125,-0.235800,-0.609603,-0.756184,81.165988,-18.582445,159.331433
10110,NaN,3.126903,9.144713,1.501666,0.020461,0.076904,-0.032505,0.008390,0.034569,0.064296,-0.030799,-0.235847,-0.609617,-0.756171,81.169357,-18.610380,159.355580
10111,NaN,3.143773,9.159665,1.530240,0.024658,0.103048,-0.008954,-0.002773,0.030862,0.063076,-0.030507,-0.235898,-0.609588,-0.756191,81.166583,-18.637218,159.377541
10112,NaN,3.202542,9.130408,1.525960,-0.031573,0.123990,-0.018158,-0.004665,0.028897,0.072190,-0.030184,-0.235989,-0.609542,-0.756212,81.163295,-18.670120,159.399042
10113,NaN,3.210537,9.142714,1.474653,-0.051080,0.074576,-0.011504,-0.002747,0.028049,0.069096,-0.029877,-0.236069,-0.609506,-0.756229,81.160858,-18.700624,159.419946
10114,NaN,3.216587,9.140389,1.475881,-0.051547,0.075972,-0.011517,-0.006335,0.022550,0.071437,-0.029578,-0.236181,-0.609454,-0.756247,81.157827,-18.733657,159.437594
10115,NaN,3.165830,9.145888,1.431557,-0.017584,0.015203,-0.029101,-0.001436,0.020648,0.071175,-0.029284,-0.236295,-0.609418,-0.756251,81.157471,-18.766004,159.454297
10116,NaN,3.113133,9.136793,1.439883,0.035420,0.005236,-0.053356,-0.010510,0.017886,0.072450,-0.029001,-0.236428,-0.609348,-0.756277,81.152893,-18.800020,159.469260
10117,NaN,3.178544,9.141039,1.434355,-0.018659,0.017958,-0.029108,-0.013690,0.015820,0.073347,-0.028729,-0.236565,-0.609264,-0.756313,81.146363,-18.834018,159.483218
10118,NaN,3.195165,9.191736,1.485385,0.004352,0.053782,0.031119,-0.016642,0.008033,0.073716,-0.028478,-0.236738,-0.609167,-0.756346,81.140117,-18.869618,159.492418
10119,NaN,3.144987,9.187119,1.597539,0.097306,0.137160,0.026923,-0.017374,-0.009129,0.076516,-0.028273,-0.236978,-0.609061,-0.756364,81.136196,-18.907624,159.491801
10120,NaN,3.124941,9.260010,1.607203,0.143283,0.117866,0.089924,-0.024000,-0.047886,0.077247,-0.028188,-0.237372,-0.608925,-0.756354,81.136468,-18.950157,159.467874
10121,NaN,3.078720,9.269770,1.665597,0.217330,0.150476,0.092437,-0.025356,-0.080444,0.088413,-0.028165,-0.237917,-0.608764,-0.756313,81.141475,-19.001183,159.425630
10122,NaN,3.082453,9.232486,1.667530,0.214576,0.160040,0.058953,-0.045300,-0.111721,0.091044,-0.028248,-0.238591,-0.608521,-0.756293,81.141633,-19.057157,159.364744
10123,NaN,3.127243,9.238086,1.627150,0.169574,0.132814,0.072812,-0.063687,-0.142701,0.091556,-0.028449,-0.239376,-0.608202,-0.756294,81.136842,-19.115443,159.285423
10124,NaN,3.139418,9.197630,1.607675,0.150435,0.124563,0.036110,-0.082445,-0.157658,0.092665,-0.028709,-0.240223,-0.607809,-0.756331,81.124824,-19.176404,159.197129
10125,NaN,3.109407,9.160472,1.498109,0.132951,0.018494,-0.024482,-0.096611,-0.158504,0.094136,-0.028987,-0.241070,-0.607359,-0.756413,81.104355,-19.237588,159.108675
10126,NaN,3.237828,9.168828,1.486830,0.025524,0.042682,0.023934,-0.093442,-0.150532,0.083400,-0.029274,-0.241860,-0.606936,-0.756489,81.085095,-19.292725,159.023760
10127,NaN,3.294082,9.154639,1.454755,-0.033353,0.030614,0.024622,-0.081336,-0.134099,0.071932,-0.029543,-0.242549,-0.606573,-0.756549,81.069379,-19.339215,158.947788
10128,NaN,3.249528,9.178981,1.463820,0.021946,0.012492,0.033899,-0.073125,-0.121999,0.063808,-0.029793,-0.243174,-0.606254,-0.756594,81.056836,-19.380768,158.878125
10129,NaN,3.224091,9.217691,1.477299,0.065491,0.001362,0.063481,-0.068690,-0.121350,0.067754,-0.030024,-0.243804,-0.605944,-0.756630,81.046072,-19.423805,158.809426
10130,NaN,3.172860,9.244464,1.509143,0.137182,0.001056,0.075985,-0.070112,-0.134517,0.077968,-0.030255,-0.244520,-0.605617,-0.756652,81.037421,-19.474513,158.733567
10131,NaN,3.046486,9.265538,1.492301,0.254920,-0.068500,0.050808,-0.087417,-0.162238,0.095421,-0.030528,-0.245385,-0.605196,-0.756698,81.023365,-19.536879,158.642926
10132,NaN,3.103598,9.148032,1.521339,0.196705,0.001599,-0.035440,-0.105736,-0.192614,0.100372,-0.030893,-0.246382,-0.604696,-0.756759,81.005442,-19.605499,158.534269
10133,NaN,3.234079,9.155086,1.508749,0.089128,0.025801,0.012921,-0.111641,-0.206187,0.108790,-0.031278,-0.247449,-0.604159,-0.756824,80.986176,-19.679409,158.418467
10134,NaN,3.535946,9.181392,1.493879,-0.162393,0.102136,0.136972,-0.101561,-0.194558,0.137521,-0.031503,-0.248566,-0.603627,-0.756873,80.970135,-19.769290,158.312130
10135,NaN,3.341891,9.163454,1.511193,0.022986,0.047053,0.057372,-0.110818,-0.213387,0.125383,-0.031846,-0.249710,-0.603069,-0.756927,80.952619,-19.853321,158.193534
10136,NaN,3.090703,9.119409,1.462663,0.224464,-0.079922,-0.076227,-0.098750,-0.239345,0.137281,-0.032203,-0.250995,-0.602539,-0.756909,80.947702,-19.947151,158.060152
10137,NaN,3.141688,9.086527,1.400052,0.160842,-0.116855,-0.098998,-0.101968,-0.252627,0.164220,-0.032506,-0.252405,-0.601957,-0.756890,80.942466,-20.056714,157.921505
10138,NaN,3.154138,9.061444,1.350907,0.139252,-0.158136,-0.125640,-0.113307,-0.247110,0.162088,-0.032811,-0.253790,-0.601337,-0.756907,80.930511,-20.165311,157.785674
10139,NaN,3.231335,9.075809,1.292938,0.066270,-0.196090,-0.094629,-0.124085,-0.223506,0.156127,-0.033086,-0.255061,-0.600683,-0.756987,80.907363,-20.267701,157.663587
10140,NaN,3.240994,9.071495,1.321088,0.082241,-0.176880,-0.091409,-0.133132,-0.200999,0.144832,-0.033343,-0.256216,-0.600015,-0.757116,80.875456,-20.362454,157.553817
10141,NaN,3.203169,9.042118,1.364955,0.137700,-0.154019,-0.125552,-0.126235,-0.167106,0.130031,-0.033549,-0.257193,-0.599394,-0.757266,80.840494,-20.445072,157.463301
10142,NaN,3.196350,9.058960,1.388710,0.167546,-0.149938,-0.109113,-0.113673,-0.141700,0.103069,-0.033761,-0.258001,-0.598861,-0.757404,80.808927,-20.510905,157.385263
10143,NaN,3.257973,8.990063,1.364020,0.092602,-0.138816,-0.155135,-0.107931,-0.130960,0.075438,-0.034043,-0.258680,-0.598385,-0.757536,80.778869,-20.559407,157.311212
10144,NaN,3.299220,9.031678,1.349525,0.066423,-0.156210,-0.104523,-0.114858,-0.129560,0.063010,-0.034371,-0.259322,-0.597900,-0.757685,80.745551,-20.601548,157.236596
10145,NaN,3.444528,9.051950,1.341534,-0.052775,-0.124832,-0.035985,-0.126165,-0.128595,0.073999,-0.034675,-0.259984,-0.597357,-0.757872,80.704712,-20.649093,157.163838
10146,NaN,3.531356,9.014525,1.373407,-0.118033,-0.063903,-0.035144,-0.131246,-0.126734,0.086818,-0.034926,-0.260683,-0.596778,-0.758077,80.660680,-20.704530,157.093306
10147,NaN,3.541137,8.973481,1.358481,-0.137215,-0.072293,-0.071824,-0.140043,-0.141853,0.100607,-0.035186,-0.261472,-0.596144,-0.758292,80.613918,-20.768468,157.015229
10148,NaN,3.553249,8.967549,1.366011,-0.137617,-0.070885,-0.071819,-0.148868,-0.164229,0.122936,-0.035435,-0.262417,-0.595444,-0.758504,80.566696,-20.847939,156.925678
10149,NaN,3.592793,8.936626,1.331940,-0.184804,-0.090014,-0.091410,-0.155925,-0.173064,0.137495,-0.035669,-0.263431,-0.594694,-0.758730,80.516445,-20.935798,156.832405
10150,NaN,3.678251,8.878566,1.312303,-0.271197,-0.071811,-0.117232,-0.150532,-0.164226,0.141866,-0.035849,-0.264431,-0.593960,-0.758948,80.467819,-21.026109,156.744817
10151,NaN,3.700030,8.888974,1.370325,-0.250581,-0.027700,-0.090636,-0.132295,-0.147499,0.140338,-0.035964,-0.265360,-0.593299,-0.759136,80.425724,-21.113328,156.667405
10152,NaN,3.702679,8.905398,1.497677,-0.180661,0.069886,-0.054541,-0.107706,-0.125558,0.138038,-0.035987,-0.266209,-0.592738,-0.759275,80.393560,-21.197903,156.602886
10153,NaN,3.612494,8.921245,1.497649,-0.088314,0.022477,-0.072392,-0.080295,-0.100708,0.133590,-0.035920,-0.266950,-0.592291,-0.759368,80.371442,-21.276939,156.553159
10154,NaN,3.620638,8.952841,1.547302,-0.053699,0.051522,-0.032556,-0.068367,-0.076577,0.135328,-0.035755,-0.267611,-0.591891,-0.759454,80.351289,-21.355335,156.518067
10155,NaN,3.609353,8.990532,1.667311,0.029945,0.134010,0.016766,-0.059159,-0.063732,0.119476,-0.035604,-0.268173,-0.591548,-0.759530,80.333751,-21.422892,156.489323
10156,NaN,3.636103,9.036130,1.720931,0.052919,0.170189,0.076838,-0.058393,-0.054288,0.121067,-0.035414,-0.268709,-0.591209,-0.759614,80.314976,-21.491109,156.466303
10157,NaN,3.705505,8.966692,1.795087,0.018097,0.274741,0.050316,-0.052451,-0.050758,0.114654,-0.035233,-0.269209,-0.590900,-0.759686,80.298612,-21.554710,156.444935
10158,NaN,3.762609,8.969798,1.835317,-0.003039,0.323317,0.080661,-0.059273,-0.036320,0.107035,-0.035045,-0.269635,-0.590578,-0.759794,80.275892,-21.613279,156.431396
10159,NaN,3.734076,8.957011,1.906278,0.057240,0.371063,0.069837,-0.066641,-0.023950,0.104059,-0.034844,-0.269998,-0.590234,-0.759941,80.245798,-21.668335,156.425250
10160,NaN,3.861311,8.976856,1.839862,-0.069116,0.344791,0.124872,-0.076897,0.006639,0.112957,-0.034530,-0.270275,-0.589845,-0.760159,80.203104,-21.726082,156.438496
10161,NaN,4.000460,8.942526,1.885418,-0.171628,0.435052,0.152678,-0.096502,0.064794,0.102774,-0.034113,-0.270293,-0.589403,-0.760514,80.135902,-21.771766,156.486277
10162,NaN,4.010197,8.880741,1.777140,-0.244527,0.348229,0.083090,-0.111457,0.122274,0.080719,-0.033627,-0.270029,-0.588945,-0.760984,80.048516,-21.799889,156.566537
10163,NaN,3.849453,8.823693,1.753703,-0.135834,0.269541,-0.032085,-0.127197,0.163041,0.080238,-0.033048,-0.269601,-0.588433,-0.761558,79.942296,-21.822985,156.671780
10164,NaN,3.719869,8.740780,1.665838,-0.090020,0.152483,-0.169955,-0.130085,0.180053,0.091001,-0.032378,-0.269143,-0.587899,-0.762160,79.830645,-21.850827,156.788401
10165,NaN,3.759819,8.796824,1.612882,-0.135265,0.084469,-0.112365,-0.138346,0.185752,0.107626,-0.031642,-0.268707,-0.587309,-0.762800,79.711616,-21.886701,156.910607
10166,NaN,3.781786,8.856064,1.504782,-0.187670,-0.041346,-0.067988,-0.150574,0.178840,0.122428,-0.030883,-0.268343,-0.586653,-0.763464,79.586994,-21.931933,157.030161
10167,NaN,3.818335,8.895599,1.529440,-0.197619,-0.040781,-0.014229,-0.166430,0.162554,0.131794,-0.030160,-0.268061,-0.585918,-0.764156,79.455876,-21.983368,157.141228
10168,NaN,3.821102,8.888539,1.447589,-0.238059,-0.132878,-0.033726,-0.190833,0.131827,0.132080,-0.029556,-0.267897,-0.585086,-0.764874,79.318167,-22.038488,157.233632
10169,NaN,3.804117,8.851050,1.413647,-0.248041,-0.181451,-0.080459,-0.208734,0.103526,0.139750,-0.029032,-0.267857,-0.584168,-0.765609,79.175627,-22.100238,157.310103
10170,NaN,3.820662,8.805612,1.389481,-0.283408,-0.207767,-0.120249,-0.231440,0.066028,0.148573,-0.028612,-0.267987,-0.583147,-0.766358,79.028656,-22.171338,157.364845
10171,NaN,3.887516,8.836722,1.450480,-0.302472,-0.167125,-0.056416,-0.251958,0.046492,0.161986,-0.028227,-0.268223,-0.582023,-0.767143,78.873156,-22.251515,157.409728
10172,NaN,3.901880,8.826333,1.474959,-0.302867,-0.165713,-0.056404,-0.266745,0.034347,0.176684,-0.027838,-0.268550,-0.580822,-0.767953,78.711651,-22.341667,157.449086
10173,NaN,3.942294,8.791022,1.584797,-0.293557,-0.073567,-0.053402,-0.279251,0.030363,0.185408,-0.027447,-0.268911,-0.579558,-0.768795,78.542853,-22.436607,157.487545
10174,NaN,3.987407,8.842375,1.691694,-0.265907,-0.012259,0.029969,-0.289396,0.047338,0.192984,-0.026988,-0.269231,-0.578247,-0.769686,78.364217,-22.534203,157.537449
10175,NaN,4.122426,8.871484,1.726371,-0.354900,0.022183,0.114620,-0.314259,0.083676,0.179297,-0.026512,-0.269363,-0.576860,-0.770697,78.162854,-22.619318,157.608266
10176,NaN,4.108990,8.847204,1.778638,-0.327261,0.034281,0.097508,-0.341194,0.142135,0.166170,-0.025953,-0.269232,-0.575394,-0.771856,77.933242,-22.690307,157.713112
10177,NaN,4.047421,8.817053,1.797660,-0.278932,-0.000892,0.050155,-0.366336,0.208200,0.157323,-0.025273,-0.268812,-0.573848,-0.773175,77.673506,-22.747556,157.857444
10178,NaN,3.920144,8.803207,1.802417,-0.179509,-0.080502,-0.010964,-0.403532,0.259302,0.160257,-0.024483,-0.268200,-0.572159,-0.774663,77.380459,-22.799855,158.033372
10179,NaN,3.754181,8.814219,1.900037,-0.000778,-0.103907,-0.046242,-0.426425,0.279658,0.168039,-0.023637,-0.267524,-0.570368,-0.776242,77.068414,-22.852712,158.223210
10180,NaN,3.536911,8.820041,1.984360,0.215195,-0.156700,-0.108593,-0.451695,0.273424,0.195094,-0.022736,-0.266948,-0.568440,-0.777880,76.741924,-22.920855,158.413353
10181,NaN,3.534482,8.878892,2.027937,0.244586,-0.193310,-0.048346,-0.480553,0.266741,0.211417,-0.021831,-0.266435,-0.566371,-0.779590,76.398724,-22.997570,158.602467
10182,NaN,3.534306,8.862711,2.127729,0.276954,-0.156239,-0.042078,-0.507352,0.249713,0.213815,-0.020997,-0.265994,-0.564188,-0.781344,76.043986,-23.077271,158.782130
10183,NaN,3.407658,8.806207,2.242568,0.414152,-0.134519,-0.117296,-0.518896,0.211099,0.220538,-0.020264,-0.265715,-0.561942,-0.783075,75.690532,-23.164679,158.940264
10184,NaN,3.290842,8.782324,2.357316,0.553621,-0.120651,-0.158959,-0.526983,0.146192,0.224490,-0.019706,-0.265702,-0.559649,-0.784734,75.347505,-23.263101,159.060389
10185,NaN,3.237703,8.780811,2.410765,0.620525,-0.145926,-0.169526,-0.519929,0.066440,0.234585,-0.019325,-0.266026,-0.557356,-0.786264,75.026090,-23.377698,159.134857
10186,NaN,3.294601,8.805432,2.441472,0.594258,-0.163018,-0.118831,-0.510548,-0.018172,0.248460,-0.019110,-0.266722,-0.555071,-0.787649,74.729349,-23.512705,159.161197
10187,NaN,3.497869,8.825354,2.486619,0.451655,-0.116828,-0.010271,-0.500822,-0.076884,0.259920,-0.019002,-0.267677,-0.552798,-0.788925,74.450853,-23.662325,159.154949
10188,NaN,3.704818,8.702071,2.504825,0.258566,-0.034823,-0.032218,-0.479567,-0.111091,0.247110,-0.019008,-0.268735,-0.550619,-0.790088,74.193773,-23.810733,159.126552
10189,NaN,3.773744,8.596208,2.553776,0.202707,0.026722,-0.085625,-0.439979,-0.132994,0.226304,-0.019106,-0.269820,-0.548618,-0.791107,73.965589,-23.950672,159.082197
10190,NaN,3.812926,8.609949,2.564211,0.188106,0.002469,-0.055164,-0.412126,-0.158412,0.223063,-0.019246,-0.271003,-0.546726,-0.792009,73.760089,-24.093584,159.022334
10191,NaN,3.986872,8.573866,2.509226,0.017500,-0.011361,-0.029949,-0.389402,-0.161090,0.232877,-0.019327,-0.272218,-0.544907,-0.792843,73.567106,-24.241919,158.963216
10192,NaN,4.189400,8.647870,2.537996,-0.109004,0.012098,0.125420,-0.372642,-0.124784,0.245053,-0.019234,-0.273328,-0.543140,-0.793676,73.374157,-24.391799,158.928494
10193,NaN,4.207499,8.562619,2.512813,-0.146603,-0.006521,0.052101,-0.364198,-0.058434,0.245071,-0.018953,-0.274169,-0.541408,-0.794575,73.168955,-24.530285,158.934460
10194,NaN,4.239746,8.521754,2.545723,-0.160819,0.009940,0.038725,-0.355209,0.022438,0.239260,-0.018460,-0.274678,-0.539727,-0.795554,72.949199,-24.652634,158.988524
10195,NaN,4.176611,8.534060,2.504813,-0.117552,-0.091067,0.012082,-0.364579,0.092930,0.227860,-0.017838,-0.274869,-0.538027,-0.796653,72.706485,-24.756069,159.083687
10196,NaN,4.123181,8.471073,2.469954,-0.104004,-0.154211,-0.074844,-0.375275,0.173302,0.219462,-0.017045,-0.274719,-0.536302,-0.797884,72.438002,-24.841284,159.226089
10197,NaN,4.066222,8.472742,2.516592,-0.037086,-0.179482,-0.085356,-0.404150,0.232426,0.212367,-0.016164,-0.274306,-0.534472,-0.799271,72.137818,-24.911139,159.403403
10198,NaN,3.975274,8.343133,2.528364,0.004920,-0.191414,-0.233209,-0.418829,0.279649,0.216623,-0.015157,-0.273717,-0.532579,-0.800755,71.816861,-24.974609,159.610287
10199,NaN,3.826595,8.298897,2.577074,0.134930,-0.227808,-0.321349,-0.424228,0.293487,0.231976,-0.014062,-0.273107,-0.530640,-0.802269,71.487254,-25.042319,159.829170
10200,NaN,3.789776,8.310219,2.635278,0.190283,-0.245866,-0.311638,-0.439263,0.269060,0.246627,-0.012990,-0.272635,-0.528615,-0.803783,71.153813,-25.121864,160.036812
10201,NaN,3.907698,8.351423,2.792571,0.168893,-0.147547,-0.181266,-0.451824,0.241003,0.275110,-0.011898,-0.272343,-0.526495,-0.805289,70.816949,-25.220404,160.234323
10202,NaN,3.913566,8.357361,2.913485,0.219817,-0.100409,-0.138432,-0.454969,0.202620,0.290560,-0.010847,-0.272249,-0.524335,-0.806744,70.486317,-25.334109,160.412813
10203,NaN,3.976093,8.346124,3.151441,0.273463,0.069845,-0.049554,-0.448012,0.161009,0.306453,-0.009833,-0.272358,-0.522174,-0.808120,70.167862,-25.462908,160.570863
10204,NaN,3.992094,8.411638,3.325120,0.361442,0.137168,0.066542,-0.448570,0.114117,0.313322,-0.008912,-0.272677,-0.519996,-0.809427,69.860047,-25.604399,160.703251
10205,NaN,4.009280,8.482364,3.574578,0.486762,0.265281,0.212026,-0.449165,0.067215,0.320105,-0.008089,-0.273196,-0.517800,-0.810667,69.562320,-25.757601,160.810291
10206,NaN,4.094962,8.497963,3.789682,0.526260,0.410040,0.331298,-0.446270,0.026635,0.317220,-0.007377,-0.273875,-0.515615,-0.811837,69.276676,-25.917554,160.893377
10207,NaN,4.149516,8.534768,3.814500,0.513644,0.378159,0.395353,-0.431447,-0.012423,0.301617,-0.006810,-0.274667,-0.513506,-0.812910,69.010280,-26.076103,160.950782
10208,NaN,4.022650,8.541944,3.829143,0.643353,0.301162,0.351172,-0.424665,-0.061202,0.274655,-0.006466,-0.275591,-0.511457,-0.813892,68.763144,-26.230732,160.973655
10209,NaN,3.920842,8.477399,3.792525,0.710371,0.226186,0.240499,-0.420295,-0.141764,0.263003,-0.006373,-0.276805,-0.509435,-0.814748,68.540161,-26.395161,160.946779
10210,NaN,3.825813,8.439549,3.704298,0.758599,0.100522,0.137131,-0.428017,-0.241732,0.259318,-0.006557,-0.278421,-0.507381,-0.815477,68.339901,-26.579463,160.859975
10211,NaN,3.941648,8.399273,3.754111,0.695366,0.153740,0.170817,-0.430242,-0.334788,0.259608,-0.006982,-0.280409,-0.505310,-0.816078,68.162768,-26.783163,160.718557
10212,NaN,4.071756,8.386370,3.727433,0.596963,0.138479,0.208711,-0.408737,-0.422490,0.245523,-0.007653,-0.282723,-0.503339,-0.816492,68.023899,-26.999239,160.521652
10213,NaN,4.177142,8.429890,3.947051,0.654805,0.293457,0.364527,-0.391506,-0.494335,0.240637,-0.008504,-0.285310,-0.501436,-0.816754,67.915072,-27.227720,160.281065
10214,NaN,4.099223,8.493258,4.107180,0.849914,0.337594,0.432871,-0.358789,-0.568354,0.236759,-0.009505,-0.288193,-0.499665,-0.816817,67.847204,-27.471261,159.994959
10215,NaN,3.887069,8.682468,4.258680,1.193046,0.272788,0.537814,-0.327133,-0.655996,0.238962,-0.010675,-0.291431,-0.498007,-0.816666,67.822260,-27.734247,159.656746
10216,NaN,3.622231,8.787816,4.282258,1.501638,0.130229,0.502924,-0.312977,-0.775305,0.254477,-0.012053,-0.295197,-0.496371,-0.816290,67.839616,-28.032156,159.249587
10217,NaN,3.404843,8.694937,4.197010,1.669020,0.014273,0.287985,-0.317119,-0.928366,0.269633,-0.013760,-0.299611,-0.494674,-0.815685,67.898372,-28.369915,158.752850
10218,NaN,3.460484,8.529610,3.973247,1.526998,-0.088530,0.095689,-0.337924,-1.041257,0.285841,-0.015707,-0.304523,-0.492847,-0.814936,67.980363,-28.741029,158.189381
10219,NaN,3.564335,8.385527,3.735562,1.345010,-0.194678,-0.059298,-0.353173,-1.103670,0.292267,-0.017809,-0.309685,-0.490926,-0.814107,68.074962,-29.127036,157.587267
10220,NaN,3.742841,8.222742,3.537267,1.116937,-0.231136,-0.177687,-0.358600,-1.112874,0.298758,-0.019909,-0.314898,-0.488955,-0.813244,68.174274,-29.518706,156.977724
10221,NaN,3.980234,8.060558,3.500913,0.926340,-0.116414,-0.210646,-0.351044,-1.073872,0.300349,-0.021901,-0.319935,-0.486998,-0.812401,68.270142,-29.900774,156.389776
10222,NaN,4.271618,8.025780,3.661328,0.835770,0.107159,-0.047709,-0.325886,-1.006999,0.298371,-0.023692,-0.324699,-0.485139,-0.811572,68.365716,-30.268030,155.839122
10223,NaN,4.164792,8.240410,4.134652,1.305294,0.300408,0.214811,-0.280967,-0.962548,0.319239,-0.025222,-0.329318,-0.483419,-0.810691,68.474061,-30.634872,155.318684
10224,NaN,3.611332,8.603156,4.707255,2.233111,0.321745,0.391394,-0.231638,-1.001015,0.427459,-0.026318,-0.334362,-0.481703,-0.809612,68.615019,-31.067823,154.797218
10225,NaN,2.899622,9.205706,5.128041,3.286613,0.019831,0.610656,-0.239051,-1.155005,0.677585,-0.026791,-0.340607,-0.479498,-0.808302,68.775178,-31.663719,154.236860
10226,NaN,2.524164,9.792517,5.294356,3.964812,-0.380622,0.884395,-0.379423,-1.406106,1.054071,-0.026575,-0.348740,-0.476022,-0.806893,68.900586,-32.512980,153.603355
10227,NaN,2.770557,9.892410,5.056376,3.829692,-0.635560,0.958921,-0.677955,-1.714906,1.391742,-0.026258,-0.358831,-0.470660,-0.805624,68.929290,-33.603903,152.848402
10228,NaN,2.985740,9.389257,4.585628,3.416798,-0.774004,0.474280,-1.022373,-2.090586,1.507603,-0.026964,-0.370619,-0.463580,-0.804368,68.900871,-34.836003,151.868466
10229,NaN,3.626180,8.574085,3.963772,2.499795,-0.680376,-0.032171,-1.331093,-2.408112,1.503888,-0.028996,-0.383536,-0.455119,-0.803073,68.841343,-36.130209,150.666118
10230,NaN,4.430586,8.214113,3.721613,1.843831,-0.491954,0.051657,-1.653655,-2.672409,1.396443,-0.032661,-0.397137,-0.445410,-0.801764,68.753460,-37.425192,149.240861
10231,NaN,4.716648,7.906903,3.544421,1.604292,-0.480800,-0.090582,-1.901792,-2.868977,1.207080,-0.038017,-0.410920,-0.434909,-0.800346,68.672933,-38.659379,147.611643
10232,NaN,4.783485,7.626949,3.478935,1.584331,-0.491566,-0.304849,-2.129998,-2.990468,1.106960,-0.044482,-0.424804,-0.423527,-0.798866,68.576949,-39.869787,145.844955
10233,NaN,4.570730,7.375315,3.544864,1.831951,-0.561233,-0.637870,-2.353998,-3.044172,1.110409,-0.051516,-0.438677,-0.411068,-0.797453,68.421349,-41.093973,144.014856
10234,NaN,4.526905,7.143865,3.714325,2.047295,-0.526075,-0.820996,-2.543804,-3.019448,1.176014,-0.058622,-0.452378,-0.397547,-0.796162,68.184479,-42.354954,142.190262
10235,NaN,4.786826,7.021379,3.994526,2.200609,-0.386825,-0.692857,-2.719755,-2.964423,1.244932,-0.065728,-0.465727,-0.383013,-0.795034,67.852886,-43.645063,140.398755
10236,NaN,5.404138,7.011352,4.324630,2.236676,-0.164399,-0.219499,-2.949044,-2.835532,1.268556,-0.072986,-0.478347,-0.367384,-0.794284,67.368114,-44.931275,138.682138
10237,NaN,6.599261,6.570237,4.142521,1.466024,0.361460,0.266625,-3.102702,-2.603644,1.139382,-0.080677,-0.489514,-0.351371,-0.793981,66.736878,-46.106922,137.081931
10238,NaN,6.968387,6.395407,3.725466,0.985775,0.230113,0.302128,-3.282880,-2.386670,0.833300,-0.089596,-0.499021,-0.335329,-0.794043,65.988170,-47.087976,135.532117
10239,NaN,6.679519,6.058676,3.288646,0.737743,-0.050439,-0.242481,-3.492949,-2.308680,0.504388,-0.100185,-0.507331,-0.319160,-0.794175,65.177236,-47.890935,133.923586
10240,NaN,6.501787,5.649326,2.947673,0.474788,-0.127535,-0.722407,-3.665139,-2.372275,0.199650,-0.112467,-0.515113,-0.302905,-0.793889,64.410018,-48.568781,132.144990
10241,NaN,6.613372,5.220503,2.699393,0.157826,0.038344,-0.966817,-3.783002,-2.505137,-0.037522,-0.126147,-0.522717,-0.286564,-0.792928,63.738185,-49.170225,130.165347
10242,NaN,6.427600,4.652501,2.551052,0.064221,0.245497,-1.481875,-3.836276,-2.679227,-0.242404,-0.140953,-0.530431,-0.270289,-0.791024,63.228712,-49.726893,127.951259
10243,NaN,5.956548,4.232276,2.388086,0.104635,0.217886,-2.129159,-3.783279,-2.908602,-0.462361,-0.156726,-0.538472,-0.254490,-0.787858,62.980598,-50.238061,125.450725
10244,NaN,5.426095,4.022752,2.312985,0.265235,0.030518,-2.678039,-3.684101,-3.245356,-0.671213,-0.173382,-0.547356,-0.239233,-0.783012,63.101765,-50.733937,122.565681
10245,NaN,4.882194,3.874887,2.368859,0.555361,-0.185388,-3.170497,-3.557258,-3.719065,-0.840970,-0.190817,-0.557624,-0.224366,-0.776083,63.688790,-51.251322,119.193164
10246,NaN,4.497970,3.696087,2.477371,0.852857,-0.293141,-3.550420,-3.418619,-4.240178,-0.991714,-0.208889,-0.569498,-0.209804,-0.766825,64.805084,-51.790865,115.273360
10247,NaN,4.662901,3.773019,2.276052,0.700850,-0.337439,-3.444599,-3.290074,-4.677889,-1.104559,-0.227325,-0.582583,-0.195423,-0.755467,66.392004,-52.316111,110.876436
10248,NaN,5.285222,3.922762,1.899018,0.306441,-0.153893,-2.971010,-3.160456,-4.942490,-1.154796,-0.245626,-0.596282,-0.181213,-0.742480,68.338406,-52.790896,106.152392
10249,NaN,6.162134,3.874561,1.527924,-0.026586,0.388158,-2.385432,-3.026239,-4.999484,-1.180532,-0.263462,-0.609781,-0.167340,-0.728528,70.481425,-53.159618,101.302283
10250,NaN,6.925489,3.754256,1.249094,-0.151321,0.956036,-1.895898,-2.866267,-4.872991,-1.208020,-0.280571,-0.622504,-0.154162,-0.714145,72.693891,-53.379976,96.501066
10251,NaN,6.917866,3.720012,0.973501,-0.178334,1.026980,-1.967177,-2.691265,-4.692025,-1.313236,-0.297151,-0.634223,-0.142057,-0.699487,74.915006,-53.401892,91.818941
10252,NaN,6.622158,3.801943,0.775338,-0.158778,0.846741,-2.186240,-2.517125,-4.537399,-1.448684,-0.313315,-0.645110,-0.131121,-0.684451,77.138672,-53.218853,87.255702
10253,NaN,6.680709,3.978814,0.708301,-0.052327,0.793562,-2.045566,-2.381287,-4.350245,-1.526847,-0.328970,-0.655048,-0.121094,-0.669348,79.259850,-52.867124,82.899527
10254,NaN,6.796556,4.593356,0.451689,-0.257378,0.511526,-1.617273,-2.310505,-4.087272,-1.523781,-0.344009,-0.663824,-0.111658,-0.654620,81.162535,-52.399292,78.848106
10255,NaN,6.714749,5.380608,-0.146794,-0.891238,0.132338,-1.254314,-2.330216,-3.788037,-1.424894,-0.358427,-0.671241,-0.102268,-0.640708,82.743789,-51.889972,75.160121
10256,NaN,6.719076,6.037819,-0.850567,-1.611835,-0.001426,-0.883838,-2.484633,-3.468468,-1.215560,-0.372341,-0.677135,-0.092212,-0.627970,83.927083,-51.423181,71.844476
10257,NaN,6.763040,6.593672,-1.153050,-1.962771,-0.142275,-0.502998,-2.765867,-3.227850,-0.949399,-0.386083,-0.681530,-0.080763,-0.616388,84.706034,-51.060626,68.819050
10258,NaN,6.810743,6.140371,-1.268385,-1.802447,0.351632,-0.739358,-3.053953,-3.246608,-0.751420,-0.400011,-0.685188,-0.067688,-0.604919,85.293493,-50.788223,65.816497
10259,NaN,7.943936,5.496921,-1.507482,-1.355961,1.633218,-0.268752,-3.109280,-3.234401,-0.653311,-0.413625,-0.688366,-0.054087,-0.593415,85.807063,-50.554605,62.855471
10260,NaN,8.067380,5.749536,-1.452020,-1.237440,1.582563,-0.004002,-3.079459,-3.205005,-0.713617,-0.427095,-0.691167,-0.040826,-0.581559,86.300662,-50.267401,59.933610
10261,NaN,8.008706,6.158002,-1.765907,-1.563638,1.547609,0.204124,-3.163298,-3.094543,-0.757320,-0.440742,-0.693098,-0.027676,-0.569733,86.641994,-49.939514,57.132610
10262,NaN,8.655446,5.937986,-2.131135,-1.392886,2.336339,0.546709,-3.045899,-2.848085,-0.668505,-0.453488,-0.694282,-0.015094,-0.558653,86.858280,-49.643934,54.572479
10263,NaN,8.862406,6.104663,-2.520884,-1.561592,2.683946,0.794828,-2.926274,-2.445154,-0.677091,-0.465624,-0.694317,-0.003770,-0.548730,86.849260,-49.329815,52.385635
10264,NaN,7.936143,6.100796,-2.322533,-1.659788,2.191192,0.088736,-2.779699,-2.087955,-0.677874,-0.477089,-0.693485,0.006306,-0.539837,86.672442,-49.003983,50.522638
10265,NaN,7.853274,5.922410,-2.146033,-1.385790,2.238162,-0.095530,-2.627324,-1.728753,-0.604342,-0.487699,-0.691840,0.015381,-0.532232,86.329289,-48.715396,48.986469
10266,NaN,8.369658,5.593489,-1.690962,-0.592911,2.452220,0.078306,-2.429429,-1.279407,-0.578591,-0.497484,-0.689332,0.022906,-0.526124,85.800179,-48.429366,47.844023
10267,NaN,8.914710,5.331211,-1.363582,0.066902,2.711920,0.306277,-2.112061,-0.741804,-0.549478,-0.506073,-0.686076,0.028370,-0.521905,85.100320,-48.146027,47.167860
10268,NaN,9.013262,5.285555,-1.170789,0.286971,2.740652,0.333850,-1.740827,-0.173089,-0.552959,-0.513430,-0.682209,0.031397,-0.519610,84.253643,-47.834215,46.973407
10269,NaN,8.727032,5.698740,-1.127851,-0.062420,2.488086,0.371267,-1.399415,0.326490,-0.560913,-0.519677,-0.677868,0.032242,-0.519029,83.293384,-47.491512,47.195377
10270,NaN,8.295269,5.979466,-0.841046,-0.260172,2.059260,0.235352,-1.087453,0.668358,-0.545929,-0.524864,-0.673416,0.031421,-0.519655,82.309578,-47.127706,47.694672
10271,NaN,8.416025,5.913564,0.064979,0.399878,1.606193,0.339291,-0.780528,0.920717,-0.527973,-0.528976,-0.669078,0.029218,-0.521215,81.357318,-46.750616,48.393718
10272,NaN,8.819572,5.929956,0.936180,1.113688,1.292934,0.718791,-0.456220,1.145404,-0.517119,-0.531995,-0.664984,0.025592,-0.523568,80.469985,-46.348981,49.264532
10273,NaN,8.754380,6.325885,1.823646,1.409250,0.572213,1.034735,-0.116453,1.311188,-0.540838,-0.533932,-0.661328,0.020575,-0.526439,79.696753,-45.911848,50.252374
10274,NaN,7.657281,6.670068,2.524833,1.182267,-0.542149,0.570262,0.185166,1.225193,-0.635006,-0.535094,-0.658684,0.014662,-0.528767,79.173619,-45.420111,51.140809
10275,NaN,6.137396,7.050869,2.828149,0.529602,-1.651221,-0.201603,0.406451,0.812703,-0.795027,-0.535888,-0.657702,0.008761,-0.529316,79.040928,-44.882407,51.664225
10276,NaN,4.767080,7.591937,2.409627,-0.600939,-2.279204,-0.834260,0.507800,0.185439,-0.937139,-0.536688,-0.658640,0.003783,-0.527394,79.337033,-44.329725,51.665801
10277,NaN,3.911493,8.242593,1.675322,-1.764050,-2.479803,-1.050007,0.482013,-0.480786,-1.023702,-0.537763,-0.661240,0.000396,-0.523042,79.984663,-43.799541,51.139514
10278,NaN,3.849472,8.855055,0.850404,-2.597995,-2.168558,-0.729726,0.355588,-1.092505,-1.055921,-0.539320,-0.665071,-0.001142,-0.516540,80.879357,-43.301594,50.145781
10279,NaN,4.842793,9.292514,-0.073952,-2.888652,-1.120710,0.197655,0.155367,-1.478244,-1.066250,-0.541526,-0.669305,-0.001140,-0.508703,81.843920,-42.821785,48.871599
10280,NaN,6.301280,9.735973,-0.668584,-2.688181,-0.046927,1.488270,-0.117720,-1.588849,-1.077353,-0.544633,-0.673027,-0.000199,-0.500410,82.689881,-42.327117,47.530793
10281,NaN,7.067972,9.913712,-1.028510,-2.490445,0.600809,2.134289,-0.373389,-1.477863,-1.094295,-0.548586,-0.675710,0.001039,-0.492410,83.310834,-41.804663,46.293257
10282,NaN,7.114443,9.812901,-1.101607,-2.315905,0.779814,2.109913,-0.537033,-1.277223,-1.093519,-0.553052,-0.677397,0.002116,-0.485038,83.717986,-41.259254,45.224577
10283,NaN,6.629677,9.715795,-1.195094,-2.456257,0.703946,1.730585,-0.580470,-1.066031,-1.070723,-0.557566,-0.678403,0.002806,-0.478417,83.977873,-40.711292,44.330358
10284,NaN,6.075480,9.844341,-1.520729,-2.936183,0.688145,1.458484,-0.545257,-0.807670,-0.863601,-0.561444,-0.678849,0.003380,-0.473216,84.110234,-40.261631,43.654974
10285,NaN,6.289295,9.693530,-1.886446,-2.910064,1.196797,1.464607,-0.384595,-0.424340,-0.393465,-0.563649,-0.678814,0.004106,-0.470632,84.121530,-40.058668,43.305415
10286,NaN,7.660363,9.241950,-1.743205,-1.807964,2.000765,2.013625,-0.208921,0.147925,0.100477,-0.564111,-0.677911,0.004469,-0.471376,83.933854,-40.101568,43.420711
10287,NaN,8.740453,8.896785,-0.959162,-0.584615,2.103860,2.503950,-0.014286,0.765229,0.480518,-0.563016,-0.676090,0.003934,-0.475289,83.540298,-40.323719,44.027574
10288,NaN,9.011926,8.918546,0.405908,0.305815,1.209481,2.811174,0.202149,1.385479,0.827772,-0.560361,-0.673365,0.002299,-0.482254,82.943001,-40.695789,45.135012
10289,NaN,9.606206,9.193658,1.286091,0.866724,0.787767,3.494489,0.344400,2.049687,1.186588,-0.556302,-0.669367,-0.000319,-0.492418,82.061490,-41.213124,46.790751
10290,NaN,10.508867,9.531714,1.439819,0.994741,1.097097,4.370465,0.337716,2.730855,1.435477,-0.551555,-0.663542,-0.003995,-0.505454,80.785802,-41.787711,49.017256
10291,NaN,9.751090,10.041852,1.381363,-0.005812,0.601188,4.239352,0.146577,3.143208,1.416782,-0.547323,-0.655972,-0.008372,-0.519681,79.152538,-42.270231,51.591422
10292,NaN,7.855189,10.757666,0.906619,-1.914982,-0.347898,3.395512,-0.258141,3.316948,1.232954,-0.544732,-0.646633,-0.012787,-0.533826,77.181055,-42.566704,54.303837
10293,NaN,6.548849,10.420831,0.956068,-2.547859,-0.913071,2.231446,-0.831004,3.323761,1.081235,-0.544215,-0.635503,-0.016163,-0.547453,74.874476,-42.704987,57.015159
10294,NaN,5.039805,8.891363,2.512247,-1.432036,-2.133029,0.393183,-1.348438,3.141418,0.979327,-0.545472,-0.623251,-0.017960,-0.560086,72.370067,-42.730749,59.576885
10295,NaN,3.104178,7.683215,4.279686,-0.392677,-3.898447,-1.349438,-1.662254,2.715147,0.871968,-0.547879,-0.611148,-0.018033,-0.570966,69.918613,-42.697657,61.795693
10296,NaN,2.646653,7.103486,5.208356,0.282203,-4.445871,-1.766450,-1.742618,2.061307,0.695013,-0.550976,-0.600530,-0.016634,-0.579234,67.781800,-42.638111,63.484440
10297,NaN,3.032628,6.816508,5.072402,0.319746,-3.893708,-1.680986,-1.724426,1.402412,0.513079,-0.554507,-0.591760,-0.014005,-0.584932,66.016942,-42.589959,64.640661
10298,NaN,1.799442,7.369026,4.732272,-0.814777,-4.635810,-2.211489,-1.698431,0.570116,0.262546,-0.558699,-0.585416,-0.009896,-0.587406,64.722949,-42.585981,65.124051
10299,NaN,2.834233,7.734092,3.972083,-1.404005,-3.545369,-1.501018,-1.670392,-0.184719,0.231164,-0.562893,-0.581320,-0.003843,-0.587541,63.809952,-42.747658,65.067738
10300,NaN,5.533852,7.508319,3.158948,-1.106815,-1.112375,-0.090869,-1.602223,-0.520846,0.270751,-0.566742,-0.578363,0.003062,-0.586763,63.085312,-43.015365,64.792777
10301,NaN,6.947024,7.157900,3.031241,-0.624767,0.036844,0.593686,-1.431137,-0.526037,0.279457,-0.570032,-0.575867,0.009511,-0.585961,62.457299,-43.291852,64.520785
10302,NaN,7.399494,6.452762,3.164916,-0.003077,0.485912,0.491229,-1.153134,-0.377838,0.299046,-0.572445,-0.573701,0.014774,-0.585624,61.912145,-43.540041,64.361781
10303,NaN,7.143106,6.023106,3.016445,0.044396,0.557297,-0.010247,-0.772840,-0.163897,0.328371,-0.573679,-0.571978,0.018400,-0.585999,61.472704,-43.746514,64.365565
10304,NaN,6.088146,5.714502,3.192343,-0.008319,-0.153730,-0.874665,-0.320016,0.023640,0.380072,-0.573479,-0.570994,0.020304,-0.587091,61.187764,-43.926773,64.521274
10305,NaN,5.623618,5.370776,3.409390,0.198537,-0.500196,-1.338928,0.091331,0.090451,0.380250,-0.572106,-0.570990,0.020814,-0.588415,61.104387,-44.088940,64.725211
10306,NaN,5.784005,5.305956,3.411875,0.288629,-0.392760,-1.268030,0.372611,0.098004,0.268025,-0.570260,-0.571778,0.020149,-0.589464,61.208449,-44.192069,64.891331
10307,NaN,6.127256,5.514220,3.377896,0.239620,-0.237413,-0.910652,0.541087,0.071236,0.156981,-0.568251,-0.573131,0.018752,-0.590135,61.451269,-44.247709,64.996216
10308,NaN,5.968114,5.596603,3.536167,0.270600,-0.496171,-0.917451,0.654296,-0.073049,0.008627,-0.566339,-0.575241,0.017000,-0.589974,61.869938,-44.267593,64.942447
10309,NaN,5.267060,5.620459,3.851946,0.306685,-1.200674,-1.290201,0.772951,-0.471452,-0.180792,-0.564599,-0.578867,0.015486,-0.588134,62.602505,-44.297979,64.536006
10310,NaN,6.568125,5.796691,3.671171,0.556475,-0.347414,-0.337044,0.818934,-0.868851,-0.429705,-0.563411,-0.583795,0.014233,-0.584422,63.623710,-44.299083,63.754616
10311,NaN,7.596312,5.773239,3.283102,0.772902,0.530416,0.233803,0.844700,-1.167124,-0.863343,-0.563360,-0.589662,0.012483,-0.578591,64.912175,-44.139831,62.609533
10312,NaN,7.257473,5.809927,3.033710,0.649989,0.425120,-0.064718,0.906952,-1.433255,-1.342568,-0.564444,-0.596451,0.009884,-0.570571,66.468643,-43.772230,61.124876
10313,NaN,6.651848,5.911015,2.890497,0.491127,0.069778,-0.469685,1.003751,-1.640801,-1.746813,-0.566299,-0.604036,0.006393,-0.560718,68.241366,-43.206393,59.393347
10314,NaN,6.003376,6.231233,2.673738,0.139325,-0.326707,-0.763584,1.179582,-1.794242,-2.044576,-0.568343,-0.612443,0.001937,-0.549450,70.203377,-42.470905,57.511158
10315,NaN,5.546307,6.654816,2.112445,-0.421050,-0.389459,-0.914638,1.424282,-1.898963,-2.224261,-0.569991,-0.621683,-0.003438,-0.537223,72.326222,-41.609152,55.568684
10316,NaN,5.152052,7.390211,1.313887,-1.287577,-0.346786,-0.807147,1.627906,-1.921825,-2.265063,-0.570958,-0.631393,-0.009427,-0.524652,74.513567,-40.674383,53.671526
10317,NaN,5.381288,8.644379,0.545611,-2.139374,-0.120038,0.156356,1.619506,-1.785212,-2.027613,-0.571168,-0.640560,-0.015027,-0.513053,76.533529,-39.800619,51.990305
10318,NaN,6.283554,9.446824,-0.280274,-2.432814,0.708415,1.249720,1.399905,-1.431358,-1.573613,-0.570773,-0.648096,-0.019621,-0.503791,78.165042,-39.095213,50.694856
10319,NaN,7.532031,9.253088,-0.559833,-1.656583,1.696738,1.893617,1.067468,-0.880163,-1.137803,-0.570231,-0.653258,-0.023533,-0.497531,79.285324,-38.549648,49.893264
10320,NaN,9.002327,9.184945,-0.573715,-0.723458,2.604842,2.773992,0.654945,-0.099355,-0.762811,-0.569983,-0.655310,-0.027423,-0.494909,79.775889,-38.124852,49.717467
10321,NaN,8.991014,9.187312,0.170207,-0.152024,2.103570,2.869009,0.236494,0.622119,-0.502568,-0.570348,-0.654408,-0.031476,-0.495442,79.686246,-37.773210,50.093872
10322,NaN,7.227422,8.621617,0.859837,-0.277054,0.814243,1.437505,-0.050424,1.037939,-0.293411,-0.571058,-0.651673,-0.035323,-0.497963,79.238446,-37.493815,50.790170
10323,NaN,5.364467,8.037321,1.634111,-0.405200,-0.598660,-0.039093,-0.252768,1.149169,-0.101560,-0.571907,-0.648099,-0.038353,-0.501416,78.616642,-37.305653,51.586040
10324,NaN,4.081100,7.797743,2.176981,-0.579263,-1.631915,-0.913233,-0.377812,0.978990,0.034286,-0.572840,-0.644598,-0.040146,-0.504713,77.987620,-37.205858,52.277856
10325,NaN,3.583342,7.816315,2.536591,-0.624053,-2.154170,-1.132870,-0.412755,0.718344,0.127941,-0.573686,-0.641661,-0.040797,-0.507436,77.442604,-37.185225,52.798760
10326,NaN,4.218497,7.921743,2.474679,-0.461544,-1.707993,-0.672489,-0.409855,0.504630,0.166149,-0.574464,-0.639271,-0.040724,-0.509573,76.986103,-37.208822,53.175782
10327,NaN,4.946333,8.133485,2.167159,-0.484425,-1.073781,-0.121016,-0.387159,0.300148,0.111925,-0.575343,-0.637452,-0.040292,-0.510893,76.634455,-37.227146,53.400866
10328,NaN,4.898812,8.016449,1.670960,-0.820902,-0.699551,-0.331622,-0.304444,0.084540,0.014603,-0.576250,-0.636399,-0.039763,-0.511226,76.431122,-37.218782,53.458989
10329,NaN,4.597756,7.914535,1.368230,-1.128253,-0.634634,-0.648869,-0.138417,-0.136358,-0.127757,-0.577033,-0.636360,-0.039474,-0.510412,76.430959,-37.160967,53.338519
10330,NaN,4.705271,7.748620,1.207150,-1.082740,-0.394576,-0.740212,0.072023,-0.322212,-0.245598,-0.577485,-0.637376,-0.039561,-0.508624,76.641214,-37.061881,53.068820
10331,NaN,5.339932,7.472104,1.227822,-0.574557,0.080498,-0.565097,0.283492,-0.440572,-0.321288,-0.577473,-0.639286,-0.040086,-0.506194,77.028980,-36.934982,52.704991
10332,NaN,6.286568,7.403565,1.189036,-0.045650,0.717193,-0.054067,0.439891,-0.427184,-0.378385,-0.577097,-0.641593,-0.041227,-0.503605,77.504075,-36.772209,52.343532
10333,NaN,6.924958,7.445275,1.180915,0.305544,1.098793,0.359858,0.499359,-0.216029,-0.331505,-0.576360,-0.643544,-0.042976,-0.501810,77.918950,-36.607795,52.138796
10334,NaN,7.019739,7.979292,1.434103,0.297903,0.793925,0.877651,0.467174,0.119744,-0.108818,-0.575093,-0.644600,-0.044895,-0.501740,78.154635,-36.527288,52.202994
10335,NaN,6.946368,8.805720,1.699696,0.025544,0.277655,1.527679,0.268890,0.475608,0.264124,-0.573443,-0.644274,-0.046137,-0.503930,78.096301,-36.614236,52.570322
10336,NaN,7.239471,9.486201,2.295884,0.173448,-0.180526,2.336611,-0.150061,0.843319,0.701983,-0.571945,-0.641907,-0.045967,-0.508647,77.602501,-36.900452,53.262265
10337,NaN,8.210234,9.599594,2.825001,0.801907,0.060090,3.105930,-0.695259,1.199946,0.997438,-0.571333,-0.637111,-0.044478,-0.515452,76.609465,-37.299117,54.258796
10338,NaN,7.929762,9.029868,3.304630,1.098209,-0.196368,2.600630,-1.177348,1.348107,1.011678,-0.572138,-0.630500,-0.042123,-0.522832,75.260678,-37.668498,55.376961
10339,NaN,6.537731,7.915744,3.782540,1.193461,-0.967824,1.019809,-1.465360,1.309541,0.905894,-0.574071,-0.623077,-0.039231,-0.529792,73.761024,-37.963510,56.463832
10340,NaN,5.498071,7.053410,4.106550,1.251659,-1.500618,-0.167939,-1.593080,1.085529,0.788864,-0.576693,-0.615786,-0.035720,-0.535683,72.287291,-38.209171,57.383351
10341,NaN,4.985843,6.550598,4.040014,1.108733,-1.563642,-0.845292,-1.536612,0.715076,0.569681,-0.579741,-0.609555,-0.031961,-0.539743,71.027347,-38.385354,58.005721
10342,NaN,5.437820,6.169045,3.828021,1.241031,-0.946604,-0.877184,-1.338371,0.385000,0.339727,-0.582821,-0.604712,-0.028481,-0.542063,70.052858,-38.490492,58.349826
10343,NaN,5.574457,6.359111,3.676042,0.980915,-0.772491,-0.676688,-1.075927,0.211008,0.125867,-0.585688,-0.601049,-0.025849,-0.543176,69.334861,-38.511521,58.522603
10344,NaN,5.699349,6.657703,3.306718,0.532499,-0.493563,-0.473819,-0.773075,0.162693,-0.036765,-0.588081,-0.598372,-0.024389,-0.543615,68.837663,-38.453753,58.619858
10345,NaN,6.464324,7.115446,2.955942,0.286137,0.154293,0.239614,-0.467070,0.231594,-0.097875,-0.589709,-0.596391,-0.024143,-0.544039,68.496717,-38.348636,58.747459
10346,NaN,6.860674,7.565850,2.714848,-0.013131,0.483808,0.744158,-0.119160,0.351094,-0.093750,-0.590271,-0.595110,-0.025185,-0.544784,68.305430,-38.219868,58.956114
10347,NaN,7.345693,7.665943,2.739003,0.128954,0.796292,1.122450,0.140495,0.508281,-0.026246,-0.589854,-0.594170,-0.027196,-0.546164,68.186265,-38.093424,59.288883
10348,NaN,7.751396,7.731593,2.860993,0.326604,0.998995,1.454176,0.404420,0.768764,0.105869,-0.588248,-0.593310,-0.030304,-0.548661,68.089501,-37.980940,59.832142
10349,NaN,7.791678,8.127505,2.814424,0.055810,0.968869,1.752156,0.652082,1.155981,0.208587,-0.585548,-0.592111,-0.034923,-0.552556,67.958469,-37.839488,60.663144
10350,NaN,7.603390,8.610918,2.686791,-0.422938,0.811498,1.949142,0.821465,1.623322,0.341597,-0.581859,-0.590103,-0.040984,-0.558156,67.713945,-37.665115,61.841494
10351,NaN,6.808596,8.630036,2.787473,-0.695644,0.232241,1.503952,0.886018,2.017141,0.445903,-0.577546,-0.587141,-0.048056,-0.565152,67.333806,-37.455028,63.307658
10352,NaN,5.432652,8.896532,2.944683,-1.265849,-0.883919,0.908751,0.831811,2.234083,0.529130,-0.573026,-0.583350,-0.055353,-0.572957,66.829739,-37.231086,64.934629
10353,NaN,4.041377,8.768709,3.393639,-1.351500,-2.079262,0.116551,0.680472,2.164080,0.591399,-0.568706,-0.579259,-0.061825,-0.580698,66.264704,-37.044080,66.526305
10354,NaN,3.552631,8.343076,3.852343,-0.928396,-2.527123,-0.335331,0.457531,1.848907,0.576295,-0.565106,-0.575377,-0.066792,-0.587483,65.706113,-36.909938,67.901182
10355,NaN,3.192198,8.073797,4.126242,-0.690325,-2.827253,-0.651236,0.189653,1.390545,0.520875,-0.562550,-0.572019,-0.069831,-0.592837,65.186824,-36.845672,68.957686
10356,NaN,2.962531,8.024282,4.402828,-0.540936,-3.116412,-0.727211,-0.027956,0.825276,0.385997,-0.561191,-0.569658,-0.071018,-0.596247,64.788746,-36.841606,69.605281
10357,NaN,2.670566,8.000581,4.695822,-0.415075,-3.481472,-0.818304,-0.268504,0.213226,0.246703,-0.561145,-0.568387,-0.070169,-0.597602,64.515421,-36.912052,69.814464
10358,NaN,3.466536,8.089749,4.564349,-0.385234,-2.850918,-0.324912,-0.433518,-0.270969,0.194362,-0.561890,-0.568082,-0.067615,-0.597488,64.345460,-37.074993,69.694534
10359,NaN,4.506373,7.838038,4.333732,-0.162972,-1.876609,0.034902,-0.526247,-0.532891,0.193368,-0.562987,-0.568286,-0.064054,-0.596652,64.224855,-37.301911,69.405131
10360,NaN,5.348382,7.497711,4.014508,0.001435,-0.984179,0.185727,-0.508474,-0.696880,0.203534,-0.564042,-0.569029,-0.060050,-0.595363,64.179088,-37.576166,69.011481
10361,NaN,6.263028,7.268493,3.486782,-0.015027,0.031021,0.395778,-0.399213,-0.733799,0.175676,-0.564874,-0.570165,-0.056352,-0.593846,64.217787,-37.844235,68.583979
10362,NaN,6.464186,7.335104,2.927729,-0.416070,0.434279,0.375502,-0.243984,-0.671792,0.120015,-0.565399,-0.571536,-0.053441,-0.592296,64.334448,-38.068736,68.177204
10363,NaN,6.983476,7.681441,2.523085,-0.766022,0.889227,0.806249,-0.130493,-0.561497,0.080302,-0.565685,-0.572879,-0.051297,-0.590913,64.480739,-38.243666,67.829046
10364,NaN,7.650222,7.799367,2.165013,-0.890416,1.511896,1.185701,-0.040078,-0.395682,0.054289,-0.565739,-0.573984,-0.049958,-0.589903,64.618170,-38.364646,67.580380
10365,NaN,7.316682,7.740326,2.130391,-0.966137,1.289128,0.929274,0.063476,-0.203437,0.051984,-0.565457,-0.574808,-0.049479,-0.589411,64.736863,-38.435982,67.457636
10366,NaN,7.197334,7.487228,2.413006,-0.628818,1.106717,0.773271,0.200824,-0.059986,0.110116,-0.564569,-0.575615,-0.049639,-0.589462,64.864553,-38.503155,67.447404
10367,NaN,7.386678,6.845550,2.824854,0.131989,1.209435,0.575968,0.361686,0.061007,0.186855,-0.562963,-0.576535,-0.050398,-0.590034,65.019554,-38.579986,67.541186
10368,NaN,7.639382,6.412033,2.954385,0.574887,1.454694,0.471089,0.509552,0.254554,0.233713,-0.560736,-0.577310,-0.051997,-0.591256,65.170103,-38.635455,67.777833
10369,NaN,7.372707,6.266199,3.031500,0.645974,1.262195,0.227314,0.609885,0.499389,0.261086,-0.558122,-0.577645,-0.054454,-0.593178,65.270879,-38.646168,68.176015
10370,NaN,6.934639,5.796127,3.196798,0.922771,1.028014,-0.326092,0.678337,0.719692,0.289380,-0.555100,-0.577510,-0.057692,-0.595834,65.314000,-38.619854,68.739498
10371,NaN,6.394738,5.652993,3.336493,0.956711,0.625583,-0.720135,0.718123,0.886127,0.275589,-0.551994,-0.576971,-0.061500,-0.598853,65.313896,-38.546277,69.399338
10372,NaN,5.681334,5.901800,3.447764,0.696259,-0.031449,-0.952097,0.670573,0.954958,0.262729,-0.548968,-0.576068,-0.065439,-0.602078,65.261946,-38.449702,70.110067
10373,NaN,4.975528,6.460101,3.608937,0.303211,-0.836841,-0.940205,0.520786,0.900442,0.311780,-0.546281,-0.574918,-0.068586,-0.605262,65.138412,-38.390543,70.788873
10374,NaN,5.305745,6.471269,4.015586,0.685740,-0.804082,-0.591171,0.344185,0.792289,0.407081,-0.543781,-0.573628,-0.070675,-0.608488,64.940677,-38.405872,71.434797
10375,NaN,5.796589,6.335601,4.519799,1.254981,-0.647052,-0.211899,0.223578,0.678904,0.474589,-0.541507,-0.572370,-0.071846,-0.611556,64.706381,-38.481498,72.017395
10376,NaN,6.243742,6.171554,4.859573,1.693045,-0.421888,0.068778,0.168176,0.588251,0.456696,-0.539414,-0.571221,-0.072701,-0.614373,64.480251,-38.568720,72.545201
10377,NaN,6.418511,6.408266,5.004015,1.681965,-0.459410,0.398248,0.171825,0.483044,0.392169,-0.537598,-0.570375,-0.073418,-0.616661,64.310526,-38.646774,72.974406
10378,NaN,6.629229,6.940181,4.895638,1.319051,-0.462660,0.870294,0.197950,0.355638,0.290576,-0.536006,-0.569950,-0.074211,-0.618343,64.228474,-38.703779,73.297223
10379,NaN,6.738955,7.440485,4.687228,0.884712,-0.482427,1.220399,0.226598,0.223955,0.198579,-0.534720,-0.569971,-0.074952,-0.619346,64.234395,-38.745490,73.494437
10380,NaN,6.739258,7.679526,4.578344,0.666693,-0.533654,1.350855,0.246312,0.093434,0.153525,-0.533508,-0.570431,-0.075582,-0.619891,64.315445,-38.796987,73.600372
10381,NaN,7.043036,7.823839,4.355386,0.489708,-0.269173,1.565971,0.292942,-0.038968,0.159613,-0.532250,-0.571426,-0.075937,-0.620013,64.475937,-38.884088,73.611063
10382,NaN,7.258541,7.937949,4.285563,0.438130,-0.148568,1.756640,0.313167,-0.131069,0.197411,-0.530793,-0.572773,-0.076051,-0.620005,64.680272,-39.013949,73.581408
10383,NaN,7.546194,8.116248,4.184863,0.340994,0.001648,2.028559,0.308279,-0.171298,0.304040,-0.529090,-0.574268,-0.075687,-0.620122,64.876910,-39.208314,73.548529
10384,NaN,7.706512,8.195418,3.959377,0.167139,0.150230,2.111283,0.294583,-0.168118,0.419785,-0.527005,-0.575759,-0.075006,-0.620598,65.043133,-39.462439,73.562448
10385,NaN,7.696532,8.152349,3.827281,0.090892,0.167008,2.032520,0.301901,-0.143387,0.535190,-0.524585,-0.577229,-0.074030,-0.621399,65.179132,-39.770124,73.619153
10386,NaN,7.472975,7.730861,3.724219,0.200430,0.171323,1.563227,0.333153,-0.126285,0.608576,-0.521777,-0.578750,-0.073033,-0.622466,65.312169,-40.112492,73.719007
10387,NaN,7.127257,7.737110,3.351846,-0.175383,0.033932,1.226478,0.357946,-0.100668,0.668948,-0.518751,-0.580269,-0.071954,-0.623705,65.434480,-40.479901,73.845588
10388,NaN,6.362084,8.302908,2.570805,-1.287866,-0.458986,0.871579,0.297966,-0.068648,0.794907,-0.515428,-0.581570,-0.070455,-0.625418,65.482760,-40.905951,74.042984
10389,NaN,5.927963,8.250384,2.362946,-1.541702,-0.732638,0.477044,0.128273,-0.015798,1.035273,-0.511875,-0.582338,-0.067811,-0.627908,65.356039,-41.444022,74.345661
10390,NaN,6.016114,7.392680,2.609074,-0.894174,-0.490009,0.016444,-0.004436,0.074490,1.236300,-0.507972,-0.582534,-0.064443,-0.631241,65.063376,-42.064628,74.790713
10391,NaN,6.032429,7.036961,2.820170,-0.585777,-0.511995,-0.155775,-0.030228,0.133272,1.288199,-0.504001,-0.582471,-0.060941,-0.634820,64.705876,-42.695310,75.293954
10392,NaN,5.825061,6.921995,3.168311,-0.349519,-0.875425,-0.273620,-0.064791,0.145929,1.337806,-0.499888,-0.582272,-0.057263,-0.638586,64.300214,-43.346651,75.843289
10393,NaN,6.337813,6.684743,3.473177,0.047390,-0.645970,0.010542,-0.115749,0.141160,1.329544,-0.495990,-0.581931,-0.053385,-0.642262,63.855615,-43.991146,76.389561
10394,NaN,6.662613,6.709826,3.879469,0.335523,-0.728174,0.376449,-0.163946,0.146584,1.216296,-0.492514,-0.581400,-0.049739,-0.645701,63.396407,-44.573723,76.921687
10395,NaN,6.238504,6.656952,4.381569,0.625860,-1.332446,0.200507,-0.182719,0.093621,1.098586,-0.489530,-0.580942,-0.046197,-0.648639,62.970935,-45.105954,77.374857
10396,NaN,5.734929,6.632868,4.696570,0.751996,-1.904538,-0.078800,-0.197031,-0.068125,1.004475,-0.486856,-0.580938,-0.042531,-0.650902,62.637012,-45.631278,77.694246
10397,NaN,5.549709,6.967838,4.556689,0.365854,-2.217696,-0.062788,-0.247506,-0.347019,0.936582,-0.484659,-0.581684,-0.038172,-0.652144,62.431007,-46.193626,77.781605
10398,NaN,5.971565,7.125906,4.349327,0.123486,-2.006663,0.252681,-0.385415,-0.636207,0.929079,-0.482864,-0.583025,-0.032730,-0.652574,62.300776,-46.829915,77.665364
10399,NaN,6.670246,6.552825,4.319861,0.494082,-1.332100,0.388925,-0.538304,-0.820667,0.924779,-0.481605,-0.584567,-0.026309,-0.652415,62.184246,-47.512034,77.401468
10400,NaN,6.867196,5.878466,4.245642,0.820599,-0.921262,0.097748,-0.641962,-0.897814,0.891420,-0.480681,-0.586086,-0.019506,-0.651973,62.065689,-48.199662,77.073737
10401,NaN,6.791526,5.305609,4.027692,0.941091,-0.662710,-0.369673,-0.673974,-0.959373,0.859752,-0.480000,-0.587686,-0.012498,-0.651205,61.976640,-48.886703,76.674798
10402,NaN,6.785904,4.843506,3.633247,0.879167,-0.314055,-0.766371,-0.669962,-0.986823,0.822841,-0.479340,-0.589361,-0.005589,-0.650273,61.925228,-49.564301,76.244069
10403,NaN,6.521139,4.272895,3.196076,0.824297,-0.033772,-1.427207,-0.604221,-0.976874,0.800656,-0.478598,-0.591120,0.001063,-0.649245,61.918146,-50.226618,75.797942
10404,NaN,6.456626,3.666036,2.893668,0.940146,0.330126,-1.906516,-0.485833,-0.921725,0.780285,-0.477487,-0.592967,0.007093,-0.648341,61.961637,-50.865208,75.389218
10405,NaN,6.373369,3.341119,2.715322,0.981223,0.469089,-2.198728,-0.326251,-0.849128,0.787590,-0.475927,-0.594924,0.012499,-0.647613,62.054441,-51.486211,75.027171
10406,NaN,6.526179,2.985231,2.428673,1.004327,0.837159,-2.350050,-0.126007,-0.776561,0.819218,-0.473593,-0.597113,0.017133,-0.647204,62.214594,-52.104759,74.739459
10407,NaN,6.335046,2.969117,2.179829,0.792101,0.798292,-2.571491,0.087308,-0.709101,0.798636,-0.470744,-0.599558,0.020902,-0.646911,62.465051,-52.692977,74.483293
10408,NaN,5.806514,2.787054,1.884847,0.603803,0.690841,-3.164857,0.294698,-0.742696,0.744688,-0.467367,-0.602602,0.023869,-0.646428,62.886988,-53.262971,74.174150
10409,NaN,5.536561,2.831834,1.606436,0.339326,0.605670,-3.427471,0.473514,-0.886444,0.595758,-0.463964,-0.606512,0.026195,-0.645131,63.572655,-53.790909,73.655543
10410,NaN,5.758056,2.903718,1.316305,0.147677,0.794593,-3.280790,0.632444,-1.034710,0.396685,-0.460620,-0.611288,0.027698,-0.642954,64.543935,-54.250145,72.910828
10411,NaN,5.700425,2.913957,0.855202,-0.163121,0.968376,-3.428932,0.796416,-1.144910,0.117921,-0.457642,-0.616793,0.028071,-0.639798,65.801464,-54.581350,71.932253
10412,NaN,5.725594,3.005354,0.576280,-0.352727,1.041104,-3.414443,0.965044,-1.212824,-0.166442,-0.455012,-0.622920,0.027185,-0.635763,67.318898,-54.765621,70.757773
10413,NaN,6.692615,3.134068,0.705400,-0.049478,1.368714,-2.516522,1.146933,-1.161520,-0.467016,-0.452754,-0.629286,0.024664,-0.631193,69.000037,-54.759273,69.510692
10414,NaN,8.042817,3.503256,0.460563,-0.060083,1.999341,-1.258790,1.276953,-0.946781,-0.824849,-0.451201,-0.635274,0.020121,-0.626450,70.689415,-54.497654,68.343858
10415,NaN,8.668268,3.910612,0.356801,-0.093073,2.162431,-0.545974,1.350950,-0.698613,-1.253101,-0.450744,-0.640629,0.013423,-0.621486,72.314447,-53.938297,67.301585
10416,NaN,8.407244,4.609938,-0.116695,-0.761552,1.930322,-0.451158,1.328359,-0.386241,-1.559058,-0.451279,-0.644925,0.005111,-0.616760,73.725540,-53.143540,66.501240
10417,NaN,8.494488,5.254637,-0.751294,-1.452855,2.051153,-0.116735,1.094063,0.073458,-1.717789,-0.453026,-0.647201,-0.004027,-0.613092,74.658851,-52.179770,66.122723
10418,NaN,9.522172,4.784816,-0.927547,-0.971965,3.141284,0.366274,0.702153,0.820315,-1.798763,-0.456221,-0.646238,-0.013918,-0.611592,74.840882,-51.056687,66.411713
10419,NaN,9.505433,3.734408,-0.610032,-0.124018,3.758344,-0.298181,0.462675,1.810080,-1.871408,-0.460280,-0.641597,-0.025565,-0.613059,74.251346,-49.741765,67.528152
10420,NaN,8.447879,3.471902,-0.615769,-0.307865,3.513166,-1.365422,0.407395,2.927188,-1.788474,-0.464008,-0.633270,-0.039343,-0.618157,72.975347,-48.280250,69.535892
10421,NaN,7.469550,4.183065,-0.599586,-1.028407,2.729517,-1.741997,0.319733,3.969302,-1.488412,-0.466706,-0.621336,-0.054297,-0.627040,71.091416,-46.762662,72.345968
10422,NaN,5.971640,5.272722,-0.132881,-1.690461,1.125824,-2.108932,0.176744,4.702032,-1.130704,-0.468287,-0.606550,-0.069379,-0.638742,68.811557,-45.225097,75.664451
10423,NaN,4.987085,5.987084,0.796872,-1.631173,-0.185219,-2.154354,-0.055958,5.054718,-0.691233,-0.468756,-0.589869,-0.083161,-0.652232,66.306951,-43.748865,79.200374
10424,NaN,4.653398,6.234732,1.331183,-1.539430,-0.608760,-2.095707,-0.227496,5.039193,-0.356475,-0.468346,-0.572597,-0.095312,-0.666108,63.820841,-42.341284,82.659984
10425,NaN,4.118790,6.745326,2.026673,-1.441820,-1.389149,-1.903333,-0.343446,4.594146,-0.266409,-0.467963,-0.556252,-0.105669,-0.678548,61.613107,-40.994761,85.683143
10426,NaN,4.076615,7.162839,2.693261,-1.250983,-1.731424,-1.409606,-0.362875,3.881238,-0.292242,-0.467829,-0.542005,-0.114370,-0.688684,59.834846,-39.756743,88.116550
10427,NaN,5.046444,7.278773,3.405425,-0.822574,-1.128457,-0.427064,-0.199489,3.136634,-0.427151,-0.468054,-0.530465,-0.122173,-0.696137,58.573415,-38.622369,89.931401
10428,NaN,6.182130,6.408819,5.089171,0.954974,-0.140854,0.397870,0.287271,2.515882,-0.580450,-0.467744,-0.522009,-0.130648,-0.701180,57.923696,-37.576861,91.261201
10429,NaN,7.209880,5.050070,7.424251,3.594271,0.908050,1.089429,1.249160,2.033641,-0.824200,-0.466076,-0.517261,-0.141935,-0.703611,58.091168,-36.555067,92.170879
10430,NaN,7.526323,5.145091,8.411860,4.441769,1.111459,1.715693,2.212819,1.740401,-0.940868,-0.462386,-0.515597,-0.156251,-0.704234,58.954090,-35.570527,92.869425
10431,NaN,7.772136,6.446289,7.708225,3.334062,1.100870,2.395473,2.949893,1.545095,-0.905803,-0.456765,-0.516229,-0.172529,-0.703638,60.299823,-34.671231,93.467813
10432,NaN,9.286798,7.420563,5.968628,1.471699,2.502171,3.167979,3.339718,1.562487,-0.858744,-0.449745,-0.517551,-0.190090,-0.702664,61.851120,-33.803331,94.122818
10433,NaN,10.346842,8.559303,4.585246,-0.118970,3.316269,3.983035,3.386199,1.646224,-1.086168,-0.443218,-0.518287,-0.208467,-0.701055,63.436145,-32.813276,94.769034
10434,NaN,10.039955,9.978339,3.748102,-1.231100,2.732309,4.519972,3.077245,1.826957,-1.349600,-0.437998,-0.517223,-0.226818,-0.699422,64.826839,-31.656307,95.479119
10435,NaN,9.646281,11.431853,3.149925,-2.143083,2.013824,5.187456,2.545824,2.334456,-1.224415,-0.433044,-0.513199,-0.243964,-0.699701,65.737649,-30.456081,96.541225
10436,NaN,10.563175,12.784265,2.529757,-3.283506,2.420058,6.459224,1.780025,3.405856,-0.586210,-0.426301,-0.504347,-0.259081,-0.704825,65.821810,-29.344505,98.430870
10437,NaN,11.008884,13.363459,2.562141,-3.757215,2.673645,7.071083,0.707079,4.638376,0.084305,-0.418165,-0.489524,-0.271179,-0.715518,64.894398,-28.276765,101.196851
10438,NaN,8.660166,12.799335,3.144355,-3.094684,1.004997,5.617673,-0.446472,5.551430,0.548700,-0.409618,-0.469303,-0.279797,-0.730535,63.072044,-27.159258,104.577285
10439,NaN,5.669142,11.667183,3.771866,-1.992875,-0.944308,3.514121,-1.369967,5.890140,1.008316,-0.400793,-0.446225,-0.284366,-0.747920,60.666013,-26.074371,108.196693
10440,NaN,3.264388,10.370588,4.727235,-0.480557,-2.261352,1.814538,-1.987660,5.492882,1.437946,-0.391877,-0.423564,-0.284662,-0.765502,58.034618,-25.174306,111.660734
10441,NaN,1.601586,8.652289,6.298686,1.681741,-2.605146,0.554371,-2.302775,4.342787,1.818249,-0.383563,-0.404922,-0.280422,-0.781205,55.489902,-24.679052,114.570689
10442,NaN,2.246255,6.776780,7.106344,2.504995,-1.002656,-0.107962,-2.354934,2.987275,2.168390,-0.375602,-0.391699,-0.272554,-0.794486,53.176728,-24.686646,116.893265
10443,NaN,3.265130,5.686073,7.215893,2.320504,0.333654,-0.349186,-2.304231,1.845136,2.133049,-0.369155,-0.382927,-0.262660,-0.805047,51.130293,-25.000360,118.624642
10444,NaN,4.199886,5.310773,6.449745,1.211140,1.021810,-0.597217,-2.198327,1.163750,2.056480,-0.363533,-0.376854,-0.252047,-0.813816,49.282221,-25.475503,120.019407
10445,NaN,5.091615,4.869136,4.898939,-0.443045,1.585609,-1.391512,-2.117334,0.963566,2.151298,-0.357602,-0.371788,-0.241114,-0.822045,47.482430,-26.027809,121.371552
10446,NaN,6.340094,4.111082,3.409446,-2.065713,2.625984,-2.226328,-1.982948,1.175210,2.383295,-0.350051,-0.366253,-0.230661,-0.830734,45.649556,-26.553362,122.958462
10447,NaN,7.356942,3.194078,2.637356,-2.975002,3.678471,-2.820345,-1.726144,1.676140,2.690812,-0.340141,-0.359354,-0.221475,-0.840308,43.775004,-26.953712,124.926871
10448,NaN,7.760377,2.857090,2.323071,-3.512986,3.937302,-3.035531,-1.372536,2.292177,2.988880,-0.327469,-0.350646,-0.214252,-0.850828,41.899963,-27.152265,127.333735
10449,NaN,7.698444,2.671773,2.674116,-3.412406,3.834752,-2.942902,-0.971285,2.836210,3.298713,-0.312116,-0.340482,-0.208943,-0.861974,40.072064,-27.164345,130.119779
10450,NaN,7.148625,2.392709,3.189911,-2.897949,3.505338,-3.007753,-0.521176,3.126509,3.560779,-0.294331,-0.329836,-0.205515,-0.873122,38.392801,-27.064630,133.162102
10451,NaN,6.482352,2.016021,3.751437,-2.225370,3.238391,-3.126090,-0.015212,3.157688,3.700645,-0.274968,-0.319782,-0.203945,-0.883481,36.972863,-26.928969,136.271194
10452,NaN,5.622576,1.826030,4.368512,-1.420150,2.804793,-3.168701,0.504635,3.014223,3.718580,-0.254612,-0.310877,-0.204374,-0.892614,35.882878,-26.802323,139.336415
10453,NaN,5.104415,2.004847,4.796297,-1.036055,2.328456,-2.987701,0.891533,2.814021,3.672119,-0.233993,-0.303167,-0.206182,-0.900459,35.064818,-26.710909,142.287920
10454,NaN,4.817858,2.108751,4.976006,-0.903174,2.031940,-2.922664,1.181962,2.690590,3.613898,-0.213126,-0.296095,-0.209179,-0.907276,34.455203,-26.622888,145.168891
10455,NaN,4.002276,2.335793,4.961708,-0.490569,1.354246,-3.178154,1.373571,2.566885,3.465410,-0.192657,-0.289491,-0.212996,-0.913078,34.013610,-26.524863,147.924331
10456,NaN,2.676827,2.198270,4.975172,0.477692,0.818276,-3.825027,1.503748,2.392300,3.230686,-0.173173,-0.283404,-0.217502,-0.917816,33.738496,-26.416647,150.488427
10457,NaN,1.785812,1.923434,5.184888,1.298565,0.747241,-4.197818,1.615699,2.246405,2.945413,-0.154912,-0.277665,-0.222677,-0.921585,33.621083,-26.282216,152.847131
10458,NaN,1.816229,1.752071,5.226344,1.276060,0.974087,-4.235465,1.712141,2.173034,2.633460,-0.137988,-0.271869,-0.228615,-0.924544,33.654384,-26.079493,155.009266
10459,NaN,1.818043,1.979443,5.284510,1.225579,0.866456,-4.077178,1.858136,2.155762,2.275838,-0.122479,-0.265762,-0.235592,-0.926750,33.863749,-25.777608,156.973097
10460,NaN,1.583591,2.150412,5.520451,1.480348,0.811318,-3.917207,1.974920,2.121291,1.826420,-0.108911,-0.259261,-0.243643,-0.928203,34.263852,-25.354878,158.682563
10461,NaN,1.703287,1.860728,5.802315,1.490708,1.321265,-3.807628,2.176652,2.040648,1.283339,-0.097659,-0.252520,-0.253190,-0.928758,34.922048,-24.809807,160.079159
10462,NaN,2.178379,2.061150,5.738533,0.970361,1.402173,-3.566517,2.490134,1.943805,0.760633,-0.088546,-0.245644,-0.264771,-0.928286,35.902038,-24.152537,161.172432
10463,NaN,2.692176,2.794863,5.507067,0.315600,0.983386,-3.155547,2.845196,1.928245,0.312822,-0.081061,-0.238342,-0.278434,-0.926875,37.183786,-23.371191,162.044048
10464,NaN,2.956843,3.373969,5.106454,-0.187384,0.565250,-3.041842,3.222671,1.971733,-0.129628,-0.075099,-0.230290,-0.294333,-0.924497,38.769911,-22.432650,162.729224
10465,NaN,2.960278,4.169450,4.602505,-0.494733,-0.130381,-2.952343,3.592808,2.068480,-0.525678,-0.070361,-0.221262,-0.312284,-0.921179,40.621753,-21.327579,163.290867
10466,NaN,2.946423,5.554548,3.764421,-0.907183,-1.452720,-2.687644,3.865049,2.220284,-0.833902,-0.066479,-0.211038,-0.331768,-0.917046,42.660212,-20.056788,163.807084
10467,NaN,2.450720,6.956185,2.532901,-1.007453,-3.121071,-2.738279,3.989082,2.358641,-1.047607,-0.063173,-0.199758,-0.351879,-0.912298,44.774224,-18.664100,164.332890
10468,NaN,1.483324,7.935921,1.972040,-0.353252,-4.170738,-2.633600,3.995273,2.424952,-1.120000,-0.060046,-0.187929,-0.371943,-0.907048,46.893373,-17.232745,164.905177
10469,NaN,0.328743,8.845725,2.106825,0.777341,-4.720081,-2.073276,3.879836,2.423751,-1.058361,-0.056709,-0.176086,-0.391187,-0.901527,48.935473,-15.850311,165.551974
10470,NaN,-0.155478,9.640155,2.787695,1.483138,-4.578237,-1.006178,3.647466,2.326440,-0.967919,-0.053337,-0.164693,-0.409100,-0.895918,50.852978,-14.564083,166.233218
10471,NaN,0.172676,9.952758,3.854796,1.504520,-3.581385,0.129304,3.434998,2.104034,-0.941605,-0.050448,-0.154223,-0.425770,-0.890163,52.673411,-13.391793,166.860578
10472,NaN,0.245383,10.287589,4.552095,1.600823,-2.877425,0.946488,3.304081,1.765194,-1.026550,-0.048743,-0.144979,-0.441687,-0.884035,54.467907,-12.314286,167.332255
10473,NaN,0.222783,10.931101,4.985216,1.691004,-2.541122,1.808791,3.191194,1.450075,-1.151858,-0.048349,-0.136774,-0.456943,-0.877587,56.237019,-11.295879,167.642991
10474,NaN,0.647560,11.217406,5.230482,1.265480,-2.019593,2.349246,3.023104,1.217624,-1.184665,-0.048733,-0.129426,-0.471297,-0.871065,57.934825,-10.343015,167.859313
10475,NaN,0.855188,11.368192,5.315962,0.984919,-1.596749,2.624881,2.848367,1.018643,-1.285891,-0.050124,-0.122627,-0.484758,-0.864558,59.551769,-9.406630,167.973652
10476,NaN,0.574504,11.521092,5.279076,1.135005,-1.383175,2.745967,2.712708,0.800848,-1.343431,-0.052364,-0.116564,-0.497501,-0.858000,61.110190,-8.506474,167.987390
10477,NaN,0.455275,11.521002,4.908383,1.049899,-1.351478,2.600713,2.648862,0.525813,-1.289737,-0.055082,-0.111769,-0.509737,-0.851259,62.644942,-7.708555,167.900067
10478,NaN,0.484248,11.590651,4.122885,0.741215,-1.700943,2.357895,2.550684,0.324918,-1.209424,-0.058013,-0.107983,-0.521358,-0.844488,64.131740,-7.001190,167.751002
10479,NaN,0.151065,11.759466,3.223395,0.778002,-2.305502,2.135916,2.371523,0.204461,-1.054150,-0.060689,-0.105037,-0.531997,-0.838012,65.513643,-6.400159,167.595345
10480,NaN,0.016596,11.723412,2.577213,0.702262,-2.601786,1.883983,2.099960,0.145543,-0.825392,-0.062697,-0.102850,-0.541289,-0.832164,66.735934,-5.929335,167.475832
10481,NaN,-0.172517,11.376276,2.196628,0.766755,-2.603445,1.452522,1.770908,0.026965,-0.525086,-0.063940,-0.101852,-0.548956,-0.827155,67.766613,-5.640949,167.369681
10482,NaN,-0.350962,10.946615,1.835361,0.850710,-2.613023,0.946785,1.473309,-0.223415,-0.291930,-0.065051,-0.102429,-0.555159,-0.822845,68.635057,-5.528420,167.184337
10483,NaN,0.157111,10.943965,1.839781,0.373818,-2.350060,1.027785,1.191057,-0.435823,-0.175612,-0.066417,-0.104103,-0.560042,-0.819209,69.349564,-5.518712,166.910473
10484,NaN,0.746492,11.283644,2.028338,-0.127240,-2.048480,1.491226,0.975162,-0.590568,-0.147221,-0.068208,-0.106418,-0.563957,-0.816073,69.948471,-5.552450,166.558873
10485,NaN,0.853624,11.316544,2.185955,-0.172719,-1.787113,1.604266,0.790801,-0.738499,-0.227411,-0.070842,-0.109040,-0.567092,-0.813326,70.451017,-5.567722,166.111186
10486,NaN,0.735667,10.862302,2.405652,0.003933,-1.368662,1.252761,0.658972,-0.910447,-0.335579,-0.074469,-0.112008,-0.569671,-0.810792,70.889286,-5.554047,165.549368
10487,NaN,0.378395,10.282994,2.719978,0.429980,-0.897932,0.784003,0.601523,-1.139259,-0.491566,-0.079413,-0.115430,-0.571997,-0.808201,71.309123,-5.493464,164.833990
10488,NaN,0.573763,10.008106,2.578807,0.193727,-0.808995,0.504732,0.589178,-1.190787,-0.652594,-0.085155,-0.118592,-0.574315,-0.805510,71.725936,-5.350171,164.061705
10489,NaN,0.799821,10.188192,2.206397,-0.154154,-1.065394,0.586723,0.532350,-1.072806,-0.745599,-0.090966,-0.120977,-0.576481,-0.802969,72.103426,-5.129189,163.338556
10490,NaN,0.268618,10.459728,1.992566,0.250796,-1.425184,0.739746,0.436596,-0.942178,-0.726055,-0.096372,-0.122850,-0.578281,-0.800757,72.416313,-4.892455,162.692020
10491,NaN,-0.536281,10.516493,2.020703,0.986852,-1.603519,0.742978,0.307599,-1.015773,-0.620680,-0.101648,-0.125250,-0.579445,-0.798889,72.655102,-4.722076,162.024617
10492,NaN,-1.043080,10.342412,2.169612,1.488759,-1.544738,0.587219,0.180617,-1.265202,-0.513912,-0.107291,-0.128890,-0.579880,-0.797254,72.829018,-4.650917,161.239254
10493,NaN,-1.229144,10.088828,2.271079,1.689211,-1.432333,0.363168,0.114569,-1.642984,-0.383476,-0.113551,-0.134365,-0.579736,-0.795587,72.980663,-4.711506,160.268519
10494,NaN,-1.735661,9.968584,2.377386,2.209416,-1.494103,0.233363,0.055898,-2.186984,-0.227124,-0.120789,-0.142417,-0.578882,-0.793740,73.123694,-4.947257,159.024455
10495,NaN,-2.603163,9.670018,2.607156,3.135423,-1.572954,-0.077336,0.037577,-2.848386,-0.031925,-0.129168,-0.153615,-0.577330,-0.791459,73.294223,-5.394666,157.447204
10496,NaN,-2.201073,9.347298,2.788035,2.899598,-1.254906,-0.325532,0.124877,-3.424720,0.102217,-0.138572,-0.167509,-0.575499,-0.788378,73.558418,-6.005511,155.570893
10497,NaN,-1.164486,9.325030,3.089172,2.182471,-0.643490,-0.185835,0.300874,-3.797579,0.235394,-0.148343,-0.183309,-0.573808,-0.784307,73.966969,-6.736286,153.503702
10498,NaN,-0.136996,9.476189,3.058760,1.388509,-0.306602,0.043724,0.521633,-3.888232,0.359783,-0.157616,-0.199928,-0.572579,-0.779320,74.533955,-7.534368,151.396219
10499,NaN,0.796102,9.956051,2.634996,0.518768,-0.363071,0.497344,0.617011,-3.737953,0.376108,-0.166254,-0.215994,-0.571614,-0.773927,75.174019,-8.294450,149.362899
10500,NaN,2.025657,10.543614,1.971481,-0.723097,-0.425125,1.070880,0.496032,-3.355194,0.390260,-0.173808,-0.230463,-0.570291,-0.769055,75.739238,-8.988515,147.534649
10501,NaN,3.273346,10.585803,1.176158,-2.065405,-0.360305,1.130811,0.226045,-2.815571,0.316301,-0.180388,-0.242340,-0.568349,-0.765318,76.123829,-9.548817,145.990864
10502,NaN,3.344223,9.852541,0.599439,-2.357709,-0.517644,0.325775,-0.084088,-2.366690,0.267516,-0.186211,-0.252055,-0.565580,-0.762833,76.303161,-10.015637,144.688712
10503,NaN,3.657786,9.603907,0.698960,-2.493236,-0.171590,0.180168,-0.421713,-1.944562,0.155464,-0.191682,-0.259485,-0.561996,-0.761634,76.259330,-10.359002,143.607569
10504,NaN,5.452498,9.885678,1.034873,-3.682869,1.040665,0.858806,-0.738971,-1.223285,0.073259,-0.195825,-0.263626,-0.557952,-0.762130,75.966472,-10.562772,142.923054
10505,NaN,6.675937,10.094623,1.575774,-4.322528,2.061942,1.413004,-1.011190,-0.312725,0.074607,-0.197783,-0.264016,-0.553747,-0.764553,75.424963,-10.641564,142.754170
10506,NaN,5.380971,10.058372,2.078074,-3.065240,1.590364,1.256075,-1.174263,0.364112,-0.068221,-0.198613,-0.261262,-0.549750,-0.768160,74.723146,-10.544913,142.946050
10507,NaN,3.351599,9.593582,2.355092,-1.397720,0.650233,0.504212,-1.188049,0.611655,-0.230185,-0.199399,-0.257083,-0.546143,-0.771931,73.994352,-10.317316,143.249915
10508,NaN,1.704068,8.989337,2.682346,0.018220,0.046242,-0.278352,-1.033711,0.464016,-0.227629,-0.200367,-0.253629,-0.542951,-0.775067,73.369511,-10.112374,143.468864
10509,NaN,0.352708,8.800778,3.463040,1.500404,-0.161656,-0.469618,-0.771188,0.010481,-0.131544,-0.201860,-0.252447,-0.540195,-0.776989,72.938029,-10.032595,143.449291
10510,NaN,0.052089,8.681930,4.194176,2.158661,0.192970,-0.417344,-0.457353,-0.541042,-0.035257,-0.204067,-0.253984,-0.537966,-0.777458,72.736434,-10.099739,143.139265
10511,NaN,0.254675,8.569127,4.485916,2.196541,0.524979,-0.404306,-0.092054,-1.058543,0.033133,-0.206936,-0.258079,-0.536537,-0.776338,72.794179,-10.291427,142.553181
10512,NaN,0.469208,8.764604,5.045925,2.428901,0.964595,-0.031628,0.245832,-1.468315,0.112338,-0.210148,-0.264321,-0.535865,-0.773835,73.086622,-10.594732,141.751424
10513,NaN,0.356201,9.085356,5.349187,2.796647,0.982511,0.311368,0.500390,-1.779155,0.182111,-0.213578,-0.272194,-0.535725,-0.770256,73.560638,-10.980802,140.784693
10514,NaN,-0.218610,9.842840,4.552844,2.816699,-0.214944,0.659944,0.668270,-2.262399,0.215524,-0.217914,-0.282173,-0.535604,-0.765519,74.190578,-11.454364,139.547072
10515,NaN,-0.082350,10.778411,3.413850,2.064481,-1.261670,1.231750,0.585145,-3.073206,0.257908,-0.224343,-0.295213,-0.534121,-0.759759,74.877422,-12.059567,137.850939
10516,NaN,1.245230,11.280947,2.257321,0.430780,-1.375772,1.668859,0.196131,-3.819177,0.320033,-0.233024,-0.310736,-0.530065,-0.753773,75.452497,-12.792020,135.730033
10517,NaN,3.669605,11.050115,1.675159,-1.528833,-0.053608,1.850715,-0.359625,-4.010824,0.401356,-0.242690,-0.326415,-0.523362,-0.748764,75.761047,-13.578944,133.499729
10518,NaN,5.591582,10.344053,1.131457,-3.051420,1.195796,1.536424,-0.710119,-3.587354,0.406373,-0.251700,-0.339988,-0.515653,-0.745089,75.841624,-14.303714,131.502571
10519,NaN,5.870071,9.740665,1.027188,-3.167531,1.534419,1.050306,-0.933328,-2.826853,0.496056,-0.258732,-0.350571,-0.507775,-0.743184,75.705303,-14.970526,129.949254
10520,NaN,5.639108,9.920255,1.029776,-2.955034,1.255835,1.185564,-1.169376,-1.975242,0.498247,-0.263952,-0.357637,-0.500021,-0.743239,75.321548,-15.524874,128.884584
10521,NaN,5.423596,10.619316,0.995684,-2.875279,0.740907,1.778669,-1.383248,-1.154168,0.393146,-0.267868,-0.361061,-0.492691,-0.745075,74.699300,-15.907328,128.278526
10522,NaN,5.045118,10.439880,1.002211,-2.699323,0.415559,1.500480,-1.553226,-0.393527,0.394593,-0.270187,-0.361407,-0.485705,-0.748649,73.861282,-16.180936,128.113331
10523,NaN,4.160913,9.448864,1.556123,-1.770637,0.291370,0.472898,-1.561332,0.211134,0.561294,-0.270412,-0.359855,-0.479173,-0.753508,72.913221,-16.448830,128.326685
10524,NaN,2.153791,8.942465,2.672175,0.265915,-0.561829,-0.254503,-1.310006,0.308764,0.719558,-0.269335,-0.358635,-0.473403,-0.758109,72.082484,-16.783803,128.628877
10525,NaN,1.327735,8.916411,3.735470,1.564890,-0.731551,-0.208846,-0.900716,0.050876,0.851086,-0.267625,-0.359235,-0.468582,-0.761418,71.518929,-17.232406,128.813675
10526,NaN,1.626892,8.948563,4.522651,2.016830,-0.223610,0.140163,-0.441800,-0.386640,0.969857,-0.265652,-0.362384,-0.464689,-0.763001,71.283411,-17.824774,128.775968
10527,NaN,1.912000,9.141730,4.515415,1.889562,-0.202042,0.385505,-0.034934,-0.923637,1.007094,-0.264042,-0.368189,-0.461554,-0.762684,71.374829,-18.535071,128.439264
10528,NaN,2.152287,9.684277,4.109345,1.497129,-0.558490,0.805641,0.240696,-1.469336,0.903783,-0.263557,-0.376183,-0.458907,-0.760545,71.737589,-19.287695,127.764854
10529,NaN,2.829775,10.480014,3.602326,0.791901,-0.736260,1.573416,0.322039,-1.825155,0.820559,-0.264034,-0.385406,-0.456220,-0.757371,72.232920,-20.052161,126.859829
10530,NaN,3.873036,11.422763,3.083342,-0.115124,-0.695134,2.616638,0.161329,-1.905455,0.686824,-0.265478,-0.394383,-0.453026,-0.754156,72.675840,-20.751506,125.872438
10531,NaN,4.818704,11.976929,2.781217,-0.774898,-0.444008,3.363147,-0.171242,-1.686210,0.646772,-0.267213,-0.401957,-0.448910,-0.752002,72.898342,-21.385163,124.997702
10532,NaN,5.863398,11.845821,2.355067,-1.592580,0.128135,3.517552,-0.516850,-1.366707,0.646034,-0.268904,-0.407844,-0.443885,-0.751212,72.863829,-21.964387,124.306305
10533,NaN,6.839564,11.571934,2.334553,-2.064645,0.885247,3.644346,-0.850209,-0.887049,0.668973,-0.270113,-0.411504,-0.438187,-0.752127,72.535950,-22.475360,123.901875
10534,NaN,7.571874,11.342026,2.346147,-2.436823,1.421021,3.734251,-1.072326,-0.187051,0.793310,-0.269761,-0.412491,-0.432318,-0.755103,71.913773,-22.935913,123.938242
10535,NaN,7.360137,10.873900,2.226039,-2.483216,1.265166,3.210290,-1.179950,0.547509,0.875260,-0.267722,-0.410712,-0.426847,-0.759896,71.050638,-23.306164,124.431248
10536,NaN,6.457132,10.051151,1.791863,-2.459628,0.629587,1.997517,-1.150047,1.217442,0.810945,-0.264414,-0.406263,-0.422482,-0.765862,70.047690,-23.507103,125.312957
10537,NaN,4.992807,9.077230,1.989467,-1.587683,-0.035060,0.616000,-0.960186,1.623139,0.738416,-0.260117,-0.400322,-0.419493,-0.772080,69.061862,-23.573569,126.420749
10538,NaN,3.578725,8.524635,2.785319,-0.234438,-0.551242,-0.175563,-0.822257,1.792214,0.658706,-0.255469,-0.393697,-0.417367,-0.778166,68.121552,-23.545334,127.610201
10539,NaN,2.550929,8.606631,3.666461,0.964750,-1.018427,-0.218136,-0.609543,1.761180,0.685498,-0.250337,-0.387482,-0.415940,-0.783698,67.309396,-23.521197,128.786916
10540,NaN,1.853150,8.622755,4.819300,2.234701,-1.040841,-0.069271,-0.280827,1.608644,0.712547,-0.244757,-0.382297,-0.415515,-0.788220,66.717482,-23.532418,129.882309
10541,NaN,1.612064,8.933123,4.966490,2.442104,-1.325278,0.154519,0.116625,1.406866,0.795476,-0.238494,-0.378538,-0.416227,-0.791571,66.390936,-23.624695,130.882840
10542,NaN,1.641356,9.752432,4.702060,2.175108,-1.885333,0.752711,0.339194,1.035966,0.861114,-0.232306,-0.376628,-0.417224,-0.793794,66.267105,-23.833617,131.689058
10543,NaN,2.472316,10.468754,4.544848,1.551519,-1.814400,1.618107,0.303479,0.688336,1.002184,-0.226346,-0.376330,-0.417399,-0.795564,66.185533,-24.194504,132.333361
10544,NaN,3.444440,10.729577,4.645422,1.078498,-1.320226,2.256315,0.077897,0.399131,1.119855,-0.220932,-0.377162,-0.416105,-0.797367,66.024965,-24.683881,132.844465
10545,NaN,3.619459,10.648808,5.035452,1.335375,-1.071153,2.390639,-0.226679,0.079003,1.203232,-0.216425,-0.379089,-0.413080,-0.799260,65.753194,-25.288691,133.196430
10546,NaN,3.464955,10.201300,5.345152,1.744683,-0.904975,2.052299,-0.481907,-0.305803,1.264198,-0.212937,-0.382393,-0.408477,-0.800987,65.417960,-26.016075,133.347447
10547,NaN,4.097626,9.520740,5.326791,1.425440,-0.269799,1.750276,-0.631828,-0.723937,1.309666,-0.210404,-0.387275,-0.402729,-0.802220,65.095756,-26.864939,133.273090
10548,NaN,4.574648,9.131029,4.689074,0.722850,-0.209325,1.399851,-0.695008,-1.121017,1.299955,-0.208808,-0.393644,-0.396288,-0.802745,64.843685,-27.807003,132.968472
10549,NaN,4.837180,8.712998,4.011119,0.135051,-0.273165,0.925455,-0.690583,-1.483059,1.295919,-0.207926,-0.401414,-0.389466,-0.802465,64.700403,-28.834498,132.450305
10550,NaN,5.250577,8.224881,3.408099,-0.465706,-0.132410,0.511798,-0.589161,-1.741431,1.252932,-0.207483,-0.410206,-0.382814,-0.801334,64.706271,-29.905358,131.762836
10551,NaN,5.513814,7.944048,2.661335,-1.088749,-0.245039,0.154487,-0.452021,-1.862432,1.244768,-0.207005,-0.419548,-0.376564,-0.799580,64.845036,-30.998950,130.991018
10552,NaN,5.003343,7.987363,2.559432,-0.747000,-0.761289,-0.104867,-0.384400,-1.988829,1.260079,-0.206526,-0.429446,-0.370361,-0.797343,65.079946,-32.130800,130.133507
10553,NaN,5.377818,7.578402,2.350567,-0.976551,-0.455959,-0.288316,-0.312568,-1.976056,1.396247,-0.205720,-0.439701,-0.363975,-0.794899,65.361454,-33.317730,129.247549
10554,NaN,6.523995,7.434074,2.298936,-1.467923,0.238509,0.232102,-0.193872,-1.746255,1.494474,-0.203392,-0.449136,-0.358161,-0.792862,65.632464,-34.507269,128.573964
10555,NaN,7.104764,7.367079,2.493912,-1.441528,0.608308,0.604592,-0.070959,-1.327645,1.502776,-0.200354,-0.457121,-0.353076,-0.791351,65.845305,-35.591780,128.103038
10556,NaN,7.382134,7.240858,3.036958,-0.972785,0.944532,0.878793,0.083365,-0.846242,1.487937,-0.195782,-0.463166,-0.349207,-0.790696,65.970964,-36.563344,127.981400
10557,NaN,7.639201,7.201140,3.229346,-0.818910,1.082716,1.086740,0.278240,-0.358277,1.420488,-0.190540,-0.467451,-0.346588,-0.790608,66.038088,-37.377416,128.103487
10558,NaN,7.127488,7.407214,3.231887,-0.472038,0.512300,0.940283,0.424853,-0.025425,1.278878,-0.184550,-0.470165,-0.345311,-0.790978,66.070947,-38.048379,128.457944
10559,NaN,6.621339,7.590218,3.079249,-0.278596,-0.071613,0.715923,0.486720,0.145927,1.145944,-0.179013,-0.472134,-0.344601,-0.791387,66.095104,-38.601885,128.837370
10560,NaN,6.788547,7.853680,2.887819,-0.450730,-0.305744,0.948663,0.527976,0.243084,1.097946,-0.173018,-0.473530,-0.344374,-0.791985,66.098864,-39.115944,129.323509
10561,NaN,6.802016,7.828527,2.811116,-0.464190,-0.385695,0.915340,0.518517,0.302790,1.098610,-0.167354,-0.474804,-0.343996,-0.792603,66.073838,-39.607453,129.794908
10562,NaN,6.664599,8.012310,2.508775,-0.589235,-0.796749,0.860879,0.479412,0.368032,1.136468,-0.161094,-0.475694,-0.343564,-0.793554,65.976066,-40.112115,130.385805
10563,NaN,6.814935,8.371541,2.194680,-0.849553,-1.184263,1.105972,0.392473,0.334292,1.260976,-0.154602,-0.476839,-0.342458,-0.794635,65.811585,-40.687715,130.997335
10564,NaN,7.083494,8.496229,2.039554,-1.039456,-1.297826,1.311834,0.218166,0.151203,1.365944,-0.148411,-0.478736,-0.340243,-0.795626,65.597209,-41.360783,131.523907
10565,NaN,7.605905,8.316840,2.043338,-1.237493,-1.002762,1.529970,0.065292,-0.078270,1.384554,-0.142900,-0.481440,-0.337199,-0.796299,65.388722,-42.095550,131.904187
10566,NaN,8.287662,8.110672,2.497437,-1.119218,-0.428437,1.988461,0.031684,-0.266218,1.353481,-0.137898,-0.484794,-0.333935,-0.796521,65.246950,-42.859301,132.150273
10567,NaN,8.897207,7.875547,3.046523,-0.873096,0.164303,2.421457,0.121018,-0.319597,1.314873,-0.132921,-0.488337,-0.331080,-0.796395,65.187457,-43.614467,132.349142
10568,NaN,9.238359,7.837105,2.983841,-1.000171,0.227649,2.621809,0.276030,-0.168063,1.241919,-0.127595,-0.491236,-0.329095,-0.796306,65.151634,-44.296119,132.637623
10569,NaN,8.745169,8.396608,2.786991,-0.776916,-0.643596,2.586061,0.396277,0.103864,1.189224,-0.121735,-0.493025,-0.327891,-0.796614,65.054857,-44.883723,133.109511
10570,NaN,8.025459,8.692430,2.968673,-0.166822,-1.278678,2.316415,0.293808,0.396201,1.211493,-0.115551,-0.493602,-0.326375,-0.797799,64.730567,-45.411404,133.813228
10571,NaN,7.477189,8.086756,3.098938,0.163598,-1.160681,1.568532,0.131566,0.665132,1.226247,-0.109268,-0.493017,-0.324331,-0.799877,64.157018,-45.875482,134.731411
10572,NaN,6.710812,7.597479,3.292090,0.639289,-1.204944,0.757684,-0.016777,0.876627,1.223765,-0.103008,-0.491473,-0.321784,-0.802682,63.368016,-46.277892,135.822161
10573,NaN,5.914915,7.296543,3.705927,1.327328,-1.299344,0.112453,-0.198230,0.951052,1.186814,-0.097293,-0.489479,-0.318592,-0.805880,62.431305,-46.629593,136.958350
10574,NaN,4.993678,7.081528,3.862691,1.863268,-1.607021,-0.650268,-0.439600,0.873102,1.079954,-0.092642,-0.487454,-0.314662,-0.809193,61.410240,-46.935725,138.022395
10575,NaN,4.596852,7.140165,3.782633,1.972914,-1.974629,-0.945409,-0.683541,0.712088,0.987879,-0.089285,-0.485826,-0.309853,-0.812399,60.352551,-47.226061,138.932371
10576,NaN,4.669640,6.882882,3.968253,2.018992,-1.775260,-0.998073,-0.905734,0.437556,0.976404,-0.086857,-0.485145,-0.304058,-0.815254,59.302847,-47.579503,139.661869
10577,NaN,5.002412,6.212191,4.216733,1.930957,-1.113716,-1.070494,-1.043267,0.095088,0.965381,-0.085406,-0.485783,-0.297542,-0.817429,58.351814,-48.018636,140.139156
10578,NaN,5.501186,5.750605,4.438522,1.786622,-0.562469,-0.895106,-1.107495,-0.221145,0.890916,-0.084799,-0.487527,-0.290817,-0.818872,57.545042,-48.514459,140.378321
10579,NaN,5.956850,5.585583,4.134117,1.283197,-0.475322,-0.762825,-1.095016,-0.489249,0.820800,-0.084919,-0.490267,-0.284164,-0.819560,56.910174,-49.055468,140.388367
10580,NaN,5.966980,5.518484,3.619781,0.858285,-0.721515,-0.986414,-1.083614,-0.783240,0.747222,-0.085641,-0.494065,-0.277619,-0.819447,56.463623,-49.655741,140.166878
10581,NaN,6.095344,5.259867,3.138185,0.389893,-0.725922,-1.211074,-1.103760,-1.080962,0.667541,-0.087233,-0.498948,-0.271021,-0.818528,56.206970,-50.311078,139.676088
10582,NaN,6.186008,4.793920,2.873472,0.117408,-0.471397,-1.489925,-1.030191,-1.326715,0.593378,-0.089186,-0.504715,-0.264804,-0.816816,56.168122,-51.012639,138.971236
10583,NaN,5.995912,4.367771,2.778509,0.150627,-0.285904,-1.897944,-0.910143,-1.580829,0.529187,-0.091512,-0.511460,-0.259080,-0.814194,56.393860,-51.761197,138.014574
10584,NaN,6.132982,4.142791,2.919374,0.283159,-0.043740,-1.861860,-0.788120,-1.821871,0.464005,-0.094010,-0.519094,-0.253907,-0.810701,56.888330,-52.553316,136.824564
10585,NaN,7.174810,4.032197,3.052137,0.050399,0.483421,-1.048322,-0.633531,-1.910364,0.420579,-0.096470,-0.527063,-0.249380,-0.806665,57.586579,-53.341695,135.494135
10586,NaN,8.357726,3.939897,3.028193,-0.343216,1.016674,-0.148781,-0.431691,-1.688430,0.389043,-0.098154,-0.534132,-0.245859,-0.802884,58.306191,-54.039998,134.301992
10587,NaN,9.178012,4.038131,2.742629,-0.796916,1.168257,0.486017,-0.248825,-1.227232,0.360305,-0.098977,-0.539385,-0.243333,-0.800036,58.863900,-54.576034,133.438687
10588,NaN,9.528613,4.513718,2.450977,-1.062057,0.796693,0.930324,-0.137530,-0.614500,0.359419,-0.098671,-0.542212,-0.241577,-0.798693,59.074040,-54.929854,133.092552
10589,NaN,8.886583,4.855185,2.427907,-0.759380,0.189145,0.571257,-0.159049,-0.022439,0.427106,-0.097519,-0.542756,-0.239813,-0.798997,58.832994,-55.139713,133.274273
10590,NaN,7.873429,4.848953,2.488676,-0.318021,-0.261605,-0.245723,-0.304095,0.369258,0.497688,-0.095926,-0.541730,-0.237495,-0.800576,58.197192,-55.268283,133.843967
10591,NaN,7.528826,4.847592,2.730154,-0.000846,-0.397143,-0.459731,-0.498464,0.540427,0.522810,-0.094636,-0.539962,-0.234382,-0.802839,57.317561,-55.350213,134.565247
10592,NaN,6.701943,4.792119,3.089670,0.601767,-0.655128,-1.058573,-0.732781,0.465577,0.541819,-0.093907,-0.538378,-0.230265,-0.805176,56.340301,-55.460131,135.249979
10593,NaN,6.215383,4.440009,3.450939,1.052404,-0.519602,-1.513562,-0.967225,0.111485,0.555127,-0.094243,-0.538124,-0.224968,-0.806802,55.464421,-55.681549,135.638841
10594,NaN,6.667646,4.193947,3.449647,0.832512,-0.207956,-1.256415,-1.139288,-0.389680,0.555287,-0.095518,-0.539777,-0.218759,-0.807256,54.826588,-56.066374,135.628362
10595,NaN,7.674952,3.986818,3.124844,0.138173,0.202340,-0.620111,-1.231966,-0.853804,0.547143,-0.097663,-0.543232,-0.211937,-0.806501,54.463182,-56.598898,135.215569
10596,NaN,8.656132,3.794983,2.680663,-0.608821,0.565736,-0.023678,-1.296590,-1.179364,0.561027,-0.100181,-0.547932,-0.204670,-0.804888,54.289402,-57.249986,134.543870
10597,NaN,9.227589,3.563457,2.300611,-1.103704,0.831765,0.248530,-1.309130,-1.381748,0.574478,-0.102961,-0.553414,-0.197167,-0.802657,54.265753,-57.973329,133.682098
10598,NaN,9.570057,3.304322,2.104397,-1.315403,1.082554,0.386779,-1.235962,-1.515944,0.585994,-0.105531,-0.559416,-0.189864,-0.799918,54.398749,-58.748780,132.701465
10599,NaN,10.201142,2.674600,1.989656,-1.542690,1.803577,0.653481,-1.019151,-1.512991,0.588491,-0.107552,-0.565481,-0.183374,-0.796893,54.685615,-59.520462,131.685287
10600,NaN,10.914916,2.424779,2.069132,-1.583397,2.248724,1.220467,-0.698769,-1.259529,0.587180,-0.108351,-0.570652,-0.178317,-0.794241,54.981728,-60.207315,130.887205
10601,NaN,11.439929,2.054778,2.256880,-1.480209,2.748411,1.608423,-0.320643,-0.734351,0.595869,-0.107643,-0.573939,-0.174979,-0.792710,55.078060,-60.722792,130.563394
10602,NaN,11.533746,1.830560,2.366011,-1.366514,2.940645,1.652962,0.098642,-0.007564,0.596192,-0.105014,-0.574548,-0.173725,-0.792897,54.803285,-61.001062,130.949851
10603,NaN,10.603354,2.069211,2.621244,-0.848519,2.363088,1.016851,0.455976,0.728042,0.583870,-0.100842,-0.572424,-0.174267,-0.794854,54.117694,-61.026029,132.030180
10604,NaN,9.470351,2.218667,3.016846,-0.187686,1.838522,0.202047,0.716398,1.301957,0.544196,-0.095502,-0.568074,-0.176278,-0.798184,53.129647,-60.830903,133.637426
10605,NaN,8.189042,2.202540,3.412797,0.496685,1.447219,-0.800683,0.919658,1.716534,0.482118,-0.089533,-0.562082,-0.179420,-0.802406,51.986479,-60.448052,135.551430
10606,NaN,6.657541,2.579419,3.195524,0.734084,0.527247,-2.042894,1.021123,1.922561,0.410138,-0.083299,-0.555166,-0.183284,-0.807006,50.827068,-59.940969,137.569007
10607,NaN,5.310970,3.554073,2.549758,0.605721,-0.951831,-3.025514,0.916174,1.907538,0.359128,-0.077641,-0.548171,-0.186798,-0.811534,49.706608,-59.396624,139.473063
10608,NaN,4.414571,4.466702,2.595293,0.999142,-2.078793,-3.420860,0.494338,1.687732,0.408080,-0.073064,-0.541879,-0.188403,-0.815802,48.523019,-58.937042,141.188578
10609,NaN,3.730579,4.121019,3.720947,2.216964,-1.738413,-3.745711,-0.034481,1.186399,0.445411,-0.070312,-0.537457,-0.187518,-0.819166,47.403593,-58.667442,142.472110
10610,NaN,3.491529,3.282883,4.834554,3.213458,-0.811194,-3.866556,-0.396408,0.507462,0.422739,-0.069183,-0.535636,-0.185006,-0.821024,46.570584,-58.643030,143.188857
10611,NaN,4.299849,2.986606,5.021559,3.006030,-0.286159,-3.216761,-0.624640,-0.126433,0.378362,-0.069512,-0.536302,-0.181418,-0.821362,46.068517,-58.845480,143.355417
10612,NaN,6.273892,2.839138,4.899087,2.077452,0.374331,-1.629343,-0.802589,-0.509316,0.353956,-0.070686,-0.538435,-0.177064,-0.820817,45.737325,-59.191112,143.212649
10613,NaN,7.205485,2.458828,4.938041,1.736552,0.955499,-0.957181,-0.894634,-0.614385,0.297054,-0.072511,-0.540907,-0.172406,-0.820023,45.464289,-59.554321,142.931908
10614,NaN,7.249033,2.294628,4.685352,1.516108,1.007747,-1.069017,-0.906457,-0.588928,0.208071,-0.074630,-0.543171,-0.167982,-0.819255,45.227410,-59.873251,142.612026
10615,NaN,7.217692,2.343282,4.377147,1.282771,0.837941,-1.187288,-0.923850,-0.537226,0.157778,-0.077035,-0.545162,-0.163597,-0.818597,44.980784,-60.149775,142.282988
10616,NaN,7.081237,2.318735,4.109156,1.115390,0.718306,-1.407613,-0.990914,-0.488661,0.142068,-0.079566,-0.546895,-0.159035,-0.818098,44.672819,-60.402748,141.991049
10617,NaN,7.342118,1.921193,3.873503,0.802315,1.078451,-1.398730,-1.005571,-0.449878,0.159688,-0.082111,-0.548462,-0.154333,-0.817697,44.315905,-60.645937,141.736362
10618,NaN,7.434672,1.461725,3.771379,0.680416,1.473801,-1.506124,-0.963417,-0.429998,0.131378,-0.084559,-0.549926,-0.149926,-0.817284,43.989424,-60.872213,141.485086
10619,NaN,7.405544,1.365596,3.519589,0.479514,1.477223,-1.646772,-0.877652,-0.378823,0.072775,-0.087048,-0.551159,-0.146005,-0.816902,43.717965,-61.052932,141.217350
10620,NaN,7.542950,1.335864,2.957362,-0.076986,1.437820,-1.728548,-0.792719,-0.255451,0.009512,-0.089392,-0.551868,-0.142699,-0.816754,43.455084,-61.159831,141.005985
10621,NaN,7.870581,1.349952,2.421721,-0.693690,1.434300,-1.621552,-0.726521,-0.028938,-0.049191,-0.091706,-0.551631,-0.139879,-0.817146,43.110987,-61.148107,140.920354
10622,NaN,8.217393,1.464556,2.176484,-1.070017,1.391058,-1.367128,-0.691281,0.270061,-0.118162,-0.093918,-0.550133,-0.137575,-0.818295,42.629903,-60.985834,141.024639
10623,NaN,7.879260,1.618822,2.636181,-0.560134,1.193114,-1.451153,-0.605015,0.529373,-0.140515,-0.095880,-0.547591,-0.135757,-0.820074,42.037841,-60.703332,141.302368
10624,NaN,7.627637,1.412957,3.274559,0.070566,1.381909,-1.506962,-0.455590,0.654839,-0.131806,-0.097235,-0.544603,-0.134633,-0.822087,41.449918,-60.370399,141.685000
10625,NaN,8.129268,1.251564,3.597279,0.111488,1.726572,-1.003717,-0.240557,0.724561,-0.142230,-0.098073,-0.541418,-0.134405,-0.824126,40.955502,-60.000600,142.092633
10626,NaN,8.108517,1.684371,3.913628,0.337615,1.356104,-0.760158,-0.014207,0.705970,-0.106419,-0.098088,-0.538437,-0.135051,-0.825970,40.587825,-59.651834,142.515759
10627,NaN,7.939555,1.788493,3.984062,0.413126,1.228926,-0.844585,0.162470,0.546504,-0.117481,-0.097853,-0.536189,-0.136325,-0.827250,40.435374,-59.366485,142.797226
10628,NaN,8.088567,1.982610,3.841213,0.184014,1.094856,-0.708956,0.258296,0.316803,-0.125757,-0.097478,-0.534927,-0.137956,-0.827840,40.492616,-59.179037,142.910080
10629,NaN,8.270976,2.177795,3.678401,-0.056186,0.968876,-0.553067,0.267456,0.103976,-0.123270,-0.097287,-0.534552,-0.139462,-0.827852,40.683220,-59.084367,142.862957
10630,NaN,8.869982,2.270381,3.471658,-0.492829,1.061107,-0.090816,0.278846,0.044962,-0.075544,-0.096837,-0.534457,-0.140910,-0.827721,40.884689,-59.033970,142.821633
10631,NaN,8.457474,2.467584,3.441248,-0.348479,0.758529,-0.391264,0.263528,-0.026717,-0.022880,-0.096331,-0.534690,-0.142066,-0.827432,41.081089,-59.033587,142.765005
10632,NaN,8.098020,2.556262,3.438620,-0.187736,0.572568,-0.670840,0.171506,-0.227261,0.006534,-0.096021,-0.535726,-0.142719,-0.826685,41.332959,-59.131358,142.593256
10633,NaN,8.546652,2.594060,3.331958,-0.435931,0.667392,-0.313173,0.118233,-0.400982,0.032959,-0.095938,-0.537475,-0.142943,-0.825521,41.644563,-59.312716,142.305697
10634,NaN,9.104686,2.883761,3.209496,-0.732031,0.553785,0.220733,0.092789,-0.430491,0.063902,-0.095746,-0.539349,-0.143018,-0.824306,41.944824,-59.518296,142.025940
10635,NaN,9.340263,3.022649,3.096986,-0.888617,0.478171,0.431815,0.036154,-0.357889,0.101836,-0.095568,-0.540926,-0.142735,-0.823342,42.137906,-59.706537,141.822373
10636,NaN,9.612280,3.110880,2.855526,-1.187318,0.438725,0.609657,-0.010210,-0.226788,0.143188,-0.095181,-0.541966,-0.142268,-0.822784,42.192657,-59.855176,141.759486
10637,NaN,9.562563,3.292916,2.956200,-1.060632,0.248529,0.667688,-0.057398,-0.045748,0.202283,-0.094619,-0.542285,-0.141477,-0.822775,42.054087,-59.949451,141.877917
10638,NaN,9.506657,3.164036,3.198580,-0.818553,0.359223,0.666788,-0.097218,0.128589,0.272572,-0.093683,-0.541910,-0.140469,-0.823301,41.727468,-59.996164,142.198060
10639,NaN,9.701420,3.096015,3.573867,-0.569174,0.499581,0.953077,-0.065321,0.267788,0.329090,-0.092399,-0.541023,-0.139448,-0.824203,41.281880,-60.003533,142.665687
10640,NaN,9.600582,3.369216,3.748724,-0.397343,0.199139,1.021425,0.000500,0.356856,0.353325,-0.090706,-0.539806,-0.138730,-0.825310,40.800757,-59.979600,143.228846
10641,NaN,9.466283,3.604791,3.828548,-0.304141,-0.086760,1.011479,0.057094,0.423094,0.353112,-0.088882,-0.538345,-0.138218,-0.826547,40.307879,-59.924457,143.832368
10642,NaN,9.179352,3.747191,3.926195,-0.136944,-0.324543,0.845297,0.109895,0.512653,0.367723,-0.086726,-0.536536,-0.137980,-0.827991,39.782561,-59.832602,144.519727
10643,NaN,9.023103,3.627818,4.053676,-0.001392,-0.269042,0.719981,0.169525,0.592591,0.376450,-0.084385,-0.534428,-0.137943,-0.829601,39.236213,-59.705445,145.260870
10644,NaN,8.656592,3.509763,3.950388,0.007577,-0.301134,0.324846,0.253561,0.665453,0.352453,-0.081800,-0.532022,-0.138404,-0.831327,38.720036,-59.533618,146.034864
10645,NaN,8.155048,3.663090,3.781090,0.017016,-0.630219,-0.126513,0.324029,0.728966,0.311467,-0.079222,-0.529352,-0.139235,-0.833141,38.242204,-59.315310,146.801928
10646,NaN,7.694067,3.639225,3.738764,0.126234,-0.753728,-0.547876,0.361298,0.766862,0.286548,-0.076552,-0.526503,-0.140355,-0.835006,37.793838,-59.067914,147.572266
10647,NaN,7.291487,3.399510,3.791975,0.295664,-0.634629,-0.946394,0.402788,0.779852,0.244431,-0.074008,-0.523583,-0.141708,-0.836841,37.400950,-58.796899,148.296905
10648,NaN,7.020406,3.366778,3.632584,0.224555,-0.702167,-1.252704,0.451086,0.792824,0.192191,-0.071475,-0.520571,-0.143455,-0.838641,37.079511,-58.499612,148.983271
10649,NaN,6.666890,3.529551,3.400331,0.136947,-0.985518,-1.598233,0.473267,0.766615,0.151912,-0.069142,-0.517644,-0.145336,-0.840322,36.822567,-58.198405,149.600278
10650,NaN,6.488361,3.671372,3.057818,-0.119646,-1.220800,-1.848815,0.422234,0.718925,0.117718,-0.067047,-0.514858,-0.147123,-0.841891,36.597966,-57.906267,150.157454
10651,NaN,6.498392,3.704801,3.052232,-0.163935,-1.247054,-1.832171,0.320692,0.674492,0.107714,-0.065360,-0.512216,-0.148442,-0.843402,36.351953,-57.629606,150.662302
10652,NaN,6.401526,3.375212,3.373049,0.115883,-0.898883,-1.879999,0.228545,0.588558,0.078019,-0.064024,-0.509871,-0.149468,-0.844743,36.128181,-57.381858,151.090280
10653,NaN,6.730507,2.870386,3.647995,0.146226,-0.279640,-1.642802,0.205688,0.516066,0.032996,-0.063064,-0.507795,-0.150441,-0.845893,35.965149,-57.151251,151.421160
10654,NaN,7.172850,2.558445,3.806170,0.025094,0.169043,-1.300753,0.273833,0.515304,-0.015710,-0.062064,-0.505695,-0.151872,-0.846969,35.881001,-56.904717,151.715941
10655,NaN,7.382143,2.400084,3.844636,-0.088479,0.396521,-1.159802,0.403098,0.584081,-0.071788,-0.060995,-0.503303,-0.153964,-0.848092,35.877041,-56.606789,151.993844
10656,NaN,8.451696,2.083861,3.945927,-0.590499,1.017676,-0.328007,0.589975,0.807080,-0.124582,-0.059434,-0.499965,-0.157094,-0.849602,35.908635,-56.188167,152.369275
10657,NaN,9.861139,1.596475,4.048879,-1.322545,1.900380,0.714515,0.971453,1.334561,-0.172195,-0.056777,-0.494448,-0.162066,-0.852075,35.934770,-55.508500,153.007295
10658,NaN,10.046078,1.785881,4.474034,-1.205463,1.920902,1.095249,1.481464,2.002028,-0.243928,-0.052545,-0.486109,-0.169607,-0.855670,35.997072,-54.495826,153.975058
10659,NaN,9.862293,2.184185,4.854000,-0.991815,1.675802,1.223524,1.952881,2.655968,-0.301182,-0.046919,-0.474955,-0.179390,-0.860253,36.094232,-53.161624,155.237751
10660,NaN,8.640834,2.476137,5.618595,0.059766,1.417212,0.691754,2.318103,3.067669,-0.366738,-0.040251,-0.461892,-0.190987,-0.865193,36.308424,-51.616939,156.651864
10661,NaN,7.568019,2.489223,6.163775,0.829265,1.460663,0.118699,2.613124,3.202469,-0.503731,-0.033421,-0.448003,-0.204078,-0.869786,36.762042,-49.968677,157.995706
10662,NaN,6.230827,2.909364,6.267592,1.495357,0.986592,-0.682956,2.868773,3.088689,-0.672250,-0.026782,-0.434266,-0.218598,-0.873448,37.537610,-48.323234,159.151757
10663,NaN,3.709083,3.847056,6.281921,3.012697,-0.220167,-2.138858,2.942731,2.609096,-0.872346,-0.021441,-0.422242,-0.233669,-0.875586,38.654817,-46.836017,159.919429
10664,NaN,1.367621,4.744350,6.491761,4.718198,-1.233151,-3.275582,2.820780,1.654223,-1.087842,-0.018336,-0.413970,-0.248525,-0.875516,40.157392,-45.705560,160.085382
10665,NaN,0.898521,5.002655,6.522678,5.064890,-1.310085,-3.409185,2.649528,0.514740,-1.243658,-0.017754,-0.410381,-0.262739,-0.873064,42.032253,-45.011466,159.581070
10666,NaN,2.103065,5.195913,5.758697,3.761523,-1.286343,-2.828783,2.514116,-0.298374,-1.381953,-0.019043,-0.410047,-0.276563,-0.868914,44.174312,-44.592403,158.594380
10667,NaN,3.338271,5.320886,4.946962,2.415492,-1.219293,-2.289236,2.484209,-0.630580,-1.550236,-0.021657,-0.410841,-0.290466,-0.863927,46.469720,-44.210129,157.345167
10668,NaN,4.885626,5.177736,3.704102,0.498401,-1.038964,-1.871275,2.473984,-0.415506,-1.684662,-0.024478,-0.410407,-0.304602,-0.859177,48.694869,-43.654891,156.190181
10669,NaN,6.962687,5.443383,3.062898,-1.290598,-0.732182,-0.577744,2.394718,0.416481,-1.708931,-0.026372,-0.406270,-0.318438,-0.856065,50.500820,-42.749237,155.553711
10670,NaN,5.993591,5.438528,3.517805,-0.389940,-0.558410,-1.014551,2.251193,1.295677,-1.733130,-0.027176,-0.398208,-0.331792,-0.854755,51.841320,-41.506693,155.487597
10671,NaN,4.906125,5.020795,4.417430,0.761640,0.128366,-1.554954,2.188192,1.948621,-1.774856,-0.027273,-0.387184,-0.344920,-0.854620,52.876706,-40.014144,155.819886
10672,NaN,4.334878,5.098532,5.340103,1.637869,0.637754,-1.433792,2.426626,2.306099,-1.853990,-0.026542,-0.374389,-0.359194,-0.854464,53.928601,-38.369887,156.365498
10673,NaN,3.425152,5.931951,5.864085,2.638796,0.312183,-1.196629,2.674051,2.305649,-1.977474,-0.025946,-0.361274,-0.374579,-0.853521,55.147019,-36.674816,156.878755
10674,NaN,2.825534,7.006956,6.237443,3.381088,-0.106377,-0.618573,2.642482,2.064280,-2.123982,-0.026394,-0.348753,-0.389950,-0.851830,56.458093,-34.999652,157.236245
10675,NaN,2.599326,8.392171,6.248995,3.697062,-0.796394,0.282826,2.477578,1.740716,-2.185775,-0.028097,-0.337349,-0.404502,-0.849579,57.777601,-33.399892,157.412705
10676,NaN,2.013319,9.369644,6.237833,4.199194,-1.313047,0.741244,2.110995,1.250593,-2.131123,-0.031085,-0.327971,-0.417248,-0.846979,59.015167,-31.980371,157.372468
10677,NaN,2.332649,9.897314,5.821523,3.678677,-1.542458,1.204045,1.610974,0.719885,-1.964902,-0.035377,-0.321046,-0.427397,-0.844399,60.075984,-30.793266,157.106704
10678,NaN,4.918780,9.879749,5.289104,1.184101,-0.788366,2.342499,1.213531,0.532446,-1.817437,-0.039992,-0.315100,-0.435566,-0.842256,60.924231,-29.732480,156.815697
10679,NaN,6.048558,9.657741,4.677695,-0.263343,-0.483536,2.492978,0.934884,0.677651,-1.720421,-0.044407,-0.308668,-0.442356,-0.840876,61.541148,-28.673364,156.648443
10680,NaN,6.556670,9.478773,4.160146,-1.165959,-0.394422,2.378469,0.744973,0.965217,-1.585174,-0.047816,-0.301245,-0.448187,-0.840294,61.945837,-27.607201,156.708701
10681,NaN,7.519513,8.867068,3.973928,-2.354183,0.301084,2.242315,0.559631,1.292810,-1.409600,-0.050118,-0.292774,-0.452980,-0.840584,62.131961,-26.538404,157.004480
10682,NaN,7.837369,7.950703,3.804934,-3.072276,0.914331,1.537925,0.564895,1.591804,-1.358048,-0.051422,-0.283123,-0.457774,-0.841213,62.247628,-25.420290,157.493591
10683,NaN,8.085764,7.698255,3.792303,-3.541915,1.206668,1.368470,0.690232,1.867539,-1.325355,-0.051862,-0.272398,-0.463032,-0.841850,62.374302,-24.243062,158.135030
10684,NaN,6.759438,7.587176,3.837220,-2.625550,0.918000,0.686800,0.740835,1.951574,-1.273608,-0.051725,-0.261397,-0.468415,-0.842368,62.520329,-23.074471,158.844497
10685,NaN,6.836905,7.430091,3.742657,-2.964232,1.022664,0.488797,0.827923,2.027012,-1.226064,-0.051174,-0.250192,-0.474024,-0.842666,62.707809,-21.909508,159.597121
10686,NaN,5.828436,7.718610,3.791437,-2.216906,0.640131,0.316209,0.864418,2.141975,-1.183737,-0.050034,-0.238552,-0.479712,-0.842891,62.905734,-20.740959,160.432003
10687,NaN,4.761074,7.896794,3.761238,-1.454000,0.253364,0.035789,0.788135,2.199719,-1.162515,-0.048831,-0.226685,-0.484961,-0.843233,63.062477,-19.568577,161.291991
10688,NaN,3.875501,8.262764,3.934299,-0.722001,-0.004137,0.099284,0.638574,2.194430,-1.078195,-0.047364,-0.214946,-0.489429,-0.843809,63.145981,-18.444412,162.178242
10689,NaN,3.719726,8.481531,4.156091,-0.646190,0.071663,0.317467,0.474372,2.207451,-1.031574,-0.045920,-0.203222,-0.493057,-0.844682,63.145880,-17.339461,163.069613
10690,NaN,3.387552,8.648134,4.273852,-0.470725,0.033723,0.400312,0.313982,2.265635,-1.095141,-0.044675,-0.190998,-0.496032,-0.845859,63.069959,-16.188235,163.978228
