// General information: 
//  MT Manager version: 2019.0.1 
//  XDA version: 2019.0.1 build 2740 rev 84096 built on 2019-01-30
// Device information: 
//  DeviceId: 00B4381A
//  ProductCode: MTW2-3A7G6
//  Firmware Version: 4.3.4
//  Hardware Version: 1.1.0
// Device settings: 
//  Filter Profile: human(46.1)
//  Option Flags: Orientation Smoother Disabled, AHS Disabled, ICC Disabled
// Coordinate system: ENU
PacketCounter,SampleTimeFine,Acc_X,Acc_Y,Acc_Z,FreeAcc_E,FreeAcc_N,FreeAcc_U,Gyr_X,Gyr_Y,Gyr_Z,Quat_q0,Quat_q1,Quat_q2,Quat_q3,Roll,Pitch,Yaw
17355,NaN,-2.522292,7.942737,5.170589,-0.006889,-0.179823,-0.006994,-0.056573,0.052768,-0.032956,0.253311,0.279232,-0.392225,-0.839061,56.148124,15.656823,-138.013863
17356,NaN,-2.624242,7.982781,5.179848,0.066171,-0.138554,0.057403,-0.053848,0.050070,-0.028612,0.253300,0.279450,-0.391940,-0.839124,56.127393,15.689896,-138.003452
17357,NaN,-2.635533,7.972769,5.223698,0.040904,-0.109012,0.075920,-0.044304,0.047990,-0.025735,0.253294,0.279671,-0.391692,-0.839168,56.111358,15.721106,-137.991782
17358,NaN,-2.736057,7.961519,5.324666,0.040600,0.008919,0.148343,-0.039553,0.051589,-0.022782,0.253290,0.279902,-0.391474,-0.839194,56.099552,15.751898,-137.978700
17359,NaN,-2.795045,7.887120,5.363415,0.038886,0.104178,0.125763,-0.033882,0.051281,-0.018190,0.253314,0.280138,-0.391275,-0.839201,56.090764,15.780496,-137.962039
17360,NaN,-2.839900,7.831047,5.392433,0.037302,0.175768,0.108823,-0.026735,0.039117,-0.018943,0.253284,0.280326,-0.391131,-0.839214,56.084983,15.805479,-137.953851
17361,NaN,-2.811397,7.786173,5.420216,-0.013089,0.193967,0.080209,-0.020097,0.025867,-0.012139,0.253261,0.280459,-0.391032,-0.839223,56.081175,15.823157,-137.948216
17362,NaN,-2.809815,7.822952,5.500381,-0.061914,0.211123,0.152222,-0.017973,0.014076,-0.012357,0.253197,0.280540,-0.390966,-0.839246,56.077641,15.837004,-137.950217
17363,NaN,-2.738632,7.836604,5.573794,-0.160058,0.193018,0.183150,-0.021795,0.006556,-0.013671,0.253124,0.280587,-0.390885,-0.839290,56.070008,15.849080,-137.955936
17364,NaN,-2.708365,7.730766,5.549134,-0.187298,0.218212,0.077216,-0.033780,0.008279,-0.009922,0.253081,0.280619,-0.390763,-0.839349,56.056853,15.859915,-137.959996
17365,NaN,-2.702616,7.678692,5.530276,-0.189147,0.230931,0.024044,-0.040963,0.003611,-0.017079,0.253015,0.280636,-0.390600,-0.839439,56.037532,15.872568,-137.968240
17366,NaN,-2.701713,7.701183,5.393309,-0.093220,0.143299,-0.031786,-0.041465,0.001554,-0.023947,0.252911,0.280658,-0.390435,-0.839540,56.017784,15.887911,-137.980298
17367,NaN,-2.614813,7.695744,5.266020,-0.071051,0.020352,-0.128307,-0.049344,0.006336,-0.029582,0.252823,0.280708,-0.390212,-0.839653,55.993111,15.907523,-137.989359
17368,NaN,-2.590347,7.663549,5.124400,-0.000381,-0.054928,-0.236867,-0.049763,0.012047,-0.027940,0.252735,0.280771,-0.389993,-0.839761,55.969653,15.928117,-137.997582
17369,NaN,-2.629201,7.782971,5.055365,0.097485,-0.138207,-0.168236,-0.036904,0.015226,-0.034229,0.252625,0.280882,-0.389804,-0.839844,55.952617,15.952858,-138.004115
17370,NaN,-2.660587,7.857405,5.037192,0.146165,-0.173986,-0.110152,-0.032896,0.012191,-0.026869,0.252518,0.280965,-0.389657,-0.839917,55.938931,15.972985,-138.011925
17371,NaN,-2.628923,7.906385,5.125904,0.073065,-0.180666,-0.032142,-0.029586,0.018134,-0.025198,0.252438,0.281078,-0.389509,-0.839972,55.927419,15.994225,-138.014509
17372,NaN,-2.635381,7.931240,5.174830,0.048223,-0.169069,0.015728,-0.024121,0.028863,-0.019426,0.252382,0.281227,-0.389389,-0.839995,55.921707,16.016169,-138.011611
17373,NaN,-2.731670,7.954207,5.280574,0.048527,-0.069258,0.117506,-0.019803,0.037954,-0.018434,0.252356,0.281421,-0.389268,-0.839993,55.919221,16.040418,-138.002210
17374,NaN,-2.779387,7.925329,5.356119,0.023318,0.013601,0.148393,-0.021242,0.040752,-0.012501,0.252348,0.281610,-0.389154,-0.839985,55.917424,16.062893,-137.991129
17375,NaN,-2.816697,7.941278,5.470039,-0.025415,0.083944,0.232775,-0.025772,0.043142,-0.005081,0.252396,0.281793,-0.389021,-0.839971,55.913439,16.082447,-137.974786
17376,NaN,-2.808378,7.875153,5.621380,-0.148368,0.190442,0.259385,-0.036384,0.051296,-0.004205,0.252465,0.281991,-0.388842,-0.839967,55.905186,16.104373,-137.955726
17377,NaN,-2.770375,7.874213,5.688234,-0.222338,0.196315,0.284156,-0.045767,0.051108,-0.012418,0.252534,0.282201,-0.388602,-0.839987,55.890388,16.130118,-137.936635
17378,NaN,-2.729840,7.841733,5.635199,-0.224326,0.155950,0.218545,-0.059656,0.069389,-0.016060,0.252621,0.282469,-0.388286,-0.840017,55.870199,16.163491,-137.912614
17379,NaN,-2.682246,7.702621,5.580090,-0.251920,0.169727,0.065062,-0.069987,0.090569,-0.007082,0.252803,0.282793,-0.387906,-0.840029,55.847070,16.199355,-137.875202
17380,NaN,-2.681359,7.645015,5.487854,-0.205484,0.147484,-0.030637,-0.072294,0.112617,-0.016386,0.252990,0.283226,-0.387481,-0.840022,55.825598,16.246809,-137.829964
17381,NaN,-2.820655,7.693164,5.462934,-0.083503,0.188570,0.033224,-0.072767,0.110541,-0.023225,0.253142,0.283659,-0.387042,-0.840033,55.802019,16.296728,-137.788767
17382,NaN,-2.926011,7.788343,5.451852,0.014452,0.187879,0.132513,-0.067214,0.094971,-0.032068,0.253222,0.284055,-0.386639,-0.840061,55.779600,16.345962,-137.757522
17383,NaN,-2.848041,7.869449,5.426138,-0.010528,0.069397,0.161159,-0.070358,0.087020,-0.035494,0.253290,0.284425,-0.386219,-0.840108,55.753443,16.394201,-137.729704
17384,NaN,-2.782886,7.871907,5.356077,-0.012322,-0.018509,0.106911,-0.076806,0.089652,-0.036211,0.253355,0.284794,-0.385776,-0.840167,55.724434,16.443709,-137.702508
17385,NaN,-2.727482,7.776614,5.339861,-0.063550,-0.017198,0.006918,-0.075133,0.092361,-0.038930,0.253431,0.285191,-0.385321,-0.840218,55.695940,16.495497,-137.672331
17386,NaN,-2.742846,7.821057,5.365084,-0.063933,-0.029283,0.060068,-0.069533,0.084545,-0.039250,0.253464,0.285554,-0.384910,-0.840274,55.670127,16.544820,-137.648716
17387,NaN,-2.746088,7.790017,5.320464,-0.041185,-0.040326,0.012249,-0.063297,0.076563,-0.038060,0.253487,0.285891,-0.384531,-0.840326,55.646452,16.590924,-137.627468
17388,NaN,-2.722334,7.798962,5.331096,-0.066616,-0.063749,0.018233,-0.063929,0.076712,-0.039553,0.253494,0.286229,-0.384152,-0.840381,55.622743,16.637875,-137.607853
17389,NaN,-2.834356,7.776707,5.472022,-0.090917,0.083547,0.108931,-0.056567,0.078705,-0.044885,0.253502,0.286608,-0.383780,-0.840420,55.602420,16.688240,-137.585226
17390,NaN,-3.057843,7.985856,5.649828,-0.014557,0.186984,0.434735,-0.060657,0.075750,-0.062607,0.253406,0.286989,-0.383383,-0.840500,55.578234,16.745792,-137.573908
17391,NaN,-3.207547,8.181528,5.854373,-0.011662,0.260973,0.743410,-0.080551,0.075466,-0.085718,0.253259,0.287395,-0.382862,-0.840643,55.539900,16.814094,-137.568311
17392,NaN,-2.651305,8.067023,5.706145,-0.334506,-0.119951,0.411796,-0.067402,0.100687,-0.114852,0.253001,0.287973,-0.382330,-0.840765,55.510294,16.904423,-137.562450
17393,NaN,-1.921287,7.867039,5.383637,-0.684442,-0.652602,-0.134320,-0.058339,0.187343,-0.168919,0.252684,0.289036,-0.381639,-0.840810,55.492463,17.048415,-137.530071
17394,NaN,-2.250098,7.859144,4.980321,-0.198892,-0.657046,-0.264843,-0.071725,0.280218,-0.210949,0.252370,0.290545,-0.380722,-0.840799,55.476915,17.242400,-137.468218
17395,NaN,-2.801558,8.010438,4.914425,0.242695,-0.446426,-0.019367,-0.086857,0.313094,-0.210910,0.252159,0.292179,-0.379691,-0.840763,55.457467,17.446837,-137.387668
17396,NaN,-2.538353,7.906084,4.482906,0.309758,-0.791438,-0.414632,-0.082952,0.308895,-0.187051,0.252015,0.293747,-0.378723,-0.840696,55.442632,17.638899,-137.303467
17397,NaN,-2.337978,7.752528,4.248222,0.280438,-0.965601,-0.724005,-0.061996,0.284524,-0.143075,0.251985,0.295155,-0.377932,-0.840568,55.440433,17.802016,-137.215653
17398,NaN,-2.878876,7.700736,4.225332,0.647218,-0.611589,-0.612159,-0.032147,0.215961,-0.122356,0.251860,0.296273,-0.377388,-0.840456,55.447844,17.933356,-137.155305
17399,NaN,-3.461029,7.864357,4.378779,0.968664,-0.266403,-0.221480,0.012124,0.027243,-0.100035,0.251407,0.296603,-0.377301,-0.840515,55.453804,17.992145,-137.181624
17400,NaN,-3.860032,8.069909,4.622017,1.119267,-0.016085,0.193975,0.029228,-0.228358,-0.097484,0.250457,0.295884,-0.377610,-0.840913,55.431086,17.967346,-137.333166
17401,NaN,-3.749936,8.150651,4.624170,1.069667,-0.134565,0.223036,0.032276,-0.478616,-0.095552,0.249037,0.294104,-0.378247,-0.841672,55.371928,17.859458,-137.608612
17402,NaN,-3.605771,8.071260,4.462338,1.090521,-0.256744,0.026216,0.042510,-0.760814,-0.085292,0.247109,0.291134,-0.379289,-0.842804,55.278380,17.655055,-138.019180
17403,NaN,-3.878283,7.954551,4.390065,1.357818,-0.043205,-0.027864,0.043585,-1.189381,-0.064104,0.244443,0.286300,-0.380892,-0.844513,55.126228,17.298779,-138.634379
17404,NaN,-4.112124,7.809765,4.382869,1.576197,0.194049,-0.087009,0.068449,-1.657184,-0.113000,0.240638,0.279611,-0.383076,-0.846855,54.921243,16.810916,-139.491941
17405,NaN,-3.973072,8.272281,4.386680,1.651390,-0.158366,0.222550,0.104073,-1.908520,-0.218992,0.235829,0.272071,-0.385540,-0.849542,54.699932,16.285756,-140.505753
17406,NaN,-5.084231,8.972866,5.449649,2.034080,0.661516,1.653953,0.021315,-2.038780,-0.297033,0.230531,0.264013,-0.387655,-0.852570,54.416535,15.750363,-141.603501
17407,NaN,-5.605902,8.847395,6.278960,2.039795,1.480227,2.136079,-0.097274,-2.395767,-0.309181,0.224624,0.254291,-0.389618,-0.856200,54.032063,15.094516,-142.870025
17408,NaN,-3.791109,8.504368,6.930910,0.373110,0.984750,1.746811,-0.174117,-2.691768,-0.294011,0.218259,0.243140,-0.391532,-0.860203,53.585474,14.323027,-144.264682
17409,NaN,-2.695839,8.496296,7.925018,-0.870324,0.955521,2.044215,-0.303116,-2.718295,-0.314365,0.211880,0.231744,-0.392821,-0.864346,53.081982,13.541679,-145.665500
17410,NaN,-2.331602,8.640720,8.824820,-1.426294,1.218369,2.615210,-0.445012,-2.624257,-0.320608,0.205774,0.220559,-0.393318,-0.868511,52.527103,12.782194,-147.014564
17411,NaN,-1.739910,8.532455,9.297955,-1.964680,1.266564,2.709839,-0.604668,-2.393974,-0.320677,0.200290,0.210232,-0.392809,-0.872575,51.924669,12.095043,-148.238569
17412,NaN,-1.663431,8.121480,8.689754,-1.582559,1.107347,2.040734,-0.716907,-2.029306,-0.327611,0.195555,0.201308,-0.391395,-0.876381,51.305255,11.523284,-149.293769
17413,NaN,-2.074819,7.824629,7.636331,-0.591240,0.822934,1.269478,-0.783272,-1.707935,-0.312446,0.191561,0.193675,-0.389345,-0.879889,50.687793,11.049590,-150.189409
17414,NaN,-1.994313,7.225775,6.672446,-0.164466,0.519034,0.207929,-0.808596,-1.448046,-0.239773,0.188403,0.187006,-0.386979,-0.883052,50.091695,10.629446,-150.934451
17415,NaN,-1.532915,6.617207,6.364271,-0.417141,0.444506,-0.524602,-0.811623,-1.229617,-0.143360,0.186083,0.181099,-0.384454,-0.885873,49.523403,10.240480,-151.540917
17416,NaN,-0.957617,6.290352,6.801289,-1.077327,0.607581,-0.581639,-0.834726,-1.113942,-0.044941,0.184434,0.175485,-0.381794,-0.888494,48.962955,9.846197,-152.054096
17417,NaN,-0.459418,6.332617,7.544732,-1.732389,0.765896,-0.135545,-0.879161,-1.053018,0.050126,0.183352,0.169909,-0.378940,-0.891020,48.391144,9.429065,-152.499853
17418,NaN,-1.007493,6.472400,8.175092,-1.383664,1.269025,0.493261,-0.899263,-1.086909,0.120294,0.182528,0.164025,-0.376075,-0.893502,47.814789,8.964679,-152.927975
17419,NaN,-0.684848,6.262335,8.134511,-1.557576,1.195357,0.286786,-0.906965,-1.249494,0.178115,0.181653,0.157287,-0.373344,-0.896034,47.230621,8.408615,-153.397870
17420,NaN,-0.035046,5.774245,7.517606,-1.836299,0.820130,-0.549255,-0.892666,-1.373439,0.245112,0.180824,0.149875,-0.370825,-0.898515,46.657632,7.771439,-153.887008
17421,NaN,-0.606142,5.624631,7.238861,-1.105870,0.974170,-0.744545,-0.873260,-1.479959,0.268535,0.179874,0.141943,-0.368474,-0.900958,46.096785,7.077528,-154.404510
17422,NaN,-0.914510,5.373182,6.941867,-0.621090,1.071060,-1.074152,-0.843457,-1.669309,0.286751,0.178623,0.133144,-0.366416,-0.903386,45.553214,6.295771,-154.985149
17423,NaN,-0.408655,4.827907,6.460009,-0.873598,0.913801,-1.837257,-0.779077,-1.755708,0.269354,0.177075,0.124028,-0.364674,-0.905690,45.050011,5.480851,-155.600412
17424,NaN,0.059560,4.593897,6.110621,-1.099004,0.658844,-2.275841,-0.665963,-1.596794,0.233145,0.175568,0.115791,-0.363258,-0.907641,44.626057,4.740395,-156.158253
17425,NaN,-0.075739,4.742076,6.175427,-0.853767,0.651084,-2.100669,-0.567400,-1.342419,0.176822,0.174198,0.108886,-0.362001,-0.909260,44.270642,4.122580,-156.631509
17426,NaN,-0.417015,4.777868,6.248488,-0.462123,0.803304,-1.990539,-0.464655,-1.203209,0.103141,0.172682,0.102835,-0.361041,-0.910634,43.981880,3.589013,-157.075357
17427,NaN,-0.460943,4.733801,5.913825,-0.245953,0.639582,-2.254604,-0.361880,-1.136620,0.048086,0.170976,0.097267,-0.360441,-0.911805,43.755196,3.102550,-157.513126
17428,NaN,-0.299440,4.665350,5.691136,-0.273515,0.488341,-2.468947,-0.246950,-1.108853,0.028134,0.169167,0.091961,-0.360328,-0.912737,43.599353,2.634308,-157.946066
17429,NaN,-0.091536,4.775949,5.767936,-0.395364,0.393677,-2.344389,-0.136252,-1.127500,0.032898,0.167290,0.086647,-0.360717,-0.913449,43.509190,2.155224,-158.383489
17430,NaN,-0.002179,5.140578,5.927238,-0.369007,0.231362,-1.978940,-0.033916,-1.143205,0.035268,0.165346,0.081345,-0.361585,-0.913948,43.482335,1.668523,-158.825229
17431,NaN,0.042043,5.504523,6.249488,-0.341012,0.198254,-1.493940,0.040681,-1.158294,0.063379,0.163467,0.075977,-0.362797,-0.914267,43.501031,1.164112,-159.261339
17432,NaN,-0.002404,5.840091,6.431311,-0.192298,0.136208,-1.128662,0.107459,-1.215932,0.114129,0.161684,0.070310,-0.364376,-0.914410,43.563115,0.616360,-159.699136
17433,NaN,-0.070054,6.239996,6.799951,-0.041565,0.167342,-0.584943,0.159178,-1.282765,0.147482,0.159908,0.064311,-0.366234,-0.914421,43.657941,0.027954,-160.150447
17434,NaN,0.223843,6.758025,7.247008,-0.207913,0.057008,0.096536,0.197228,-1.285532,0.173518,0.158226,0.058284,-0.368269,-0.914300,43.780358,-0.570705,-160.592950
17435,NaN,0.299906,7.325879,7.607904,-0.130357,-0.060221,0.752212,0.211503,-1.200927,0.162122,0.156637,0.052669,-0.370276,-0.914104,43.913861,-1.129253,-161.008167
17436,NaN,0.138502,7.619138,7.687457,0.163729,-0.098100,1.009984,0.193455,-1.104634,0.146785,0.155156,0.047512,-0.372116,-0.913892,44.041310,-1.640688,-161.392526
17437,NaN,0.477804,7.545085,7.482386,-0.059068,-0.242552,0.821212,0.187553,-0.961789,0.104473,0.153745,0.043074,-0.373790,-0.913667,44.166171,-2.076011,-161.738719
17438,NaN,1.720722,7.501189,6.814505,-1.068649,-1.002433,0.361743,0.242569,-0.642319,0.057722,0.152702,0.040231,-0.375461,-0.913287,44.321702,-2.360290,-161.977259
17439,NaN,1.291124,7.646372,6.457279,-0.534523,-1.168718,0.196246,0.241919,-0.253803,0.039171,0.152303,0.039190,-0.376817,-0.912840,44.470367,-2.477869,-162.068504
17440,NaN,0.710515,7.798257,6.239650,0.098552,-1.211857,0.125750,0.211240,-0.025948,0.024416,0.152272,0.039198,-0.377865,-0.912412,44.598963,-2.495813,-162.074231
17441,NaN,-0.402512,8.377191,6.858187,1.180554,-0.820019,0.925465,0.111805,0.036106,0.025484,0.152382,0.039407,-0.378404,-0.912161,44.668444,-2.489331,-162.054747
17442,NaN,-1.005829,8.606800,7.780822,1.653402,-0.152217,1.714362,-0.039255,-0.348904,0.106189,0.152161,0.037597,-0.378570,-0.912205,44.657889,-2.671806,-162.157361
17443,NaN,0.222412,8.541230,7.846846,0.503922,-0.435350,1.768820,-0.152041,-0.623759,0.091699,0.151374,0.034470,-0.378418,-0.912523,44.587878,-2.960999,-162.376702
17444,NaN,0.910905,7.725005,7.629979,-0.258269,-0.247228,1.077395,-0.251363,-0.604615,0.122690,0.150780,0.031301,-0.377807,-0.912988,44.461927,-3.254806,-162.575060
17445,NaN,0.737309,7.477566,7.577855,-0.088849,-0.073852,0.858202,-0.295667,-0.549818,0.102841,0.150205,0.028381,-0.376938,-0.913538,44.309744,-3.519095,-162.759053
17446,NaN,0.746949,7.383761,7.410184,-0.042701,-0.142696,0.673793,-0.329355,-0.459346,0.090742,0.149748,0.025877,-0.375849,-0.914135,44.137971,-3.741525,-162.910943
17447,NaN,-0.122674,6.999575,7.264519,0.761340,0.253230,0.244068,-0.334806,-0.506624,0.086902,0.149184,0.023154,-0.374761,-0.914747,43.964080,-3.982753,-163.082810
17448,NaN,0.648733,6.668540,6.765254,0.070804,-0.099169,-0.291983,-0.280574,-0.666506,0.111483,0.148425,0.019700,-0.374045,-0.915245,43.826860,-4.299820,-163.307436
17449,NaN,1.688678,6.346296,6.020337,-0.841818,-0.686265,-0.970079,-0.210307,-0.695964,0.127649,0.147676,0.016127,-0.373662,-0.915592,43.730592,-4.636322,-163.536645
17450,NaN,1.768379,6.316920,5.460944,-0.799076,-1.061766,-1.381406,-0.128309,-0.677646,0.146667,0.147040,0.012668,-0.373644,-0.915756,43.682281,-4.972668,-163.750226
17451,NaN,1.090076,6.571927,5.508856,-0.041357,-1.001415,-1.226582,-0.091569,-0.768052,0.178991,0.146379,0.008756,-0.373852,-0.915823,43.657486,-5.359852,-163.986307
17452,NaN,0.129046,6.972384,6.369084,0.944025,-0.407641,-0.424502,-0.107294,-1.132411,0.215113,0.145199,0.003101,-0.374253,-0.915883,43.639244,-5.912024,-164.352034
17453,NaN,0.343249,7.714606,7.089851,0.950505,-0.454551,0.617450,-0.097154,-1.467561,0.137165,0.143028,-0.003940,-0.374920,-0.915949,43.647895,-6.572805,-164.884065
17454,NaN,0.992039,7.536286,6.623059,0.431978,-0.797033,0.228325,-0.098739,-1.463201,0.053843,0.140476,-0.010801,-0.375564,-0.916025,43.666471,-7.198257,-165.449879
17455,NaN,1.089712,7.089670,6.676029,0.309612,-0.456111,-0.029252,-0.105976,-1.388308,0.028887,0.137943,-0.017281,-0.376098,-0.916091,43.683632,-7.783049,-165.997279
17456,NaN,0.937793,7.373474,6.914877,0.604404,-0.423323,0.312424,-0.096513,-1.334604,0.000696,0.135376,-0.023450,-0.376630,-0.916119,43.711154,-8.333797,-166.535883
17457,NaN,0.795177,7.465207,7.044638,0.849306,-0.341691,0.441566,-0.105579,-1.351989,-0.006701,0.132736,-0.029695,-0.377110,-0.916126,43.739541,-8.888974,-167.085656
17458,NaN,1.867136,7.385251,6.832453,-0.106028,-0.647544,0.399037,-0.079312,-1.311362,-0.019241,0.130112,-0.035706,-0.377674,-0.916056,43.787309,-9.421589,-167.625492
17459,NaN,1.235914,7.493402,7.178587,0.605018,-0.320798,0.615211,-0.117104,-1.250472,-0.024268,0.127569,-0.041457,-0.378005,-0.916035,43.813977,-9.927100,-168.144164
17460,NaN,0.313656,7.593126,7.303690,1.606718,-0.101396,0.603899,-0.154002,-1.359952,-0.088907,0.124509,-0.047604,-0.378239,-0.916060,43.837594,-10.451580,-168.735098
17461,NaN,0.833572,7.176774,6.856638,1.089074,-0.224230,0.085664,-0.186286,-1.437458,-0.113563,0.121176,-0.054081,-0.378355,-0.916100,43.855457,-10.998464,-169.368956
17462,NaN,1.181809,7.002945,6.995654,0.796795,-0.061235,0.124003,-0.215089,-1.415522,-0.165837,0.117631,-0.060370,-0.378326,-0.916181,43.866078,-11.515005,-170.017204
17463,NaN,1.486620,7.155368,7.116011,0.626403,-0.125167,0.367608,-0.236267,-1.284457,-0.227367,0.114040,-0.065954,-0.378117,-0.916336,43.863915,-11.953263,-170.639410
17464,NaN,2.372607,6.904148,6.871070,-0.230806,-0.258991,0.206663,-0.263548,-1.179917,-0.205525,0.110732,-0.071111,-0.377707,-0.916526,43.840539,-12.356796,-171.210796
17465,NaN,3.508329,6.537672,6.426077,-1.382500,-0.478798,-0.106854,-0.246255,-0.961403,-0.176107,0.107976,-0.075313,-0.377227,-0.916716,43.808175,-12.682282,-171.681515
17466,NaN,3.626683,6.504134,6.496321,-1.455530,-0.411983,-0.046914,-0.236526,-0.717688,-0.119604,0.105939,-0.078495,-0.376637,-0.916930,43.757094,-12.929348,-172.029466
17467,NaN,3.031896,7.025387,7.116195,-0.669531,-0.253541,0.612091,-0.250295,-0.600582,-0.074047,0.104325,-0.081236,-0.375894,-0.917181,43.683799,-13.146753,-172.310527
17468,NaN,2.502511,7.180041,7.427650,-0.057262,-0.079864,0.816316,-0.280262,-0.561949,-0.042944,0.102912,-0.083869,-0.374982,-0.917477,43.588313,-13.360416,-172.562538
17469,NaN,2.403273,7.099278,7.528343,0.065155,0.044967,0.810165,-0.320256,-0.488207,-0.037632,0.101645,-0.086197,-0.373838,-0.917869,43.462636,-13.546458,-172.782175
17470,NaN,2.681578,7.018310,7.346278,-0.205721,-0.081310,0.692849,-0.347656,-0.360879,-0.021771,0.100676,-0.087981,-0.372498,-0.918351,43.308646,-13.685800,-172.943110
17471,NaN,2.305046,7.005386,7.389447,0.184421,-0.023450,0.625603,-0.380539,-0.298883,-0.020252,0.099815,-0.089502,-0.370969,-0.918917,43.129393,-13.800756,-173.078047
17472,NaN,2.170796,6.953455,7.173600,0.303575,-0.152390,0.405332,-0.393922,-0.267462,-0.041118,0.098909,-0.090842,-0.369375,-0.919526,42.942347,-13.894362,-173.208986
17473,NaN,2.884720,6.630237,7.140441,-0.453505,-0.062029,0.339057,-0.419584,-0.117636,-0.047620,0.098238,-0.091498,-0.367585,-0.920249,42.726308,-13.923368,-173.282330
17474,NaN,2.450768,6.759842,7.720102,0.063439,0.259698,0.733880,-0.450622,-0.124698,-0.034193,0.097601,-0.092222,-0.365652,-0.921015,42.492351,-13.960402,-173.352534
17475,NaN,3.292777,7.050086,7.661848,-0.670523,-0.125076,1.086146,-0.467922,-0.076315,0.000703,0.097205,-0.092799,-0.363593,-0.921813,42.239582,-13.991164,-173.388137
17476,NaN,2.847344,6.893711,7.580032,-0.281580,-0.066553,0.817627,-0.478605,0.071617,0.031689,0.097214,-0.092751,-0.361402,-0.922678,41.963810,-13.970652,-173.351435
17477,NaN,2.905768,6.481272,7.432656,-0.453911,0.073527,0.457809,-0.461992,0.147042,0.071734,0.097553,-0.092423,-0.359225,-0.923525,41.685620,-13.933536,-173.267563
17478,NaN,2.580651,6.214256,6.591819,-0.291551,-0.314677,-0.402871,-0.413720,0.171890,0.116770,0.098165,-0.092033,-0.357241,-0.924269,41.428631,-13.902033,-173.154228
17479,NaN,2.584929,5.942392,5.482255,-0.473222,-0.907323,-1.386435,-0.331036,0.191062,0.151601,0.099010,-0.091579,-0.355607,-0.924853,41.213041,-13.875491,-173.018174
17480,NaN,2.461877,6.154112,5.721085,-0.276961,-0.914364,-1.109130,-0.255467,0.189077,0.171020,0.099976,-0.091128,-0.354319,-0.925289,41.039511,-13.856188,-172.874324
17481,NaN,3.062002,6.387306,6.372815,-0.735727,-0.745464,-0.342249,-0.206684,0.340623,0.192305,0.101331,-0.089993,-0.353165,-0.925693,40.877285,-13.779405,-172.662526
17482,NaN,3.013196,6.614660,6.727837,-0.611732,-0.698657,0.048063,-0.187639,0.533470,0.196916,0.103055,-0.087958,-0.352001,-0.926142,40.708911,-13.619596,-172.374643
17483,NaN,2.010292,6.557345,7.070316,0.342923,-0.332238,0.026074,-0.194073,0.709085,0.181150,0.105011,-0.085090,-0.350716,-0.926677,40.523444,-13.377204,-172.027286
17484,NaN,1.329575,6.214891,7.170124,0.881081,0.044133,-0.271994,-0.187962,0.781796,0.163228,0.107013,-0.081844,-0.349427,-0.927227,40.339268,-13.094812,-171.661304
17485,NaN,0.501124,6.005783,6.807691,1.561208,0.046559,-0.855816,-0.170631,0.667989,0.185752,0.108926,-0.079160,-0.348262,-0.927676,40.173850,-12.869939,-171.329799
17486,NaN,1.669389,5.849970,6.768614,0.364125,-0.060667,-0.719461,-0.150736,0.606862,0.222040,0.110907,-0.076805,-0.347207,-0.928034,40.023178,-12.683857,-171.005949
17487,NaN,1.583598,5.765322,6.942918,0.414245,0.105772,-0.660203,-0.131364,0.526235,0.258519,0.112925,-0.074881,-0.346266,-0.928300,39.887229,-12.546261,-170.696829
17488,NaN,1.520171,6.096980,7.156185,0.561015,-0.007321,-0.305836,-0.110704,0.396690,0.277454,0.114812,-0.073574,-0.345488,-0.928463,39.772943,-12.471515,-170.428245
17489,NaN,1.746735,6.243883,7.048118,0.363445,-0.241322,-0.245935,-0.088817,0.457521,0.241644,0.116646,-0.071914,-0.344784,-0.928626,39.669783,-12.356760,-170.153314
17490,NaN,1.687694,6.043662,7.435446,0.367096,0.150558,-0.091448,-0.088997,0.573959,0.236478,0.118655,-0.069700,-0.344014,-0.928826,39.558977,-12.187814,-169.837497
17491,NaN,1.434871,6.418872,8.016838,0.712602,0.278293,0.528739,-0.100008,0.528854,0.197630,0.120402,-0.067639,-0.343227,-0.929045,39.449612,-12.024440,-169.556641
17492,NaN,1.133331,6.351891,8.651677,0.986859,0.774220,0.906877,-0.142440,0.431601,0.165879,0.121818,-0.065996,-0.342313,-0.929315,39.327681,-11.891648,-169.326742
17493,NaN,1.450156,6.398516,9.181680,0.697817,1.002751,1.405809,-0.198944,0.288856,0.137458,0.122840,-0.065005,-0.341227,-0.929650,39.186894,-11.811695,-169.163042
17494,NaN,2.107510,6.134861,8.712396,-0.039495,0.738842,1.024119,-0.250144,0.376855,0.119357,0.123910,-0.063602,-0.339858,-0.930106,39.012669,-11.685303,-168.975341
17495,NaN,2.126079,6.105579,8.704580,-0.089210,0.711082,1.006471,-0.303057,0.487993,0.110621,0.125111,-0.061702,-0.338170,-0.930689,38.800786,-11.505896,-168.751346
17496,NaN,2.431341,5.990999,8.259424,-0.460541,0.402303,0.658573,-0.319577,0.633240,0.101583,0.126509,-0.059118,-0.336318,-0.931338,38.571306,-11.257149,-168.479275
17497,NaN,2.013316,6.199547,7.887780,-0.050524,0.038679,0.419636,-0.344722,0.731479,0.116322,0.128131,-0.056120,-0.334272,-0.932038,38.320186,-10.968753,-168.166135
17498,NaN,2.291351,6.177473,7.740085,-0.370703,-0.152330,0.344047,-0.375722,0.833219,0.132979,0.129990,-0.052691,-0.332011,-0.932789,38.045533,-10.638729,-167.810333
17499,NaN,2.508793,6.062984,7.326653,-0.668558,-0.438343,-0.009940,-0.385064,1.047534,0.134119,0.132205,-0.048272,-0.329554,-0.933588,37.753685,-10.210790,-167.379445
17500,NaN,1.393464,5.845786,6.858143,0.280367,-0.392837,-0.706890,-0.351178,1.169250,0.139635,0.134649,-0.043267,-0.327166,-0.934323,37.477747,-9.727140,-166.905544
17501,NaN,2.138020,5.725623,6.339335,-0.531861,-0.851775,-1.064437,-0.280340,1.417656,0.137554,0.137499,-0.037052,-0.324923,-0.934958,37.232576,-9.127822,-166.348110
17502,NaN,2.417956,5.808909,6.683190,-0.872646,-0.835328,-0.713552,-0.208278,1.856064,0.152104,0.141133,-0.028756,-0.322695,-0.935480,37.012186,-8.330706,-165.634088
17503,NaN,-0.058517,6.469622,9.550203,1.449081,0.956133,1.591223,-0.281825,1.933230,0.156843,0.144890,-0.020159,-0.320034,-0.936044,36.755870,-7.497268,-164.895999
17504,NaN,-0.492856,6.187377,10.676379,1.582559,1.886236,2.288859,-0.410621,1.441335,0.231208,0.148184,-0.014071,-0.317099,-0.936638,36.452925,-6.911591,-164.298066
17505,NaN,0.433476,6.515162,11.022953,0.677404,1.517972,2.890728,-0.458858,0.869434,0.239047,0.150599,-0.010712,-0.314344,-0.937226,36.149448,-6.589756,-163.895594
17506,NaN,1.693314,5.026755,6.921341,-0.699609,-0.204980,-1.123121,-0.458736,1.019754,0.282879,0.153451,-0.006715,-0.311469,-0.937761,35.841321,-6.210638,-163.423708
17507,NaN,-1.497524,5.629823,8.266706,2.368050,0.974039,-0.029069,-0.467861,0.740411,0.253919,0.155728,-0.003991,-0.308754,-0.938299,35.541614,-5.949560,-163.061649
17508,NaN,1.794684,5.791890,8.571978,-0.764797,0.018840,0.659183,-0.478957,0.479000,0.259212,0.157623,-0.002508,-0.306189,-0.938827,35.246243,-5.810258,-162.785763
17509,NaN,0.516967,6.847644,8.351911,0.767501,-0.599343,0.955937,-0.474570,0.656195,0.205178,0.159533,-0.000110,-0.303497,-0.939382,34.950473,-5.568832,-162.477527
17510,NaN,0.063807,5.955322,8.387328,0.894877,0.175637,0.433535,-0.491380,0.789716,0.151925,0.161393,0.002986,-0.300618,-0.939985,34.645570,-5.245412,-162.151988
17511,NaN,-0.637934,6.409497,10.743013,1.402086,1.287649,2.567773,-0.638849,0.896207,0.009480,0.162742,0.006675,-0.296946,-0.940900,34.260770,-4.823672,-161.861544
17512,NaN,2.464075,7.166045,10.614671,-1.373858,-0.451371,3.148847,-0.720356,1.228721,-0.049894,0.164301,0.011952,-0.292611,-0.941935,33.826487,-4.222856,-161.495604
17513,NaN,3.026312,6.425536,8.961492,-2.047296,-1.114680,1.381802,-0.758646,1.930982,-0.026152,0.166988,0.020468,-0.287492,-0.942891,33.359499,-3.291637,-160.900355
17514,NaN,0.543188,6.063379,9.157623,0.013216,-0.075663,1.183296,-0.792419,2.192233,-0.009113,0.170115,0.030161,-0.281968,-0.943740,32.880128,-2.235416,-160.223305
17515,NaN,0.344884,6.028889,8.761626,0.081646,-0.342370,0.822353,-0.760119,2.466499,-0.037224,0.173465,0.041209,-0.276311,-0.944385,32.430230,-1.032887,-159.484188
17516,NaN,1.185284,5.740865,7.643515,-0.786076,-1.139208,-0.280411,-0.729782,3.134741,-0.085369,0.177468,0.055498,-0.270155,-0.944691,32.015253,0.513954,-158.573572
17517,NaN,0.762952,4.773461,7.075869,-0.784956,-0.666555,-1.305696,-0.690550,3.742675,-0.121642,0.182055,0.072723,-0.263546,-0.944516,31.653177,2.373688,-157.507210
17518,NaN,-1.311751,4.299601,7.415032,0.668402,0.508792,-1.182665,-0.649019,3.741699,-0.184329,0.186263,0.090040,-0.257021,-0.944002,31.347949,4.258042,-156.481108
17519,NaN,-0.127080,4.336807,7.713146,-0.728972,-0.007284,-0.993486,-0.562495,3.567143,-0.198743,0.190076,0.106599,-0.250967,-0.943145,31.118812,6.065771,-155.520703
17520,NaN,-0.131157,4.637127,7.736441,-0.880007,-0.395095,-0.844120,-0.525698,3.570122,-0.202022,0.193796,0.123178,-0.245005,-0.941936,30.941036,7.879456,-154.564112
17521,NaN,-1.190564,4.885917,7.386230,0.022132,-0.440191,-0.888251,-0.517446,3.505652,-0.207042,0.197346,0.139426,-0.239059,-0.940460,30.793709,9.665431,-153.630452
17522,NaN,-1.319266,5.059525,7.233387,0.018107,-0.723657,-0.917091,-0.519124,3.359545,-0.197642,0.200707,0.154935,-0.233188,-0.938795,30.667133,11.379056,-152.734858
17523,NaN,-0.790766,5.203149,7.456698,-0.695000,-1.134704,-0.783594,-0.513835,3.227332,-0.164407,0.204010,0.169744,-0.227431,-0.936932,30.564303,13.019389,-151.860437
17524,NaN,-1.586985,4.846776,7.282307,-0.251329,-0.677688,-0.951845,-0.465361,3.177487,-0.094474,0.207490,0.184248,-0.221955,-0.934739,30.519656,14.616022,-150.961625
17525,NaN,-2.246523,4.703758,6.990519,0.189605,-0.469545,-1.107583,-0.403845,3.103188,-0.055987,0.210957,0.198376,-0.216821,-0.932273,30.534466,16.164824,-150.059795
17526,NaN,-1.802823,4.700251,6.676758,-0.232273,-0.891322,-1.501909,-0.348209,3.252788,-0.036774,0.214569,0.213192,-0.211755,-0.929338,30.624386,17.781219,-149.093450
17527,NaN,-2.227687,4.525761,6.944078,-0.277181,-0.575635,-1.253959,-0.317915,3.491550,-0.019574,0.218418,0.229068,-0.206529,-0.925834,30.788536,19.507972,-148.031868
17528,NaN,-2.173700,4.242539,6.632313,-0.474297,-0.579800,-1.679741,-0.273787,3.770901,-0.044449,0.222318,0.246237,-0.201108,-0.921682,31.042491,21.375885,-146.876675
17529,NaN,-2.655018,4.090117,6.729259,-0.446671,-0.312670,-1.520734,-0.250610,4.109060,-0.063369,0.226354,0.264910,-0.195313,-0.916755,31.393359,23.409194,-145.597076
17530,NaN,-2.791825,4.197803,6.953024,-0.716537,-0.420469,-1.265115,-0.247384,4.403040,-0.123669,0.230296,0.284876,-0.189035,-0.911085,31.831618,25.596085,-144.216486
17531,NaN,-2.012926,4.506198,7.307670,-1.703397,-1.183060,-1.242559,-0.278898,4.813817,-0.179056,0.234294,0.306573,-0.181957,-0.904440,32.372082,27.988232,-142.678699
17532,NaN,-2.469781,4.510811,7.458459,-1.800387,-1.121231,-1.005716,-0.334710,5.255257,-0.194598,0.238560,0.330022,-0.173974,-0.896609,33.044526,30.583626,-140.927408
17533,NaN,-3.648879,4.568393,7.141908,-1.136758,-0.796728,-0.688618,-0.387224,5.417957,-0.159995,0.243038,0.353868,-0.165492,-0.887875,33.843531,33.225807,-139.009536
17534,NaN,-4.333408,4.652481,6.822385,-0.818927,-0.740865,-0.553383,-0.437730,5.280173,-0.066649,0.247732,0.376714,-0.157001,-0.878673,34.745722,35.748483,-136.986698
17535,NaN,-4.813216,4.606491,6.543607,-0.696194,-0.659231,-0.524341,-0.480089,5.013781,0.041950,0.252608,0.397996,-0.148752,-0.869288,35.733263,38.082430,-134.896716
17536,NaN,-5.076627,4.301714,6.051543,-0.597191,-0.466006,-0.850886,-0.518328,4.695987,0.143659,0.257616,0.417541,-0.140854,-0.859915,36.788624,40.205236,-132.766476
17537,NaN,-5.214068,4.549546,5.848843,-0.577050,-0.756182,-0.802641,-0.525302,4.279627,0.239295,0.262624,0.435002,-0.133588,-0.850856,37.883915,42.073387,-130.655169
17538,NaN,-4.547453,4.561453,6.056761,-1.318261,-1.291839,-1.166470,-0.593015,4.119891,0.309852,0.267855,0.451457,-0.126338,-0.841712,39.042393,43.813422,-128.467048
17539,NaN,-5.356824,4.238684,6.056614,-1.309999,-0.722154,-0.807177,-0.615399,4.129803,0.381434,0.273327,0.467676,-0.119087,-0.832100,40.350506,45.496423,-126.114557
17540,NaN,-5.562947,4.250476,5.226564,-0.773857,-0.712991,-1.139975,-0.629352,4.126724,0.388382,0.278740,0.483659,-0.111746,-0.822126,41.793993,47.135192,-123.630319
17541,NaN,-5.415936,3.954004,4.306933,-0.383408,-0.602574,-1.875406,-0.683732,4.208918,0.405326,0.284274,0.499673,-0.104058,-0.811596,43.401801,48.755473,-120.947256
17542,NaN,-6.323634,3.713320,3.597879,0.212518,0.076313,-1.647855,-0.707517,4.220022,0.448380,0.289918,0.515452,-0.096318,-0.800612,45.192865,50.309467,-118.070197
17543,NaN,-7.249450,3.846225,3.714989,0.169387,0.363548,-0.813758,-0.707858,4.080402,0.448418,0.295365,0.530435,-0.088736,-0.789635,47.091401,51.746776,-115.116066
17544,NaN,-7.327344,3.987207,3.906389,-0.199914,0.144282,-0.605089,-0.702122,3.895130,0.467127,0.300668,0.544474,-0.081463,-0.778788,49.078382,53.041657,-112.109801
17545,NaN,-7.367450,4.210335,3.890293,-0.350326,-0.125865,-0.485540,-0.685817,3.740345,0.498690,0.305870,0.557709,-0.074540,-0.768016,51.166233,54.199507,-109.037642
17546,NaN,-7.682606,4.407091,3.788766,-0.375566,-0.201952,-0.189212,-0.692846,3.692756,0.489162,0.310928,0.570557,-0.067611,-0.757111,53.379497,55.276011,-105.850173
17547,NaN,-8.141639,4.854515,4.157970,-0.721166,-0.526683,0.499272,-0.753286,3.720267,0.493675,0.316071,0.583202,-0.060397,-0.745873,55.742102,56.285087,-102.479961
17548,NaN,-7.996515,5.115823,4.569772,-1.266893,-1.075126,0.590682,-0.863164,3.849869,0.474338,0.321384,0.595948,-0.052491,-0.734033,58.299156,57.261794,-98.841108
17549,NaN,-7.554729,5.008579,4.186219,-1.246801,-1.272960,0.010851,-0.999309,4.077966,0.460609,0.326975,0.609059,-0.043655,-0.721269,61.133508,58.216321,-94.821162
17550,NaN,-7.865002,4.489547,3.569579,-1.140184,-0.665627,-0.168774,-1.123646,4.230549,0.462901,0.332836,0.622241,-0.034108,-0.707724,64.227038,59.097717,-90.454403
17551,NaN,-8.426704,3.972399,1.708408,0.050852,0.552144,-0.357944,-1.128897,4.221315,0.397577,0.338319,0.635087,-0.024339,-0.693983,67.483758,59.883892,-85.932426
17552,NaN,-8.981915,3.465539,-0.549119,1.538949,2.001762,-0.506675,-1.057705,4.025704,0.353374,0.343246,0.647096,-0.014996,-0.680606,70.769186,60.521430,-81.457065
17553,NaN,-9.953284,2.833510,-2.016876,2.174897,3.501679,-0.108957,-0.928029,3.622091,0.341101,0.347545,0.657695,-0.006740,-0.668284,73.873839,60.970503,-77.297714
17554,NaN,-10.257390,2.950368,-2.098421,1.956909,3.528837,0.288394,-0.712886,3.102190,0.366294,0.351099,0.666737,-0.000188,-0.657413,76.677761,61.224216,-73.636901
17555,NaN,-10.401350,3.932589,-1.279630,1.403505,2.413389,1.026644,-0.496462,2.533005,0.443294,0.354107,0.674142,0.004398,-0.648168,79.078304,61.286042,-70.582908
17556,NaN,-9.905425,4.560191,-0.384796,0.773874,1.232320,1.001184,-0.438908,2.216057,0.435879,0.356853,0.680523,0.008260,-0.639903,81.189718,61.262618,-67.896852
17557,NaN,-9.242757,4.438837,0.273000,0.079659,0.643404,0.423673,-0.446328,2.218385,0.396453,0.359448,0.686805,0.012284,-0.631621,83.286080,61.214918,-65.222139
17558,NaN,-9.163874,4.471024,0.473681,-0.241501,0.410918,0.383417,-0.450091,2.367671,0.317896,0.361752,0.693454,0.016855,-0.622875,85.518770,61.171224,-62.388294
17559,NaN,-9.419355,4.662304,0.293873,-0.240904,0.386882,0.691419,-0.455408,2.451658,0.282499,0.363899,0.700244,0.021717,-0.613811,87.821458,61.097186,-59.469423
17560,NaN,-9.258434,4.803433,0.171165,-0.219726,0.189976,0.614817,-0.508061,2.507985,0.262012,0.366106,0.706999,0.026908,-0.604479,90.135148,60.978123,-56.500813
17561,NaN,-8.535594,4.662933,-0.276436,0.096136,0.158493,-0.084477,-0.588316,2.612476,0.290683,0.368602,0.713803,0.032430,-0.594614,92.481403,60.783585,-53.437801
17562,NaN,-7.950231,4.806440,-0.488882,0.334653,-0.131653,-0.516730,-0.605183,2.643854,0.355796,0.371283,0.720551,0.037819,-0.584401,94.803446,60.489406,-50.384156
17563,NaN,-7.853922,5.061144,-0.868926,0.627050,-0.196927,-0.452154,-0.599720,2.582927,0.401300,0.374018,0.727006,0.042910,-0.574222,97.004063,60.114728,-47.463823
17564,NaN,-9.689456,5.027344,-1.555519,0.356304,0.845730,1.175187,-0.555901,2.352345,0.410207,0.376611,0.732766,0.047403,-0.564775,98.938176,59.700667,-44.868861
17565,NaN,-11.816851,4.974418,-2.470988,0.091017,2.131125,3.068881,-0.495163,1.878036,0.346587,0.378864,0.737194,0.051061,-0.557136,100.405082,59.330536,-42.846070
17566,NaN,-12.263935,4.921190,-3.269542,0.348323,2.765354,3.511791,-0.403144,1.257760,0.222207,0.380566,0.739987,0.053740,-0.551997,101.327074,59.075388,-41.512349
17567,NaN,-10.287390,4.822084,-3.936786,1.464881,2.552122,1.845846,-0.293535,0.805255,0.153766,0.381780,0.741696,0.055510,-0.548680,101.887173,58.902833,-40.671321
17568,NaN,-7.579997,4.725302,-4.546935,2.867945,2.078550,-0.436474,-0.171285,0.974255,0.123478,0.382406,0.744080,0.057375,-0.544811,102.671347,58.720751,-39.648502
17569,NaN,-7.256643,4.672233,-4.059236,2.494260,1.674979,-0.760751,-0.080355,1.632360,0.196488,0.382681,0.748416,0.059980,-0.538359,104.077836,58.401438,-37.954918
17570,NaN,-7.485775,5.063459,-2.971189,1.623582,0.730580,-0.467585,0.002038,2.147200,0.283453,0.382698,0.754254,0.063014,-0.529786,105.932067,57.931776,-35.782481
17571,NaN,-8.433088,5.186220,-2.593718,0.818540,0.626351,0.369432,0.086846,2.114212,0.409322,0.382688,0.760119,0.065281,-0.521064,107.712852,57.363176,-33.742462
17572,NaN,-11.288667,4.904534,-2.783162,-0.643957,1.731724,2.670016,0.194963,1.464729,0.437337,0.382525,0.764441,0.065909,-0.514744,108.942031,56.867203,-32.420505
17573,NaN,-14.507178,5.029004,-3.130557,-1.934540,2.786374,5.485769,0.361510,0.184188,0.404059,0.382042,0.765750,0.063787,-0.513422,109.194025,56.620490,-32.376008
17574,NaN,-13.243671,5.443385,-3.754768,-0.669615,2.577161,4.748632,0.527322,-1.152482,0.292412,0.381061,0.763888,0.059109,-0.517469,108.471527,56.680896,-33.611366
17575,NaN,-7.013353,5.695930,-5.749623,3.895090,1.830180,-0.006241,0.726192,-1.694530,0.168695,0.379129,0.760918,0.053357,-0.523850,107.439295,56.895016,-35.351624
17576,NaN,-3.504831,5.651203,-6.671422,6.221900,1.298215,-2.860747,1.022455,-1.470918,0.220286,0.376120,0.759044,0.047047,-0.529314,106.736361,57.027834,-36.897673
17577,NaN,-6.372570,5.019751,-4.106173,2.754719,1.043294,-1.210878,1.166480,-1.101186,0.335729,0.372747,0.758392,0.040614,-0.533153,106.396111,57.029937,-38.109108
17578,NaN,-9.188831,5.273307,-1.667604,-0.207375,0.317182,0.905505,1.175869,-0.903685,0.232995,0.369009,0.758213,0.034907,-0.536402,106.252409,57.053162,-39.092033
17579,NaN,-10.771875,6.862750,-0.458833,-1.105953,-1.011580,2.879623,1.153204,-0.700548,0.024218,0.364735,0.758464,0.030430,-0.539235,106.319724,57.158981,-39.807985
17580,NaN,-9.898548,7.846466,-0.201982,-0.518960,-2.196891,2.616850,0.901034,-0.543898,-0.039146,0.361217,0.758637,0.027153,-0.541531,106.388325,57.274058,-40.349149
17581,NaN,-7.124470,6.573936,-0.225931,0.082253,-2.226693,-0.375484,0.604647,-0.382726,0.060026,0.359055,0.758711,0.024597,-0.542985,106.400145,57.309523,-40.755967
17582,NaN,-6.640181,4.761163,-0.990560,0.110236,-0.622672,-1.606470,0.447846,-0.135288,0.091992,0.357547,0.759169,0.022785,-0.543418,106.524536,57.286751,-40.921769
17583,NaN,-9.354138,4.576048,-1.535705,-0.636027,0.787165,0.664637,0.496061,-0.398384,0.124235,0.355965,0.758998,0.020253,-0.544794,106.444498,57.289778,-41.363790
17584,NaN,-10.869489,5.291679,-1.299522,-1.096397,0.693233,2.276686,0.549792,-1.166967,0.101774,0.354192,0.756805,0.016288,-0.549117,105.738146,57.424886,-42.585409
17585,NaN,-11.350676,4.788750,-1.115270,-1.524661,1.209562,2.403018,0.610945,-1.831316,-0.031995,0.351844,0.752835,0.011488,-0.556159,104.508820,57.722975,-44.465535
17586,NaN,-10.270356,4.178506,-1.679391,-0.713309,1.637382,1.258312,0.785711,-2.243487,-0.294652,0.348096,0.747920,0.006459,-0.565157,103.034522,58.198816,-46.744354
17587,NaN,-9.353723,3.610044,-2.505716,0.296313,2.179342,0.284920,1.031888,-2.425329,-0.622450,0.342443,0.742788,0.001649,-0.575323,101.538841,58.849866,-49.200141
17588,NaN,-10.802754,3.250658,-1.041190,-1.334074,2.287214,1.202420,1.206755,-2.737471,-0.845785,0.335434,0.736894,-0.003375,-0.586906,99.797151,59.622398,-52.040053
17589,NaN,-12.001311,2.985309,1.637064,-3.808674,1.737429,1.938278,1.189408,-3.583545,-0.867261,0.328301,0.728263,-0.009681,-0.601463,97.089741,60.422683,-55.960704
17590,NaN,-11.692033,2.096930,2.817294,-4.685154,1.945206,1.290389,0.954697,-4.725585,-0.758530,0.322142,0.715451,-0.017552,-0.619715,92.888462,61.097440,-61.409778
17591,NaN,-10.751490,0.751017,2.610057,-4.277026,2.968622,-0.023341,0.649970,-5.811651,-0.573911,0.317305,0.698245,-0.026868,-0.641132,87.187020,61.435966,-68.343178
17592,NaN,-9.722897,-0.286079,2.513619,-3.826381,3.677644,-1.284423,0.492331,-6.641268,-0.398466,0.313165,0.677415,-0.037587,-0.664548,80.496342,61.259602,-76.294441
17593,NaN,-8.084912,-0.389922,2.809732,-3.400983,3.185075,-2.624483,0.449748,-7.075864,-0.264574,0.309151,0.654245,-0.049244,-0.688450,73.592949,60.503222,-84.496403
17594,NaN,-6.254378,0.175257,2.787106,-2.621513,2.110706,-3.848768,0.463897,-7.198719,-0.119349,0.305174,0.629802,-0.061561,-0.711638,67.127506,59.183060,-92.286352
17595,NaN,-5.589586,1.100479,3.308882,-2.397863,1.116465,-3.780326,0.473186,-7.134149,0.050338,0.301387,0.604734,-0.074254,-0.733450,61.452555,57.386514,-99.281184
17596,NaN,-6.821267,2.294483,4.162888,-2.250280,0.860353,-1.856903,0.459479,-6.997047,0.173756,0.297778,0.579345,-0.086984,-0.753738,56.632082,55.239849,-105.396907
17597,NaN,-9.290179,3.911727,5.539044,-2.041684,0.948710,1.464560,0.436276,-6.905295,0.161001,0.293855,0.553566,-0.099332,-0.772882,52.504640,52.873376,-110.809483
17598,NaN,-10.243829,5.573914,6.256832,-1.241708,0.393650,3.355441,0.319859,-6.940904,0.070919,0.289546,0.526859,-0.110928,-0.791377,48.838333,50.322523,-115.728759
17599,NaN,-9.666802,6.263326,5.511677,0.212092,-0.064484,2.952846,0.137311,-6.813468,-0.008228,0.285123,0.499807,-0.121263,-0.808822,45.613508,47.676948,-120.112154
17600,NaN,-7.025437,5.912887,4.167093,0.963968,-0.969214,0.176991,-0.037259,-6.218967,-0.112838,0.280779,0.474444,-0.129668,-0.824167,42.929963,45.172043,-123.795460
17601,NaN,-5.030213,4.594535,3.568124,0.639963,-0.897666,-2.202194,-0.152790,-5.336601,-0.009898,0.277461,0.452084,-0.136479,-0.836665,40.862595,42.902263,-126.651379
17602,NaN,-5.417826,3.426940,4.333896,0.082273,0.375840,-2.084657,-0.158849,-4.626056,0.095041,0.274916,0.432337,-0.142447,-0.846886,39.281614,40.840652,-128.894083
17603,NaN,-5.488760,3.481085,5.368585,-0.401216,0.503156,-1.407752,-0.105176,-4.232754,0.086648,0.272356,0.414116,-0.147997,-0.855820,37.988365,38.917538,-130.825867
17604,NaN,-4.515562,4.122558,5.651727,-0.618926,-0.451076,-1.522075,-0.046439,-3.955928,0.079236,0.269741,0.396996,-0.153360,-0.863779,36.915720,37.092214,-132.536306
17605,NaN,-3.387230,4.529014,5.561115,-0.787408,-1.328568,-2.033122,-0.024723,-3.547117,0.056866,0.267197,0.381542,-0.158150,-0.870643,36.034769,35.440654,-134.011064
17606,NaN,-3.012063,4.379794,5.192137,-0.594816,-1.355242,-2.531197,0.000158,-3.022527,0.062552,0.264980,0.368302,-0.162332,-0.876235,35.358009,34.014894,-135.211909
17607,NaN,-3.006309,4.097479,4.707416,-0.199899,-1.096757,-2.975840,0.046781,-2.507615,0.076939,0.263101,0.357289,-0.166015,-0.880660,34.864351,32.816017,-136.167191
17608,NaN,-1.960988,3.902988,4.162250,-0.409327,-1.545202,-3.994857,0.086138,-2.021169,0.127778,0.261750,0.348388,-0.169316,-0.883993,34.538439,31.823789,-136.882737
17609,NaN,0.042887,3.545432,3.343058,-1.144958,-2.471060,-5.771572,0.168990,-1.466292,0.232634,0.261163,0.341924,-0.172412,-0.886090,34.413041,31.057404,-137.319566
17610,NaN,-0.144584,3.645943,3.768039,-1.263459,-2.350744,-5.297226,0.265007,-0.907238,0.383862,0.261558,0.337925,-0.175469,-0.886907,34.501680,30.505863,-137.457351
17611,NaN,-2.744265,4.326927,4.960554,-0.178696,-1.174433,-2.780702,0.346393,-0.675730,0.510502,0.262569,0.334932,-0.178780,-0.887083,34.713919,30.022538,-137.441284
17612,NaN,-4.519993,5.475422,6.366012,0.423148,-0.780186,-0.318053,0.361637,-0.871042,0.580714,0.263689,0.331030,-0.182543,-0.887449,34.918510,29.424380,-137.461307
17613,NaN,-4.433621,6.580320,7.794745,-0.149475,-1.392216,1.221487,0.271993,-1.279693,0.659046,0.264917,0.325101,-0.186554,-0.888440,35.014771,28.608570,-137.595855
17614,NaN,-3.476967,7.248742,8.544984,-0.926900,-2.244843,1.665506,0.117330,-1.507672,0.687689,0.266300,0.317918,-0.190230,-0.889846,34.993889,27.676533,-137.798159
17615,NaN,-2.937259,6.859248,8.332277,-1.147383,-2.178625,1.097781,0.025532,-1.391423,0.694170,0.267946,0.311093,-0.193327,-0.891095,34.943283,26.796603,-137.953159
17616,NaN,-3.677819,6.386425,7.590052,-0.226858,-1.400049,0.671045,0.036823,-1.078914,0.636064,0.269609,0.305726,-0.195968,-0.891874,34.941400,26.082690,-138.021201
17617,NaN,-3.652295,6.000840,6.081924,0.674765,-1.318270,-0.639609,0.100611,-0.747089,0.557109,0.271136,0.301982,-0.198308,-0.892169,35.009329,25.550165,-138.010752
17618,NaN,-2.403623,5.720810,4.758833,0.627159,-2.053318,-2.293250,0.190389,-0.281382,0.492352,0.272699,0.300507,-0.200329,-0.891739,35.188654,25.257626,-137.864070
17619,NaN,-2.770153,6.141635,4.280523,1.330853,-2.213104,-2.259729,0.291380,0.482687,0.414420,0.274523,0.302642,-0.201627,-0.890164,35.525464,25.346966,-137.480255
17620,NaN,-6.104021,7.064805,5.542549,3.013181,-0.615346,0.600368,0.317319,0.966384,0.337988,0.276452,0.307045,-0.202269,-0.887910,35.941308,25.684962,-136.953943
17621,NaN,-7.944453,7.737461,6.135513,3.987853,0.137858,2.216618,0.294147,0.907313,0.219244,0.277820,0.311258,-0.202691,-0.885918,36.310352,26.032142,-136.507910
17622,NaN,-5.811514,7.725115,6.488720,2.269207,-1.090648,1.554602,0.221648,0.804749,0.213567,0.279168,0.314924,-0.202932,-0.884142,36.625056,26.331917,-136.099063
17623,NaN,-3.518559,7.389836,7.562498,-0.126294,-2.065233,1.137188,0.112697,0.930114,0.235086,0.280902,0.318956,-0.202537,-0.882236,36.905416,26.679784,-135.629248
17624,NaN,-3.729275,7.055474,8.031359,-0.506105,-1.617384,1.381831,0.029036,1.092593,0.203775,0.282791,0.323618,-0.201498,-0.880170,37.165080,27.110943,-135.108183
17625,NaN,-5.245394,6.731904,8.094653,0.208483,-0.440387,1.939678,-0.059733,0.989843,0.155775,0.284498,0.327734,-0.200122,-0.878409,37.347710,27.509843,-134.649046
17626,NaN,-6.564629,6.250589,7.763276,1.018341,0.675834,2.059072,-0.089174,0.591482,0.099697,0.285606,0.330117,-0.199097,-0.877390,37.432501,27.746205,-134.371794
17627,NaN,-7.184051,5.581177,6.908773,1.719883,1.423046,1.390357,-0.098513,0.117859,0.012001,0.285870,0.330487,-0.198553,-0.877288,37.403385,27.797251,-134.326480
17628,NaN,-7.754984,5.015920,5.911317,2.564694,2.048115,0.650123,-0.014918,-0.268713,-0.091247,0.285161,0.329390,-0.198765,-0.877882,37.328207,27.708403,-134.485274
17629,NaN,-7.076702,5.148737,5.344616,2.620225,1.431737,-0.002567,0.096233,-0.632678,-0.089419,0.283911,0.326845,-0.199977,-0.878963,37.250224,27.452824,-134.786199
17630,NaN,-4.802198,5.671476,5.855880,1.083422,-0.291832,-0.418069,0.141063,-0.740119,0.026079,0.282986,0.323777,-0.201734,-0.879995,37.209331,27.107918,-135.067713
17631,NaN,-1.948447,5.853860,6.261677,-0.897138,-2.126601,-1.330626,0.120654,-0.355183,0.107557,0.282836,0.322284,-0.202978,-0.880305,37.243757,26.910492,-135.157872
17632,NaN,-1.595700,6.090872,7.105449,-1.611901,-2.368891,-0.761583,0.074642,0.295632,0.085567,0.283326,0.323617,-0.203071,-0.879636,37.363083,27.017297,-135.005158
17633,NaN,-2.678051,6.344572,7.626403,-1.229656,-1.806390,0.227838,0.002364,0.791373,0.020692,0.284146,0.327085,-0.202030,-0.878328,37.513977,27.371841,-134.691736
17634,NaN,-3.987790,6.347726,7.810039,-0.596790,-0.989452,0.951006,-0.071149,0.925316,-0.007313,0.285096,0.331064,-0.200434,-0.876894,37.644820,27.796369,-134.336929
17635,NaN,-4.589143,6.127442,7.562587,-0.194127,-0.526325,0.933634,-0.129263,0.787094,-0.034639,0.285876,0.334370,-0.198724,-0.875774,37.711860,28.167062,-134.049702
17636,NaN,-4.100071,5.914478,7.213949,-0.373405,-0.768714,0.341235,-0.153405,0.614835,-0.024632,0.286568,0.336879,-0.197176,-0.874936,37.738407,28.456154,-133.823823
17637,NaN,-3.598267,5.867681,7.661017,-1.040278,-1.016795,0.383008,-0.153818,0.483986,0.002900,0.287247,0.338778,-0.195851,-0.874277,37.746340,28.676022,-133.636226
17638,NaN,-3.856848,6.194899,8.680052,-1.502963,-0.981918,1.384284,-0.171602,0.382574,-0.023863,0.287741,0.340239,-0.194555,-0.873837,37.720013,28.859571,-133.501830
17639,NaN,-5.398743,6.414820,9.612551,-1.158746,-0.064195,2.889699,-0.192192,0.116462,-0.050096,0.287893,0.340526,-0.193500,-0.873909,37.622724,28.931400,-133.488437
17640,NaN,-7.138417,6.189952,8.556217,0.581036,1.042561,2.878118,-0.223769,-0.402716,-0.139448,0.287208,0.338591,-0.192909,-0.875017,37.386401,28.798798,-133.727537
17641,NaN,-7.974475,6.039606,7.864186,1.596837,1.577034,2.712356,-0.202846,-0.858253,-0.280203,0.285426,0.334816,-0.192815,-0.877071,37.040653,28.505702,-134.219391
17642,NaN,-4.829167,6.259680,7.732842,-0.079149,-0.605753,1.229404,-0.257659,-0.549576,-0.337559,0.283778,0.332374,-0.191948,-0.878722,36.711210,28.371616,-134.616536
17643,NaN,-2.422300,5.749386,7.562459,-1.604415,-1.773539,-0.305106,-0.267171,-0.004202,-0.241019,0.283091,0.332213,-0.190417,-0.879338,36.500263,28.453452,-134.751439
17644,NaN,-2.662968,4.727236,6.849579,-1.339186,-0.979204,-1.233499,-0.288085,0.276855,-0.266854,0.282592,0.333288,-0.188359,-0.879535,36.323761,28.673563,-134.790666
17645,NaN,-3.567128,4.008991,6.544697,-0.846193,0.049801,-1.391834,-0.259576,0.364611,-0.339642,0.281805,0.334847,-0.186174,-0.879660,36.159442,28.958319,-134.836153
17646,NaN,-3.829285,3.944435,6.497731,-0.695486,0.211513,-1.332484,-0.187462,0.457387,-0.321684,0.281062,0.336904,-0.184211,-0.879526,36.059327,29.280324,-134.836195
17647,NaN,-4.057080,4.086163,6.489585,-0.525046,0.200519,-1.155017,-0.115712,0.503418,-0.262159,0.280498,0.339199,-0.182590,-0.879162,36.022915,29.603091,-134.788209
17648,NaN,-4.151118,4.362644,6.366439,-0.311770,-0.007040,-1.054916,-0.042246,0.483277,-0.219464,0.279978,0.341475,-0.181398,-0.878693,36.037811,29.902642,-134.724156
17649,NaN,-4.228122,4.985510,6.450736,-0.129886,-0.463203,-0.641389,-0.002969,0.495060,-0.183909,0.279555,0.343814,-0.180415,-0.878118,36.085950,30.195115,-134.637168
17650,NaN,-4.953121,5.631015,6.977570,0.138094,-0.484677,0.418346,-0.029576,0.476626,-0.178915,0.279182,0.346037,-0.179355,-0.877580,36.118752,30.477828,-134.553152
17651,NaN,-4.518803,5.655075,6.648774,0.077868,-0.843363,-0.020441,-0.054852,0.554737,-0.162457,0.278992,0.348541,-0.178096,-0.876906,36.156276,30.790540,-134.430220
17652,NaN,-4.553268,5.258357,5.754370,0.546453,-0.654322,-0.825569,-0.098020,0.715574,-0.186383,0.278913,0.351717,-0.176386,-0.876008,36.197660,31.186195,-134.254967
17653,NaN,-4.731561,4.977601,5.369896,0.772958,-0.411743,-1.139020,-0.130084,0.963543,-0.205100,0.279021,0.355935,-0.174148,-0.874717,36.267107,31.702087,-133.991180
17654,NaN,-4.814318,4.611946,4.712049,1.096371,-0.189394,-1.724881,-0.111994,1.217490,-0.148488,0.279558,0.361237,-0.171735,-0.872847,36.422358,32.316069,-133.591028
17655,NaN,-4.810303,4.321123,4.050944,1.392639,-0.067120,-2.310909,-0.014639,1.354688,-0.090852,0.280276,0.367201,-0.169647,-0.870534,36.685642,32.971780,-133.099325
17656,NaN,-4.574689,4.490904,4.244380,1.090172,-0.360312,-2.210607,0.089376,1.543548,-0.013418,0.281286,0.374057,-0.167886,-0.867625,37.085547,33.685509,-132.478016
17657,NaN,-6.209954,4.938623,4.834039,1.623537,0.307768,-0.669961,0.146938,1.588048,0.028871,0.282391,0.381120,-0.166376,-0.864478,37.553522,34.400450,-131.804101
17658,NaN,-7.448282,5.246476,5.858637,1.518492,0.870980,0.876567,0.155971,1.327203,0.032900,0.283265,0.387052,-0.165277,-0.861763,37.979134,34.991870,-131.226252
17659,NaN,-7.244542,5.492660,6.880146,0.605830,0.589731,1.557158,0.106617,1.023296,0.049678,0.284044,0.391571,-0.164416,-0.859627,38.313737,35.436970,-130.763294
17660,NaN,-7.607820,5.754208,7.391551,0.410599,0.612388,2.232256,0.066120,0.757169,0.011236,0.284515,0.394919,-0.163687,-0.858078,38.551709,35.774693,-130.432186
17661,NaN,-11.827622,6.585832,9.555489,1.206794,2.653562,6.499125,-0.112696,0.287051,-0.131960,0.284335,0.396103,-0.162569,-0.857804,38.520468,35.952150,-130.386479
17662,NaN,-8.834327,6.434693,7.066702,1.513556,0.765759,3.091243,-0.187290,-0.348166,-0.141028,0.283748,0.394469,-0.162022,-0.858854,38.280953,35.847896,-130.624415
17663,NaN,-3.670494,4.634189,4.557700,0.109988,-1.141747,-2.436705,-0.226167,-0.322501,-0.110549,0.283386,0.392858,-0.161324,-0.859843,38.035131,35.743585,-130.834305
17664,NaN,-3.870154,4.125914,3.914924,0.539889,-0.662700,-2.986471,-0.105101,0.034438,-0.112299,0.283068,0.392959,-0.160643,-0.860029,37.950469,35.800591,-130.888631
17665,NaN,-7.060429,5.346155,6.297674,0.842780,0.446270,1.012388,-0.011664,0.105466,-0.139794,0.282504,0.393515,-0.160204,-0.860042,37.927064,35.899277,-130.928424
17666,NaN,-5.672341,5.476363,4.955139,1.175784,-0.592534,-0.593911,-0.024130,0.075421,-0.131790,0.281976,0.393922,-0.159775,-0.860109,37.892610,35.981607,-130.976031
17667,NaN,-4.319321,4.429898,4.947087,0.075950,-0.608467,-1.914703,-0.021590,0.311598,-0.124972,0.281658,0.395337,-0.159032,-0.859701,37.921116,36.168297,-130.917873
17668,NaN,-4.221022,3.959294,4.234359,0.377121,-0.350297,-2.660220,0.046967,0.557744,-0.120332,0.281421,0.397906,-0.158250,-0.858737,38.055918,36.464440,-130.748047
17669,NaN,-7.321442,4.777071,6.000932,0.881744,0.948561,0.711446,0.056732,0.726603,-0.168818,0.281085,0.401244,-0.157169,-0.857492,38.225252,36.853449,-130.530045
17670,NaN,-7.173680,5.754382,6.349329,0.828045,0.072328,1.331707,0.049625,0.414821,-0.064244,0.280966,0.403152,-0.156710,-0.856719,38.345918,37.064691,-130.388806
17671,NaN,-6.100873,5.912747,7.489751,-0.589348,-0.675592,1.477742,-0.050960,0.271971,-0.036377,0.281054,0.404282,-0.156071,-0.856275,38.379626,37.201763,-130.295674
17672,NaN,-6.392105,5.788109,7.043810,-0.142186,-0.429243,1.312599,-0.098048,-0.020200,-0.007599,0.281135,0.404074,-0.155704,-0.856413,38.318542,37.197271,-130.315887
17673,NaN,-4.732874,6.100375,4.856519,0.840246,-1.767278,-0.903644,-0.114126,-0.423586,0.085113,0.281328,0.402040,-0.156017,-0.857250,38.170596,36.978357,-130.463887
17674,NaN,1.771131,7.303303,10.437832,-6.399631,-6.432759,-0.697454,-0.198508,-0.192664,0.450241,0.283436,0.400593,-0.156382,-0.857166,38.160948,36.734022,-130.302543
17675,NaN,-4.145266,4.518123,5.194755,-0.278052,-0.851781,-1.826525,-0.266292,1.185339,-0.117649,0.284317,0.405385,-0.153359,-0.855165,38.287484,37.310709,-129.850245
17676,NaN,-12.981328,2.384315,4.349007,4.008199,6.143013,1.990212,-0.190117,1.362874,-0.276429,0.284489,0.411155,-0.150085,-0.852931,38.459983,38.023105,-129.401671
17677,NaN,-13.805320,3.577259,6.062534,3.405109,5.678912,4.197764,-0.032715,0.390981,-0.211682,0.283875,0.412940,-0.148989,-0.852466,38.478026,38.275713,-129.353014
17678,NaN,-7.971304,4.328618,6.200858,0.653177,1.517173,1.050128,-0.027920,-0.244916,-0.177083,0.282925,0.411999,-0.148891,-0.853253,38.333587,38.230667,-129.572279
17679,NaN,-5.920065,4.448641,6.717503,-0.710715,0.184403,0.158433,-0.042517,-0.306588,-0.175535,0.281963,0.410769,-0.148814,-0.854178,38.163342,38.157088,-129.818972
17680,NaN,-6.408603,4.999455,7.354101,-0.741194,0.047583,1.123301,-0.118808,-0.205788,-0.166643,0.281272,0.409857,-0.148294,-0.854934,37.982135,38.125002,-130.013998
17681,NaN,-6.630163,5.204107,7.067684,-0.303723,-0.003114,1.182839,-0.182213,-0.208916,-0.176571,0.280663,0.408846,-0.147480,-0.855759,37.759197,38.094649,-130.216775
17682,NaN,-3.938731,4.592205,5.429272,-0.586328,-1.184871,-1.792014,-0.219684,-0.110625,-0.142242,0.280352,0.408179,-0.146444,-0.856357,37.555367,38.096076,-130.354988
17683,NaN,-0.688399,3.613422,4.291898,-1.700122,-2.390777,-4.981037,-0.161478,0.335970,-0.015114,0.280791,0.409409,-0.145284,-0.855823,37.551423,38.255894,-130.222389
17684,NaN,-1.980767,3.699817,4.741182,-1.384739,-1.698408,-3.872267,-0.072527,1.006103,0.041654,0.281775,0.413587,-0.143684,-0.853758,37.807856,38.699357,-129.755228
17685,NaN,-5.905439,5.000546,5.175735,0.634677,-0.412054,-0.533984,-0.004656,1.397054,0.072037,0.283017,0.419488,-0.141875,-0.850766,38.232425,39.306288,-129.086975
17686,NaN,-7.954274,5.635648,5.878561,1.193308,0.275560,1.504871,0.001386,1.355636,0.098358,0.284318,0.425188,-0.140205,-0.847774,38.671990,39.881416,-128.410026
17687,NaN,-9.296081,5.359952,6.243014,1.324341,1.264266,2.466078,-0.019151,1.047327,0.056966,0.285258,0.429561,-0.138788,-0.845484,39.000901,40.330274,-127.892847
17688,NaN,-9.702444,4.959105,6.175422,1.342945,1.802432,2.508573,-0.040355,0.506489,0.023600,0.285725,0.431637,-0.137983,-0.844400,39.145260,40.548996,-127.645923
17689,NaN,-7.485404,4.541194,5.803281,0.429909,0.795064,0.652246,-0.021652,0.164786,0.022210,0.285906,0.432294,-0.137736,-0.844043,39.193846,40.616289,-127.562482
17690,NaN,-7.563677,4.555767,6.296828,0.063476,0.819218,1.001152,0.008395,0.037781,-0.020737,0.285756,0.432490,-0.137711,-0.843997,39.205109,40.642537,-127.563802
17691,NaN,-7.593575,4.835164,6.638986,-0.091360,0.610583,1.355846,0.012590,-0.196880,-0.024910,0.285415,0.431702,-0.138023,-0.844465,39.143171,40.566311,-127.680320
17692,NaN,-6.771305,4.964381,6.884335,-0.601240,0.019209,1.028336,0.012654,-0.354210,-0.036224,0.284920,0.430260,-0.138541,-0.845283,39.030032,40.423823,-127.876973
17693,NaN,-6.604013,5.051059,6.933537,-0.656171,-0.138843,0.992412,-0.003128,-0.392986,-0.051013,0.284365,0.428637,-0.139009,-0.846217,38.890066,40.269301,-128.100667
17694,NaN,-6.636498,4.983148,6.870133,-0.580224,-0.052607,0.945289,-0.013844,-0.404908,-0.056226,0.283804,0.426952,-0.139444,-0.847185,38.740762,40.110657,-128.331071
17695,NaN,-6.678477,4.977408,6.935421,-0.579227,-0.011407,1.010480,-0.004870,-0.415097,-0.057108,0.283210,0.425233,-0.139921,-0.848169,38.593089,39.947506,-128.566623
17696,NaN,-6.683604,5.026728,6.641738,-0.287173,-0.033650,0.862869,0.026583,-0.466694,-0.074803,0.282439,0.423353,-0.140574,-0.849258,38.444021,39.766883,-128.834401
17697,NaN,-6.403644,4.840049,6.250430,-0.140322,-0.038228,0.359792,0.065844,-0.493223,-0.105547,0.281430,0.421432,-0.141358,-0.850418,38.298310,39.584904,-129.132047
17698,NaN,-6.337778,4.540619,5.550234,0.307712,0.171531,-0.248923,0.126611,-0.415715,-0.125970,0.280263,0.419940,-0.142254,-0.851391,38.205251,39.444414,-129.403807
17699,NaN,-6.873890,4.411466,5.368368,0.689518,0.601224,-0.081611,0.192972,-0.330463,-0.160297,0.278867,0.418924,-0.143234,-0.852185,38.161828,39.354382,-129.656795
17700,NaN,-6.871810,4.419256,5.201193,0.835696,0.595838,-0.181977,0.243271,-0.249087,-0.190565,0.277297,0.418348,-0.144257,-0.852808,38.161399,39.311496,-129.888919
17701,NaN,-6.396999,4.280585,5.132669,0.609969,0.427045,-0.591253,0.264741,-0.201199,-0.179578,0.275759,0.417993,-0.145321,-0.853300,38.190061,39.286571,-130.093564
17702,NaN,-6.200194,4.162236,5.109028,0.487081,0.408235,-0.786899,0.305420,-0.132587,-0.189520,0.274145,0.417995,-0.146450,-0.853626,38.259600,39.295951,-130.271638
17703,NaN,-6.149402,4.444236,5.415173,0.305826,0.159474,-0.497565,0.341466,-0.054862,-0.188529,0.272513,0.418374,-0.147620,-0.853761,38.371380,39.340435,-130.414404
17704,NaN,-6.239965,4.684498,5.558507,0.299695,0.022830,-0.237287,0.349718,0.052014,-0.200934,0.270891,0.419230,-0.148660,-0.853677,38.515726,39.437247,-130.514219
17705,NaN,-6.229625,4.895360,5.556540,0.341148,-0.156921,-0.142794,0.320485,0.105837,-0.203337,0.269356,0.420274,-0.149490,-0.853504,38.656967,39.559534,-130.591240
17706,NaN,-5.551172,4.862109,5.707765,-0.161455,-0.528162,-0.499842,0.280218,0.209698,-0.173652,0.268113,0.421685,-0.150077,-0.853097,38.818275,39.717432,-130.601520
17707,NaN,-5.465165,4.888968,5.898060,-0.384814,-0.602835,-0.429430,0.234798,0.352219,-0.143461,0.267196,0.423617,-0.150335,-0.852382,39.006667,39.928325,-130.527769
17708,NaN,-5.710207,5.071349,6.255725,-0.533218,-0.609876,0.026148,0.176552,0.435081,-0.114998,0.266588,0.425802,-0.150301,-0.851489,39.199706,40.165284,-130.396332
17709,NaN,-5.631651,5.358906,6.492306,-0.716427,-0.899630,0.250144,0.115124,0.528397,-0.087490,0.266293,0.428276,-0.149931,-0.850405,39.396809,40.433519,-130.203850
17710,NaN,-5.604547,5.603787,6.431156,-0.653208,-1.139184,0.308993,0.048975,0.656827,-0.071598,0.266304,0.431196,-0.149149,-0.849063,39.605501,40.751991,-129.937486
17711,NaN,-6.428508,5.834697,6.547371,-0.327449,-0.874941,1.020797,-0.038430,0.684095,-0.052738,0.266598,0.434092,-0.147992,-0.847696,39.781631,41.075017,-129.645126
17712,NaN,-7.729373,5.888620,6.292834,0.478597,-0.196964,1.752381,-0.132073,0.444845,-0.023896,0.267041,0.435828,-0.146825,-0.846868,39.842053,41.281590,-129.449531
17713,NaN,-7.901207,5.635743,6.051895,0.660661,0.086266,1.605377,-0.173057,0.079099,-0.003454,0.267389,0.435940,-0.146011,-0.846841,39.768385,41.319779,-129.421082
17714,NaN,-6.940446,5.277294,5.612117,0.456152,-0.193983,0.544424,-0.208835,-0.082833,0.023898,0.267813,0.435302,-0.145327,-0.847153,39.633872,41.276530,-129.454679
17715,NaN,-6.364901,4.831180,5.023171,0.531974,-0.177480,-0.390904,-0.199221,-0.036896,0.031244,0.268279,0.434863,-0.144633,-0.847350,39.521411,41.250945,-129.462342
17716,NaN,-7.047253,4.588830,4.799560,0.969700,0.408961,-0.187234,-0.131162,0.019121,0.024737,0.268612,0.434760,-0.144143,-0.847381,39.464484,41.252378,-129.445797
17717,NaN,-8.473415,4.703916,4.844947,1.655640,1.137558,0.834562,-0.034403,-0.003781,-0.070621,0.268312,0.434756,-0.143881,-0.847522,39.417605,41.278569,-129.497249
17718,NaN,-9.965015,5.221612,5.087348,2.353468,1.574430,2.205223,0.038449,-0.210524,-0.150709,0.267367,0.434033,-0.144036,-0.848165,39.316463,41.242067,-129.695109
17719,NaN,-9.352933,5.964989,5.163737,2.290261,0.616370,2.191349,-0.004998,-0.756505,-0.074047,0.266444,0.430877,-0.144896,-0.849916,39.047698,40.935250,-130.110019
17720,NaN,-6.673046,5.939055,4.988196,1.207741,-0.888830,0.308300,-0.055005,-1.232241,0.067188,0.265879,0.425520,-0.146484,-0.852516,38.664217,40.363228,-130.661536
17721,NaN,-4.599586,5.555209,4.882419,0.223719,-1.746545,-1.283116,-0.131293,-1.075799,-0.003085,0.265281,0.420766,-0.147379,-0.854904,38.266587,39.884088,-131.172470
17722,NaN,-5.075538,5.430928,4.937794,0.433535,-1.358730,-1.003393,-0.148271,-0.444233,-0.126684,0.264653,0.418773,-0.147106,-0.856124,38.005784,39.730577,-131.458569
17723,NaN,-6.909524,5.872806,5.646976,0.969709,-0.655944,0.805648,-0.167358,0.052042,-0.179897,0.264199,0.418916,-0.145979,-0.856387,37.859595,39.819690,-131.548068
17724,NaN,-7.198321,5.809608,6.018989,0.805236,-0.454648,1.184604,-0.254317,0.118037,-0.121458,0.264227,0.419183,-0.144518,-0.856495,37.705251,39.917605,-131.572939
17725,NaN,-6.619623,5.149242,5.252716,0.912458,-0.290805,0.036572,-0.302396,-0.025316,-0.100002,0.264342,0.418757,-0.143082,-0.856909,37.488803,39.943286,-131.651181
17726,NaN,-6.591425,4.565797,4.192878,1.567363,0.128539,-0.901998,-0.232688,-0.218135,-0.123014,0.264075,0.417612,-0.142155,-0.857704,37.247840,39.888522,-131.830334
17727,NaN,-7.429075,4.361975,3.056853,2.863694,0.738743,-1.163083,-0.108443,-0.557983,-0.126553,0.263290,0.415175,-0.142197,-0.859121,36.979283,39.679576,-132.164005
17728,NaN,-8.496870,4.274849,2.595369,3.818880,1.408930,-0.832860,0.043464,-1.160182,-0.071648,0.261992,0.410302,-0.143799,-0.861588,36.652398,39.173741,-132.729430
17729,NaN,-9.117243,4.072773,2.833766,4.011104,1.950486,-0.440056,0.172699,-1.801747,-0.055010,0.260023,0.402803,-0.146820,-0.865206,36.241151,38.364529,-133.555644
17730,NaN,-9.301868,3.815845,4.037588,3.268207,2.352898,0.245458,0.325627,-2.267418,-0.076941,0.257283,0.393457,-0.151052,-0.869586,35.809162,37.341396,-134.575538
17731,NaN,-8.710545,4.229374,6.610562,1.338642,1.908799,1.677256,0.467300,-2.680040,-0.031960,0.254104,0.382411,-0.156490,-0.874473,35.401950,36.106369,-135.716287
17732,NaN,-5.880180,5.372427,9.302980,-1.688180,-0.270210,2.313880,0.457503,-2.928314,0.056479,0.251089,0.370111,-0.162344,-0.879555,34.998553,34.718238,-136.877366
17733,NaN,-1.551357,6.683719,11.054030,-4.924197,-3.420670,1.733489,0.241169,-2.598375,0.157592,0.249133,0.358845,-0.166980,-0.883901,34.615240,33.447065,-137.820585
17734,NaN,-0.235377,6.808266,10.720151,-5.295896,-4.148937,0.960693,-0.061948,-1.795447,0.213633,0.248611,0.350649,-0.169363,-0.886879,34.271241,32.530962,-138.400601
17735,NaN,-2.986812,5.764669,9.167330,-2.683065,-1.877111,0.932963,-0.242762,-1.026174,0.088375,0.248487,0.345730,-0.169755,-0.888768,33.953878,32.017831,-138.747740
17736,NaN,-5.304256,4.296163,6.590617,0.199701,0.302282,-0.331295,-0.280036,-0.622423,-0.071963,0.248054,0.342684,-0.169203,-0.890173,33.652516,31.745874,-139.028379
17737,NaN,-4.738520,3.133815,4.322649,1.077634,0.637489,-2.784750,-0.183054,-0.385419,-0.105139,0.247504,0.340841,-0.168727,-0.891123,33.444915,31.596970,-139.237509
17738,NaN,-2.896719,2.353893,3.376945,0.304868,0.124053,-4.790017,-0.023859,-0.086142,-0.078062,0.247057,0.340502,-0.168639,-0.891393,33.395412,31.581812,-139.319875
17739,NaN,-3.611095,2.447561,4.163085,0.245934,0.545331,-3.812359,0.178519,0.266124,-0.109441,0.246421,0.342012,-0.168960,-0.890930,33.520840,31.745511,-139.289295
17740,NaN,-6.343754,3.497948,5.668131,1.273358,1.395232,-0.810560,0.369528,0.328242,-0.188262,0.245159,0.344096,-0.169924,-0.890292,33.745292,31.963265,-139.279034
17741,NaN,-7.497369,4.265791,6.861221,1.395655,1.563773,1.008152,0.441041,0.020961,-0.252645,0.243224,0.344956,-0.171467,-0.890195,33.930500,32.055928,-139.419681
17742,NaN,-6.633540,4.042364,6.942900,0.701127,1.293030,0.501618,0.473263,-0.321483,-0.307864,0.240693,0.344371,-0.173476,-0.890720,34.049536,32.003276,-139.720304
17743,NaN,-5.783220,3.615447,6.298797,0.476751,1.103698,-0.606904,0.538627,-0.500641,-0.363378,0.237641,0.343116,-0.175890,-0.891550,34.153821,31.884771,-140.119731
17744,NaN,-6.036796,3.463937,5.816102,0.951140,1.314679,-0.888806,0.623089,-0.656749,-0.384195,0.234211,0.341271,-0.178831,-0.892580,34.270681,31.698844,-140.589437
17745,NaN,-6.192285,3.411025,5.698093,1.152304,1.448048,-0.923206,0.695403,-0.885551,-0.392333,0.230407,0.338492,-0.182337,-0.893918,34.382837,31.409030,-141.149773
17746,NaN,-5.885918,3.470462,5.612040,1.070765,1.250620,-1.125212,0.776093,-1.077178,-0.427240,0.226129,0.334961,-0.186364,-0.895508,34.497439,31.039973,-141.800592
17747,NaN,-5.910149,3.757842,6.056923,0.917082,1.143847,-0.670057,0.845264,-1.208330,-0.463194,0.221436,0.330943,-0.190771,-0.897245,34.620345,30.622991,-142.519153
17748,NaN,-6.899341,4.226799,7.008260,1.146896,1.504336,0.723118,0.874011,-1.417966,-0.529300,0.216187,0.326050,-0.195424,-0.899313,34.708096,30.128769,-143.350394
17749,NaN,-7.386247,4.674715,8.027652,1.025661,1.649626,1.895340,0.862255,-1.732686,-0.650022,0.210084,0.319825,-0.200141,-0.901954,34.705994,29.527500,-144.361510
17750,NaN,-6.630238,5.177862,8.874621,0.191941,1.099638,2.364387,0.832768,-1.899701,-0.760714,0.203340,0.312882,-0.204709,-0.904904,34.640802,28.881813,-145.487983
17751,NaN,-5.972947,5.265257,8.407821,0.173444,0.645377,1.747693,0.794549,-1.875345,-0.847503,0.196261,0.306069,-0.208909,-0.907833,34.549481,28.275898,-146.644469
17752,NaN,-5.567592,4.585941,7.363574,0.502803,0.787455,0.452650,0.744224,-1.827417,-0.899699,0.189051,0.299433,-0.212738,-0.910682,34.439230,27.706376,-147.803484
17753,NaN,-5.379395,3.734755,6.743919,0.675063,1.267606,-0.522739,0.754573,-1.837294,-0.960592,0.181511,0.292800,-0.216496,-0.913483,34.330840,27.151368,-148.991581
17754,NaN,-5.070941,3.459430,6.757704,0.485760,1.383739,-0.801757,0.802530,-1.889207,-1.024856,0.173533,0.285996,-0.220408,-0.916249,34.240341,26.589262,-150.225331
17755,NaN,-4.356059,3.743550,6.993324,-0.048726,0.928150,-0.810957,0.837105,-1.934288,-1.062899,0.165253,0.279028,-0.224422,-0.918950,34.166566,26.017990,-151.488666
17756,NaN,-3.766068,4.158531,7.532113,-0.655121,0.540831,-0.459258,0.855980,-1.964359,-1.076536,0.156830,0.271903,-0.228508,-0.921551,34.111286,25.434045,-152.762725
17757,NaN,-3.434815,4.425239,8.021125,-1.055063,0.398823,-0.094370,0.841188,-2.011611,-1.074687,0.148356,0.264516,-0.232520,-0.924098,34.054545,24.827438,-154.045989
17758,NaN,-3.085195,4.731560,8.158159,-1.264912,0.112572,0.028433,0.810831,-2.064125,-1.044678,0.139980,0.256780,-0.236446,-0.926586,33.996065,24.183627,-155.324638
17759,NaN,-2.731635,4.915218,7.971240,-1.327133,-0.180198,-0.150035,0.768564,-2.068918,-0.983937,0.131911,0.248890,-0.240211,-0.928952,33.940396,23.518257,-156.566542
17760,NaN,-2.399215,4.822986,7.657523,-1.354696,-0.278289,-0.553025,0.710063,-2.002078,-0.915442,0.124297,0.241146,-0.243724,-0.931127,33.891481,22.860415,-157.742504
17761,NaN,-2.119667,4.568957,7.253951,-1.327371,-0.260445,-1.085857,0.665083,-1.860967,-0.859007,0.117153,0.233939,-0.246964,-0.933036,33.859543,22.252042,-158.835033
17762,NaN,-1.468215,4.430331,6.691782,-1.556798,-0.532398,-1.821703,0.695757,-1.615277,-0.806303,0.110514,0.227799,-0.250251,-0.934488,33.899867,21.742661,-159.811178
17763,NaN,-0.353143,4.452324,6.020903,-2.167267,-1.130285,-2.725781,0.722534,-1.222091,-0.735765,0.104654,0.223410,-0.253494,-0.935348,34.024633,21.399775,-160.614267
17764,NaN,-0.789026,4.611530,5.742655,-1.633414,-1.196145,-2.687530,0.720739,-0.760862,-0.668262,0.099694,0.221074,-0.256562,-0.935608,34.223466,21.255157,-161.223111
17765,NaN,-2.029099,4.931766,5.902983,-0.601439,-0.984453,-1.941616,0.716943,-0.464585,-0.622618,0.095326,0.220059,-0.259495,-0.935494,34.465079,21.238770,-161.706730
17766,NaN,-2.911129,5.421612,6.560679,-0.110893,-0.812835,-0.855125,0.710762,-0.389570,-0.552252,0.091391,0.219292,-0.262445,-0.935244,34.726970,21.236208,-162.128168
17767,NaN,-2.818002,5.978851,7.910587,-0.795542,-0.657155,0.444028,0.708093,-0.428831,-0.452056,0.087871,0.218206,-0.265494,-0.934975,34.999535,21.184760,-162.513220
17768,NaN,-3.178742,6.307802,8.854511,-0.884772,-0.345096,1.474160,0.658943,-0.637294,-0.372491,0.084500,0.216011,-0.268495,-0.934938,35.233840,21.010419,-162.931480
17769,NaN,-3.041675,6.296187,9.191137,-1.121968,-0.155538,1.680230,0.606266,-0.981442,-0.315957,0.080984,0.212103,-0.271438,-0.935294,35.405189,20.658274,-163.443771
17770,NaN,-2.538535,6.258402,9.048155,-1.443863,-0.263354,1.382219,0.542168,-1.200908,-0.275800,0.077425,0.207079,-0.274212,-0.935912,35.524468,20.191146,-164.013078
17771,NaN,-2.463727,6.184224,8.625106,-1.251754,-0.366259,1.004207,0.491040,-1.244875,-0.257403,0.073939,0.201794,-0.276760,-0.936598,35.615719,19.698639,-164.588441
17772,NaN,-2.692260,6.035953,8.296851,-0.832109,-0.296307,0.757926,0.449494,-1.189686,-0.262675,0.070545,0.196750,-0.279085,-0.937243,35.694935,19.234128,-165.145491
17773,NaN,-2.795033,5.802699,7.897940,-0.509641,-0.233739,0.363075,0.442119,-1.106599,-0.282972,0.067175,0.192112,-0.281305,-0.937789,35.779293,18.815920,-165.682742
17774,NaN,-2.103936,5.685476,7.152956,-0.793465,-0.633432,-0.491484,0.464431,-0.957877,-0.276718,0.064021,0.188165,-0.283586,-0.938123,35.899069,18.465479,-166.163410
17775,NaN,-1.457947,5.614709,6.195642,-0.985341,-1.168127,-1.463977,0.513644,-0.678017,-0.253954,0.061321,0.185508,-0.286013,-0.938095,36.082809,18.238338,-166.534256
17776,NaN,-0.883059,5.596454,4.958053,-1.038097,-1.875380,-2.595518,0.611388,-0.326427,-0.215425,0.059215,0.184473,-0.288831,-0.937571,36.369512,18.162085,-166.761284
17777,NaN,-0.956073,6.170737,6.001768,-1.381444,-1.746170,-1.442768,0.637010,0.005554,-0.151409,0.057863,0.184904,-0.291719,-0.936676,36.716615,18.217861,-166.838885
17778,NaN,-2.190329,6.751353,6.981131,-0.640268,-1.391105,0.024439,0.617878,0.109062,-0.124274,0.056807,0.185776,-0.294516,-0.935693,37.069700,18.312324,-166.865194
17779,NaN,-2.874788,7.489933,8.408775,-0.585131,-1.038235,1.748038,0.538928,0.076335,-0.113258,0.055826,0.186450,-0.296955,-0.934846,37.374666,18.387885,-166.897953
17780,NaN,-1.923648,7.484653,9.395166,-1.865562,-0.660321,2.190356,0.408777,0.050447,-0.032245,0.055307,0.186849,-0.298872,-0.934186,37.615327,18.423864,-166.900690
17781,NaN,-1.835495,7.068763,9.484399,-1.991389,-0.249867,1.988249,0.307509,0.025819,0.038826,0.055178,0.186994,-0.300383,-0.933680,37.805005,18.423332,-166.878783
17782,NaN,-2.328236,6.564544,8.796799,-1.270311,-0.070696,1.335355,0.253107,-0.082628,0.071345,0.055089,0.186573,-0.301705,-0.933343,37.956565,18.362704,-166.881234
17783,NaN,-2.012855,6.181644,8.545144,-1.456487,0.064050,0.824900,0.211044,-0.070592,0.088437,0.055136,0.186163,-0.302838,-0.933055,38.087057,18.300850,-166.871630
17784,NaN,-1.891206,5.886361,8.004113,-1.358274,0.006920,0.209625,0.195132,0.049090,0.117516,0.055516,0.186270,-0.303895,-0.932668,38.227597,18.283232,-166.803371
17785,NaN,-2.493497,5.675842,7.463107,-0.597336,0.035121,-0.129062,0.199221,0.102687,0.123899,0.056003,0.186610,-0.304957,-0.932224,38.376768,18.286499,-166.712521
17786,NaN,-2.511414,5.629595,7.183314,-0.478589,-0.052976,-0.359242,0.222142,0.080602,0.137399,0.056497,0.186841,-0.306149,-0.931757,38.539395,18.275594,-166.623143
17787,NaN,-2.434850,5.697368,7.121415,-0.531652,-0.132622,-0.389167,0.247780,0.114041,0.137438,0.057019,0.187226,-0.307445,-0.931221,38.719711,18.278550,-166.521628
17788,NaN,-2.303389,5.778007,7.047696,-0.635039,-0.239281,-0.437167,0.273685,0.177284,0.139589,0.057623,0.187917,-0.308851,-0.930579,38.923672,18.309478,-166.394714
17789,NaN,-2.921135,5.879457,7.332296,-0.186118,0.005747,0.027477,0.293329,0.139561,0.158998,0.058242,0.188399,-0.310370,-0.929938,39.136387,18.315273,-166.273355
17790,NaN,-3.123963,6.236686,7.446727,-0.049588,-0.136603,0.389662,0.306047,-0.026590,0.147263,0.058535,0.188138,-0.311990,-0.929430,39.335652,18.252072,-166.220443
17791,NaN,-3.232022,6.303939,7.474877,0.048130,-0.117101,0.485045,0.253232,-0.161473,0.156304,0.058710,0.187212,-0.313407,-0.929129,39.488765,18.124809,-166.215645
17792,NaN,-3.521910,6.267595,7.561876,0.299800,0.054783,0.616867,0.223800,-0.220560,0.108013,0.058595,0.186087,-0.314663,-0.928938,39.611847,17.989959,-166.255838
17793,NaN,-3.214490,6.470567,7.706884,-0.025672,-0.070220,0.751005,0.194934,-0.157341,0.071256,0.058436,0.185295,-0.315726,-0.928745,39.719708,17.895621,-166.289463
17794,NaN,-2.977611,6.336000,7.778173,-0.264286,0.043507,0.648636,0.147977,-0.016426,0.057674,0.058479,0.185174,-0.316523,-0.928496,39.816298,17.869267,-166.274834
17795,NaN,-3.294984,6.170190,7.688964,0.062145,0.211323,0.579608,0.115884,0.050260,0.026171,0.058512,0.185394,-0.317117,-0.928247,39.896999,17.882885,-166.249514
17796,NaN,-3.698579,6.031072,7.493904,0.507547,0.313735,0.475941,0.093505,-0.015579,0.011350,0.058392,0.185334,-0.317617,-0.928095,39.955888,17.873900,-166.256021
17797,NaN,-3.529418,5.869969,7.350762,0.412026,0.330924,0.220644,0.089583,-0.147658,0.007221,0.058047,0.184658,-0.318128,-0.928077,39.995367,17.807585,-166.315949
17798,NaN,-3.157529,5.870337,7.390265,0.067085,0.278203,0.135424,0.084535,-0.242193,0.019990,0.057615,0.183530,-0.318660,-0.928145,40.023619,17.695977,-166.406133
17799,NaN,-3.039745,5.867535,7.352132,-0.008091,0.241182,0.069801,0.083583,-0.269973,0.022163,0.057150,0.182261,-0.319191,-0.928241,40.047595,17.570592,-166.506487
17800,NaN,-2.974708,5.818321,7.371407,-0.054986,0.285861,0.033865,0.088811,-0.266029,0.020190,0.056676,0.181022,-0.319749,-0.928321,40.075919,17.448536,-166.605782
17801,NaN,-2.817083,5.853755,7.243623,-0.134388,0.160082,-0.084956,0.102341,-0.256343,0.034458,0.056273,0.179801,-0.320373,-0.928367,40.114291,17.324690,-166.695220
17802,NaN,-2.356207,5.812335,7.073591,-0.483145,0.006734,-0.371441,0.132737,-0.180688,0.051904,0.056044,0.178920,-0.321138,-0.928287,40.182273,17.228436,-166.747020
17803,NaN,-2.624727,5.948893,7.240054,-0.286791,0.068709,-0.085925,0.139946,-0.085854,0.044855,0.055928,0.178483,-0.321897,-0.928115,40.263331,17.175486,-166.765865
17804,NaN,-3.377259,6.208991,7.670343,0.257029,0.291052,0.610403,0.104175,-0.053836,0.042253,0.055883,0.178197,-0.322485,-0.927969,40.328195,17.138371,-166.773110
17805,NaN,-3.509540,6.357342,7.946778,0.282987,0.373848,0.942037,0.065371,-0.078790,0.043105,0.055837,0.177775,-0.322894,-0.927910,40.367073,17.089198,-166.790126
17806,NaN,-3.302068,6.386849,8.044327,0.061858,0.368553,0.970031,0.016902,-0.074459,0.050529,0.055875,0.177356,-0.323089,-0.927920,40.380689,17.040020,-166.801648
17807,NaN,-3.228736,6.333944,8.012722,0.013605,0.377628,0.892662,-0.031276,-0.045237,0.047168,0.055988,0.177057,-0.323044,-0.927987,40.368533,17.004023,-166.803806
17808,NaN,-3.171333,6.130151,7.875489,0.018275,0.443072,0.649759,-0.067854,-0.025538,0.033505,0.056101,0.176868,-0.322817,-0.928094,40.336882,16.982517,-166.804100
17809,NaN,-3.079487,6.101872,7.668248,0.012803,0.319209,0.454544,-0.090720,-0.007247,0.018376,0.056194,0.176775,-0.322459,-0.928231,40.291094,16.973805,-166.804656
17810,NaN,-3.113906,6.063996,7.444323,0.130465,0.218604,0.277981,-0.118840,-0.011658,0.022719,0.056325,0.176654,-0.321983,-0.928412,40.230371,16.962361,-166.804471
17811,NaN,-3.139449,6.040305,7.333288,0.201389,0.167885,0.189801,-0.142603,-0.059243,0.020073,0.056388,0.176301,-0.321400,-0.928677,40.149203,16.930281,-166.824335
17812,NaN,-3.012053,5.881829,7.233391,0.130542,0.195764,-0.018049,-0.136360,-0.109767,0.018336,0.056356,0.175727,-0.320865,-0.928972,40.066861,16.877462,-166.863974
17813,NaN,-2.792587,5.836635,7.058218,0.003006,0.072325,-0.237823,-0.117684,-0.148375,0.014300,0.056227,0.174977,-0.320417,-0.929276,39.989312,16.808378,-166.920696
17814,NaN,-2.643045,5.770045,6.922061,-0.073051,0.005637,-0.421806,-0.100322,-0.148222,0.017691,0.056098,0.174235,-0.320060,-0.929547,39.923405,16.738807,-166.975237
17815,NaN,-2.590928,5.769650,6.830058,-0.076587,-0.064871,-0.504553,-0.078938,-0.111751,0.017729,0.056010,0.173660,-0.319784,-0.929754,39.872732,16.684437,-167.016129
17816,NaN,-2.575524,5.731529,6.683358,-0.030485,-0.126187,-0.640219,-0.036623,-0.055862,0.014475,0.055958,0.173370,-0.319694,-0.929842,39.853191,16.656581,-167.036591
17817,NaN,-2.506574,5.868673,6.732134,-0.110201,-0.221842,-0.539904,-0.004681,-0.004446,0.016855,0.055973,0.173316,-0.319733,-0.929838,39.856804,16.649692,-167.036700
17818,NaN,-2.672065,6.044291,6.956475,-0.038528,-0.194540,-0.219638,0.003337,0.050090,0.016181,0.056065,0.173527,-0.319801,-0.929770,39.872030,16.667807,-167.015763
17819,NaN,-2.643218,6.109810,7.137323,-0.135497,-0.146713,-0.054723,0.006385,0.089196,0.018840,0.056229,0.173909,-0.319866,-0.929666,39.892582,16.701349,-166.979042
17820,NaN,-2.655357,6.113338,7.274006,-0.181485,-0.066043,0.051271,0.006441,0.141171,0.029505,0.056525,0.174523,-0.319934,-0.929510,39.921439,16.754582,-166.917011
17821,NaN,-2.657278,6.184020,7.383178,-0.231298,-0.056383,0.175198,0.005951,0.192131,0.031286,0.056912,0.175362,-0.319980,-0.929313,39.954910,16.828716,-166.834976
17822,NaN,-2.554618,6.281551,7.550609,-0.404389,-0.057540,0.327766,-0.001307,0.248511,0.035121,0.057413,0.176464,-0.319985,-0.929071,39.992252,16.926943,-166.728965
17823,NaN,-2.354839,6.361646,7.594594,-0.629544,-0.139295,0.349885,-0.020041,0.366472,0.031878,0.058104,0.178104,-0.319859,-0.928759,40.030891,17.077234,-166.579317
17824,NaN,-2.601894,6.467725,7.677268,-0.459793,-0.123440,0.546610,-0.063299,0.429038,0.055381,0.059042,0.179992,-0.319541,-0.928445,40.056598,17.247053,-166.394071
17825,NaN,-3.103124,6.300645,7.466722,0.060761,-0.003386,0.437957,-0.086438,0.307732,0.098181,0.060007,0.181232,-0.319182,-0.928266,40.060348,17.346960,-166.236302
17826,NaN,-3.093851,6.148865,7.226182,0.134573,-0.025249,0.166262,-0.074382,0.092800,0.124493,0.060739,0.181445,-0.318973,-0.928248,40.051081,17.343801,-166.148963
17827,NaN,-2.929872,6.127573,6.987010,0.078574,-0.182346,-0.070502,-0.044922,-0.044985,0.122727,0.061217,0.181022,-0.318934,-0.928313,40.041488,17.280002,-166.116120
17828,NaN,-2.897289,6.135520,6.880851,0.099130,-0.254148,-0.152948,-0.015267,-0.063892,0.114640,0.061599,0.180541,-0.319038,-0.928345,40.046660,17.211763,-166.093834
17829,NaN,-2.906390,6.115510,6.741254,0.169839,-0.311172,-0.264630,0.015878,-0.047749,0.105291,0.061937,0.180151,-0.319267,-0.928320,40.069174,17.153184,-166.070083
17830,NaN,-2.647446,5.996481,6.700082,-0.048300,-0.292949,-0.444139,0.051512,-0.009315,0.103521,0.062295,0.179962,-0.319654,-0.928200,40.117250,17.112951,-166.031898
17831,NaN,-2.789163,6.123492,6.924799,0.001602,-0.222982,-0.159725,0.061805,0.042568,0.087077,0.062651,0.180035,-0.320051,-0.928025,40.173872,17.100623,-165.981673
17832,NaN,-3.132398,6.163797,7.223869,0.206319,0.004727,0.184612,0.057815,0.061321,0.063276,0.062929,0.180240,-0.320409,-0.927843,40.228135,17.106117,-165.934667
17833,NaN,-3.092614,6.137432,7.366063,0.113070,0.105761,0.260408,0.058383,0.049785,0.045510,0.063107,0.180411,-0.320750,-0.927679,40.278038,17.112258,-165.900679
17834,NaN,-2.864708,6.073379,7.315317,-0.083265,0.081483,0.116702,0.052480,0.062997,0.034827,0.063260,0.180668,-0.321057,-0.927513,40.325624,17.128948,-165.866017
17835,NaN,-2.877118,6.098862,7.151962,-0.015314,-0.022844,0.017050,0.048546,0.066172,0.022110,0.063365,0.180950,-0.321326,-0.927357,40.368629,17.150880,-165.836344
17836,NaN,-3.066885,6.194437,7.344324,0.084396,0.062211,0.272199,0.038763,0.018995,0.015244,0.063369,0.181030,-0.321566,-0.927258,40.400703,17.155588,-165.827690
17837,NaN,-2.927389,6.078014,7.254624,-0.011607,0.073572,0.093668,0.022587,-0.019065,0.009694,0.063303,0.180928,-0.321731,-0.927226,40.417409,17.144922,-165.836789
17838,NaN,-2.781777,6.065470,7.233449,-0.135816,0.039630,0.027586,-0.006743,-0.037281,0.036767,0.063358,0.180698,-0.321796,-0.927244,40.419858,17.117082,-165.840185
17839,NaN,-2.809540,5.968192,7.239689,-0.106372,0.127416,-0.019916,-0.011481,-0.069110,0.043532,0.063398,0.180299,-0.321849,-0.927300,40.415869,17.072012,-165.853290
17840,NaN,-2.782806,5.941361,7.321025,-0.152621,0.190288,0.014911,-0.009914,-0.115218,0.036528,0.063330,0.179707,-0.321924,-0.927394,40.407603,17.010260,-165.887068
17841,NaN,-2.752224,6.114120,7.365216,-0.185279,0.074747,0.145408,-0.001854,-0.136781,0.044895,0.063259,0.178995,-0.322045,-0.927495,40.401654,16.935149,-165.925813
17842,NaN,-2.754494,6.247700,7.356900,-0.168259,-0.031849,0.223031,0.001669,-0.112436,0.036058,0.063182,0.178419,-0.322172,-0.927567,40.400364,16.874779,-165.958689
17843,NaN,-2.782396,6.316476,7.513981,-0.192158,0.012437,0.388412,-0.011074,-0.066311,0.020541,0.063120,0.178070,-0.322205,-0.927626,40.393923,16.839437,-165.981163
17844,NaN,-2.863206,6.276470,7.645299,-0.162102,0.136505,0.482832,-0.052774,-0.003593,0.009266,0.063143,0.178026,-0.322021,-0.927697,40.370174,16.836506,-165.984010
17845,NaN,-2.858586,6.282516,7.819051,-0.232027,0.224855,0.612027,-0.084584,0.070540,0.003263,0.063286,0.178316,-0.321655,-0.927759,40.334708,16.867296,-165.961296
17846,NaN,-2.684487,6.153011,7.752832,-0.376862,0.239218,0.432953,-0.116573,0.162973,0.010353,0.063639,0.179022,-0.321124,-0.927783,40.293308,16.936730,-165.899112
17847,NaN,-2.551024,5.853247,7.435368,-0.396702,0.250915,-0.023277,-0.129111,0.258839,0.022966,0.064216,0.180140,-0.320508,-0.927740,40.256278,17.042542,-165.794509
17848,NaN,-2.585395,5.843473,7.285786,-0.327589,0.170144,-0.128844,-0.138675,0.333861,0.041666,0.065008,0.181580,-0.319846,-0.927632,40.226108,17.175201,-165.651840
17849,NaN,-2.801874,5.919237,7.250903,-0.135451,0.130396,-0.043959,-0.158110,0.381640,0.066237,0.066008,0.183187,-0.319093,-0.927505,40.192860,17.318827,-165.479854
17850,NaN,-2.918985,6.258298,7.623015,-0.192339,0.089479,0.470894,-0.190255,0.443408,0.092116,0.067256,0.185037,-0.318199,-0.927355,40.153456,17.480959,-165.271546
17851,NaN,-3.034843,6.538308,7.851891,-0.201066,0.009433,0.844296,-0.221643,0.505162,0.087767,0.068610,0.187159,-0.317126,-0.927198,40.102192,17.670979,-165.041740
17852,NaN,-3.484502,6.509671,7.766775,0.217308,0.075043,0.901202,-0.270057,0.442538,0.103811,0.069984,0.188957,-0.315870,-0.927159,40.019838,17.828806,-164.828315
17853,NaN,-3.843406,6.433510,7.683070,0.563999,0.156209,0.904068,-0.303734,0.243833,0.127537,0.071186,0.189773,-0.314540,-0.927353,39.897190,17.890083,-164.681424
17854,NaN,-3.654585,6.420189,7.401478,0.504400,-0.060371,0.632339,-0.326703,0.067312,0.134134,0.072162,0.189762,-0.313180,-0.927740,39.742567,17.872514,-164.599182
17855,NaN,-3.299703,6.128704,6.975508,0.356194,-0.178646,0.033525,-0.335750,0.009070,0.129095,0.073032,0.189475,-0.311785,-0.928200,39.574036,17.830473,-164.542092
17856,NaN,-2.991826,5.875226,6.539902,0.255236,-0.317269,-0.535092,-0.302237,0.028268,0.122420,0.073869,0.189309,-0.310539,-0.928585,39.427126,17.800348,-164.480165
17857,NaN,-2.755414,5.718456,6.316430,0.131297,-0.394153,-0.867426,-0.271771,0.133547,0.115271,0.074807,0.189645,-0.309382,-0.928828,39.307886,17.818782,-164.381767
17858,NaN,-2.808807,5.697849,6.424045,0.134124,-0.322042,-0.784869,-0.245846,0.268648,0.099290,0.075855,0.190651,-0.308285,-0.928902,39.218160,17.903925,-164.238894
17859,NaN,-3.113528,5.645028,6.407390,0.408002,-0.224795,-0.735352,-0.223543,0.338868,0.117727,0.077076,0.191954,-0.307274,-0.928868,39.151296,18.012967,-164.061182
17860,NaN,-3.461312,5.598825,6.366479,0.730475,-0.130403,-0.685313,-0.209597,0.284063,0.147062,0.078334,0.192970,-0.306384,-0.928846,39.091503,18.088026,-163.890183
17861,NaN,-3.454214,5.598598,6.401147,0.705829,-0.122383,-0.661873,-0.187886,0.156757,0.147852,0.079381,0.193394,-0.305637,-0.928915,39.028378,18.105611,-163.767633
17862,NaN,-3.177584,5.713941,6.819344,0.289467,-0.071517,-0.370193,-0.174289,0.077016,0.162556,0.080360,0.193438,-0.305005,-0.929029,38.966763,18.083240,-163.668039
17863,NaN,-3.048545,5.897223,7.170854,0.040982,-0.071988,-0.041037,-0.162379,0.069374,0.172269,0.081361,0.193429,-0.304435,-0.929131,38.911492,18.053399,-163.567183
17864,NaN,-3.138542,5.867457,7.031577,0.186148,-0.104249,-0.134101,-0.143211,0.070438,0.172917,0.082348,0.193439,-0.303960,-0.929198,38.868329,18.024545,-163.465206
17865,NaN,-3.058348,5.757597,6.858227,0.186151,-0.134578,-0.352987,-0.124540,0.083921,0.165498,0.083303,0.193523,-0.303552,-0.929229,38.835388,18.003791,-163.362005
17866,NaN,-3.241931,5.829122,6.862446,0.355136,-0.143501,-0.250510,-0.118866,0.170616,0.134807,0.084242,0.194065,-0.303110,-0.929175,38.812318,18.033456,-163.240053
17867,NaN,-3.662769,6.184456,6.894553,0.732673,-0.300060,0.115625,-0.103210,0.221477,0.100635,0.085083,0.194896,-0.302681,-0.929065,38.798394,18.097523,-163.115302
17868,NaN,-2.887884,6.684485,7.621473,-0.267151,-0.537763,0.711022,-0.134650,0.339273,0.078616,0.086031,0.196299,-0.302038,-0.928891,38.778216,18.222750,-162.955973
17869,NaN,-3.008091,6.321392,7.677412,-0.221086,-0.196613,0.573054,-0.173542,0.470161,0.066125,0.087156,0.198306,-0.301140,-0.928651,38.749046,18.410406,-162.753340
17870,NaN,-3.446270,6.027978,7.442391,0.234224,0.024317,0.363115,-0.182573,0.418371,0.070349,0.088232,0.200067,-0.300230,-0.928467,38.710589,18.574106,-162.567838
17871,NaN,-3.652149,5.935143,7.191049,0.504021,0.013314,0.188366,-0.179552,0.267642,0.088551,0.089162,0.201095,-0.299413,-0.928420,38.657972,18.663425,-162.431070
17872,NaN,-3.483829,5.865835,7.156916,0.356661,-0.007424,0.068570,-0.164623,0.128658,0.098132,0.089913,0.201476,-0.298741,-0.928481,38.599505,18.687823,-162.341931
17873,NaN,-3.260783,5.897551,7.652641,-0.053424,0.150798,0.382955,-0.150265,0.062155,0.115766,0.090633,0.201522,-0.298178,-0.928582,38.543088,18.675683,-162.269906
17874,NaN,-3.163617,5.624176,7.906011,-0.254786,0.466449,0.378599,-0.151449,-0.003237,0.152174,0.091424,0.201216,-0.297681,-0.928730,38.484405,18.621838,-162.204927
17875,NaN,-3.522296,5.197230,7.844061,0.090091,0.877784,0.195729,-0.127984,-0.109710,0.181272,0.092169,0.200377,-0.297364,-0.928939,38.429866,18.509380,-162.166541
17876,NaN,-3.495350,5.100257,7.552856,0.210105,0.798061,-0.086712,-0.081662,-0.237956,0.184457,0.092692,0.198964,-0.297330,-0.929202,38.387928,18.338775,-162.174332
17877,NaN,-3.278419,5.450771,7.496959,0.087887,0.427131,0.009383,-0.060087,-0.274274,0.188025,0.093155,0.197381,-0.297410,-0.929468,38.353731,18.150100,-162.194293
17878,NaN,-3.069371,5.591313,7.614485,-0.116407,0.316615,0.114566,-0.076987,-0.144025,0.151840,0.093660,0.196454,-0.297321,-0.929642,38.320705,18.033291,-162.182146
17879,NaN,-2.600954,5.358172,7.464033,-0.481016,0.289769,-0.280037,-0.073900,0.118660,0.122323,0.094416,0.196788,-0.297086,-0.929570,38.314524,18.044593,-162.086167
17880,NaN,-2.284713,5.241483,6.881097,-0.542461,-0.012314,-0.882510,-0.054452,0.443436,0.089982,0.095484,0.198694,-0.296763,-0.929158,38.353672,18.213792,-161.883591
17881,NaN,-2.983817,5.420029,6.924231,0.045081,0.066810,-0.527313,-0.073855,0.654521,0.054757,0.096720,0.201615,-0.296205,-0.928579,38.401199,18.489675,-161.618598
17882,NaN,-3.384801,5.595759,6.896667,0.381891,0.024154,-0.316014,-0.086524,0.677391,0.043483,0.097949,0.204658,-0.295569,-0.927987,38.445000,18.780149,-161.349263
17883,NaN,-3.599500,5.692460,6.870592,0.549348,-0.008802,-0.207295,-0.093994,0.542939,0.054543,0.099038,0.207048,-0.294966,-0.927533,38.470131,19.005731,-161.125147
17884,NaN,-3.646321,5.885501,7.054306,0.493375,-0.062134,0.059024,-0.076220,0.313926,0.067764,0.099832,0.208371,-0.294578,-0.927275,38.481051,19.124282,-160.980405
17885,NaN,-2.849227,6.178168,7.333607,-0.337428,-0.406048,0.176853,-0.065346,0.155148,0.088275,0.100474,0.208927,-0.294334,-0.927158,38.480955,19.163886,-160.886173
17886,NaN,-2.517254,6.215386,7.447326,-0.685516,-0.484254,0.173594,-0.075444,0.109220,0.109832,0.101160,0.209239,-0.294095,-0.927089,38.473791,19.175616,-160.798619
17887,NaN,-2.503751,5.969589,7.359148,-0.674322,-0.337516,-0.040625,-0.082148,0.111476,0.124825,0.101926,0.209530,-0.293832,-0.927023,38.464452,19.182547,-160.703495
17888,NaN,-2.877555,5.714873,7.206612,-0.291060,-0.095042,-0.180366,-0.088021,0.137726,0.114294,0.102688,0.209960,-0.293525,-0.926939,38.454353,19.205502,-160.603056
17889,NaN,-2.885827,5.455071,7.143466,-0.278054,0.081282,-0.377064,-0.093732,0.190937,0.096816,0.103452,0.210653,-0.293139,-0.926819,38.443969,19.258038,-160.491238
17890,NaN,-2.976662,5.341733,7.413770,-0.338193,0.330278,-0.213983,-0.106363,0.262079,0.079088,0.104252,0.211702,-0.292644,-0.926646,38.433543,19.349375,-160.360550
17891,NaN,-2.789105,5.100508,7.175561,-0.431325,0.339894,-0.594154,-0.078758,0.338867,0.071292,0.105099,0.213124,-0.292222,-0.926358,38.446607,19.477385,-160.204910
17892,NaN,-3.058082,5.105665,7.308241,-0.278413,0.480596,-0.404100,-0.082479,0.431154,0.051003,0.105989,0.215008,-0.291718,-0.925980,38.467445,19.654549,-160.023412
17893,NaN,-3.686446,5.340853,7.776469,0.045809,0.714920,0.290517,-0.109244,0.473576,0.023573,0.106844,0.217106,-0.291029,-0.925609,38.473551,19.859904,-159.839125
17894,NaN,-3.668404,5.486387,7.813020,-0.012633,0.595562,0.397402,-0.166761,0.475207,0.023886,0.107763,0.219186,-0.290079,-0.925310,38.448725,20.066483,-159.653402
17895,NaN,-3.802052,5.600376,7.964836,0.009097,0.602392,0.622605,-0.215530,0.446000,0.029303,0.108718,0.221089,-0.288916,-0.925110,38.392514,20.257610,-159.476584
17896,NaN,-3.869991,5.473598,7.902549,0.063321,0.675989,0.527832,-0.247115,0.337994,0.060308,0.109695,0.222435,-0.287706,-0.925049,38.310743,20.389921,-159.325421
17897,NaN,-3.877285,5.320167,7.705442,0.139885,0.687560,0.297655,-0.245928,0.175196,0.079189,0.110523,0.222995,-0.286602,-0.925158,38.210267,20.442022,-159.227486
17898,NaN,-3.618324,5.409646,7.627258,-0.044570,0.473894,0.202552,-0.232664,0.114384,0.088312,0.111291,0.223274,-0.285611,-0.925305,38.112157,20.464154,-159.147689
17899,NaN,-3.584387,5.477211,7.590480,-0.051475,0.373971,0.203326,-0.219630,0.145698,0.092134,0.112107,0.223693,-0.284658,-0.925399,38.025025,20.498722,-159.054815
17900,NaN,-3.765199,5.609858,7.738668,0.043210,0.382357,0.453087,-0.200136,0.175053,0.083215,0.112901,0.224277,-0.283777,-0.925431,37.952782,20.550272,-158.954664
17901,NaN,-3.295328,5.793629,7.759360,-0.368403,0.071043,0.409456,-0.170314,0.206477,0.097092,0.113770,0.224998,-0.283023,-0.925381,37.902880,20.610801,-158.836580
17902,NaN,-3.100547,6.078211,7.832107,-0.560203,-0.205301,0.557652,-0.176579,0.296422,0.106895,0.114820,0.226122,-0.282207,-0.925227,37.864491,20.709076,-158.679361
17903,NaN,-3.380010,6.314373,7.858032,-0.325890,-0.306987,0.810115,-0.214740,0.385576,0.099591,0.116003,0.227640,-0.281146,-0.925030,37.813844,20.849890,-158.492698
17904,NaN,-3.034549,6.283228,7.854850,-0.650434,-0.422700,0.665112,-0.255696,0.495743,0.122346,0.117492,0.229617,-0.279864,-0.924742,37.760344,21.033242,-158.252948
17905,NaN,-2.602461,6.217435,7.534919,-0.907898,-0.693660,0.232144,-0.278933,0.749928,0.125680,0.119378,0.232741,-0.278317,-0.924186,37.728357,21.330210,-157.916317
17906,NaN,-2.711092,6.096326,7.249273,-0.735819,-0.718166,-0.014240,-0.275114,1.037642,0.131522,0.121684,0.237191,-0.276625,-0.923262,37.743031,21.756092,-157.466998
17907,NaN,-2.816553,6.032090,6.761586,-0.473217,-0.880390,-0.376663,-0.290558,1.272156,0.152820,0.124427,0.242668,-0.274727,-0.922039,37.788851,22.279848,-156.917385
17908,NaN,-4.085087,6.040594,7.039101,0.385299,-0.331278,0.309903,-0.296939,1.265475,0.169194,0.127239,0.248085,-0.272820,-0.920779,37.839994,22.795049,-156.359153
17909,NaN,-4.100817,6.112851,7.125590,0.282862,-0.370620,0.421562,-0.285955,1.111338,0.186801,0.129903,0.252758,-0.271065,-0.919653,37.881780,23.233252,-155.849357
17910,NaN,-4.003957,6.361984,7.599697,-0.094678,-0.430241,0.867548,-0.296762,1.018337,0.211279,0.132563,0.256964,-0.269351,-0.918611,37.913352,23.621154,-155.360675
17911,NaN,-3.595287,6.435933,7.920890,-0.666669,-0.539198,0.973980,-0.304312,1.027278,0.193606,0.135160,0.261214,-0.267559,-0.917557,37.941021,24.018438,-154.876201
17912,NaN,-3.453361,6.164429,7.530579,-0.662744,-0.566852,0.476848,-0.297744,1.054447,0.214215,0.137875,0.265565,-0.265805,-0.916413,37.985965,24.421100,-154.368627
17913,NaN,-3.636731,5.828112,6.988964,-0.307557,-0.469825,-0.028892,-0.282026,1.021343,0.217874,0.140537,0.269755,-0.264136,-0.915267,38.038142,24.806400,-153.870744
17914,NaN,-3.353724,5.634376,6.370389,-0.265599,-0.697585,-0.701262,-0.245396,1.020690,0.221021,0.143160,0.273964,-0.262638,-0.914041,38.116933,25.190511,-153.368892
17915,NaN,-3.388743,5.827743,6.338241,-0.254810,-0.875104,-0.604628,-0.241817,1.170664,0.221111,0.145971,0.278843,-0.261035,-0.912579,38.226239,25.640620,-152.806404
17916,NaN,-3.473072,6.060055,6.602862,-0.387704,-0.951652,-0.256136,-0.276819,1.425445,0.212936,0.149120,0.284866,-0.259069,-0.910768,38.364847,26.207878,-152.143301
17917,NaN,-3.227499,6.086681,6.786537,-0.786286,-1.042870,-0.230701,-0.331732,1.853649,0.202653,0.152843,0.292782,-0.256495,-0.908365,38.554397,26.968373,-151.309727
17918,NaN,-3.518350,5.930227,6.809864,-0.724583,-0.832450,-0.184580,-0.377140,2.348379,0.184997,0.157170,0.302908,-0.253287,-0.905202,38.822893,27.954314,-150.274814
17919,NaN,-4.070357,5.752394,6.608154,-0.365407,-0.577277,-0.176525,-0.410705,2.742070,0.155430,0.161887,0.314766,-0.249526,-0.901361,39.166120,29.120384,-149.077625
17920,NaN,-4.348181,5.422799,6.270223,-0.176308,-0.360787,-0.460461,-0.427983,3.012662,0.144886,0.166886,0.327787,-0.245404,-0.896929,39.588022,30.404039,-147.748539
17921,NaN,-4.416262,5.278246,6.176992,-0.293842,-0.306068,-0.575038,-0.419786,3.207551,0.121911,0.171967,0.341625,-0.241053,-0.891971,40.092728,31.771551,-146.318188
17922,NaN,-4.542064,5.337828,6.077614,-0.349917,-0.396709,-0.551177,-0.415489,3.359915,0.099945,0.177078,0.356090,-0.236491,-0.886518,40.680615,33.202939,-144.794193
17923,NaN,-4.811824,5.622737,6.126073,-0.390561,-0.562910,-0.230254,-0.451559,3.437490,0.104960,0.182317,0.370747,-0.231637,-0.880711,41.324209,34.651138,-143.189529
17924,NaN,-4.615162,5.984431,6.443341,-0.936003,-0.962277,0.027137,-0.554858,3.520471,0.098287,0.187757,0.385578,-0.226172,-0.874599,41.992098,36.123036,-141.500020
17925,NaN,-4.041094,6.130410,6.658681,-1.676150,-1.435241,-0.149636,-0.652406,3.820288,0.063109,0.193506,0.401524,-0.219850,-0.867756,42.748890,37.717209,-139.629147
17926,NaN,-4.158636,6.290402,6.729810,-1.888515,-1.638789,-0.020192,-0.730082,4.315098,0.011713,0.199648,0.419438,-0.212519,-0.859679,43.690105,39.516913,-137.462857
17927,NaN,-5.716820,6.182315,6.261134,-0.947582,-0.991347,0.589816,-0.824546,4.804924,-0.042506,0.206171,0.439183,-0.204063,-0.850277,44.846374,41.506867,-134.966324
17928,NaN,-7.522283,5.718438,5.864340,-0.123024,0.121746,1.306162,-0.909852,5.061924,-0.109735,0.212726,0.459738,-0.194706,-0.839927,46.186702,43.586988,-132.224603
17929,NaN,-8.126016,5.250120,5.509229,-0.039853,0.620409,1.302271,-0.960683,5.126404,-0.199020,0.218945,0.480276,-0.184731,-0.829019,47.678798,45.678002,-129.327369
17930,NaN,-7.642368,4.912291,4.959665,-0.264261,0.409059,0.525597,-1.005416,5.287295,-0.317191,0.224775,0.501217,-0.173981,-0.817305,49.390508,47.823647,-126.197240
17931,NaN,-7.161450,4.572781,4.579310,-0.585474,0.222932,-0.181579,-1.034118,5.440606,-0.342185,0.230541,0.522387,-0.162748,-0.804659,51.407706,49.964535,-122.743370
17932,NaN,-7.063500,4.333910,4.278839,-0.780261,0.173814,-0.521287,-1.058999,5.461013,-0.326332,0.236273,0.543207,-0.151308,-0.791332,53.730188,52.018920,-118.984053
17933,NaN,-7.415837,4.178148,3.679560,-0.524697,0.321586,-0.560769,-1.068322,5.295877,-0.301005,0.241829,0.562922,-0.139980,-0.777845,56.280476,53.903885,-115.031426
17934,NaN,-8.369982,4.031857,3.165970,-0.204354,0.814006,-0.034245,-1.073335,4.865010,-0.255879,0.247109,0.580557,-0.129187,-0.764985,58.881345,55.526448,-111.101561
17935,NaN,-8.748968,4.085832,2.921134,-0.231021,0.835602,0.237637,-1.079001,4.289874,-0.218565,0.252040,0.595627,-0.119117,-0.753336,61.351087,56.863497,-107.393723
17936,NaN,-8.242340,4.023482,2.782205,-0.492525,0.498818,-0.254104,-1.075149,3.801903,-0.195639,0.256644,0.608601,-0.109694,-0.742769,63.679189,57.972699,-103.908796
17937,NaN,-7.647101,4.007152,2.672223,-0.708841,0.093144,-0.803817,-1.042284,3.526731,-0.170563,0.260996,0.620349,-0.100780,-0.732729,65.990460,58.924629,-100.503804
17938,NaN,-7.662205,3.957010,2.490402,-0.759754,0.054079,-0.869284,-1.011841,3.383908,-0.148853,0.265177,0.631413,-0.092201,-0.722840,68.371026,59.759814,-97.071294
17939,NaN,-7.965141,3.920274,2.147525,-0.630068,0.188266,-0.702986,-1.002564,3.314040,-0.165273,0.269155,0.642039,-0.083665,-0.712980,70.836370,60.515051,-93.573953
17940,NaN,-8.298544,3.879527,1.554197,-0.274354,0.407284,-0.534431,-0.984708,3.271500,-0.185796,0.272907,0.652369,-0.075163,-0.703055,73.414493,61.196625,-89.984797
17941,NaN,-8.641782,3.682845,0.907606,0.069727,0.792824,-0.409017,-0.947881,3.202006,-0.202607,0.276374,0.662314,-0.066805,-0.693177,76.072218,61.796665,-86.350253
17942,NaN,-8.812940,3.540913,0.246095,0.432192,1.075168,-0.383004,-0.876928,3.072439,-0.207808,0.279472,0.671744,-0.058841,-0.683515,78.760948,62.301549,-82.746200
17943,NaN,-8.666402,3.330358,-0.707992,1.070541,1.382626,-0.667347,-0.764629,2.845306,-0.199212,0.282087,0.680384,-0.051587,-0.674421,81.368153,62.701069,-79.320725
17944,NaN,-8.431386,3.364276,-1.192311,1.363869,1.335423,-0.858275,-0.649816,2.573020,-0.167538,0.284295,0.688136,-0.045208,-0.666034,83.824612,62.991521,-76.149933
17945,NaN,-9.130690,3.534675,-1.116029,1.090778,1.419224,-0.122378,-0.541842,2.222242,-0.093711,0.286251,0.694742,-0.039928,-0.658635,86.001511,63.164141,-73.367944
17946,NaN,-10.285679,3.695831,-1.168698,0.878675,1.751084,1.003026,-0.433633,1.721389,-0.026110,0.287927,0.699777,-0.035958,-0.652776,87.704128,63.238610,-71.190347
17947,NaN,-10.902026,4.004722,-0.989778,0.593027,1.651268,1.710863,-0.328620,1.146713,-0.020193,0.289131,0.703039,-0.033169,-0.648875,88.818689,63.276703,-69.739179
17948,NaN,-10.377406,4.320666,-0.672887,0.406078,1.025834,1.394187,-0.266103,0.604387,-0.000644,0.290087,0.704621,-0.031443,-0.646816,89.357405,63.288038,-68.973569
17949,NaN,-9.500572,4.574659,-0.255911,0.215851,0.285115,0.728943,-0.244560,0.193905,0.031083,0.290997,0.704890,-0.030485,-0.646159,89.439116,63.278199,-68.732998
17950,NaN,-9.166087,4.653284,0.148246,-0.074796,-0.065028,0.467504,-0.243552,-0.081890,0.046205,0.291915,0.704272,-0.029992,-0.646441,89.210373,63.256637,-68.841059
17951,NaN,-8.792347,4.585670,0.051619,0.073564,-0.121167,0.102768,-0.233718,-0.175677,-0.011555,0.292592,0.703367,-0.029457,-0.647145,88.877184,63.268368,-69.071980
17952,NaN,-8.524217,4.382359,-0.644177,0.713445,0.197096,-0.234877,-0.213991,-0.049547,-0.078207,0.293008,0.702914,-0.028575,-0.647489,88.699504,63.318011,-69.141814
17953,NaN,-8.745713,4.172366,-1.263279,1.188976,0.690535,-0.137900,-0.168070,0.102744,-0.097675,0.293215,0.703016,-0.027542,-0.647329,88.718714,63.382043,-69.020376
17954,NaN,-9.178564,4.100496,-1.137893,0.977278,0.873641,0.219090,-0.114878,0.140783,-0.102680,0.293229,0.703327,-0.026616,-0.647024,88.814712,63.448040,-68.847602
17955,NaN,-9.400932,4.226313,-0.880649,0.745275,0.754575,0.477597,-0.059101,0.043054,-0.079659,0.293102,0.703393,-0.026086,-0.647030,88.829519,63.500981,-68.801068
17956,NaN,-9.099344,4.407960,-0.702779,0.698213,0.405325,0.290295,-0.026988,-0.092433,-0.066871,0.292893,0.703072,-0.025911,-0.647481,88.709285,63.543592,-68.926285
17957,NaN,-8.659249,4.342986,-0.739993,0.793829,0.287331,-0.133897,-0.012202,-0.137857,-0.053975,0.292660,0.702620,-0.025889,-0.648079,88.543335,63.579438,-69.111710
17958,NaN,-8.649257,4.247982,-0.549276,0.598958,0.288357,-0.183835,0.005741,-0.124765,-0.043449,0.292406,0.702238,-0.025950,-0.648604,88.404487,63.607852,-69.278570
17959,NaN,-8.925313,4.286498,-0.463939,0.501448,0.337667,0.080999,0.025633,-0.128877,-0.041402,0.292082,0.701868,-0.026081,-0.649145,88.270427,63.636225,-69.452533
17960,NaN,-9.011360,4.269719,-0.391098,0.428933,0.360253,0.150960,0.048267,-0.206182,-0.030423,0.291711,0.701281,-0.026444,-0.649931,88.061665,63.655288,-69.724532
17961,NaN,-8.957730,4.276130,-0.409645,0.477720,0.343301,0.104363,0.073086,-0.322894,-0.020241,0.291262,0.700346,-0.027087,-0.651113,87.730766,63.666881,-70.148438
17962,NaN,-8.841235,4.235668,-0.402037,0.503405,0.333673,-0.019573,0.101793,-0.441695,-0.002333,0.290761,0.699063,-0.028066,-0.652672,87.281107,63.662601,-70.723405
17963,NaN,-8.640802,4.191329,-0.184005,0.351033,0.217845,-0.216139,0.115322,-0.532208,0.002089,0.290206,0.697497,-0.029228,-0.654541,86.733781,63.652249,-71.415848
17964,NaN,-8.484869,4.270271,0.028785,0.240221,0.022597,-0.316862,0.114570,-0.537736,-0.000602,0.289648,0.695910,-0.030394,-0.656422,86.181380,63.638912,-72.113739
17965,NaN,-8.339380,4.296286,0.239328,0.108822,-0.123823,-0.430080,0.088901,-0.481102,-0.002027,0.289175,0.694464,-0.031381,-0.658113,85.678749,63.627208,-72.739548
17966,NaN,-8.211279,4.212009,0.336579,0.036898,-0.132135,-0.579025,0.063525,-0.381034,-0.008035,0.288791,0.693311,-0.032126,-0.659460,85.278072,63.619903,-73.235573
17967,NaN,-8.350100,4.104824,0.181696,0.149833,0.078528,-0.507951,0.055824,-0.247500,-0.010482,0.288440,0.692582,-0.032637,-0.660354,85.025257,63.620536,-73.561435
17968,NaN,-8.809611,4.076198,0.217407,0.062296,0.288340,-0.107798,0.052114,-0.124280,-0.018206,0.288102,0.692259,-0.032939,-0.660825,84.912664,63.629978,-73.728600
17969,NaN,-8.864380,4.104064,0.417071,-0.114934,0.217748,-0.038543,0.036134,-0.063283,-0.008817,0.287854,0.692109,-0.033125,-0.661081,84.860701,63.638410,-73.817665
17970,NaN,-8.602338,4.119804,0.738351,-0.374517,-0.020235,-0.253530,0.017477,-0.033924,0.017079,0.287768,0.692028,-0.033304,-0.661194,84.835848,63.632209,-73.864739
17971,NaN,-8.171014,4.223082,1.095628,-0.619727,-0.414351,-0.579890,-0.011386,-0.010392,0.045881,0.287874,0.691976,-0.033446,-0.661196,84.823179,63.612135,-73.879552
17972,NaN,-7.826712,4.268027,0.978584,-0.454805,-0.553776,-0.873024,-0.052769,0.053875,0.067222,0.288212,0.692075,-0.033441,-0.660945,84.864267,63.581839,-73.808086
17973,NaN,-8.320387,4.123071,0.692903,-0.304334,-0.118770,-0.506671,-0.064574,0.133880,0.066849,0.288595,0.692419,-0.033271,-0.660426,84.988686,63.557072,-73.635752
17974,NaN,-9.103303,4.160641,0.490765,-0.211896,0.257094,0.202846,-0.058463,0.141824,0.056350,0.288931,0.692802,-0.033083,-0.659886,85.125967,63.537207,-73.453171
17975,NaN,-9.232255,4.339344,0.404756,-0.096328,0.194800,0.394224,-0.045023,0.069754,0.041230,0.289151,0.692966,-0.032982,-0.659623,85.185053,63.523670,-73.366268
17976,NaN,-8.963496,4.553235,0.541122,-0.119861,-0.143531,0.253794,-0.062314,0.003098,0.052355,0.289464,0.692886,-0.032967,-0.659570,85.160471,63.499233,-73.362011
17977,NaN,-8.797129,4.620789,0.573496,-0.103601,-0.277069,0.136311,-0.078674,-0.029174,0.056934,0.289836,0.692672,-0.032953,-0.659632,85.088450,63.471936,-73.400041
17978,NaN,-8.856854,4.548083,0.482313,-0.045242,-0.151693,0.154081,-0.097258,-0.055359,0.056437,0.290274,0.692348,-0.032921,-0.659782,84.977562,63.442273,-73.469877
17979,NaN,-9.004359,4.391630,0.260276,0.098034,0.127546,0.207630,-0.090058,-0.069705,0.039493,0.290621,0.691986,-0.032868,-0.660011,84.851240,63.422780,-73.561334
17980,NaN,-9.099188,4.268081,0.115625,0.186595,0.327805,0.231357,-0.070307,-0.054500,0.025048,0.290862,0.691708,-0.032816,-0.660198,84.753866,63.410947,-73.633350
17981,NaN,-8.966876,4.295328,0.127628,0.206739,0.247471,0.125472,-0.047236,-0.031512,0.023525,0.291015,0.691537,-0.032793,-0.660311,84.694217,63.402458,-73.677715
17982,NaN,-8.676638,4.377277,0.240747,0.167686,0.016963,-0.092905,-0.042312,0.003584,0.033172,0.291195,0.691491,-0.032777,-0.660281,84.680011,63.389007,-73.674667
17983,NaN,-8.349209,4.257211,0.183452,0.220144,-0.001485,-0.441545,-0.042802,0.049141,0.048016,0.291427,0.691589,-0.032736,-0.660078,84.717421,63.370810,-73.613328
17984,NaN,-8.659485,4.261424,0.372084,0.001097,0.063100,-0.154486,-0.023515,0.074883,0.064244,0.291656,0.691800,-0.032785,-0.659753,84.798274,63.343362,-73.515977
17985,NaN,-8.921090,4.319726,0.375667,-0.021296,0.130113,0.105459,-0.005087,0.020869,0.078392,0.291852,0.691855,-0.033015,-0.659598,84.828155,63.306307,-73.487224
17986,NaN,-8.880416,4.474216,0.341129,0.066691,0.003760,0.136800,0.011357,-0.044910,0.075638,0.291979,0.691720,-0.033393,-0.659664,84.794016,63.266109,-73.540913
17987,NaN,-8.649706,4.494693,0.387900,0.059841,-0.122275,-0.058119,0.005789,-0.035920,0.080495,0.292135,0.691602,-0.033749,-0.659700,84.766043,63.224902,-73.583911
17988,NaN,-8.668572,4.519305,0.420806,0.033815,-0.138894,-0.028778,0.021554,-0.018616,0.086786,0.292268,0.691567,-0.034161,-0.659658,84.768838,63.179699,-73.602807
17989,NaN,-8.738536,4.633828,0.402764,0.077642,-0.190481,0.084498,0.033069,-0.006136,0.074446,0.292315,0.691588,-0.034543,-0.659594,84.789606,63.143471,-73.608728
17990,NaN,-8.886731,4.631350,0.372261,0.082457,-0.108194,0.214449,0.037850,0.003470,0.064248,0.292320,0.691653,-0.034899,-0.659505,84.824294,63.112279,-73.602349
17991,NaN,-9.049922,4.588681,0.429632,-0.009889,-0.018558,0.343159,0.041805,-0.006505,0.057523,0.292281,0.691689,-0.035251,-0.659466,84.847890,63.085663,-73.610717
17992,NaN,-9.009020,4.575698,0.562870,-0.135662,-0.069235,0.306259,0.046225,-0.028211,0.046644,0.292194,0.691664,-0.035620,-0.659511,84.849940,63.062885,-73.646324
17993,NaN,-8.750461,4.469599,0.447883,-0.032218,-0.049590,0.023215,0.051462,-0.027174,0.039288,0.292058,0.691649,-0.035971,-0.659568,84.854002,63.045604,-73.682810
17994,NaN,-8.388023,4.269013,0.306604,0.075984,0.011031,-0.396132,0.070321,-0.002761,0.033127,0.291847,0.691745,-0.036336,-0.659540,84.897077,63.031849,-73.687889
17995,NaN,-8.570699,4.175558,0.471681,-0.137997,0.110248,-0.268923,0.079670,0.030814,0.047367,0.291651,0.691961,-0.036723,-0.659380,84.983119,63.012902,-73.650532
17996,NaN,-9.002629,4.176576,0.555290,-0.277262,0.269879,0.119571,0.091855,0.000666,0.049253,0.291419,0.692097,-0.037210,-0.659312,85.043890,62.990119,-73.649600
17997,NaN,-9.074276,4.340935,0.775404,-0.439683,0.091907,0.266285,0.104731,-0.085915,0.063951,0.291169,0.691960,-0.037907,-0.659526,85.015118,62.955909,-73.757228
17998,NaN,-8.954022,4.610508,0.755471,-0.313223,-0.168347,0.280656,0.095845,-0.149378,0.063707,0.290942,0.691604,-0.038675,-0.659955,84.912022,62.917330,-73.942879
17999,NaN,-8.880968,4.803071,0.805767,-0.279964,-0.367983,0.305441,0.080338,-0.177531,0.056726,0.290735,0.691130,-0.039401,-0.660501,84.766795,62.882361,-74.165670
18000,NaN,-8.896304,4.695946,0.657868,-0.169056,-0.211437,0.264793,0.052358,-0.178491,0.047187,0.290598,0.690616,-0.040010,-0.661061,84.605524,62.851253,-74.388808
18001,NaN,-8.895915,4.675980,0.605754,-0.116293,-0.169196,0.253438,0.038628,-0.154525,0.031258,0.290454,0.690160,-0.040477,-0.661571,84.460044,62.831485,-74.585119
18002,NaN,-8.615146,4.648413,0.431582,0.080399,-0.204120,-0.016433,0.037426,-0.116740,0.017410,0.290283,0.689834,-0.040844,-0.661964,84.356216,62.820312,-74.734152
18003,NaN,-8.492173,4.630284,0.421586,0.104062,-0.237024,-0.134503,0.023444,-0.062508,0.014343,0.290154,0.689664,-0.041069,-0.662184,84.302632,62.815048,-74.817413
18004,NaN,-8.586212,4.478878,0.557582,-0.082461,-0.116171,-0.113513,0.018373,-0.014721,0.007170,0.290035,0.689649,-0.041190,-0.662244,84.300104,62.815390,-74.840310
18005,NaN,-8.612073,4.373921,0.562194,-0.123116,-0.018981,-0.138002,0.023251,-0.038312,0.011732,0.289904,0.689559,-0.041369,-0.662384,84.272991,62.812937,-74.893689
18006,NaN,-8.674450,4.438314,0.638144,-0.177071,-0.068868,-0.049704,0.037043,-0.094023,0.014491,0.289728,0.689308,-0.041693,-0.662702,84.193989,62.804528,-75.014588
18007,NaN,-8.734566,4.372453,0.526427,-0.093701,0.054163,-0.031256,0.037611,-0.129957,0.013026,0.289532,0.688934,-0.042057,-0.663153,84.073613,62.795898,-75.182072
18008,NaN,-9.162388,4.328157,0.317126,0.048740,0.357279,0.319086,0.051329,-0.181598,0.026129,0.289328,0.688410,-0.042594,-0.663753,83.907294,62.775370,-75.410386
18009,NaN,-9.245381,4.368024,0.176085,0.199682,0.415505,0.403729,0.072670,-0.236034,0.004407,0.288959,0.687735,-0.043199,-0.664572,83.688855,62.764655,-75.710790
18010,NaN,-9.000354,4.442866,0.210376,0.236969,0.239008,0.221075,0.071861,-0.244298,-0.000523,0.288581,0.687036,-0.043803,-0.665420,83.462159,62.754526,-76.020297
18011,NaN,-8.670403,4.596394,0.503224,0.063399,-0.128622,0.012555,0.068862,-0.198831,0.009156,0.288249,0.686477,-0.044358,-0.666104,83.283749,62.742577,-76.273288
18012,NaN,-8.435297,4.730458,0.524898,0.121127,-0.348228,-0.134307,0.059585,-0.107699,0.000016,0.287944,0.686213,-0.044726,-0.666483,83.201274,62.740527,-76.412696
18013,NaN,-8.538495,4.824780,0.554229,0.116288,-0.390327,0.001878,0.058446,-0.041087,-0.009337,0.287621,0.686168,-0.044955,-0.666653,83.188791,62.749408,-76.472334
18014,NaN,-8.548905,5.014237,0.742734,-0.000481,-0.607455,0.107444,0.038097,-0.027429,-0.010462,0.287373,0.686143,-0.045100,-0.666776,83.181240,62.758713,-76.513603
18015,NaN,-8.095476,4.912361,0.738914,0.020393,-0.723495,-0.342199,0.004137,-0.039587,0.013732,0.287314,0.686020,-0.045225,-0.666920,83.142305,62.754481,-76.567984
18016,NaN,-7.858275,4.872316,0.891804,-0.109185,-0.844762,-0.562730,-0.018347,-0.023511,0.031897,0.287401,0.685917,-0.045322,-0.666982,83.112371,62.739939,-76.598054
18017,NaN,-8.110712,4.902259,1.136000,-0.356489,-0.837338,-0.311210,-0.054157,0.057226,0.027144,0.287609,0.686029,-0.045161,-0.666788,83.148675,62.734590,-76.530216
18018,NaN,-8.704370,4.837830,1.098429,-0.409226,-0.506825,0.184956,-0.073457,0.096859,0.036354,0.287928,0.686247,-0.044916,-0.666442,83.220594,62.725712,-76.410180
18019,NaN,-8.936462,4.746596,0.645105,-0.040767,-0.175340,0.325078,-0.078313,0.054394,0.031749,0.288234,0.686313,-0.044694,-0.666257,83.240331,62.717417,-76.345373
18020,NaN,-9.130271,4.615375,0.264908,0.254219,0.150215,0.417001,-0.065500,-0.021715,0.034840,0.288494,0.686148,-0.044641,-0.666318,83.185749,62.701344,-76.372789
18021,NaN,-9.184514,4.482041,0.177857,0.292991,0.318250,0.399486,-0.049231,-0.074504,0.022635,0.288641,0.685828,-0.044671,-0.666581,83.078909,62.689444,-76.469173
18022,NaN,-8.781767,4.586775,0.237098,0.322758,0.035523,0.092297,-0.030593,-0.094400,0.009747,0.288681,0.685477,-0.044753,-0.666920,82.961033,62.682538,-76.590341
18023,NaN,-8.692071,4.572646,0.466425,0.119502,-0.067705,0.018888,-0.028589,-0.053826,0.002859,0.288695,0.685260,-0.044754,-0.667136,82.886322,62.683190,-76.663905
18024,NaN,-8.710273,4.498045,0.462472,0.101226,0.004165,0.000818,-0.022628,-0.018899,-0.001925,0.288686,0.685174,-0.044714,-0.667231,82.854552,62.688144,-76.693298
18025,NaN,-8.736183,4.491126,0.431087,0.127966,0.030653,0.018876,-0.007857,-0.006307,-0.017437,0.288573,0.685151,-0.044646,-0.667308,82.841246,62.703668,-76.711123
18026,NaN,-8.640739,4.579656,0.485256,0.117318,-0.106039,-0.022586,-0.006162,-0.007045,-0.022241,0.288442,0.685133,-0.044575,-0.667389,82.829124,62.721010,-76.729017
18027,NaN,-8.371468,4.542141,0.428918,0.188268,-0.178207,-0.282247,-0.008964,-0.012627,-0.009411,0.288358,0.685085,-0.044540,-0.667476,82.809336,62.731501,-76.753424
18028,NaN,-8.433376,4.503287,0.485137,0.117716,-0.137645,-0.241691,-0.014193,-0.009867,0.009835,0.288360,0.685039,-0.044555,-0.667521,82.793936,62.730403,-76.769826
18029,NaN,-8.688465,4.536348,0.841080,-0.230818,-0.169301,0.020591,-0.025395,-0.032246,0.024963,0.288443,0.684895,-0.044611,-0.667630,82.747938,62.719902,-76.813137
18030,NaN,-8.446622,4.489466,0.832321,-0.208525,-0.231320,-0.215996,-0.030083,-0.064244,0.044589,0.288604,0.684636,-0.044771,-0.667815,82.668456,62.695085,-76.891408
18031,NaN,-8.409546,4.411848,0.701203,-0.101305,-0.134175,-0.291748,-0.030418,-0.067208,0.043938,0.288760,0.684363,-0.044926,-0.668017,82.583870,62.671156,-76.974911
18032,NaN,-8.407837,4.299177,0.603368,-0.040631,-0.003386,-0.350286,-0.028446,-0.064120,0.043121,0.288911,0.684107,-0.045086,-0.668203,82.505532,62.647080,-77.052984
18033,NaN,-8.395774,4.213545,0.383577,0.143910,0.140764,-0.413241,-0.004454,-0.060758,0.043300,0.288977,0.683893,-0.045317,-0.668378,82.443065,62.623884,-77.128363
18034,NaN,-8.427818,4.298560,0.525489,0.036856,0.041798,-0.337521,0.026071,-0.040503,0.048978,0.288966,0.683794,-0.045645,-0.668462,82.422939,62.598194,-77.176088
18035,NaN,-8.473764,4.435933,0.739866,-0.124651,-0.118089,-0.221020,0.049707,-0.049052,0.060717,0.288907,0.683693,-0.046099,-0.668559,82.407098,62.565961,-77.233942
18036,NaN,-8.579880,4.516611,0.812843,-0.178384,-0.156198,-0.085478,0.057947,-0.048456,0.053330,0.288800,0.683612,-0.046560,-0.668657,82.397308,62.537185,-77.290626
18037,NaN,-8.827990,4.616599,0.739787,-0.102906,-0.098436,0.175976,0.064536,-0.047982,0.047420,0.288647,0.683539,-0.047016,-0.668766,82.389293,62.512555,-77.349255
18038,NaN,-8.805625,4.693416,0.695259,-0.034023,-0.152683,0.188617,0.061437,-0.060269,0.047797,0.288506,0.683424,-0.047487,-0.668911,82.367943,62.486012,-77.421252
18039,NaN,-8.910960,4.685948,0.838858,-0.181014,-0.141446,0.287522,0.046719,-0.064759,0.047800,0.288411,0.683268,-0.047910,-0.669080,82.331624,62.459846,-77.500309
18040,NaN,-9.297430,4.763318,1.009244,-0.351972,-0.080978,0.676333,0.038866,-0.102121,0.050476,0.288346,0.682980,-0.048374,-0.669369,82.252424,62.428516,-77.623008
18041,NaN,-9.179451,4.730513,1.100989,-0.427906,-0.128865,0.562885,0.013935,-0.178257,0.045736,0.288329,0.682397,-0.048844,-0.669937,82.073990,62.394523,-77.841245
18042,NaN,-8.594272,4.724077,0.949772,-0.218105,-0.330833,0.032283,0.003316,-0.155539,0.026601,0.288292,0.681883,-0.049185,-0.670450,81.913441,62.372181,-78.032833
18043,NaN,-8.038956,4.777007,0.491495,0.290352,-0.474996,-0.465161,-0.012035,0.009680,-0.023567,0.288177,0.681909,-0.049061,-0.670483,81.913645,62.392181,-78.032703
18044,NaN,-8.345922,5.032882,0.206857,0.605670,-0.461747,-0.094301,-0.020229,0.174965,-0.056123,0.288024,0.682489,-0.048564,-0.669994,82.085691,62.443140,-77.833768
18045,NaN,-9.208778,5.315735,0.198586,0.607715,-0.316149,0.799982,-0.009599,0.190817,-0.077444,0.287764,0.683138,-0.048004,-0.669485,82.276834,62.507760,-77.619926
18046,NaN,-9.321280,5.364995,0.064117,0.732501,-0.274582,0.913989,-0.025772,0.044505,-0.082738,0.287510,0.683279,-0.047586,-0.669480,82.300641,62.563335,-77.584694
18047,NaN,-9.074860,4.957052,0.087571,0.608574,-0.062236,0.510049,-0.008601,-0.064744,-0.059868,0.287244,0.683069,-0.047456,-0.669817,82.216503,62.598055,-77.681857
18048,NaN,-9.196200,4.626540,0.501251,0.110525,0.127879,0.492536,0.031616,-0.127666,-0.038705,0.286900,0.682705,-0.047628,-0.670324,82.091098,62.615209,-77.851738
18049,NaN,-9.449230,4.657267,0.872347,-0.238018,0.096634,0.754860,0.074089,-0.263781,-0.022133,0.286431,0.681937,-0.048191,-0.671265,81.841850,62.612344,-78.188201
18050,NaN,-8.987077,4.687434,0.947348,-0.230269,-0.153617,0.363774,0.071352,-0.388880,-0.023766,0.285937,0.680748,-0.048921,-0.672628,81.455594,62.598602,-78.677523
18051,NaN,-8.041900,4.546599,1.198303,-0.399567,-0.535987,-0.521150,0.039084,-0.329978,-0.023313,0.285566,0.679704,-0.049456,-0.673802,81.114059,62.588815,-79.095394
18052,NaN,-7.865174,4.352709,1.423009,-0.640703,-0.521403,-0.749045,-0.000696,-0.148233,-0.004845,0.285439,0.679214,-0.049664,-0.674334,80.953042,62.583437,-79.284566
18053,NaN,-7.663938,4.238397,1.270662,-0.510562,-0.467351,-0.990247,-0.021165,0.019813,0.000346,0.285438,0.679255,-0.049578,-0.674299,80.962760,62.590600,-79.267855
18054,NaN,-6.517341,4.235515,0.362888,0.438144,-0.695425,-2.075026,-0.031404,0.205374,-0.001363,0.285514,0.679912,-0.049189,-0.673633,81.170783,62.614762,-79.021520
18055,NaN,-6.923156,4.202252,0.034698,0.681842,-0.385369,-1.751873,-0.037229,0.451754,0.033739,0.285787,0.681375,-0.048546,-0.672085,81.649560,62.639829,-78.466249
18056,NaN,-8.445278,4.499266,0.460518,0.199402,-0.093438,-0.235133,-0.055524,0.523449,0.076823,0.286284,0.683042,-0.047888,-0.670225,82.205687,62.643524,-77.812499
18057,NaN,-9.248324,4.283878,1.020504,-0.512774,0.256568,0.414515,-0.096469,0.404840,0.103368,0.286979,0.684240,-0.047350,-0.668743,82.610236,62.621000,-77.302643
18058,NaN,-9.301264,4.093799,1.089152,-0.670261,0.412128,0.377496,-0.100320,0.247129,0.070939,0.287541,0.684914,-0.046918,-0.667841,82.836056,62.603814,-76.991817
18059,NaN,-9.228519,4.047457,0.796225,-0.414794,0.514210,0.274184,-0.092948,0.107440,0.050594,0.287975,0.685131,-0.046638,-0.667450,82.908039,62.588317,-76.858641
18060,NaN,-9.394325,4.064037,0.615002,-0.258633,0.635967,0.418472,-0.086166,0.008786,0.015401,0.288247,0.685042,-0.046405,-0.667441,82.872696,62.585389,-76.851076
18061,NaN,-9.261153,4.202842,0.726908,-0.300629,0.424877,0.370158,-0.071569,-0.044692,-0.000262,0.288403,0.684795,-0.046241,-0.667639,82.783093,62.588056,-76.913706
18062,NaN,-8.746034,4.457339,0.867685,-0.290255,-0.063137,0.037471,-0.061590,-0.055493,-0.006886,0.288501,0.684531,-0.046106,-0.667876,82.688282,62.593147,-76.988992
18063,NaN,-8.395663,4.649707,0.929088,-0.243436,-0.400203,-0.181970,-0.067802,-0.016675,-0.008159,0.288624,0.684384,-0.045887,-0.667989,82.630326,62.602301,-77.018385
18064,NaN,-8.702879,4.622440,0.848330,-0.205586,-0.215125,0.073575,-0.083702,0.054344,-0.021719,0.288774,0.684459,-0.045469,-0.667876,82.641136,62.623826,-76.960434
18065,NaN,-9.355777,4.494423,0.506493,0.005071,0.292574,0.574868,-0.085436,0.100904,-0.032092,0.288903,0.684684,-0.044940,-0.667625,82.698698,62.655141,-76.848359
18066,NaN,-9.355206,4.397877,0.459134,0.013468,0.380229,0.527875,-0.088597,0.132435,-0.052087,0.288986,0.685019,-0.044289,-0.667289,82.788579,62.699528,-76.698283
18067,NaN,-8.891642,4.367847,0.612536,-0.101032,0.135387,0.111325,-0.111451,0.242414,-0.052582,0.289167,0.685682,-0.043397,-0.666588,82.985108,62.752383,-76.413185
18068,NaN,-8.778785,4.144662,0.699854,-0.262173,0.226775,-0.085670,-0.121294,0.363980,-0.034091,0.289472,0.686735,-0.042365,-0.665437,83.315872,62.801864,-75.971290
18069,NaN,-8.629786,4.070630,0.797470,-0.387388,0.172215,-0.247157,-0.120368,0.436111,-0.040058,0.289764,0.688023,-0.041206,-0.664051,83.725953,62.858695,-75.440679
18070,NaN,-8.444860,4.093341,0.615413,-0.218824,0.115575,-0.411173,-0.104000,0.493647,-0.045250,0.289996,0.689527,-0.040004,-0.662460,84.212863,62.919446,-74.834938
18071,NaN,-8.353396,4.242724,0.444811,-0.033175,-0.008657,-0.433110,-0.087227,0.522446,-0.034652,0.290207,0.691140,-0.038847,-0.660754,84.743031,62.973933,-74.191356
18072,NaN,-8.447351,4.274254,0.378279,-0.007814,0.011572,-0.337997,-0.084659,0.503283,-0.013415,0.290476,0.692689,-0.037805,-0.659072,85.259410,63.012013,-73.565539
18073,NaN,-8.580759,4.250682,0.336430,-0.026320,0.089070,-0.231341,-0.062296,0.409889,0.004877,0.290706,0.693951,-0.037031,-0.657686,85.684744,63.033744,-73.056064
18074,NaN,-8.622983,4.362270,0.216500,0.091755,0.047550,-0.147213,-0.033010,0.264720,0.018183,0.290852,0.694779,-0.036614,-0.656770,85.967402,63.039724,-72.725917
18075,NaN,-8.562628,4.496246,0.190068,0.153850,-0.083826,-0.141066,-0.008595,0.111912,0.046770,0.290977,0.695129,-0.036595,-0.656345,86.092641,63.023445,-72.587721
18076,NaN,-8.849121,4.587967,0.308499,0.028846,-0.075082,0.159528,0.008325,-0.013597,0.069994,0.291099,0.695093,-0.036899,-0.656312,86.090296,62.988245,-72.603912
18077,NaN,-9.130906,4.793358,0.432474,-0.055786,-0.159429,0.507594,0.015785,-0.092329,0.079532,0.291209,0.694803,-0.037371,-0.656544,86.002924,62.945134,-72.720012
18078,NaN,-9.109003,4.873751,0.448970,-0.037959,-0.233428,0.525253,-0.002308,-0.058936,0.052837,0.291303,0.694605,-0.037646,-0.656695,85.942617,62.917901,-72.794463
