// General information: 
//  MT Manager version: 2019.0.1 
//  XDA version: 2019.0.1 build 2740 rev 84096 built on 2019-01-30
// Device information: 
//  DeviceId: 00B43876
//  ProductCode: MTW2-3A7G6
//  Firmware Version: 4.3.4
//  Hardware Version: 1.1.0
// Device settings: 
//  Filter Profile: human(46.1)
//  Option Flags: Orientation Smoother Disabled, AHS Disabled, ICC Disabled
// Coordinate system: ENU
PacketCounter,SampleTimeFine,Acc_X,Acc_Y,Acc_Z,FreeAcc_E,FreeAcc_N,FreeAcc_U,Gyr_X,Gyr_Y,Gyr_Z,Quat_q0,Quat_q1,Quat_q2,Quat_q3,Roll,Pitch,Yaw
49572,NaN,1.464903,-9.168667,-2.887573,0.038366,-0.035138,-0.089223,0.001064,0.014543,-0.001533,-0.104674,0.267704,-0.761069,0.581509,-107.778053,-8.743780,-147.626029
49573,NaN,1.440364,-9.190508,-2.930787,0.044376,0.010050,-0.059353,0.000069,0.005108,0.000280,-0.104691,0.267687,-0.761064,0.581520,-107.775933,-8.741583,-147.626672
49574,NaN,1.450990,-9.151267,-2.942662,0.018303,0.021477,-0.091087,-0.000749,0.007699,-0.001856,-0.104693,0.267672,-0.761060,0.581532,-107.774172,-8.740796,-147.628152
49575,NaN,1.465574,-9.166150,-2.929491,0.016369,0.000369,-0.078836,0.000040,0.001807,-0.004511,-0.104708,0.267683,-0.761047,0.581541,-107.772475,-8.740636,-147.626125
49576,NaN,1.465927,-9.166044,-2.929647,0.015797,0.000317,-0.078835,-0.003135,-0.003721,-0.003798,-0.104744,0.267711,-0.761041,0.581529,-107.773127,-8.739046,-147.620857
49577,NaN,1.485130,-9.160005,-2.944016,-0.009009,0.002764,-0.077265,-0.005040,-0.003681,0.000411,-0.104788,0.267722,-0.761046,0.581509,-107.774668,-8.735241,-147.616671
49578,NaN,1.513504,-9.189685,-2.918347,-0.012312,-0.039448,-0.052767,-0.006745,-0.003609,-0.004143,-0.104819,0.267755,-0.761050,0.581483,-107.777424,-8.733812,-147.611188
49579,NaN,1.480436,-9.180478,-2.917925,0.012720,-0.020886,-0.066583,-0.001989,0.005431,-0.000560,-0.104830,0.267741,-0.761050,0.581488,-107.776480,-8.732130,-147.611860
49580,NaN,1.499660,-9.174461,-2.932206,-0.012090,-0.018450,-0.065018,-0.006525,0.001217,0.001189,-0.104855,0.267736,-0.761064,0.581468,-107.778467,-8.728722,-147.610530
49581,NaN,1.466348,-9.165211,-2.932042,0.012942,0.000115,-0.078830,-0.009493,0.011013,0.002744,-0.104844,0.267697,-0.761093,0.581449,-107.781265,-8.726214,-147.614869
49582,NaN,1.486072,-9.161487,-2.904551,0.008430,-0.033080,-0.087642,-0.010884,0.009028,-0.001011,-0.104828,0.267682,-0.761120,0.581424,-107.785223,-8.725417,-147.617144
49583,NaN,1.452671,-9.149650,-2.946858,0.013175,0.021110,-0.091078,-0.011743,0.009809,0.001363,-0.104815,0.267654,-0.761153,0.581396,-107.789448,-8.723453,-147.620574
49584,NaN,1.447924,-9.170162,-2.920716,0.035484,-0.002474,-0.080387,-0.011076,0.007502,-0.001551,-0.104802,0.267642,-0.761180,0.581369,-107.793584,-8.722673,-147.622273
49585,NaN,1.456673,-9.200677,-2.965861,0.015845,0.024112,-0.036704,-0.010763,0.005444,-0.000753,-0.104800,0.267634,-0.761205,0.581340,-107.797670,-8.721099,-147.622919
49586,NaN,1.452040,-9.221141,-2.939835,0.038130,0.000523,-0.026011,-0.012535,0.000409,-0.005590,-0.104800,0.267659,-0.761227,0.581300,-107.803309,-8.721164,-147.620099
49587,NaN,1.429552,-9.172522,-2.951782,0.037700,0.030568,-0.071567,-0.006486,0.003025,-0.003323,-0.104806,0.267665,-0.761235,0.581285,-107.805216,-8.720568,-147.618954
49588,NaN,1.476942,-9.193788,-2.982280,-0.010140,0.026455,-0.035148,-0.006431,-0.005666,-0.003348,-0.104846,0.267698,-0.761239,0.581258,-107.807871,-8.718374,-147.612854
49589,NaN,1.468715,-9.162721,-2.938633,0.008371,-0.000194,-0.078825,-0.005192,-0.003398,-0.004642,-0.104873,0.267727,-0.761238,0.581241,-107.809609,-8.717372,-147.607931
49590,NaN,1.516283,-9.184025,-2.968905,-0.039482,-0.004300,-0.042414,-0.002399,-0.000919,-0.006432,-0.104889,0.267752,-0.761229,0.581238,-107.809542,-8.717677,-147.604399
49591,NaN,1.488463,-9.153994,-2.995305,-0.037331,0.037816,-0.066911,-0.001323,0.003124,-0.003473,-0.104901,0.267756,-0.761222,0.581244,-107.808487,-8.717180,-147.603283
49592,NaN,1.475017,-9.141489,-2.966180,-0.016211,0.023235,-0.089524,0.000925,0.004327,-0.002091,-0.104916,0.267753,-0.761210,0.581257,-107.806118,-8.716242,-147.602735
49593,NaN,1.484205,-9.174811,-2.968028,-0.015571,0.014198,-0.056214,0.000993,0.009434,-0.001808,-0.104911,0.267731,-0.761202,0.581279,-107.803164,-8.715943,-147.605396
49594,NaN,1.470995,-9.162347,-2.938657,0.005517,-0.000394,-0.078823,0.001727,0.012236,-0.004440,-0.104891,0.267712,-0.761190,0.581308,-107.799694,-8.717441,-147.608885
49595,NaN,1.457565,-9.147428,-2.951336,0.006308,0.020648,-0.091070,0.003975,0.013438,-0.003058,-0.104872,0.267682,-0.761173,0.581346,-107.794730,-8.718524,-147.613535
49596,NaN,1.447791,-9.186736,-2.938943,0.031187,0.009121,-0.059301,0.002925,0.012694,-0.001224,-0.104863,0.267652,-0.761161,0.581378,-107.790541,-8.718397,-147.617395
49597,NaN,1.434215,-9.171785,-2.951808,0.031975,0.030165,-0.071545,-0.001190,0.013338,-0.002908,-0.104837,0.267624,-0.761160,0.581397,-107.788540,-8.719380,-147.622016
49598,NaN,1.429825,-9.192568,-2.924703,0.054287,0.006587,-0.060836,-0.000273,0.003866,-0.005308,-0.104843,0.267633,-0.761148,0.581407,-107.786930,-8.719986,-147.620837
49599,NaN,1.449664,-9.186549,-2.938606,0.029475,0.009012,-0.059295,-0.000778,0.004399,-0.006646,-0.104841,0.267645,-0.761136,0.581418,-107.785541,-8.721444,-147.619862
49600,NaN,1.455697,-9.168077,-2.923397,0.026329,-0.003093,-0.080358,0.000899,0.001027,-0.006885,-0.104852,0.267664,-0.761117,0.581431,-107.783416,-8.722359,-147.617440
49601,NaN,1.484253,-9.195393,-2.939315,0.002715,-0.009675,-0.045511,-0.000340,-0.001241,-0.005591,-0.104875,0.267688,-0.761103,0.581435,-107.782220,-8.722255,-147.613539
49602,NaN,1.475907,-9.161988,-2.937315,0.000928,-0.000719,-0.078822,-0.000150,0.000284,-0.005051,-0.104895,0.267705,-0.761089,0.581442,-107.780778,-8.721978,-147.610633
49603,NaN,1.481416,-9.140974,-2.964576,-0.022525,0.022776,-0.089535,-0.004140,-0.002656,-0.006478,-0.104916,0.267739,-0.761083,0.581430,-107.781902,-8.722110,-147.605794
49604,NaN,1.501455,-9.137380,-2.936490,-0.027004,-0.010412,-0.098357,-0.000464,0.002341,-0.005848,-0.104925,0.267753,-0.761070,0.581439,-107.780492,-8.722766,-147.603951
49605,NaN,1.497023,-9.158105,-2.909587,-0.004688,-0.033975,-0.087643,-0.004679,0.009865,-0.002997,-0.104907,0.267737,-0.761077,0.581440,-107.780783,-8.723189,-147.606639
49606,NaN,1.486911,-9.194656,-2.940275,-0.000190,-0.009874,-0.045511,-0.006232,0.009653,-0.002501,-0.104891,0.267719,-0.761090,0.581435,-107.781935,-8.723117,-147.609520
49607,NaN,1.492373,-9.173590,-2.967708,-0.023646,0.013618,-0.056230,-0.005539,0.010645,-0.000622,-0.104876,0.267692,-0.761103,0.581433,-107.782590,-8.722382,-147.613060
49608,NaN,1.454565,-9.185266,-2.940194,0.024255,0.008701,-0.059281,-0.004805,0.013446,-0.003254,-0.104841,0.267662,-0.761113,0.581440,-107.782550,-8.723543,-147.618406
49609,NaN,1.450118,-9.205917,-2.913566,0.046570,-0.014857,-0.048558,-0.007786,0.009441,-0.002006,-0.104824,0.267646,-0.761130,0.581428,-107.784630,-8.723351,-147.621036
49610,NaN,1.446830,-9.151493,-2.939041,0.021923,0.017640,-0.092589,-0.005059,0.006814,-0.004078,-0.104814,0.267641,-0.761136,0.581425,-107.785391,-8.723801,-147.622173
49611,NaN,1.442326,-9.172118,-2.912534,0.044240,-0.005916,-0.081864,-0.008355,0.004866,-0.003628,-0.104809,0.267644,-0.761150,0.581406,-107.788224,-8.723694,-147.621990
49612,NaN,1.461902,-9.165926,-2.927043,0.019410,-0.003532,-0.080342,-0.005187,-0.003399,-0.004646,-0.104839,0.267676,-0.761149,0.581387,-107.790043,-8.722524,-147.616692
49613,NaN,1.490367,-9.193076,-2.943467,-0.004225,-0.010127,-0.045512,-0.005438,0.003764,-0.005159,-0.104838,0.267686,-0.761152,0.581378,-107.791337,-8.723060,-147.615631
49614,NaN,1.467670,-9.144610,-2.955058,-0.004638,0.019907,-0.091067,-0.005543,-0.003152,-0.000934,-0.104876,0.267700,-0.761158,0.581357,-107.793160,-8.719922,-147.611549
49615,NaN,1.495766,-9.171815,-2.971481,-0.028277,0.013309,-0.056241,-0.004305,-0.000883,-0.002227,-0.104902,0.267713,-0.761159,0.581345,-107.794115,-8.718044,-147.608442
49616,NaN,1.490944,-9.192566,-2.944765,-0.005953,-0.010247,-0.045513,-0.002562,0.000854,-0.002181,-0.104924,0.267719,-0.761156,0.581342,-107.793961,-8.716476,-147.606300
49617,NaN,1.482326,-9.159159,-2.942901,-0.007696,-0.001277,-0.078825,-0.002183,0.003903,-0.001099,-0.104939,0.267713,-0.761156,0.581343,-107.793270,-8.714820,-147.606034
49618,NaN,1.482580,-9.159055,-2.943095,-0.008279,-0.001335,-0.078825,-0.003863,0.007273,-0.000860,-0.104941,0.267697,-0.761162,0.581342,-107.793327,-8.713479,-147.607362
49619,NaN,1.477657,-9.177305,-2.958450,-0.006324,0.010704,-0.057757,-0.002624,0.009542,-0.002152,-0.104930,0.267678,-0.761163,0.581350,-107.792445,-8.713385,-147.610022
49620,NaN,1.478228,-9.177211,-2.958456,-0.006872,0.010666,-0.057758,-0.001197,0.013335,-0.002903,-0.104905,0.267653,-0.761162,0.581369,-107.790542,-8.714470,-147.614391
49621,NaN,1.450775,-9.149755,-2.942506,0.015637,0.017203,-0.092576,-0.002436,0.011066,-0.001611,-0.104890,0.267627,-0.761165,0.581379,-107.789410,-8.714347,-147.617988
49622,NaN,1.435889,-9.207209,-2.946012,0.042972,0.017793,-0.039699,-0.004641,0.011671,-0.007505,-0.104854,0.267622,-0.761167,0.581385,-107.789635,-8.717386,-147.621019
49623,NaN,1.447370,-9.170307,-2.915733,0.037364,-0.006388,-0.081835,-0.000400,0.007448,-0.005562,-0.104844,0.267621,-0.761157,0.581401,-107.787746,-8.718786,-147.621919
49624,NaN,1.457022,-9.203489,-2.917788,0.037954,-0.015420,-0.048522,-0.001471,0.003407,-0.008524,-0.104838,0.267641,-0.761144,0.581409,-107.786853,-8.721100,-147.620413
49625,NaN,1.487281,-9.158139,-2.943573,-0.012269,-0.001588,-0.078830,-0.000651,0.000817,-0.006389,-0.104850,0.267663,-0.761130,0.581415,-107.785685,-8.721790,-147.617507
49626,NaN,1.468838,-9.163977,-2.929671,0.011375,-0.004081,-0.080330,0.001385,-0.002800,-0.010340,-0.104871,0.267709,-0.761103,0.581426,-107.783801,-8.723746,-147.611679
49627,NaN,1.502897,-9.172771,-2.930653,-0.014795,-0.022767,-0.066590,-0.006005,-0.000811,-0.006784,-0.104882,0.267740,-0.761103,0.581409,-107.785848,-8.724367,-147.607804
49628,NaN,1.489304,-9.157684,-2.943965,-0.014022,-0.001741,-0.078832,0.001783,0.003546,-0.004463,-0.104895,0.267745,-0.761086,0.581427,-107.783064,-8.724365,-147.606529
49629,NaN,1.495193,-9.139229,-2.928745,-0.017098,-0.013850,-0.099903,-0.002333,0.004186,-0.006150,-0.104893,0.267757,-0.761079,0.581431,-107.782570,-8.725514,-147.605525
49630,NaN,1.479987,-9.196696,-2.932414,0.010217,-0.013243,-0.047016,-0.005480,0.001952,-0.000651,-0.104911,0.267753,-0.761088,0.581418,-107.783863,-8.723159,-147.604648
49631,NaN,1.460916,-9.199973,-2.961031,0.013503,0.019878,-0.038185,-0.002944,0.011597,-0.002949,-0.104889,0.267731,-0.761091,0.581428,-107.783013,-8.723858,-147.608301
49632,NaN,1.452850,-9.169078,-2.916872,0.032161,-0.006744,-0.081817,-0.002629,0.009539,-0.002152,-0.104880,0.267713,-0.761093,0.581435,-107.782172,-8.723640,-147.610835
49633,NaN,1.467363,-9.181349,-2.946061,0.009843,0.007719,-0.059254,-0.003449,0.012128,-0.004287,-0.104852,0.267695,-0.761096,0.581445,-107.781604,-8.725163,-147.614545
49634,NaN,1.473085,-9.160295,-2.973217,-0.013601,0.031177,-0.070006,-0.003133,0.010071,-0.003490,-0.104836,0.267683,-0.761097,0.581452,-107.781123,-8.725971,-147.616861
49635,NaN,1.468610,-9.181124,-2.946143,0.008724,0.007642,-0.059253,0.001971,0.005071,-0.003921,-0.104843,0.267681,-0.761081,0.581472,-107.778029,-8.726059,-147.616740
49636,NaN,1.494040,-9.159229,-2.902556,0.001819,-0.037630,-0.089157,-0.002964,0.008299,-0.007744,-0.104821,0.267688,-0.761076,0.581480,-107.777658,-8.728812,-147.617574
49637,NaN,1.470294,-9.183398,-2.904026,0.027993,-0.028006,-0.069568,-0.002818,0.008014,-0.002693,-0.104814,0.267676,-0.761077,0.581485,-107.777030,-8.728746,-147.619294
49638,NaN,1.456409,-9.165774,-2.959602,0.008349,0.028610,-0.071491,-0.003570,0.001917,-0.004859,-0.104822,0.267687,-0.761075,0.581482,-107.777348,-8.728675,-147.617620
49639,NaN,1.471127,-9.180518,-2.946775,0.006426,0.007495,-0.059251,-0.004074,0.002449,-0.006198,-0.104825,0.267705,-0.761072,0.581477,-107.777999,-8.729546,-147.615649
49640,NaN,1.452565,-9.186325,-2.933101,0.030077,0.005044,-0.060730,-0.000650,0.000817,-0.006389,-0.104836,0.267723,-0.761059,0.581484,-107.776760,-8.730087,-147.613172
49641,NaN,1.482667,-9.140984,-2.958789,-0.020127,0.018843,-0.091085,-0.000275,0.003866,-0.005306,-0.104841,0.267731,-0.761047,0.581495,-107.775091,-8.730720,-147.612141
49642,NaN,1.497339,-9.155768,-2.945849,-0.022052,-0.002273,-0.078847,-0.005124,0.001703,-0.004365,-0.104850,0.267743,-0.761049,0.581484,-107.776349,-8.730443,-147.610279
49643,NaN,1.478624,-9.161551,-2.932335,0.001629,-0.004720,-0.080323,-0.003382,0.003440,-0.004318,-0.104855,0.267751,-0.761047,0.581483,-107.776470,-8.730462,-147.609188
49644,NaN,1.473977,-9.179670,-2.947992,0.003532,0.007331,-0.059250,-0.008806,0.010495,-0.004684,-0.104822,0.267738,-0.761065,0.581471,-107.779042,-8.731903,-147.612462
49645,NaN,1.488371,-9.191785,-2.977672,-0.018811,0.021780,-0.036704,-0.007164,0.005318,-0.000414,-0.104826,0.267728,-0.761080,0.581455,-107.781068,-8.730121,-147.613098
49646,NaN,1.460921,-9.166831,-2.919904,0.024153,-0.007248,-0.081794,-0.003137,0.010069,-0.003489,-0.104812,0.267715,-0.761082,0.581461,-107.780578,-8.730714,-147.615337
49647,NaN,1.484236,-9.212344,-2.951313,0.002934,-0.001806,-0.025937,-0.005928,0.007587,-0.001705,-0.104806,0.267702,-0.761093,0.581454,-107.781740,-8.730033,-147.616997
49648,NaN,1.447722,-9.151501,-2.933809,0.024353,0.013775,-0.094029,-0.006619,0.006595,-0.003585,-0.104794,0.267695,-0.761104,0.581445,-107.783353,-8.730161,-147.618317
49649,NaN,1.481465,-9.160272,-2.934895,-0.001818,-0.004936,-0.080324,-0.003870,0.007267,-0.000860,-0.104794,0.267679,-0.761110,0.581445,-107.783341,-8.728963,-147.619950
49650,NaN,1.429074,-9.154547,-2.962964,0.027046,0.046852,-0.085189,-0.006677,0.001490,-0.003873,-0.104805,0.267694,-0.761117,0.581426,-107.785608,-8.728406,-147.617475
49651,NaN,1.496177,-9.174825,-2.922667,-0.004295,-0.026101,-0.068086,-0.003986,-0.002942,-0.001435,-0.104842,0.267710,-0.761117,0.581412,-107.786532,-8.725736,-147.613371
49652,NaN,1.477144,-9.178097,-2.951304,-0.001046,0.007028,-0.059249,-0.002333,0.004186,-0.006150,-0.104839,0.267720,-0.761111,0.581417,-107.786017,-8.726909,-147.612658
49653,NaN,1.477607,-9.178045,-2.951234,-0.001617,0.006993,-0.059249,0.002791,0.002483,-0.001783,-0.104864,0.267717,-0.761094,0.581436,-107.782613,-8.725378,-147.611487
49654,NaN,1.483136,-9.159711,-2.935802,-0.004657,-0.005103,-0.080325,0.000920,0.004326,-0.002086,-0.104875,0.267707,-0.761084,0.581452,-107.780054,-8.724347,-147.611869
49655,NaN,1.497669,-9.174627,-2.922525,-0.006576,-0.026221,-0.068088,0.000416,0.004858,-0.003425,-0.104882,0.267705,-0.761072,0.581466,-107.777856,-8.724127,-147.611719
49656,NaN,1.464752,-9.165639,-2.921727,0.018467,-0.007588,-0.081782,-0.000577,0.009217,-0.001305,-0.104880,0.267686,-0.761069,0.581480,-107.775930,-8.723506,-147.613860
49657,NaN,1.493398,-9.192898,-2.937520,-0.005245,-0.014233,-0.047013,-0.000031,0.010495,-0.004475,-0.104862,0.267672,-0.761061,0.581500,-107.773545,-8.724845,-147.616634
49658,NaN,1.460793,-9.183833,-2.936818,0.019755,0.004394,-0.060704,-0.003456,0.012124,-0.004285,-0.104837,0.267654,-0.761064,0.581509,-107.773015,-8.726135,-147.620172
49659,NaN,1.485950,-9.159424,-2.935276,-0.007523,-0.005320,-0.080326,0.003580,0.010389,-0.004123,-0.104825,0.267637,-0.761045,0.581543,-107.768560,-8.727263,-147.622950
49660,NaN,1.486537,-9.159371,-2.935144,-0.008092,-0.005369,-0.080327,-0.003196,0.004963,-0.003777,-0.104828,0.267639,-0.761044,0.581543,-107.768505,-8.727204,-147.622533
49661,NaN,1.467737,-9.165297,-2.921300,0.015592,-0.007796,-0.081777,0.001293,0.007374,-0.001002,-0.104834,0.267620,-0.761035,0.581562,-107.765530,-8.726102,-147.624200
49662,NaN,1.448714,-9.168602,-2.949871,0.018805,0.025321,-0.072935,-0.006864,-0.000036,-0.004417,-0.104848,0.267639,-0.761042,0.581543,-107.767934,-8.725464,-147.621273
49663,NaN,1.487650,-9.158961,-2.935858,-0.009815,-0.005481,-0.080329,-0.004619,0.001169,-0.003029,-0.104863,0.267649,-0.761044,0.581532,-107.768920,-8.724383,-147.619156
49664,NaN,1.488005,-9.158744,-2.936355,-0.010381,-0.005511,-0.080329,-0.006677,0.001488,-0.003875,-0.104871,0.267661,-0.761052,0.581515,-107.771070,-8.723849,-147.617299
49665,NaN,1.483100,-9.176866,-2.952144,-0.008506,0.006529,-0.059252,-0.006173,0.000956,-0.002536,-0.104887,0.267670,-0.761059,0.581499,-107.772950,-8.722462,-147.615152
49666,NaN,1.450244,-9.170327,-2.909639,0.036968,-0.010363,-0.083215,-0.002879,0.002907,-0.002980,-0.104899,0.267671,-0.761058,0.581498,-107.772763,-8.721524,-147.614222
49667,NaN,1.503255,-9.173093,-2.924471,-0.013457,-0.026707,-0.068096,-0.005254,0.005281,-0.004622,-0.104894,0.267676,-0.761062,0.581491,-107.773811,-8.722031,-147.614093
49668,NaN,1.498380,-9.188603,-2.982469,-0.032041,0.020874,-0.036736,-0.008549,0.003330,-0.004178,-0.104893,0.267687,-0.761075,0.581469,-107.776964,-8.722022,-147.612820
49669,NaN,1.465645,-9.181976,-2.940203,0.013459,0.003996,-0.060693,-0.006305,0.004535,-0.002790,-0.104894,0.267687,-0.761084,0.581457,-107.778627,-8.721400,-147.612604
49670,NaN,1.466171,-9.181722,-2.940735,0.012898,0.003955,-0.060692,-0.007127,0.007123,-0.004925,-0.104879,0.267689,-0.761094,0.581446,-107.780667,-8.722421,-147.613269
49671,NaN,1.466668,-9.178845,-2.983511,-0.008148,0.039463,-0.050411,-0.007313,0.005599,-0.005467,-0.104868,0.267697,-0.761103,0.581433,-107.782890,-8.723445,-147.613166
49672,NaN,1.453290,-9.166218,-2.955024,0.013115,0.024972,-0.072925,-0.006809,0.005067,-0.004129,-0.104862,0.267701,-0.761112,0.581420,-107.784875,-8.723707,-147.612990
49673,NaN,1.468040,-9.180945,-2.942226,0.011198,0.003854,-0.060690,-0.002333,0.004185,-0.006150,-0.104860,0.267713,-0.761105,0.581424,-107.784382,-8.724856,-147.611985
49674,NaN,1.468456,-9.178240,-2.984494,-0.009869,0.039358,-0.050413,0.000042,0.001811,-0.004508,-0.104875,0.267721,-0.761092,0.581433,-107.782641,-8.724618,-147.610292
49675,NaN,1.454967,-9.165852,-2.955334,0.011388,0.024870,-0.072922,0.001596,0.002025,-0.005001,-0.104890,0.267733,-0.761074,0.581449,-107.780047,-8.724762,-147.608299
49676,NaN,1.513206,-9.150340,-2.954594,-0.041476,-0.003553,-0.078911,-0.001698,0.000073,-0.004558,-0.104906,0.267745,-0.761067,0.581451,-107.779363,-8.724325,-147.606124
49677,NaN,1.489343,-9.174647,-2.955894,-0.015366,0.006111,-0.059260,0.003018,0.005819,-0.005746,-0.104906,0.267747,-0.761045,0.581477,-107.775656,-8.725540,-147.606093
49678,NaN,1.494977,-9.156284,-2.940482,-0.018376,-0.005991,-0.080341,-0.000318,0.002056,-0.000796,-0.104928,0.267739,-0.761040,0.581485,-107.773942,-8.723334,-147.605502
49679,NaN,1.490048,-9.174629,-2.955596,-0.016526,0.006050,-0.059262,0.000972,0.009429,-0.001795,-0.104924,0.267717,-0.761032,0.581506,-107.771000,-8.723024,-147.608163
49680,NaN,1.495611,-9.156275,-2.940190,-0.019521,-0.006075,-0.080344,-0.000079,0.008683,0.000036,-0.104927,0.267692,-0.761029,0.581521,-107.768724,-8.721507,-147.610572
49681,NaN,1.457502,-9.168228,-2.912625,0.028424,-0.010854,-0.083187,-0.005192,0.013675,0.000464,-0.104905,0.267652,-0.761044,0.581524,-107.768897,-8.720707,-147.615976
49682,NaN,1.471957,-9.183047,-2.899673,0.026521,-0.031976,-0.070953,-0.003320,0.011834,0.000768,-0.104893,0.267617,-0.761053,0.581530,-107.768197,-8.719460,-147.620325
49683,NaN,1.433538,-9.189791,-2.956607,0.033467,0.034314,-0.053255,-0.003506,0.010310,0.000225,-0.104885,0.267587,-0.761061,0.581535,-107.767692,-8.718202,-147.623830
49684,NaN,1.472524,-9.182824,-2.900092,0.025396,-0.032045,-0.070950,-0.004434,0.002691,-0.002489,-0.104897,0.267591,-0.761064,0.581527,-107.768485,-8.717141,-147.622544
49685,NaN,1.449713,-9.134398,-2.911684,0.025107,-0.001982,-0.116494,-0.007542,0.002263,-0.001505,-0.104909,0.267594,-0.761077,0.581506,-107.771013,-8.715420,-147.621300
49686,NaN,1.458783,-9.167447,-2.914441,0.025613,-0.011033,-0.083180,-0.007410,-0.001317,-0.001252,-0.104937,0.267607,-0.761088,0.581480,-107.773830,-8.712957,-147.617917
49687,NaN,1.478160,-9.161114,-2.929155,0.000786,-0.008701,-0.081765,-0.011712,-0.002205,-0.003488,-0.104954,0.267632,-0.761109,0.581439,-107.779173,-8.711536,-147.613856
49688,NaN,1.473106,-9.179085,-2.945496,0.002616,0.003337,-0.060684,-0.012206,0.001619,-0.000028,-0.104967,0.267632,-0.761137,0.581399,-107.784392,-8.708857,-147.612619
49689,NaN,1.478524,-9.160371,-2.931294,-0.000357,-0.008773,-0.081765,-0.011474,0.004421,-0.002654,-0.104962,0.267635,-0.761162,0.581367,-107.789023,-8.708140,-147.612364
49690,NaN,1.487896,-9.193270,-2.934375,0.000120,-0.017838,-0.048452,-0.011792,0.006477,-0.003449,-0.104949,0.267636,-0.761187,0.581336,-107.793747,-8.708098,-147.612856
49691,NaN,1.469140,-9.196331,-2.963543,0.003290,0.015291,-0.039601,-0.007129,0.007120,-0.004925,-0.104933,0.267637,-0.761197,0.581325,-107.795724,-8.709093,-147.613689
49692,NaN,1.431153,-9.205487,-2.978705,0.030690,0.046053,-0.032155,-0.007810,0.009420,-0.002008,-0.104916,0.267617,-0.761215,0.581314,-107.797769,-8.708751,-147.616620
49693,NaN,1.475382,-9.177512,-2.949257,-0.000276,0.003140,-0.060683,-0.003199,0.004962,-0.003775,-0.104917,0.267618,-0.761214,0.581314,-107.797643,-8.708740,-147.616465
49694,NaN,1.470907,-9.195684,-2.964675,0.001552,0.015179,-0.039600,-0.002785,0.009820,-0.007195,-0.104890,0.267618,-0.761210,0.581325,-107.797000,-8.711465,-147.618377
49695,NaN,1.462923,-9.162199,-2.962724,-0.000069,0.024156,-0.072914,-0.003155,0.006773,-0.008282,-0.104872,0.267631,-0.761204,0.581330,-107.796819,-8.714230,-147.618423
49696,NaN,1.488290,-9.137608,-2.961457,-0.027312,0.014371,-0.092597,-0.003156,0.006773,-0.008282,-0.104856,0.267645,-0.761197,0.581335,-107.796720,-8.716788,-147.618060
49697,NaN,1.459757,-9.182761,-2.936117,0.021684,0.000615,-0.062082,-0.002786,0.009820,-0.007195,-0.104829,0.267645,-0.761193,0.581345,-107.796043,-8.719494,-147.619980
49698,NaN,1.485064,-9.158237,-2.934654,-0.005492,-0.009152,-0.081767,-0.000543,0.011025,-0.005805,-0.104807,0.267640,-0.761184,0.581364,-107.794126,-8.721817,-147.622125
49699,NaN,1.475831,-9.197391,-2.922962,0.019242,-0.020550,-0.049850,-0.003425,0.013930,-0.008785,-0.104759,0.267634,-0.761181,0.581378,-107.793513,-8.726110,-147.626032
49700,NaN,1.462878,-9.182233,-2.936214,0.020019,0.000501,-0.062079,-0.002105,0.007519,-0.010113,-0.104733,0.267651,-0.761170,0.581389,-107.792753,-8.730028,-147.626158
49701,NaN,1.497112,-9.188339,-2.979020,-0.026692,0.017245,-0.038207,0.000775,0.004615,-0.007132,-0.104732,0.267664,-0.761153,0.581406,-107.790469,-8.731787,-147.625217
49702,NaN,1.459515,-9.200386,-2.951161,0.021261,0.012475,-0.040992,0.003884,0.005045,-0.008114,-0.104734,0.267683,-0.761125,0.581434,-107.786590,-8.734066,-147.623424
49703,NaN,1.489797,-9.154996,-2.976296,-0.028870,0.026149,-0.071524,0.002465,0.001251,-0.007372,-0.104746,0.267705,-0.761101,0.581453,-107.783627,-8.735368,-147.620583
49704,NaN,1.509724,-9.151547,-2.947687,-0.033170,-0.007082,-0.080381,0.001414,0.000504,-0.005542,-0.104769,0.267726,-0.761081,0.581465,-107.781389,-8.735375,-147.617124
49705,NaN,1.529462,-9.145470,-2.961296,-0.058001,-0.004772,-0.078996,0.001782,0.003550,-0.004455,-0.104780,0.267731,-0.761064,0.581483,-107.778547,-8.735488,-147.616069
49706,NaN,1.496600,-9.136518,-2.960632,-0.032974,0.013927,-0.092614,-0.002833,0.008005,-0.002689,-0.104774,0.267719,-0.761065,0.581488,-107.777949,-8.735367,-147.617785
49707,NaN,1.510979,-9.154082,-2.905198,-0.014329,-0.042705,-0.090629,0.001608,0.008608,0.004600,-0.104792,0.267674,-0.761063,0.581508,-107.774538,-8.731425,-147.621124
49708,NaN,1.491815,-9.157436,-2.933729,-0.011201,-0.009548,-0.081773,-0.007448,0.012460,-0.000924,-0.104762,0.267638,-0.761084,0.581503,-107.775970,-8.731197,-147.626678
49709,NaN,1.467552,-9.181614,-2.935818,0.014859,0.000152,-0.062069,-0.008911,0.006855,0.004325,-0.104772,0.267605,-0.761112,0.581480,-107.778741,-8.727098,-147.629001
49710,NaN,1.491978,-9.156999,-2.935012,-0.012367,-0.009638,-0.081774,-0.008683,0.010189,0.000362,-0.104759,0.267578,-0.761135,0.581465,-107.781224,-8.725542,-147.632407
49711,NaN,1.448536,-9.187177,-2.923467,0.037953,-0.002275,-0.063447,-0.010103,0.006395,0.001104,-0.104760,0.267559,-0.761162,0.581438,-107.784803,-8.723120,-147.633907
49712,NaN,1.448691,-9.186881,-2.924322,0.037394,-0.002292,-0.063444,-0.010606,0.006927,-0.000235,-0.104751,0.267543,-0.761188,0.581412,-107.788622,-8.721632,-147.635885
49713,NaN,1.448923,-9.186547,-2.925254,0.036824,-0.002324,-0.063442,-0.011158,0.002358,-0.001867,-0.104757,0.267548,-0.761212,0.581378,-107.793224,-8.720124,-147.634630
49714,NaN,1.435080,-9.173965,-2.897057,0.058146,-0.016774,-0.085901,-0.007730,0.000734,-0.002054,-0.104773,0.267555,-0.761225,0.581355,-107.795981,-8.718357,-147.632645
49715,NaN,1.463709,-9.198180,-2.955958,0.013763,0.012018,-0.040978,-0.010111,-0.000183,-0.008496,-0.104771,0.267593,-0.761235,0.581325,-107.800373,-8.720021,-147.628813
49716,NaN,1.455469,-9.164520,-2.954680,0.012185,0.021005,-0.074291,-0.008053,-0.000500,-0.007648,-0.104773,0.267625,-0.761240,0.581303,-107.803584,-8.721243,-147.625187
49717,NaN,1.489504,-9.170413,-2.998093,-0.034561,0.037715,-0.050462,-0.004944,-0.000068,-0.008629,-0.104777,0.267660,-0.761235,0.581292,-107.805010,-8.722999,-147.621395
49718,NaN,1.457036,-9.163908,-2.955806,0.011072,0.020920,-0.074290,-0.006819,0.001771,-0.008933,-0.104773,0.267698,-0.761235,0.581276,-107.807549,-8.725331,-147.617822
49719,NaN,1.496410,-9.151483,-2.983774,-0.038026,0.025548,-0.071554,-0.003525,0.003726,-0.009370,-0.104763,0.267723,-0.761227,0.581277,-107.807864,-8.728156,-147.615992
49720,NaN,1.511562,-9.166228,-2.970700,-0.039955,0.004403,-0.059329,-0.000049,0.007204,-0.009262,-0.104745,0.267737,-0.761211,0.581295,-107.805926,-8.731365,-147.615977
49721,NaN,1.512566,-9.163415,-3.012777,-0.061109,0.039862,-0.049105,0.000134,0.008727,-0.008718,-0.104722,0.267744,-0.761195,0.581316,-107.803708,-8.734710,-147.617023
49722,NaN,1.480272,-9.157141,-2.969735,-0.015531,0.023082,-0.072924,0.002193,0.008411,-0.007869,-0.104705,0.267745,-0.761176,0.581344,-107.800260,-8.737329,-147.618351
49723,NaN,1.490242,-9.190440,-2.971272,-0.015096,0.014033,-0.039610,0.007544,0.010051,-0.007457,-0.104691,0.267739,-0.761141,0.581394,-107.793651,-8.740218,-147.620352
49724,NaN,1.477270,-9.180981,-2.899095,0.026833,-0.035912,-0.072283,0.008961,0.013844,-0.008198,-0.104663,0.267725,-0.761104,0.581455,-107.785970,-8.744065,-147.624212
49725,NaN,1.487425,-9.211687,-2.942454,0.006676,-0.009467,-0.028745,0.007085,0.015682,-0.008502,-0.104623,0.267707,-0.761072,0.581511,-107.779180,-8.748509,-147.629138
49726,NaN,1.479423,-9.178572,-2.939370,0.005090,-0.000469,-0.062059,0.010104,0.009202,-0.005269,-0.104618,0.267689,-0.761034,0.581571,-107.770983,-8.750052,-147.631903
49727,NaN,1.466252,-9.166463,-2.909387,0.026451,-0.014903,-0.084504,0.007221,0.012103,-0.008252,-0.104593,0.267680,-0.761001,0.581623,-107.764408,-8.753733,-147.634898
49728,NaN,1.491607,-9.142099,-2.907189,-0.000725,-0.024695,-0.104237,0.004250,0.008092,-0.007022,-0.104582,0.267679,-0.760976,0.581658,-107.759832,-8.755982,-147.636042
49729,NaN,1.506584,-9.154321,-2.935904,-0.023226,-0.010332,-0.081795,-0.000553,0.011020,-0.005803,-0.104558,0.267669,-0.760968,0.581678,-107.757736,-8.758137,-147.638873
49730,NaN,1.502286,-9.175173,-2.909028,-0.000864,-0.033771,-0.070923,-0.003846,0.009064,-0.005367,-0.104536,0.267662,-0.760969,0.581683,-107.757648,-8.759738,-147.641025
49731,NaN,1.493961,-9.139025,-2.949473,-0.023028,0.010696,-0.094022,-0.006773,0.010153,-0.003844,-0.104513,0.267650,-0.760981,0.581677,-107.759136,-8.760672,-147.643724
49732,NaN,1.465013,-9.184130,-2.924833,0.025929,-0.002993,-0.063407,-0.011664,0.002880,-0.003213,-0.104512,0.267659,-0.761005,0.581642,-107.764042,-8.759985,-147.642540
49733,NaN,1.465294,-9.183746,-2.925896,0.025359,-0.003026,-0.063406,-0.012533,0.003655,-0.000840,-0.104514,0.267657,-0.761034,0.581604,-107.769295,-8.758144,-147.642182
49734,NaN,1.470681,-9.162357,-2.953856,0.001849,0.020354,-0.074282,-0.011482,0.004403,-0.002669,-0.104508,0.267657,-0.761059,0.581573,-107.773880,-8.757414,-147.642333
49735,NaN,1.484988,-9.176936,-2.941671,-0.000056,-0.000772,-0.062058,-0.010519,-0.001761,-0.000286,-0.104535,0.267668,-0.761081,0.581535,-107.778419,-8.754323,-147.639084
49736,NaN,1.460677,-9.201029,-2.944230,0.025979,0.008945,-0.042311,-0.011022,-0.001229,-0.001625,-0.104557,0.267686,-0.761101,0.581495,-107.783361,-8.752110,-147.635447
49737,NaN,1.480081,-9.194627,-2.958856,0.001140,0.011224,-0.040967,-0.007913,-0.000795,-0.002603,-0.104577,0.267702,-0.761113,0.581470,-107.786388,-8.750452,-147.632322
49738,NaN,1.504673,-9.169956,-2.957950,-0.026015,0.001430,-0.060718,-0.006175,0.000944,-0.002548,-0.104592,0.267709,-0.761120,0.581453,-107.788249,-8.749084,-147.630445
49739,NaN,1.504853,-9.169690,-2.958681,-0.026586,0.001394,-0.060719,-0.010476,0.003338,0.000010,-0.104600,0.267704,-0.761145,0.581422,-107.792327,-8.746724,-147.630064
49740,NaN,1.495883,-9.136171,-2.957332,-0.028173,0.010350,-0.094035,-0.008054,0.006069,0.001949,-0.104609,0.267682,-0.761167,0.581402,-107.794735,-8.743520,-147.631522
49741,NaN,1.504909,-9.169304,-2.959849,-0.027765,0.001299,-0.060722,-0.002703,0.007711,0.002364,-0.104618,0.267651,-0.761174,0.581405,-107.793930,-8.740641,-147.633971
49742,NaN,1.452579,-9.163762,-2.987920,0.000883,0.053174,-0.065413,-0.004353,0.012883,-0.001901,-0.104598,0.267626,-0.761182,0.581409,-107.793891,-8.740739,-147.637769
49743,NaN,1.491525,-9.154111,-2.973446,-0.027598,0.022277,-0.072948,-0.005405,0.012134,-0.000073,-0.104580,0.267593,-0.761197,0.581409,-107.794328,-8.739964,-147.642228
49744,NaN,1.467419,-9.181120,-2.933062,0.019017,-0.003460,-0.063392,-0.003207,0.008242,0.001026,-0.104581,0.267563,-0.761205,0.581413,-107.793737,-8.737820,-147.645166
49745,NaN,1.467644,-9.181004,-2.933313,0.018447,-0.003493,-0.063390,-0.004256,0.004206,-0.001948,-0.104589,0.267560,-0.761209,0.581407,-107.794232,-8.736680,-147.644917
49746,NaN,1.444870,-9.132640,-2.944700,0.018231,0.026584,-0.108927,-0.004760,0.004738,-0.003287,-0.104589,0.267557,-0.761213,0.581402,-107.794961,-8.736327,-147.645096
49747,NaN,1.449146,-9.186751,-2.920324,0.041566,-0.005859,-0.064716,-0.004620,0.001161,-0.003039,-0.104605,0.267567,-0.761216,0.581392,-107.795948,-8.735249,-147.642973
49748,NaN,1.473812,-9.162139,-2.919170,0.014448,-0.015649,-0.084480,-0.004802,-0.000361,-0.003584,-0.104622,0.267582,-0.761217,0.581380,-107.797151,-8.734359,-147.640337
49749,NaN,1.488356,-9.174105,-2.948790,-0.008093,-0.001304,-0.062061,-0.008556,0.003313,-0.004193,-0.104621,0.267592,-0.761230,0.581358,-107.800244,-8.734287,-147.639198
49750,NaN,1.483642,-9.192110,-2.964888,-0.006360,0.010716,-0.040969,-0.009608,0.002563,-0.002366,-0.104629,0.267601,-0.761248,0.581329,-107.804094,-8.733066,-147.637376
49751,NaN,1.508220,-9.170123,-2.921854,-0.012849,-0.034565,-0.070934,-0.007550,0.002248,-0.001516,-0.104641,0.267604,-0.761261,0.581308,-107.806628,-8.731347,-147.636123
49752,NaN,1.489144,-9.173229,-2.951116,-0.009795,-0.001442,-0.062063,-0.010479,0.003335,0.000007,-0.104651,0.267600,-0.761286,0.581277,-107.810769,-8.728954,-147.635551
49753,NaN,1.480144,-9.139688,-2.949841,-0.011324,0.007540,-0.095379,-0.009794,0.004325,0.001892,-0.104662,0.267585,-0.761311,0.581248,-107.814323,-8.725740,-147.636049
49754,NaN,1.455891,-9.163813,-2.952328,0.014695,0.017249,-0.075603,-0.010982,0.003867,-0.001332,-0.104670,0.267593,-0.761334,0.581214,-107.818972,-8.724233,-147.634380
49755,NaN,1.475344,-9.157356,-2.967008,-0.010146,0.019509,-0.074286,-0.011993,0.008216,0.000794,-0.104661,0.267571,-0.761366,0.581183,-107.823490,-8.722301,-147.636831
49756,NaN,1.456087,-9.163185,-2.954180,0.013582,0.017182,-0.075602,-0.009292,0.003792,0.003230,-0.104678,0.267554,-0.761391,0.581154,-107.826857,-8.718407,-147.637043
49757,NaN,1.450985,-9.181203,-2.970410,0.015294,0.029226,-0.054506,-0.012176,0.006693,0.000248,-0.104673,0.267540,-0.761423,0.581121,-107.831622,-8.716505,-147.638557
49758,NaN,1.465218,-9.195796,-2.958290,0.013358,0.008077,-0.042285,-0.012036,0.003116,0.000495,-0.104683,0.267533,-0.761453,0.581083,-107.836603,-8.713608,-147.638123
49759,NaN,1.465319,-9.195480,-2.959224,0.012786,0.008043,-0.042284,-0.009106,0.002030,-0.001028,-0.104695,0.267535,-0.761471,0.581056,-107.840034,-8.711583,-147.636838
49760,NaN,1.451311,-9.180276,-2.973117,0.013547,0.029089,-0.054503,-0.007229,0.000193,-0.000724,-0.104720,0.267543,-0.761483,0.581032,-107.842623,-8.709045,-147.634262
49761,NaN,1.461633,-9.140700,-2.985222,-0.012243,0.040358,-0.086509,-0.005492,0.001933,-0.000666,-0.104739,0.267542,-0.761491,0.581018,-107.843981,-8.706806,-147.632987
49762,NaN,1.509222,-9.164287,-2.973162,-0.039705,0.000386,-0.060764,-0.007048,0.001715,-0.000177,-0.104763,0.267550,-0.761503,0.580995,-107.846527,-8.704345,-147.630359
49763,NaN,1.476074,-9.155244,-2.973157,-0.014677,0.019161,-0.074291,-0.006135,0.006042,-0.002251,-0.104760,0.267543,-0.761513,0.580985,-107.847953,-8.703693,-147.631070
49764,NaN,1.471375,-9.176150,-2.946603,0.007690,-0.004282,-0.063376,-0.002842,0.008000,-0.002681,-0.104757,0.267534,-0.761513,0.580989,-107.847470,-8.703490,-147.632161
49765,NaN,1.466801,-9.194312,-2.962115,0.009387,0.007762,-0.042280,-0.004357,0.012880,-0.001892,-0.104732,0.267506,-0.761522,0.580995,-107.847297,-8.703843,-147.636709
49766,NaN,1.472425,-9.175821,-2.947102,0.006547,-0.004337,-0.063376,-0.006276,0.009618,-0.002497,-0.104713,0.267486,-0.761535,0.580991,-107.848445,-8.703982,-147.639879
49767,NaN,1.448693,-9.200112,-2.948865,0.032513,0.005427,-0.043579,0.000128,0.012013,-0.003903,-0.104691,0.267466,-0.761528,0.581013,-107.845828,-8.705279,-147.643591
49768,NaN,1.473660,-9.175614,-2.947129,0.005374,-0.004413,-0.063375,-0.001287,0.008218,-0.003169,-0.104684,0.267451,-0.761525,0.581026,-107.844261,-8.705327,-147.645676
49769,NaN,1.449951,-9.199949,-2.948756,0.031337,0.005352,-0.043575,-0.000596,0.005925,-0.006088,-0.104678,0.267456,-0.761514,0.581039,-107.842626,-8.706746,-147.645641
49770,NaN,1.455758,-9.178786,-2.975542,0.007799,0.028695,-0.054496,0.000087,0.006914,-0.004203,-0.104673,0.267447,-0.761505,0.581056,-107.840388,-8.707224,-147.646992
49771,NaN,1.475836,-9.175362,-2.946827,0.003643,-0.004512,-0.063374,0.002703,0.004602,-0.011322,-0.104662,0.267475,-0.761476,0.581082,-107.837113,-8.711266,-147.645297
49772,NaN,1.457368,-9.181405,-2.933015,0.027344,-0.006815,-0.064666,-0.001328,0.003119,-0.003470,-0.104671,0.267477,-0.761470,0.581088,-107.836027,-8.710777,-147.644514
49773,NaN,1.468439,-9.139079,-2.986844,-0.019121,0.039891,-0.086518,-0.002468,0.004479,-0.011198,-0.104654,0.267507,-0.761457,0.581095,-107.835723,-8.714729,-147.642774
49774,NaN,1.502803,-9.150449,-2.945329,-0.024569,-0.014442,-0.083181,-0.002979,0.008293,-0.007732,-0.104636,0.267520,-0.761450,0.581100,-107.835535,-8.717499,-147.642715
49775,NaN,1.479429,-9.174673,-2.947170,0.001386,-0.004672,-0.063374,-0.003340,0.005249,-0.008825,-0.104621,0.267540,-0.761443,0.581104,-107.835602,-8.720293,-147.641821
49776,NaN,1.461089,-9.177773,-2.976053,0.004393,0.028471,-0.054493,-0.006130,0.002757,-0.007057,-0.104616,0.267560,-0.761446,0.581092,-107.837423,-8.721717,-147.640070
49777,NaN,1.500246,-9.168051,-2.961568,-0.024026,-0.002467,-0.062088,-0.002335,0.004184,-0.006147,-0.104614,0.267571,-0.761438,0.581096,-107.836931,-8.722863,-147.639064
49778,NaN,1.476677,-9.192318,-2.963398,0.001922,0.007309,-0.042275,-0.002838,0.004716,-0.007486,-0.104605,0.267586,-0.761432,0.581100,-107.836712,-8.724835,-147.638318
49779,NaN,1.487509,-9.155587,-2.932749,-0.003136,-0.016881,-0.084472,0.000085,0.006914,-0.004203,-0.104602,0.267581,-0.761422,0.581116,-107.834553,-8.725400,-147.639163
49780,NaN,1.497151,-9.185969,-2.977104,-0.023536,0.009527,-0.040994,-0.001329,0.003119,-0.003470,-0.104608,0.267576,-0.761417,0.581124,-107.833277,-8.724769,-147.639273
49781,NaN,1.474424,-9.140470,-2.945934,-0.002988,0.004167,-0.096689,-0.001614,0.010270,-0.003961,-0.104591,0.267561,-0.761414,0.581138,-107.831804,-8.725790,-147.642013
49782,NaN,1.503165,-9.167454,-2.961934,-0.026923,-0.002632,-0.062096,-0.003758,0.003670,-0.000610,-0.104606,0.267555,-0.761418,0.581132,-107.832067,-8.723771,-147.641582
49783,NaN,1.475071,-9.140220,-2.946385,-0.004130,0.004087,-0.096690,-0.004261,0.004202,-0.001948,-0.104614,0.267551,-0.761422,0.581127,-107.832564,-8.722630,-147.641331
49784,NaN,1.494702,-9.133912,-2.960369,-0.029003,0.006312,-0.095414,-0.004404,0.007778,-0.002194,-0.104607,0.267535,-0.761429,0.581127,-107.832778,-8.722094,-147.643443
49785,NaN,1.470603,-9.160960,-2.920302,0.017655,-0.019343,-0.085748,-0.007373,0.003764,-0.000974,-0.104615,0.267531,-0.761443,0.581108,-107.835069,-8.720345,-147.643123
49786,NaN,1.451444,-9.166874,-2.907320,0.041345,-0.021633,-0.087020,-0.008606,0.001491,0.000305,-0.104632,0.267525,-0.761463,0.581083,-107.838147,-8.717430,-147.642267
49787,NaN,1.484986,-9.172671,-2.950603,-0.005546,-0.005068,-0.063375,-0.005134,0.004972,0.000425,-0.104643,0.267511,-0.761473,0.581074,-107.839017,-8.715130,-147.642863
49788,NaN,1.465865,-9.178562,-2.937678,0.018129,-0.007376,-0.064645,-0.012545,0.003638,-0.000852,-0.104646,0.267508,-0.761503,0.581035,-107.844251,-8.713094,-147.642668
49789,NaN,1.485269,-9.174873,-2.910108,0.014009,-0.040583,-0.073529,-0.009433,0.004077,-0.001826,-0.104648,0.267507,-0.761522,0.581010,-107.847718,-8.711864,-147.642371
49790,NaN,1.471239,-9.156762,-2.966562,-0.005976,0.015907,-0.075592,-0.014689,-0.002963,0.002497,-0.104681,0.267511,-0.761559,0.580953,-107.854657,-8.706970,-147.639124
49791,NaN,1.471017,-9.156365,-2.967897,-0.006547,0.015872,-0.075592,-0.013636,-0.002212,0.000671,-0.104709,0.267522,-0.761591,0.580902,-107.860991,-8.703273,-147.635802
49792,NaN,1.471024,-9.155949,-2.969177,-0.007128,0.015836,-0.075592,-0.014282,0.001896,-0.000911,-0.104715,0.267525,-0.761625,0.580855,-107.867375,-8.701103,-147.634680
49793,NaN,1.471053,-9.155559,-2.970365,-0.007699,0.015801,-0.075593,-0.011900,-0.000471,0.000732,-0.104738,0.267529,-0.761652,0.580813,-107.872567,-8.697679,-147.632329
49794,NaN,1.465930,-9.176291,-2.944732,0.014671,-0.007571,-0.064640,-0.014283,0.001896,-0.000911,-0.104741,0.267528,-0.761687,0.580768,-107.878865,-8.695544,-147.631680
49795,NaN,1.461045,-9.194158,-2.961313,0.016315,0.004474,-0.043538,-0.012727,0.002115,-0.001398,-0.104747,0.267534,-0.761715,0.580727,-107.884372,-8.693736,-147.630377
49796,NaN,1.485799,-9.166518,-3.002694,-0.031520,0.030058,-0.053234,-0.008201,0.006350,-0.003102,-0.104734,0.267523,-0.761732,0.580712,-107.886789,-8.693503,-147.632180
49797,NaN,1.452931,-9.160321,-2.960471,0.014250,0.013444,-0.076852,-0.004215,0.006021,-0.006449,-0.104722,0.267531,-0.761731,0.580712,-107.887229,-8.695136,-147.632133
49798,NaN,1.487058,-9.166066,-3.003449,-0.032664,0.029972,-0.053238,-0.003389,0.003434,-0.004320,-0.104729,0.267541,-0.761729,0.580709,-107.887437,-8.695118,-147.630736
49799,NaN,1.468377,-9.172089,-2.989956,-0.008959,0.027688,-0.054494,-0.001976,0.007229,-0.005049,-0.104719,0.267539,-0.761724,0.580718,-107.886456,-8.696200,-147.631604
49800,NaN,1.458745,-9.211424,-2.978485,0.015632,0.016372,-0.022431,0.000587,0.006383,-0.002859,-0.104724,0.267532,-0.761714,0.580734,-107.884096,-8.695904,-147.632126
49801,NaN,1.450271,-9.178202,-2.975914,0.014175,0.025358,-0.055746,0.004753,0.007576,-0.005657,-0.104720,0.267528,-0.761689,0.580769,-107.879246,-8.697378,-147.633077
49802,NaN,1.465279,-9.190374,-3.004367,-0.008450,0.039612,-0.033392,0.005950,0.004753,-0.007240,-0.104730,0.267546,-0.761655,0.580804,-107.874241,-8.699222,-147.631032
49803,NaN,1.451888,-9.178323,-2.974753,0.013053,0.025256,-0.055744,0.004429,0.009629,-0.006448,-0.104716,0.267540,-0.761631,0.580841,-107.869427,-8.701489,-147.632976
49804,NaN,1.462847,-9.141856,-2.943256,0.008100,0.001056,-0.097949,0.009242,0.006714,-0.007665,-0.104717,0.267547,-0.761589,0.580892,-107.862243,-8.703966,-147.632716
49805,NaN,1.483003,-9.135784,-2.956146,-0.016748,0.003263,-0.096703,0.004608,0.011150,-0.005901,-0.104699,0.267533,-0.761565,0.580932,-107.857185,-8.706201,-147.635597
49806,NaN,1.488789,-9.117505,-2.940370,-0.019520,-0.008804,-0.117807,0.001460,0.005613,-0.005232,-0.104691,0.267526,-0.761551,0.580955,-107.854126,-8.707212,-147.637073
49807,NaN,1.498447,-9.150730,-2.942324,-0.019214,-0.017859,-0.084492,0.002142,0.006602,-0.003346,-0.104695,0.267517,-0.761536,0.580978,-107.850792,-8.707255,-147.637898
49808,NaN,1.460391,-9.163018,-2.914987,0.028771,-0.022371,-0.086976,-0.003210,0.004953,-0.003773,-0.104695,0.267517,-0.761536,0.580979,-107.850658,-8.707214,-147.637955
49809,NaN,1.455955,-9.181151,-2.930550,0.030393,-0.010326,-0.065871,-0.002335,0.004184,-0.006146,-0.104693,0.267528,-0.761529,0.580983,-107.850166,-8.708360,-147.636950
49810,NaN,1.466797,-9.141565,-2.942195,0.004628,0.000877,-0.097947,-0.003713,0.005485,-0.005112,-0.104689,0.267531,-0.761529,0.580983,-107.850287,-8.708869,-147.637001
49811,NaN,1.485548,-9.207859,-2.946874,0.005793,-0.017199,-0.031314,-0.003389,0.003431,-0.004321,-0.104694,0.267538,-0.761527,0.580982,-107.850413,-8.708886,-147.635904
49812,NaN,1.443597,-9.165674,-2.944500,0.029947,0.010642,-0.078078,-0.005091,0.006785,-0.004078,-0.104686,0.267536,-0.761532,0.580977,-107.851258,-8.709285,-147.636646
49813,NaN,1.444037,-9.165487,-2.944868,0.029377,0.010609,-0.078076,-0.004443,0.002678,-0.002496,-0.104698,0.267539,-0.761535,0.580970,-107.852001,-8.708175,-147.635458
49814,NaN,1.483003,-9.155715,-2.930463,0.000990,-0.020377,-0.085734,-0.007832,0.006109,-0.006818,-0.104679,0.267547,-0.761545,0.580956,-107.854449,-8.709831,-147.635767
49815,NaN,1.445232,-9.164931,-2.946012,0.028202,0.010535,-0.078072,-0.008205,0.006344,-0.003106,-0.104670,0.267544,-0.761560,0.580939,-107.857057,-8.709697,-147.636493
49816,NaN,1.503390,-9.148929,-2.945401,-0.024422,-0.018220,-0.084505,-0.008205,0.006344,-0.003106,-0.104662,0.267542,-0.761575,0.580922,-107.859715,-8.709580,-147.637133
49817,NaN,1.446468,-9.161462,-2.989560,0.006282,0.045871,-0.067946,-0.009211,0.007409,-0.005784,-0.104640,0.267546,-0.761590,0.580904,-107.862883,-8.711094,-147.637970
49818,NaN,1.485515,-9.151618,-2.975307,-0.022067,0.014866,-0.075613,-0.007006,0.003522,-0.004688,-0.104641,0.267559,-0.761598,0.580888,-107.865187,-8.711256,-147.636423
49819,NaN,1.461830,-9.175799,-2.977669,0.003817,0.024682,-0.055735,-0.007509,0.004054,-0.006027,-0.104633,0.267574,-0.761606,0.580872,-107.867667,-8.712313,-147.635367
49820,NaN,1.467245,-9.157340,-2.962632,0.001066,0.012536,-0.076840,-0.000681,-0.000988,-0.001887,-0.104670,0.267588,-0.761597,0.580871,-107.866693,-8.710089,-147.631552
49821,NaN,1.467564,-9.157145,-2.963077,0.000496,0.012502,-0.076840,-0.008920,0.000259,-0.005299,-0.104677,0.267611,-0.761608,0.580845,-107.870279,-8.710082,-147.628531
49822,NaN,1.462853,-9.175202,-2.979007,0.002050,0.024510,-0.055734,-0.002416,-0.002730,-0.001950,-0.104718,0.267627,-0.761603,0.580836,-107.870343,-8.707397,-147.624151
49823,NaN,1.477202,-9.190031,-2.966106,0.000159,0.003375,-0.043524,-0.003066,0.001377,-0.003530,-0.104733,0.267638,-0.761600,0.580832,-107.870434,-8.706621,-147.622061
49824,NaN,1.449238,-9.162859,-2.950483,0.023005,0.010112,-0.078058,-0.003212,0.004952,-0.003772,-0.104738,0.267641,-0.761599,0.580832,-107.870410,-8.706423,-147.621442
49825,NaN,1.497282,-9.186383,-2.938067,-0.004483,-0.029902,-0.052421,-0.004915,0.008305,-0.003529,-0.104725,0.267632,-0.761605,0.580830,-107.870982,-8.706865,-147.623175
49826,NaN,1.464538,-9.177375,-2.938092,0.020525,-0.011025,-0.065846,-0.008857,0.010449,-0.004686,-0.104689,0.267614,-0.761624,0.580820,-107.873446,-8.708307,-147.627175
49827,NaN,1.446241,-9.177565,-3.009297,0.002624,0.057517,-0.046835,-0.004560,0.011346,-0.002431,-0.104668,0.267592,-0.761632,0.580823,-107.873531,-8.708685,-147.630781
49828,NaN,1.465847,-9.176931,-2.938824,0.019379,-0.011109,-0.065844,-0.004218,0.006016,-0.006450,-0.104657,0.267602,-0.761631,0.580822,-107.874041,-8.710242,-147.630483
49829,NaN,1.457711,-9.140570,-2.979146,-0.002840,0.033276,-0.089049,-0.006100,0.007848,-0.006755,-0.104635,0.267607,-0.761636,0.580817,-107.875416,-8.712362,-147.631390
49830,NaN,1.453193,-9.161485,-2.952804,0.019545,0.009907,-0.078050,-0.005125,0.001688,-0.004385,-0.104646,0.267622,-0.761638,0.580805,-107.876746,-8.711996,-147.629071
49831,NaN,1.482082,-9.188292,-2.969056,-0.004474,0.003064,-0.043524,-0.003746,0.000388,-0.005419,-0.104659,0.267643,-0.761634,0.580799,-107.877361,-8.712076,-147.626100
49832,NaN,1.492774,-9.148681,-2.980702,-0.030162,0.014285,-0.075634,-0.002190,0.000610,-0.005904,-0.104669,0.267660,-0.761626,0.580800,-107.876988,-8.712526,-147.623838
49833,NaN,1.483023,-9.188052,-2.969329,-0.005618,0.003014,-0.043525,0.002255,-0.002066,-0.003407,-0.104705,0.267677,-0.761606,0.580812,-107.874314,-8.711077,-147.619871
49834,NaN,1.493462,-9.148619,-2.980549,-0.031303,0.014203,-0.075638,0.000906,0.004328,-0.002065,-0.104720,0.267672,-0.761595,0.580826,-107.871897,-8.709995,-147.619525
49835,NaN,1.483618,-9.188075,-2.968961,-0.006761,0.002934,-0.043526,0.001439,0.008891,-0.000419,-0.104722,0.267646,-0.761587,0.580848,-107.868696,-8.708844,-147.622135
49836,NaN,1.455783,-9.161126,-2.952642,0.016092,0.009723,-0.078044,0.004956,0.014194,-0.004794,-0.104693,0.267613,-0.761567,0.580894,-107.863008,-8.710885,-147.627723
49837,NaN,1.456411,-9.161228,-2.952016,0.015521,0.009689,-0.078043,0.004730,0.010854,-0.000841,-0.104691,0.267582,-0.761550,0.580931,-107.857768,-8.710309,-147.631341
49838,NaN,1.461999,-9.143022,-2.936099,0.012808,-0.002419,-0.099151,0.003044,0.010930,-0.005406,-0.104671,0.267566,-0.761533,0.580965,-107.853582,-8.712229,-147.634496
49839,NaN,1.457629,-9.161360,-2.951006,0.014377,0.009626,-0.078041,0.004552,0.009333,-0.001389,-0.104673,0.267541,-0.761515,0.580999,-107.848586,-8.711684,-147.637176
49840,NaN,1.482322,-9.136910,-2.948865,-0.012610,-0.000279,-0.097954,0.000581,0.006381,-0.002856,-0.104676,0.267532,-0.761505,0.581016,-107.846156,-8.711453,-147.638129
49841,NaN,1.477566,-9.158028,-2.922005,0.009791,-0.023620,-0.086942,-0.000976,0.006159,-0.002371,-0.104679,0.267522,-0.761500,0.581026,-107.844619,-8.710885,-147.638884
49842,NaN,1.458884,-9.161284,-2.950621,0.012686,0.009504,-0.078039,-0.001331,0.003118,-0.003468,-0.104694,0.267532,-0.761492,0.581029,-107.843739,-8.710387,-147.637036
49843,NaN,1.458894,-9.164083,-2.908598,0.032956,-0.025913,-0.088132,-0.003262,0.003131,0.000728,-0.104715,0.267521,-0.761497,0.581025,-107.843682,-8.707598,-147.636670
49844,NaN,1.454194,-9.179268,-2.966793,0.013680,0.021500,-0.056927,-0.010672,0.001788,-0.000560,-0.104729,0.267525,-0.761520,0.580990,-107.848110,-8.705257,-147.634986
49845,NaN,1.487364,-9.190664,-2.925734,0.008352,-0.032817,-0.053624,-0.004671,-0.000665,0.001454,-0.104765,0.267523,-0.761527,0.580975,-107.849157,-8.701405,-147.632656
49846,NaN,1.453933,-9.181728,-2.925979,0.033364,-0.013955,-0.067017,-0.010495,0.003309,-0.000011,-0.104774,0.267516,-0.761552,0.580944,-107.853234,-8.698938,-147.632413
49847,NaN,1.454100,-9.181404,-2.926914,0.032794,-0.013988,-0.067015,-0.010998,0.003841,-0.001350,-0.104776,0.267515,-0.761576,0.580912,-107.857605,-8.697407,-147.632071
49848,NaN,1.445364,-9.144981,-2.967701,0.010557,0.030350,-0.090240,-0.008762,0.005051,0.000053,-0.104784,0.267508,-0.761596,0.580888,-107.860691,-8.695187,-147.631999
49849,NaN,1.483973,-9.135096,-2.953649,-0.017733,-0.000670,-0.097962,-0.013059,0.004151,-0.002205,-0.104780,0.267510,-0.761626,0.580849,-107.866240,-8.694176,-147.631675
49850,NaN,1.484297,-9.134678,-2.954781,-0.018305,-0.000742,-0.097963,-0.013059,0.004151,-0.002205,-0.104780,0.267518,-0.761654,0.580808,-107.871968,-8.693034,-147.630482
49851,NaN,1.465606,-9.137477,-2.984755,-0.015446,0.032405,-0.089058,-0.018736,0.004550,-0.003429,-0.104763,0.267527,-0.761698,0.580749,-107.880770,-8.692760,-147.630161
49852,NaN,1.427466,-9.149426,-2.958934,0.032560,0.027992,-0.091416,-0.013209,0.007724,-0.002445,-0.104743,0.267519,-0.761730,0.580715,-107.886098,-8.692541,-147.632015
49853,NaN,1.475241,-9.172673,-2.947404,0.005078,-0.012058,-0.065827,-0.015318,0.006213,0.001202,-0.104738,0.267503,-0.761772,0.580669,-107.892678,-8.690035,-147.633436
49854,NaN,1.451358,-9.196680,-2.950578,0.030894,-0.002216,-0.045891,-0.015949,0.007046,-0.005187,-0.104711,0.267510,-0.761807,0.580624,-107.899750,-8.691062,-147.634118
49855,NaN,1.441875,-9.235642,-2.940477,0.055407,-0.013463,-0.013747,-0.012509,0.005437,-0.005367,-0.104693,0.267520,-0.761831,0.580591,-107.904962,-8.692002,-147.633942
49856,NaN,1.452707,-9.195756,-2.952794,0.029743,-0.002311,-0.045887,-0.010952,0.005659,-0.005851,-0.104679,0.267535,-0.761850,0.580562,-107.909400,-8.693117,-147.633211
49857,NaN,1.453728,-9.192437,-2.995720,0.008299,0.033025,-0.035806,-0.006633,0.003286,-0.008403,-0.104668,0.267560,-0.761852,0.580550,-107.911506,-8.695333,-147.631306
49858,NaN,1.469701,-9.134400,-2.992151,-0.019452,0.032131,-0.089065,-0.006634,0.003286,-0.008403,-0.104656,0.267584,-0.761854,0.580538,-107.913601,-8.697615,-147.629654
49859,NaN,1.470383,-9.136982,-2.950676,0.000852,-0.003271,-0.099143,-0.009224,-0.000965,-0.010908,-0.104651,0.267632,-0.761858,0.580512,-107.917615,-8.700447,-147.624958
49860,NaN,1.509851,-9.124132,-2.978458,-0.048338,0.001054,-0.096808,-0.004574,0.002975,-0.007548,-0.104646,0.267649,-0.761856,0.580507,-107.918443,-8.701896,-147.623542
49861,NaN,1.491516,-9.127133,-3.007575,-0.045498,0.034200,-0.087902,-0.007689,0.002529,-0.006580,-0.104643,0.267670,-0.761863,0.580489,-107.921169,-8.702984,-147.621545
49862,NaN,1.506422,-9.141792,-2.994937,-0.047416,0.013058,-0.075701,-0.004901,0.005028,-0.008337,-0.104626,0.267684,-0.761862,0.580486,-107.922029,-8.705286,-147.621195
49863,NaN,1.521330,-9.156547,-2.982002,-0.049298,-0.008083,-0.063500,-0.001985,0.007225,-0.005043,-0.104617,0.267683,-0.761857,0.580495,-107.921053,-8.706363,-147.622062
49864,NaN,1.502724,-9.162625,-2.968641,-0.025574,-0.010305,-0.064665,-0.005427,0.008832,-0.004863,-0.104598,0.267678,-0.761863,0.580493,-107.921960,-8.707638,-147.623750
49865,NaN,1.498392,-9.180644,-2.984487,-0.024053,0.001738,-0.043553,-0.006306,0.009596,-0.002491,-0.104581,0.267662,-0.761875,0.580487,-107.923194,-8.707742,-147.626380
49866,NaN,1.465457,-9.171749,-2.984453,0.000964,0.020587,-0.056916,-0.004598,0.006246,-0.002736,-0.104584,0.267662,-0.761880,0.580482,-107.923921,-8.707213,-147.626174
49867,NaN,1.470710,-9.153309,-2.969441,-0.001697,0.008474,-0.078030,-0.007035,0.006786,0.000120,-0.104584,0.267645,-0.761896,0.580468,-107.925736,-8.705398,-147.627720
49868,NaN,1.475183,-9.204601,-2.987564,0.000561,0.011447,-0.023599,-0.003744,0.008752,-0.000297,-0.104585,0.267624,-0.761903,0.580468,-107.925624,-8.703848,-147.629642
49869,NaN,1.461033,-9.192541,-2.958688,0.022192,-0.002840,-0.045867,-0.000679,-0.000987,-0.001889,-0.104618,0.267634,-0.761894,0.580469,-107.924500,-8.701758,-147.626542
49870,NaN,1.447249,-9.174587,-3.014028,0.001994,0.053566,-0.048003,0.000352,0.003040,0.001101,-0.104647,0.267619,-0.761889,0.580478,-107.922368,-8.698506,-147.626191
49871,NaN,1.476257,-9.134825,-2.954422,-0.006131,-0.003809,-0.099145,0.001055,0.000756,-0.001822,-0.104675,0.267622,-0.761876,0.580488,-107.920103,-8.696687,-147.624065
49872,NaN,1.485877,-9.165053,-2.998786,-0.026852,0.022483,-0.055766,0.001055,0.000756,-0.001822,-0.104703,0.267623,-0.761864,0.580499,-107.917784,-8.694768,-147.622309
49873,NaN,1.457560,-9.138113,-2.982852,-0.003904,0.029305,-0.090232,-0.000151,0.003573,-0.000238,-0.104724,0.267612,-0.761858,0.580508,-107.915933,-8.692582,-147.622019
49874,NaN,1.476800,-9.134802,-2.954221,-0.007854,-0.003906,-0.099146,-0.000654,0.004106,-0.001576,-0.104736,0.267604,-0.761853,0.580516,-107.914335,-8.691266,-147.622098
49875,NaN,1.500669,-9.179952,-2.985471,-0.029874,0.001278,-0.043569,-0.000453,0.010719,-0.000713,-0.104728,0.267575,-0.761851,0.580533,-107.912074,-8.690599,-147.625663
49876,NaN,1.472709,-9.152963,-2.969517,-0.006940,0.008116,-0.078032,-0.001283,0.013304,-0.002840,-0.104699,0.267542,-0.761851,0.580554,-107.910002,-8.691493,-147.631071
49877,NaN,1.463242,-9.192429,-2.957946,0.017543,-0.003112,-0.045858,0.003717,0.011921,-0.003502,-0.104684,0.267518,-0.761834,0.580590,-107.905326,-8.692558,-147.634803
49878,NaN,1.416262,-9.168780,-2.970461,0.043844,0.036921,-0.071400,-0.000981,0.006158,-0.002365,-0.104683,0.267500,-0.761831,0.580602,-107.903586,-8.691880,-147.636737
49879,NaN,1.459093,-9.213614,-2.930834,0.039347,-0.026430,-0.034795,0.001632,0.007138,-0.004670,-0.104680,0.267495,-0.761816,0.580624,-107.900535,-8.692738,-147.637622
49880,NaN,1.426492,-9.201974,-2.972278,0.043432,0.027810,-0.038078,0.004019,0.004776,-0.003026,-0.104695,0.267490,-0.761795,0.580652,-107.896288,-8.692108,-147.637434
49881,NaN,1.436803,-9.165510,-2.941045,0.038731,0.003620,-0.080308,0.001783,0.003565,-0.004432,-0.104706,0.267495,-0.761778,0.580670,-107.893442,-8.692207,-147.636391
49882,NaN,1.475879,-9.153033,-2.967726,-0.010399,0.007914,-0.078035,0.007111,0.000130,-0.004304,-0.104737,0.267507,-0.761744,0.580703,-107.887881,-8.691766,-147.633436
49883,NaN,1.500470,-9.128576,-2.965451,-0.037322,-0.002039,-0.098018,0.000728,0.002809,-0.002610,-0.104755,0.267508,-0.761732,0.580715,-107.885653,-8.690739,-147.632301
49884,NaN,1.500744,-9.128513,-2.965507,-0.037874,-0.002054,-0.098020,-0.002563,0.000842,-0.002195,-0.104774,0.267511,-0.761730,0.580713,-107.885414,-8.689288,-147.630677
49885,NaN,1.501138,-9.128365,-2.965761,-0.038443,-0.002090,-0.098022,-0.004752,0.009816,-0.002977,-0.104757,0.267496,-0.761737,0.580714,-107.885752,-8.689695,-147.633342
49886,NaN,1.482319,-9.134472,-2.952475,-0.014746,-0.004278,-0.099154,-0.004249,0.009283,-0.001638,-0.104744,0.267472,-0.761745,0.580716,-107.885707,-8.689161,-147.636570
49887,NaN,1.477705,-9.152556,-2.968288,-0.013262,0.007765,-0.078038,-0.006688,0.009823,0.001218,-0.104737,0.267441,-0.761764,0.580708,-107.887041,-8.687281,-147.639985
49888,NaN,1.458634,-9.158648,-2.955187,0.010445,0.005560,-0.079166,-0.006840,0.013395,0.000980,-0.104716,0.267402,-0.761784,0.580703,-107.888205,-8.686039,-147.645214
49889,NaN,1.468272,-9.191616,-2.957980,0.010618,-0.003503,-0.045848,-0.008195,0.011420,-0.002800,-0.104689,0.267383,-0.761802,0.580693,-107.890378,-8.686631,-147.648795
49890,NaN,1.420956,-9.170754,-2.929027,0.057884,0.001170,-0.081413,-0.004250,0.009282,-0.001637,-0.104680,0.267365,-0.761810,0.580693,-107.890505,-8.686135,-147.651148
49891,NaN,1.431008,-9.200737,-2.973939,0.037113,0.027447,-0.038051,-0.007512,0.004045,-0.006036,-0.104672,0.267379,-0.761818,0.580677,-107.892987,-8.687194,-147.650085
49892,NaN,1.431830,-9.200469,-2.974371,0.036564,0.027404,-0.038049,-0.003341,0.005249,-0.008822,-0.104659,0.267402,-0.761810,0.580679,-107.893195,-8.690078,-147.648680
49893,NaN,1.451946,-9.194093,-2.987811,0.011697,0.029521,-0.036926,0.004550,0.000974,-0.006497,-0.104678,0.267421,-0.761781,0.580705,-107.889035,-8.690848,-147.645841
49894,NaN,1.491035,-9.184517,-2.972337,-0.016540,-0.001584,-0.044727,0.003371,0.000520,-0.009726,-0.104691,0.267456,-0.761750,0.580727,-107.885767,-8.693079,-147.641707
49895,NaN,1.482645,-9.151277,-2.969768,-0.017846,0.007410,-0.078045,0.002490,0.001283,-0.007354,-0.104703,0.267479,-0.761726,0.580746,-107.882785,-8.694371,-147.638885
49896,NaN,1.507700,-9.126699,-2.967559,-0.044732,-0.002558,-0.098049,0.002183,0.008426,-0.007829,-0.104686,0.267483,-0.761706,0.580774,-107.879450,-8.697258,-147.639854
49897,NaN,1.484727,-9.148236,-3.011226,-0.039926,0.042672,-0.068012,0.004417,0.009637,-0.006421,-0.104672,0.267476,-0.761681,0.580811,-107.874642,-8.699511,-147.641807
49898,NaN,1.499461,-9.166150,-2.955463,-0.020848,-0.013797,-0.065850,0.000645,0.013293,-0.007034,-0.104636,0.267461,-0.761670,0.580840,-107.871669,-8.702757,-147.646039
49899,NaN,1.486172,-9.151225,-2.968166,-0.020114,0.007277,-0.078049,0.005770,0.011611,-0.002641,-0.104627,0.267433,-0.761648,0.580883,-107.865819,-8.703295,-147.649754
49900,NaN,1.462438,-9.178864,-2.927162,0.026594,-0.018182,-0.068073,0.006168,0.016471,-0.006039,-0.104594,0.267408,-0.761622,0.580934,-107.859563,-8.706410,-147.654911
49901,NaN,1.458604,-9.197182,-2.941893,0.028052,-0.006136,-0.046952,0.005472,0.010392,-0.008242,-0.104573,0.267406,-0.761593,0.580978,-107.854136,-8.709787,-147.656958
49902,NaN,1.440456,-9.203548,-2.927546,0.051709,-0.008304,-0.048057,0.008433,0.014411,-0.009444,-0.104534,0.267385,-0.761558,0.581040,-107.846467,-8.714217,-147.662226
49903,NaN,1.436744,-9.221922,-2.942060,0.053162,0.003743,-0.026934,0.008741,0.007268,-0.008968,-0.104527,0.267393,-0.761516,0.581092,-107.839447,-8.717441,-147.662421
49904,NaN,1.467079,-9.176299,-2.965917,0.003241,0.017016,-0.058040,0.009572,0.004684,-0.006839,-0.104536,0.267394,-0.761475,0.581144,-107.831996,-8.718862,-147.662200
49905,NaN,1.491640,-9.154855,-2.921022,-0.002677,-0.028284,-0.088083,0.006282,0.002716,-0.006427,-0.104550,0.267407,-0.761442,0.581179,-107.826698,-8.719901,-147.660335
49906,NaN,1.502331,-9.115487,-2.931617,-0.028283,-0.017151,-0.120299,0.007131,0.005223,-0.003986,-0.104562,0.267398,-0.761412,0.581220,-107.820555,-8.719917,-147.660776
49907,NaN,1.536075,-9.124116,-2.931812,-0.054449,-0.036160,-0.107005,-0.005504,0.001911,-0.000684,-0.104581,0.267397,-0.761420,0.581206,-107.821922,-8.717683,-147.659486
49908,NaN,1.502753,-9.115337,-2.931866,-0.029426,-0.017230,-0.120303,-0.004637,0.009509,0.002068,-0.104580,0.267363,-0.761434,0.581204,-107.822099,-8.715210,-147.662899
49909,NaN,1.507195,-9.166616,-2.950080,-0.027267,-0.014217,-0.065867,-0.009639,0.010888,0.002724,-0.104569,0.267325,-0.761463,0.581185,-107.824993,-8.712691,-147.667168
49910,NaN,1.449031,-9.185214,-2.910503,0.045070,-0.020666,-0.069155,-0.014867,0.008927,0.007328,-0.104574,0.267283,-0.761512,0.581139,-107.831072,-8.707355,-147.670578
49911,NaN,1.429467,-9.191113,-2.898356,0.068796,-0.022829,-0.070247,-0.017931,0.010298,0.003791,-0.104557,0.267247,-0.761567,0.581087,-107.838738,-8.704152,-147.674711
49912,NaN,1.424624,-9.208874,-2.915364,0.070216,-0.010818,-0.049122,-0.018607,0.009310,0.001901,-0.104542,0.267225,-0.761620,0.581030,-107.847048,-8.701596,-147.677324
49913,NaN,1.448934,-9.183785,-2.915056,0.043341,-0.020798,-0.069148,-0.019301,0.003232,-0.000303,-0.104539,0.267226,-0.761670,0.580966,-107.856199,-8.699386,-147.676832
49914,NaN,1.449370,-9.180228,-2.958940,0.021754,0.014469,-0.059129,-0.018800,0.002699,0.001036,-0.104543,0.267222,-0.761720,0.580901,-107.865067,-8.696165,-147.676325
49915,NaN,1.454268,-9.161396,-2.945277,0.019178,0.002358,-0.080249,-0.021207,-0.000032,-0.000925,-0.104547,0.267236,-0.761772,0.580825,-107.875600,-8.693720,-147.673922
49916,NaN,1.487739,-9.169427,-2.947482,-0.006982,-0.016648,-0.066966,-0.019495,-0.003379,-0.001169,-0.104564,0.267258,-0.761818,0.580752,-107.885404,-8.690897,-147.669995
49917,NaN,1.483731,-9.114392,-2.973671,-0.031248,0.015584,-0.111393,-0.017955,-0.008245,-0.001966,-0.104601,0.267298,-0.761856,0.580678,-107.894785,-8.687573,-147.662877
49918,NaN,1.454742,-9.156557,-2.992995,-0.003506,0.037597,-0.070234,-0.021538,0.002017,-0.001711,-0.104592,0.267307,-0.761910,0.580604,-107.905338,-8.686043,-147.661801
49919,NaN,1.488280,-9.164656,-2.994932,-0.029677,0.018575,-0.056957,-0.013973,-0.000201,-0.000169,-0.104609,0.267315,-0.761942,0.580555,-107.911719,-8.683155,-147.659441
49920,NaN,1.469089,-9.170532,-2.982714,-0.005955,0.016423,-0.058040,-0.014631,0.003902,-0.001744,-0.104603,0.267315,-0.761977,0.580510,-107.918142,-8.681850,-147.659398
49921,NaN,1.478549,-9.203386,-2.985952,-0.005835,0.007357,-0.024723,-0.007047,0.006774,0.000115,-0.104603,0.267298,-0.761993,0.580496,-107.919966,-8.680036,-147.660936
49922,NaN,1.460001,-9.206476,-3.014957,-0.003117,0.040510,-0.015794,-0.003029,0.011554,-0.002902,-0.104582,0.267275,-0.761997,0.580506,-107.919181,-8.680704,-147.664665
49923,NaN,1.451022,-9.176234,-2.970496,0.016625,0.014199,-0.059118,-0.001471,0.011779,-0.003382,-0.104560,0.267254,-0.761995,0.580522,-107.917488,-8.681679,-147.668339
49924,NaN,1.446781,-9.194403,-2.985870,0.018047,0.026239,-0.037994,0.000589,0.011471,-0.002524,-0.104546,0.267230,-0.761988,0.580545,-107.914666,-8.682144,-147.671891
49925,NaN,1.452226,-9.176216,-2.969966,0.015487,0.014127,-0.059116,0.005248,0.007056,-0.004283,-0.104549,0.267222,-0.761963,0.580581,-107.909540,-8.682777,-147.672800
49926,NaN,1.434126,-9.179536,-2.998069,0.018213,0.047271,-0.050185,0.005128,0.007362,-0.009333,-0.104537,0.267236,-0.761931,0.580618,-107.904705,-8.686258,-147.672563
49927,NaN,1.454029,-9.176335,-2.968715,0.014357,0.014048,-0.059114,0.007517,0.005002,-0.007688,-0.104541,0.267246,-0.761894,0.580662,-107.898542,-8.688385,-147.671733
49928,NaN,1.479021,-9.151852,-2.966088,-0.012527,0.004004,-0.079167,0.004400,0.004551,-0.006727,-0.104551,0.267259,-0.761866,0.580691,-107.894302,-8.689606,-147.670099
49929,NaN,1.479524,-9.154926,-2.923390,0.007924,-0.031333,-0.089168,0.005127,0.007361,-0.009334,-0.104538,0.267270,-0.761835,0.580729,-107.889356,-8.693046,-147.670277
49930,NaN,1.461569,-9.158213,-2.951553,0.010615,0.001829,-0.080236,0.004070,0.006602,-0.007514,-0.104530,0.267272,-0.761810,0.580762,-107.884953,-8.695297,-147.670877
49931,NaN,1.500678,-9.148564,-2.936065,-0.017529,-0.029285,-0.088102,0.000608,0.003114,-0.007657,-0.104532,0.267291,-0.761791,0.580777,-107.882905,-8.697076,-147.669011
49932,NaN,1.472299,-9.191234,-2.953636,0.010129,-0.007288,-0.046918,-0.003221,0.004943,-0.003773,-0.104535,0.267292,-0.761791,0.580777,-107.882816,-8.696906,-147.668768
49933,NaN,1.482796,-9.151642,-2.964851,-0.015416,0.003819,-0.079172,0.000899,0.004328,-0.002055,-0.104549,0.267286,-0.761780,0.580792,-107.880348,-8.695844,-147.668570
49934,NaN,1.454240,-9.194387,-2.982296,0.012277,0.025829,-0.037984,-0.000449,0.002355,-0.005838,-0.104558,0.267304,-0.761766,0.580800,-107.879025,-8.696597,-147.666274
49935,NaN,1.488120,-9.202909,-2.982667,-0.013895,0.006789,-0.024731,-0.001348,-0.001973,-0.003783,-0.104588,0.267324,-0.761756,0.580798,-107.878418,-8.695368,-147.662292
49936,NaN,1.483857,-9.151418,-2.965013,-0.017108,0.003739,-0.079174,-0.000689,-0.006076,-0.002208,-0.104634,0.267343,-0.761746,0.580795,-107.877575,-8.692635,-147.657351
49937,NaN,1.464519,-9.157754,-2.951516,0.006622,0.001600,-0.080233,0.002930,-0.006157,-0.001829,-0.104691,0.267365,-0.761724,0.580803,-107.874813,-8.689605,-147.651409
49938,NaN,1.483427,-9.154454,-2.922888,0.002775,-0.031644,-0.089166,-0.002248,-0.006301,-0.001728,-0.104744,0.267391,-0.761717,0.580791,-107.875073,-8.686351,-147.645210
49939,NaN,1.488547,-9.133091,-2.949879,-0.020797,-0.008464,-0.100303,-0.002959,-0.004022,0.001196,-0.104795,0.267399,-0.761717,0.580778,-107.875425,-8.682047,-147.640984
49940,NaN,1.483111,-9.154282,-2.923587,0.001631,-0.031732,-0.089166,-0.004675,-0.000677,0.001441,-0.104832,0.267399,-0.761725,0.580761,-107.876552,-8.678100,-147.638327
49941,NaN,1.445081,-9.160670,-2.981580,0.007570,0.034617,-0.071296,-0.009336,0.003736,0.003199,-0.104850,0.267380,-0.761750,0.580733,-107.879857,-8.674068,-147.638737
49942,NaN,1.482640,-9.153865,-2.925132,0.000542,-0.031811,-0.089167,-0.011951,0.002752,0.005499,-0.104877,0.267363,-0.761785,0.580691,-107.884891,-8.668812,-147.638204
49943,NaN,1.458238,-9.178121,-2.928226,0.026229,-0.021864,-0.069089,-0.013112,0.007387,0.002586,-0.104875,0.267338,-0.761822,0.580654,-107.890073,-8.665758,-147.640519
49944,NaN,1.439299,-9.181022,-2.958069,0.028901,0.011316,-0.060151,-0.013630,0.002830,0.000929,-0.104879,0.267327,-0.761858,0.580611,-107.895851,-8.662842,-147.640838
49945,NaN,1.458202,-9.177344,-2.930680,0.025082,-0.021909,-0.069086,-0.015361,0.001085,0.000857,-0.104893,0.267328,-0.761896,0.580558,-107.902892,-8.659621,-147.639370
49946,NaN,1.448549,-9.213329,-2.963120,0.028389,0.002167,-0.026831,-0.015864,0.001618,-0.000482,-0.104905,0.267338,-0.761934,0.580502,-107.910387,-8.656966,-147.637000
49947,NaN,1.463628,-9.155039,-2.960367,0.000914,0.001183,-0.080230,-0.018786,-0.005669,-0.004105,-0.104925,0.267379,-0.761972,0.580429,-107.920084,-8.655259,-147.630923
49948,NaN,1.444400,-9.160767,-2.948745,0.024644,-0.000921,-0.081272,-0.019844,-0.006429,-0.002286,-0.104948,0.267411,-0.762017,0.580352,-107.930287,-8.652494,-147.625527
49949,NaN,1.478769,-9.162647,-3.034976,-0.043650,0.050590,-0.048084,-0.013265,-0.002488,-0.003101,-0.104966,0.267436,-0.762042,0.580304,-107.936528,-8.650799,-147.621384
49950,NaN,1.459319,-9.171581,-2.980784,0.001140,0.013152,-0.059103,-0.017560,-0.003393,-0.005371,-0.104979,0.267479,-0.762075,0.580238,-107.945507,-8.650080,-147.615673
49951,NaN,1.473800,-9.186053,-2.968965,-0.000726,-0.007996,-0.046913,-0.011692,0.002827,-0.003260,-0.104978,0.267489,-0.762099,0.580203,-107.950410,-8.649409,-147.614433
49952,NaN,1.460064,-9.170666,-2.983233,-0.000024,0.013095,-0.059102,-0.013251,0.002600,-0.002780,-0.104975,0.267493,-0.762128,0.580163,-107.956097,-8.648377,-147.613866
49953,NaN,1.484469,-9.145684,-2.982349,-0.026836,0.003068,-0.079196,-0.013791,0.006395,0.000699,-0.104969,0.267478,-0.762164,0.580123,-107.961802,-8.646178,-147.615301
49954,NaN,1.465284,-9.151747,-2.969713,-0.003110,0.000915,-0.080231,-0.006881,0.008286,0.000671,-0.104970,0.267458,-0.762181,0.580110,-107.963531,-8.644201,-147.617094
49955,NaN,1.451606,-9.136461,-2.983623,-0.002388,0.021995,-0.092420,-0.012180,0.008449,-0.004278,-0.104944,0.267455,-0.762207,0.580081,-107.968276,-8.645078,-147.618771
49956,NaN,1.461091,-9.169322,-2.986860,-0.002345,0.012930,-0.059103,-0.008996,0.006765,0.004309,-0.104952,0.267419,-0.762236,0.580059,-107.971007,-8.640871,-147.621646
49957,NaN,1.471169,-9.129496,-2.998818,-0.027858,0.024013,-0.091391,-0.012234,0.006621,0.000219,-0.104947,0.267404,-0.762268,0.580025,-107.975813,-8.638975,-147.623119
49958,NaN,1.460800,-9.171933,-2.946282,0.017609,-0.022399,-0.069071,-0.005165,0.004942,0.000423,-0.104955,0.267389,-0.762278,0.580017,-107.976684,-8.636804,-147.624043
49959,NaN,1.427877,-9.160001,-2.988619,0.021550,0.031875,-0.072317,-0.006725,0.004715,0.000903,-0.104966,0.267374,-0.762294,0.580001,-107.978473,-8.634197,-147.624589
49960,NaN,1.451311,-9.207978,-2.978362,0.020299,0.001726,-0.026810,-0.005510,0.001905,-0.000685,-0.104978,0.267364,-0.762304,0.579990,-107.979613,-8.631990,-147.624660
49961,NaN,1.408751,-9.166077,-2.975947,0.044692,0.029764,-0.073338,-0.000674,-0.000984,-0.001893,-0.105010,0.267374,-0.762295,0.579992,-107.978482,-8.629899,-147.621564
49962,NaN,1.442405,-9.174703,-2.976107,0.018544,0.010647,-0.060126,0.004004,-0.000304,-0.003332,-0.105050,0.267395,-0.762269,0.580009,-107.974963,-8.628670,-147.617081
49963,NaN,1.457419,-9.186478,-3.005030,-0.004414,0.024769,-0.037974,-0.002510,0.002669,-0.006694,-0.105052,0.267413,-0.762261,0.580011,-107.974710,-8.629842,-147.615140
49964,NaN,1.452935,-9.138266,-2.944732,0.013578,-0.013599,-0.102383,0.006567,-0.001144,-0.001134,-0.105100,0.267421,-0.762231,0.580037,-107.969583,-8.627314,-147.611407
49965,NaN,1.492007,-9.125617,-2.971183,-0.035600,-0.009485,-0.100347,0.003014,0.005852,-0.005686,-0.105101,0.267423,-0.762210,0.580064,-107.965875,-8.628499,-147.611401
49966,NaN,1.468987,-9.147065,-3.014980,-0.031062,0.035735,-0.070276,0.004744,0.007597,-0.005612,-0.105099,0.267420,-0.762185,0.580099,-107.961079,-8.629844,-147.612189
49967,NaN,1.483795,-9.162075,-3.001364,-0.032927,0.014584,-0.058091,0.003013,0.005852,-0.005686,-0.105099,0.267422,-0.762164,0.580125,-107.957372,-8.631029,-147.612183
49968,NaN,1.436405,-9.141635,-2.971812,0.014538,0.019465,-0.093437,0.000568,0.006383,-0.002835,-0.105100,0.267414,-0.762154,0.580142,-107.954986,-8.631055,-147.613125
49969,NaN,1.451037,-9.156589,-2.958449,0.012676,-0.001685,-0.081249,0.001626,0.007143,-0.004653,-0.105097,0.267409,-0.762139,0.580164,-107.951939,-8.631906,-147.614015
49970,NaN,1.451633,-9.156600,-2.958123,0.012065,-0.001719,-0.081248,0.003515,0.005318,-0.004347,-0.105102,0.267402,-0.762119,0.580193,-107.947828,-8.632069,-147.614614
49971,NaN,1.446899,-9.177886,-2.931433,0.034509,-0.024936,-0.070070,-0.003395,0.003425,-0.004323,-0.105107,0.267410,-0.762118,0.580191,-107.947957,-8.632083,-147.613514
49972,NaN,1.447582,-9.177735,-2.931568,0.033915,-0.024979,-0.070068,-0.001110,0.006464,-0.007405,-0.105095,0.267417,-0.762107,0.580203,-107.946584,-8.634165,-147.613712
49973,NaN,1.429460,-9.180814,-2.960363,0.036536,0.008183,-0.061121,-0.002338,0.004185,-0.006141,-0.105094,0.267429,-0.762100,0.580207,-107.946093,-8.635305,-147.612706
49974,NaN,1.420782,-9.147464,-2.958248,0.035394,0.017184,-0.094437,-0.003910,-0.001130,-0.005984,-0.105112,0.267461,-0.762094,0.580197,-107.947084,-8.635607,-147.608311
49975,NaN,1.450201,-9.173991,-2.974513,0.011125,0.010177,-0.060114,-0.005747,0.002522,-0.010786,-0.105098,0.267496,-0.762090,0.580189,-107.948808,-8.638985,-147.605558
49976,NaN,1.475732,-9.145961,-3.015034,-0.036810,0.035347,-0.070295,-0.004743,0.001455,-0.008108,-0.105102,0.267526,-0.762086,0.580180,-107.950036,-8.640400,-147.602285
49977,NaN,1.451981,-9.173428,-2.975379,0.009940,0.010072,-0.060112,-0.005074,0.003506,-0.008893,-0.105092,0.267552,-0.762083,0.580174,-107.951243,-8.642920,-147.600413
49978,NaN,1.477095,-9.148525,-2.973785,-0.016843,-0.000005,-0.080245,-0.007136,0.003812,-0.009753,-0.105077,0.267583,-0.762084,0.580160,-107.953713,-8.645827,-147.598162
49979,NaN,1.458821,-9.154543,-2.960952,0.006893,-0.002099,-0.081243,-0.007638,0.004345,-0.011092,-0.105054,0.267616,-0.762086,0.580147,-107.956378,-8.649692,-147.596360
49980,NaN,1.474427,-9.166038,-2.990385,-0.016122,0.012007,-0.059114,-0.003345,0.005251,-0.008818,-0.105037,0.267630,-0.762080,0.580151,-107.956347,-8.652361,-147.596056
49981,NaN,1.461254,-9.150871,-3.003706,-0.015406,0.033088,-0.071300,-0.001454,0.003428,-0.008513,-0.105033,0.267653,-0.762067,0.580159,-107.955476,-8.654659,-147.594209
49982,NaN,1.495696,-9.159307,-3.003903,-0.041578,0.013949,-0.058123,0.001503,0.007453,-0.009701,-0.105019,0.267673,-0.762044,0.580181,-107.952812,-8.658166,-147.593347
49983,NaN,1.482108,-9.147450,-2.974599,-0.019727,-0.000221,-0.080250,0.002678,0.007904,-0.006469,-0.105009,0.267672,-0.762024,0.580210,-107.949147,-8.660141,-147.594333
49984,NaN,1.482991,-9.147460,-2.974129,-0.020297,-0.000284,-0.080251,0.005455,0.005324,-0.008535,-0.105010,0.267690,-0.761991,0.580245,-107.944302,-8.662707,-147.592880
49985,NaN,1.484233,-9.144349,-3.015751,-0.042008,0.034929,-0.070314,0.004900,0.004029,-0.005379,-0.105021,0.267695,-0.761964,0.580276,-107.939657,-8.663403,-147.591924
49986,NaN,1.479620,-9.165797,-2.988557,-0.019580,0.011698,-0.059120,0.006459,0.004257,-0.005857,-0.105035,0.267702,-0.761932,0.580313,-107.934179,-8.664222,-147.590681
49987,NaN,1.485041,-9.147771,-2.972148,-0.022029,-0.000416,-0.080255,0.010420,0.007217,-0.004368,-0.105044,0.267692,-0.761892,0.580368,-107.926079,-8.664930,-147.591664
49988,NaN,1.480767,-9.166161,-2.986872,-0.020716,0.011612,-0.059123,0.004694,0.010859,-0.000791,-0.105043,0.267663,-0.761875,0.580404,-107.920962,-8.664331,-147.594915
49989,NaN,1.500082,-9.163093,-2.957368,-0.024448,-0.021620,-0.068075,0.008153,0.014351,-0.000640,-0.105033,0.267618,-0.761850,0.580459,-107.913468,-8.664263,-147.600496
49990,NaN,1.461732,-9.176018,-2.929920,0.023584,-0.025744,-0.070040,0.000187,0.011693,0.001199,-0.105026,0.267575,-0.761850,0.580480,-107.910643,-8.662671,-147.605409
49991,NaN,1.466870,-9.157814,-2.914182,0.021145,-0.037857,-0.091173,-0.000478,0.015794,-0.000372,-0.104999,0.267530,-0.761852,0.580504,-107.907967,-8.662710,-147.611835
49992,NaN,1.438445,-9.200572,-2.931779,0.048639,-0.015772,-0.049882,-0.002377,0.012530,-0.001001,-0.104979,0.267499,-0.761856,0.580516,-107.906703,-8.662632,-147.616386
49993,NaN,1.424364,-9.188633,-2.902967,0.070511,-0.029927,-0.071992,-0.004778,0.009798,-0.002970,-0.104962,0.267483,-0.761863,0.580517,-107.907059,-8.663032,-147.619042
49994,NaN,1.420114,-9.206687,-2.918747,0.071758,-0.017863,-0.050853,-0.002887,0.007975,-0.002663,-0.104951,0.267461,-0.761867,0.580525,-107.906234,-8.662773,-147.622043
49995,NaN,1.449913,-9.160478,-2.943803,0.021992,-0.004770,-0.082216,-0.010313,-0.003563,-0.004629,-0.104973,0.267494,-0.761881,0.580487,-107.910916,-8.661722,-147.617034
49996,NaN,1.474813,-9.132391,-2.984702,-0.025922,0.020383,-0.092451,-0.007912,-0.000832,-0.002659,-0.104994,0.267510,-0.761892,0.580461,-107.913981,-8.659983,-147.613749
49997,NaN,1.474909,-9.132111,-2.985513,-0.026493,0.020348,-0.092452,-0.007927,-0.011006,-0.003306,-0.105051,0.267558,-0.761897,0.580422,-107.917878,-8.656899,-147.604871
49998,NaN,1.513229,-9.122160,-2.971068,-0.054535,-0.010865,-0.100437,-0.008422,-0.005387,-0.004322,-0.105085,0.267594,-0.761905,0.580389,-107.921652,-8.655199,-147.598771
49999,NaN,1.493981,-9.128246,-2.958580,-0.030795,-0.012940,-0.101409,-0.010700,-0.003340,-0.000917,-0.105116,0.267612,-0.761925,0.580348,-107.926436,-8.652164,-147.594548
50000,NaN,1.479158,-9.185708,-2.964052,-0.004638,-0.011995,-0.047925,-0.010021,0.002732,0.001300,-0.105133,0.267606,-0.761950,0.580316,-107.930349,-8.648894,-147.593714
50001,NaN,1.479271,-9.185441,-2.964821,-0.005211,-0.012030,-0.047926,-0.008786,0.010098,0.000361,-0.105120,0.267579,-0.761973,0.580300,-107.932888,-8.647532,-147.597128
50002,NaN,1.484198,-9.167010,-2.949909,-0.007683,-0.024158,-0.069062,-0.009335,0.013890,0.003842,-0.105101,0.267524,-0.762006,0.580286,-107.935251,-8.644645,-147.603638
50003,NaN,1.460175,-9.191361,-2.952803,0.017905,-0.014148,-0.048890,-0.011397,0.014194,0.002981,-0.105076,0.267476,-0.762043,0.580264,-107.938876,-8.642578,-147.609779
50004,NaN,1.431581,-9.164374,-2.937705,0.041013,-0.007219,-0.083168,-0.008997,0.016924,0.004952,-0.105053,0.267412,-0.762077,0.580253,-107.940860,-8.639440,-147.617503
50005,NaN,1.412886,-9.167385,-2.967041,0.043571,0.025946,-0.074209,-0.008449,0.013132,0.001470,-0.105032,0.267372,-0.762102,0.580242,-107.942926,-8.638008,-147.622789
50006,NaN,1.413156,-9.167123,-2.967723,0.042983,0.025877,-0.074207,-0.009297,0.005543,-0.001304,-0.105034,0.267369,-0.762122,0.580217,-107.946318,-8.636560,-147.622657
50007,NaN,1.437614,-9.142175,-2.966454,0.016259,0.015795,-0.094383,-0.011697,0.002812,-0.003275,-0.105034,0.267379,-0.762145,0.580182,-107.951226,-8.635894,-147.621406
50008,NaN,1.433275,-9.159966,-2.983046,0.017550,0.027837,-0.073245,-0.010646,-0.001512,-0.005418,-0.105045,0.267411,-0.762160,0.580146,-107.956037,-8.635738,-147.617123
50009,NaN,1.438232,-9.141379,-2.968606,0.015140,0.015725,-0.094382,-0.012769,-0.008123,-0.002111,-0.105088,0.267448,-0.762182,0.580092,-107.962434,-8.632505,-147.610051
50010,NaN,1.471842,-9.149467,-2.970183,-0.010997,-0.003434,-0.081248,-0.014275,-0.006523,-0.006128,-0.105116,0.267505,-0.762202,0.580034,-107.969910,-8.631781,-147.602021
50011,NaN,1.466903,-9.170342,-2.945066,0.011461,-0.026613,-0.070021,-0.015666,-0.005235,-0.005095,-0.105136,0.267547,-0.762230,0.579974,-107.977806,-8.630684,-147.596009
50012,NaN,1.462888,-9.184834,-3.004124,-0.008466,0.020622,-0.038973,-0.011373,-0.004327,-0.002817,-0.105169,0.267581,-0.762249,0.579928,-107.983298,-8.628459,-147.589998
50013,NaN,1.463186,-9.184412,-3.005269,-0.009041,0.020586,-0.038974,-0.013592,0.004632,-0.003579,-0.105158,0.267588,-0.762278,0.579889,-107.989149,-8.628279,-147.589696
50014,NaN,1.444367,-9.190446,-2.992825,0.014707,0.018552,-0.039922,-0.008913,0.005320,-0.005012,-0.105143,0.267592,-0.762293,0.579870,-107.992228,-8.629122,-147.590117
50015,NaN,1.455035,-9.150552,-3.004425,-0.010725,0.029580,-0.072292,-0.007014,0.008584,-0.004378,-0.105123,0.267587,-0.762304,0.579861,-107.994005,-8.630078,-147.591850
50016,NaN,1.436784,-9.153494,-3.033662,-0.008241,0.062753,-0.063333,-0.006343,0.009568,-0.002483,-0.105103,0.267562,-0.762318,0.579858,-107.995058,-8.629957,-147.595553
50017,NaN,1.456217,-9.150121,-3.005164,-0.011920,0.029519,-0.072293,-0.002002,0.007221,-0.005027,-0.105094,0.267561,-0.762313,0.579866,-107.994094,-8.631025,-147.596419
50018,NaN,1.462177,-9.128561,-3.031820,-0.035498,0.052613,-0.083531,-0.002171,0.005703,-0.005583,-0.105089,0.267570,-0.762307,0.579872,-107.993498,-8.632234,-147.595887
50019,NaN,1.476414,-9.146724,-2.976356,-0.016139,-0.003760,-0.081255,0.003179,0.007375,-0.005120,-0.105086,0.267565,-0.762287,0.579901,-107.989555,-8.633380,-147.596821
50020,NaN,1.458045,-9.149958,-3.004774,-0.013611,0.029423,-0.072295,0.002787,0.002510,-0.001738,-0.105107,0.267558,-0.762271,0.579921,-107.986063,-8.631888,-147.596321
50021,NaN,1.472638,-9.164936,-2.991355,-0.015464,0.008266,-0.060118,0.001117,0.007679,-0.005982,-0.105097,0.267557,-0.762256,0.579943,-107.983299,-8.633557,-147.597269
50022,NaN,1.468633,-9.183092,-3.006646,-0.014225,0.020316,-0.038980,0.003179,0.007375,-0.005120,-0.105092,0.267551,-0.762236,0.579973,-107.979319,-8.634714,-147.598554
50023,NaN,1.454648,-9.171420,-2.977164,0.007701,0.006189,-0.061054,0.005241,0.007071,-0.004258,-0.105095,0.267543,-0.762211,0.580008,-107.974197,-8.635336,-147.599474
50024,NaN,1.474683,-9.165065,-2.989952,-0.017146,0.008159,-0.060121,0.005076,0.010639,-0.004486,-0.105085,0.267530,-0.762188,0.580047,-107.969036,-8.636882,-147.601771
50025,NaN,1.446134,-9.141687,-2.931359,0.027290,-0.020053,-0.104265,0.005076,0.010639,-0.004486,-0.105073,0.267513,-0.762165,0.580088,-107.963719,-8.638259,-147.604618
50026,NaN,1.437979,-9.174819,-3.004296,0.009160,0.039337,-0.052091,0.001117,0.007678,-0.005983,-0.105055,0.267507,-0.762151,0.580112,-107.960832,-8.640363,-147.606665
50027,NaN,1.481581,-9.147014,-2.972895,-0.020619,-0.003968,-0.081263,0.005408,0.008588,-0.003702,-0.105054,0.267492,-0.762127,0.580150,-107.955473,-8.640950,-147.608522
50028,NaN,1.457986,-9.171729,-2.974577,0.004905,0.006037,-0.061053,0.004013,0.004790,-0.002998,-0.105071,0.267489,-0.762106,0.580176,-107.951290,-8.640271,-147.607979
50029,NaN,1.468415,-9.132129,-2.985363,-0.020504,0.017052,-0.093443,-0.001337,0.003117,-0.003462,-0.105083,0.267493,-0.762099,0.580182,-107.950242,-8.639761,-147.606863
50030,NaN,1.482310,-9.150234,-2.930137,-0.001155,-0.039332,-0.091156,-0.002560,0.005922,-0.001874,-0.105089,0.267482,-0.762099,0.580185,-107.949615,-8.638632,-147.607573
50031,NaN,1.468453,-9.135142,-2.943590,-0.000445,-0.018245,-0.103333,-0.005179,0.004929,0.000419,-0.105100,0.267468,-0.762110,0.580176,-107.950515,-8.636326,-147.608148
50032,NaN,1.477960,-9.168111,-2.946483,-0.000484,-0.027315,-0.070016,-0.007072,0.006750,0.000112,-0.105098,0.267450,-0.762126,0.580162,-107.952355,-8.634593,-147.609883
50033,NaN,1.439922,-9.177515,-2.962599,0.026333,0.003849,-0.061972,-0.010361,0.004773,0.000509,-0.105103,0.267439,-0.762152,0.580133,-107.956234,-8.632211,-147.610388
50034,NaN,1.444668,-9.159058,-2.947859,0.023977,-0.008325,-0.083112,-0.009859,0.004239,0.001848,-0.105124,0.267435,-0.762175,0.580100,-107.960182,-8.628854,-147.609039
50035,NaN,1.439972,-9.176861,-2.964601,0.025198,0.003720,-0.061969,-0.015879,0.001582,-0.000512,-0.105130,0.267440,-0.762214,0.580046,-107.967514,-8.626465,-147.607604
50036,NaN,1.460025,-9.166760,-3.021289,-0.020982,0.040866,-0.051169,-0.010361,0.004772,0.000509,-0.105136,0.267427,-0.762240,0.580017,-107.971346,-8.623808,-147.608303
50037,NaN,1.431302,-9.139730,-3.006508,0.002248,0.047877,-0.085402,-0.012261,-0.003577,-0.000455,-0.105167,0.267444,-0.762265,0.579970,-107.977030,-8.620475,-147.604034
50038,NaN,1.459444,-9.169355,-2.981173,-0.000873,0.005574,-0.061051,-0.008973,-0.001600,-0.000852,-0.105197,0.267460,-0.762281,0.579937,-107.980812,-8.617658,-147.600171
50039,NaN,1.445366,-9.154084,-2.995243,-0.000170,0.026662,-0.073226,-0.010365,-0.000313,0.000181,-0.105221,0.267465,-0.762303,0.579901,-107.985122,-8.614555,-147.597816
50040,NaN,1.478934,-9.162268,-2.996419,-0.026335,0.007499,-0.060141,-0.011200,0.002271,-0.001941,-0.105226,0.267470,-0.762327,0.579867,-107.989747,-8.613067,-147.596694
50041,NaN,1.465081,-9.146980,-3.010413,-0.025632,0.028587,-0.072317,-0.007578,0.002197,-0.001555,-0.105238,0.267472,-0.762340,0.579846,-107.992300,-8.611354,-147.595412
50042,NaN,1.459885,-9.168197,-2.984517,-0.003188,0.005404,-0.061051,-0.007965,0.007501,0.002486,-0.105245,0.267446,-0.762362,0.579827,-107.994613,-8.608164,-147.597329
50043,NaN,1.450057,-9.207594,-2.974154,0.021057,-0.005666,-0.028641,-0.006183,0.005995,-0.002258,-0.105242,0.267440,-0.762372,0.579817,-107.996072,-8.607506,-147.598015
50044,NaN,1.446532,-9.152913,-2.998256,-0.003066,0.026452,-0.073226,0.003347,0.008894,-0.004558,-0.105235,0.267428,-0.762354,0.579848,-107.991903,-8.608557,-147.599964
50045,NaN,1.442546,-9.170980,-3.013811,-0.001866,0.038495,-0.052084,-0.004234,0.006006,-0.006445,-0.105223,0.267437,-0.762353,0.579848,-107.992356,-8.610183,-147.599906
50046,NaN,1.437961,-9.122884,-2.953514,0.016559,0.000208,-0.116414,0.003680,0.006843,-0.003776,-0.105230,0.267433,-0.762332,0.579876,-107.988281,-8.610391,-147.600095
50047,NaN,1.462478,-9.167701,-2.984772,-0.006062,0.005193,-0.061053,-0.001337,0.003118,-0.003461,-0.105242,0.267437,-0.762325,0.579881,-107.987233,-8.609879,-147.598979
50048,NaN,1.486974,-9.142995,-2.982550,-0.032705,-0.004957,-0.081297,-0.001001,0.006152,-0.002347,-0.105248,0.267432,-0.762320,0.579889,-107.985864,-8.609305,-147.599081
50049,NaN,1.482056,-9.164309,-2.956238,-0.010233,-0.028100,-0.070023,-0.006017,0.007511,-0.001702,-0.105242,0.267419,-0.762331,0.579881,-107.987088,-8.608612,-147.600701
50050,NaN,1.448945,-9.155582,-2.956546,0.014763,-0.008982,-0.083094,-0.007410,0.008797,-0.000669,-0.105229,0.267393,-0.762350,0.579871,-107.988839,-8.607506,-147.604057
50051,NaN,1.425284,-9.179941,-2.959444,0.040272,0.001081,-0.062844,-0.009638,0.012667,-0.001758,-0.105198,0.267367,-0.762374,0.579856,-107.991714,-8.607756,-147.608509
50052,NaN,1.458483,-9.191429,-2.918302,0.035368,-0.053305,-0.059640,-0.011924,0.009621,0.001315,-0.105187,0.267341,-0.762408,0.579826,-107.996126,-8.605596,-147.611554
50053,NaN,1.444764,-9.176026,-2.932615,0.036071,-0.032214,-0.071811,-0.015492,0.006442,-0.003898,-0.105166,0.267344,-0.762443,0.579782,-108.002926,-8.605910,-147.612192
50054,NaN,1.431902,-9.157173,-2.989376,0.015523,0.024073,-0.074119,-0.017722,0.005228,-0.005318,-0.105140,0.267359,-0.762482,0.579729,-108.011190,-8.607010,-147.611943
50055,NaN,1.431882,-9.159835,-2.948956,0.036240,-0.011141,-0.083979,-0.021180,0.001732,-0.005482,-0.105125,0.267385,-0.762530,0.579657,-108.021679,-8.607353,-147.609702
50056,NaN,1.447181,-9.170735,-2.980006,0.013094,0.002866,-0.061945,-0.023745,-0.002516,-0.008017,-0.105116,0.267435,-0.762579,0.579571,-108.034095,-8.608224,-147.604527
50057,NaN,1.443133,-9.188098,-2.997739,0.014273,0.014910,-0.040800,-0.020458,-0.005621,-0.008744,-0.105120,0.267495,-0.762615,0.579495,-108.044865,-8.609039,-147.597648
50058,NaN,1.449077,-9.165961,-3.025922,-0.009381,0.037992,-0.052086,-0.014940,-0.002429,-0.007717,-0.105118,0.267530,-0.762641,0.579445,-108.051992,-8.609743,-147.593789
50059,NaN,1.449694,-9.165357,-3.027456,-0.009956,0.037957,-0.052086,-0.017003,-0.007211,-0.008914,-0.105132,0.267593,-0.762667,0.579379,-108.060919,-8.610366,-147.586003
50060,NaN,1.475077,-9.136802,-3.068644,-0.057920,0.062981,-0.062495,-0.010593,-0.004768,-0.010259,-0.105142,0.267649,-0.762674,0.579342,-108.065987,-8.611998,-147.579468
50061,NaN,1.494634,-9.133212,-3.040802,-0.061512,0.029740,-0.071471,-0.009924,0.001297,-0.008027,-0.105136,0.267680,-0.762685,0.579315,-108.070132,-8.613648,-147.576529
50062,NaN,1.490565,-9.151096,-3.056906,-0.060334,0.041813,-0.050330,-0.000112,0.000319,-0.005050,-0.105150,0.267692,-0.762672,0.579323,-108.068525,-8.613643,-147.574538
50063,NaN,1.491314,-9.151046,-3.056692,-0.060909,0.041775,-0.050333,0.003566,0.007167,-0.008818,-0.105137,0.267702,-0.762646,0.579355,-108.064477,-8.616767,-147.574691
50064,NaN,1.472981,-9.157651,-3.042550,-0.037158,0.039760,-0.051213,0.010812,0.012109,-0.007707,-0.105119,0.267691,-0.762603,0.579421,-108.055907,-8.620180,-147.577584
50065,NaN,1.460045,-9.142945,-3.054298,-0.036462,0.060849,-0.063386,0.015661,0.014321,-0.008576,-0.105096,0.267673,-0.762546,0.579508,-108.044332,-8.624442,-147.581724
50066,NaN,1.456062,-9.164878,-3.025849,-0.013979,0.037709,-0.052090,0.022070,0.016764,-0.009919,-0.105069,0.267652,-0.762469,0.579623,-108.029008,-8.629890,-147.586678
50067,NaN,1.442848,-9.153801,-2.994434,0.008031,0.023630,-0.074109,0.026250,0.012908,-0.013018,-0.105053,0.267650,-0.762375,0.579752,-108.011602,-8.636320,-147.589245
50068,NaN,1.434541,-9.194047,-2.980893,0.032310,0.012604,-0.041663,0.027640,0.016705,-0.013717,-0.105019,0.267642,-0.762277,0.579891,-107.993220,-8.644221,-147.593623
50069,NaN,1.436227,-9.194804,-2.977743,0.031736,0.012571,-0.041661,0.036446,0.011711,-0.013747,-0.105019,0.267640,-0.762151,0.580057,-107.970089,-8.650835,-147.595404
50070,NaN,1.447241,-9.159320,-2.943050,0.027715,-0.011590,-0.083952,0.035277,0.006174,-0.017315,-0.105022,0.267664,-0.762022,0.580215,-107.948071,-8.658571,-147.594354
50071,NaN,1.468442,-9.153569,-2.953157,0.002825,-0.009661,-0.083084,0.033212,0.006473,-0.018179,-0.105025,0.267696,-0.761897,0.580363,-107.927346,-8.666675,-147.592460
50072,NaN,1.474832,-9.136078,-2.934546,0.000517,-0.021742,-0.104230,0.030425,0.003958,-0.016446,-0.105032,0.267722,-0.761783,0.580500,-107.908183,-8.673440,-147.590723
50073,NaN,1.486447,-9.097039,-2.942811,-0.024825,-0.010768,-0.136683,0.025401,0.010394,-0.015476,-0.105017,0.267737,-0.761686,0.580623,-107.891534,-8.680762,-147.591479
50074,NaN,1.516283,-9.127322,-2.914297,-0.027952,-0.053063,-0.112345,0.017263,0.011284,-0.013884,-0.104991,0.267745,-0.761616,0.580716,-107.879399,-8.687259,-147.593260
50075,NaN,1.512453,-9.149039,-2.886094,-0.005469,-0.076183,-0.101038,0.014974,0.013322,-0.010483,-0.104966,0.267737,-0.761558,0.580800,-107.868345,-8.692373,-147.596523
50076,NaN,1.508950,-9.167371,-2.900660,-0.004309,-0.064182,-0.079892,0.002990,0.016021,-0.005017,-0.104935,0.267715,-0.761542,0.580837,-107.864013,-8.694873,-147.601125
50077,NaN,1.505825,-9.182324,-2.957985,-0.024493,-0.016978,-0.048909,0.001766,0.013741,-0.003758,-0.104910,0.267687,-0.761531,0.580869,-107.860311,-8.696393,-147.605815
50078,NaN,1.432883,-9.193275,-2.846888,0.091800,-0.072118,-0.083319,-0.006206,0.016148,-0.001613,-0.104876,0.267652,-0.761547,0.580870,-107.861034,-8.696818,-147.611502
50079,NaN,1.453563,-9.183284,-2.902855,0.045574,-0.035037,-0.072625,-0.008425,0.009848,-0.003362,-0.104853,0.267640,-0.761564,0.580857,-107.863485,-8.697438,-147.614115
50080,NaN,1.439866,-9.168023,-2.916922,0.046257,-0.013929,-0.084791,-0.012432,0.005056,-0.000371,-0.104848,0.267627,-0.761596,0.580822,-107.868429,-8.695549,-147.615382
50081,NaN,1.459437,-9.161097,-2.931475,0.021366,-0.012010,-0.083936,-0.014816,-0.002760,-0.002678,-0.104866,0.267652,-0.761626,0.580768,-107.875575,-8.693579,-147.611161
50082,NaN,1.459438,-9.160638,-2.932908,0.020803,-0.012020,-0.083935,-0.015373,-0.004056,0.000477,-0.104894,0.267665,-0.761662,0.580709,-107.882964,-8.689766,-147.607513
50083,NaN,1.498200,-9.147061,-2.961292,-0.028409,-0.008154,-0.082235,-0.021559,-0.003157,-0.002120,-0.104906,0.267693,-0.761713,0.580628,-107.893990,-8.687421,-147.603174
50084,NaN,1.492718,-9.167908,-2.936728,-0.005923,-0.031255,-0.070917,-0.019718,-0.006802,0.002683,-0.104946,0.267709,-0.761763,0.580547,-107.904089,-8.681869,-147.598108
50085,NaN,1.502929,-9.124419,-2.991754,-0.052599,0.014861,-0.093560,-0.021617,-0.004986,0.002374,-0.104978,0.267725,-0.761818,0.580461,-107.915178,-8.676750,-147.593562
50086,NaN,1.497263,-9.145243,-2.967374,-0.030142,-0.008273,-0.082240,-0.024581,0.001148,0.004210,-0.104991,0.267718,-0.761888,0.580371,-107.927439,-8.671514,-147.592556
50087,NaN,1.492255,-9.162819,-2.985022,-0.029012,0.003769,-0.061093,-0.020465,0.005629,0.006272,-0.104995,0.267688,-0.761951,0.580301,-107.936881,-8.666141,-147.594562
50088,NaN,1.487194,-9.180445,-3.002531,-0.027871,0.015793,-0.039946,-0.022026,0.005395,0.006746,-0.105003,0.267662,-0.762018,0.580224,-107.947361,-8.660486,-147.595948
50089,NaN,1.462060,-9.207955,-2.964438,0.018931,-0.009258,-0.029462,-0.018246,0.011925,0.008027,-0.104992,0.267605,-0.762081,0.580170,-107.954962,-8.655269,-147.601740
50090,NaN,1.432782,-9.180969,-2.950102,0.042263,-0.002187,-0.063617,-0.016350,0.010107,0.008335,-0.104991,0.267553,-0.762137,0.580121,-107.961670,-8.649608,-147.606486
50091,NaN,1.447162,-9.192211,-2.980455,0.019062,0.011799,-0.041627,-0.017017,0.009123,0.006438,-0.104987,0.267510,-0.762192,0.580069,-107.968843,-8.644763,-147.610451
50092,NaN,1.432167,-9.180162,-2.952910,0.041157,-0.002225,-0.063612,-0.016288,0.006856,0.003509,-0.104981,0.267483,-0.762240,0.580020,-107.975844,-8.641386,-147.613073
50093,NaN,1.423040,-9.143307,-2.993977,0.018795,0.041938,-0.087109,-0.014943,-0.001342,0.006635,-0.105020,0.267468,-0.762283,0.579962,-107.982690,-8.634584,-147.611304
50094,NaN,1.436658,-9.157925,-2.982089,0.016964,0.020760,-0.074940,-0.012989,-0.001327,0.002451,-0.105053,0.267472,-0.762315,0.579912,-107.988632,-8.630053,-147.608369
50095,NaN,1.464957,-9.114791,-2.965209,-0.011303,-0.001493,-0.116407,-0.010921,-0.006710,0.002982,-0.105107,0.267485,-0.762340,0.579864,-107.993715,-8.624291,-147.602989
50096,NaN,1.474615,-9.144192,-3.011157,-0.032846,0.024556,-0.073276,-0.015941,-0.005359,0.003622,-0.105152,0.267492,-0.762381,0.579799,-108.001523,-8.618300,-147.598637
50097,NaN,1.488329,-9.158723,-2.999518,-0.034685,0.003391,-0.061112,-0.016614,-0.001260,0.002060,-0.105176,0.267496,-0.762423,0.579737,-108.009441,-8.614005,-147.596098
50098,NaN,1.464100,-9.182908,-3.003470,-0.009194,0.013511,-0.040791,-0.018182,0.003588,0.002869,-0.105181,0.267487,-0.762473,0.579674,-108.017970,-8.610461,-147.596047
50099,NaN,1.444654,-9.188975,-2.991627,0.014555,0.011543,-0.041619,-0.015231,0.007619,0.001700,-0.105172,0.267466,-0.762516,0.579630,-108.024372,-8.607935,-147.598337
50100,NaN,1.444723,-9.188551,-2.992898,0.013984,0.011514,-0.041618,-0.015067,0.009135,0.002258,-0.105157,0.267436,-0.762560,0.579588,-108.030524,-8.605409,-147.601817
50101,NaN,1.430684,-9.173161,-3.007283,0.014675,0.032609,-0.053783,-0.013500,0.004286,0.001448,-0.105162,0.267425,-0.762595,0.579546,-108.036217,-8.602429,-147.602226
50102,NaN,1.424731,-9.197798,-2.939547,0.058510,-0.025625,-0.052247,-0.007089,0.006733,0.000112,-0.105162,0.267404,-0.762613,0.579533,-108.037984,-8.600430,-147.604221
50103,NaN,1.430937,-9.172662,-3.008683,0.013491,0.032537,-0.053781,-0.005687,0.000369,-0.001258,-0.105184,0.267409,-0.762620,0.579516,-108.039595,-8.598230,-147.601987
50104,NaN,1.417123,-9.157486,-3.022295,0.014186,0.053601,-0.065945,-0.003560,-0.003178,-0.005221,-0.105216,0.267445,-0.762613,0.579504,-108.040563,-8.597486,-147.596240
50105,NaN,1.436993,-9.150808,-3.035772,-0.010713,0.055493,-0.065126,0.000794,-0.005510,-0.007759,-0.105251,0.267489,-0.762589,0.579508,-108.039119,-8.597784,-147.589599
50106,NaN,1.461593,-9.125985,-3.033565,-0.037246,0.045314,-0.085461,-0.002996,-0.006958,-0.008710,-0.105283,0.267545,-0.762575,0.579496,-108.040054,-8.598533,-147.581950
50107,NaN,1.466633,-9.107774,-3.017938,-0.039484,0.033199,-0.106615,0.002621,0.001001,-0.002286,-0.105311,0.267548,-0.762557,0.579512,-108.036881,-8.597005,-147.579879
50108,NaN,1.476545,-9.140914,-3.020152,-0.039691,0.024096,-0.073301,0.003008,0.005868,-0.005659,-0.105312,0.267548,-0.762537,0.579539,-108.033141,-8.597956,-147.580052
50109,NaN,1.448010,-9.187109,-2.995733,0.008783,0.011163,-0.041612,0.002334,0.009967,-0.007219,-0.105292,0.267545,-0.762518,0.579569,-108.029525,-8.600706,-147.582037
50110,NaN,1.468520,-9.180574,-3.008441,-0.016180,0.013015,-0.040800,0.006681,0.012717,-0.009420,-0.105263,0.267537,-0.762485,0.579620,-108.023224,-8.604721,-147.585144
50111,NaN,1.454947,-9.169051,-2.978707,0.005913,-0.001019,-0.062763,0.005449,0.015514,-0.007829,-0.105224,0.267519,-0.762459,0.579670,-108.017383,-8.608786,-147.590077
50112,NaN,1.442155,-9.154109,-2.991140,0.006583,0.020086,-0.074927,0.006179,0.013249,-0.010759,-0.105183,0.267512,-0.762427,0.579723,-108.011278,-8.613970,-147.593918
50113,NaN,1.424085,-9.160721,-2.977029,0.030335,0.018133,-0.075733,0.008077,0.011433,-0.010452,-0.105155,0.267514,-0.762388,0.579778,-108.004338,-8.618740,-147.596133
50114,NaN,1.454120,-9.187403,-2.991870,0.005823,0.010961,-0.041609,0.009079,0.010365,-0.007773,-0.105141,0.267507,-0.762349,0.579835,-107.996845,-8.621830,-147.598347
50115,NaN,1.465069,-9.147866,-3.001773,-0.019465,0.021895,-0.074121,0.007189,0.007100,-0.008418,-0.105134,0.267514,-0.762313,0.579881,-107.990716,-8.624724,-147.598539
50116,NaN,1.446598,-9.154454,-2.987937,0.004278,0.019921,-0.074925,0.003574,0.002085,-0.009148,-0.105142,0.267542,-0.762284,0.579905,-107.987179,-8.627004,-147.595449
50117,NaN,1.466216,-9.151312,-2.958529,0.000796,-0.013322,-0.083915,0.007024,0.005583,-0.008976,-0.105140,0.267555,-0.762247,0.579948,-107.981285,-8.629934,-147.594705
50118,NaN,1.467083,-9.151366,-2.957931,0.000222,-0.013370,-0.083915,0.004403,0.004583,-0.006691,-0.105145,0.267565,-0.762219,0.579978,-107.976967,-8.631380,-147.593643
50119,NaN,1.477298,-9.184442,-2.960153,0.000033,-0.022458,-0.050598,-0.000455,0.007447,-0.005495,-0.105136,0.267564,-0.762209,0.579994,-107.975110,-8.632742,-147.594550
50120,NaN,1.483497,-9.162795,-2.986568,-0.023622,0.000559,-0.061964,-0.001294,0.010029,-0.007615,-0.105106,0.267559,-0.762202,0.580012,-107.973469,-8.635659,-147.597187
50121,NaN,1.459643,-9.190732,-2.946840,0.023197,-0.024428,-0.051394,-0.002191,0.010778,-0.005244,-0.105082,0.267548,-0.762199,0.580025,-107.972324,-8.637474,-147.599975
50122,NaN,1.450935,-9.157461,-2.944486,0.022239,-0.015442,-0.084709,-0.003915,0.009028,-0.005330,-0.105067,0.267548,-0.762199,0.580027,-107.972458,-8.638872,-147.601063
50123,NaN,1.457340,-9.205143,-3.004976,0.002251,0.022665,-0.020453,-0.003426,0.013575,-0.003654,-0.105035,0.267523,-0.762204,0.580038,-107.971746,-8.640315,-147.605677
50124,NaN,1.467312,-9.168632,-2.973927,-0.001580,-0.001503,-0.062761,-0.006468,0.004779,-0.007874,-0.105017,0.267539,-0.762207,0.580030,-107.973557,-8.642639,-147.605271
50125,NaN,1.454009,-9.153448,-2.987422,-0.000891,0.019593,-0.074923,-0.002017,0.007212,-0.005022,-0.105008,0.267537,-0.762203,0.580038,-107.972602,-8.643702,-147.606134
50126,NaN,1.459020,-9.135155,-2.971996,-0.003119,0.007430,-0.096078,-0.004451,-0.002433,-0.002852,-0.105044,0.267562,-0.762202,0.580021,-107.973962,-8.641600,-147.601064
50127,NaN,1.473395,-9.149891,-2.959357,-0.004949,-0.013736,-0.083916,-0.007015,-0.001601,-0.005059,-0.105062,0.267589,-0.762207,0.579999,-107.976602,-8.641125,-147.597061
50128,NaN,1.508036,-9.154590,-3.002289,-0.052502,0.002141,-0.061191,-0.008414,-0.000320,-0.004028,-0.105071,0.267607,-0.762218,0.579974,-107.979900,-8.640632,-147.594382
50129,NaN,1.440556,-9.140893,-2.960834,0.019541,0.005455,-0.096863,-0.009474,-0.001087,-0.002216,-0.105091,0.267623,-0.762234,0.579942,-107.983829,-8.638698,-147.591171
50130,NaN,1.483611,-9.182089,-2.964290,-0.006185,-0.022841,-0.050601,-0.010045,0.002692,0.001273,-0.105104,0.267617,-0.762258,0.579911,-107.987764,-8.635938,-147.590659
50131,NaN,1.469563,-9.166838,-2.978342,-0.005498,-0.001743,-0.062763,-0.010220,0.006257,0.001052,-0.105105,0.267599,-0.762285,0.579884,-107.991425,-8.633523,-147.592081
50132,NaN,1.469706,-9.166582,-2.979059,-0.006066,-0.001752,-0.062763,-0.007261,0.005209,-0.000452,-0.105104,0.267584,-0.762301,0.579870,-107.993402,-8.631848,-147.593495
50133,NaN,1.450475,-9.172867,-2.966613,0.017690,-0.003685,-0.063542,-0.012284,0.006555,0.000185,-0.105099,0.267570,-0.762333,0.579836,-107.998244,-8.629958,-147.594927
50134,NaN,1.450776,-9.172521,-2.967536,0.017083,-0.003751,-0.063541,-0.009825,0.006041,-0.002659,-0.105094,0.267567,-0.762353,0.579811,-108.001847,-8.629253,-147.595252
50135,NaN,1.403525,-9.148875,-2.981375,0.043356,0.036585,-0.088636,-0.007424,0.003693,-0.001011,-0.105102,0.267564,-0.762367,0.579792,-108.004174,-8.627508,-147.594893
50136,NaN,1.452212,-9.168526,-3.011099,-0.005504,0.031292,-0.053769,-0.008753,0.001729,-0.004809,-0.105104,0.267580,-0.762380,0.579768,-108.007537,-8.627573,-147.592923
50137,NaN,1.452622,-9.168254,-3.011728,-0.006078,0.031257,-0.053769,-0.004953,-0.001900,-0.004193,-0.105127,0.267603,-0.762380,0.579753,-108.008995,-8.626571,-147.588911
50138,NaN,1.433697,-9.174609,-2.998943,0.017683,0.029342,-0.054541,-0.004557,-0.002114,-0.007904,-0.105139,0.267639,-0.762374,0.579742,-108.010304,-8.627630,-147.584540
50139,NaN,1.443840,-9.207525,-3.001713,0.017459,0.020252,-0.021224,-0.000607,0.000853,-0.006389,-0.105152,0.267660,-0.762360,0.579749,-108.009104,-8.628312,-147.581651
50140,NaN,1.472881,-9.164676,-2.983353,-0.010679,-0.002052,-0.062767,0.005257,-0.003074,-0.004906,-0.105191,0.267682,-0.762329,0.579772,-108.004789,-8.627370,-147.577140
50141,NaN,1.478933,-9.143083,-3.009537,-0.034323,0.020935,-0.074160,-0.000225,0.005718,-0.009761,-0.105176,0.267701,-0.762312,0.579788,-108.003058,-8.630752,-147.576330
50142,NaN,1.479146,-9.146398,-2.967277,-0.013437,-0.014177,-0.083925,0.000602,0.008216,-0.007302,-0.105155,0.267698,-0.762299,0.579811,-108.000432,-8.633263,-147.578299
50143,NaN,1.443513,-9.149233,-3.066913,-0.029758,0.087308,-0.056169,0.002827,0.009433,-0.005875,-0.105141,0.267691,-0.762280,0.579842,-107.996541,-8.635184,-147.580232
50144,NaN,1.457655,-9.167661,-3.011099,-0.010147,0.031045,-0.053772,0.004551,0.011183,-0.005788,-0.105121,0.267672,-0.762258,0.579883,-107.991410,-8.637254,-147.583770
50145,NaN,1.472627,-9.182692,-2.997275,-0.011979,0.009877,-0.041614,0.005950,0.009902,-0.006819,-0.105107,0.267666,-0.762229,0.579926,-107.985716,-8.639772,-147.585793
50146,NaN,1.463977,-9.149728,-2.993940,-0.012892,0.018935,-0.074931,0.008337,0.012634,-0.004832,-0.105084,0.267634,-0.762199,0.579984,-107.978183,-8.641807,-147.590944
50147,NaN,1.440808,-9.174592,-2.995584,0.012460,0.029093,-0.054532,0.006288,0.007853,-0.006039,-0.105081,0.267630,-0.762169,0.580026,-107.972443,-8.643538,-147.591978
50148,NaN,1.455098,-9.193056,-2.939504,0.032090,-0.027152,-0.052129,0.006669,0.012717,-0.009411,-0.105045,0.267619,-0.762137,0.580080,-107.966031,-8.647936,-147.595977
50149,NaN,1.447392,-9.156701,-2.978157,0.009704,0.016964,-0.075688,0.011473,0.008024,-0.006114,-0.105048,0.267612,-0.762092,0.580142,-107.957309,-8.649738,-147.597093
50150,NaN,1.462350,-9.171841,-2.963954,0.007837,-0.004175,-0.063529,0.007509,0.010135,-0.007291,-0.105027,0.267595,-0.762061,0.580195,-107.950449,-8.652457,-147.600651
50151,NaN,1.473147,-9.132276,-2.973876,-0.017396,0.006727,-0.096092,0.007687,0.006571,-0.007069,-0.105027,0.267598,-0.762025,0.580241,-107.944042,-8.654523,-147.600795
50152,NaN,1.469559,-9.150498,-2.988850,-0.016393,0.018770,-0.074935,0.005446,0.010431,-0.008160,-0.105005,0.267592,-0.761996,0.580284,-107.938585,-8.657798,-147.603211
50153,NaN,1.508488,-9.140768,-2.972559,-0.044137,-0.012598,-0.083187,0.004886,0.009131,-0.005008,-0.104997,0.267582,-0.761972,0.580322,-107.933514,-8.659192,-147.605135
50154,NaN,1.489847,-9.147354,-2.958963,-0.020297,-0.014467,-0.083937,-0.000478,0.012522,-0.005156,-0.104964,0.267564,-0.761966,0.580345,-107.931270,-8.661810,-147.609324
50155,NaN,1.451695,-9.160488,-2.932343,0.027794,-0.018257,-0.085433,0.000363,0.009942,-0.003036,-0.104953,0.267546,-0.761958,0.580366,-107.928670,-8.662271,-147.612047
50156,NaN,1.448475,-9.175187,-2.990060,0.007296,0.028864,-0.054526,-0.000697,0.009174,-0.001225,-0.104949,0.267523,-0.761956,0.580380,-107.926703,-8.661504,-147.614702
50157,NaN,1.467546,-9.171881,-2.961260,0.003888,-0.004382,-0.063527,-0.004822,0.009769,-0.002963,-0.104932,0.267507,-0.761963,0.580380,-107.927087,-8.661895,-147.617343
50158,NaN,1.453129,-9.160085,-2.932891,0.026027,-0.018351,-0.085428,-0.009829,0.006032,-0.002668,-0.104919,0.267495,-0.761985,0.580359,-107.930413,-8.661309,-147.619225
50159,NaN,1.453415,-9.159785,-2.933684,0.025457,-0.018384,-0.085427,-0.008988,0.003452,-0.000547,-0.104927,0.267491,-0.762005,0.580334,-107.933643,-8.659269,-147.618814
50160,NaN,1.458840,-9.137951,-2.960963,0.001790,0.004579,-0.096843,-0.010210,0.001169,0.000704,-0.104947,0.267488,-0.762029,0.580301,-107.937712,-8.655992,-147.617504
50161,NaN,1.453484,-9.159103,-2.935779,0.024294,-0.018462,-0.085424,-0.017459,0.001293,-0.000093,-0.104954,0.267493,-0.762072,0.580240,-107.945962,-8.653323,-147.615984
50162,NaN,1.487143,-9.166889,-2.937461,-0.001899,-0.037776,-0.072529,-0.019862,0.003637,-0.001742,-0.104945,0.267497,-0.762122,0.580174,-107.955411,-8.651739,-147.615593
50163,NaN,1.453765,-9.157974,-2.939162,0.023118,-0.018546,-0.085421,-0.018700,0.004087,0.001497,-0.104944,0.267488,-0.762173,0.580112,-107.964098,-8.648696,-147.615898
50164,NaN,1.449140,-9.175555,-2.956625,0.024108,-0.006552,-0.064260,-0.020083,0.000287,0.002188,-0.104964,0.267496,-0.762225,0.580036,-107.974108,-8.644414,-147.612999
50165,NaN,1.434082,-9.163443,-2.929639,0.046304,-0.020530,-0.086151,-0.022308,-0.000931,0.000759,-0.104976,0.267507,-0.762282,0.579953,-107.985297,-8.640887,-147.610407
50166,NaN,1.463926,-9.185836,-2.989408,0.000219,0.007348,-0.042367,-0.019364,0.003102,-0.000402,-0.104968,0.267506,-0.762332,0.579889,-107.994460,-8.638904,-147.610338
50167,NaN,1.469524,-9.163652,-3.017529,-0.023431,0.030313,-0.053793,-0.018626,0.000841,-0.003333,-0.104966,0.267525,-0.762374,0.579825,-108.003503,-8.637919,-147.607991
50168,NaN,1.459345,-9.133494,-2.974436,-0.002813,0.004271,-0.096843,-0.016063,0.000010,-0.001124,-0.104973,0.267531,-0.762413,0.579771,-108.010956,-8.635509,-147.606372
50169,NaN,1.450453,-9.169183,-3.007469,-0.000270,0.028391,-0.054522,-0.018126,0.000306,-0.001993,-0.104977,0.267547,-0.762455,0.579707,-108.019720,-8.633699,-147.603971
50170,NaN,1.456021,-9.147077,-3.035299,-0.023900,0.051361,-0.065952,-0.013100,-0.001034,-0.002626,-0.104990,0.267566,-0.762482,0.579661,-108.025764,-8.632123,-147.600809
50171,NaN,1.455335,-9.150185,-2.994269,-0.002951,0.016251,-0.075683,-0.010876,0.000183,-0.001196,-0.105006,0.267575,-0.762504,0.579625,-108.030363,-8.629856,-147.598483
50172,NaN,1.465892,-9.179380,-3.040046,-0.024705,0.042239,-0.032639,-0.012940,0.000480,-0.002065,-0.105016,0.267590,-0.762531,0.579581,-108.036259,-8.628374,-147.595922
50173,NaN,1.451275,-9.167582,-3.011947,-0.002498,0.028266,-0.054522,-0.006370,0.004455,-0.002825,-0.105017,0.267591,-0.762540,0.579569,-108.037966,-8.627752,-147.595659
50174,NaN,1.451654,-9.167394,-3.012337,-0.003045,0.028185,-0.054522,-0.003066,0.001364,-0.003548,-0.105040,0.267611,-0.762535,0.579561,-108.038378,-8.626972,-147.592026
50175,NaN,1.471542,-9.160636,-3.025691,-0.027952,0.030006,-0.053804,-0.001522,0.006679,-0.003675,-0.105037,0.267606,-0.762530,0.579571,-108.037147,-8.627208,-147.592835
50176,NaN,1.457998,-9.145604,-3.038787,-0.027266,0.051111,-0.065960,0.001782,0.003588,-0.004398,-0.105047,0.267610,-0.762513,0.579589,-108.034303,-8.627341,-147.591996
50177,NaN,1.458557,-9.145641,-3.038407,-0.027840,0.051075,-0.065961,0.005067,0.005576,-0.004778,-0.105054,0.267608,-0.762487,0.579623,-108.029417,-8.627982,-147.592000
50178,NaN,1.453751,-9.167375,-3.011385,-0.005308,0.028022,-0.054523,0.007130,0.005279,-0.003908,-0.105072,0.267610,-0.762455,0.579661,-108.023573,-8.628144,-147.591036
50179,NaN,1.458822,-9.149390,-2.995001,-0.007422,0.015910,-0.075685,0.005066,0.005576,-0.004778,-0.105079,0.267609,-0.762429,0.579694,-108.018688,-8.628785,-147.591040
50180,NaN,1.469091,-9.182623,-2.996736,-0.007717,0.006798,-0.042369,0.011154,0.005006,-0.007219,-0.105091,0.267616,-0.762382,0.579751,-108.010489,-8.630560,-147.590069
50181,NaN,1.435336,-9.177943,-2.953830,0.038840,-0.009014,-0.064952,0.004005,0.004805,-0.002968,-0.105104,0.267610,-0.762361,0.579778,-108.006227,-8.630079,-147.589972
50182,NaN,1.469395,-9.186403,-2.953158,0.012670,-0.028351,-0.052087,0.008511,0.009077,-0.004597,-0.105104,0.267597,-0.762328,0.579829,-107.999112,-8.631129,-147.591830
50183,NaN,1.461388,-9.150018,-2.991832,-0.009733,0.015736,-0.075686,0.008510,0.009077,-0.004597,-0.105103,0.267582,-0.762294,0.579880,-107.991959,-8.632291,-147.593797
50184,NaN,1.441673,-9.160329,-2.935647,0.035636,-0.021193,-0.086108,0.007449,0.008307,-0.002787,-0.105107,0.267567,-0.762265,0.579925,-107.985541,-8.632646,-147.595489
50185,NaN,1.476534,-9.165321,-2.977062,-0.012073,-0.005458,-0.063534,0.005727,0.006556,-0.002878,-0.105117,0.267555,-0.762240,0.579961,-107.980145,-8.632425,-147.596374
50186,NaN,1.448025,-9.138972,-2.960804,0.011461,0.001706,-0.097554,0.003663,0.006852,-0.003747,-0.105123,0.267554,-0.762219,0.579989,-107.976169,-8.632914,-147.596323
50187,NaN,1.467993,-9.132446,-2.973396,-0.013444,0.003514,-0.096851,0.007288,0.006792,-0.003347,-0.105132,0.267542,-0.762189,0.580031,-107.969872,-8.632991,-147.597254
50188,NaN,1.468404,-9.132528,-2.972942,-0.013989,0.003496,-0.096852,0.000880,0.004332,-0.002029,-0.105144,0.267535,-0.762178,0.580047,-107.967410,-8.632094,-147.597399
50189,NaN,1.482784,-9.147484,-2.959591,-0.015809,-0.017676,-0.084700,0.000880,0.004332,-0.002029,-0.105158,0.267529,-0.762168,0.580061,-107.964953,-8.631017,-147.597209
50190,NaN,1.439720,-9.178872,-2.948806,0.033773,-0.009355,-0.064933,0.000880,0.004332,-0.002029,-0.105177,0.267525,-0.762157,0.580074,-107.962587,-8.629626,-147.596464
50191,NaN,1.454140,-9.193797,-2.935529,0.031952,-0.030526,-0.052779,-0.001023,0.006143,-0.002338,-0.105180,0.267516,-0.762152,0.580084,-107.961079,-8.629038,-147.597217
50192,NaN,1.440468,-9.178781,-2.948725,0.032619,-0.009474,-0.064930,-0.000863,0.007657,-0.001778,-0.105187,0.267507,-0.762147,0.580093,-107.959574,-8.628191,-147.597660
50193,NaN,1.436415,-9.196809,-2.964525,0.033561,0.002569,-0.043764,-0.002926,0.007953,-0.002648,-0.105181,0.267495,-0.762148,0.580098,-107.959015,-8.628092,-147.599356
50194,NaN,1.460825,-9.171928,-2.962123,0.007116,-0.007734,-0.064234,-0.002927,0.007953,-0.002648,-0.105177,0.267484,-0.762150,0.580102,-107.958517,-8.627782,-147.600740
50195,NaN,1.465883,-9.153772,-2.946223,0.005034,-0.019845,-0.085398,0.003481,0.010414,-0.003965,-0.105166,0.267466,-0.762132,0.580135,-107.954119,-8.628835,-147.603557
50196,NaN,1.428359,-9.163465,-2.962094,0.031579,0.011515,-0.077074,-0.008856,0.010036,0.000350,-0.105150,0.267439,-0.762156,0.580119,-107.956724,-8.627619,-147.607107
50197,NaN,1.448325,-9.156585,-2.975757,0.006671,0.013313,-0.076384,-0.004248,0.005989,-0.006450,-0.105138,0.267448,-0.762155,0.580119,-107.957186,-8.629244,-147.607041
50198,NaN,1.463039,-9.171295,-2.962992,0.004802,-0.007890,-0.064233,-0.007031,0.003468,-0.004732,-0.105140,0.267458,-0.762163,0.580103,-107.959401,-8.629146,-147.605815
50199,NaN,1.449332,-9.156040,-2.976943,0.005478,0.013214,-0.076383,-0.009473,-0.001100,-0.002235,-0.105160,0.267473,-0.762179,0.580071,-107.963331,-8.627221,-147.602593
50200,NaN,1.487560,-9.145908,-2.962063,-0.022150,-0.018206,-0.084714,-0.009974,-0.000567,-0.003575,-0.105174,0.267495,-0.762195,0.580038,-107.967621,-8.626268,-147.599256
50201,NaN,1.449789,-9.155357,-2.978821,0.004362,0.013147,-0.076383,-0.011035,-0.001337,-0.001766,-0.105194,0.267511,-0.762216,0.579999,-107.972453,-8.624045,-147.595988
50202,NaN,1.463876,-9.169969,-2.966680,0.002553,-0.008073,-0.064232,-0.011938,-0.000593,0.000605,-0.105224,0.267524,-0.762242,0.579953,-107.977940,-8.620558,-147.592231
50203,NaN,1.487917,-9.144779,-2.965371,-0.023851,-0.018360,-0.084718,-0.015322,-0.002260,-0.004068,-0.105236,0.267553,-0.762272,0.579898,-107.985365,-8.619426,-147.588043
50204,NaN,1.444563,-9.175769,-2.956085,0.025762,-0.009937,-0.064909,-0.012840,0.000151,0.002975,-0.105257,0.267543,-0.762306,0.579854,-107.990889,-8.615060,-147.587217
50205,NaN,1.458544,-9.190323,-2.944211,0.023945,-0.031110,-0.052758,-0.016065,-0.000002,-0.001137,-0.105268,0.267555,-0.762344,0.579797,-107.998475,-8.612730,-147.584798
50206,NaN,1.449851,-9.153300,-2.985104,0.001512,0.012981,-0.076381,-0.013182,0.002198,0.002196,-0.105278,0.267539,-0.762380,0.579755,-108.003962,-8.608969,-147.585263
50207,NaN,1.459371,-9.185991,-2.988866,0.001183,0.003884,-0.043066,-0.013684,0.002731,0.000857,-0.105288,0.267534,-0.762414,0.579711,-108.009905,-8.606036,-147.584708
50208,NaN,1.430432,-9.159191,-2.974290,0.024689,0.011119,-0.077053,-0.012623,0.003501,-0.000952,-0.105284,0.267526,-0.762445,0.579674,-108.015038,-8.604236,-147.585394
50209,NaN,1.449963,-9.152185,-2.988468,-0.000220,0.012905,-0.076381,-0.010218,0.001157,0.000696,-0.105304,0.267524,-0.762469,0.579641,-108.019128,-8.601112,-147.583944
50210,NaN,1.469450,-9.145213,-3.002552,-0.025080,0.014738,-0.075712,-0.010560,0.003204,-0.000082,-0.105305,0.267516,-0.762494,0.579611,-108.023177,-8.599173,-147.584408
50211,NaN,1.450242,-9.151528,-2.990345,-0.001316,0.012885,-0.076381,-0.011562,0.004271,-0.002761,-0.105301,0.267519,-0.762518,0.579578,-108.027873,-8.598485,-147.584055
50212,NaN,1.460959,-9.180781,-3.035738,-0.023259,0.038791,-0.033383,-0.003786,-0.001456,-0.000964,-0.105338,0.267533,-0.762519,0.579565,-108.028699,-8.595734,-147.580124
50213,NaN,1.427764,-9.172286,-3.036174,0.001748,0.058080,-0.046198,-0.005471,0.003707,-0.005198,-0.105336,0.267544,-0.762522,0.579556,-108.030017,-8.596273,-147.579022
50214,NaN,1.452167,-9.147420,-3.033657,-0.024662,0.047740,-0.066700,0.002283,0.003057,-0.003055,-0.105360,0.267549,-0.762504,0.579573,-108.027042,-8.595305,-147.577128
50215,NaN,1.447245,-9.169096,-3.006999,-0.002144,0.024751,-0.055215,0.003344,0.003828,-0.004864,-0.105371,0.267554,-0.762482,0.579597,-108.023291,-8.595683,-147.576153
50216,NaN,1.471747,-9.144391,-3.003931,-0.028560,0.014414,-0.075721,0.005066,0.005580,-0.004770,-0.105382,0.267555,-0.762456,0.579629,-108.018493,-8.596051,-147.575654
50217,NaN,1.453012,-9.151181,-2.990062,-0.004795,0.012567,-0.076382,0.008009,0.009616,-0.005924,-0.105374,0.267545,-0.762422,0.579680,-108.011621,-8.598032,-147.577679
50218,NaN,1.453927,-9.151266,-2.989356,-0.005390,0.012483,-0.076382,0.004040,0.011722,-0.007104,-0.105356,0.267540,-0.762398,0.579717,-108.007053,-8.600765,-147.579703
50219,NaN,1.431033,-9.176083,-2.991323,0.019844,0.022717,-0.055871,0.005920,0.014987,-0.006449,-0.105323,0.267517,-0.762373,0.579767,-108.000949,-8.603983,-147.584594
50220,NaN,1.435593,-9.161614,-2.932684,0.039427,-0.024399,-0.086712,0.005761,0.013473,-0.007011,-0.105290,0.267495,-0.762347,0.579816,-107.994958,-8.607278,-147.589369
50221,NaN,1.447140,-9.191231,-2.976583,0.017448,0.001528,-0.043722,0.007665,0.011663,-0.006701,-0.105272,0.267482,-0.762314,0.579869,-107.988134,-8.610044,-147.592383
50222,NaN,1.437492,-9.161808,-2.931148,0.038299,-0.024498,-0.086708,0.004698,0.012701,-0.005203,-0.105255,0.267468,-0.762291,0.579908,-107.983090,-8.612128,-147.595262
50223,NaN,1.443793,-9.140182,-2.957019,0.014633,-0.001585,-0.098202,0.002317,0.009968,-0.007198,-0.105234,0.267465,-0.762273,0.579939,-107.979483,-8.614865,-147.597253
50224,NaN,1.464024,-9.133453,-2.969954,-0.010335,0.000177,-0.097552,-0.000123,0.005398,-0.004705,-0.105234,0.267460,-0.762263,0.579953,-107.977430,-8.615117,-147.597900
50225,NaN,1.445086,-9.139985,-2.956997,0.013433,-0.001660,-0.098201,-0.005128,0.001656,-0.004424,-0.105244,0.267474,-0.762265,0.579943,-107.978700,-8.614871,-147.595806
50226,NaN,1.460639,-9.151128,-2.986507,-0.010039,0.012194,-0.076386,-0.008938,0.005274,-0.005044,-0.105229,0.267477,-0.762281,0.579924,-107.981758,-8.615547,-147.596310
50227,NaN,1.454644,-9.175981,-2.918896,0.034129,-0.045801,-0.074551,-0.010878,0.000171,-0.001212,-0.105246,0.267486,-0.762303,0.579887,-107.986359,-8.613288,-147.593973
50228,NaN,1.450397,-9.193686,-2.935799,0.035033,-0.033794,-0.053381,-0.014531,0.005303,-0.001270,-0.105243,0.267490,-0.762337,0.579841,-107.992882,-8.611958,-147.593268
50229,NaN,1.442065,-9.156660,-2.976463,0.012605,0.010255,-0.077029,-0.011406,0.005779,-0.002206,-0.105235,0.267487,-0.762362,0.579811,-107.997349,-8.611234,-147.593844
50230,NaN,1.418588,-9.181023,-2.980180,0.037811,0.020512,-0.056500,-0.013627,0.004560,-0.003640,-0.105221,0.267489,-0.762392,0.579772,-108.003137,-8.611066,-147.594123
50231,NaN,1.400589,-9.183704,-3.010282,0.039926,0.053697,-0.047475,-0.012065,0.004797,-0.004108,-0.105210,0.267497,-0.762416,0.579739,-108.008114,-8.611204,-147.593818
50232,NaN,1.458558,-9.166790,-3.008563,-0.012021,0.024054,-0.055220,-0.010819,0.002008,-0.005700,-0.105203,0.267512,-0.762435,0.579709,-108.012543,-8.611746,-147.592440
50233,NaN,1.448619,-9.136881,-2.964851,0.008858,-0.001928,-0.098195,-0.011478,0.001027,-0.007603,-0.105197,0.267544,-0.762450,0.579675,-108.017589,-8.613120,-147.589431
50234,NaN,1.464254,-9.147795,-2.994935,-0.014654,0.011897,-0.076391,-0.014103,0.000016,-0.005327,-0.105198,0.267566,-0.762477,0.579629,-108.024073,-8.612826,-147.586699
50235,NaN,1.454912,-9.187133,-2.985433,0.009313,0.001003,-0.043710,-0.008756,0.001712,-0.004828,-0.105201,0.267584,-0.762489,0.579605,-108.027429,-8.612809,-147.584565
50236,NaN,1.460902,-9.165129,-3.012485,-0.014346,0.023893,-0.055223,-0.007694,0.002484,-0.006636,-0.105198,0.267607,-0.762496,0.579586,-108.030250,-8.613957,-147.582258
50237,NaN,1.451786,-9.204553,-3.002628,0.009616,0.013001,-0.022540,-0.008969,0.010347,-0.004694,-0.105168,0.267599,-0.762513,0.579572,-108.033012,-8.615399,-147.584906
50238,NaN,1.466702,-9.146432,-2.997897,-0.016970,0.011750,-0.076395,-0.005315,0.005217,-0.004638,-0.105161,0.267597,-0.762519,0.579567,-108.033952,-8.615709,-147.585539
50239,NaN,1.424073,-9.177665,-2.987895,0.032571,0.020214,-0.056481,-0.006317,0.006283,-0.007318,-0.105142,0.267609,-0.762523,0.579559,-108.035599,-8.617859,-147.585477
50240,NaN,1.468254,-9.145944,-2.998628,-0.018097,0.011697,-0.076397,-0.002375,0.009255,-0.005787,-0.105119,0.267602,-0.762520,0.579571,-108.034670,-8.619844,-147.587768
50241,NaN,1.431074,-9.155551,-3.014771,0.008340,0.043094,-0.067996,-0.005816,0.005749,-0.005978,-0.105108,0.267611,-0.762524,0.579564,-108.036038,-8.621169,-147.587652
50242,NaN,1.469764,-9.145486,-2.999285,-0.019249,0.011583,-0.076399,-0.004411,0.004475,-0.007009,-0.105105,0.267632,-0.762521,0.579558,-108.036925,-8.622666,-147.585677
50243,NaN,1.451069,-9.151979,-2.986468,0.004519,0.009763,-0.077021,-0.004097,0.007502,-0.005883,-0.105089,0.267634,-0.762521,0.579560,-108.037161,-8.624250,-147.586543
50244,NaN,1.466892,-9.163111,-3.015711,-0.018952,0.023569,-0.055230,-0.004568,0.002961,-0.007572,-0.105088,0.267660,-0.762517,0.579553,-108.038238,-8.625981,-147.583991
50245,NaN,1.452666,-9.151558,-2.986980,0.003393,0.009676,-0.077021,-0.001128,0.006467,-0.007380,-0.105076,0.267669,-0.762506,0.579566,-108.036900,-8.628197,-147.584019
50246,NaN,1.464007,-9.180902,-3.031642,-0.018666,0.035575,-0.034062,0.001466,0.000565,-0.005517,-0.105094,0.267687,-0.762487,0.579579,-108.034546,-8.628426,-147.581162
50247,NaN,1.468005,-9.166405,-2.973537,0.001023,-0.011536,-0.064877,0.001436,0.005639,-0.005168,-0.105095,0.267689,-0.762471,0.579599,-108.031746,-8.629290,-147.581131
50248,NaN,1.482758,-9.181380,-2.959976,-0.000790,-0.032732,-0.052734,0.004562,0.006118,-0.006102,-0.105097,0.267693,-0.762445,0.579631,-108.027219,-8.630676,-147.580886
50249,NaN,1.450804,-9.169590,-3.001692,0.002529,0.021597,-0.055849,0.004158,0.006326,-0.002392,-0.105107,0.267681,-0.762425,0.579661,-108.022729,-8.630150,-147.581731
50250,NaN,1.479572,-9.126814,-2.982630,-0.025228,-0.000766,-0.097580,0.005534,0.010125,-0.003073,-0.105094,0.267648,-0.762405,0.579705,-108.016870,-8.630744,-147.586272
50251,NaN,1.475837,-9.145043,-2.997652,-0.024387,0.011274,-0.076410,0.007222,0.016952,-0.002628,-0.105066,0.267604,-0.762382,0.579761,-108.009752,-8.632229,-147.592931
50252,NaN,1.461283,-9.133796,-2.968140,-0.002035,-0.002608,-0.098192,0.001501,0.010387,0.000231,-0.105063,0.267569,-0.762376,0.579785,-108.006328,-8.630968,-147.596892
50253,NaN,1.442108,-9.140635,-2.954525,0.021736,-0.004417,-0.098799,0.006534,0.009058,-0.000393,-0.105071,0.267540,-0.762354,0.579827,-108.000197,-8.629836,-147.599601
50254,NaN,1.456487,-9.155729,-2.940750,0.019942,-0.025563,-0.086656,0.002907,0.009112,-0.000799,-0.105068,0.267509,-0.762343,0.579857,-107.996035,-8.629107,-147.603173
50255,NaN,1.437309,-9.162478,-2.927413,0.043714,-0.027369,-0.087259,-0.000375,0.007120,-0.000429,-0.105074,0.267489,-0.762339,0.579869,-107.994024,-8.627651,-147.604807
50256,NaN,1.452618,-9.173797,-2.956342,0.020231,-0.013541,-0.065482,-0.002095,0.005367,-0.000525,-0.105083,0.267475,-0.762340,0.579873,-107.993156,-8.626108,-147.605689
50257,NaN,1.438781,-9.158746,-2.969726,0.020897,0.007570,-0.077623,-0.002564,0.000826,-0.002214,-0.105105,0.267481,-0.762337,0.579870,-107.992967,-8.624511,-147.603534
50258,NaN,1.437925,-9.162208,-2.927957,0.041983,-0.027436,-0.087252,-0.005534,0.001861,-0.000718,-0.105119,0.267471,-0.762347,0.579859,-107.994110,-8.622108,-147.603537
50259,NaN,1.439124,-9.158386,-2.970668,0.019706,0.007521,-0.077620,-0.007754,0.000641,-0.002154,-0.105135,0.267481,-0.762359,0.579835,-107.996908,-8.620446,-147.601291
50260,NaN,1.457779,-9.154934,-2.942587,0.016485,-0.025815,-0.086650,-0.012944,0.000455,-0.002095,-0.105157,0.267505,-0.762384,0.579787,-108.003053,-8.618378,-147.596935
50261,NaN,1.439499,-9.157664,-2.972712,0.018546,0.007372,-0.077618,-0.011037,-0.001352,-0.001784,-0.105177,0.267521,-0.762405,0.579748,-108.007887,-8.616161,-147.593657
50262,NaN,1.435341,-9.175344,-2.989631,0.019402,0.019443,-0.056444,-0.013289,0.002501,-0.002872,-0.105173,0.267529,-0.762434,0.579708,-108.013689,-8.615486,-147.592843
50263,NaN,1.460628,-9.146502,-3.030102,-0.028622,0.044082,-0.067397,-0.010476,-0.000046,-0.004931,-0.105180,0.267552,-0.762450,0.579675,-108.018177,-8.615215,-147.589721
50264,NaN,1.437119,-9.170922,-3.033819,-0.003537,0.054343,-0.046817,-0.011382,0.000694,-0.002561,-0.105190,0.267558,-0.762474,0.579639,-108.022900,-8.613366,-147.588114
50265,NaN,1.455888,-9.167422,-3.005849,-0.006737,0.021087,-0.055850,-0.011883,0.001227,-0.003901,-0.105193,0.267575,-0.762496,0.579602,-108.028063,-8.612758,-147.585878
50266,NaN,1.436741,-9.173847,-2.993551,0.016992,0.019323,-0.056439,-0.006036,0.002393,-0.002057,-0.105198,0.267567,-0.762507,0.579590,-108.029436,-8.611248,-147.586241
50267,NaN,1.470743,-9.181902,-2.993759,-0.009162,-0.000096,-0.043710,-0.002191,0.005693,-0.005573,-0.105193,0.267572,-0.762501,0.579597,-108.028722,-8.612342,-147.586168
50268,NaN,1.462642,-9.145029,-3.033575,-0.031568,0.043920,-0.067405,-0.006381,0.004439,-0.002834,-0.105194,0.267575,-0.762509,0.579583,-108.030557,-8.611921,-147.585576
50269,NaN,1.447812,-9.133573,-3.004921,-0.009179,0.030050,-0.089165,-0.000345,0.002047,-0.000776,-0.105219,0.267572,-0.762503,0.579589,-108.028956,-8.609756,-147.584353
50270,NaN,1.477327,-9.159909,-3.020341,-0.034022,0.022678,-0.055269,0.005219,0.007100,-0.004194,-0.105224,0.267559,-0.762479,0.579626,-108.023744,-8.609922,-147.585652
50271,NaN,1.444225,-9.151803,-3.019875,-0.009017,0.042030,-0.067992,0.004969,0.008820,0.000079,-0.105232,0.267530,-0.762461,0.579661,-108.018517,-8.608492,-147.588315
50272,NaN,1.462941,-9.148873,-2.990189,-0.012243,0.008789,-0.077027,0.006532,0.009060,-0.000387,-0.105236,0.267492,-0.762441,0.579704,-108.012181,-8.607203,-147.592164
50273,NaN,1.439418,-9.173894,-2.992122,0.012903,0.019075,-0.056432,0.008095,0.009300,-0.000853,-0.105245,0.267464,-0.762413,0.579752,-108.005149,-8.606364,-147.594924
50274,NaN,1.477847,-9.164258,-2.975279,-0.014645,-0.012488,-0.064889,0.008502,0.009092,-0.004563,-0.105252,0.267457,-0.762378,0.579800,-107.998232,-8.607208,-147.595596
50275,NaN,1.440354,-9.174360,-2.990241,0.011732,0.018946,-0.056431,0.010503,0.006960,0.000798,-0.105277,0.267427,-0.762345,0.579853,-107.989968,-8.605055,-147.597361
50276,NaN,1.420403,-9.185003,-2.933891,0.057202,-0.017842,-0.066614,0.011094,0.015177,-0.006485,-0.105253,0.267401,-0.762304,0.579923,-107.980899,-8.608019,-147.602197
50277,NaN,1.441770,-9.174892,-2.987924,0.010542,0.018848,-0.056429,0.010564,0.008798,-0.003688,-0.105258,0.267383,-0.762266,0.579981,-107.972570,-8.608635,-147.604172
50278,NaN,1.437074,-9.196733,-2.960821,0.033079,-0.004112,-0.044861,0.004218,0.008163,-0.006875,-0.105252,0.267387,-0.762240,0.580014,-107.968166,-8.610784,-147.604510
50279,NaN,1.443477,-9.175067,-2.986565,0.009395,0.018750,-0.056428,0.005280,0.008935,-0.008681,-0.105235,0.267390,-0.762210,0.580055,-107.962986,-8.614145,-147.605669
