// General information: 
//  MT Manager version: 2019.0.1 
//  XDA version: 2019.0.1 build 2740 rev 84096 built on 2019-01-30
// Device information: 
//  DeviceId: 00B4381A
//  ProductCode: MTW2-3A7G6
//  Firmware Version: 4.3.4
//  Hardware Version: 1.1.0
// Device settings: 
//  Filter Profile: human(46.1)
//  Option Flags: Orientation Smoother Disabled, AHS Disabled, ICC Disabled
// Coordinate system: ENU
PacketCounter,SampleTimeFine,Acc_X,Acc_Y,Acc_Z,FreeAcc_E,FreeAcc_N,FreeAcc_U,Gyr_X,Gyr_Y,Gyr_Z,Quat_q0,Quat_q1,Quat_q2,Quat_q3,Roll,Pitch,Yaw
39807,NaN,-3.231501,6.308337,7.522194,0.210954,-1.098673,0.462013,-0.323714,0.338644,0.155982,0.899691,0.348895,0.217334,0.146951,46.252346,16.769731,25.756995
39808,NaN,-3.069403,5.978093,7.076801,0.178653,-0.991300,-0.105716,-0.290301,0.376496,0.101731,0.899701,0.347468,0.218649,0.148312,46.150584,16.880105,25.955826
39809,NaN,-3.167749,5.944488,6.633450,-0.108213,-0.786699,-0.392306,-0.253564,0.388803,0.105271,0.899629,0.346195,0.220037,0.149670,46.071565,16.994101,26.161162
39810,NaN,-3.311298,5.900965,6.240969,-0.408993,-0.641919,-0.639007,-0.253797,0.371862,0.110904,0.899565,0.344941,0.221340,0.151023,45.991888,17.099435,26.361694
39811,NaN,-3.353689,5.825352,5.930925,-0.581424,-0.525023,-0.882733,-0.277093,0.340008,0.097081,0.899584,0.343586,0.222502,0.152284,45.892872,17.197940,26.542471
39812,NaN,-3.387034,5.958168,5.512851,-0.829603,-0.195823,-1.058450,-0.286131,0.296797,0.071843,0.899680,0.342197,0.223509,0.153366,45.780837,17.290064,26.694220
39813,NaN,-3.273263,6.013545,5.246613,-0.871700,0.057361,-1.231270,-0.310599,0.217909,0.063880,0.899911,0.340744,0.224151,0.154305,45.643311,17.354030,26.808379
39814,NaN,-3.385447,5.919526,5.375562,-0.890338,-0.110772,-1.175922,-0.259270,0.165871,0.044868,0.900122,0.339544,0.224634,0.155011,45.526783,17.405387,26.892363
39815,NaN,-3.329571,6.366929,5.496938,-0.838282,0.182115,-0.806896,-0.119335,0.080231,0.041923,0.900196,0.339033,0.224842,0.155402,45.478548,17.423437,26.938124
39816,NaN,-3.129313,6.666849,6.088715,-0.406112,0.170967,-0.267124,-0.099943,0.061692,0.071485,0.900232,0.338661,0.224935,0.155872,45.443375,17.422285,26.988660
39817,NaN,-3.254560,6.519228,6.344584,-0.365803,-0.125129,-0.158840,-0.065884,0.052996,0.085581,0.900211,0.338460,0.224988,0.156352,45.427779,17.411615,27.041143
39818,NaN,-3.227129,6.657110,6.613455,-0.225343,-0.160957,0.106616,0.011650,0.010541,0.084140,0.900105,0.338644,0.224916,0.156667,45.451585,17.384774,27.075132
39819,NaN,-3.256673,6.821083,6.726488,-0.215731,-0.122782,0.302505,0.039261,-0.005220,0.061227,0.899990,0.338935,0.224830,0.156821,45.485688,17.360630,27.092429
39820,NaN,-3.098819,6.766968,6.960166,0.044336,-0.225503,0.374836,0.039731,-0.018537,0.022046,0.899918,0.339197,0.224755,0.156776,45.514034,17.347470,27.087809
39821,NaN,-2.779145,6.527134,7.126820,0.433141,-0.355127,0.227480,0.061495,-0.020874,0.000296,0.899830,0.339532,0.224719,0.156604,45.551222,17.341939,27.072748
39822,NaN,-2.700196,6.410397,7.337054,0.627885,-0.525976,0.264302,0.109185,0.022221,-0.025241,0.899631,0.340022,0.224962,0.156337,45.618611,17.364474,27.065706
39823,NaN,-2.554182,6.371134,7.392417,0.795988,-0.528962,0.229703,0.116580,0.073583,-0.035039,0.899371,0.340490,0.225454,0.156105,45.695034,17.411280,27.076358
39824,NaN,-2.635652,6.464332,7.371210,0.719702,-0.493183,0.302042,0.116253,0.143001,-0.030037,0.899027,0.340911,0.226253,0.156014,45.781386,17.484068,27.119285
39825,NaN,-2.734369,6.781975,7.293964,0.575084,-0.270828,0.496036,0.070780,0.204875,-0.005728,0.898672,0.341104,0.227249,0.156188,45.852370,17.571231,27.198929
39826,NaN,-3.011844,7.180733,6.861388,0.086823,0.128038,0.564635,0.015187,0.264326,0.018994,0.898322,0.341031,0.228429,0.156638,45.903017,17.672115,27.314935
39827,NaN,-3.410283,7.569923,6.485018,-0.477478,0.441461,0.702366,-0.085622,0.247560,0.026209,0.898158,0.340523,0.229440,0.157207,45.894385,17.763049,27.426600
39828,NaN,-3.646625,7.554766,6.230123,-0.800935,0.475643,0.594956,-0.173449,0.114609,0.014220,0.898302,0.339713,0.229808,0.157596,45.816955,17.806194,27.476035
39829,NaN,-3.771561,7.128385,6.044761,-0.953001,0.230764,0.218074,-0.211013,-0.042336,-0.050917,0.898743,0.338781,0.229548,0.157469,45.688464,17.813158,27.430156
39830,NaN,-3.611553,6.950697,6.032428,-0.811637,0.197520,0.038601,-0.141995,-0.180622,-0.117360,0.899274,0.338194,0.228837,0.156730,45.573314,17.792138,27.297079
39831,NaN,-3.145727,7.001742,6.238102,-0.328924,0.341747,0.067034,-0.073686,-0.262432,-0.169271,0.899824,0.337915,0.227896,0.155541,45.479447,17.758970,27.106795
39832,NaN,-2.549490,6.863656,6.340983,0.236441,0.458931,-0.140501,-0.114044,-0.253829,-0.201555,0.900453,0.337414,0.227020,0.154266,45.360094,17.742432,26.906938
39833,NaN,-2.814601,7.012351,6.107393,-0.133105,0.591820,-0.115919,-0.040339,-0.218267,-0.237193,0.900945,0.337172,0.226416,0.152807,45.282467,17.754081,26.706970
39834,NaN,-1.313493,7.091661,6.410824,1.284768,1.139826,-0.317123,-0.104794,-0.192497,-0.141646,0.901438,0.336731,0.225721,0.151894,45.184200,17.737279,26.558754
39835,NaN,-0.348634,6.988622,6.897601,2.358943,1.221167,-0.353121,-0.100714,0.012024,0.111631,0.901503,0.336435,0.225521,0.152463,45.146998,17.699709,26.604948
39836,NaN,-1.225698,6.199420,7.004538,1.751603,0.220215,-0.545429,-0.177506,0.178011,0.390752,0.901292,0.335984,0.225543,0.154655,45.123730,17.616046,26.840515
39837,NaN,-2.409739,5.512911,6.696006,0.669057,-0.628852,-0.857666,0.013408,0.358561,0.509233,0.900461,0.336381,0.226322,0.157467,45.247335,17.556797,27.202853
39838,NaN,-2.967636,5.908904,7.109309,0.368735,-0.832637,-0.146514,0.222655,0.466454,0.509264,0.899144,0.337635,0.227752,0.160224,45.504978,17.539873,27.611254
39839,NaN,-3.477042,6.330043,7.145465,-0.076019,-0.810238,0.314232,0.228038,0.473806,0.447677,0.897850,0.338830,0.229318,0.162707,45.758257,17.549321,27.996653
39840,NaN,-3.827192,6.498779,6.953416,-0.469019,-0.776813,0.405335,0.152077,0.449499,0.370197,0.896764,0.339614,0.230844,0.164887,45.955695,17.579557,28.339393
39841,NaN,-3.971234,6.771568,6.858822,-0.655370,-0.621990,0.572486,0.079088,0.403828,0.313704,0.895896,0.340037,0.232197,0.166818,46.097962,17.613874,28.638779
39842,NaN,-4.162607,6.862855,6.603993,-0.947824,-0.525120,0.524849,-0.036595,0.329287,0.267909,0.895344,0.339953,0.233199,0.168552,46.159018,17.637135,28.887077
39843,NaN,-3.951404,6.974604,6.380148,-0.898865,-0.237895,0.390274,-0.067059,0.249204,0.214222,0.894980,0.339733,0.233905,0.169944,46.184952,17.650499,29.078144
39844,NaN,-3.833906,7.101021,6.352686,-0.831356,-0.082498,0.423620,-0.090611,0.172485,0.166971,0.894783,0.339419,0.234330,0.171021,46.181822,17.653132,29.216481
39845,NaN,-3.737457,7.243098,6.348275,-0.775098,0.067049,0.489079,-0.101171,0.095946,0.085188,0.894764,0.339025,0.234540,0.171615,46.151795,17.659030,29.287352
39846,NaN,-3.336187,7.234797,6.413652,-0.407796,0.222646,0.404527,-0.146860,0.016720,-0.029651,0.895011,0.338362,0.234553,0.171614,46.071141,17.681198,29.276256
39847,NaN,-2.759576,6.834400,6.425958,0.135090,0.218630,-0.037662,-0.207376,-0.004515,-0.145591,0.895486,0.337307,0.234613,0.171129,45.937773,17.742429,29.207247
39848,NaN,-2.507075,6.618590,6.446195,0.390747,0.196417,-0.249567,-0.178274,0.023767,-0.246052,0.895961,0.336243,0.234996,0.170208,45.812298,17.856366,29.108435
39849,NaN,-2.571941,6.534530,6.571164,0.427087,0.067850,-0.204978,-0.139335,0.059099,-0.322865,0.896394,0.335230,0.235695,0.168955,45.703059,18.015507,28.992023
39850,NaN,-2.603498,6.436396,6.657206,0.479405,-0.034944,-0.205781,-0.092940,0.087206,-0.374227,0.896755,0.334341,0.236648,0.167464,45.617476,18.206987,28.865926
39851,NaN,-2.628686,6.366802,6.757527,0.548180,-0.123753,-0.179703,-0.016435,0.142179,-0.418481,0.896957,0.333693,0.237982,0.165776,45.576246,18.438263,28.744231
39852,NaN,-2.581308,6.491608,6.521139,0.478041,0.132039,-0.268932,0.060454,0.195030,-0.438745,0.896978,0.333323,0.239651,0.163992,45.583499,18.699185,28.636753
39853,NaN,-2.506637,6.929635,6.614761,0.571864,0.449553,0.062983,0.118168,0.231202,-0.356302,0.896789,0.333276,0.241389,0.162569,45.639212,18.940711,28.579601
39854,NaN,-2.521480,7.160967,6.551791,0.533310,0.655466,0.179765,0.038969,0.259533,-0.252919,0.896608,0.332977,0.243018,0.161751,45.668137,19.151412,28.578852
39855,NaN,-2.358348,7.114214,6.337368,0.589073,0.818338,-0.049526,-0.005870,0.318171,-0.106107,0.896310,0.332604,0.244627,0.161742,45.699838,19.325252,28.665713
39856,NaN,-2.899826,7.011790,6.482227,0.258371,0.434239,0.154162,-0.064128,0.367781,-0.001528,0.895960,0.332060,0.246237,0.162356,45.720843,19.476092,28.818877
39857,NaN,-3.346552,6.944083,6.405720,-0.122116,0.230418,0.206539,-0.077908,0.358100,0.046653,0.895604,0.331517,0.247711,0.163186,45.739301,19.603162,28.988259
39858,NaN,-3.728890,7.056624,6.448513,-0.409541,0.124245,0.439176,-0.120378,0.334155,0.061758,0.895331,0.330824,0.249018,0.164096,45.732965,19.714504,29.153966
39859,NaN,-4.096515,6.902483,6.353740,-0.731691,-0.095912,0.397657,-0.200899,0.272847,0.057068,0.895271,0.329812,0.249991,0.164983,45.670559,19.803267,29.290794
39860,NaN,-4.271566,6.505239,6.355156,-0.816569,-0.451927,0.191380,-0.198386,0.173936,0.041414,0.895339,0.328875,0.250550,0.165634,45.593399,19.859067,29.378061
39861,NaN,-4.220669,6.272850,6.500788,-0.661316,-0.659392,0.114588,-0.126628,0.070694,0.007728,0.895447,0.328299,0.250759,0.165874,45.536712,19.887234,29.405776
39862,NaN,-4.177974,6.266884,6.629173,-0.554710,-0.700419,0.181158,-0.067274,-0.017718,-0.035442,0.895603,0.328011,0.250695,0.165701,45.495207,19.897740,29.376847
39863,NaN,-3.696016,6.241909,6.636315,-0.155551,-0.493853,0.005385,-0.047209,-0.063011,-0.043056,0.895790,0.327837,0.250455,0.165395,45.456869,19.892975,29.324737
39864,NaN,-3.232619,6.065905,6.611390,0.231541,-0.391475,-0.286480,-0.037363,-0.025792,-0.050974,0.895919,0.327670,0.250405,0.165102,45.429007,19.906586,29.285651
39865,NaN,-3.141869,6.250310,6.736031,0.353307,-0.274593,-0.111574,0.011378,0.016252,-0.052989,0.895919,0.327681,0.250584,0.164807,45.434491,19.937708,29.263700
39866,NaN,-3.024085,6.428805,6.372943,0.231602,0.095790,-0.271922,0.007433,0.076174,-0.068268,0.895861,0.327608,0.251057,0.164548,45.444807,19.999362,29.261473
39867,NaN,-3.091710,6.336140,6.426945,0.232708,-0.026600,-0.275598,0.050180,0.150956,-0.114695,0.895679,0.327604,0.251972,0.164148,45.483506,20.109827,29.271692
39868,NaN,-3.225637,6.752943,6.534671,0.149540,0.166047,0.120033,0.070326,0.135757,-0.142937,0.895503,0.327669,0.252885,0.163573,45.527797,20.225909,29.263529
39869,NaN,-3.378140,7.091357,6.601737,0.039593,0.316889,0.443047,0.009109,0.125524,-0.172554,0.895466,0.327429,0.253747,0.162924,45.530626,20.349812,29.238052
39870,NaN,-3.448561,7.105705,6.478139,-0.071755,0.371376,0.395485,-0.062673,0.085982,-0.203011,0.895617,0.326862,0.254426,0.162166,45.482142,20.470444,29.182434
39871,NaN,-3.508325,7.105013,6.517124,-0.086832,0.345199,0.440883,-0.139885,0.032918,-0.224908,0.895981,0.325962,0.254837,0.161321,45.377379,20.578438,29.093849
39872,NaN,-3.237267,7.074895,6.244984,-0.007215,0.607903,0.145435,-0.159077,0.001277,-0.221814,0.896410,0.325008,0.255088,0.160462,45.257472,20.672422,28.992772
39873,NaN,-3.033222,6.886072,6.216970,0.172243,0.599819,-0.072070,-0.166484,0.017760,-0.202084,0.896815,0.324029,0.255372,0.159728,45.138138,20.764681,28.906871
39874,NaN,-2.806262,6.649746,6.566042,0.587400,0.375666,-0.080219,-0.162403,0.058149,-0.134737,0.897104,0.323125,0.255734,0.159356,45.038031,20.845930,28.867646
39875,NaN,-3.196872,6.308746,6.716706,0.398752,-0.109065,-0.067767,-0.142090,0.094691,-0.096203,0.897285,0.322328,0.256210,0.159189,44.960545,20.926182,28.860581
39876,NaN,-3.166980,6.322570,6.550759,0.335825,0.011005,-0.179194,-0.068762,0.110278,-0.072226,0.897305,0.321882,0.256778,0.159061,44.931681,21.003140,28.870826
39877,NaN,-3.280403,6.104602,6.401875,0.198479,-0.120216,-0.380967,-0.007899,0.203304,-0.047778,0.897090,0.321663,0.257770,0.159114,44.955513,21.107833,28.931818
39878,NaN,-3.540457,6.184355,6.561051,0.085335,-0.255418,-0.129923,0.066525,0.215559,-0.024916,0.896718,0.321800,0.258842,0.159194,45.028131,21.208261,29.008418
39879,NaN,-3.640185,6.394476,6.562288,0.000612,-0.148836,0.045390,0.102702,0.209911,-0.007983,0.896282,0.322122,0.259887,0.159293,45.122958,21.299352,29.089903
39880,NaN,-3.554331,6.380039,6.466154,0.038033,-0.077631,-0.058621,0.078370,0.200719,-0.017268,0.895903,0.322333,0.260888,0.159367,45.201581,21.390468,29.163760
39881,NaN,-3.453100,6.595297,6.390409,0.073566,0.159739,-0.003091,0.131764,0.236824,-0.001417,0.895377,0.322771,0.262065,0.159500,45.318800,21.489496,29.260276
39882,NaN,-3.756949,6.754468,6.440324,-0.141425,0.107612,0.246322,0.088798,0.207952,0.016252,0.894942,0.323066,0.263052,0.159722,45.410265,21.569608,29.352246
39883,NaN,-3.724619,6.582881,6.225941,-0.204136,0.095847,-0.018884,0.045281,0.109482,0.032714,0.894694,0.323263,0.263535,0.159916,45.463180,21.603229,29.408040
39884,NaN,-4.022356,6.844104,6.237311,-0.458162,0.140232,0.271734,0.109147,0.110878,0.030295,0.894341,0.323744,0.264081,0.160017,45.553061,21.638414,29.463678
39885,NaN,-3.219624,6.718358,6.533286,0.383140,0.263134,0.085297,-0.006320,0.004971,0.000350,0.894340,0.323751,0.264108,0.159965,45.554383,21.643236,29.459606
39886,NaN,-3.696588,6.784313,6.504413,-0.022756,0.105051,0.286198,0.060487,0.076629,0.030783,0.894110,0.324043,0.264460,0.160077,45.610962,21.664415,29.500440
39887,NaN,-3.870309,6.939256,6.622565,-0.106389,0.077693,0.530116,0.006532,0.072963,0.024665,0.893978,0.324085,0.264762,0.160227,45.634587,21.686529,29.536821
39888,NaN,-3.764031,6.671460,6.501594,-0.056134,-0.011296,0.234389,-0.036734,0.039378,0.014899,0.893968,0.323951,0.264896,0.160336,45.626905,21.699258,29.554419
39889,NaN,-3.587880,6.419814,6.354989,0.031427,-0.040625,-0.093113,-0.056403,0.030858,-0.000559,0.894014,0.323712,0.264999,0.160388,45.603603,21.714831,29.561368
39890,NaN,-3.400475,6.156107,6.067591,0.052159,-0.003279,-0.524318,-0.020228,0.111740,-0.037086,0.893922,0.323525,0.265554,0.160360,45.608896,21.777855,29.588427
39891,NaN,-3.571820,6.286255,6.530673,0.179316,-0.212979,-0.073742,0.075627,0.134656,-0.042379,0.893650,0.323737,0.266295,0.160218,45.671572,21.852137,29.623144
39892,NaN,-3.541585,6.396989,6.568192,0.228706,-0.137912,0.012489,0.072066,0.129459,-0.047612,0.893393,0.323934,0.267020,0.160049,45.731072,21.926522,29.653628
39893,NaN,-3.666812,6.270181,6.575107,0.161659,-0.293485,-0.020833,0.045911,0.146938,-0.036901,0.893148,0.324011,0.267783,0.159990,45.779797,22.003400,29.696339
39894,NaN,-3.551760,6.265126,6.367671,0.148999,-0.141696,-0.201665,0.053634,0.104626,-0.078358,0.892977,0.324103,0.268431,0.159668,45.819747,22.080441,29.702728
39895,NaN,-3.058127,6.949570,6.296066,0.443571,0.622587,0.021168,0.131666,0.108457,-0.028315,0.892636,0.324605,0.269076,0.159470,45.912746,22.138359,29.732261
39896,NaN,-3.164355,7.040020,6.196110,0.303685,0.679854,0.057083,0.125546,0.112049,0.054368,0.892232,0.325190,0.269599,0.159656,46.016768,22.163640,29.799260
39897,NaN,-4.038957,6.871612,6.067111,-0.444983,0.202525,0.192462,0.156384,0.089684,0.076913,0.891790,0.325958,0.270009,0.159864,46.137931,22.170569,29.865831
39898,NaN,-4.310393,7.163375,6.176292,-0.622157,0.220354,0.560564,0.182654,0.000242,0.059885,0.891438,0.326895,0.270070,0.159814,46.256818,22.148963,29.885393
39899,NaN,-4.296533,7.318565,6.302321,-0.553467,0.263265,0.740283,0.081648,-0.100956,0.051551,0.891395,0.327447,0.269611,0.159699,46.298943,22.090683,29.855914
39900,NaN,-3.854500,6.968315,6.380157,-0.123222,0.165627,0.389193,-0.039790,-0.122846,0.025017,0.891599,0.327443,0.269002,0.159593,46.264114,22.034778,29.805557
39901,NaN,-3.601687,6.670685,6.417651,0.123862,0.046262,0.119026,-0.063948,-0.087882,0.018794,0.891802,0.327292,0.268539,0.159548,46.219830,21.995218,29.767974
39902,NaN,-3.496884,6.537534,6.457036,0.236684,-0.019543,0.016069,-0.080481,-0.066884,0.018992,0.892002,0.327054,0.268157,0.159562,46.170179,21.963925,29.740115
39903,NaN,-3.516636,6.475371,6.492235,0.240472,-0.087921,0.004681,-0.067934,-0.049117,0.015271,0.892162,0.326849,0.267869,0.159570,46.129574,21.941152,29.718379
39904,NaN,-3.548993,6.566823,6.450528,0.174657,-0.011458,0.051247,-0.058252,-0.023550,0.015960,0.892270,0.326671,0.267703,0.159611,46.099405,21.928272,29.708557
39905,NaN,-3.530652,6.626848,6.305403,0.094507,0.117320,-0.008810,-0.069850,-0.010143,0.004866,0.892389,0.326413,0.267604,0.159639,46.062534,21.925258,29.699736
39906,NaN,-3.508117,6.677620,6.316397,0.110625,0.164726,0.023724,-0.071809,-0.001243,-0.003636,0.892505,0.326130,0.267558,0.159647,46.025167,21.929311,29.691443
39907,NaN,-3.537879,6.820353,6.261992,0.037051,0.289396,0.094947,-0.078740,0.002349,-0.014937,0.892637,0.325795,0.267540,0.159620,45.982103,21.939419,29.679681
39908,NaN,-3.585212,6.777094,6.279064,0.011487,0.235366,0.094575,-0.098278,-0.005038,-0.032921,0.892824,0.325359,0.267504,0.159526,45.924244,21.953995,29.657118
39909,NaN,-3.641417,6.753600,6.332606,-0.002157,0.175229,0.134282,-0.088097,-0.015528,-0.053073,0.893026,0.324945,0.267461,0.159311,45.866706,21.972645,29.621005
39910,NaN,-3.674636,6.710894,6.369300,-0.004660,0.120882,0.141829,-0.101527,-0.020952,-0.069507,0.893268,0.324458,0.267411,0.159033,45.798431,21.995851,29.575601
39911,NaN,-3.652947,6.533526,6.347170,0.017059,0.022344,0.001422,-0.103952,-0.038707,-0.072995,0.893541,0.323965,0.267283,0.158713,45.724700,22.013335,29.520579
39912,NaN,-3.546402,6.421833,6.405621,0.146486,-0.029823,-0.074796,-0.088400,-0.033118,-0.063340,0.893773,0.323554,0.267179,0.158425,45.662875,22.029039,29.472385
39913,NaN,-3.429890,6.338757,6.481759,0.292656,-0.068205,-0.124195,-0.045164,-0.007511,-0.040494,0.893884,0.323343,0.267185,0.158222,45.633221,22.045602,29.445145
39914,NaN,-3.489252,6.345980,6.497794,0.254411,-0.094083,-0.086738,-0.017259,0.017235,-0.018678,0.893897,0.323269,0.267289,0.158119,45.627710,22.063127,29.438469
39915,NaN,-3.518549,6.390389,6.481704,0.219506,-0.065919,-0.056806,0.010401,0.038487,0.004375,0.893821,0.323330,0.267472,0.158117,45.644802,22.079733,29.450947
39916,NaN,-3.637704,6.515491,6.464283,0.103715,-0.020684,0.059511,0.019161,0.053697,0.021106,0.893695,0.323443,0.267704,0.158202,45.672667,22.095547,29.477586
39917,NaN,-3.662538,6.598111,6.310221,-0.010485,0.102750,0.023850,0.011074,0.064322,0.034467,0.893560,0.323526,0.267954,0.158375,45.699351,22.110147,29.514514
39918,NaN,-3.761947,6.805407,6.266630,-0.135343,0.230164,0.170557,-0.003044,0.052064,0.038918,0.893458,0.323566,0.268132,0.158568,45.717134,22.117977,29.548140
39919,NaN,-3.791634,6.847300,6.285397,-0.151894,0.238096,0.221676,-0.036413,0.026701,0.027183,0.893455,0.323457,0.268188,0.158711,45.709168,22.120497,29.565278
39920,NaN,-3.705641,6.716716,6.265085,-0.080733,0.192764,0.089517,-0.042950,0.003629,0.004168,0.893510,0.323310,0.268174,0.158723,45.690384,22.123200,29.562463
39921,NaN,-3.659586,6.644928,6.334783,0.003280,0.129193,0.069641,-0.039482,-0.015660,-0.002807,0.893593,0.323181,0.268087,0.158668,45.668721,22.121066,29.547896
39922,NaN,-3.558540,6.559743,6.424746,0.144597,0.070648,0.033373,-0.034356,-0.019672,-0.009228,0.893676,0.323073,0.267998,0.158571,45.648808,22.119922,29.528984
39923,NaN,-3.535444,6.462985,6.420147,0.170357,0.013994,-0.042395,-0.019440,-0.004976,-0.010617,0.893718,0.323014,0.267987,0.158471,45.639136,22.125258,29.515766
39924,NaN,-3.530497,6.438266,6.419065,0.177392,-0.000489,-0.061349,-0.000738,0.006748,-0.012224,0.893714,0.323031,0.268047,0.158359,45.642389,22.135908,29.507235
39925,NaN,-3.601422,6.419260,6.446369,0.140512,-0.060257,-0.029568,0.009760,0.015085,-0.012162,0.893683,0.323085,0.268152,0.158246,45.652535,22.149913,29.502221
39926,NaN,-3.698745,6.522387,6.447010,0.054213,-0.029356,0.075810,0.018541,0.018616,-0.005875,0.893627,0.323188,0.268269,0.158155,45.669835,22.162708,29.501681
39927,NaN,-3.754181,6.612758,6.414910,-0.016163,0.027431,0.135805,0.003268,0.018931,-0.003201,0.893594,0.323221,0.268371,0.158096,45.678366,22.174582,29.502249
39928,NaN,-3.780403,6.690218,6.298060,-0.111908,0.130668,0.121417,-0.009384,0.007987,-0.003769,0.893595,0.323210,0.268416,0.158035,45.678232,22.182258,29.497917
39929,NaN,-3.825295,6.804405,6.289249,-0.165357,0.201186,0.208273,-0.037128,-0.001534,-0.010267,0.893661,0.323070,0.268406,0.157966,45.659043,22.188834,29.486370
39930,NaN,-3.769134,6.714042,6.289297,-0.111672,0.164031,0.127163,-0.060706,-0.018620,-0.017615,0.893792,0.322832,0.268314,0.157869,45.622805,22.191524,29.464278
39931,NaN,-3.669982,6.580500,6.324270,0.000602,0.097979,0.023905,-0.049023,-0.034514,-0.026264,0.893934,0.322644,0.268173,0.157692,45.588674,22.191418,29.431216
39932,NaN,-3.649271,6.599173,6.436023,0.077897,0.070199,0.100822,-0.030711,-0.039050,-0.028498,0.894052,0.322541,0.268031,0.157473,45.564439,22.190344,29.395381
39933,NaN,-3.536397,6.542252,6.512470,0.217693,0.045540,0.070124,-0.040124,-0.032262,-0.035921,0.894184,0.322378,0.267923,0.157243,45.534201,22.195062,29.359129
39934,NaN,-3.456899,6.433498,6.494794,0.282364,0.014169,-0.043221,-0.044144,-0.011938,-0.033166,0.894291,0.322188,0.267899,0.157065,45.506016,22.206737,29.333234
39935,NaN,-3.549864,6.356231,6.518115,0.229869,-0.093269,-0.043988,-0.018259,0.011304,-0.020417,0.894317,0.322108,0.267977,0.156946,45.498103,22.222585,29.322929
39936,NaN,-3.617345,6.372574,6.410350,0.113762,-0.057581,-0.077636,0.006597,0.028609,-0.009473,0.894269,0.322145,0.268136,0.156871,45.509620,22.240838,29.325193
39937,NaN,-3.681945,6.483786,6.413843,0.055535,-0.006992,0.022476,0.027150,0.030270,-0.000178,0.894180,0.322281,0.268302,0.156813,45.534216,22.256030,29.332047
39938,NaN,-3.725624,6.604278,6.367085,-0.016008,0.083828,0.088285,0.018819,0.024523,0.000269,0.894111,0.322388,0.268437,0.156758,45.553650,22.268653,29.336740
39939,NaN,-3.660148,6.621283,6.371484,0.040719,0.122544,0.077570,0.014037,0.022740,0.002371,0.894051,0.322475,0.268555,0.156716,45.569897,22.279777,29.341383
39940,NaN,-3.652563,6.677991,6.323629,0.015778,0.190629,0.081173,0.007313,0.020656,-0.000944,0.894007,0.322532,0.268665,0.156666,45.581900,22.291339,29.343848
39941,NaN,-3.632229,6.733212,6.329472,0.032177,0.237996,0.113730,-0.003984,0.019096,-0.007075,0.893989,0.322529,0.268768,0.156600,45.585661,22.304866,29.342790
39942,NaN,-3.640501,6.679378,6.341489,0.040489,0.189497,0.089044,-0.017025,0.021958,-0.010028,0.893988,0.322464,0.268879,0.156544,45.582456,22.320659,29.341899
39943,NaN,-3.614664,6.602942,6.424125,0.119393,0.105736,0.082189,-0.019445,0.014663,-0.012986,0.894006,0.322387,0.268960,0.156465,45.575638,22.334827,29.336316
39944,NaN,-3.613026,6.560839,6.299738,0.054729,0.138741,-0.026829,-0.022887,0.022278,-0.016444,0.894019,0.322287,0.269078,0.156389,45.568073,22.353363,29.332777
39945,NaN,-3.771767,6.621683,6.294797,-0.081148,0.116826,0.070487,-0.018313,0.000903,-0.014939,0.894055,0.322223,0.269101,0.156278,45.559262,22.362809,29.320256
39946,NaN,-3.704756,6.605763,6.369670,0.018270,0.100562,0.082946,-0.023229,-0.013650,-0.014727,0.894116,0.322153,0.269056,0.156151,45.545740,22.366224,29.301566
39947,NaN,-3.714080,6.547893,6.417589,0.044720,0.031757,0.079316,-0.014790,-0.006750,-0.017613,0.894158,0.322106,0.269052,0.156011,45.537213,22.373687,29.284495
39948,NaN,-3.724366,6.520145,6.398427,0.028556,0.017734,0.052500,-0.018820,-0.007282,-0.016164,0.894205,0.322049,0.269041,0.155883,45.527048,22.380236,29.267993
39949,NaN,-3.712974,6.471311,6.396309,0.041630,-0.010749,0.014569,-0.016342,-0.008037,-0.006490,0.894243,0.322012,0.269012,0.155792,45.519249,22.382630,29.255177
39950,NaN,-3.673411,6.454858,6.398736,0.076563,-0.005757,-0.009777,-0.003920,-0.009803,-0.001666,0.894257,0.322042,0.268978,0.155705,45.519587,22.382235,29.243851
39951,NaN,-3.690322,6.525908,6.404264,0.058861,0.036193,0.047118,0.007477,-0.007084,0.002008,0.894249,0.322122,0.268958,0.155622,45.527000,22.381538,29.235146
39952,NaN,-3.653662,6.507480,6.439517,0.112024,0.020768,0.043830,0.010156,0.001296,-0.009755,0.894232,0.322196,0.268997,0.155497,45.535930,22.388903,29.225213
39953,NaN,-3.578187,6.550058,6.465335,0.185773,0.072979,0.059871,0.015607,0.014797,-0.005705,0.894187,0.322285,0.269094,0.155404,45.550411,22.400144,29.222837
39954,NaN,-3.543828,6.561656,6.432961,0.196350,0.112433,0.033420,-0.001898,0.033352,0.003928,0.894136,0.322298,0.269245,0.155408,45.560096,22.414766,29.233022
39955,NaN,-3.637715,6.517336,6.386012,0.100996,0.060075,0.009531,-0.002113,0.041467,0.009499,0.894072,0.322307,0.269423,0.155450,45.571444,22.430485,29.249052
39956,NaN,-3.716706,6.595437,6.438353,0.062548,0.056234,0.125070,-0.003695,0.038991,0.016940,0.894006,0.322326,0.269577,0.155523,45.583212,22.442028,29.267382
39957,NaN,-3.716331,6.628602,6.336446,0.002532,0.131273,0.080886,-0.017348,0.042931,0.015874,0.893959,0.322275,0.269739,0.155616,45.587145,22.455720,29.286835
39958,NaN,-3.769871,6.644345,6.281793,-0.072155,0.146453,0.076373,-0.023795,0.035104,0.014355,0.893933,0.322203,0.269864,0.155699,45.586321,22.466755,29.302326
39959,NaN,-3.776499,6.666826,6.284308,-0.077500,0.160250,0.095357,-0.031857,0.023616,0.016581,0.893935,0.322103,0.269928,0.155784,45.578797,22.472413,29.313535
39960,NaN,-3.806186,6.706630,6.305341,-0.093843,0.168121,0.146539,-0.045400,0.007870,0.011720,0.893983,0.321952,0.269918,0.155841,45.560561,22.473607,29.315827
39961,NaN,-3.755202,6.640874,6.306299,-0.046679,0.144989,0.084229,-0.051520,0.003511,0.002839,0.894054,0.321761,0.269899,0.155858,45.536087,22.476825,29.312165
39962,NaN,-3.694720,6.600282,6.328599,0.017496,0.135346,0.048713,-0.063795,-0.002803,-0.001421,0.894156,0.321519,0.269848,0.155864,45.503333,22.479107,29.304029
39963,NaN,-3.667267,6.521065,6.414614,0.096142,0.051379,0.041678,-0.058410,-0.003290,-0.009066,0.894256,0.321286,0.269812,0.155826,45.471781,22.484453,29.292182
39964,NaN,-3.604159,6.453322,6.469042,0.184607,0.007167,0.008193,-0.050693,0.003539,-0.007595,0.894333,0.321089,0.269810,0.155797,45.446577,22.491792,29.284158
39965,NaN,-3.555032,6.417302,6.402817,0.189183,0.038968,-0.077248,-0.042626,0.015027,-0.009794,0.894384,0.320912,0.269869,0.155764,45.427039,22.504790,29.280080
39966,NaN,-3.583615,6.429474,6.455723,0.197141,0.012268,-0.024032,-0.024944,0.032461,-0.008804,0.894382,0.320806,0.270019,0.155741,45.421265,22.524235,29.284294
39967,NaN,-3.617165,6.423353,6.418067,0.151643,0.012988,-0.039676,-0.013930,0.039755,-0.004448,0.894349,0.320745,0.270202,0.155733,45.423243,22.544995,29.293466
39968,NaN,-3.682768,6.456699,6.432768,0.107258,0.001433,0.016897,0.001935,0.041963,0.008189,0.894277,0.320775,0.270387,0.155764,45.437314,22.561314,29.309274
39969,NaN,-3.757791,6.571648,6.349529,-0.010014,0.093628,0.067353,0.002914,0.045533,0.002651,0.894205,0.320794,0.270598,0.155775,45.451120,22.581495,29.324102
39970,NaN,-3.776245,6.599978,6.262127,-0.074849,0.148796,0.036487,0.005308,0.041217,0.001267,0.894133,0.320830,0.270794,0.155770,45.465851,22.600330,29.336578
39971,NaN,-3.803884,6.660785,6.369276,-0.037719,0.129381,0.156520,-0.009469,0.027645,0.000130,0.894107,0.320805,0.270919,0.155757,45.469112,22.614347,29.342407
39972,NaN,-3.787169,6.665123,6.354421,-0.031999,0.148926,0.143314,-0.030316,0.012089,-0.002537,0.894135,0.320699,0.270963,0.155736,45.457855,22.623028,29.340348
39973,NaN,-3.792269,6.536745,6.343605,-0.028897,0.058784,0.053790,-0.036629,0.006605,-0.002847,0.894183,0.320564,0.270978,0.155714,45.441475,22.629805,29.335570
39974,NaN,-3.755751,6.515618,6.381550,0.024205,0.043213,0.050409,-0.030147,-0.004050,0.004683,0.894227,0.320482,0.270938,0.155699,45.428781,22.629049,29.329515
39975,NaN,-3.739755,6.516015,6.402693,0.048091,0.042358,0.058209,-0.033690,-0.008010,0.003007,0.894285,0.320380,0.270881,0.155675,45.412578,22.627558,29.320822
39976,NaN,-3.633814,6.437756,6.423064,0.152375,0.023785,-0.020789,-0.027395,-0.003707,-0.000363,0.894328,0.320302,0.270853,0.155635,45.400673,22.628993,29.312719
39977,NaN,-3.600081,6.444633,6.427738,0.181188,0.042836,-0.026215,-0.011807,0.004236,0.010502,0.894329,0.320299,0.270855,0.155634,45.400348,22.629368,29.312706
39978,NaN,-3.721578,6.442209,6.400416,0.068565,-0.001015,0.001223,0.002329,0.017713,0.009847,0.894288,0.320351,0.270929,0.155633,45.410821,22.635243,29.318513
39979,NaN,-3.738890,6.590261,6.395441,0.037924,0.103165,0.101969,0.001843,0.021131,0.012973,0.894242,0.320399,0.271014,0.155652,45.421606,22.641404,29.327047
39980,NaN,-3.736676,6.593841,6.360704,0.020515,0.123268,0.080968,-0.010158,0.019500,0.011167,0.894217,0.320396,0.271084,0.155677,45.425451,22.647453,29.334220
39981,NaN,-3.761978,6.565418,6.321138,-0.018928,0.110017,0.046396,-0.009163,0.013838,0.008608,0.894202,0.320394,0.271135,0.155680,45.427958,22.652461,29.337628
39982,NaN,-3.746450,6.643851,6.330393,-0.008207,0.171265,0.097969,-0.011085,0.013554,0.003192,0.894193,0.320381,0.271191,0.155661,45.428927,22.659371,29.338699
39983,NaN,-3.768146,6.664449,6.313920,-0.036601,0.185640,0.109187,-0.016645,0.009328,0.002231,0.894201,0.320341,0.271225,0.155638,45.425309,22.665169,29.337334
39984,NaN,-3.708782,6.549245,6.343569,0.040645,0.113617,0.029771,-0.034693,0.006891,0.002587,0.894239,0.320226,0.271234,0.155638,45.411525,22.669642,29.335197
39985,NaN,-3.730406,6.492417,6.338095,0.025396,0.065786,-0.002801,-0.021553,-0.004043,0.006053,0.894270,0.320180,0.271199,0.155618,45.403457,22.668501,29.329584
39986,NaN,-3.705085,6.519610,6.378929,0.066400,0.078309,0.031761,-0.012114,-0.002791,0.000640,0.894287,0.320171,0.271185,0.155563,45.400634,22.669869,29.322314
39987,NaN,-3.689316,6.490670,6.465121,0.132684,0.022274,0.062511,-0.011091,0.003138,0.002484,0.894294,0.320161,0.271196,0.155523,45.399184,22.673073,29.318320
39988,NaN,-3.706053,6.441479,6.389988,0.081047,0.015394,-0.012043,-0.015907,0.009408,-0.002093,0.894303,0.320122,0.271238,0.155481,45.395802,22.680456,29.315247
39989,NaN,-3.697218,6.466697,6.411017,0.098910,0.028580,0.014730,-0.004528,0.012116,0.001601,0.894288,0.320133,0.271295,0.155443,45.399494,22.687631,29.314837
39990,NaN,-3.706924,6.517433,6.380085,0.069459,0.076899,0.031751,0.001300,0.021013,0.005054,0.894248,0.320172,0.271391,0.155428,45.409148,22.696762,29.320010
39991,NaN,-3.733796,6.608592,6.421388,0.064342,0.112441,0.128749,-0.006141,0.018854,0.006056,0.894223,0.320177,0.271470,0.155423,45.413816,22.704830,29.324523
39992,NaN,-3.750596,6.559310,6.346310,0.012693,0.105607,0.054220,-0.033138,0.011746,0.008696,0.894247,0.320074,0.271492,0.155456,45.402771,22.708740,29.327185
39993,NaN,-3.793590,6.524143,6.323434,-0.031773,0.072518,0.032886,-0.018398,0.003313,0.004730,0.894264,0.320034,0.271494,0.155437,45.397540,22.711098,29.324246
39994,NaN,-3.792630,6.569131,6.381467,-0.001702,0.079164,0.099647,-0.015914,-0.001004,-0.002814,0.894288,0.320002,0.271490,0.155374,45.392252,22.714573,29.316249
39995,NaN,-3.799391,6.545418,6.327797,-0.036246,0.085937,0.051905,-0.023976,-0.002084,0.000075,0.894324,0.319935,0.271472,0.155334,45.382119,22.716657,29.308892
39996,NaN,-3.744419,6.499715,6.416520,0.064102,0.034934,0.058147,-0.027251,-0.001369,0.000880,0.894363,0.319858,0.271452,0.155302,45.370897,22.718476,29.302345
39997,NaN,-3.765431,6.519407,6.401413,0.035726,0.049352,0.069393,-0.026629,-0.002449,-0.001004,0.894406,0.319778,0.271431,0.155260,45.358999,22.720851,29.294355
39998,NaN,-3.696621,6.491100,6.318960,0.045220,0.101088,-0.029213,-0.024728,-0.003344,0.000723,0.894443,0.319714,0.271405,0.155221,45.348857,22.721933,29.286864
39999,NaN,-3.689610,6.512386,6.375234,0.081297,0.093688,0.018519,-0.008835,-0.003509,-0.000162,0.894458,0.319715,0.271392,0.155157,45.347114,22.723535,29.278772
40000,NaN,-3.676470,6.587306,6.419157,0.110397,0.134298,0.091069,-0.001651,0.004394,-0.002925,0.894451,0.319743,0.271423,0.155083,45.350900,22.729213,29.273105
40001,NaN,-3.637905,6.570809,6.421126,0.145266,0.139166,0.066598,-0.017933,0.007965,-0.005044,0.894469,0.319688,0.271462,0.155027,45.345079,22.737425,29.267952
40002,NaN,-3.715297,6.527580,6.394301,0.072632,0.086751,0.050731,-0.025495,0.013879,-0.004552,0.894488,0.319600,0.271521,0.154994,45.336548,22.747574,29.265761
40003,NaN,-3.755814,6.541784,6.393540,0.039297,0.081268,0.075199,-0.016660,0.017388,-0.004387,0.894490,0.319545,0.271602,0.154954,45.333175,22.759313,29.265056
40004,NaN,-3.769674,6.511036,6.407433,0.041048,0.046850,0.069385,-0.018577,0.017113,-0.009802,0.894499,0.319478,0.271688,0.154893,45.328273,22.772897,29.261998
40005,NaN,-3.783791,6.510658,6.355143,0.000503,0.067781,0.040687,-0.025376,0.015040,-0.006991,0.894520,0.319381,0.271756,0.154850,45.319063,22.784751,29.259115
40006,NaN,-3.784744,6.477994,6.422905,0.043540,0.012128,0.063565,-0.027772,0.008934,-0.006316,0.894551,0.319285,0.271793,0.154804,45.308079,22.793618,29.253960
40007,NaN,-3.737125,6.517103,6.380087,0.053297,0.085685,0.042974,-0.019943,0.007688,-0.004312,0.894571,0.319222,0.271828,0.154753,45.301174,22.801417,29.248995
40008,NaN,-3.735091,6.519356,6.346752,0.035904,0.105874,0.022030,-0.019659,0.013521,0.001881,0.894577,0.319169,0.271879,0.154740,45.297010,22.808789,29.249446
40009,NaN,-3.729209,6.540275,6.402728,0.072011,0.098408,0.069733,-0.025320,0.018537,0.004104,0.894585,0.319085,0.271945,0.154752,45.290307,22.817533,29.252952
40010,NaN,-3.745748,6.536417,6.384839,0.049630,0.098680,0.061995,-0.026495,0.018355,-0.005642,0.894601,0.318988,0.272024,0.154723,45.281778,22.829912,29.252244
40011,NaN,-3.695904,6.547970,6.374267,0.083529,0.137537,0.043326,-0.034675,0.025338,-0.003248,0.894620,0.318847,0.272125,0.154725,45.269634,22.844392,29.255536
40012,NaN,-3.731150,6.537810,6.371922,0.056151,0.117895,0.048793,-0.031397,0.024623,-0.004048,0.894634,0.318725,0.272226,0.154719,45.259643,22.858642,29.258288
40013,NaN,-3.772911,6.474731,6.380726,0.035644,0.050238,0.029409,-0.028890,0.021487,-0.007904,0.894652,0.318606,0.272321,0.154687,45.249359,22.873464,29.257835
40014,NaN,-3.765460,6.498724,6.402269,0.053609,0.063252,0.056166,-0.016161,0.023214,-0.010427,0.894649,0.318545,0.272437,0.154629,45.246771,22.889739,29.257167
40015,NaN,-3.773687,6.520856,6.404386,0.048433,0.077048,0.075192,-0.018295,0.031014,-0.010194,0.894639,0.318463,0.272588,0.154588,45.243803,22.909336,29.259916
40016,NaN,-3.822128,6.481720,6.414264,0.021961,0.023406,0.074835,-0.024857,0.031269,-0.012272,0.894640,0.318354,0.272736,0.154547,45.237302,22.929606,29.261994
40017,NaN,-3.897276,6.518642,6.342940,-0.081735,0.054104,0.081995,-0.021791,0.030545,-0.000796,0.894630,0.318270,0.272866,0.154551,45.233856,22.945191,29.268651
40018,NaN,-3.823438,6.481953,6.381009,0.005320,0.043332,0.053911,-0.026479,0.018338,-0.005615,0.894645,0.318173,0.272945,0.154521,45.225335,22.957538,29.267931
40019,NaN,-3.803823,6.413151,6.341867,0.005683,0.021361,-0.024104,-0.024808,0.007023,0.007617,0.894665,0.318105,0.272954,0.154530,45.217548,22.960210,29.267884
40020,NaN,-3.818518,6.410553,6.323748,-0.016726,0.021682,-0.031823,-0.001859,-0.004863,0.012295,0.894659,0.318160,0.272920,0.154510,45.222196,22.955910,29.264763
40021,NaN,-3.776607,6.517888,6.373503,0.034839,0.095572,0.054269,0.008974,-0.011477,0.010980,0.894648,0.318262,0.272867,0.154458,45.231152,22.949749,29.258017
40022,NaN,-3.720772,6.505078,6.394055,0.092824,0.099558,0.037469,0.002545,-0.008888,0.010151,0.894643,0.318337,0.272821,0.154416,45.237265,22.944696,29.252179
40023,NaN,-3.689241,6.540816,6.365595,0.097712,0.153186,0.030105,0.000423,0.000073,0.014083,0.894627,0.318397,0.272809,0.154408,45.243841,22.941933,29.251894
40024,NaN,-3.706174,6.611921,6.371766,0.080774,0.195083,0.087214,-0.006894,0.008316,0.009709,0.894613,0.318416,0.272833,0.154404,45.247435,22.943993,29.253459
40025,NaN,-3.703151,6.615431,6.337797,0.063417,0.215421,0.066305,-0.006536,0.002582,0.005310,0.894612,0.318430,0.272841,0.154371,45.248958,22.945813,29.250440
40026,NaN,-3.737293,6.530629,6.343538,0.048673,0.133611,0.027878,-0.007410,0.009397,0.005461,0.894601,0.318440,0.272876,0.154350,45.251725,22.950027,29.250622
40027,NaN,-3.852714,6.473733,6.380152,-0.016105,0.021097,0.059407,-0.004508,0.004016,0.008286,0.894592,0.318466,0.272887,0.154329,45.255166,22.951214,29.249540
40028,NaN,-3.942293,6.521616,6.447505,-0.053125,-0.016655,0.169315,-0.001486,-0.000195,0.008667,0.894582,0.318515,0.272879,0.154300,45.260224,22.950252,29.246888
40029,NaN,-4.004190,6.523408,6.531161,-0.055214,-0.083248,0.248847,-0.034538,-0.019720,0.008991,0.894653,0.318426,0.272759,0.154286,45.242489,22.941579,29.235626
40030,NaN,-3.897548,6.460783,6.362895,-0.065204,0.001594,0.057205,-0.052166,-0.024432,0.016050,0.894751,0.318276,0.272592,0.154320,45.215595,22.927840,29.225505
40031,NaN,-3.860361,6.347871,6.287860,-0.071325,-0.027876,-0.079797,-0.037275,-0.018941,0.017761,0.894818,0.318187,0.272460,0.154349,45.197932,22.915906,29.218440
40032,NaN,-3.786029,6.489062,6.311597,-0.015391,0.099745,-0.001061,-0.003639,-0.039792,0.019838,0.894857,0.318271,0.272255,0.154310,45.196857,22.894428,29.203212
40033,NaN,-3.636889,6.668685,6.397756,0.132385,0.258436,0.114310,-0.019500,-0.047734,0.027376,0.894928,0.318296,0.271992,0.154313,45.186084,22.866958,29.187663
40034,NaN,-3.579699,6.531594,6.373557,0.173404,0.193317,-0.013160,-0.040203,-0.043618,0.016362,0.895032,0.318215,0.271748,0.154301,45.162837,22.845333,29.169238
40035,NaN,-3.628015,6.485267,6.454934,0.183035,0.098474,0.028255,-0.022576,-0.029662,0.006368,0.895100,0.318184,0.271597,0.154243,45.149838,22.833691,29.152468
40036,NaN,-3.716108,6.531118,6.525296,0.146046,0.060702,0.138163,-0.035715,-0.021041,-0.004396,0.895183,0.318078,0.271490,0.154168,45.129504,22.829595,29.134900
40037,NaN,-3.679296,6.421201,6.414852,0.121737,0.051915,-0.019738,-0.046920,0.016745,-0.014815,0.895242,0.317873,0.271562,0.154122,45.106888,22.845305,29.129289
40038,NaN,-3.705683,6.512892,6.424295,0.099066,0.107913,0.056454,-0.020806,0.050360,-0.019471,0.895216,0.317758,0.271810,0.154073,45.104733,22.876185,29.136551
40039,NaN,-3.790392,6.599554,6.324627,-0.034324,0.187812,0.081030,-0.074811,0.027941,-0.001346,0.895293,0.317438,0.271889,0.154143,45.070345,22.890956,29.141774
40040,NaN,-3.873044,6.336710,6.171851,-0.165430,0.032710,-0.157758,-0.078581,-0.015374,0.013523,0.895423,0.317159,0.271746,0.154216,45.029469,22.881849,29.134569
40041,NaN,-3.917958,6.307820,6.342825,-0.102357,-0.090171,-0.047863,-0.005255,-0.034278,0.020597,0.895457,0.317229,0.271565,0.154191,45.028036,22.862535,29.122046
40042,NaN,-4.002549,6.509391,6.394506,-0.164293,-0.003444,0.150006,0.003401,-0.044650,0.015013,0.895495,0.317342,0.271351,0.154113,45.029391,22.840979,29.102627
40043,NaN,-3.857115,6.444794,6.383248,-0.050504,0.017136,0.044072,-0.003542,-0.050222,0.012884,0.895555,0.317421,0.271112,0.154025,45.024915,22.818334,29.079708
40044,NaN,-3.732006,6.371158,6.421057,0.076324,-0.003029,-0.027818,0.016686,-0.050965,0.027034,0.895571,0.317614,0.270862,0.153973,45.034871,22.789357,29.062802
40045,NaN,-3.686907,6.403303,6.480213,0.140718,0.008372,0.014258,0.026563,-0.040387,0.032771,0.895554,0.317847,0.270659,0.153949,45.052719,22.762637,29.052942
40046,NaN,-3.630615,6.388383,6.534588,0.216768,-0.008558,0.018212,0.017282,-0.030099,0.036567,0.895533,0.318040,0.270487,0.153972,45.068187,22.738242,29.049382
40047,NaN,-3.553945,6.414439,6.472840,0.237751,0.070755,-0.034565,0.025038,-0.020973,0.045471,0.895482,0.318269,0.270349,0.154038,45.090614,22.714230,29.053617
40048,NaN,-3.576144,6.539987,6.447874,0.191297,0.161565,0.039856,0.035542,-0.002211,0.046377,0.895387,0.318535,0.270301,0.154124,45.122925,22.697119,29.066597
40049,NaN,-3.608801,6.639470,6.401748,0.127539,0.239190,0.087560,0.011745,0.007288,0.044875,0.895320,0.318681,0.270280,0.154250,45.142421,22.684768,29.082985
40050,NaN,-3.674311,6.656753,6.327624,0.029841,0.256134,0.075956,-0.004300,0.021332,0.031303,0.895268,0.318731,0.270330,0.154361,45.153349,22.683270,29.099708
40051,NaN,-3.841360,6.704861,6.459595,-0.033153,0.152964,0.257718,-0.038879,0.016681,0.023455,0.895285,0.318614,0.270347,0.154474,45.141813,22.683412,29.110845
40052,NaN,-3.767355,6.575577,6.385129,-0.005506,0.128476,0.096122,-0.068600,-0.004653,0.013221,0.895385,0.318372,0.270259,0.154549,45.108446,22.678751,29.108214
40053,NaN,-3.809013,6.475067,6.498346,0.033639,-0.015345,0.120197,-0.084311,-0.014846,0.001112,0.895534,0.318046,0.270135,0.154574,45.061757,22.675216,29.095691
40054,NaN,-3.722980,6.296586,6.421557,0.072815,-0.068045,-0.079546,-0.069035,-0.022067,0.008707,0.895661,0.317809,0.269977,0.154602,45.024431,22.665332,29.083434
40055,NaN,-3.641007,6.414927,6.411012,0.116996,0.066038,-0.040725,-0.044279,-0.007179,0.012391,0.895727,0.317672,0.269900,0.154635,45.003888,22.660317,29.079235
40056,NaN,-3.772438,6.395008,6.523973,0.076401,-0.059640,0.070644,-0.059152,-0.003396,0.007835,0.895814,0.317463,0.269834,0.154675,44.975234,22.658337,29.074796
40057,NaN,-3.653335,6.484671,6.389720,0.083025,0.128367,-0.004376,-0.020315,-0.003963,0.015921,0.895835,0.317435,0.269785,0.154697,44.969565,22.653193,29.073563
40058,NaN,-3.822564,6.635174,6.482683,-0.016157,0.122189,0.219636,-0.046674,0.013346,0.000619,0.895885,0.317260,0.269815,0.154714,44.949665,22.660915,29.073296
40059,NaN,-4.115120,6.681534,6.277394,-0.378120,0.130447,0.228368,-0.077305,-0.012711,-0.013931,0.896031,0.316943,0.269729,0.154665,44.904810,22.664301,29.055109
40060,NaN,-4.238312,6.638027,6.357907,-0.431030,0.011486,0.299866,-0.098497,-0.067519,-0.038764,0.896302,0.316545,0.269420,0.154448,44.834903,22.655117,29.002087
40061,NaN,-4.000921,6.339582,6.300956,-0.249406,-0.069373,-0.023270,-0.110705,-0.113129,-0.044889,0.896660,0.316115,0.268907,0.154146,44.748755,22.630129,28.926333
40062,NaN,-4.277860,6.295180,6.510670,-0.354629,-0.319383,0.191833,-0.038470,-0.108865,-0.089834,0.896931,0.315949,0.268539,0.153554,44.697677,22.624604,28.832777
40063,NaN,-4.212692,6.583253,6.749052,-0.196516,-0.178892,0.510348,-0.024062,-0.101736,-0.194307,0.897250,0.315696,0.268380,0.152483,44.637706,22.664290,28.696082
40064,NaN,-3.783326,6.674412,7.044005,0.320698,-0.044007,0.597619,-0.072325,0.031086,-0.327903,0.897565,0.314951,0.268990,0.151089,44.549918,22.811467,28.558194
40065,NaN,-3.366513,6.543879,6.477364,0.360151,0.344014,-0.021679,-0.158381,0.071029,-0.348712,0.897976,0.313756,0.269746,0.149778,44.414915,22.983357,28.427881
40066,NaN,-3.146277,6.319222,6.112815,0.367400,0.478109,-0.494187,-0.154829,0.096842,-0.373540,0.898360,0.312527,0.270658,0.148391,44.281944,23.175184,28.297254
40067,NaN,-2.652332,6.400491,6.693487,1.114108,0.503657,-0.257117,-0.114654,0.142286,-0.260389,0.898535,0.311592,0.271627,0.147529,44.198615,23.340509,28.236267
40068,NaN,-3.534563,6.019400,6.390885,0.278233,-0.004566,-0.352653,-0.107453,0.172630,-0.138380,0.898564,0.310837,0.272545,0.147252,44.146655,23.469163,28.242934
40069,NaN,-4.401939,6.478935,6.086189,-0.632011,0.129608,0.085752,-0.073158,0.086985,-0.084315,0.898616,0.310368,0.273021,0.147037,44.108573,23.541393,28.236386
40070,NaN,-5.688719,6.388087,6.103493,-1.657566,-0.496608,0.552043,-0.121408,-0.155666,0.014060,0.899001,0.309999,0.272217,0.146955,44.018930,23.474165,28.168585
40071,NaN,-5.605221,6.177506,5.842576,-1.749146,-0.491308,0.208029,-0.078013,-0.409050,0.050462,0.899635,0.310055,0.270251,0.146583,43.916716,23.288215,28.007411
40072,NaN,-5.269608,6.152918,6.103578,-1.368336,-0.487487,0.225769,-0.047187,-0.625952,-0.000344,0.900544,0.310343,0.267407,0.145604,43.787774,23.032294,27.730599
40073,NaN,-4.703890,5.968551,6.709682,-0.597032,-0.676416,0.284626,-0.013850,-0.724696,-0.053503,0.901563,0.310774,0.264224,0.144186,43.653184,22.756170,27.388468
40074,NaN,-3.416098,5.747093,6.804351,0.480551,-0.346796,-0.291836,0.001850,-0.706442,-0.129289,0.902575,0.311162,0.261248,0.142432,43.519994,22.516693,27.021605
40075,NaN,-2.427725,5.875272,6.958988,1.332281,0.086764,-0.482220,0.055839,-0.529961,-0.197820,0.903312,0.311571,0.259211,0.140571,43.435636,22.377095,26.700001
40076,NaN,-2.614609,6.292404,7.061849,1.180597,0.275505,-0.074590,0.070532,-0.307678,-0.252889,0.903771,0.311821,0.258272,0.138789,43.387379,22.351178,26.448769
40077,NaN,-1.912269,6.402780,7.024074,1.733334,0.674055,-0.297900,-0.011556,-0.098334,-0.324702,0.904135,0.311456,0.258333,0.137113,43.313018,22.440655,26.254056
40078,NaN,-2.501659,5.806874,6.837248,1.211806,0.082209,-0.579556,-0.028198,0.167066,-0.329532,0.904181,0.310832,0.259588,0.135850,43.271506,22.642247,26.169857
40079,NaN,-2.788172,5.565304,6.525059,0.853920,-0.055345,-0.835464,0.147749,0.263623,-0.299690,0.903805,0.310970,0.261353,0.134642,43.351111,22.872673,26.140144
40080,NaN,-3.373275,5.742344,6.571212,0.420219,-0.179853,-0.467889,0.236733,0.296420,-0.207937,0.903181,0.311611,0.263180,0.133784,43.503919,23.080315,26.166452
40081,NaN,-3.418510,5.905056,6.286009,0.247880,0.056939,-0.538798,0.286096,0.246333,-0.100545,0.902472,0.312644,0.264647,0.133267,43.695479,23.225017,26.220351
40082,NaN,-3.627249,6.020127,6.050193,-0.029835,0.157170,-0.540258,0.357134,0.308152,-0.022068,0.901511,0.314064,0.266315,0.133106,43.953116,23.363575,26.336995
40083,NaN,-4.544051,6.712462,6.236000,-0.692738,0.194365,0.389047,0.384789,0.281780,0.034785,0.900501,0.315695,0.267794,0.133122,44.232268,23.468479,26.468444
40084,NaN,-5.105383,7.740386,6.336998,-1.139282,0.669512,1.340327,0.285800,0.158130,0.077028,0.899779,0.317022,0.268580,0.133266,44.441562,23.504931,26.565405
40085,NaN,-5.963890,8.544128,6.741581,-1.660248,0.710243,2.465673,0.013189,-0.009322,0.075478,0.899715,0.317227,0.268435,0.133503,44.464742,23.473688,26.588429
40086,NaN,-5.377468,7.883519,5.926401,-1.620394,0.866242,1.269413,-0.407539,-0.303058,0.033485,0.900736,0.315683,0.266752,0.133649,44.189075,23.338629,26.464748
40087,NaN,-4.636711,6.205914,5.911751,-0.946887,-0.073801,-0.114291,-0.475094,-0.431544,0.039683,0.902025,0.313922,0.264435,0.133710,43.853944,23.147842,26.288972
40088,NaN,-4.163659,6.372597,6.524822,-0.279173,-0.032089,0.209293,-0.278298,-0.555624,0.035310,0.903161,0.313127,0.261694,0.133294,43.611683,22.906402,26.059342
40089,NaN,-2.550655,5.444441,6.683420,1.160073,-0.149402,-0.899357,-0.412132,-0.645629,-0.087327,0.904698,0.311619,0.258646,0.132357,43.257319,22.674929,25.737490
40090,NaN,-1.571737,4.560867,6.740866,2.031016,-0.454484,-1.789006,-0.073033,-0.532710,-0.112758,0.905564,0.311538,0.256369,0.131042,43.113522,22.499093,25.453818
40091,NaN,-1.487402,6.154554,7.211853,2.214453,0.566055,-0.491879,0.148127,-0.327640,-0.146603,0.905842,0.312274,0.255218,0.129607,43.123933,22.422193,25.242052
40092,NaN,-1.035469,6.512550,7.198358,2.552970,1.018038,-0.445307,0.024248,-0.111530,-0.076507,0.905989,0.312403,0.254853,0.128986,43.111100,22.407867,25.153696
40093,NaN,-2.665601,5.437256,6.017577,0.637431,0.138146,-1.300638,0.032152,0.226390,-0.063240,0.905685,0.312361,0.256005,0.128942,43.159198,22.530013,25.214478
40094,NaN,-5.222110,6.897700,6.935785,-1.076383,-0.205464,1.221479,0.266348,0.248452,-0.153157,0.905041,0.313255,0.257545,0.128226,43.330253,22.696081,25.244332
40095,NaN,-6.487846,8.399693,7.218842,-2.050818,0.318600,2.854246,-0.044014,0.097733,-0.259467,0.905144,0.312698,0.258373,0.127191,43.279646,22.841530,25.162076
40096,NaN,-5.708583,6.530326,5.839478,-2.024069,-0.084734,0.445391,-0.448064,-0.271946,-0.397141,0.906436,0.310373,0.257482,0.125478,42.912445,22.885559,24.859714
40097,NaN,-4.599181,5.519423,6.204253,-0.849878,-0.572768,-0.375593,-0.209411,-0.368717,-0.301319,0.907416,0.309306,0.256153,0.123739,42.682373,22.850521,24.559841
40098,NaN,-2.844588,5.958820,6.612683,0.796986,0.262177,-0.505548,-0.069601,-0.334307,-0.330721,0.908147,0.308817,0.255109,0.121741,42.533597,22.840225,24.261317
40099,NaN,-1.313761,6.523518,7.643620,2.598725,0.786180,-0.048687,-0.131428,-0.179628,-0.360062,0.908790,0.307909,0.254776,0.119926,42.368641,22.906173,24.014081
40100,NaN,0.901508,6.042347,7.468154,4.407329,1.351397,-1.336540,-0.197703,0.218505,-0.207528,0.908932,0.306659,0.255974,0.119501,42.258263,23.081045,24.003561
40101,NaN,-0.582086,6.793777,7.372607,3.094708,1.461301,-0.371466,-0.146210,0.815907,0.047497,0.908070,0.305605,0.259526,0.121084,42.322078,23.411177,24.361168
40102,NaN,-2.610481,8.092343,7.350756,1.358878,1.756535,1.205564,-0.319887,1.128804,0.193915,0.906954,0.303760,0.264158,0.124033,42.369494,23.816316,24.919555
40103,NaN,-4.153811,6.848614,6.764598,-0.108780,0.516940,0.658123,-0.714532,1.252282,0.224843,0.906217,0.300072,0.269052,0.127824,42.221697,24.262979,25.545903
40104,NaN,-6.645963,5.725524,6.185837,-2.345035,-1.030532,0.611007,-0.665717,1.111599,0.201399,0.905567,0.296655,0.273356,0.131228,42.077888,24.659598,26.102680
40105,NaN,-6.416273,6.483577,6.668662,-1.884572,-0.534111,1.315621,-0.580010,0.799909,0.154873,0.905217,0.293750,0.276371,0.133836,41.921362,24.943414,26.506400
40106,NaN,-6.978671,5.725434,6.283743,-2.475846,-1.142950,0.842428,-0.771669,0.481974,0.046483,0.905639,0.290041,0.277968,0.135749,41.578601,25.133679,26.724550
40107,NaN,-4.637643,4.806612,5.852405,-0.751164,-0.677004,-0.990039,-0.648155,0.229530,-0.027041,0.906270,0.286949,0.278611,0.136789,41.246236,25.245088,26.801039
40108,NaN,-3.085825,4.538762,6.274921,0.771497,-0.406718,-1.521933,-0.401621,0.207267,-0.019095,0.906564,0.285004,0.279306,0.137489,41.053298,25.343752,26.871629
40109,NaN,-1.831886,4.457066,6.820542,2.111090,-0.177425,-1.734765,-0.208720,0.217235,0.172147,0.906435,0.284187,0.279908,0.138799,41.011224,25.375383,27.037559
40110,NaN,-1.526881,4.342691,7.145214,2.562608,-0.281298,-1.713408,-0.019210,0.351534,0.448813,0.905651,0.284527,0.280852,0.141289,41.158926,25.360155,27.391752
40111,NaN,-1.695343,5.224866,6.854203,2.184733,0.467867,-1.317896,0.120403,0.591222,0.611222,0.904207,0.285548,0.282748,0.144656,41.462247,25.385938,27.923566
40112,NaN,-3.207373,3.649022,5.738240,0.512075,-0.963534,-2.373667,0.243120,1.043543,0.585271,0.901942,0.286758,0.286803,0.148376,41.914594,25.611278,28.634694
40113,NaN,-5.556438,5.253667,6.019118,-1.270813,-0.892028,-0.205776,0.754759,0.993561,0.673928,0.898909,0.290422,0.290877,0.151682,42.672278,25.775160,29.369977
40114,NaN,-6.761843,6.865660,6.346656,-2.095754,-0.399406,1.526915,0.728225,0.858626,0.510312,0.896196,0.293823,0.294545,0.154090,43.359641,25.937449,29.973648
40115,NaN,-6.589032,7.487283,5.706929,-2.338650,0.350488,1.432340,0.662628,0.649740,0.332283,0.893997,0.296814,0.297483,0.155485,43.935375,26.078190,30.406100
40116,NaN,-5.536160,8.240346,5.990870,-1.362679,1.219913,1.637088,0.456308,0.398633,0.244526,0.892528,0.298948,0.299260,0.156419,44.327993,26.146875,30.688499
40117,NaN,-4.584420,8.268238,6.467717,-0.295836,1.422801,1.549531,0.277492,0.230545,0.159916,0.891639,0.300281,0.300274,0.156990,44.568053,26.179866,30.857735
40118,NaN,-4.473547,9.259493,7.099354,0.102761,1.938384,2.531694,-0.041717,0.186753,0.168895,0.891285,0.300244,0.300826,0.158015,44.619024,26.190483,31.011618
40119,NaN,-4.677157,5.745109,6.098114,-0.337196,-0.404227,-0.231883,-0.608878,0.167110,0.093523,0.891867,0.297575,0.300956,0.159527,44.325487,26.224124,31.122298
40120,NaN,-5.495304,4.327767,6.045060,-0.862326,-1.836817,-0.793088,-0.165247,0.023056,0.223529,0.891895,0.297198,0.300600,0.160736,44.284504,26.146431,31.228094
40121,NaN,-5.858765,5.126581,6.470484,-0.973475,-1.580842,0.138563,-0.153993,-0.044192,0.310391,0.891938,0.297050,0.299826,0.162214,44.253444,26.006997,31.343491
40122,NaN,-4.889483,4.530170,6.161681,-0.384768,-1.469018,-0.863407,-0.084058,-0.252912,0.391925,0.892118,0.297508,0.298053,0.163641,44.238314,25.748933,31.403302
40123,NaN,-2.801867,4.289522,5.691841,0.926874,-0.497339,-2.227112,0.193663,-0.165505,0.451664,0.891702,0.299217,0.296809,0.165049,44.409856,25.503118,31.528471
40124,NaN,-2.639909,4.897111,6.293276,1.352812,-0.265616,-1.526847,0.560118,0.054653,0.570571,0.890302,0.302555,0.296666,0.166771,44.855728,25.298209,31.803770
40125,NaN,-3.123147,6.742728,6.558296,0.945565,0.719112,0.026918,0.668645,0.261680,0.626324,0.888368,0.306275,0.297447,0.168890,45.411791,25.152562,32.194471
40126,NaN,-4.212537,7.794393,6.590408,0.035468,0.890260,1.193539,0.567255,0.414213,0.579616,0.886381,0.309345,0.298881,0.171183,45.929241,25.083355,32.631700
40127,NaN,-5.227096,8.539484,6.552203,-0.820146,0.899224,2.090887,0.324679,0.385938,0.429865,0.884927,0.311131,0.300213,0.173128,46.273387,25.062235,32.989611
40128,NaN,-5.271289,8.102185,6.260070,-0.968850,0.642861,1.644555,0.036790,0.223873,0.197809,0.884358,0.311438,0.300935,0.174225,46.378605,25.071405,33.171937
40129,NaN,-4.241231,8.182363,6.308324,-0.159308,1.185870,1.291473,-0.061224,0.098265,0.007130,0.884297,0.311129,0.301315,0.174431,46.367606,25.110349,33.213519
40130,NaN,-2.887446,7.372705,6.315877,0.974620,1.267323,0.188731,-0.227007,0.174495,-0.127718,0.884495,0.309823,0.302094,0.174409,46.251965,25.234889,33.231081
40131,NaN,-2.927997,7.000254,6.593762,1.180932,0.875750,0.131797,-0.200908,0.312299,-0.163765,0.884473,0.308450,0.303563,0.174400,46.170907,25.429485,33.295605
40132,NaN,-4.319997,7.412001,7.255122,0.531725,0.241945,1.407625,-0.297399,0.444651,-0.196863,0.884422,0.306490,0.305580,0.174595,46.055099,25.689833,33.405935
40133,NaN,-4.746674,7.903396,6.818678,-0.112516,0.651603,1.635072,-0.633864,0.377657,-0.249233,0.885025,0.303010,0.307086,0.174968,45.722569,25.945979,33.461506
40134,NaN,-4.437011,6.704679,5.977530,-0.276278,0.341797,0.196153,-0.840257,0.354743,-0.286481,0.885991,0.298581,0.308357,0.175455,45.259868,26.207869,33.488187
40135,NaN,-4.802639,6.120005,5.470572,-0.812244,0.010035,-0.337107,-0.823488,0.237332,-0.282309,0.887092,0.294322,0.309114,0.175755,44.782558,26.421317,33.461269
40136,NaN,-4.224309,4.037011,5.075265,-0.376540,-1.068819,-2.156570,-0.722495,0.116780,-0.276491,0.888209,0.290628,0.309408,0.175745,44.339790,26.582430,33.380972
40137,NaN,-4.072588,3.621248,5.463444,0.041191,-1.437906,-2.231174,-0.156110,0.067838,-0.075708,0.888396,0.289794,0.309691,0.175677,44.251820,26.643382,33.369873
40138,NaN,-4.434885,5.195082,6.746919,0.405514,-0.922053,-0.264737,0.079750,0.120020,0.051961,0.888047,0.290165,0.310225,0.175888,44.336279,26.674128,33.440781
40139,NaN,-3.852821,6.156349,6.723663,0.711579,0.110181,0.058179,0.042889,0.193427,0.000847,0.887683,0.290223,0.311129,0.176034,44.403450,26.755857,33.521194
40140,NaN,-3.965774,5.801618,6.118044,0.298239,0.029401,-0.499968,0.031575,0.264858,-0.060938,0.887277,0.290077,0.312426,0.176028,44.466541,26.890976,33.605604
40141,NaN,-4.354991,6.309155,6.204492,0.026791,0.193655,0.047780,0.158865,0.266748,-0.075068,0.886694,0.290465,0.313867,0.175761,44.599882,27.032951,33.684722
40142,NaN,-4.454920,6.459266,6.085638,-0.116294,0.303704,0.111909,0.157144,0.191326,-0.070068,0.886224,0.290925,0.314961,0.175411,44.718576,27.141471,33.732481
40143,NaN,-4.721930,6.547521,6.137968,-0.265352,0.212773,0.322675,0.186485,0.142194,-0.082120,0.885800,0.291533,0.315883,0.174888,44.841113,27.235332,33.752709
40144,NaN,-5.241185,6.667155,6.236571,-0.576459,0.003900,0.698423,0.132684,0.106659,-0.100317,0.885523,0.291910,0.316623,0.174318,44.922227,27.321548,33.748708
40145,NaN,-5.159791,6.319111,6.152195,-0.511283,-0.186940,0.390632,0.049222,0.085342,-0.127831,0.885427,0.291886,0.317239,0.173727,44.944814,27.410798,33.722469
40146,NaN,-4.616100,5.902841,6.100134,-0.079069,-0.211148,-0.152838,0.026268,0.086792,-0.135716,0.885366,0.291753,0.317851,0.173140,44.953374,27.503329,33.693363
40147,NaN,-4.017630,5.985196,6.511466,0.639783,-0.019388,-0.119731,0.119030,0.093306,-0.033207,0.885072,0.292182,0.318424,0.172868,45.037589,27.557498,33.714067
40148,NaN,-2.978969,6.532343,6.760784,1.524290,0.807068,-0.102945,0.100034,0.227552,-0.014527,0.884574,0.292445,0.319545,0.172906,45.143931,27.657845,33.804942
40149,NaN,-2.660076,6.660509,6.639632,1.691291,1.114362,-0.251268,0.043569,0.454316,-0.017597,0.883796,0.292252,0.321625,0.173350,45.265663,27.851337,33.998897
40150,NaN,-3.863855,7.327341,6.161311,0.451125,1.231846,0.427425,0.027577,0.684184,0.038289,0.882616,0.291882,0.324620,0.174403,45.441592,28.113510,34.325415
40151,NaN,-5.249242,7.729422,5.770537,-0.826170,1.019324,1.090335,-0.179985,0.629648,0.038390,0.881818,0.290634,0.327193,0.175710,45.488079,28.353811,34.628044
40152,NaN,-4.799055,6.659659,5.410504,-0.592469,0.584538,-0.016628,-0.345414,0.412700,0.030581,0.881613,0.288839,0.328669,0.176938,45.391816,28.509518,34.826863
40153,NaN,-6.494044,4.531144,5.740654,-1.315824,-2.011117,-0.332027,-0.360631,0.348892,-0.019180,0.881575,0.286943,0.329924,0.177877,45.261632,28.660822,34.973156
40154,NaN,-6.306160,5.377226,5.584120,-1.384720,-1.195612,0.011653,0.055929,-0.004225,0.097392,0.881414,0.287395,0.329821,0.178136,45.317907,28.621810,35.009185
40155,NaN,-5.080554,5.452150,6.162641,-0.120468,-0.752868,-0.172418,-0.025364,-0.037736,0.072706,0.881447,0.287471,0.329536,0.178372,45.314157,28.579932,35.018242
40156,NaN,-3.961777,5.603080,6.261092,0.728946,-0.120501,-0.552798,0.089510,-0.010731,0.145721,0.881205,0.288155,0.329366,0.178780,45.398692,28.518649,35.073336
40157,NaN,-3.430687,6.129866,6.460003,1.183467,0.460184,-0.354139,0.093955,0.125647,0.193116,0.880689,0.288810,0.329734,0.179585,45.525749,28.493233,35.213258
40158,NaN,-3.831670,6.660450,6.350279,0.766488,0.692790,0.102040,0.112763,0.262261,0.149527,0.879958,0.289357,0.330780,0.180364,45.684942,28.539548,35.396919
40159,NaN,-4.121558,6.990260,6.231780,0.455650,0.835825,0.374550,0.032879,0.293001,0.088147,0.879345,0.289418,0.331980,0.181049,45.791690,28.623535,35.567199
40160,NaN,-4.520315,6.717788,5.775430,-0.088502,0.598287,0.114634,0.018787,0.284004,0.036525,0.878812,0.289344,0.333198,0.181518,45.877948,28.724262,35.710103
40161,NaN,-4.123031,6.972859,5.541008,0.019222,1.084993,-0.058441,0.043269,0.260388,0.085520,0.878237,0.289475,0.334267,0.182126,45.983466,28.795831,35.864485
40162,NaN,-4.524806,5.964872,6.530239,0.564853,-0.273394,0.102137,-0.137117,0.366871,0.072385,0.877754,0.288700,0.335653,0.183132,46.007802,28.914381,36.063268
40163,NaN,-6.605791,5.502245,5.804734,-1.329620,-1.417005,0.377026,-0.013447,0.322957,0.049257,0.877185,0.288461,0.336996,0.183764,46.087855,29.025513,36.231145
40164,NaN,-6.590673,5.958049,5.620461,-1.489871,-0.991851,0.546917,-0.004188,0.076370,0.043829,0.877022,0.288487,0.337270,0.184002,46.116271,29.040178,36.280376
40165,NaN,-5.587610,5.173027,5.615078,-0.688385,-1.077665,-0.438497,0.022371,-0.114652,0.089097,0.877101,0.288875,0.336669,0.184117,46.125616,28.960877,36.259918
40166,NaN,-3.908260,6.244022,6.419647,0.915436,0.286604,-0.088801,0.188693,-0.029472,0.159611,0.876730,0.290037,0.336490,0.184385,46.265622,28.885725,36.311617
40167,NaN,-3.716750,6.232799,6.109461,0.838900,0.476959,-0.375724,0.077017,0.091591,0.177112,0.876300,0.290623,0.336715,0.185092,46.372497,28.851628,36.428228
40168,NaN,-4.082511,6.557701,6.126901,0.560771,0.511475,0.017529,0.149512,0.161394,0.141631,0.875679,0.291406,0.337361,0.185624,46.529541,28.859024,36.561868
40169,NaN,-3.935489,6.652137,5.908791,0.516278,0.729112,-0.124828,0.137412,0.206752,0.089107,0.875047,0.292000,0.338273,0.186011,46.678295,28.906391,36.693491
40170,NaN,-4.058114,6.824763,6.029830,0.516917,0.738829,0.116632,0.161506,0.291804,0.026804,0.874291,0.292520,0.339667,0.186209,46.847703,29.012210,36.838002
40171,NaN,-4.855299,6.604561,5.644245,-0.255792,0.295371,0.132106,0.079620,0.320282,0.033237,0.873599,0.292660,0.341102,0.186614,46.978230,29.126768,36.999488
40172,NaN,-5.096092,6.583667,5.614708,-0.418958,0.156670,0.219245,0.086516,0.229073,0.095737,0.872991,0.293027,0.342049,0.187149,47.105880,29.178544,37.145564
40173,NaN,-2.346192,6.944880,6.439346,2.038392,1.551918,-0.397931,0.014620,0.061181,0.257900,0.872623,0.293508,0.341962,0.188266,47.187780,29.097192,37.283322
40174,NaN,-4.464638,4.918261,6.370351,0.789017,-1.079347,-0.706864,-0.154844,0.573033,0.178076,0.871698,0.292636,0.344059,0.190076,47.275949,29.247654,37.631976
40175,NaN,-5.929458,5.993363,5.588249,-0.882347,-0.758860,0.234839,0.200255,0.476548,0.231825,0.870362,0.293488,0.345996,0.191366,47.557055,29.337774,37.958831
40176,NaN,-5.232348,6.641790,5.703723,-0.371157,0.040603,0.379653,0.051826,0.387703,0.173791,0.869447,0.293681,0.347484,0.192530,47.720499,29.416377,38.217451
40177,NaN,-4.872323,6.340949,5.355789,-0.309934,0.124481,-0.193954,0.078184,0.377727,0.224245,0.868459,0.294080,0.348881,0.193850,47.907670,29.469712,38.493973
40178,NaN,-1.509262,6.750396,6.471396,2.742064,1.820421,-0.930581,0.024452,0.258604,0.406676,0.867575,0.294683,0.349436,0.195881,48.075385,29.398292,38.792735
40179,NaN,-5.454646,6.149233,5.322548,-0.664669,-0.374974,-0.049843,0.097174,0.668246,0.376656,0.865890,0.295139,0.351883,0.198256,48.376597,29.495661,39.279063
40180,NaN,-5.856396,6.960038,5.679850,-0.746255,-0.154363,0.884008,0.116663,0.532322,0.376551,0.864404,0.295817,0.353752,0.200393,48.657294,29.538583,39.699140
40181,NaN,-7.134455,6.210172,5.257871,-1.777527,-1.294950,0.783317,-0.028777,0.376291,0.287410,0.863492,0.295856,0.354934,0.202170,48.797419,29.560330,40.003627
40182,NaN,-6.917704,6.425630,4.929489,-1.886454,-0.917201,0.629686,0.099193,0.162513,0.238621,0.862815,0.296582,0.355390,0.203192,48.948557,29.521243,40.180957
40183,NaN,-5.855224,7.260815,5.341890,-0.987103,0.125001,0.890062,0.092527,0.028810,0.147511,0.862478,0.297246,0.355401,0.203634,49.043172,29.471612,40.252354
40184,NaN,-4.099605,7.021149,5.554995,0.369243,0.846094,-0.009165,0.044744,-0.112986,-0.025054,0.862638,0.297548,0.355005,0.203206,49.039540,29.442787,40.178834
40185,NaN,-3.237068,6.750228,5.946188,1.269531,0.983801,-0.388157,0.077993,-0.038122,-0.088089,0.862680,0.297799,0.355062,0.202558,49.059419,29.469917,40.115277
40186,NaN,-3.717833,6.714020,6.098907,1.078029,0.632652,-0.089797,0.045280,0.150120,-0.079330,0.862426,0.297740,0.355882,0.202288,49.108969,29.563292,40.149166
40187,NaN,-4.069301,6.454097,5.912953,0.761173,0.317863,-0.195144,-0.004401,0.238921,-0.044129,0.862053,0.297434,0.356984,0.202388,49.159071,29.675314,40.242596
40188,NaN,-4.907585,6.118881,5.670220,0.092745,-0.306018,-0.139312,-0.018079,0.310278,0.016749,0.861508,0.297110,0.358285,0.202882,49.232762,29.786860,40.398146
40189,NaN,-4.996991,6.221096,5.443966,-0.126217,-0.197943,-0.155898,-0.005776,0.331519,0.130302,0.860791,0.297015,0.359525,0.203872,49.343048,29.857515,40.613603
40190,NaN,-1.558479,6.517750,6.338527,2.765287,1.628004,-1.164589,-0.014240,0.149361,0.365910,0.860169,0.297497,0.359616,0.205622,49.453863,29.756701,40.839090
40191,NaN,-5.214314,5.097578,5.143755,-0.302474,-1.072908,-0.958887,-0.018042,0.752647,0.280930,0.858549,0.297181,0.362426,0.207908,49.694839,29.917189,41.331248
40192,NaN,-5.523547,6.321373,5.315913,-0.502430,-0.436203,0.101204,0.261774,0.589627,0.421132,0.856648,0.298490,0.364607,0.210044,50.086653,29.952936,41.802110
40193,NaN,-6.944608,6.463988,4.618169,-1.922462,-0.947481,0.519027,0.167166,0.506184,0.450034,0.855000,0.299526,0.366289,0.212348,50.409065,29.943601,42.243169
40194,NaN,-7.938887,6.616168,4.783686,-2.431770,-1.524351,1.207561,0.199275,0.167022,0.414381,0.853954,0.300996,0.366601,0.213932,50.655983,29.823944,42.495851
40195,NaN,-6.765228,6.908005,4.281322,-2.106598,-0.494306,0.537975,0.197058,-0.261380,0.411031,0.853696,0.302901,0.365089,0.214858,50.791011,29.550327,42.527500
40196,NaN,-5.530767,7.071021,5.047104,-0.791645,0.027695,0.455430,0.172745,-0.470496,0.357901,0.853906,0.304833,0.362732,0.215285,50.848959,29.224059,42.429925
40197,NaN,-4.212329,6.931271,5.542400,0.410337,0.476757,-0.009197,0.162579,-0.564512,0.384780,0.854264,0.306863,0.359921,0.215698,50.883379,28.852424,42.295646
40198,NaN,-3.307422,6.841337,5.875524,1.219704,0.775337,-0.316605,0.125240,-0.424512,0.445378,0.854351,0.308693,0.357568,0.216651,50.943687,28.504006,42.257470
40199,NaN,-4.007944,6.844022,5.699443,0.606403,0.382291,-0.072368,0.211559,-0.208391,0.411565,0.853950,0.310590,0.356284,0.217636,51.098286,28.249110,42.314149
40200,NaN,-4.476293,6.899806,5.859404,0.398534,0.040101,0.277732,0.195876,-0.129542,0.356764,0.853487,0.312240,0.355399,0.218537,51.252011,28.046290,42.387545
40201,NaN,-4.472553,6.485224,5.684371,0.326853,-0.225075,-0.106178,0.178560,-0.018924,0.358585,0.852849,0.313692,0.354966,0.219647,51.421430,27.882645,42.516913
40202,NaN,-3.939717,6.226332,5.642136,0.683937,-0.110938,-0.558387,0.242602,0.082198,0.356492,0.851930,0.315306,0.355033,0.220794,51.650819,27.754993,42.695915
40203,NaN,-4.044420,6.095138,5.490053,0.537800,-0.245976,-0.685868,0.327967,0.247266,0.344629,0.850591,0.317073,0.355918,0.221996,51.964911,27.690999,42.953298
40204,NaN,-4.548768,6.307932,5.212939,-0.002153,-0.338096,-0.456328,0.442464,0.222096,0.326074,0.849129,0.319325,0.356845,0.222875,52.335042,27.624582,43.189834
40205,NaN,-4.291659,6.608571,5.151434,0.102923,0.002176,-0.398978,0.532518,0.170170,0.298541,0.847639,0.321959,0.357696,0.223390,52.738502,27.551787,43.388279
40206,NaN,-4.104131,6.910216,5.498815,0.474244,0.138905,-0.087083,0.589420,0.177539,0.263851,0.846074,0.324766,0.358691,0.223667,53.169886,27.495517,43.576257
40207,NaN,-4.103419,7.319701,5.497066,0.447724,0.368341,0.202170,0.518887,0.131702,0.298839,0.844658,0.327381,0.359356,0.224140,53.555312,27.406904,43.753436
40208,NaN,-3.684535,7.114596,4.641946,0.133389,0.771334,-0.586207,0.506768,0.218907,0.236344,0.843166,0.329736,0.360470,0.224514,53.943498,27.375018,43.951308
40209,NaN,-4.965155,7.153629,5.052923,-0.342710,-0.198407,0.247237,0.535898,0.205939,0.199567,0.841684,0.332154,0.361624,0.224655,54.338338,27.355292,44.128277
40210,NaN,-4.543303,7.253046,4.803267,-0.239800,0.178565,-0.003002,0.606372,0.073254,0.232973,0.840278,0.335080,0.362236,0.224588,54.747393,27.274131,44.247745
40211,NaN,-4.840948,7.347864,5.143180,-0.147702,-0.134266,0.377403,0.648463,0.095608,0.229670,0.838756,0.338142,0.362994,0.224464,55.184583,27.201732,44.377093
40212,NaN,-5.123350,7.033048,5.172917,-0.223426,-0.591976,0.290320,0.680262,0.108244,0.226776,0.837148,0.341319,0.363837,0.224290,55.642437,27.133281,44.511308
40213,NaN,-4.686042,7.162446,4.882913,-0.143514,-0.179548,0.038662,0.774276,0.048742,0.310040,0.835383,0.345098,0.364393,0.224188,56.152508,27.005837,44.643146
40214,NaN,-4.869277,7.489293,5.033384,-0.143401,-0.214957,0.437526,0.820558,0.080257,0.336534,0.833435,0.349081,0.365075,0.224163,56.700395,26.874052,44.799748
40215,NaN,-4.725460,7.540257,5.103936,0.036112,-0.199109,0.443727,0.766308,0.040455,0.374437,0.831595,0.352940,0.365462,0.224320,57.212138,26.710943,44.946682
40216,NaN,-3.864461,7.468560,4.766219,0.365537,0.362078,-0.160487,0.783392,0.032692,0.407908,0.829686,0.356939,0.365766,0.224569,57.736025,26.527507,45.099022
40217,NaN,-3.505474,7.505362,4.544677,0.457741,0.631321,-0.396522,0.816387,0.176290,0.397212,0.827451,0.360881,0.366718,0.224963,58.310282,26.392131,45.323573
40218,NaN,-4.353745,7.735921,4.625001,0.008853,0.125305,0.195992,0.825448,0.253670,0.405388,0.825029,0.364785,0.367973,0.225510,58.908727,26.273169,45.591196
40219,NaN,-4.636916,8.043245,4.806003,-0.012431,-0.023322,0.641545,0.792492,0.157775,0.429052,0.822800,0.368692,0.368748,0.226034,59.466868,26.112632,45.812378
40220,NaN,-4.217188,7.953270,4.515339,0.075693,0.237329,0.255321,0.720444,0.142520,0.430073,0.820713,0.372320,0.369366,0.226664,59.979043,25.944707,46.023422
40221,NaN,-4.370261,7.718160,4.488475,0.021403,-0.072834,0.127594,0.716828,0.223510,0.453323,0.818443,0.375872,0.370266,0.227542,60.510177,25.787157,46.284668
40222,NaN,-4.232944,7.808011,4.713870,0.318942,-0.111078,0.236618,0.819174,0.284075,0.494459,0.815802,0.379847,0.371441,0.228508,61.118785,25.622987,46.590103
40223,NaN,-3.542158,8.301766,4.943534,0.935481,0.448513,0.425841,0.858618,0.409511,0.536457,0.812784,0.383901,0.373086,0.229803,61.783558,25.469611,46.975900
40224,NaN,-4.128979,8.462068,4.663858,0.402565,0.194995,0.685198,0.769951,0.561453,0.517235,0.809649,0.387379,0.375268,0.231472,62.430077,25.362052,47.438675
40225,NaN,-3.827892,7.983721,4.228376,0.343902,0.230453,-0.009644,0.676219,0.556764,0.486499,0.806720,0.390409,0.377377,0.233175,63.016223,25.265094,47.888308
40226,NaN,-3.510432,7.639035,3.966151,0.410858,0.287014,-0.530636,0.724658,0.548811,0.533905,0.803633,0.393728,0.379403,0.234958,63.632708,25.136861,48.345211
40227,NaN,-3.604906,7.841559,3.996208,0.417935,0.248887,-0.314392,0.789186,0.603019,0.565245,0.800256,0.397286,0.381653,0.236843,64.300839,25.002195,48.839666
40228,NaN,-3.815639,8.169533,4.051573,0.371995,0.182391,0.063699,0.780999,0.645200,0.622082,0.796720,0.400860,0.383933,0.239048,64.978963,24.842471,49.371047
40229,NaN,-3.616862,8.130793,3.931971,0.454887,0.263178,-0.098018,0.731268,0.698203,0.697376,0.793064,0.404298,0.386204,0.241744,65.646745,24.651311,49.949971
40230,NaN,-2.893359,7.899584,3.864050,0.896205,0.579993,-0.616745,0.759650,0.895167,0.809503,0.788798,0.407814,0.389041,0.245219,66.386654,24.440122,50.667205
40231,NaN,-2.297594,8.008768,3.981789,1.389511,0.912412,-0.729210,0.861389,1.218779,1.021423,0.783384,0.411715,0.392827,0.249974,67.278669,24.181732,51.619405
40232,NaN,-3.729712,8.380483,3.983313,0.637948,-0.030035,0.167281,1.013900,1.511389,1.170175,0.776818,0.416104,0.397598,0.255592,68.334782,23.892190,52.769579
40233,NaN,-6.511125,8.686397,3.808896,-0.949131,-1.969615,1.482085,1.092491,1.262019,1.080737,0.770615,0.420889,0.401650,0.260158,69.360106,23.580696,53.745658
40234,NaN,-6.816004,8.542259,3.516225,-1.239878,-2.297576,1.366458,1.013892,0.684605,0.898268,0.765914,0.425727,0.403723,0.262945,70.182085,23.237766,54.335782
40235,NaN,-5.790050,8.514460,2.871041,-1.158300,-1.395004,0.721752,1.026589,0.174040,0.725072,0.762407,0.430911,0.404211,0.263942,70.873945,22.884539,54.583966
40236,NaN,-4.331837,8.654680,2.317323,-0.804606,-0.096365,0.106013,0.981467,-0.084674,0.605244,0.759649,0.436009,0.403892,0.264008,71.468681,22.545281,54.650867
40237,NaN,-3.625084,8.782135,2.002286,-0.659851,0.542595,-0.140787,0.904981,-0.190301,0.574053,0.757289,0.440876,0.403131,0.263869,71.991809,22.204064,54.646039
40238,NaN,-3.234281,8.871068,1.765180,-0.621499,0.898337,-0.269192,0.821653,-0.171246,0.569919,0.755058,0.445385,0.402326,0.263919,72.470014,21.867877,54.648262
40239,NaN,-3.127374,8.747816,1.899714,-0.416301,0.774991,-0.371337,0.766761,-0.096384,0.577361,0.752771,0.449589,0.401708,0.264266,72.932381,21.540975,54.693138
40240,NaN,-3.305217,8.635525,2.333357,-0.114151,0.301452,-0.281859,0.766054,-0.040852,0.606498,0.750316,0.453768,0.401220,0.264844,73.406974,21.206344,54.772780
40241,NaN,-3.145857,8.739605,2.748112,0.345953,0.184615,-0.134120,0.774766,-0.011598,0.649921,0.747708,0.458013,0.400748,0.265626,73.893697,20.852579,54.874120
40242,NaN,-3.047559,8.873650,3.046551,0.674108,0.083489,0.028479,0.733059,0.057109,0.678308,0.745000,0.462061,0.400399,0.266750,74.370837,20.492503,55.017100
40243,NaN,-3.083330,8.906139,3.019612,0.658818,-0.009718,0.061998,0.687444,0.121050,0.655118,0.742283,0.465791,0.400275,0.268019,74.831449,20.154527,55.190677
40244,NaN,-2.927612,8.677321,2.927035,0.697377,-0.029653,-0.223815,0.643609,0.212531,0.656136,0.739467,0.469232,0.400416,0.269587,75.283473,19.827545,55.414869
40245,NaN,-2.752102,8.465306,2.822338,0.736195,-0.015500,-0.503650,0.645541,0.336513,0.688728,0.736337,0.472563,0.400936,0.271556,75.760438,19.499214,55.713974
40246,NaN,-2.737547,8.392899,2.715252,0.688096,-0.067708,-0.602437,0.697433,0.462005,0.724140,0.732764,0.475976,0.401889,0.273841,76.290535,19.165400,56.088303
40247,NaN,-3.018945,8.642202,2.553530,0.438353,-0.202587,-0.321212,0.747271,0.540135,0.738054,0.728872,0.479474,0.403156,0.276252,76.861352,18.831539,56.506711
40248,NaN,-3.545826,8.820400,2.390083,0.067402,-0.566622,-0.027072,0.751048,0.530059,0.708003,0.725009,0.482926,0.404444,0.278515,77.427479,18.508566,56.910540
40249,NaN,-3.701882,8.907073,2.132344,-0.188495,-0.629205,0.044010,0.717944,0.425546,0.655825,0.721487,0.486279,0.405425,0.280392,77.949742,18.199117,57.242284
40250,NaN,-3.314955,8.972611,1.944616,-0.108814,-0.296332,-0.056778,0.703651,0.357336,0.627105,0.718159,0.489608,0.406195,0.282024,78.447455,17.894327,57.526502
40251,NaN,-2.805049,8.947753,1.791430,0.059893,0.090086,-0.266621,0.712495,0.338671,0.632103,0.714822,0.492990,0.406892,0.283600,78.944634,17.582962,57.797280
40252,NaN,-2.554005,9.011151,1.739453,0.181743,0.251420,-0.291531,0.749534,0.361160,0.670076,0.711274,0.496540,0.407613,0.285287,79.465781,17.249704,58.081944
40253,NaN,-2.310144,9.105795,1.623999,0.246962,0.444206,-0.292686,0.792178,0.418595,0.693906,0.707449,0.500189,0.408532,0.287104,80.019372,16.906990,58.399488
40254,NaN,-1.829323,9.315371,1.569557,0.487297,0.836067,-0.239359,0.843600,0.513017,0.712381,0.703250,0.503909,0.409794,0.289109,80.615915,16.559233,58.770120
40255,NaN,-1.841469,9.647444,1.495409,0.469788,0.869312,0.072803,0.853528,0.641537,0.723607,0.698720,0.507477,0.411483,0.291444,81.236442,16.213661,59.213342
40256,NaN,-1.984427,9.833244,1.455178,0.419825,0.726856,0.288922,0.806220,0.751555,0.726213,0.694049,0.510708,0.413457,0.294154,81.843960,15.870610,59.716723
40257,NaN,-2.361360,9.922063,1.528853,0.356906,0.306917,0.489649,0.736643,0.811400,0.691086,0.689455,0.513511,0.415614,0.297024,82.416406,15.547962,60.248298
40258,NaN,-2.700238,10.066127,1.409146,0.145149,0.026321,0.703073,0.653424,0.760967,0.643976,0.685222,0.515987,0.417573,0.299766,82.928390,15.242796,60.742263
40259,NaN,-2.534445,10.056215,1.300322,0.173624,0.125764,0.636956,0.548181,0.701893,0.592830,0.681440,0.518065,0.419297,0.302388,83.366819,14.959521,61.194788
40260,NaN,-1.995288,9.791561,0.911076,0.111139,0.606166,0.202579,0.476440,0.731525,0.580384,0.677780,0.519817,0.421027,0.305190,83.765461,14.681271,61.660874
40261,NaN,-1.266990,9.539022,0.625259,0.215644,1.210629,-0.248353,0.487574,0.903300,0.632424,0.673629,0.521434,0.423214,0.308578,84.193801,14.381224,62.228925
40262,NaN,-0.905423,9.350968,0.446685,0.243600,1.469779,-0.526156,0.569145,1.164246,0.727578,0.668536,0.523104,0.426132,0.312783,84.703882,14.036047,62.952217
40263,NaN,-1.882495,9.409983,0.584323,-0.019618,0.488545,-0.210977,0.716244,1.338167,0.784384,0.662556,0.525078,0.429692,0.317297,85.317981,13.661079,63.776349
40264,NaN,-3.536956,9.746286,0.940613,-0.329397,-1.128103,0.531498,0.805490,1.161799,0.748984,0.656731,0.527520,0.432866,0.321020,85.952098,13.289063,64.489385
40265,NaN,-3.829090,10.049734,1.112486,-0.208425,-1.490277,0.893903,0.759127,0.741659,0.648558,0.652066,0.530235,0.434835,0.323387,86.497432,12.952383,64.947237
40266,NaN,-3.322734,10.168446,1.012702,-0.021494,-1.068492,0.879385,0.710339,0.397201,0.549845,0.648418,0.533120,0.435845,0.324617,86.965899,12.656192,65.195738
40267,NaN,-2.585891,10.202580,0.914471,0.242967,-0.450205,0.739722,0.657088,0.176118,0.515109,0.645437,0.536101,0.436141,0.325251,87.373885,12.372573,65.311360
40268,NaN,-1.776603,10.255983,0.877591,0.582957,0.217176,0.614396,0.607775,0.085107,0.531684,0.642748,0.539101,0.436005,0.325800,87.741248,12.075739,65.371670
40269,NaN,-1.517438,10.106205,0.841480,0.681974,0.357222,0.412423,0.538792,0.144540,0.532023,0.640105,0.541771,0.435945,0.326652,88.075727,11.780344,65.465172
40270,NaN,-0.956402,9.867680,0.587300,0.696838,0.840129,0.058422,0.562491,0.324442,0.573660,0.636926,0.544308,0.436374,0.328071,88.444052,11.462900,65.662293
40271,NaN,-0.425727,9.763913,0.616204,0.963905,1.205967,-0.142586,0.593767,0.597657,0.650571,0.632926,0.546649,0.437511,0.330399,88.860297,11.104544,66.017950
40272,NaN,-0.108915,9.678220,0.540732,1.048002,1.422462,-0.281172,0.632346,0.973382,0.746546,0.627815,0.548684,0.439615,0.333965,89.337058,10.691024,66.589979
40273,NaN,-0.088341,9.705015,0.427934,0.987013,1.400652,-0.250189,0.677488,1.359925,0.830584,0.621553,0.550362,0.442757,0.338732,89.875713,10.226766,67.383370
40274,NaN,-0.123088,9.903792,0.260615,0.868691,1.365160,-0.037782,0.737065,1.712718,0.924106,0.614131,0.551789,0.446792,0.344601,90.475934,9.699606,68.375428
40275,NaN,0.025503,9.847025,-0.128961,0.592386,1.520022,-0.100924,0.763329,2.056514,1.069724,0.605538,0.552955,0.451475,0.351759,91.112812,9.076720,69.558870
40276,NaN,-0.854539,9.373162,-0.240133,0.192093,0.545879,-0.415488,0.796255,2.294592,1.153016,0.596071,0.553903,0.456625,0.359700,91.774209,8.388442,70.869212
40277,NaN,-2.234579,9.171226,-0.279083,-0.234535,-0.903353,-0.415410,0.965814,2.256024,1.180363,0.586065,0.555383,0.461813,0.367159,92.512441,7.670613,72.146190
40278,NaN,-3.841473,9.668937,-0.211748,-0.500792,-2.543424,0.265326,1.130348,1.924126,1.108889,0.576400,0.557699,0.466443,0.373048,93.303406,6.985509,73.221438
40279,NaN,-4.900049,10.057569,-0.062232,-0.489708,-3.710519,0.730453,1.095314,1.271998,0.969122,0.568543,0.560731,0.469469,0.376748,94.018362,6.391252,73.916252
40280,NaN,-4.627676,10.080757,-0.181559,-0.414227,-3.545951,0.690776,0.946704,0.555268,0.814986,0.563035,0.564292,0.470569,0.378326,94.597042,5.907362,74.197941
40281,NaN,-3.762752,9.932779,-0.352758,-0.285138,-2.784176,0.439577,0.813106,0.003742,0.692669,0.559412,0.568209,0.470198,0.378300,95.066073,5.518172,74.164850
40282,NaN,-2.607325,9.710443,-0.579667,-0.162918,-1.710989,0.110629,0.729445,-0.348435,0.627835,0.556963,0.572391,0.468849,0.377282,95.468155,5.184177,73.930069
40283,NaN,-1.370276,9.634260,-0.861239,-0.057335,-0.525410,-0.057770,0.694069,-0.509702,0.662687,0.554910,0.576843,0.466878,0.375968,95.843368,4.841587,73.599225
40284,NaN,-0.617833,9.564532,-1.142079,-0.078832,0.194835,-0.162741,0.697016,-0.470761,0.734426,0.552608,0.581381,0.464793,0.374950,96.223194,4.457447,73.283897
40285,NaN,-0.165101,9.550597,-1.176485,0.061225,0.551711,-0.204551,0.719216,-0.334403,0.820791,0.549743,0.585906,0.462866,0.374501,96.623611,4.018049,73.038763
40286,NaN,-0.073115,9.774061,-1.165040,0.173872,0.548061,0.013976,0.741211,-0.138506,0.871758,0.546249,0.590225,0.461349,0.374705,97.045087,3.537532,72.898491
40287,NaN,-0.117383,9.993711,-1.093317,0.302940,0.387147,0.229258,0.697696,0.058511,0.873925,0.542405,0.594040,0.460273,0.375583,97.449490,3.043095,72.867166
40288,NaN,-0.159878,10.013785,-1.085709,0.338800,0.243192,0.252369,0.601951,0.247982,0.824436,0.538488,0.597109,0.459659,0.377101,97.804152,2.562006,72.943741
40289,NaN,-0.011174,9.914374,-1.277668,0.217114,0.346436,0.175277,0.509780,0.424110,0.769106,0.534530,0.599454,0.459504,0.379195,98.109943,2.098475,73.122261
40290,NaN,0.306557,9.760764,-1.475358,0.123103,0.616459,0.043642,0.469547,0.587176,0.775349,0.530293,0.601382,0.459671,0.381879,98.393660,1.616496,73.390004
40291,NaN,0.052505,9.611940,-1.564789,-0.037227,0.307535,-0.079036,0.440104,0.740821,0.777881,0.525768,0.602924,0.460173,0.385085,98.660688,1.119332,73.742565
40292,NaN,-0.440122,9.642725,-1.634692,-0.215839,-0.241683,-0.027890,0.471782,0.760663,0.770464,0.521101,0.604475,0.460789,0.388249,98.942499,0.622338,74.104238
40293,NaN,-0.712111,9.832968,-1.504434,-0.112848,-0.639074,0.138984,0.445369,0.673570,0.741847,0.516751,0.606040,0.461205,0.391120,99.206231,0.148296,74.417149
40294,NaN,-0.845720,9.975266,-1.404991,-0.010836,-0.887904,0.257370,0.342332,0.553143,0.693104,0.513074,0.607446,0.461238,0.393730,99.408065,-0.288863,74.664240
40295,NaN,-0.878117,9.975806,-1.552310,-0.147444,-0.958486,0.274759,0.211703,0.408559,0.625791,0.510249,0.608635,0.460845,0.396020,99.534374,-0.674486,74.835031
40296,NaN,-0.790069,9.960579,-1.623540,-0.192326,-0.920655,0.266415,0.113950,0.294060,0.555338,0.508120,0.609631,0.460169,0.398005,99.603996,-1.010192,74.946900
40297,NaN,-0.446948,9.807246,-1.700675,-0.205698,-0.615620,0.129778,0.030952,0.224788,0.482750,0.506543,0.610382,0.459375,0.399779,99.626573,-1.297851,75.026607
40298,NaN,-0.190468,9.873751,-1.839136,-0.268734,-0.384663,0.221718,0.035687,0.228884,0.425288,0.505054,0.611002,0.458768,0.401409,99.650826,-1.553921,75.113766
40299,NaN,-0.025991,10.058545,-1.793358,-0.162297,-0.293169,0.399006,0.003155,0.234813,0.395476,0.503708,0.611455,0.458204,0.403052,99.656348,-1.793300,75.207352
40300,NaN,-0.049714,10.131020,-1.812710,-0.187462,-0.357131,0.471432,-0.046000,0.227967,0.380593,0.502556,0.611761,0.457563,0.404749,99.632945,-2.024016,75.298297
40301,NaN,-0.265334,10.176409,-1.884393,-0.318155,-0.590496,0.518361,-0.060583,0.211264,0.379293,0.501485,0.612059,0.456857,0.406421,99.601622,-2.251940,75.380298
40302,NaN,-0.516268,10.334183,-1.779759,-0.273770,-0.909644,0.643261,-0.083638,0.172007,0.383961,0.500565,0.612386,0.455984,0.408039,99.557243,-2.479080,75.439585
40303,NaN,-0.485988,10.478755,-1.836092,-0.318570,-0.916430,0.792510,-0.136924,0.116017,0.389439,0.499921,0.612704,0.454849,0.409615,99.483993,-2.703572,75.467160
40304,NaN,-0.403540,10.440917,-1.888441,-0.381295,-0.857230,0.763766,-0.220194,0.085786,0.405497,0.499567,0.612910,0.453412,0.411329,99.363376,-2.934567,75.476293
40305,NaN,-0.484308,10.145206,-1.882415,-0.472462,-0.943421,0.463001,-0.271397,0.056271,0.384416,0.499476,0.612997,0.451863,0.413011,99.214583,-3.150579,75.471421
40306,NaN,-0.536830,10.043945,-1.757273,-0.413280,-1.044042,0.336009,-0.229893,0.013701,0.356112,0.499412,0.613209,0.450373,0.414399,99.090350,-3.346954,75.445345
40307,NaN,-0.400566,10.109156,-1.730851,-0.374287,-0.949659,0.400503,-0.225037,-0.019512,0.293834,0.499533,0.613359,0.449004,0.415514,98.970174,-3.504915,75.406650
40308,NaN,-0.120283,10.186725,-1.606469,-0.201873,-0.735635,0.472378,-0.220780,-0.034568,0.246156,0.499775,0.613442,0.447748,0.416456,98.852362,-3.634801,75.363822
40309,NaN,0.096251,10.184919,-1.458570,-0.032935,-0.577190,0.460333,-0.236943,-0.003464,0.209020,0.500070,0.613336,0.446652,0.417433,98.724435,-3.746304,75.342330
40310,NaN,0.264274,10.186957,-1.410942,0.027058,-0.437849,0.465550,-0.261880,0.064903,0.158761,0.500396,0.612910,0.445825,0.418551,98.578966,-3.835404,75.364111
40311,NaN,0.462360,10.246067,-1.284724,0.175426,-0.290332,0.518384,-0.284873,0.144117,0.125573,0.500681,0.612187,0.445252,0.419877,98.417467,-3.912223,75.434084
40312,NaN,0.498042,10.382813,-1.124635,0.319336,-0.311083,0.633210,-0.372621,0.230157,0.082231,0.501135,0.610963,0.444838,0.421554,98.201549,-3.971463,75.556670
40313,NaN,0.481503,10.365828,-1.256446,0.142449,-0.290713,0.635081,-0.460776,0.274290,0.029978,0.501865,0.609307,0.444509,0.423426,97.933402,-4.003992,75.708959
40314,NaN,0.206704,10.295256,-1.409302,-0.130860,-0.502404,0.567648,-0.530270,0.302557,-0.046544,0.502904,0.607240,0.444330,0.425345,97.623405,-3.994587,75.883309
40315,NaN,0.041637,10.222624,-1.526465,-0.345890,-0.609629,0.499552,-0.577939,0.299867,-0.100119,0.504200,0.604935,0.444204,0.427221,97.286459,-3.953482,76.060196
40316,NaN,0.077656,10.230199,-1.580751,-0.447158,-0.540044,0.515420,-0.641653,0.295508,-0.126093,0.505751,0.602413,0.444002,0.429157,96.912777,-3.896242,76.236048
40317,NaN,0.146588,10.446122,-1.646845,-0.534184,-0.453923,0.740193,-0.625097,0.283441,-0.118244,0.507254,0.599971,0.443779,0.431033,96.549723,-3.841496,76.404230
40318,NaN,0.261495,10.930544,-1.426753,-0.312614,-0.412368,1.201512,-0.650964,0.234728,-0.089429,0.508876,0.597623,0.443283,0.432889,96.173571,-3.798974,76.542305
40319,NaN,0.473711,11.045266,-1.221425,-0.127267,-0.239207,1.306674,-0.740322,0.183277,-0.044867,0.510774,0.595251,0.442325,0.434896,95.748853,-3.777832,76.648138
40320,NaN,0.657175,10.800543,-1.199407,-0.168366,-0.022460,1.072743,-0.857832,0.134425,-0.004833,0.513037,0.592763,0.440859,0.437113,95.258417,-3.775958,76.723575
40321,NaN,1.069603,10.260109,-1.071562,-0.081410,0.417133,0.549780,-0.922209,0.137437,-0.000492,0.515462,0.590103,0.439240,0.439483,94.731406,-3.776080,76.800594
40322,NaN,1.464796,9.888351,-1.038294,-0.074053,0.845351,0.201420,-0.894697,0.201939,-0.002810,0.517661,0.587352,0.437844,0.441969,94.217324,-3.777037,76.914543
40323,NaN,1.677777,9.694937,-0.886104,0.024595,1.052773,0.009855,-0.843937,0.309620,0.011241,0.519431,0.584516,0.436790,0.444687,93.728673,-3.789329,77.089717
40324,NaN,1.614364,9.627877,-0.655756,0.148478,0.961671,-0.076941,-0.796966,0.420201,0.022684,0.520789,0.581568,0.436084,0.447647,93.262326,-3.810608,77.327863
40325,NaN,1.393913,9.455845,-0.549685,0.117566,0.750509,-0.269074,-0.753229,0.517531,0.038607,0.521760,0.578541,0.435676,0.450826,92.817602,-3.842027,77.621612
40326,NaN,1.121332,9.347974,-0.334864,0.191961,0.458217,-0.404877,-0.693557,0.590648,0.048423,0.522367,0.575513,0.435554,0.454104,92.403698,-3.878868,77.957167
40327,NaN,0.904740,9.384787,-0.214627,0.198216,0.228160,-0.386812,-0.638677,0.653648,0.052056,0.522659,0.572482,0.435704,0.457443,92.018922,-3.916755,78.329179
40328,NaN,0.822854,9.585312,-0.227195,0.109009,0.144277,-0.191157,-0.628336,0.702802,0.037074,0.522839,0.569321,0.436037,0.460853,91.637505,-3.944591,78.729813
40329,NaN,0.773330,9.877762,-0.193415,0.069911,0.079094,0.096605,-0.663855,0.784839,-0.004377,0.523022,0.565774,0.436613,0.464453,91.232718,-3.947005,79.178460
40330,NaN,0.601582,9.909565,-0.360751,-0.199403,-0.042831,0.119553,-0.761107,0.839947,-0.089219,0.523545,0.561643,0.437332,0.468187,90.769781,-3.898094,79.659464
40331,NaN,0.470607,9.842795,-0.521803,-0.460896,-0.112967,0.043708,-0.843236,0.880241,-0.171979,0.524383,0.557003,0.438184,0.471980,90.259249,-3.797782,80.163686
40332,NaN,0.353245,9.734425,-0.592768,-0.632121,-0.176881,-0.075971,-0.867570,0.889369,-0.263079,0.525466,0.552055,0.439237,0.475596,89.735265,-3.640836,80.672021
40333,NaN,0.265872,9.709316,-0.718621,-0.851423,-0.201695,-0.112604,-0.882506,0.860797,-0.349613,0.526835,0.546925,0.440404,0.478918,89.205854,-3.429704,81.162047
40334,NaN,0.280235,9.594018,-0.780216,-0.987290,-0.125596,-0.234525,-0.875627,0.804071,-0.432314,0.528490,0.541744,0.441643,0.481833,88.684133,-3.167391,81.616462
40335,NaN,0.194871,9.396097,-0.838686,-1.127523,-0.139310,-0.445907,-0.857304,0.736262,-0.513354,0.530417,0.536576,0.442952,0.484291,88.177741,-2.855593,82.028318
40336,NaN,0.304064,9.185620,-0.866026,-1.203290,0.039176,-0.660206,-0.838267,0.659608,-0.586578,0.532622,0.531461,0.444282,0.486289,87.686668,-2.499932,82.391785
40337,NaN,0.422188,9.041579,-0.865962,-1.247441,0.223535,-0.808715,-0.769711,0.582953,-0.652712,0.534955,0.526549,0.445737,0.487737,87.239448,-2.105352,82.706713
40338,NaN,0.486161,8.971069,-0.760531,-1.191003,0.341123,-0.881880,-0.710299,0.530640,-0.692534,0.537330,0.521818,0.447285,0.488793,86.829477,-1.687237,82.987410
40339,NaN,0.509371,8.878573,-0.728135,-1.205026,0.429242,-0.981959,-0.661471,0.481340,-0.703723,0.539697,0.517298,0.448837,0.489566,86.450513,-1.262412,83.236633
40340,NaN,0.561350,8.805357,-0.557397,-1.073784,0.527885,-1.053241,-0.591304,0.431500,-0.693867,0.541956,0.513098,0.450388,0.490066,86.114087,-0.843587,83.454989
40341,NaN,0.657678,8.794667,-0.385052,-0.933725,0.667998,-1.060062,-0.513091,0.389942,-0.662424,0.544018,0.509270,0.451927,0.490357,85.824380,-0.443160,83.648578
40342,NaN,0.742304,8.844788,-0.256722,-0.837312,0.798891,-1.008853,-0.437876,0.368416,-0.625130,0.545835,0.505774,0.453488,0.490515,85.579150,-0.064158,83.829570
40343,NaN,0.889147,8.848983,-0.150503,-0.748232,0.990427,-1.004928,-0.381158,0.358088,-0.571292,0.547391,0.502571,0.455017,0.490657,85.367548,0.284437,84.005602
40344,NaN,0.935312,8.802590,0.066910,-0.552315,1.064713,-1.041944,-0.336841,0.352875,-0.506093,0.548679,0.499645,0.456470,0.490857,85.182415,0.596014,84.180523
40345,NaN,1.091011,8.807234,0.167204,-0.463216,1.256230,-1.038137,-0.301481,0.384869,-0.457335,0.549681,0.496842,0.457970,0.491184,85.018637,0.882004,84.375163
40346,NaN,1.105065,8.708574,0.166193,-0.477799,1.310188,-1.144181,-0.254162,0.445325,-0.415366,0.550316,0.494113,0.459643,0.491663,84.883657,1.147366,84.605688
40347,NaN,1.111345,8.690832,0.220871,-0.442701,1.348890,-1.164057,-0.228106,0.500280,-0.367806,0.550639,0.491423,0.461410,0.492343,84.765248,1.389168,84.869480
40348,NaN,1.332310,8.488311,0.209904,-0.437564,1.595916,-1.378708,-0.228474,0.544954,-0.298352,0.550681,0.488778,0.463122,0.493320,84.648556,1.593927,85.161956
40349,NaN,1.295661,8.370629,0.184359,-0.476585,1.583307,-1.503290,-0.181846,0.592467,-0.228437,0.550322,0.486300,0.464904,0.494492,84.560274,1.762208,85.484985
40350,NaN,1.025229,8.491038,0.255733,-0.454397,1.334189,-1.373041,-0.108305,0.621677,-0.192942,0.549621,0.484031,0.466856,0.495657,84.515805,1.911778,85.826432
40351,NaN,0.855053,8.813492,0.328448,-0.434134,1.191625,-1.042958,-0.038976,0.628075,-0.172173,0.548681,0.481978,0.468944,0.496727,84.511890,2.050431,86.172654
40352,NaN,0.753414,9.063115,0.411131,-0.387699,1.113428,-0.785692,-0.031211,0.606446,-0.150554,0.547712,0.480049,0.470933,0.497782,84.513033,2.175054,86.507719
40353,NaN,0.707862,9.210705,0.462829,-0.357046,1.088445,-0.634445,-0.013902,0.585634,-0.138028,0.546717,0.478240,0.472876,0.498774,84.524139,2.291881,86.831654
40354,NaN,0.793490,9.242543,0.514441,-0.307638,1.188343,-0.603342,-0.018752,0.548218,-0.119166,0.545767,0.476556,0.474653,0.499738,84.532509,2.395248,87.135283
40355,NaN,0.878317,9.111380,0.473362,-0.335029,1.283235,-0.743299,0.011168,0.538886,-0.113226,0.544752,0.474984,0.476463,0.500619,84.558100,2.495232,87.433986
40356,NaN,0.897315,9.047628,0.388011,-0.411814,1.315183,-0.817356,0.084572,0.537052,-0.095602,0.543515,0.473659,0.478405,0.501366,84.626510,2.584127,87.732666
40357,NaN,0.879222,9.172981,0.380262,-0.422476,1.313021,-0.693549,0.191165,0.555848,-0.055022,0.541878,0.472665,0.480566,0.502008,84.756727,2.651043,88.044439
40358,NaN,0.750205,9.497074,0.567189,-0.251220,1.200782,-0.348339,0.275327,0.567535,-0.016354,0.539908,0.471964,0.482873,0.502577,84.936173,2.694864,88.365038
40359,NaN,0.616180,9.682676,0.775363,-0.040087,1.075887,-0.139224,0.272402,0.548590,0.000559,0.537946,0.471333,0.485079,0.503147,85.113399,2.727881,88.675836
40360,NaN,0.500145,9.556418,0.771766,-0.010752,0.956438,-0.259890,0.279550,0.483073,0.035020,0.536032,0.470972,0.487038,0.503637,85.293429,2.736244,88.950897
40361,NaN,0.412437,9.480650,0.805133,0.055626,0.862797,-0.328307,0.339888,0.410429,0.088460,0.534017,0.471076,0.488828,0.503945,85.505835,2.710678,89.186958
40362,NaN,0.303249,9.524852,0.906049,0.185138,0.746960,-0.271023,0.377845,0.337400,0.151555,0.531925,0.471622,0.490363,0.504156,85.738262,2.644020,89.383844
40363,NaN,0.080665,9.556491,0.972242,0.284306,0.511005,-0.224352,0.406446,0.262590,0.225804,0.529762,0.472606,0.491596,0.504311,85.984673,2.531954,89.540779
40364,NaN,-0.130729,9.567632,1.090389,0.440278,0.277092,-0.196306,0.418022,0.174047,0.304123,0.527583,0.474038,0.492431,0.504436,86.235551,2.370014,89.649518
40365,NaN,-0.239734,9.560801,1.118064,0.509208,0.137267,-0.198215,0.421855,0.089796,0.378703,0.525415,0.475867,0.492877,0.504541,86.486180,2.162874,89.712115
40366,NaN,-0.368695,9.515706,1.152898,0.587684,-0.031507,-0.238393,0.421927,0.021740,0.444296,0.523240,0.478032,0.492980,0.504655,86.735493,1.914646,89.736977
40367,NaN,-0.496430,9.591284,1.159077,0.631126,-0.201549,-0.161608,0.437005,-0.041979,0.507084,0.521026,0.480540,0.492802,0.504736,86.991998,1.629387,89.726335
40368,NaN,-0.466939,9.689101,1.345566,0.855654,-0.221396,-0.059447,0.442853,-0.102425,0.552152,0.518824,0.483327,0.492364,0.504772,87.251204,1.315665,89.680996
40369,NaN,-0.421244,9.641090,1.443262,0.998370,-0.231965,-0.109073,0.425875,-0.138456,0.558031,0.516733,0.486164,0.491773,0.504768,87.500307,0.998822,89.613915
40370,NaN,-0.244573,9.553927,1.510524,1.111446,-0.112557,-0.201722,0.414581,-0.145938,0.559849,0.514674,0.488994,0.491120,0.504775,87.743345,0.680085,89.541104
40371,NaN,-0.294888,9.561639,1.540638,1.180892,-0.218365,-0.197966,0.412166,-0.120004,0.568838,0.512531,0.491763,0.490503,0.504864,87.985414,0.358032,89.482129
40372,NaN,-0.317030,9.600880,1.666753,1.344311,-0.296458,-0.160742,0.390507,-0.095225,0.554464,0.510408,0.494377,0.489919,0.505029,88.215477,0.043972,89.435583
40373,NaN,-0.312811,9.582173,1.762096,1.476386,-0.346402,-0.183522,0.352365,-0.068689,0.538889,0.508351,0.496779,0.489345,0.505303,88.423877,-0.259588,89.402940
40374,NaN,-0.401175,9.586775,1.800423,1.545237,-0.486443,-0.185432,0.295720,-0.043237,0.520951,0.506410,0.498928,0.488726,0.505733,88.599827,-0.553312,89.383394
40375,NaN,-0.452981,9.564083,1.853882,1.624709,-0.587028,-0.214290,0.235897,-0.022378,0.493679,0.504635,0.500798,0.488079,0.506284,88.741539,-0.830155,89.374817
40376,NaN,-0.523171,9.412467,1.717707,1.513441,-0.697460,-0.376501,0.221624,-0.025856,0.437208,0.503042,0.502503,0.487519,0.506719,88.874977,-1.075557,89.362684
40377,NaN,-0.687752,9.382500,1.670121,1.487686,-0.899303,-0.417396,0.257444,-0.036101,0.386605,0.501511,0.504194,0.487155,0.506907,89.029322,-1.291159,89.343761
40378,NaN,-0.634449,9.630298,1.781828,1.621212,-0.888532,-0.174114,0.268375,-0.021423,0.367904,0.499960,0.505831,0.486893,0.507060,89.189510,-1.496692,89.332241
40379,NaN,-0.545636,9.875858,1.742362,1.605255,-0.839475,0.065794,0.250595,0.008734,0.341356,0.498447,0.507276,0.486733,0.507260,89.339393,-1.685934,89.337503
40380,NaN,-0.535441,9.915270,1.657295,1.544234,-0.860382,0.097956,0.224042,0.056305,0.310940,0.496961,0.508461,0.486692,0.507571,89.472800,-1.858244,89.369114
40381,NaN,-0.550285,9.720118,1.588944,1.500854,-0.895204,-0.104227,0.222957,0.115801,0.287835,0.495389,0.509432,0.486860,0.507973,89.604780,-2.016351,89.434600
40382,NaN,-0.534754,9.547458,1.335091,1.274358,-0.895742,-0.283998,0.286127,0.129936,0.278838,0.493644,0.510501,0.487238,0.508237,89.771955,-2.170126,89.507467
40383,NaN,-0.425909,9.585608,1.194636,1.168423,-0.811238,-0.248747,0.387696,0.133106,0.278133,0.491630,0.511806,0.487887,0.508253,89.997619,-2.323047,89.581921
40384,NaN,-0.487800,9.882980,1.010634,1.026655,-0.907837,0.038921,0.461417,0.139346,0.264353,0.489445,0.513241,0.488764,0.508072,90.264572,-2.469029,89.659021
40385,NaN,-0.534443,10.055482,0.886714,0.948457,-0.984974,0.203034,0.416393,0.090439,0.256535,0.487511,0.514666,0.489431,0.507848,90.507437,-2.610056,89.707763
40386,NaN,-0.666503,9.931407,0.724874,0.826319,-1.134645,0.068209,0.391318,0.004377,0.255702,0.485853,0.516244,0.489817,0.507464,90.737442,-2.750826,89.706268
40387,NaN,-0.458520,9.846652,0.799153,0.940487,-0.947119,-0.013518,0.397589,-0.012323,0.250729,0.484227,0.517863,0.490195,0.507002,90.972248,-2.888042,89.694970
40388,NaN,-0.386369,9.884742,0.906218,1.087522,-0.901742,0.020045,0.378741,-0.021692,0.259592,0.482651,0.519480,0.490469,0.506585,91.195820,-3.030664,89.677348
40389,NaN,-0.399324,9.776635,0.930550,1.146078,-0.935171,-0.095704,0.350540,-0.066674,0.286951,0.481184,0.521207,0.490498,0.506179,91.405501,-3.187829,89.633329
40390,NaN,-0.240957,9.702211,1.006336,1.254185,-0.801471,-0.169649,0.321611,-0.094135,0.297805,0.479833,0.522958,0.490349,0.505800,91.598812,-3.351052,89.572523
40391,NaN,-0.001662,9.684967,1.069853,1.348955,-0.590326,-0.180716,0.283351,-0.086119,0.291293,0.478573,0.524578,0.490144,0.505514,91.770979,-3.510079,89.516204
40392,NaN,-0.006623,9.666941,1.103078,1.406002,-0.621352,-0.205213,0.209071,-0.061646,0.270486,0.477503,0.525905,0.489856,0.505427,91.898907,-3.657847,89.473566
40393,NaN,0.011269,9.576315,1.195314,1.511833,-0.623893,-0.301654,0.115863,-0.059907,0.268533,0.476673,0.526999,0.489347,0.505563,91.974444,-3.804100,89.432012
40394,NaN,0.075647,9.539924,1.177405,1.499952,-0.582164,-0.335698,0.008663,-0.069036,0.260860,0.476172,0.527840,0.488557,0.505922,91.987952,-3.946057,89.384919
40395,NaN,0.149791,9.371682,1.214039,1.528151,-0.519712,-0.500364,-0.103432,-0.074795,0.225657,0.476064,0.528344,0.487570,0.506450,91.938585,-4.067446,89.335582
40396,NaN,0.214508,9.268877,1.133438,1.432729,-0.466659,-0.594649,-0.177192,-0.063011,0.197165,0.476199,0.528569,0.486491,0.507126,91.845340,-4.173075,89.293347
40397,NaN,0.224809,9.356469,1.095008,1.380509,-0.479621,-0.503702,-0.202983,-0.031422,0.182941,0.476355,0.528620,0.485466,0.507908,91.737205,-4.270926,89.270035
40398,NaN,0.177469,9.700260,1.075046,1.351201,-0.568953,-0.162157,-0.208148,0.005497,0.183679,0.476438,0.528562,0.484504,0.508806,91.623253,-4.370102,89.267740
40399,NaN,0.057487,10.086202,1.093876,1.357733,-0.734548,0.214688,-0.241379,0.042679,0.172425,0.476541,0.528306,0.483584,0.509851,91.489876,-4.463178,89.287556
40400,NaN,0.015251,10.364443,1.106238,1.348453,-0.813425,0.490981,-0.321685,0.070392,0.153548,0.476843,0.527737,0.482566,0.511121,91.307775,-4.545961,89.323448
40401,NaN,-0.315894,10.543579,1.176308,1.382498,-1.170489,0.645278,-0.391204,0.098796,0.118489,0.477341,0.526846,0.481536,0.512544,91.085827,-4.608686,89.376750
40402,NaN,-0.711710,10.625137,1.076305,1.237999,-1.578190,0.700876,-0.425070,0.129771,0.070696,0.477981,0.525674,0.480609,0.514019,90.841441,-4.644222,89.448198
40403,NaN,-1.145812,10.486808,0.915851,1.030693,-2.000969,0.534219,-0.390234,0.104428,0.024824,0.478699,0.524542,0.479838,0.515226,90.619623,-4.652892,89.505940
40404,NaN,-1.135341,10.220884,0.390508,0.471726,-1.965430,0.278025,-0.233761,-0.021749,0.017555,0.479336,0.524086,0.479178,0.515713,90.491750,-4.656489,89.490848
40405,NaN,-1.041746,10.639870,-0.079937,-0.006354,-1.902949,0.707636,-0.003010,-0.127878,0.016877,0.479614,0.524459,0.478868,0.515362,90.502623,-4.659216,89.415127
40406,NaN,-1.071285,11.227972,-0.343238,-0.259212,-1.974908,1.294308,0.122700,-0.163876,-0.040344,0.479806,0.525083,0.478937,0.514483,90.585557,-4.628724,89.318680
40407,NaN,-1.212021,11.542823,-0.354033,-0.255782,-2.128191,1.599431,0.115925,-0.183876,-0.147434,0.480329,0.525491,0.479230,0.513305,90.666965,-4.536793,89.211808
40408,NaN,-1.294370,11.443330,-0.306812,-0.202916,-2.181215,1.497503,0.039933,-0.199046,-0.203900,0.481241,0.525613,0.479431,0.512137,90.703696,-4.411966,89.096402
40409,NaN,-1.273770,11.311965,-0.267262,-0.161304,-2.125453,1.372608,0.036869,-0.245636,-0.220429,0.482305,0.525812,0.479561,0.510809,90.741999,-4.277589,88.954765
40410,NaN,-1.486130,11.428312,-0.180606,-0.076424,-2.317573,1.477594,0.011934,-0.260990,-0.276453,0.483622,0.525846,0.479731,0.509366,90.764688,-4.110432,88.804543
40411,NaN,-1.618014,11.130286,-0.212006,-0.119851,-2.389604,1.179194,-0.069954,-0.333093,-0.361277,0.485531,0.525668,0.479744,0.507719,90.744365,-3.894624,88.613880
40412,NaN,-1.514290,10.663855,-0.206256,-0.128335,-2.210461,0.730112,-0.072658,-0.398788,-0.412930,0.487744,0.525513,0.479718,0.505780,90.722623,-3.648145,88.385589
40413,NaN,-1.274768,10.400893,-0.238487,-0.164903,-1.907782,0.492334,-0.020037,-0.442553,-0.425602,0.489939,0.525571,0.479752,0.503561,90.733132,-3.394776,88.132569
40414,NaN,-0.973800,10.248636,-0.183654,-0.103429,-1.554759,0.365153,0.040019,-0.416220,-0.417269,0.491900,0.525715,0.479971,0.501285,90.774520,-3.145451,87.894538
40415,NaN,-0.807412,9.927833,-0.109532,-0.023340,-1.330839,0.059190,0.048283,-0.384763,-0.404623,0.493715,0.525836,0.480255,0.499096,90.820221,-2.904256,87.674939
40416,NaN,-0.642341,9.510565,-0.057716,0.034118,-1.108068,-0.344968,0.042279,-0.366507,-0.366613,0.495416,0.525974,0.480462,0.497062,90.859536,-2.683912,87.465485
40417,NaN,-0.634169,9.151915,-0.052109,0.040722,-1.050079,-0.699069,0.066448,-0.360047,-0.321878,0.496912,0.526270,0.480627,0.495092,90.913341,-2.490000,87.259783
40418,NaN,-0.730761,9.035898,0.130311,0.224777,-1.120585,-0.818681,0.117614,-0.364569,-0.311677,0.498268,0.526715,0.480875,0.493011,90.994309,-2.300659,87.051426
40419,NaN,-0.931150,9.049216,0.244973,0.339502,-1.297788,-0.811811,0.127077,-0.419457,-0.340739,0.499786,0.527255,0.481086,0.490686,91.082732,-2.094780,86.812435
40420,NaN,-0.951850,9.184832,0.501302,0.606397,-1.305786,-0.677833,0.128209,-0.501352,-0.384252,0.501613,0.527879,0.481202,0.488029,91.170881,-1.861618,86.527123
40421,NaN,-0.807567,9.404299,0.837194,0.960480,-1.154789,-0.456527,0.036380,-0.568599,-0.424827,0.503925,0.528343,0.481030,0.485307,91.207940,-1.605168,86.204270
40422,NaN,-0.691061,9.477325,0.662165,0.794580,-0.989146,-0.372042,-0.024305,-0.619678,-0.492928,0.506691,0.528596,0.480752,0.482419,91.207712,-1.307848,85.852861
40423,NaN,-0.925483,9.510821,0.531454,0.645823,-1.166070,-0.335470,-0.007717,-0.666017,-0.578903,0.509710,0.528797,0.480617,0.479141,91.217198,-0.961827,85.476250
40424,NaN,-0.777549,9.643935,0.463773,0.592945,-0.959496,-0.192259,0.025021,-0.716088,-0.640421,0.512913,0.529031,0.480583,0.475486,91.241668,-0.578645,85.071598
40425,NaN,-0.300352,9.979776,0.138148,0.324644,-0.397646,0.159341,0.085947,-0.770990,-0.668010,0.516125,0.529484,0.480617,0.471455,91.300241,-0.179863,84.636407
40426,NaN,-0.092404,10.603671,-0.204479,0.033500,-0.090018,0.792898,0.116152,-0.756755,-0.720857,0.519347,0.529827,0.480882,0.467241,91.371171,0.250708,84.210256
40427,NaN,0.073966,11.021765,-0.378646,-0.095829,0.178435,1.213936,0.019929,-0.702915,-0.804122,0.522861,0.529592,0.481272,0.463170,91.385678,0.727331,83.816678
40428,NaN,0.136002,11.208020,-0.411795,-0.112154,0.343060,1.397873,-0.141817,-0.600291,-0.877352,0.526724,0.528492,0.481732,0.459556,91.303303,1.245472,83.482243
40429,NaN,0.094861,11.276806,-0.513836,-0.227322,0.422980,1.465953,-0.300633,-0.493380,-0.940806,0.530865,0.526572,0.482265,0.456426,91.130244,1.796729,83.208930
40430,NaN,-0.018263,11.385863,-0.605747,-0.358584,0.444508,1.574916,-0.478706,-0.383329,-1.029185,0.535408,0.523685,0.482897,0.453765,90.852863,2.397581,82.996989
40431,NaN,-0.011815,11.169307,-0.761964,-0.563182,0.590022,1.352758,-0.632106,-0.289783,-1.076174,0.540198,0.520053,0.483539,0.451576,90.489521,3.022398,82.835908
40432,NaN,-0.081874,10.757413,-1.021779,-0.894477,0.664399,0.935771,-0.745995,-0.212816,-1.129136,0.545207,0.515778,0.484245,0.449699,90.059693,3.677306,82.714353
40433,NaN,-0.065102,10.549946,-1.239908,-1.173954,0.829015,0.712316,-0.771241,-0.136776,-1.161509,0.550130,0.511171,0.485164,0.447970,89.618464,4.348858,82.631722
40434,NaN,-0.154695,10.513088,-1.425001,-1.434155,0.895953,0.661956,-0.797897,-0.076167,-1.184820,0.555012,0.506261,0.486223,0.446373,89.161711,5.034499,82.578050
40435,NaN,-0.362149,10.700637,-1.485716,-1.590746,0.853599,0.844747,-0.852270,-0.034473,-1.217606,0.559960,0.501012,0.487336,0.444899,88.676518,5.737882,82.542691
40436,NaN,-0.597549,10.615946,-1.410645,-1.624077,0.746188,0.763158,-0.968759,-0.044844,-1.246072,0.565268,0.495351,0.488200,0.443577,88.121230,6.458024,82.494049
40437,NaN,-0.778998,10.281168,-1.491206,-1.808731,0.682492,0.424168,-1.066580,-0.066241,-1.258416,0.570849,0.489408,0.488789,0.442377,87.508451,7.183268,82.425734
40438,NaN,-0.623707,9.793523,-1.495128,-1.867991,0.909023,-0.106004,-1.058279,-0.090018,-1.201579,0.576314,0.483638,0.489154,0.441231,86.895563,7.875481,82.337000
40439,NaN,-0.655214,9.351843,-1.441888,-1.885307,0.930611,-0.563728,-0.988474,-0.129350,-1.102471,0.581444,0.478380,0.489293,0.440078,86.319253,8.507802,82.221919
40440,NaN,-0.775101,8.984143,-1.321749,-1.835603,0.848365,-0.926052,-0.825773,-0.180582,-0.993743,0.586051,0.473940,0.489355,0.438699,85.828928,9.075742,82.075048
40441,NaN,-0.892114,8.761283,-1.204525,-1.777633,0.776923,-1.138452,-0.641162,-0.273016,-0.913439,0.590239,0.470432,0.489345,0.436868,85.435391,9.591774,81.873906
40442,NaN,-0.934468,8.620884,-1.075150,-1.686054,0.780237,-1.274735,-0.454911,-0.393486,-0.838561,0.594110,0.467898,0.489193,0.434505,85.133886,10.058972,81.602760
40443,NaN,-0.775126,8.679938,-0.885666,-1.501923,0.999327,-1.241127,-0.255594,-0.476487,-0.767816,0.597542,0.466305,0.489052,0.431661,84.937221,10.479699,81.284903
40444,NaN,-0.698301,8.968229,-0.231438,-0.871670,1.112355,-0.926024,-0.140425,-0.468059,-0.725864,0.600589,0.465124,0.489075,0.428670,84.804367,10.876760,80.972210
40445,NaN,-0.548539,8.802330,-0.520255,-1.122195,1.328760,-1.150854,0.001779,-0.566206,-0.645220,0.603353,0.464776,0.488913,0.425338,84.741637,11.221416,80.605939
40446,NaN,-0.455573,8.623306,-0.771852,-1.327458,1.473964,-1.372917,0.240541,-0.617958,-0.570015,0.605524,0.465426,0.488917,0.421520,84.807599,11.521117,80.212900
40447,NaN,-0.343962,8.937502,-0.875004,-1.389318,1.712834,-1.100713,0.477562,-0.609344,-0.532256,0.607024,0.466865,0.489349,0.417249,85.009757,11.799962,79.827405
40448,NaN,-0.408589,9.085575,-0.976436,-1.454711,1.744179,-0.952140,0.551308,-0.702399,-0.487973,0.608477,0.468814,0.489537,0.412703,85.241074,12.050944,79.390304
40449,NaN,-0.332894,8.841095,-1.335176,-1.720983,1.864807,-1.232554,0.700146,-0.799379,-0.427760,0.609670,0.471554,0.489581,0.407737,85.545508,12.264549,78.900428
40450,NaN,0.007545,8.952384,-1.153848,-1.406991,2.217419,-1.176751,0.862265,-0.737062,-0.342359,0.610138,0.474849,0.489927,0.402768,85.949451,12.435350,78.451541
40451,NaN,0.180848,9.133190,-1.217965,-1.354649,2.456936,-1.034359,0.893408,-0.644014,-0.238628,0.610069,0.478295,0.490357,0.398245,86.383603,12.553226,78.062426
40452,NaN,0.085250,9.349399,-1.174943,-1.248368,2.417211,-0.790655,0.880538,-0.542776,-0.150612,0.609593,0.481698,0.490844,0.394253,86.823092,12.627306,77.736344
40453,NaN,-0.084934,9.562814,-1.071564,-1.101878,2.286614,-0.530466,0.792690,-0.446752,-0.113445,0.609001,0.484726,0.491350,0.390812,87.224996,12.685094,77.468333
40454,NaN,-0.010785,9.656327,-0.870322,-0.818280,2.336903,-0.438724,0.645742,-0.352184,-0.065450,0.608430,0.487230,0.491730,0.388100,87.554769,12.719589,77.257306
40455,NaN,-0.151233,9.520625,-0.725225,-0.651609,2.138542,-0.528670,0.499968,-0.285687,-0.011541,0.607938,0.489289,0.491894,0.386067,87.810142,12.725772,77.086872
40456,NaN,-0.258595,9.586142,-0.598644,-0.508262,2.016212,-0.432079,0.395615,-0.275619,0.051035,0.607551,0.491162,0.491729,0.384505,88.007184,12.696863,76.923614
40457,NaN,-0.394069,9.823555,-0.659035,-0.562480,1.941936,-0.168814,0.276106,-0.274431,0.107935,0.607342,0.492808,0.491197,0.383408,88.136442,12.635976,76.762232
40458,NaN,-0.304755,10.149352,-0.678899,-0.536712,2.087081,0.133121,0.170839,-0.276299,0.184088,0.607248,0.494323,0.490266,0.382797,88.205582,12.531438,76.601021
40459,NaN,-0.287440,10.203204,-0.780732,-0.624368,2.116905,0.183630,0.045347,-0.268801,0.266100,0.607287,0.495641,0.488916,0.382759,88.204539,12.380441,76.445836
40460,NaN,-0.410319,10.023309,-0.761747,-0.645053,1.930972,0.039749,-0.074489,-0.248920,0.340472,0.607428,0.496739,0.487207,0.383289,88.138110,12.186689,76.303790
40461,NaN,-0.566355,9.814712,-0.540763,-0.489136,1.656198,-0.119425,-0.145355,-0.322799,0.430304,0.607751,0.497978,0.484915,0.384076,88.023025,11.940298,76.120773
40462,NaN,-0.636178,9.603308,-0.397439,-0.396773,1.473712,-0.301815,-0.187037,-0.403578,0.534429,0.608166,0.499495,0.482031,0.385078,87.875967,11.631648,75.893362
40463,NaN,-0.574468,9.500575,-0.270926,-0.292265,1.435804,-0.404336,-0.195625,-0.448693,0.608859,0.608561,0.501243,0.478803,0.386208,87.720497,11.279377,75.642457
40464,NaN,-0.328207,9.443243,-0.027768,-0.029249,1.549123,-0.491617,-0.178722,-0.444125,0.640827,0.608829,0.503107,0.475531,0.387402,87.577324,10.907592,75.396147
40465,NaN,-0.307322,9.348583,0.148387,0.116035,1.454376,-0.572370,-0.147351,-0.397520,0.646289,0.608891,0.504977,0.472444,0.388647,87.458836,10.533967,75.178386
40466,NaN,-0.222271,9.510097,0.675794,0.621961,1.381261,-0.397114,-0.111306,-0.261692,0.606428,0.608607,0.506597,0.469932,0.390027,87.376729,10.185488,75.039426
40467,NaN,-0.353126,9.446220,0.831617,0.716780,1.156410,-0.421411,-0.089640,-0.136311,0.535490,0.608110,0.507862,0.468022,0.391451,87.320088,9.881571,74.972109
40468,NaN,-0.282727,8.972582,0.525057,0.425411,1.169401,-0.906837,0.063262,-0.146439,0.530006,0.607251,0.509601,0.466387,0.392475,87.350573,9.579590,74.898750
40469,NaN,-0.629254,9.144964,-0.099734,-0.256018,0.978771,-0.701570,0.447924,-0.105083,0.459663,0.605451,0.512252,0.465812,0.392487,87.605171,9.320014,74.847036
40470,NaN,-0.767496,10.114231,-0.266888,-0.406021,1.005093,0.276040,0.693217,-0.107854,0.271034,0.603389,0.515212,0.466182,0.391348,87.999513,9.167663,74.787901
40471,NaN,-0.989791,10.691368,-0.130297,-0.262490,0.819466,0.890638,0.665771,-0.090484,0.054207,0.601776,0.517536,0.467109,0.389655,88.378844,9.141198,74.734003
40472,NaN,-0.660795,10.994626,-0.100309,-0.080509,1.161499,1.140516,0.507822,-0.034963,-0.113241,0.600759,0.518888,0.468318,0.387971,88.672603,9.210705,74.709505
40473,NaN,-0.512711,11.112547,-0.075281,0.032309,1.320086,1.233283,0.281095,0.050254,-0.179902,0.600261,0.519228,0.469519,0.386833,88.844061,9.320620,74.734066
40474,NaN,-0.887332,10.985370,0.045333,0.076435,0.927748,1.169168,0.090051,0.175680,-0.217666,0.600032,0.518669,0.470819,0.386359,88.918220,9.452353,74.831108
40475,NaN,-1.628913,10.886517,0.277572,0.120623,0.171888,1.196512,-0.048998,0.267437,-0.281261,0.600072,0.517358,0.472294,0.386254,88.921438,9.622609,74.981050
40476,NaN,-1.814328,10.713837,0.638037,0.421846,-0.093458,1.063820,-0.126589,0.242446,-0.270188,0.600345,0.515893,0.473508,0.386304,88.878465,9.785088,75.116435
40477,NaN,-1.984440,10.925010,0.830564,0.573510,-0.238451,1.304770,-0.058084,0.219594,-0.222419,0.600405,0.514783,0.474667,0.386270,88.872648,9.921213,75.239240
40478,NaN,-1.391401,11.923439,0.859001,0.781153,0.511616,2.186076,-0.011331,0.205447,-0.114725,0.600164,0.514101,0.475590,0.386416,88.892846,9.994267,75.354908
40479,NaN,-0.347130,13.238170,0.663956,0.883261,1.788234,3.295803,-0.093447,0.337521,0.077816,0.599452,0.513368,0.476260,0.387669,88.879513,9.959694,75.549771
40480,NaN,0.355306,13.900108,0.408703,0.789762,2.617431,3.826639,-0.347656,0.617075,0.354698,0.598180,0.511993,0.476553,0.391077,88.748717,9.768752,75.910256
40481,NaN,0.161753,13.502248,0.216474,0.467605,2.366097,3.475104,-0.643281,0.892480,0.641803,0.596435,0.509858,0.476351,0.396737,88.474113,9.419757,76.435385
40482,NaN,-0.295799,12.575493,-0.203570,-0.170422,1.795343,2.637923,-0.800814,1.097056,0.922839,0.594011,0.507498,0.475697,0.404116,88.125391,8.914573,77.085015
40483,NaN,-1.206286,11.521709,-0.499221,-0.774043,0.710062,1.734981,-0.783759,1.195613,1.167112,0.590775,0.505524,0.474722,0.412395,87.789494,8.276906,77.799065
40484,NaN,-2.024069,10.653597,-0.283451,-0.814917,-0.379742,0.997779,-0.658632,1.194581,1.274409,0.586949,0.504142,0.473682,0.420661,87.517783,7.579913,78.516970
40485,NaN,-2.791342,10.216761,-0.049794,-0.784598,-1.358396,0.661754,-0.438394,1.082589,1.262940,0.582816,0.503567,0.472777,0.428051,87.355513,6.890944,79.171744
40486,NaN,-3.002420,10.165388,0.308694,-0.497174,-1.761905,0.632028,-0.208942,0.858849,1.232255,0.578657,0.504042,0.471749,0.434223,87.302366,6.213247,79.696900
40487,NaN,-2.869248,9.952608,0.661163,-0.130344,-1.838921,0.401237,-0.028700,0.636938,1.209849,0.574592,0.505433,0.470511,0.439319,87.332991,5.544068,80.093494
40488,NaN,-2.599129,9.566282,1.106595,0.371505,-1.804327,-0.009675,0.178373,0.518399,1.174403,0.570330,0.507581,0.469449,0.443512,87.471438,4.890140,80.419367
40489,NaN,-2.182894,8.954469,1.404687,0.774864,-1.607606,-0.662012,0.403619,0.418612,1.141521,0.565785,0.510488,0.468674,0.446805,87.730301,4.252900,80.684787
40490,NaN,-1.584444,8.536000,0.971556,0.494679,-1.086623,-1.158721,0.663126,0.316337,1.130366,0.560813,0.514316,0.468190,0.449184,88.130657,3.617183,80.887152
40491,NaN,-1.324924,8.431106,0.337887,-0.028659,-0.839565,-1.312910,0.962472,0.174665,1.032411,0.555601,0.519040,0.468217,0.450197,88.695195,3.034880,81.001414
40492,NaN,-1.609068,8.760324,0.312311,-0.018781,-1.187590,-0.979917,1.200942,0.209897,0.754391,0.550281,0.523677,0.469571,0.449952,89.395924,2.609808,81.126508
40493,NaN,-2.146042,9.427446,0.570388,0.256238,-1.788004,-0.297238,1.187580,0.185106,0.277720,0.546106,0.527183,0.472059,0.448337,90.087433,2.457444,81.231178
40494,NaN,-2.100892,9.503268,0.754611,0.543816,-1.787074,-0.231177,0.845309,0.060342,-0.173955,0.544121,0.528959,0.474611,0.445959,90.579638,2.562186,81.264019
40495,NaN,-1.560378,9.042525,0.992923,0.921074,-1.283538,-0.719189,0.450750,0.075326,-0.571896,0.544025,0.528669,0.477374,0.443463,90.846499,2.895609,81.309205
40496,NaN,-1.323520,8.581531,0.928728,0.921268,-1.001211,-1.186840,0.129457,0.147100,-0.880636,0.545280,0.526605,0.480422,0.441080,90.931973,3.404230,81.399161
40497,NaN,-0.791065,8.581959,1.061742,1.148892,-0.407680,-1.215240,-0.125011,0.273350,-1.123537,0.547425,0.522966,0.483885,0.438962,90.877525,4.051737,81.564195
40498,NaN,-0.737643,8.654282,1.096603,1.191417,-0.244494,-1.143040,-0.375212,0.444113,-1.290957,0.550153,0.517844,0.487678,0.437423,90.689082,4.793324,81.827207
40499,NaN,-0.738752,8.574515,1.251069,1.322015,-0.148061,-1.218382,-0.619150,0.571699,-1.358958,0.553321,0.511573,0.491442,0.436594,90.370957,5.575195,82.161200
40500,NaN,-0.881074,8.650987,1.199842,1.219476,-0.142362,-1.120938,-0.720738,0.679922,-1.338445,0.556400,0.504803,0.495192,0.436322,90.004830,6.346242,82.552971
40501,NaN,-1.027035,9.399394,1.169326,1.135990,-0.065082,-0.353606,-0.821936,0.687167,-1.269726,0.559529,0.497869,0.498540,0.436476,89.586119,7.081422,82.944572
40502,NaN,-0.755038,10.231747,0.985641,0.923098,0.465373,0.442034,-1.075348,0.680345,-1.144840,0.562993,0.490519,0.500963,0.437568,89.025383,7.747467,83.327034
40503,NaN,-0.777456,10.561852,0.687556,0.514814,0.653896,0.767225,-1.417165,0.686270,-0.980919,0.566878,0.482563,0.502219,0.439952,88.273146,8.324836,83.708295
40504,NaN,-0.698500,10.393734,0.383746,0.074960,0.852380,0.576224,-1.756289,0.670516,-0.766720,0.571096,0.474176,0.502114,0.443721,87.327641,8.783868,84.076652
40505,NaN,-0.209986,9.712981,-0.149406,-0.557876,1.356373,-0.207770,-1.927331,0.659185,-0.419079,0.574917,0.466146,0.500727,0.448833,86.286478,9.050799,84.442267
40506,NaN,-0.290239,8.612350,-0.341180,-0.870232,1.149513,-1.310193,-1.871472,0.705826,-0.020303,0.577537,0.459125,0.498611,0.455019,85.284012,9.097265,84.846791
40507,NaN,-0.357513,7.958405,-0.399764,-1.027661,0.974759,-1.963079,-1.511834,0.692769,0.367285,0.578433,0.454096,0.496351,0.461354,84.489491,8.929108,85.263305
40508,NaN,-0.456294,7.673727,-0.328053,-1.040543,0.789519,-2.230138,-1.062665,0.646130,0.702103,0.577616,0.451282,0.494194,0.467414,83.949159,8.571159,85.673784
40509,NaN,-0.847461,7.581956,-0.120574,-0.915601,0.317645,-2.244397,-0.552686,0.584430,0.929024,0.575247,0.450622,0.492525,0.472705,83.695637,8.084007,86.065259
40510,NaN,-1.145224,8.063989,0.425488,-0.463539,-0.008128,-1.669897,-0.068699,0.493819,0.999410,0.571824,0.451730,0.491557,0.476791,83.709235,7.550811,86.409340
40511,NaN,-0.990968,8.634519,1.292109,0.357149,0.101538,-1.033847,0.207684,0.448882,0.994211,0.567883,0.453705,0.491123,0.480062,83.874873,7.018336,86.726335
40512,NaN,-0.810935,8.301438,0.804060,-0.057837,0.174197,-1.435124,0.413702,0.222828,1.063379,0.563844,0.456967,0.490362,0.482501,84.140161,6.430675,86.915095
40513,NaN,-0.455700,7.846390,0.000026,-0.745450,0.418755,-1.999787,0.862253,0.090940,1.114423,0.558958,0.461914,0.490181,0.483657,84.652593,5.806343,87.027156
40514,NaN,-0.434309,8.106135,-0.360613,-1.041696,0.391245,-1.763573,1.338501,-0.045299,1.109093,0.553283,0.468483,0.490746,0.483291,85.428189,5.176003,87.053364
40515,NaN,-0.377121,8.746161,-0.413321,-1.017262,0.415546,-1.117951,1.655799,-0.120402,1.058096,0.547125,0.475941,0.491954,0.481783,86.380950,4.572502,87.025130
40516,NaN,-0.321732,9.142167,-0.122175,-0.603649,0.393193,-0.692596,1.666268,-0.162371,0.985057,0.541167,0.483309,0.493192,0.479908,87.337065,4.008903,86.960215
40517,NaN,-0.722336,9.269690,-0.190086,-0.554318,-0.085980,-0.530010,1.557546,-0.168664,0.900311,0.535645,0.490141,0.494321,0.478009,88.230745,3.495915,86.881009
40518,NaN,-1.528605,9.963081,0.123669,-0.162918,-0.943346,0.222070,1.485030,-0.184647,0.642200,0.530915,0.496148,0.495822,0.475528,89.082150,3.130694,86.781151
40519,NaN,-1.509752,10.969593,0.666106,0.495364,-0.955174,1.227967,1.095189,-0.292275,0.303862,0.528198,0.500506,0.496932,0.472820,89.707164,2.961099,86.613058
40520,NaN,-1.231126,10.784291,0.744873,0.672135,-0.718171,1.022612,0.480562,-0.363319,0.061710,0.527754,0.502802,0.496989,0.470816,89.977974,2.930412,86.402298
40521,NaN,-1.358376,9.904178,0.936365,0.880131,-0.904477,0.148336,0.101795,-0.360539,-0.090294,0.528613,0.503705,0.496548,0.469351,90.031955,2.988452,86.193273
40522,NaN,-1.112251,9.743499,1.214514,1.174037,-0.675740,-0.024280,-0.041633,-0.283322,-0.170970,0.529826,0.503850,0.496169,0.468226,90.005587,3.091783,86.028339
40523,NaN,-1.185768,10.450721,1.255951,1.202745,-0.696072,0.688259,-0.146677,-0.209679,-0.200881,0.531192,0.503465,0.495819,0.467462,89.921254,3.213088,85.905762
40524,NaN,-0.921997,11.017695,1.207486,1.146657,-0.375999,1.243592,-0.381832,-0.143809,-0.192836,0.532965,0.502323,0.495067,0.467471,89.703741,3.328673,85.820419
40525,NaN,-0.825464,11.031951,1.184585,1.076018,-0.252971,1.258280,-0.646586,-0.057358,-0.170272,0.535133,0.500321,0.493871,0.468405,89.337601,3.432221,85.784448
40526,NaN,-0.950571,10.940728,1.263628,1.064813,-0.362831,1.184293,-0.882309,-0.004173,-0.170672,0.537751,0.497559,0.492252,0.470050,88.837712,3.535320,85.777937
40527,NaN,-0.744439,10.753944,1.141537,0.855920,-0.135038,0.992523,-1.107883,0.023880,-0.120781,0.540731,0.494231,0.490049,0.472437,88.209987,3.611081,85.787513
40528,NaN,-0.345246,9.962101,0.981521,0.627047,0.239020,0.181032,-1.242743,0.058479,0.008919,0.543635,0.490761,0.487277,0.475580,87.505851,3.612558,85.818541
40529,NaN,-0.061143,8.813770,0.936555,0.534568,0.452035,-0.976829,-1.175008,0.150936,0.168809,0.545747,0.487624,0.484513,0.479197,86.844600,3.526389,85.907370
40530,NaN,-0.070113,7.914725,0.793446,0.349713,0.383567,-1.874963,-0.884802,0.239335,0.306719,0.546592,0.485389,0.482329,0.482694,86.352241,3.364346,86.052086
40531,NaN,-0.196598,7.711726,0.832982,0.341368,0.220982,-2.064287,-0.404224,0.313453,0.411470,0.545830,0.484531,0.481252,0.485485,86.138011,3.146988,86.244461
40532,NaN,-0.562810,8.220084,1.182622,0.618874,-0.165733,-1.513617,0.029537,0.310217,0.465816,0.543888,0.484994,0.481076,0.487374,86.170954,2.897821,86.437056
40533,NaN,-0.841698,8.867287,1.701555,1.091547,-0.473871,-0.822897,0.265725,0.294549,0.449025,0.541447,0.486090,0.481477,0.488602,86.338513,2.658253,86.619896
40534,NaN,-0.761684,8.766380,1.869567,1.299881,-0.446447,-0.922489,0.392418,0.161136,0.470962,0.538961,0.487906,0.481760,0.489261,86.573813,2.399884,86.725935
40535,NaN,-0.485168,8.232435,1.096911,0.620702,-0.197591,-1.518906,0.676106,-0.025635,0.574964,0.535970,0.491184,0.481982,0.489048,86.967696,2.076304,86.727301
40536,NaN,-0.347251,8.250625,0.198344,-0.197409,-0.064077,-1.555040,1.101206,-0.230120,0.648188,0.532233,0.496264,0.482491,0.487496,87.600476,1.704404,86.610323
40537,NaN,-0.517956,8.902490,-0.043146,-0.365428,-0.260620,-0.906438,1.514770,-0.364550,0.642286,0.527778,0.502728,0.483647,0.484563,88.469560,1.335667,86.411734
40538,NaN,-1.015048,9.913252,0.181630,-0.053639,-0.806668,0.121090,1.656147,-0.363151,0.487481,0.523300,0.509151,0.485493,0.480852,89.419892,1.057977,86.206190
40539,NaN,-1.110923,11.082553,0.317653,0.223197,-0.935772,1.288231,1.473934,-0.446109,0.216895,0.520100,0.514603,0.487348,0.476626,90.266357,0.939287,85.948698
40540,NaN,-0.914188,11.724487,0.508109,0.568712,-0.759572,1.920001,1.037816,-0.509077,-0.102532,0.518913,0.518269,0.488790,0.472452,90.861715,1.006436,85.655152
40541,NaN,-0.817072,11.401359,0.670326,0.821197,-0.663475,1.588760,0.518357,-0.535361,-0.340117,0.519683,0.520054,0.489548,0.468845,91.159247,1.213012,85.349774
40542,NaN,-1.054894,10.553313,0.863359,1.016465,-0.890582,0.742123,0.211646,-0.467387,-0.541210,0.521550,0.520383,0.490270,0.465642,91.279854,1.534345,85.086211
40543,NaN,-0.890191,9.977152,1.125608,1.294190,-0.705395,0.158780,0.064063,-0.361992,-0.671399,0.523835,0.519755,0.491263,0.462722,91.316940,1.929964,84.885449
40544,NaN,-0.383202,10.062366,1.216757,1.442570,-0.142525,0.226082,0.047811,-0.240401,-0.662947,0.525840,0.518816,0.492501,0.460180,91.345028,2.318578,84.754112
40545,NaN,-0.429580,10.458801,1.248877,1.487755,-0.114759,0.623015,-0.036305,-0.073749,-0.565700,0.527421,0.517506,0.493733,0.458522,91.329082,2.649934,84.717367
40546,NaN,-0.600646,10.583844,1.223518,1.443878,-0.220090,0.758124,-0.206376,0.129813,-0.474866,0.528730,0.515501,0.494865,0.458053,91.220074,2.925965,84.795453
40547,NaN,-0.562321,10.845500,1.223920,1.429829,-0.118245,1.021535,-0.382591,0.278940,-0.359942,0.529853,0.512969,0.495695,0.458698,91.015878,3.135367,84.957440
40548,NaN,-0.261903,11.070988,0.879527,1.066052,0.261776,1.241879,-0.670232,0.403709,-0.173607,0.530976,0.509844,0.495704,0.460871,90.649991,3.237134,85.188021
40549,NaN,-0.049992,10.384552,0.478165,0.587520,0.483413,0.555066,-0.986338,0.566910,0.126568,0.531791,0.506236,0.494649,0.465022,90.109338,3.168766,85.510716
