// General information: 
//  MT Manager version: 2019.0.1 
//  XDA version: 2019.0.1 build 2740 rev 84096 built on 2019-01-30
// Device information: 
//  DeviceId: 00B43876
//  ProductCode: MTW2-3A7G6
//  Firmware Version: 4.3.4
//  Hardware Version: 1.1.0
// Device settings: 
//  Filter Profile: human(46.1)
//  Option Flags: Orientation Smoother Disabled, AHS Disabled, ICC Disabled
// Coordinate system: ENU
PacketCounter,SampleTimeFine,Acc_X,Acc_Y,Acc_Z,FreeAcc_E,FreeAcc_N,FreeAcc_U,Gyr_X,Gyr_Y,Gyr_Z,Quat_q0,Quat_q1,Quat_q2,Quat_q3,Roll,Pitch,Yaw
39807,NaN,1.328048,9.595193,-1.882095,-0.036185,0.206032,0.052908,-0.003084,0.025421,0.010346,0.462440,0.615230,0.461974,0.440705,100.666014,-6.603600,79.283355
39808,NaN,1.180106,9.437945,-1.807759,-0.017746,0.070837,-0.131255,-0.009851,0.058918,0.007093,0.462315,0.615121,0.462052,0.440907,100.658996,-6.614948,79.312472
39809,NaN,1.068715,9.460939,-1.760519,0.011458,-0.050538,-0.130318,0.022786,0.048046,0.002926,0.462120,0.615103,0.462193,0.440989,100.671850,-6.622697,79.336089
39810,NaN,1.111274,9.668708,-1.702372,0.112162,-0.050092,0.066676,0.044172,0.028669,-0.002384,0.461917,0.615163,0.462350,0.440952,100.697713,-6.625602,79.349325
39811,NaN,1.136281,9.815271,-1.796037,0.053522,-0.033610,0.229844,0.038490,0.048710,0.002255,0.461673,0.615178,0.462530,0.440998,100.719508,-6.633061,79.373385
39812,NaN,1.001723,9.841491,-1.758977,0.072460,-0.177061,0.232998,0.038885,0.049306,0.010170,0.461415,0.615211,0.462682,0.441063,100.741086,-6.645011,79.396339
39813,NaN,1.029437,9.813938,-1.865243,-0.026333,-0.132007,0.228933,0.039909,0.015353,0.020314,0.461205,0.615345,0.462732,0.441045,100.766100,-6.659088,79.399546
39814,NaN,1.111591,9.783750,-1.980925,-0.124643,-0.032656,0.230462,0.042824,0.028397,0.026968,0.460942,0.615471,0.462795,0.441077,100.791620,-6.678470,79.409412
39815,NaN,1.134354,9.731575,-1.990154,-0.134049,-0.006077,0.183963,0.050346,0.061583,0.032028,0.460566,0.615553,0.462938,0.441204,100.819709,-6.704109,79.437536
39816,NaN,1.116606,9.715006,-1.926019,-0.074261,-0.036775,0.153798,0.045980,0.076927,0.036287,0.460161,0.615601,0.463091,0.441400,100.843927,-6.733922,79.473752
39817,NaN,1.061771,9.654666,-1.671403,0.154153,-0.126556,0.040928,0.007641,0.102735,0.022583,0.459842,0.615472,0.463264,0.441730,100.844663,-6.758701,79.526206
39818,NaN,0.770846,9.393061,-1.429923,0.289994,-0.412135,-0.293521,-0.051825,0.073044,0.002216,0.459822,0.615224,0.463297,0.442062,100.812596,-6.768974,79.564111
39819,NaN,1.137690,9.000301,-1.495631,0.223736,0.017174,-0.621043,-0.071085,-0.151798,-0.035008,0.460462,0.615343,0.462888,0.441659,100.784444,-6.733975,79.478557
39820,NaN,1.433833,8.967816,-1.662767,0.107899,0.343923,-0.587046,-0.034090,-0.055613,-0.064704,0.460833,0.615264,0.462869,0.441401,100.770194,-6.692766,79.450639
39821,NaN,1.521057,9.086205,-1.655877,0.149443,0.418272,-0.462962,-0.034591,-0.107585,-0.072483,0.461341,0.615283,0.462757,0.440963,100.759450,-6.641454,79.394173
39822,NaN,2.128777,9.514372,-1.858396,0.137731,0.989703,0.062034,0.024734,-0.167871,-0.067516,0.461796,0.615580,0.462618,0.440216,100.786183,-6.586661,79.303025
39823,NaN,1.922380,10.146795,-1.887314,0.177548,0.707821,0.660250,-0.031313,0.016128,-0.054172,0.461967,0.615376,0.462742,0.440193,100.769425,-6.558897,79.314699
39824,NaN,0.759892,10.102890,-1.901148,-0.063505,-0.413621,0.487073,-0.103526,0.109536,-0.043078,0.462122,0.614823,0.462885,0.440651,100.704930,-6.547487,79.377914
39825,NaN,0.360794,9.973960,-1.842102,-0.107538,-0.789804,0.305021,-0.055350,-0.042595,-0.032126,0.462454,0.614743,0.462752,0.440554,100.678470,-6.525877,79.353908
39826,NaN,0.771401,10.073945,-1.969709,-0.142112,-0.378912,0.473002,-0.020201,-0.101800,-0.010541,0.462771,0.614924,0.462489,0.440244,100.675759,-6.510186,79.293640
39827,NaN,1.013765,9.935163,-1.998097,-0.149288,-0.116022,0.370231,-0.044850,-0.029211,0.006884,0.462954,0.614929,0.462291,0.440254,100.654916,-6.511970,79.273046
39828,NaN,1.125800,9.672671,-1.992107,-0.168322,0.029938,0.125484,-0.033570,-0.023337,0.017066,0.463070,0.614969,0.462096,0.440281,100.639734,-6.520200,79.254500
39829,NaN,1.276073,9.571020,-1.938321,-0.106836,0.181217,0.033409,-0.018407,0.000399,0.019076,0.463076,0.614998,0.461986,0.440349,100.632287,-6.531992,79.249392
39830,NaN,1.221385,9.506937,-1.864539,-0.057590,0.123047,-0.048893,-0.015410,0.044053,0.016982,0.462979,0.614931,0.461988,0.440542,100.623173,-6.547382,79.269225
39831,NaN,1.086368,9.598968,-1.782124,0.011175,-0.037781,0.010489,0.004956,0.041475,0.015066,0.462827,0.614915,0.462037,0.440673,100.626407,-6.561256,79.287828
39832,NaN,1.141731,9.704780,-1.819553,0.002535,0.004919,0.126983,0.011513,0.030955,0.008564,0.462698,0.614921,0.462093,0.440742,100.633523,-6.570378,79.300737
39833,NaN,1.166377,9.700775,-1.813314,0.013190,0.026725,0.124751,0.008582,0.053225,0.006125,0.462528,0.614866,0.462205,0.440880,100.637956,-6.580462,79.326952
39834,NaN,1.101772,9.715956,-1.753029,0.062552,-0.050569,0.121111,0.011056,0.061506,0.013720,0.462316,0.614815,0.462315,0.441057,100.642888,-6.595855,79.356982
39835,NaN,1.076677,9.672179,-1.772755,0.032732,-0.068102,0.079089,0.017296,0.034740,0.013013,0.462147,0.614836,0.462382,0.441134,100.653592,-6.607867,79.371983
39836,NaN,1.061041,9.656949,-1.810184,-0.006907,-0.077908,0.069272,0.030472,0.033337,0.017957,0.461928,0.614901,0.462459,0.441192,100.671611,-6.622800,79.385983
39837,NaN,1.121368,9.700947,-1.810047,0.014249,-0.028679,0.119134,0.037664,0.048490,0.017749,0.461654,0.614951,0.462589,0.441275,100.693136,-6.638948,79.408265
39838,NaN,1.172651,9.697023,-1.718375,0.114625,0.004371,0.104319,0.029016,0.043584,0.011178,0.461434,0.614975,0.462705,0.441348,100.709601,-6.650941,79.428218
39839,NaN,1.231423,9.571113,-1.544892,0.274406,0.050519,-0.043786,0.000652,0.031638,0.008547,0.461333,0.614955,0.462742,0.441443,100.710904,-6.660124,79.441928
39840,NaN,1.302841,9.494391,-1.564334,0.255474,0.133806,-0.106771,-0.014536,0.010541,-0.002515,0.461352,0.614919,0.462728,0.441487,100.704238,-6.661087,79.445007
39841,NaN,1.224982,9.411705,-1.607168,0.185142,0.076970,-0.188574,-0.021059,0.000309,-0.004732,0.461420,0.614887,0.462686,0.441506,100.694995,-6.659460,79.442383
39842,NaN,1.209290,9.463910,-1.703637,0.096057,0.070810,-0.121654,-0.019366,-0.033848,-0.019457,0.461594,0.614899,0.462612,0.441385,100.688378,-6.646075,79.422045
39843,NaN,1.261162,9.524175,-1.855240,-0.031855,0.139298,-0.028929,-0.010787,-0.046803,-0.019700,0.461772,0.614960,0.462530,0.441200,100.687921,-6.631015,79.394319
39844,NaN,1.134457,9.665757,-1.968707,-0.141845,0.015591,0.115520,-0.007344,-0.023312,-0.022592,0.461893,0.614969,0.462515,0.441076,100.687347,-6.616993,79.380174
39845,NaN,1.089890,9.720796,-1.969338,-0.141710,-0.033619,0.164227,-0.013305,-0.009396,-0.018716,0.461989,0.614944,0.462510,0.441015,100.683006,-6.606461,79.373545
39846,NaN,1.067721,9.729268,-1.894016,-0.071982,-0.066813,0.156080,-0.016833,-0.024036,-0.011664,0.462116,0.614958,0.462440,0.440936,100.677205,-6.598543,79.358001
39847,NaN,1.148291,9.751479,-1.808125,0.028954,-0.003986,0.171219,-0.015578,-0.013942,-0.005592,0.462201,0.614968,0.462380,0.440896,100.672017,-6.594919,79.347392
39848,NaN,1.092428,9.730508,-1.803414,0.018635,-0.056156,0.143466,-0.019134,0.006720,0.005690,0.462225,0.614949,0.462323,0.440958,100.663188,-6.600056,79.347445
39849,NaN,1.088630,9.683588,-1.814313,-0.001009,-0.051587,0.099228,-0.007493,-0.016848,0.001511,0.462276,0.615000,0.462252,0.440907,100.662909,-6.600127,79.334429
39850,NaN,1.138517,9.742584,-1.863071,-0.029608,-0.004108,0.171515,-0.001988,-0.008809,0.009540,0.462277,0.615065,0.462183,0.440887,100.664950,-6.605626,79.324887
39851,NaN,1.158503,9.691778,-1.867627,-0.039036,0.022530,0.125053,-0.014193,0.015542,0.007501,0.462261,0.615044,0.462154,0.440965,100.658795,-6.612502,79.329592
39852,NaN,1.140600,9.634334,-1.833425,-0.019233,0.006762,0.060629,-0.003575,0.014707,0.009011,0.462213,0.615051,0.462138,0.441021,100.658337,-6.620240,79.333527
39853,NaN,1.174292,9.659289,-1.842888,-0.018270,0.036313,0.090615,-0.000000,0.016330,0.006634,0.462153,0.615059,0.462144,0.441067,100.660250,-6.626711,79.338771
39854,NaN,1.190824,9.650278,-1.813270,0.012095,0.047934,0.078290,0.001038,0.024477,0.003100,0.462082,0.615042,0.462179,0.441128,100.661754,-6.632154,79.348798
39855,NaN,1.151400,9.619963,-1.780933,0.031802,0.007686,0.038204,0.007343,0.024165,0.002464,0.461991,0.615040,0.462233,0.441171,100.667309,-6.637108,79.358928
39856,NaN,1.155438,9.686152,-1.844477,-0.017197,0.011022,0.114963,0.018264,0.025025,0.002671,0.461865,0.615060,0.462309,0.441194,100.678718,-6.642445,79.369479
39857,NaN,1.090853,9.744122,-1.854249,-0.027291,-0.060270,0.165877,0.020408,0.034251,0.002548,0.461710,0.615066,0.462414,0.441238,100.691095,-6.648523,79.385316
39858,NaN,1.109878,9.866496,-1.849020,0.003602,-0.062517,0.286547,0.038777,0.047789,0.010087,0.461451,0.615100,0.462566,0.441302,100.712696,-6.660521,79.408230
39859,NaN,1.142042,10.091802,-1.657667,0.233939,-0.096273,0.474810,0.012111,0.018020,-0.000664,0.461366,0.615115,0.462625,0.441308,100.721343,-6.663070,79.415209
39860,NaN,1.444342,9.823671,-1.694511,0.207406,0.245013,0.255031,-0.082114,-0.062550,-0.007573,0.461774,0.615073,0.462310,0.441270,100.680846,-6.653292,79.377247
39861,NaN,1.645239,9.233918,-1.913100,-0.070109,0.565097,-0.257178,-0.086395,0.050471,-0.025784,0.461973,0.614731,0.462304,0.441546,100.630614,-6.645126,79.405304
39862,NaN,1.148170,9.338799,-1.651311,0.103036,0.025002,-0.260355,-0.046248,0.145822,-0.036181,0.461851,0.614245,0.462636,0.442001,100.596508,-6.641361,79.488643
39863,NaN,0.917985,9.443885,-1.777254,-0.048167,-0.192198,-0.161313,-0.039786,0.012009,-0.040469,0.462028,0.614061,0.462689,0.442016,100.575330,-6.620842,79.496437
39864,NaN,1.098137,9.670612,-1.924698,-0.123896,-0.021887,0.107760,-0.010247,0.010248,-0.040825,0.462121,0.613948,0.462802,0.441957,100.570893,-6.600004,79.502995
39865,NaN,1.038845,9.893459,-1.783587,0.035737,-0.131337,0.292874,-0.045528,0.054319,-0.026872,0.462187,0.613689,0.462898,0.442147,100.543840,-6.591582,79.533332
39866,NaN,1.051938,9.707797,-1.843022,-0.053892,-0.079884,0.123879,-0.060898,-0.017694,-0.016178,0.462445,0.613578,0.462759,0.442178,100.512479,-6.581732,79.521632
39867,NaN,1.207376,9.674881,-1.951747,-0.140903,0.096106,0.129209,-0.045039,-0.002050,-0.011836,0.462606,0.613479,0.462680,0.442228,100.489560,-6.575864,79.518413
39868,NaN,1.121147,9.524957,-1.826036,-0.062833,0.014674,-0.049900,-0.055533,0.044632,-0.006188,0.462680,0.613264,0.462667,0.442463,100.457259,-6.578241,79.541231
39869,NaN,1.101659,9.379261,-1.836219,-0.103031,0.018871,-0.192661,-0.028645,0.000899,-0.005850,0.462772,0.613211,0.462612,0.442498,100.443614,-6.576056,79.539052
39870,NaN,1.259476,9.503875,-1.778500,-0.000590,0.146461,-0.063250,-0.012473,0.032803,-0.007243,0.462744,0.613120,0.462670,0.442594,100.436745,-6.576578,79.555193
39871,NaN,1.135399,9.563202,-1.672221,0.087855,-0.000269,-0.038611,-0.020077,0.070236,-0.003821,0.462644,0.612937,0.462788,0.442827,100.423526,-6.582729,79.592132
39872,NaN,0.998058,9.654864,-1.590220,0.156311,-0.161347,0.020463,0.008182,0.054210,-0.001430,0.462489,0.612860,0.462924,0.442954,100.427239,-6.588803,79.619975
39873,NaN,0.993088,9.781418,-1.589253,0.177122,-0.185701,0.143328,0.009793,0.022068,0.005780,0.462388,0.612875,0.462968,0.442992,100.434378,-6.595368,79.628589
39874,NaN,0.993903,9.800821,-1.664690,0.108023,-0.177485,0.175904,0.010645,0.022971,0.010697,0.462271,0.612900,0.462999,0.443047,100.441574,-6.605038,79.637382
39875,NaN,1.045450,9.770656,-1.762621,0.019605,-0.110052,0.169949,0.036244,0.013695,0.022869,0.462071,0.613035,0.463030,0.443037,100.464618,-6.620364,79.639456
39876,NaN,1.076742,9.747777,-1.787940,0.000417,-0.075644,0.155739,0.037884,0.016638,0.023484,0.461858,0.613167,0.463067,0.443038,100.488023,-6.636504,79.643167
39877,NaN,1.183214,9.695411,-1.821049,-0.017781,0.037570,0.122879,0.034201,0.032468,0.023291,0.461619,0.613257,0.463135,0.443092,100.508670,-6.654029,79.655833
39878,NaN,1.207507,9.647656,-1.748638,0.052239,0.053253,0.065951,0.039018,0.052799,0.020289,0.461325,0.613303,0.463269,0.443194,100.530312,-6.672228,79.680618
39879,NaN,1.206567,9.580197,-1.688984,0.102010,0.049362,-0.010861,0.032601,0.064616,0.016060,0.461032,0.613301,0.463430,0.443333,100.547827,-6.689058,79.712268
39880,NaN,1.188014,9.567885,-1.542155,0.241158,0.007486,-0.051753,0.018136,0.045798,0.011517,0.460835,0.613294,0.463529,0.443443,100.557974,-6.701703,79.734172
39881,NaN,1.183595,9.496956,-1.561228,0.211382,0.014576,-0.118070,0.001512,0.003180,0.011530,0.460790,0.613346,0.463494,0.443456,100.561674,-6.709543,79.731453
39882,NaN,1.176387,9.491666,-1.538548,0.231506,0.004081,-0.128208,-0.006656,-0.027861,0.001805,0.460863,0.613423,0.463397,0.443374,100.562308,-6.708915,79.712468
39883,NaN,1.157753,9.516301,-1.723180,0.052990,0.011496,-0.072729,-0.014728,-0.070403,-0.003069,0.461071,0.613566,0.463201,0.443165,100.561397,-6.700803,79.669562
39884,NaN,1.142298,9.588019,-1.896095,-0.105461,0.013974,0.026968,0.000740,-0.069897,-0.002159,0.461228,0.613743,0.463036,0.442929,100.568797,-6.693585,79.627305
39885,NaN,1.165914,9.824553,-1.939743,-0.103471,0.010340,0.268631,0.016145,-0.070920,-0.001450,0.461338,0.613962,0.462901,0.442651,100.585616,-6.686320,79.583938
39886,NaN,1.197365,9.957860,-1.978519,-0.111869,0.028342,0.409538,0.003010,-0.051646,0.000419,0.461440,0.614111,0.462775,0.442470,100.593295,-6.682390,79.551566
39887,NaN,1.183870,9.971094,-1.926385,-0.061852,0.005221,0.411371,-0.026836,-0.014731,0.006526,0.461534,0.614125,0.462651,0.442482,100.581874,-6.685525,79.539218
39888,NaN,1.161217,9.739064,-1.800178,0.016504,-0.002672,0.159181,-0.044184,-0.009731,-0.000218,0.461687,0.614071,0.462518,0.442536,100.559671,-6.685539,79.530477
39889,NaN,1.277664,9.547301,-1.775579,0.027643,0.136365,-0.018980,-0.040051,-0.037126,-0.007592,0.461905,0.614072,0.462356,0.442477,100.541981,-6.678380,79.506921
39890,NaN,1.373871,9.425949,-1.820968,-0.020826,0.256982,-0.118076,-0.032859,-0.013355,-0.014486,0.462063,0.614019,0.462284,0.442462,100.526320,-6.670002,79.497644
39891,NaN,1.300622,9.305984,-1.817659,-0.051845,0.204560,-0.244390,-0.025008,0.009393,-0.026074,0.462168,0.613908,0.462319,0.442468,100.513954,-6.657310,79.502416
39892,NaN,1.242405,9.374249,-1.765752,-0.002253,0.132402,-0.193932,-0.014837,0.000510,-0.034941,0.462283,0.613819,0.462382,0.442406,100.507601,-6.638867,79.503144
39893,NaN,1.190772,9.556154,-1.764822,0.018298,0.058955,-0.022447,-0.005883,-0.015166,-0.038597,0.462414,0.613778,0.462442,0.442263,100.507652,-6.616553,79.495301
39894,NaN,1.108017,9.755990,-1.823196,-0.021202,-0.038203,0.173762,-0.005060,0.010675,-0.033745,0.462473,0.613691,0.462546,0.442214,100.506047,-6.599895,79.501828
39895,NaN,0.924843,9.902488,-1.742969,0.046849,-0.248389,0.281304,-0.010033,0.003609,-0.024472,0.462542,0.613632,0.462596,0.442171,100.502663,-6.587501,79.503147
39896,NaN,0.949377,9.965864,-1.797405,0.008248,-0.223011,0.355922,-0.012048,-0.025743,-0.012803,0.462660,0.613658,0.462537,0.442074,100.499841,-6.578828,79.486821
39897,NaN,1.031412,9.922449,-1.752402,0.059389,-0.142854,0.314790,-0.014632,-0.011511,-0.000549,0.462725,0.613677,0.462469,0.442051,100.495093,-6.578333,79.477050
39898,NaN,1.053037,9.786953,-1.722874,0.069300,-0.107127,0.179577,-0.018134,0.000287,0.006593,0.462758,0.613676,0.462397,0.442093,100.487313,-6.583336,79.473495
39899,NaN,1.127300,9.625631,-1.708877,0.069989,-0.014603,0.027980,-0.005996,-0.009279,0.015074,0.462757,0.613746,0.462305,0.442093,100.487558,-6.591877,79.463350
39900,NaN,1.239984,9.579456,-1.761649,0.032104,0.108861,0.005360,0.006031,0.007227,0.014279,0.462685,0.613804,0.462277,0.442116,100.493243,-6.601755,79.462505
39901,NaN,1.160579,9.537949,-1.772624,0.001294,0.037225,-0.042313,0.010653,0.022967,0.010693,0.462568,0.613831,0.462310,0.442167,100.500874,-6.611192,79.471106
39902,NaN,1.144737,9.611848,-1.762343,0.021688,0.007484,0.026183,0.024913,0.025296,0.010059,0.462405,0.613883,0.462380,0.442192,100.516120,-6.620662,79.481137
39903,NaN,1.113303,9.694686,-1.782168,0.012171,-0.034079,0.107050,0.023762,0.028646,0.008735,0.462239,0.613923,0.462461,0.442226,100.530864,-6.629594,79.493161
39904,NaN,1.093494,9.721431,-1.784860,0.012391,-0.058865,0.131359,0.023332,0.023888,0.009644,0.462086,0.613975,0.462524,0.442248,100.545344,-6.638636,79.502223
39905,NaN,1.081462,9.753429,-1.810298,-0.007042,-0.073435,0.165823,0.025943,0.024843,0.013280,0.461912,0.614039,0.462587,0.442275,100.561639,-6.649735,79.511606
39906,NaN,1.135239,9.727128,-1.827271,-0.015901,-0.016952,0.149450,0.021463,0.032683,0.015105,0.461730,0.614078,0.462651,0.442343,100.574601,-6.662850,79.525249
39907,NaN,1.110248,9.683201,-1.848295,-0.045909,-0.034286,0.107491,0.022916,0.031035,0.015129,0.461547,0.614126,0.462716,0.442400,100.588773,-6.675647,79.537942
39908,NaN,1.143313,9.684094,-1.865943,-0.054937,-0.002309,0.115432,0.025838,0.039643,0.019750,0.461326,0.614171,0.462791,0.442489,100.603842,-6.692076,79.554986
39909,NaN,1.179076,9.688922,-1.802701,0.015591,0.018587,0.112763,0.024759,0.050477,0.020905,0.461080,0.614194,0.462887,0.442615,100.617849,-6.710183,79.578084
39910,NaN,1.143733,9.681447,-1.766236,0.045119,-0.024177,0.094658,0.025439,0.061360,0.020780,0.460805,0.614190,0.463009,0.442777,100.631133,-6.729659,79.607793
39911,NaN,1.189117,9.626242,-1.765999,0.045930,0.024601,0.046044,0.017611,0.061794,0.021173,0.460554,0.614171,0.463114,0.442955,100.640280,-6.749123,79.637273
39912,NaN,0.972329,9.587810,-1.743760,0.022716,-0.187854,-0.021037,0.001092,0.083395,0.005643,0.460337,0.614028,0.463280,0.443206,100.637945,-6.762405,79.681043
39913,NaN,0.860562,9.532708,-1.397534,0.328852,-0.343860,-0.151435,-0.019163,0.046233,0.001069,0.460279,0.613913,0.463329,0.443374,100.626796,-6.768902,79.703843
39914,NaN,1.398465,9.356489,-1.570414,0.227637,0.236557,-0.228429,-0.037894,-0.235348,-0.019011,0.460976,0.614330,0.462749,0.442678,100.623038,-6.734492,79.569167
39915,NaN,1.947091,9.256879,-1.748606,0.137154,0.819745,-0.228961,-0.049238,-0.104559,-0.025076,0.461417,0.614418,0.462465,0.442393,100.604359,-6.710345,79.509238
39916,NaN,1.408352,9.149729,-1.739334,0.028924,0.312039,-0.398439,-0.051695,0.003033,-0.037242,0.461645,0.614233,0.462459,0.442418,100.576619,-6.690836,79.511610
39917,NaN,1.078460,9.268525,-1.792248,-0.064575,-0.014351,-0.311298,-0.014428,-0.075899,-0.047363,0.461962,0.614286,0.462386,0.442089,100.575671,-6.657189,79.470282
39918,NaN,1.046251,9.702720,-1.990625,-0.191048,-0.071806,0.145141,0.017130,-0.116930,-0.045952,0.462274,0.614504,0.462282,0.441568,100.595003,-6.620265,79.405844
39919,NaN,0.972922,10.151774,-2.042395,-0.178985,-0.195566,0.584725,0.016664,-0.042055,-0.033740,0.462387,0.614586,0.462314,0.441303,100.609779,-6.597839,79.382279
39920,NaN,0.846699,10.343025,-1.959776,-0.090052,-0.356655,0.741955,-0.019116,-0.049751,-0.016811,0.462591,0.614639,0.462196,0.441138,100.604422,-6.584354,79.352728
39921,NaN,1.093171,10.143307,-1.948371,-0.066881,-0.086896,0.573160,-0.030325,-0.063594,0.000026,0.462824,0.614738,0.461971,0.440993,100.594074,-6.578677,79.313370
39922,NaN,1.203702,9.837772,-1.874852,-0.026869,0.053620,0.274043,-0.039830,0.013504,0.011136,0.462884,0.614669,0.461867,0.441134,100.573057,-6.587514,79.316537
39923,NaN,1.154026,9.538533,-1.773761,0.010548,0.031315,-0.042298,-0.038978,0.023023,0.009321,0.462923,0.614578,0.461795,0.441296,100.552234,-6.596193,79.325304
39924,NaN,1.248970,9.369883,-1.832647,-0.058097,0.157142,-0.185374,-0.005863,0.016962,0.004303,0.462889,0.614564,0.461793,0.441353,100.550170,-6.601429,79.330881
39925,NaN,1.244012,9.496478,-1.831133,-0.037072,0.132573,-0.062571,0.015459,0.051912,0.000965,0.462712,0.614516,0.461933,0.441459,100.558548,-6.608433,79.356913
39926,NaN,1.124170,9.621737,-1.790391,0.001794,-0.010800,0.038555,0.023719,0.062199,0.001942,0.462486,0.614465,0.462110,0.441582,100.570562,-6.617195,79.388654
39927,NaN,1.069736,9.797130,-1.769657,0.042160,-0.094677,0.199757,0.030384,0.050560,0.004655,0.462258,0.614462,0.462268,0.441658,100.587618,-6.626146,79.413527
39928,NaN,1.038971,9.860292,-1.714885,0.101979,-0.144962,0.247841,0.023107,0.050190,0.011278,0.462039,0.614458,0.462388,0.441768,100.600230,-6.638958,79.437610
39929,NaN,0.989215,9.796585,-1.748830,0.051498,-0.181764,0.186030,0.019522,0.039946,0.020376,0.461834,0.614490,0.462450,0.441873,100.611942,-6.655655,79.454793
39930,NaN,1.051447,9.775566,-1.788285,0.022996,-0.115044,0.179882,0.025819,0.025076,0.024203,0.461636,0.614577,0.462479,0.441929,100.628012,-6.673167,79.463419
39931,NaN,1.152721,9.741638,-1.791691,0.034838,-0.014471,0.159123,0.026919,0.032103,0.029908,0.461405,0.614665,0.462509,0.442015,100.644587,-6.694411,79.475133
39932,NaN,1.213929,9.696800,-1.837553,-0.003795,0.054764,0.130910,0.027846,0.049107,0.030573,0.461131,0.614718,0.462578,0.442156,100.660149,-6.718091,79.496797
39933,NaN,1.213892,9.648903,-1.851562,-0.023569,0.059525,0.086760,0.021310,0.063816,0.028238,0.460848,0.614719,0.462675,0.442348,100.671375,-6.741764,79.526659
39934,NaN,1.277386,9.608170,-1.815414,0.017304,0.117589,0.047853,0.019750,0.076975,0.023369,0.460550,0.614676,0.462812,0.442576,100.680453,-6.764306,79.564705
39935,NaN,1.228914,9.524927,-1.773721,0.036159,0.072147,-0.046724,0.014726,0.085616,0.018966,0.460257,0.614592,0.462972,0.442828,100.686309,-6.785082,79.607915
39936,NaN,0.752426,9.546143,-1.799094,-0.070934,-0.395228,-0.077674,-0.002820,0.141239,-0.006609,0.459945,0.614283,0.463299,0.443239,100.677545,-6.797664,79.685895
39937,NaN,0.702229,9.439686,-1.178171,0.503641,-0.524244,-0.301621,-0.038351,0.007970,-0.020643,0.460083,0.614157,0.463285,0.443285,100.657682,-6.787892,79.689314
39938,NaN,1.233766,9.275682,-1.585777,0.174748,0.087413,-0.323907,-0.047891,-0.265728,-0.046198,0.460940,0.614555,0.462697,0.442457,100.649951,-6.734995,79.540620
39939,NaN,1.631472,9.170606,-1.788070,0.032684,0.530872,-0.342945,-0.056964,-0.121100,-0.051730,0.461502,0.614600,0.462440,0.442077,100.627598,-6.694064,79.474163
39940,NaN,1.590587,9.192790,-1.660616,0.151728,0.474386,-0.349763,-0.028675,-0.096082,-0.053618,0.461924,0.614649,0.462307,0.441707,100.619325,-6.654875,79.422132
39941,NaN,1.838587,9.541088,-1.811862,0.109512,0.696329,0.046254,0.018455,-0.174561,-0.046604,0.462366,0.614997,0.462076,0.441000,100.643654,-6.611187,79.324827
39942,NaN,1.381786,9.948123,-2.158776,-0.242552,0.252462,0.454358,-0.014738,0.006229,-0.043562,0.462488,0.614877,0.462178,0.440934,100.636830,-6.588427,79.329524
39943,NaN,0.608607,10.013308,-1.870118,-0.096516,-0.554664,0.376381,-0.044863,0.048883,-0.033612,0.462580,0.614616,0.462284,0.441090,100.610433,-6.575670,79.357506
39944,NaN,0.724432,10.062168,-1.896120,-0.093679,-0.441218,0.442256,0.001160,-0.108294,-0.019366,0.462862,0.614839,0.462083,0.440694,100.620386,-6.554610,79.295118
39945,NaN,1.080846,10.230690,-1.974812,-0.075664,-0.102780,0.661989,-0.001531,-0.052810,-0.000494,0.462982,0.614979,0.461948,0.440514,100.625811,-6.549762,79.261933
39946,NaN,1.144325,9.889148,-1.847718,0.002780,-0.012325,0.312461,-0.043353,0.033892,0.011548,0.463006,0.614858,0.461882,0.440727,100.601352,-6.560967,79.276580
39947,NaN,1.157096,9.573223,-1.704315,0.090462,0.021341,-0.020776,-0.021757,0.009008,0.013353,0.463016,0.614847,0.461803,0.440816,100.591356,-6.570446,79.276969
39948,NaN,1.263925,9.456901,-1.774215,0.022440,0.152510,-0.109360,-0.008412,0.014865,0.009889,0.462980,0.614844,0.461775,0.440886,100.588217,-6.578680,79.281029
39949,NaN,1.207078,9.431584,-1.851635,-0.067661,0.111747,-0.126445,0.002457,0.055242,0.005629,0.462825,0.614770,0.461880,0.441043,100.588996,-6.588677,79.308450
39950,NaN,1.056481,9.555137,-1.794780,-0.019550,-0.063986,-0.033446,0.027202,0.041797,0.001544,0.462637,0.614770,0.462017,0.441095,100.604141,-6.595063,79.328632
39951,NaN,1.126056,9.760490,-1.831197,-0.006399,-0.021506,0.181708,0.032049,0.022627,0.003045,0.462472,0.614830,0.462120,0.441078,100.623961,-6.600175,79.337834
39952,NaN,1.109858,9.834262,-1.821658,0.014068,-0.051384,0.250120,0.020412,0.047712,0.007455,0.462278,0.614816,0.462239,0.441176,100.635114,-6.610492,79.360660
39953,NaN,1.050474,9.830579,-1.791426,0.033223,-0.116174,0.234122,0.014897,0.053340,0.015087,0.462068,0.614796,0.462337,0.441320,100.643245,-6.625637,79.385989
39954,NaN,1.062643,9.750431,-1.781889,0.033192,-0.097070,0.155498,0.022046,0.027472,0.019247,0.461889,0.614858,0.462377,0.441380,100.656813,-6.640468,79.396150
39955,NaN,1.128841,9.668042,-1.781682,0.034207,-0.023687,0.082664,0.024840,0.033019,0.023477,0.461677,0.614925,0.462425,0.441458,100.672065,-6.658194,79.409058
39956,NaN,1.185692,9.665216,-1.792339,0.035554,0.030303,0.088452,0.024608,0.053371,0.022820,0.461421,0.614943,0.462519,0.441602,100.685336,-6.677933,79.433840
39957,NaN,1.202157,9.651521,-1.845565,-0.013453,0.053076,0.086815,0.028005,0.056366,0.022158,0.461148,0.614962,0.462632,0.441742,100.700836,-6.697405,79.460117
39958,NaN,1.219079,9.618220,-1.823939,0.006789,0.067115,0.052327,0.024498,0.076790,0.022555,0.460839,0.614928,0.462781,0.441955,100.712576,-6.719361,79.497953
39959,NaN,1.209262,9.630573,-1.773585,0.056711,0.043812,0.053959,0.015947,0.085330,0.020709,0.460540,0.614852,0.462938,0.442208,100.719205,-6.741113,79.540798
39960,NaN,1.141286,9.598259,-1.725984,0.085291,-0.028718,0.005664,0.003563,0.074210,0.015858,0.460314,0.614760,0.463056,0.442449,100.719060,-6.759207,79.578199
39961,NaN,0.724935,9.494519,-1.678829,0.037384,-0.428444,-0.153240,-0.039422,0.057179,-0.014779,0.460328,0.614536,0.463135,0.442662,100.695374,-6.757978,79.608895
39962,NaN,0.899861,9.254079,-1.193744,0.495656,-0.294954,-0.456402,-0.088815,-0.116244,-0.025056,0.460918,0.614557,0.462736,0.442436,100.654421,-6.732743,79.542656
39963,NaN,1.489113,9.021828,-1.835006,-0.060041,0.422183,-0.496238,-0.047609,-0.267048,-0.048028,0.461780,0.614955,0.462151,0.441595,100.647124,-6.678427,79.393068
39964,NaN,1.806792,9.319966,-1.814577,0.067919,0.692460,-0.172415,0.004682,-0.067788,-0.046566,0.462020,0.615035,0.462135,0.441250,100.656180,-6.646141,79.356267
39965,NaN,1.598712,9.622126,-1.838781,0.057000,0.454345,0.102585,-0.016998,-0.100021,-0.039856,0.462384,0.615152,0.461977,0.440869,100.655391,-6.614109,79.300517
39966,NaN,1.357295,9.760805,-2.096076,-0.213917,0.244920,0.257236,-0.011152,-0.027206,-0.039341,0.462563,0.615122,0.461997,0.440703,100.652611,-6.590192,79.285896
39967,NaN,0.782939,10.042967,-1.928645,-0.113016,-0.380380,0.436039,-0.023329,0.048940,-0.031838,0.462585,0.614915,0.462145,0.440814,100.638566,-6.578451,79.313728
39968,NaN,0.769513,10.060128,-1.794851,0.016234,-0.415037,0.426809,-0.007663,-0.048535,-0.019629,0.462758,0.614985,0.462063,0.440620,100.639445,-6.563422,79.285054
39969,NaN,1.009156,10.115328,-1.885766,-0.017889,-0.172552,0.524831,0.002481,-0.031850,-0.008220,0.462835,0.615071,0.462009,0.440477,100.645719,-6.556431,79.264575
39970,NaN,1.134919,9.909000,-1.812310,0.042805,-0.031688,0.324273,-0.026752,0.013212,0.006864,0.462866,0.615023,0.461946,0.440577,100.632192,-6.562773,79.267928
39971,NaN,1.206315,9.592399,-1.782479,0.032130,0.077941,0.017849,-0.015947,0.022928,0.011284,0.462830,0.614990,0.461918,0.440690,100.624597,-6.572558,79.276423
39972,NaN,1.206390,9.460367,-1.760294,0.031394,0.091926,-0.115104,-0.003749,0.023517,0.013234,0.462752,0.614986,0.461910,0.440785,100.623513,-6.583671,79.285192
39973,NaN,1.176725,9.478291,-1.819091,-0.028136,0.068179,-0.090222,0.009169,0.039188,0.006254,0.462612,0.614964,0.461991,0.440879,100.629186,-6.592341,79.303441
39974,NaN,1.079516,9.619364,-1.846234,-0.048370,-0.044660,0.041335,0.026522,0.042826,0.006264,0.462410,0.614971,0.462117,0.440948,100.644125,-6.601680,79.324109
39975,NaN,1.089869,9.756212,-1.891969,-0.066441,-0.048930,0.184523,0.026034,0.030587,0.004679,0.462241,0.615003,0.462220,0.440973,100.659997,-6.608562,79.337647
39976,NaN,1.137789,9.837076,-1.832715,0.014894,-0.025705,0.258092,0.022457,0.046803,0.013916,0.462027,0.615011,0.462321,0.441080,100.672500,-6.622541,79.359415
39977,NaN,1.082747,9.771853,-1.763059,0.063282,-0.083910,0.175245,0.016691,0.054928,0.014025,0.461810,0.614989,0.462431,0.441222,100.681536,-6.637274,79.385749
39978,NaN,1.083490,9.747814,-1.770406,0.053524,-0.081616,0.153186,0.017901,0.044493,0.022278,0.461598,0.615012,0.462491,0.441350,100.691709,-6.655610,79.405118
39979,NaN,1.144028,9.703411,-1.815415,0.015079,-0.012221,0.125137,0.019598,0.043016,0.020803,0.461385,0.615038,0.462558,0.441465,100.703263,-6.672901,79.423970
39980,NaN,1.168275,9.675570,-1.815932,0.015646,0.012050,0.100875,0.018324,0.055210,0.023663,0.461141,0.615039,0.462642,0.441632,100.712873,-6.693374,79.449869
39981,NaN,1.213888,9.620458,-1.815579,0.016490,0.060920,0.052356,0.020509,0.060026,0.021479,0.460884,0.615032,0.462748,0.441799,100.723819,-6.712865,79.478286
39982,NaN,1.192123,9.600060,-1.829578,-0.003645,0.041209,0.032512,0.013290,0.069805,0.021552,0.460628,0.614984,0.462859,0.442016,100.729500,-6.733624,79.512427
39983,NaN,1.206813,9.543487,-1.812865,0.006486,0.057817,-0.024039,0.013960,0.068786,0.016859,0.460381,0.614931,0.462986,0.442214,100.736034,-6.751457,79.546303
39984,NaN,0.823927,9.572576,-1.804886,-0.050244,-0.323824,-0.042155,-0.001998,0.100879,-0.008206,0.460163,0.614710,0.463227,0.442495,100.730509,-6.758924,79.601564
39985,NaN,0.795934,9.411996,-1.373939,0.335107,-0.393795,-0.281710,-0.040185,-0.026061,-0.021997,0.460389,0.614653,0.463135,0.442437,100.711844,-6.744766,79.585847
39986,NaN,1.222692,9.257481,-1.683954,0.084958,0.098793,-0.325083,-0.030999,-0.197770,-0.036965,0.461016,0.614959,0.462712,0.441800,100.709255,-6.704122,79.474648
39987,NaN,1.472292,9.280755,-1.748821,0.070954,0.355580,-0.261407,-0.044880,-0.102854,-0.041481,0.461476,0.615015,0.462492,0.441471,100.692709,-6.670831,79.417485
39988,NaN,1.620070,9.270645,-1.750179,0.094179,0.507860,-0.254141,-0.042651,-0.149442,-0.043750,0.462045,0.615171,0.462174,0.440993,100.679801,-6.631417,79.334257
39989,NaN,1.862554,9.549043,-1.918030,0.022827,0.737114,0.076110,0.001752,-0.127561,-0.040395,0.462416,0.615391,0.461996,0.440483,100.691526,-6.596128,79.262975
39990,NaN,1.329306,9.879008,-2.043424,-0.143367,0.193406,0.359799,-0.025642,0.043742,-0.039069,0.462472,0.615171,0.462149,0.440571,100.675969,-6.580040,79.288964
39991,NaN,0.659639,9.911470,-1.860001,-0.086888,-0.491463,0.281017,-0.044328,0.036189,-0.031981,0.462588,0.614943,0.462222,0.440691,100.650722,-6.566876,79.309587
39992,NaN,0.775472,10.049271,-1.838460,-0.023340,-0.398669,0.424972,0.005972,-0.068963,-0.024752,0.462777,0.615079,0.462139,0.440390,100.660826,-6.546768,79.269927
39993,NaN,1.053192,10.200541,-1.920252,-0.025670,-0.134249,0.619423,-0.005510,-0.024128,-0.003836,0.462851,0.615138,0.462072,0.440300,100.662068,-6.543057,79.253360
39994,NaN,1.054923,9.875352,-1.836452,0.001573,-0.099234,0.286725,-0.042059,0.023206,0.008853,0.462902,0.615038,0.461992,0.440470,100.639018,-6.551581,79.262136
39995,NaN,1.161063,9.607693,-1.809376,0.001789,0.037723,0.032527,-0.015288,0.007330,0.011015,0.462901,0.615040,0.461930,0.440534,100.632806,-6.559568,79.261818
39996,NaN,1.224229,9.502657,-1.812315,-0.007415,0.113775,-0.062266,-0.009713,0.021092,0.010467,0.462853,0.615022,0.461912,0.440627,100.628440,-6.568771,79.269374
39997,NaN,1.173909,9.439366,-1.844073,-0.058203,0.077278,-0.123986,0.002954,0.048497,0.009592,0.462704,0.614972,0.461990,0.440772,100.629991,-6.580306,79.292544
39998,NaN,1.094144,9.594910,-1.835058,-0.038286,-0.026444,0.017100,0.025104,0.040064,0.004181,0.462521,0.614978,0.462111,0.440829,100.644193,-6.587928,79.311400
39999,NaN,1.121753,9.746324,-1.844788,-0.016055,-0.021657,0.169882,0.023836,0.025781,0.006889,0.462365,0.615020,0.462191,0.440849,100.659146,-6.595545,79.321978
40000,NaN,1.138236,9.845358,-1.844034,0.005371,-0.022026,0.268314,0.017332,0.047961,0.007070,0.462177,0.614996,0.462307,0.440958,100.668418,-6.605937,79.345612
40001,NaN,1.061991,9.807301,-1.774734,0.053407,-0.104815,0.209628,0.012891,0.060600,0.020413,0.461945,0.614968,0.462401,0.441142,100.674989,-6.624866,79.374480
40002,NaN,1.084201,9.756107,-1.780988,0.043812,-0.077911,0.163336,0.013383,0.040421,0.019552,0.461762,0.614982,0.462451,0.441262,100.682715,-6.641232,79.391943
40003,NaN,1.129169,9.720899,-1.855322,-0.024569,-0.020158,0.147840,0.019085,0.036721,0.021542,0.461564,0.615023,0.462500,0.441361,100.694399,-6.658268,79.407151
40004,NaN,1.197760,9.662170,-1.848088,-0.013422,0.050717,0.097148,0.016347,0.050561,0.024384,0.461336,0.615032,0.462565,0.441518,100.703196,-6.678559,79.430068
40005,NaN,1.189619,9.609153,-1.838994,-0.013696,0.045356,0.042802,0.018711,0.059970,0.022800,0.461082,0.615024,0.462663,0.441692,100.713137,-6.698783,79.458315
40006,NaN,1.216043,9.604825,-1.833134,-0.002940,0.067060,0.040601,0.021137,0.070910,0.021414,0.460799,0.614991,0.462796,0.441894,100.723306,-6.719625,79.493233
40007,NaN,1.172997,9.591942,-1.773545,0.045990,0.013954,0.011997,0.019323,0.077955,0.015765,0.460517,0.614928,0.462958,0.442106,100.732295,-6.737817,79.532426
40008,NaN,1.158459,9.576947,-1.810155,0.006162,0.004535,0.002431,0.015865,0.067481,0.013932,0.460272,0.614872,0.463095,0.442296,100.739378,-6.754276,79.566600
40009,NaN,0.781319,9.567777,-1.757341,-0.011559,-0.372971,-0.060671,0.005536,0.106258,-0.004743,0.460012,0.614667,0.463355,0.442579,100.738300,-6.763953,79.624040
40010,NaN,0.727949,9.495321,-1.367994,0.343930,-0.474474,-0.209614,-0.029117,-0.022132,-0.021367,0.460194,0.614626,0.463293,0.442512,100.725295,-6.750728,79.610621
40011,NaN,1.097524,9.276660,-1.606395,0.142137,-0.039461,-0.335360,-0.046162,-0.199671,-0.039719,0.460878,0.614897,0.462842,0.441894,100.714507,-6.708092,79.498395
40012,NaN,1.448830,9.137018,-1.752470,0.039840,0.354303,-0.403743,-0.067236,-0.152343,-0.046526,0.461534,0.614997,0.462472,0.441457,100.687783,-6.666867,79.413938
40013,NaN,1.645597,9.186596,-1.802163,0.035281,0.554203,-0.323697,-0.023076,-0.148471,-0.048487,0.462048,0.615187,0.462216,0.440922,100.686592,-6.624798,79.331666
40014,NaN,1.881745,9.571951,-1.895296,0.054607,0.749710,0.096415,0.025385,-0.133217,-0.043728,0.462367,0.615464,0.462086,0.440337,100.711686,-6.587253,79.257863
40015,NaN,1.518216,9.943988,-2.140781,-0.187047,0.385410,0.462881,-0.009221,-0.018129,-0.037952,0.462513,0.615423,0.462130,0.440195,100.710000,-6.564961,79.248356
40016,NaN,0.759567,10.037373,-1.973996,-0.152771,-0.392657,0.436456,-0.041829,0.082600,-0.030518,0.462511,0.615100,0.462310,0.440460,100.682707,-6.557840,79.295445
40017,NaN,0.598428,10.027773,-1.789375,-0.007220,-0.576097,0.374769,-0.013369,-0.040417,-0.019556,0.462682,0.615141,0.462236,0.440301,100.680307,-6.543543,79.271329
40018,NaN,0.997660,10.142960,-1.864560,0.013049,-0.188961,0.546640,0.005459,-0.055663,-0.006067,0.462803,0.615290,0.462123,0.440083,100.689427,-6.535165,79.236715
40019,NaN,1.113910,9.927643,-1.849398,0.013955,-0.046766,0.346878,-0.031991,0.014552,0.010885,0.462837,0.615238,0.462042,0.440207,100.673176,-6.543845,79.240499
40020,NaN,1.163235,9.595007,-1.751669,0.061651,0.032401,0.009775,-0.022151,0.005743,0.014428,0.462853,0.615233,0.461949,0.440293,100.662718,-6.553772,79.239125
40021,NaN,1.257289,9.491739,-1.770273,0.043309,0.140803,-0.076875,-0.003895,0.014499,0.010551,0.462801,0.615245,0.461931,0.440351,100.662562,-6.562257,79.242917
40022,NaN,1.206843,9.428364,-1.802509,-0.007685,0.104389,-0.138567,0.004512,0.043963,0.007727,0.462662,0.615202,0.462006,0.440478,100.664745,-6.572510,79.264047
40023,NaN,1.061283,9.553158,-1.849473,-0.058825,-0.049893,-0.024748,0.026485,0.036897,0.004021,0.462479,0.615219,0.462126,0.440520,100.680460,-6.579696,79.281229
40024,NaN,1.103813,9.715281,-1.904812,-0.075724,-0.024660,0.148590,0.033234,0.020841,0.004632,0.462312,0.615287,0.462220,0.440502,100.700588,-6.585735,79.289458
40025,NaN,1.145320,9.834009,-1.891668,-0.033513,-0.005715,0.266834,0.024165,0.046869,0.012688,0.462094,0.615297,0.462332,0.440599,100.714428,-6.598872,79.311360
40026,NaN,1.067246,9.860912,-1.781969,0.064414,-0.106680,0.263844,0.022568,0.063307,0.019155,0.461831,0.615279,0.462455,0.440771,100.725693,-6.617601,79.342111
40027,NaN,1.035644,9.811601,-1.780128,0.053686,-0.133996,0.211687,0.014093,0.032314,0.021786,0.461657,0.615319,0.462483,0.440868,100.734814,-6.634316,79.354783
40028,NaN,1.136866,9.689519,-1.829381,0.005502,-0.012689,0.113323,0.010874,0.033909,0.023040,0.461486,0.615349,0.462502,0.440984,100.741659,-6.652169,79.368552
40029,NaN,1.181669,9.575718,-1.603299,0.213920,0.009471,-0.034373,-0.017865,0.028442,0.005404,0.461456,0.615286,0.462501,0.441106,100.732513,-6.659251,79.380789
40030,NaN,1.308641,9.284947,-1.493065,0.293497,0.159691,-0.323726,-0.076263,-0.091751,-0.015501,0.461929,0.615302,0.462157,0.440949,100.697070,-6.642055,79.327681
40031,NaN,1.675068,8.961401,-1.519421,0.279214,0.573437,-0.592361,-0.071558,-0.136621,-0.032804,0.462530,0.615390,0.461773,0.440599,100.667490,-6.610082,79.250450
40032,NaN,1.615727,9.363164,-1.385651,0.460895,0.442061,-0.231894,-0.037663,-0.106060,-0.068924,0.463038,0.615403,0.461643,0.440183,100.654207,-6.561137,79.194410
40033,NaN,1.324946,9.903182,-1.796817,0.093815,0.157404,0.337359,-0.076708,-0.233635,-0.076842,0.463974,0.615590,0.461158,0.439443,100.627262,-6.494158,79.066875
40034,NaN,1.634605,9.537937,-2.111106,-0.219428,0.577450,0.072620,-0.208174,-0.165012,-0.077487,0.465161,0.615316,0.460542,0.439218,100.519903,-6.434283,78.978253
40035,NaN,1.098283,9.367179,-2.236553,-0.480674,0.111038,-0.132344,-0.089274,-0.010532,-0.072580,0.465611,0.614993,0.460534,0.439202,100.471444,-6.393312,78.976610
40036,NaN,0.775755,10.421117,-2.000512,-0.149477,-0.384662,0.819021,-0.001201,-0.074941,-0.071998,0.465943,0.615015,0.460563,0.438789,100.476772,-6.345987,78.938215
40037,NaN,0.668584,10.407274,-2.189491,-0.359585,-0.447067,0.827944,-0.123957,-0.017349,-0.052178,0.466471,0.614672,0.460399,0.438880,100.409104,-6.315805,78.930538
40038,NaN,0.600615,10.009235,-2.087314,-0.345131,-0.468353,0.412963,-0.078139,0.048759,-0.041477,0.466687,0.614315,0.460454,0.439092,100.363232,-6.298414,78.958731
40039,NaN,0.807429,10.046441,-1.896322,-0.121444,-0.300626,0.437865,-0.063705,0.048777,-0.023698,0.466815,0.614033,0.460489,0.439314,100.326298,-6.291101,78.985552
40040,NaN,0.928019,9.414490,-2.111535,-0.412465,-0.056754,-0.128728,-0.076229,0.105673,-0.012074,0.466828,0.613622,0.460591,0.439768,100.278157,-6.296184,79.043325
40041,NaN,0.698619,8.901877,-2.204548,-0.631060,-0.194131,-0.639052,-0.026489,0.175000,-0.015818,0.466534,0.613166,0.460978,0.440309,100.254775,-6.306166,79.140922
40042,NaN,0.248431,8.822646,-2.719858,-1.226842,-0.539342,-0.674723,0.061414,0.199755,-0.041206,0.465970,0.612801,0.461692,0.440666,100.279463,-6.304472,79.255248
40043,NaN,0.266204,9.343571,-2.513242,-0.932982,-0.631061,-0.199110,0.143189,0.239603,-0.071750,0.465128,0.612469,0.462774,0.440882,100.348655,-6.289633,79.395246
40044,NaN,0.156908,9.543909,-2.405427,-0.804123,-0.784175,-0.033355,0.123365,0.268644,-0.094478,0.464328,0.611970,0.463949,0.441185,100.404082,-6.265431,79.554643
40045,NaN,0.082799,9.619474,-2.317638,-0.705400,-0.880136,0.017894,0.168871,0.283646,-0.121246,0.463413,0.611482,0.465339,0.441359,100.484830,-6.227595,79.724798
40046,NaN,0.071191,9.837720,-2.122818,-0.464797,-0.949369,0.196049,0.183413,0.268490,-0.130186,0.462501,0.611038,0.466755,0.441436,100.574970,-6.183787,79.888159
40047,NaN,0.057289,9.831975,-2.037806,-0.365450,-0.971532,0.174615,0.193056,0.247730,-0.129674,0.461612,0.610662,0.468138,0.441422,100.671905,-6.137940,80.038957
40048,NaN,0.068763,9.889400,-2.010808,-0.304439,-0.968134,0.228143,0.245120,0.216065,-0.134587,0.460640,0.610459,0.469581,0.441185,100.800496,-6.086787,80.173691
40049,NaN,0.188621,10.103376,-1.937745,-0.149829,-0.884943,0.437337,0.266652,0.153778,-0.143489,0.459774,0.610425,0.470950,0.440677,100.945307,-6.023666,80.272999
40050,NaN,0.447650,10.241867,-1.698994,0.175823,-0.675078,0.555346,0.213902,0.104890,-0.179901,0.459254,0.610284,0.472205,0.440070,101.062414,-5.935655,80.350525
40051,NaN,0.571330,9.755398,-1.724844,0.104741,-0.470000,0.098790,0.068626,0.100828,-0.227483,0.459299,0.609711,0.473271,0.439673,101.096163,-5.819832,80.429395
40052,NaN,0.251920,8.686254,-1.821229,-0.221439,-0.610822,-0.957792,-0.023900,0.155235,-0.265583,0.459582,0.608713,0.474372,0.439572,101.073443,-5.688525,80.543249
40053,NaN,0.553806,8.257562,-1.891292,-0.307508,-0.227549,-1.331849,0.098840,-0.041464,-0.310033,0.460053,0.608323,0.475426,0.438479,101.131835,-5.510623,80.550895
40054,NaN,1.410488,9.099421,-1.815511,0.070570,0.523072,-0.442183,0.183743,-0.030950,-0.311957,0.460245,0.608099,0.476695,0.437209,101.238180,-5.332737,80.564969
40055,NaN,1.751671,9.888007,-1.617225,0.475595,0.759655,0.319100,0.096630,0.063577,-0.288192,0.460423,0.607523,0.477917,0.436489,101.290100,-5.178886,80.629934
40056,NaN,2.080405,10.221237,-1.395244,0.815496,1.036188,0.628083,0.066996,-0.014007,-0.241652,0.460774,0.607157,0.478754,0.435709,101.329445,-5.042462,80.646015
40057,NaN,2.767118,10.537625,-1.158589,1.223172,1.661466,0.947617,0.041095,-0.078548,-0.175774,0.461213,0.607030,0.479184,0.434947,101.357907,-4.935836,80.618305
40058,NaN,2.905479,10.686275,-0.859757,1.566074,1.752399,1.043369,-0.029101,0.018406,-0.103795,0.461477,0.606702,0.479467,0.434814,101.341981,-4.880581,80.637156
40059,NaN,2.590137,10.304540,-0.681448,1.614094,1.468949,0.608138,-0.094987,-0.014507,-0.042169,0.461885,0.606441,0.479344,0.434880,101.290634,-4.856230,80.630434
40060,NaN,2.402035,9.894094,-0.809573,1.377203,1.352283,0.216914,-0.110392,-0.077704,0.008401,0.462381,0.606403,0.478887,0.434910,101.233759,-4.853311,80.582407
40061,NaN,2.178238,9.673133,-0.985705,1.121859,1.182166,0.017356,-0.109895,-0.084920,0.041885,0.462820,0.606462,0.478313,0.434992,101.178035,-4.868374,80.526528
40062,NaN,1.375079,9.466555,-1.517916,0.426500,0.491620,-0.148994,-0.133352,-0.013688,0.040604,0.463162,0.606308,0.477855,0.435345,101.105218,-4.890806,80.511039
40063,NaN,0.300529,9.388600,-1.714272,0.033283,-0.528701,-0.278842,-0.127866,0.065786,0.026373,0.463329,0.605960,0.477638,0.435891,101.031820,-4.913857,80.541958
40064,NaN,-0.158239,9.489832,-1.921214,-0.233942,-0.961852,-0.179769,-0.057666,-0.097251,0.023772,0.463678,0.606122,0.477203,0.435771,101.006249,-4.917705,80.481199
40065,NaN,0.234646,9.775944,-2.402439,-0.587090,-0.536500,0.225407,0.025652,-0.246670,0.020241,0.464137,0.606795,0.476614,0.434989,101.035844,-4.903058,80.336443
40066,NaN,0.821483,10.060782,-2.529649,-0.558908,0.028154,0.578661,0.014496,-0.143163,0.018840,0.464387,0.607213,0.476243,0.434545,101.053784,-4.899033,80.250312
40067,NaN,0.983350,9.943914,-2.105728,-0.139809,0.136531,0.397323,-0.013573,0.025377,0.013441,0.464332,0.607186,0.476221,0.434666,101.047698,-4.910365,80.259857
40068,NaN,1.134801,9.915078,-1.529677,0.438603,0.201865,0.272120,-0.011843,-0.020201,-0.009075,0.464430,0.607209,0.476163,0.434593,101.044373,-4.904139,80.246199
40069,NaN,1.589073,9.697769,-1.343943,0.655607,0.647741,0.062973,-0.059380,-0.076618,-0.028351,0.464847,0.607198,0.475931,0.434416,101.016560,-4.880783,80.202778
40070,NaN,1.499679,9.470357,-1.316966,0.621333,0.586180,-0.172074,-0.083393,0.056572,-0.038977,0.465044,0.606816,0.475987,0.434677,100.968254,-4.866159,80.235733
40071,NaN,0.954993,9.449854,-1.234494,0.598279,0.046072,-0.253626,-0.086539,0.015919,-0.049229,0.465369,0.606491,0.475974,0.434797,100.920241,-4.841190,80.246801
40072,NaN,0.952365,9.580771,-1.433229,0.422039,0.064896,-0.087977,-0.070254,-0.150159,-0.047188,0.466036,0.606569,0.475602,0.434381,100.889208,-4.799504,80.163906
40073,NaN,1.025208,9.829341,-1.418327,0.487009,0.112865,0.158708,-0.083548,-0.133630,-0.037869,0.466682,0.606603,0.475213,0.434066,100.850068,-4.764755,80.089266
40074,NaN,1.155899,10.089764,-1.167477,0.791287,0.179907,0.377697,-0.111118,-0.269435,-0.026631,0.467710,0.606892,0.474411,0.433432,100.801253,-4.721923,79.936751
40075,NaN,1.839928,10.193904,-1.272295,0.820118,0.862536,0.555687,-0.147078,-0.411005,-0.003437,0.469131,0.607458,0.473129,0.432505,100.738746,-4.676985,79.701709
40076,NaN,2.134623,10.267177,-1.197879,0.947761,1.135668,0.638076,-0.185570,-0.270326,0.030347,0.470262,0.607705,0.471987,0.432176,100.647599,-4.666523,79.542548
40077,NaN,1.925591,10.231998,-0.916813,1.160413,0.888525,0.536524,-0.243692,-0.282056,0.080695,0.471486,0.607959,0.470540,0.432063,100.524433,-4.683295,79.371353
40078,NaN,2.324460,9.973124,-0.942260,1.147509,1.307535,0.322781,-0.262876,-0.377361,0.138698,0.472865,0.608507,0.468646,0.431843,100.394945,-4.723436,79.140313
40079,NaN,2.613074,9.953398,-0.998073,1.125013,1.591457,0.340932,-0.264891,-0.277961,0.190322,0.473904,0.608954,0.466825,0.432047,100.260637,-4.803191,78.960190
40080,NaN,2.498639,9.795269,-0.846428,1.199309,1.455897,0.154702,-0.318515,-0.126209,0.239705,0.474643,0.609057,0.465093,0.432957,100.088692,-4.926925,78.861193
40081,NaN,2.223184,9.476099,-0.811032,1.099042,1.198449,-0.181879,-0.339954,-0.083860,0.281132,0.475256,0.609113,0.463289,0.434139,99.903294,-5.078263,78.782349
40082,NaN,1.797620,9.480631,-0.897760,0.899906,0.775979,-0.194597,-0.317355,-0.033205,0.291327,0.475659,0.609132,0.461619,0.435448,99.728139,-5.240899,78.731749
40083,NaN,1.684390,9.831297,-0.739734,1.049840,0.572736,0.117492,-0.322915,-0.121145,0.287964,0.476287,0.609319,0.459738,0.436488,99.554872,-5.393002,78.631998
40084,NaN,1.903635,9.853716,-1.010725,0.797981,0.810302,0.209667,-0.362598,-0.128369,0.299881,0.477024,0.609451,0.457712,0.437628,99.359176,-5.551854,78.527561
40085,NaN,1.582302,9.925894,-1.147991,0.572535,0.489768,0.275775,-0.367861,-0.023191,0.309085,0.477513,0.609358,0.455897,0.439116,99.155341,-5.725592,78.482489
40086,NaN,1.240723,10.073599,-1.350700,0.287915,0.150954,0.421340,-0.361373,-0.126343,0.320574,0.478189,0.609529,0.453809,0.440303,98.960908,-5.897084,78.378385
40087,NaN,1.403837,10.118834,-1.579514,0.064583,0.321350,0.519243,-0.359322,-0.099016,0.337303,0.478758,0.609680,0.451740,0.441602,98.766882,-6.080406,78.288819
40088,NaN,1.221359,10.055431,-1.444651,0.108033,0.100298,0.418073,-0.386538,0.002440,0.360445,0.479125,0.609589,0.449777,0.443329,98.551053,-6.286321,78.255762
40089,NaN,0.804190,9.575710,-1.636102,-0.265840,-0.232060,-0.071382,-0.394127,0.003465,0.358008,0.479516,0.609468,0.447808,0.445063,98.331254,-6.490649,78.224184
40090,NaN,0.498979,9.362889,-1.719470,-0.475107,-0.508861,-0.305616,-0.348753,0.014429,0.328881,0.479806,0.609362,0.446048,0.446660,98.136052,-6.679887,78.202092
40091,NaN,0.219253,9.336268,-1.423677,-0.285134,-0.854196,-0.408980,-0.348376,0.013653,0.292966,0.480173,0.609177,0.444398,0.448161,97.941201,-6.848347,78.183005
40092,NaN,0.284465,9.200007,-1.445156,-0.344907,-0.784125,-0.534995,-0.363533,-0.130972,0.244087,0.481016,0.609166,0.442510,0.449139,97.746718,-6.978202,78.085739
40093,NaN,0.706405,9.140427,-1.807739,-0.651561,-0.308262,-0.496321,-0.331097,-0.168017,0.196394,0.481946,0.609209,0.440752,0.449812,97.573527,-7.078070,77.971252
40094,NaN,0.962670,9.342240,-1.587491,-0.394801,-0.139393,-0.296967,-0.324929,-0.128652,0.172119,0.482824,0.609121,0.439171,0.450535,97.400602,-7.167789,77.881497
40095,NaN,1.226016,9.433816,-1.664338,-0.436158,0.110620,-0.165539,-0.331318,-0.231687,0.164688,0.483961,0.609232,0.437352,0.450934,97.231852,-7.245674,77.733433
40096,NaN,1.608116,9.635907,-1.723718,-0.423506,0.455590,0.087865,-0.318618,-0.227971,0.185933,0.485002,0.609408,0.435500,0.451370,97.070112,-7.336679,77.586255
40097,NaN,1.576050,9.610360,-1.825858,-0.563311,0.438949,0.069954,-0.343726,-0.149257,0.215155,0.485880,0.609407,0.433694,0.452165,96.889051,-7.449866,77.482322
40098,NaN,1.229318,9.459029,-1.987702,-0.841990,0.146749,-0.106771,-0.332118,-0.142238,0.235203,0.486659,0.609458,0.431866,0.453007,96.714112,-7.575621,77.381452
40099,NaN,0.963278,9.449389,-2.055430,-0.997951,-0.108773,-0.146467,-0.296730,-0.129272,0.245499,0.487277,0.609586,0.430119,0.453832,96.559085,-7.708016,77.287594
40100,NaN,0.777375,9.022885,-2.068128,-1.117297,-0.232312,-0.593604,-0.333461,-0.112148,0.225935,0.488013,0.609541,0.428385,0.454741,96.381354,-7.831006,77.205282
40101,NaN,0.493739,8.530056,-2.375950,-1.546963,-0.375355,-1.088197,-0.286575,-0.081324,0.187528,0.488625,0.609456,0.426952,0.455545,96.228152,-7.933940,77.143394
40102,NaN,-0.042634,8.522158,-2.427555,-1.739977,-0.888984,-1.169531,-0.224840,-0.033743,0.153960,0.489022,0.609340,0.425874,0.456282,96.106037,-8.021161,77.111260
40103,NaN,-0.733681,8.467219,-2.735432,-2.214986,-1.489406,-1.292701,-0.173827,-0.021191,0.109961,0.489337,0.609226,0.425079,0.456838,96.012047,-8.083799,77.089132
40104,NaN,-1.542959,8.735286,-3.035199,-2.679434,-2.255171,-1.115952,-0.089771,-0.011306,0.074836,0.489455,0.609220,0.424605,0.457161,95.964928,-8.127310,77.074938
40105,NaN,-2.461048,8.807231,-2.980725,-2.832310,-3.166831,-1.183783,-0.082394,0.073075,0.016328,0.489505,0.608915,0.424534,0.457580,95.914866,-8.142223,77.112812
40106,NaN,-2.691599,8.875769,-2.010379,-1.936453,-3.601105,-1.248355,-0.016343,0.087636,-0.065970,0.489511,0.608562,0.424899,0.457702,95.900659,-8.111214,77.164007
40107,NaN,-0.187743,10.658749,-1.008645,-0.270899,-1.670335,0.760772,0.278879,-0.489082,-0.099055,0.489918,0.610180,0.424629,0.455359,96.102071,-8.026744,76.885311
40108,NaN,3.183095,12.435169,-0.441849,1.200896,1.182721,2.919934,0.178710,-0.488997,-0.067364,0.490554,0.611614,0.424030,0.453303,96.245853,-7.959534,76.605024
40109,NaN,3.538096,11.996467,0.221794,1.898995,1.455829,2.465620,-0.245268,0.054050,-0.005630,0.491193,0.610906,0.423612,0.453955,96.103922,-7.960920,76.633243
40110,NaN,1.460680,9.603653,-0.010354,0.990827,-0.109430,-0.149873,-0.445524,0.042911,0.020113,0.492408,0.609784,0.422631,0.455061,95.848210,-7.976310,76.653543
40111,NaN,0.663584,8.148994,-0.811314,-0.098283,-0.468063,-1.610499,-0.279625,-0.191625,-0.007705,0.493674,0.609543,0.421534,0.455029,95.706178,-7.962150,76.540481
40112,NaN,1.071409,8.975703,-1.256181,-0.393019,-0.100480,-0.695419,-0.066697,-0.329642,-0.046182,0.494668,0.610059,0.420697,0.454033,95.696598,-7.918435,76.350209
40113,NaN,1.931413,10.716028,-1.429271,-0.247689,0.503066,1.155083,-0.073430,-0.327297,-0.065429,0.495720,0.610510,0.419908,0.453008,95.682821,-7.863830,76.162367
40114,NaN,2.131242,11.259269,-1.388144,-0.135614,0.613537,1.713171,-0.237600,-0.145774,-0.048265,0.496852,0.610178,0.419142,0.452925,95.560566,-7.829514,76.078024
40115,NaN,1.382709,10.523055,-0.813602,0.171340,-0.110185,0.830006,-0.326286,-0.024538,-0.035909,0.497971,0.609375,0.418440,0.453426,95.378213,-7.808995,76.062675
40116,NaN,1.160036,9.842935,-0.570010,0.285683,-0.264078,0.107118,-0.302576,-0.130198,-0.033831,0.499233,0.608874,0.417520,0.453560,95.217573,-7.784220,75.986345
40117,NaN,1.600229,9.603376,-0.814961,0.117372,0.262790,-0.047092,-0.266307,-0.173796,-0.052362,0.500516,0.608522,0.416629,0.453437,95.081084,-7.746722,75.885775
40118,NaN,1.708055,9.733572,-0.956206,-0.006032,0.391400,0.108045,-0.239533,-0.104018,-0.069504,0.501610,0.608041,0.416024,0.453428,94.954209,-7.703270,75.826221
40119,NaN,1.503940,9.894560,-0.937492,-0.048666,0.179999,0.237597,-0.246178,-0.069943,-0.081526,0.502680,0.607441,0.415526,0.453505,94.820939,-7.654649,75.786760
40120,NaN,1.347372,9.943602,-0.781720,0.047141,-0.000404,0.252075,-0.222633,-0.036745,-0.085108,0.503616,0.606816,0.415174,0.453624,94.698433,-7.605762,75.766524
40121,NaN,1.300622,10.093897,-0.450435,0.345325,-0.131667,0.367914,-0.218232,-0.042968,-0.087210,0.504557,0.606211,0.414823,0.453709,94.579048,-7.555314,75.742665
40122,NaN,1.439935,9.824000,-0.320124,0.475061,0.025005,0.110039,-0.233655,-0.087445,-0.094046,0.505651,0.605653,0.414345,0.453674,94.453985,-7.499120,75.693422
40123,NaN,1.600270,9.665841,-0.415508,0.399047,0.238745,-0.017499,-0.193172,-0.087273,-0.104555,0.506645,0.605174,0.413990,0.453527,94.352156,-7.436912,75.644604
40124,NaN,1.412493,9.848808,-0.466696,0.297825,0.058393,0.143206,-0.167735,-0.050928,-0.108799,0.507496,0.604668,0.413797,0.453428,94.261974,-7.374047,75.616850
40125,NaN,1.128581,9.880258,-0.575046,0.112749,-0.178994,0.146183,-0.149353,-0.052775,-0.106819,0.508290,0.604216,0.413635,0.453288,94.182618,-7.312154,75.587819
40126,NaN,1.143486,9.803388,-0.638272,0.043540,-0.125767,0.076885,-0.106775,-0.060383,-0.101328,0.508958,0.603900,0.413533,0.453052,94.128048,-7.253239,75.554147
40127,NaN,1.298557,9.845547,-0.648398,0.068987,0.031112,0.138983,-0.065713,-0.047553,-0.095401,0.509463,0.603672,0.413539,0.452784,94.096250,-7.198141,75.527539
40128,NaN,1.340049,9.823075,-0.664675,0.060605,0.087710,0.123054,-0.037820,0.001761,-0.085916,0.509759,0.603423,0.413704,0.452632,94.076740,-7.150609,75.528964
40129,NaN,1.359875,9.768306,-0.729003,0.001712,0.138232,0.075760,0.000135,0.021164,-0.088578,0.509907,0.603221,0.414013,0.452452,94.077753,-7.102226,75.541627
40130,NaN,1.334699,9.782318,-0.756372,-0.027894,0.126301,0.088349,0.019606,0.089982,-0.087475,0.509851,0.602914,0.414538,0.452443,94.084880,-7.057404,75.593917
40131,NaN,1.216595,9.896641,-0.613705,0.089666,-0.030067,0.176871,0.045538,0.119430,-0.088175,0.509657,0.602606,0.415199,0.452466,94.104996,-7.013276,75.663160
40132,NaN,1.203690,9.837655,-0.532224,0.168270,-0.047250,0.111073,0.043856,0.120843,-0.086545,0.509461,0.602293,0.415854,0.452502,94.123937,-6.970285,75.733196
40133,NaN,1.215433,9.737090,-0.485974,0.217357,-0.026635,0.009553,0.050147,0.116253,-0.089736,0.509263,0.602000,0.416521,0.452501,94.147010,-6.925182,75.800694
40134,NaN,1.267549,9.789813,-0.371767,0.348851,-0.003305,0.059679,0.050258,0.086214,-0.096856,0.509143,0.601760,0.417133,0.452392,94.172064,-6.874914,75.851250
40135,NaN,1.324241,9.820596,-0.533529,0.213040,0.093607,0.108412,0.038122,0.072132,-0.108834,0.509116,0.601495,0.417718,0.452235,94.191295,-6.817109,75.894180
40136,NaN,1.288487,9.707389,-0.639565,0.102263,0.108524,-0.000430,0.031200,0.050631,-0.116824,0.509172,0.601244,0.418256,0.452008,94.207837,-6.753976,75.925129
40137,NaN,1.239699,9.762995,-0.768469,-0.026300,0.094250,0.058173,0.041777,0.061361,-0.119761,0.509180,0.600990,0.418854,0.451782,94.229923,-6.689501,75.962352
40138,NaN,0.990865,9.883667,-0.743901,-0.050899,-0.157144,0.146970,0.040815,0.069325,-0.119969,0.509175,0.600715,0.419470,0.451583,94.250777,-6.625388,76.004226
40139,NaN,0.944929,9.835785,-0.748413,-0.062066,-0.184294,0.094777,0.038901,0.047170,-0.118032,0.509217,0.600489,0.420021,0.451324,94.272239,-6.561324,76.033251
40140,NaN,1.065567,9.778888,-0.708085,0.010585,-0.060708,0.049344,0.057923,0.038484,-0.112506,0.509209,0.600341,0.420574,0.451015,94.305037,-6.500181,76.057110
40141,NaN,1.105051,9.867264,-0.747503,-0.006104,-0.016259,0.144345,0.061444,0.055798,-0.105718,0.509137,0.600178,0.421160,0.450766,94.338971,-6.443555,76.090622
40142,NaN,0.924233,9.816926,-0.714068,-0.011415,-0.184180,0.071748,0.058591,0.069159,-0.100475,0.509034,0.599988,0.421756,0.450578,94.370280,-6.390645,76.131655
40143,NaN,0.989498,9.789644,-0.734996,-0.009233,-0.105613,0.053680,0.069063,0.026825,-0.095956,0.508978,0.599930,0.422256,0.450251,94.410528,-6.338365,76.148143
40144,NaN,1.102497,9.827483,-0.799860,-0.034451,0.020489,0.108657,0.073801,0.033701,-0.092512,0.508886,0.599875,0.422772,0.449944,94.452899,-6.288482,76.168505
40145,NaN,1.006093,9.719813,-0.844465,-0.097523,-0.042221,-0.005098,0.061020,0.053349,-0.092103,0.508789,0.599744,0.423309,0.449722,94.486916,-6.239610,76.200132
40146,NaN,1.114597,9.818192,-0.726123,0.056129,0.029746,0.095008,0.069388,0.022397,-0.088865,0.508725,0.599711,0.423776,0.449400,94.527511,-6.191327,76.213895
40147,NaN,1.110399,9.863996,-0.714189,0.077126,0.023878,0.138943,0.056175,0.037244,-0.087837,0.508667,0.599613,0.424248,0.449151,94.559814,-6.144201,76.236132
40148,NaN,0.981051,9.780772,-0.812498,-0.046006,-0.061917,0.050383,0.054414,0.041403,-0.084164,0.508597,0.599508,0.424715,0.448929,94.590703,-6.099487,76.260652
40149,NaN,0.898741,9.808484,-0.802843,-0.047382,-0.141171,0.068429,0.060184,0.046129,-0.077854,0.508485,0.599421,0.425188,0.448723,94.624840,-6.058497,76.287580
40150,NaN,0.864567,9.901087,-0.837708,-0.076139,-0.172900,0.159527,0.078455,0.042300,-0.063661,0.508295,0.599418,0.425650,0.448504,94.669580,-6.025560,76.311711
40151,NaN,0.927245,9.865681,-0.836904,-0.054450,-0.104705,0.131051,0.061899,0.043630,-0.056149,0.508135,0.599387,0.426056,0.448343,94.704983,-5.996884,76.336235
40152,NaN,1.073218,9.746622,-0.705776,0.106926,0.023950,0.017600,0.048051,0.023620,-0.044338,0.508032,0.599390,0.426343,0.448182,94.733539,-5.974124,76.348763
40153,NaN,1.134495,9.748892,-0.663000,0.168685,0.076223,0.022620,0.046751,0.015464,-0.050685,0.507964,0.599395,0.426627,0.447981,94.761988,-5.947258,76.356885
40154,NaN,0.980934,9.817063,-0.740787,0.066734,-0.059589,0.080630,0.045648,0.008395,-0.045842,0.507905,0.599423,0.426875,0.447776,94.790068,-5.922927,76.360768
40155,NaN,0.951156,9.798669,-0.759020,0.046329,-0.079083,0.060829,0.036615,-0.004048,-0.042996,0.507892,0.599462,0.427064,0.447558,94.813906,-5.899523,76.357344
40156,NaN,0.907369,9.754954,-0.844377,-0.044178,-0.094190,0.020145,0.041594,-0.013161,-0.037736,0.507872,0.599544,0.427223,0.447317,94.840972,-5.878781,76.348484
40157,NaN,0.948124,9.931030,-0.906596,-0.079364,-0.059239,0.204119,0.040261,-0.030550,-0.036352,0.507890,0.599666,0.427333,0.447029,94.868481,-5.857882,76.329549
40158,NaN,0.899540,9.758939,-1.065990,-0.251116,-0.047298,0.042113,0.020835,-0.024445,-0.028355,0.507935,0.599741,0.427389,0.446823,94.884356,-5.841935,76.313771
40159,NaN,0.875376,9.859143,-1.119944,-0.299288,-0.068631,0.143666,0.035956,-0.021747,-0.022788,0.507917,0.599862,0.427471,0.446605,94.908940,-5.829195,76.299237
40160,NaN,0.900233,9.960452,-1.051382,-0.217416,-0.071319,0.240873,0.016053,-0.017669,-0.012084,0.507926,0.599944,0.427485,0.446470,94.921764,-5.822854,76.286554
40161,NaN,0.930023,9.826890,-0.849260,-0.020235,-0.071909,0.094298,0.007449,-0.011831,-0.015269,0.507955,0.599986,0.427505,0.446361,94.929472,-5.814887,76.277345
40162,NaN,1.047915,9.829083,-0.814315,0.043114,0.034556,0.105430,0.005692,-0.025454,-0.008554,0.508003,0.600067,0.427466,0.446234,94.936831,-5.810169,76.260021
40163,NaN,1.025814,9.795839,-0.859695,-0.007067,0.028248,0.074121,-0.001258,0.001051,-0.014066,0.508028,0.600060,0.427496,0.446186,94.938806,-5.803523,76.258146
40164,NaN,1.021721,9.833392,-0.820806,0.033387,0.011947,0.107593,0.015729,-0.007444,-0.016549,0.508026,0.600110,0.427549,0.446071,94.950828,-5.795128,76.251554
40165,NaN,1.067686,9.765092,-0.859337,0.004510,0.074181,0.047836,0.004077,0.008722,-0.015131,0.508021,0.600097,0.427613,0.446032,94.955409,-5.788252,76.254135
40166,NaN,1.049886,9.717009,-0.936626,-0.075474,0.081054,0.005027,0.026318,0.010670,-0.016624,0.507949,0.600133,0.427736,0.445949,94.972449,-5.780712,76.257942
40167,NaN,0.988451,9.782580,-0.960175,-0.105531,0.019794,0.065891,0.033091,0.038758,-0.018528,0.507800,0.600120,0.427952,0.445929,94.991903,-5.773393,76.277928
40168,NaN,0.838270,9.702888,-0.927812,-0.110899,-0.123330,-0.030967,0.036365,0.053103,-0.012395,0.507597,0.600096,0.428192,0.445962,95.012278,-5.770389,76.305870
40169,NaN,0.917939,9.800468,-0.657618,0.180339,-0.119533,0.050245,0.050778,0.029122,-0.014846,0.507407,0.600157,0.428412,0.445885,95.042442,-5.764703,76.320147
40170,NaN,1.152712,9.855644,-0.653007,0.248123,0.100154,0.128001,0.029888,-0.033197,-0.017761,0.507421,0.600297,0.428434,0.445659,95.064051,-5.754301,76.298860
40171,NaN,1.179622,9.789692,-0.831817,0.080259,0.176122,0.080948,0.011309,-0.026950,-0.028427,0.507500,0.600354,0.428464,0.445464,95.074757,-5.738037,76.281670
40172,NaN,1.007759,9.833161,-0.840596,0.036614,0.009190,0.107585,0.016391,-0.025319,-0.030612,0.507565,0.600414,0.428516,0.445258,95.088100,-5.720696,76.265564
40173,NaN,1.047042,9.853130,-0.903158,-0.010798,0.061948,0.136795,0.006069,-0.051747,-0.036672,0.507732,0.600495,0.428496,0.444978,95.097166,-5.698458,76.234580
40174,NaN,1.088153,9.822593,-0.902416,0.000376,0.108221,0.110521,0.013937,-0.024292,-0.035441,0.507813,0.600537,0.428558,0.444769,95.109009,-5.678408,76.219317
40175,NaN,0.963019,9.784527,-0.845764,0.026130,-0.018554,0.055375,0.018854,0.006445,-0.034004,0.507810,0.600526,0.428707,0.444643,95.122093,-5.660654,76.221580
40176,NaN,0.865456,9.861055,-0.821061,0.034706,-0.125337,0.119415,0.022900,0.030375,-0.029202,0.507734,0.600483,0.428909,0.444594,95.136005,-5.646959,76.237355
40177,NaN,0.776196,9.811756,-0.813038,0.021761,-0.206608,0.061061,0.036941,0.026052,-0.018783,0.507601,0.600507,0.429102,0.444527,95.158425,-5.638899,76.250084
40178,NaN,0.936123,9.821093,-0.738921,0.136057,-0.069576,0.079372,0.033336,-0.000788,-0.016215,0.507531,0.600587,0.429210,0.444395,95.180140,-5.631011,76.247327
40179,NaN,1.137605,9.767178,-0.782731,0.141894,0.142164,0.049576,0.032428,-0.023466,-0.020381,0.507521,0.600707,0.429271,0.444185,95.202753,-5.619482,76.231753
40180,NaN,1.082426,9.780191,-0.876748,0.041962,0.110084,0.065500,0.016709,-0.007686,-0.024274,0.507533,0.600742,0.429349,0.444047,95.215281,-5.606637,76.225469
40181,NaN,0.974994,9.672644,-1.054741,-0.160374,0.061427,-0.035487,0.012615,-0.033131,-0.029336,0.507624,0.600814,0.429369,0.443828,95.227028,-5.589487,76.204830
40182,NaN,1.015820,9.775539,-1.061311,-0.147082,0.092584,0.071099,0.027054,-0.023444,-0.027327,0.507646,0.600904,0.429438,0.443613,95.246347,-5.574075,76.189677
40183,NaN,0.995899,9.918167,-0.883466,0.033098,0.017797,0.194358,0.015793,0.003281,-0.024005,0.507637,0.600914,0.429542,0.443510,95.257905,-5.561865,76.189641
40184,NaN,0.897349,9.755087,-0.917126,-0.031490,-0.049426,0.026248,0.013200,0.015632,-0.022136,0.507605,0.600894,0.429664,0.443456,95.267140,-5.551462,76.196621
40185,NaN,0.884085,9.835237,-0.920480,-0.030135,-0.069691,0.104722,0.023975,0.020537,-0.018321,0.507521,0.600898,0.429812,0.443401,95.282458,-5.543404,76.206180
40186,NaN,0.807149,9.778665,-0.965325,-0.092376,-0.127324,0.045350,0.036255,0.039680,-0.007084,0.507335,0.600915,0.430002,0.443407,95.303651,-5.542861,76.226151
40187,NaN,0.802734,9.805909,-1.041011,-0.160862,-0.118349,0.078928,0.044840,0.028083,-0.006480,0.507147,0.600982,0.430180,0.443361,95.330567,-5.541965,76.239409
40188,NaN,0.931948,9.776115,-0.856903,0.050738,-0.033391,0.044876,0.049735,0.045347,0.000344,0.506891,0.601036,0.430391,0.443374,95.359212,-5.545973,76.262229
40189,NaN,1.132720,9.830498,-0.702756,0.256123,0.118139,0.103767,0.047257,0.011195,-0.009158,0.506737,0.601140,0.430540,0.443264,95.388434,-5.542656,76.265954
40190,NaN,1.212922,9.811444,-0.743262,0.238997,0.207126,0.096300,0.037937,0.037412,-0.021362,0.506583,0.601136,0.430770,0.443224,95.410643,-5.533880,76.285399
40191,NaN,1.037116,9.798135,-0.882410,0.065637,0.071210,0.079144,0.033896,0.037034,-0.026642,0.506452,0.601111,0.431007,0.443176,95.430692,-5.521992,76.304885
40192,NaN,0.979907,9.787829,-0.985858,-0.044629,0.042008,0.073160,0.041719,0.044341,-0.035295,0.506302,0.601071,0.431304,0.443113,95.454617,-5.505665,76.329068
40193,NaN,0.862307,9.686205,-1.112741,-0.197846,-0.030112,-0.026765,0.042671,0.055066,-0.025453,0.506103,0.601031,0.431603,0.443104,95.478719,-5.495455,76.358829
40194,NaN,0.881317,9.719594,-1.073300,-0.146816,-0.024585,0.004493,0.077154,0.046894,-0.017738,0.505802,0.601112,0.431933,0.443016,95.522912,-5.489304,76.383521
40195,NaN,1.012505,9.892343,-0.873406,0.097982,0.036658,0.169071,0.085394,0.070596,-0.021883,0.505433,0.601153,0.432354,0.442970,95.570667,-5.482031,76.421994
40196,NaN,1.020966,9.787346,-0.672449,0.294682,0.011156,0.046305,0.073037,0.105269,-0.018959,0.505020,0.601092,0.432826,0.443064,95.609308,-5.478480,76.480203
40197,NaN,1.003386,9.809364,-0.595760,0.374055,-0.026067,0.058722,0.088159,0.087885,-0.023158,0.504609,0.601098,0.433300,0.443060,95.657702,-5.471510,76.528662
40198,NaN,0.990573,9.817669,-0.764606,0.216040,-0.002112,0.082049,0.081619,0.077796,-0.025775,0.504244,0.601104,0.433742,0.443035,95.702723,-5.462608,76.571531
40199,NaN,0.905821,9.814439,-0.958972,0.016022,-0.041009,0.089909,0.092374,0.097734,-0.027136,0.503807,0.601090,0.434262,0.443041,95.752987,-5.454014,76.625870
40200,NaN,0.720381,9.806624,-1.050961,-0.108258,-0.200484,0.073739,0.081978,0.085044,-0.013501,0.503398,0.601107,0.434686,0.443068,95.797893,-5.452596,76.672193
40201,NaN,0.844944,9.722250,-1.212226,-0.233787,-0.036582,0.018364,0.101187,0.029498,-0.006528,0.503037,0.601311,0.434992,0.442901,95.857037,-5.451873,76.686270
40202,NaN,1.059131,9.804743,-1.209824,-0.165787,0.158212,0.120383,0.111675,0.053491,-0.004108,0.502586,0.601493,0.435373,0.442792,95.920733,-5.454039,76.713975
40203,NaN,1.011795,9.727162,-1.071539,-0.039679,0.087829,0.025011,0.086521,0.118058,0.002146,0.502056,0.601482,0.435842,0.442945,95.966699,-5.463541,76.778235
40204,NaN,0.976382,9.798569,-0.985454,0.049743,0.023024,0.083443,0.106042,0.100059,0.000089,0.501511,0.601555,0.436315,0.442998,96.024651,-5.470940,76.832341
40205,NaN,0.977582,9.881507,-0.938571,0.110916,0.000944,0.160699,0.092075,0.108263,0.002764,0.500984,0.601580,0.436770,0.443111,96.074320,-5.480321,76.890941
40206,NaN,0.945317,9.842822,-0.834078,0.208444,-0.051474,0.108217,0.062356,0.111385,0.004003,0.500537,0.601527,0.437162,0.443303,96.106627,-5.490727,76.951279
40207,NaN,0.906483,9.773512,-0.928006,0.107523,-0.063423,0.045754,0.047594,0.050957,0.005755,0.500262,0.601574,0.437366,0.443348,96.133949,-5.498384,76.976889
40208,NaN,0.981615,9.783907,-1.120596,-0.057576,0.047153,0.083706,0.044822,0.033683,0.007123,0.500030,0.601655,0.437516,0.443351,96.160470,-5.505859,76.992558
40209,NaN,0.821212,9.832936,-1.156599,-0.120888,-0.109281,0.120700,0.035775,0.062249,0.017031,0.499741,0.601673,0.437687,0.443484,96.180460,-5.520656,77.023927
40210,NaN,0.778829,9.778848,-1.218196,-0.192092,-0.134456,0.069695,0.028611,0.017151,0.027143,0.499550,0.601794,0.437699,0.443524,96.198721,-5.538522,77.028887
40211,NaN,0.942555,9.705629,-1.196886,-0.138264,0.024186,0.010779,0.036442,0.013453,0.036964,0.499321,0.601965,0.437690,0.443558,96.221894,-5.561671,77.031081
40212,NaN,1.015173,9.838533,-1.081135,0.005077,0.048811,0.136873,0.054737,0.047217,0.043632,0.498949,0.602120,0.437786,0.443672,96.253557,-5.590800,77.052201
40213,NaN,0.975924,9.830880,-0.912737,0.162120,-0.030143,0.107218,0.031199,0.076477,0.045395,0.498579,0.602157,0.437897,0.443929,96.270254,-5.622691,77.089911
40214,NaN,0.997655,9.734586,-0.942905,0.131749,0.002798,0.017327,0.044214,0.059972,0.045941,0.498205,0.602262,0.437994,0.444110,96.295161,-5.653952,77.118165
40215,NaN,1.028405,9.824843,-0.989080,0.104931,0.025197,0.114638,0.057327,0.071602,0.046583,0.497764,0.602377,0.438147,0.444297,96.327072,-5.686245,77.152987
40216,NaN,1.010307,9.827675,-0.999732,0.094740,0.002971,0.116783,0.055076,0.082951,0.045067,0.497309,0.602457,0.438327,0.444521,96.356859,-5.718492,77.194418
40217,NaN,0.960601,9.803984,-1.002308,0.083064,-0.048713,0.088636,0.058176,0.095885,0.050811,0.496803,0.602528,0.438530,0.444790,96.387857,-5.754774,77.242836
40218,NaN,0.903007,9.821988,-1.047450,0.032269,-0.104296,0.105584,0.060134,0.065309,0.045933,0.496369,0.602661,0.438675,0.444951,96.421514,-5.786431,77.274086
40219,NaN,0.997646,9.724243,-1.164813,-0.064899,0.017015,0.031523,0.062453,0.043557,0.053549,0.495958,0.602865,0.438749,0.445060,96.457956,-5.820966,77.292343
40220,NaN,1.061416,9.756053,-1.275711,-0.150977,0.090712,0.081936,0.066981,0.041672,0.053866,0.495538,0.603085,0.438826,0.445155,96.496932,-5.855648,77.309514
40221,NaN,1.118325,9.743718,-1.188747,-0.050184,0.121944,0.065896,0.064965,0.064924,0.055919,0.495067,0.603253,0.438951,0.445328,96.533560,-5.892945,77.339801
40222,NaN,1.079424,9.773153,-1.197887,-0.060626,0.074987,0.092125,0.058532,0.075607,0.050551,0.494604,0.603368,0.439103,0.445535,96.565662,-5.927982,77.376567
40223,NaN,1.137883,9.699525,-1.156614,-0.010274,0.125204,0.020803,0.062251,0.087741,0.051537,0.494101,0.603469,0.439292,0.445772,96.599318,-5.964319,77.420160
40224,NaN,1.098794,9.897948,-1.056897,0.100864,0.034527,0.201422,0.079141,0.119092,0.045062,0.493493,0.603526,0.439614,0.446051,96.640558,-5.999152,77.482136
40225,NaN,1.006513,9.879364,-0.990995,0.147141,-0.073176,0.165788,0.039765,0.121081,0.047653,0.492993,0.603487,0.439846,0.446428,96.659254,-6.035541,77.545031
40226,NaN,0.964033,9.694324,-1.123487,-0.005594,-0.070683,-0.006237,0.040214,0.097961,0.045448,0.492547,0.603496,0.440027,0.446729,96.679390,-6.069240,77.594867
40227,NaN,0.910343,9.794198,-1.032626,0.083589,-0.160366,0.076127,0.057706,0.079518,0.046454,0.492086,0.603591,0.440200,0.446938,96.710806,-6.102220,77.634036
40228,NaN,0.858439,9.796713,-1.107646,0.003020,-0.202630,0.081670,0.036915,0.056637,0.050648,0.491729,0.603695,0.440256,0.447134,96.731554,-6.136147,77.659849
40229,NaN,0.880222,9.615386,-1.191619,-0.088156,-0.147711,-0.085365,0.036730,0.010720,0.053986,0.491466,0.603909,0.440190,0.447200,96.755183,-6.168817,77.659112
40230,NaN,1.178662,9.763098,-1.241533,-0.055462,0.126673,0.098397,0.062988,-0.024976,0.051864,0.491208,0.604262,0.440101,0.447095,96.795885,-6.197937,77.638107
40231,NaN,1.172806,9.842040,-1.250510,-0.053976,0.106309,0.176846,0.036593,0.041698,0.046544,0.490894,0.604389,0.440132,0.447236,96.817467,-6.228476,77.655571
40232,NaN,1.111572,9.765766,-1.244971,-0.067024,0.049957,0.094318,0.018975,0.033533,0.045799,0.490653,0.604490,0.440106,0.447391,96.829293,-6.258114,77.668438
40233,NaN,1.221720,9.825136,-1.220175,-0.012506,0.139015,0.162043,0.029460,0.032635,0.037773,0.490399,0.604601,0.440126,0.447498,96.847273,-6.283054,77.681302
40234,NaN,1.100628,9.850447,-1.119096,0.063187,-0.006755,0.161831,0.005501,0.070447,0.035837,0.490140,0.604564,0.440191,0.447769,96.848979,-6.309555,77.715969
40235,NaN,0.927657,9.730447,-1.107245,0.025801,-0.165758,0.022962,-0.008144,0.040645,0.041491,0.489975,0.604573,0.440135,0.447993,96.844925,-6.337160,77.733159
40236,NaN,0.967520,9.632774,-1.207483,-0.073162,-0.098522,-0.057208,0.005389,-0.000366,0.038280,0.489866,0.604699,0.440018,0.448056,96.851034,-6.360209,77.727130
40237,NaN,1.099779,9.688240,-1.175550,-0.008018,0.012406,0.008372,0.017194,-0.023722,0.033025,0.489784,0.604896,0.439887,0.448009,96.865507,-6.378597,77.708056
40238,NaN,1.244013,9.819780,-1.142292,0.068788,0.125127,0.150248,0.013297,-0.028486,0.025420,0.489742,0.605076,0.439758,0.447938,96.877846,-6.392399,77.686808
40239,NaN,1.165438,9.766026,-0.971084,0.213780,0.019431,0.068124,-0.014149,0.003298,0.023534,0.489717,0.605115,0.439651,0.448018,96.872575,-6.407235,77.683848
40240,NaN,1.122507,9.712192,-1.029489,0.142493,-0.005591,0.017176,0.002703,-0.036232,0.019487,0.489738,0.605273,0.439497,0.447932,96.879300,-6.417132,77.658575
40241,NaN,1.110180,9.794760,-1.115082,0.064842,-0.013674,0.107435,0.001119,-0.009690,0.020481,0.489702,0.605372,0.439403,0.447932,96.883586,-6.429341,77.648390
40242,NaN,0.997957,9.789195,-1.073345,0.080964,-0.132838,0.084389,-0.002263,0.004839,0.028635,0.489626,0.605446,0.439310,0.448004,96.884909,-6.447259,77.645992
40243,NaN,0.918717,9.688899,-1.212426,-0.081406,-0.172069,-0.006947,-0.011861,-0.015628,0.042672,0.489593,0.605575,0.439105,0.448068,96.882320,-6.471682,77.630873
40244,NaN,0.960858,9.650129,-1.185845,-0.050749,-0.136177,-0.043689,0.010684,0.001007,0.056483,0.489425,0.605751,0.438948,0.448168,96.891528,-6.505171,77.624356
40245,NaN,0.957173,9.850479,-1.017320,0.130849,-0.207083,0.133319,0.006859,0.037166,0.066553,0.489165,0.605859,0.438841,0.448410,96.896435,-6.546806,77.637803
40246,NaN,1.062219,9.732893,-1.076100,0.083135,-0.084584,0.036243,-0.022179,-0.003203,0.076083,0.489061,0.606007,0.438540,0.448617,96.887254,-6.591148,77.627516
40247,NaN,1.298129,9.621256,-1.332419,-0.127895,0.203321,-0.016191,0.007752,-0.021030,0.077497,0.488902,0.606271,0.438260,0.448707,96.896577,-6.635006,77.606885
40248,NaN,1.286943,9.790963,-1.150827,0.062727,0.124812,0.128342,0.031109,0.040660,0.073769,0.488546,0.606446,0.438193,0.448925,96.915016,-6.681054,77.621863
40249,NaN,1.252020,9.844097,-1.148337,0.062658,0.074963,0.176453,0.000172,0.023824,0.074356,0.488318,0.606584,0.438015,0.449159,96.917007,-6.726211,77.627116
40250,NaN,1.246475,9.730943,-1.269011,-0.067896,0.101433,0.078745,0.001641,0.048589,0.075492,0.488030,0.606673,0.437896,0.449470,96.918018,-6.773792,77.646510
40251,NaN,1.074513,9.783813,-1.230041,-0.062940,-0.089129,0.105915,0.013272,0.091009,0.079430,0.487604,0.606703,0.437895,0.449892,96.922991,-6.826474,77.689892
40252,NaN,1.140079,9.778938,-1.158778,0.018474,-0.047598,0.100313,0.001377,0.048379,0.076990,0.487313,0.606794,0.437770,0.450205,96.923847,-6.874893,77.709060
40253,NaN,1.217148,9.680546,-1.194114,-0.010063,0.039736,0.016791,0.007244,0.047614,0.079292,0.487000,0.606907,0.437650,0.450508,96.928277,-6.924503,77.727594
40254,NaN,1.163064,9.735429,-1.117312,0.058340,-0.044353,0.055155,0.032324,0.065179,0.076450,0.486579,0.607034,0.437637,0.450803,96.945664,-6.973782,77.756418
40255,NaN,1.078265,9.751180,-1.145742,0.016265,-0.132167,0.063706,0.042923,0.017240,0.078019,0.486228,0.607299,0.437528,0.450933,96.972617,-7.020570,77.757611
40256,NaN,1.416211,9.722498,-1.157070,0.077337,0.193677,0.078113,0.052966,-0.019269,0.067291,0.485950,0.607646,0.437384,0.450904,97.007642,-7.058775,77.738649
40257,NaN,1.337410,9.781533,-1.090577,0.135143,0.087700,0.118600,0.056469,0.049768,0.064943,0.485515,0.607842,0.437423,0.451071,97.039950,-7.100408,77.759352
40258,NaN,1.198573,9.737087,-1.156667,0.040657,-0.035167,0.065695,0.038305,0.025233,0.059849,0.485200,0.608037,0.437377,0.451191,97.063379,-7.137496,77.766374
40259,NaN,1.379135,9.696764,-1.168932,0.066399,0.141433,0.049930,0.054578,0.016092,0.051381,0.484875,0.608274,0.437371,0.451226,97.096864,-7.169059,77.768707
40260,NaN,1.366707,9.794086,-1.228791,0.018550,0.120015,0.151608,0.054504,0.096634,0.047177,0.484384,0.608319,0.437573,0.451498,97.124338,-7.204016,77.817515
40261,NaN,1.077187,9.734158,-1.134596,0.046898,-0.176823,0.044696,0.046454,0.107271,0.043007,0.483903,0.608312,0.437795,0.451807,97.146527,-7.237309,77.872668
40262,NaN,1.131441,9.685328,-1.165404,0.028449,-0.117135,0.007158,0.083139,0.036787,0.037114,0.483478,0.608539,0.437947,0.451809,97.194594,-7.262315,77.887876
40263,NaN,1.243858,9.838957,-1.276623,-0.033562,-0.015061,0.186346,0.094629,0.004430,0.028932,0.483107,0.608850,0.438072,0.451666,97.251672,-7.280283,77.885077
40264,NaN,1.435909,9.811995,-1.336717,-0.046541,0.182438,0.191733,0.073238,-0.009671,0.018783,0.482855,0.609118,0.438144,0.451504,97.297268,-7.291524,77.874962
40265,NaN,1.479953,9.694149,-1.392440,-0.096064,0.250864,0.088500,0.065318,-0.003208,0.001414,0.482652,0.609314,0.438268,0.451336,97.337856,-7.293292,77.869782
40266,NaN,1.581475,9.705919,-1.387606,-0.062068,0.345579,0.112438,0.067565,-0.004026,-0.014035,0.482479,0.609484,0.438442,0.451123,97.379491,-7.286291,77.865311
40267,NaN,1.539986,9.672744,-1.363750,-0.043889,0.305405,0.071550,0.072635,0.072203,-0.023052,0.482143,0.609474,0.438838,0.451110,97.418564,-7.279714,77.905144
40268,NaN,1.289937,9.752796,-1.159989,0.116979,0.011027,0.092499,0.080587,0.127429,-0.019342,0.481654,0.609367,0.439374,0.451256,97.458072,-7.279452,77.976370
40269,NaN,0.991081,9.758153,-1.103996,0.116555,-0.292575,0.052576,0.077275,0.163986,-0.001510,0.481053,0.609208,0.439936,0.451564,97.493339,-7.292009,78.067159
40270,NaN,0.823600,9.780374,-1.134749,0.061818,-0.456425,0.056939,0.098959,0.099337,0.011899,0.480499,0.609276,0.440350,0.451659,97.545688,-7.307482,78.119941
40271,NaN,1.099399,9.803612,-1.365441,-0.095350,-0.153386,0.144787,0.095789,0.045290,0.018551,0.480057,0.609473,0.440607,0.451612,97.600368,-7.322622,78.141218
40272,NaN,1.467244,9.699178,-1.549309,-0.202092,0.249743,0.113238,0.081707,0.033060,0.012925,0.479699,0.609651,0.440820,0.451545,97.647659,-7.333724,78.155949
40273,NaN,1.516522,9.712400,-1.535340,-0.169954,0.290266,0.130887,0.072752,0.044390,-0.005443,0.479383,0.609742,0.441096,0.451488,97.688965,-7.335205,78.178536
40274,NaN,1.564445,9.726144,-1.519547,-0.137837,0.330777,0.148536,0.049756,0.065428,-0.019741,0.479124,0.609698,0.441413,0.451512,97.715272,-7.330272,78.214308
40275,NaN,1.456662,9.704780,-1.431223,-0.072516,0.212583,0.102078,0.036915,0.111383,-0.017646,0.478798,0.609524,0.441806,0.451709,97.731033,-7.330006,78.276191
40276,NaN,1.154260,9.701171,-1.188739,0.104510,-0.126342,0.027600,0.036842,0.150897,-0.009913,0.478367,0.609278,0.442268,0.452046,97.743798,-7.337275,78.360124
40277,NaN,0.856373,9.792662,-1.078494,0.164851,-0.452077,0.064620,0.046640,0.111061,0.010435,0.477947,0.609190,0.442596,0.452287,97.765418,-7.352959,78.419636
40278,NaN,0.941226,9.794124,-1.187403,0.079381,-0.353429,0.091327,0.040021,0.020246,0.023439,0.477720,0.609319,0.442651,0.452298,97.789875,-7.369080,78.426178
40279,NaN,1.278034,9.774326,-1.376616,-0.036702,0.007708,0.140427,0.027480,-0.033215,0.030397,0.477633,0.609556,0.442530,0.452189,97.811290,-7.384924,78.401534
40280,NaN,1.389560,9.621969,-1.494096,-0.143813,0.157192,0.020934,0.002831,0.017106,0.029713,0.477512,0.609618,0.442475,0.452288,97.814729,-7.404360,78.405777
40281,NaN,1.327199,9.655997,-1.426477,-0.085824,0.075930,0.037259,0.020420,0.007537,0.023121,0.477373,0.609729,0.442458,0.452302,97.829031,-7.419242,78.405023
40282,NaN,1.435794,9.824379,-1.420290,-0.038748,0.152113,0.215897,0.005154,-0.002840,0.016013,0.477320,0.609812,0.442402,0.452302,97.835142,-7.429348,78.398921
40283,NaN,1.384941,9.678053,-1.508291,-0.151696,0.139060,0.077478,-0.031508,0.025273,0.022531,0.477301,0.609758,0.442311,0.452483,97.818372,-7.445280,78.408365
40284,NaN,1.201924,9.726058,-1.367236,-0.048573,-0.074460,0.081870,-0.014703,0.073627,0.026392,0.477115,0.609642,0.442361,0.452785,97.807539,-7.467239,78.445224
40285,NaN,0.950085,9.910459,-1.074908,0.202746,-0.404562,0.190837,-0.027930,0.067968,0.048512,0.476932,0.609558,0.442301,0.453150,97.789892,-7.501233,78.477084
40286,NaN,0.838478,9.847883,-1.237849,0.009831,-0.479509,0.136487,-0.060398,-0.008652,0.072243,0.476964,0.609621,0.441911,0.453411,97.759466,-7.542813,78.463266
40287,NaN,0.996766,9.665766,-1.423271,-0.165435,-0.270827,0.002890,-0.062866,-0.060582,0.095085,0.477066,0.609847,0.441323,0.453573,97.731925,-7.593292,78.417913
40288,NaN,1.269590,9.781967,-1.452138,-0.133172,-0.026250,0.156716,-0.059629,-0.092876,0.099949,0.477218,0.610164,0.440649,0.453642,97.708640,-7.644120,78.353736
40289,NaN,1.414177,9.757088,-1.486124,-0.147842,0.117094,0.155946,-0.105763,-0.087541,0.096767,0.477506,0.610352,0.439894,0.453819,97.658672,-7.693537,78.292851
40290,NaN,1.462592,9.617105,-1.532220,-0.207814,0.188608,0.030930,-0.116196,-0.096531,0.089055,0.477863,0.610517,0.439116,0.453974,97.603251,-7.737999,78.227479
40291,NaN,1.594555,9.625076,-1.504111,-0.162979,0.305140,0.052776,-0.105293,-0.076788,0.078189,0.478168,0.610640,0.438443,0.454139,97.552612,-7.777789,78.174254
40292,NaN,1.386028,9.806542,-1.432631,-0.127696,0.056126,0.193426,-0.110733,-0.031779,0.073494,0.478401,0.610636,0.437880,0.454442,97.495215,-7.818397,78.147253
40293,NaN,1.247207,9.752469,-1.219750,0.034183,-0.114463,0.093860,-0.122925,-0.020396,0.076561,0.478638,0.610585,0.437307,0.454813,97.430113,-7.861565,78.126559
40294,NaN,1.355178,9.851778,-1.224693,0.050192,-0.029559,0.206819,-0.100290,-0.081093,0.073543,0.478947,0.610718,0.436648,0.454942,97.382607,-7.898612,78.071347
40295,NaN,1.344067,9.865649,-1.324410,-0.058451,-0.028749,0.231582,-0.116073,-0.031955,0.077388,0.479187,0.610710,0.436060,0.455264,97.322370,-7.941441,78.044041
40296,NaN,1.245525,9.721460,-1.313663,-0.094427,-0.108380,0.074837,-0.124124,-0.008246,0.079949,0.479394,0.610634,0.435501,0.455683,97.255556,-7.987536,78.030228
40297,NaN,1.449477,9.712659,-1.183775,0.061533,0.061175,0.078244,-0.105647,-0.034526,0.069172,0.479625,0.610638,0.434955,0.455954,97.201443,-8.025568,78.002133
40298,NaN,1.460991,9.733417,-1.084594,0.151457,0.045394,0.088082,-0.107277,0.028228,0.069616,0.479725,0.610496,0.434554,0.456422,97.141253,-8.068425,78.010100
40299,NaN,1.409076,9.690109,-1.080818,0.129092,-0.003209,0.037956,-0.111576,-0.017663,0.064696,0.479948,0.610438,0.434048,0.456747,97.082365,-8.105165,77.992081
40300,NaN,1.596429,9.706573,-1.246399,-0.001537,0.202974,0.100861,-0.079747,-0.031026,0.054874,0.480125,0.610465,0.433612,0.456939,97.042580,-8.135456,77.967153
40301,NaN,1.554502,9.839760,-1.158668,0.078690,0.120296,0.215233,-0.087489,0.042489,0.049939,0.480178,0.610294,0.433351,0.457359,96.992457,-8.168044,77.984792
40302,NaN,1.393990,9.739720,-1.184918,0.001705,-0.017341,0.097362,-0.085927,0.017654,0.047712,0.480285,0.610179,0.433039,0.457696,96.945099,-8.197687,77.988379
40303,NaN,1.402967,9.873227,-1.187638,0.004863,-0.033317,0.230134,-0.062883,0.021445,0.042460,0.480324,0.610100,0.432806,0.457980,96.910701,-8.224540,77.994501
40304,NaN,1.277750,9.821463,-1.214577,-0.059986,-0.144515,0.164511,-0.086470,0.053604,0.048799,0.480352,0.609903,0.432576,0.458430,96.860074,-8.257264,78.018718
40305,NaN,1.245022,9.776756,-1.287353,-0.150785,-0.158705,0.124334,-0.087241,-0.009660,0.052440,0.480511,0.609858,0.432181,0.458696,96.814378,-8.287663,78.006315
40306,NaN,1.600583,9.741688,-1.356319,-0.157249,0.201365,0.149072,-0.100619,-0.015192,0.044772,0.480740,0.609776,0.431766,0.458957,96.761279,-8.313391,77.991314
40307,NaN,1.696931,9.723267,-1.319914,-0.114064,0.288461,0.140575,-0.107525,0.043009,0.037613,0.480880,0.609528,0.431496,0.459392,96.699433,-8.338913,78.010261
40308,NaN,1.541790,9.816079,-1.226385,-0.058741,0.103280,0.198427,-0.113384,0.059894,0.033231,0.481012,0.609218,0.431267,0.459881,96.632651,-8.363110,78.039279
40309,NaN,1.558351,9.808447,-1.266117,-0.107343,0.126889,0.197783,-0.125402,0.051196,0.025234,0.481217,0.608881,0.431014,0.460349,96.559732,-8.382081,78.063822
40310,NaN,1.489727,9.836432,-1.161163,-0.030135,0.035017,0.203341,-0.127050,0.078865,0.029594,0.481357,0.608486,0.430809,0.460916,96.483471,-8.405372,78.104057
40311,NaN,1.413107,9.892054,-0.913875,0.185637,-0.096309,0.219313,-0.137691,0.090148,0.032980,0.481498,0.608047,0.430597,0.461547,96.400275,-8.431191,78.150570
40312,NaN,1.218200,9.917371,-0.907023,0.139239,-0.292402,0.215076,-0.150104,0.063421,0.048556,0.481697,0.607672,0.430244,0.462162,96.312236,-8.464189,78.180776
40313,NaN,0.978153,10.035982,-1.210691,-0.213552,-0.490799,0.329155,-0.166836,0.035844,0.071148,0.481954,0.607369,0.429717,0.462782,96.217245,-8.508208,78.193693
40314,NaN,1.248887,10.036045,-1.479718,-0.440075,-0.182505,0.397331,-0.190909,-0.054610,0.088206,0.482438,0.607252,0.428864,0.463221,96.116216,-8.556419,78.153565
40315,NaN,1.696116,10.024135,-1.552475,-0.442494,0.261110,0.458936,-0.219159,0.005598,0.098798,0.482854,0.606951,0.428058,0.463927,95.994053,-8.614318,78.147531
40316,NaN,1.662786,9.970920,-1.508078,-0.434920,0.223913,0.396085,-0.243611,0.098353,0.092062,0.483161,0.606360,0.427439,0.464951,95.849672,-8.673937,78.195540
40317,NaN,1.628231,10.012361,-1.294191,-0.257531,0.138318,0.409246,-0.249882,0.103441,0.084135,0.483493,0.605724,0.426842,0.465983,95.701210,-8.729147,78.247070
40318,NaN,1.749598,9.966404,-1.242171,-0.214041,0.250190,0.376758,-0.273092,0.102989,0.071019,0.483925,0.605003,0.426227,0.467031,95.539217,-8.776785,78.299280
40319,NaN,1.775935,10.066693,-1.200322,-0.191187,0.248465,0.474910,-0.259970,0.166693,0.060702,0.484206,0.604142,0.425829,0.468217,95.379057,-8.821795,78.388930
40320,NaN,1.557198,10.170431,-1.026059,-0.088934,-0.014924,0.526902,-0.281318,0.211443,0.049548,0.484480,0.603099,0.425520,0.469556,95.202443,-8.862647,78.505205
40321,NaN,1.474514,10.094358,-0.834813,0.044937,-0.118036,0.422113,-0.297577,0.181970,0.046480,0.484872,0.602078,0.425110,0.470831,95.019087,-8.899782,78.604708
40322,NaN,1.468165,10.131485,-0.822766,0.025806,-0.132724,0.456737,-0.276610,0.165052,0.043692,0.485241,0.601140,0.424716,0.472004,94.849092,-8.934304,78.694754
40323,NaN,1.298545,10.242629,-0.817392,-0.028010,-0.316747,0.539346,-0.299603,0.211202,0.043687,0.485581,0.600036,0.424378,0.473362,94.661764,-8.970622,78.811540
40324,NaN,1.295855,10.129212,-1.020165,-0.267546,-0.263528,0.443032,-0.326276,0.183045,0.046883,0.486051,0.598938,0.423898,0.474699,94.461561,-9.007196,78.912079
40325,NaN,1.567495,10.262792,-1.251112,-0.471701,0.018601,0.633568,-0.308761,0.202424,0.045491,0.486429,0.597831,0.423509,0.476051,94.269606,-9.043376,79.023979
40326,NaN,1.644877,10.546210,-1.140291,-0.374007,0.025315,0.915210,-0.330813,0.306107,0.050239,0.486640,0.596432,0.423304,0.477770,94.055442,-9.086249,79.195842
40327,NaN,1.459028,10.532382,-1.068208,-0.381597,-0.166904,0.865666,-0.383366,0.362324,0.061708,0.486859,0.594791,0.423073,0.479792,93.805969,-9.137139,79.399966
40328,NaN,1.420977,10.596990,-1.159830,-0.520456,-0.202152,0.927363,-0.342044,0.330227,0.079991,0.486976,0.593363,0.422806,0.481673,93.582958,-9.196505,79.585076
40329,NaN,1.284372,11.140491,-0.974957,-0.386790,-0.464731,1.427640,-0.305083,0.400326,0.110888,0.486758,0.591918,0.422705,0.483756,93.374569,-9.275252,79.809959
40330,NaN,1.079305,11.433239,-0.996195,-0.478745,-0.722578,1.681865,-0.346286,0.388061,0.177507,0.486523,0.590539,0.422275,0.486049,93.143608,-9.390876,80.025909
40331,NaN,0.725248,11.630542,-0.753818,-0.341138,-1.160533,1.801971,-0.317841,0.454681,0.246285,0.485892,0.589207,0.421869,0.488641,92.922379,-9.547009,80.278925
40332,NaN,0.423719,11.749725,-0.466864,-0.153714,-1.547997,1.850645,-0.374951,0.432387,0.314403,0.485306,0.587929,0.421064,0.491449,92.669997,-9.740455,80.517859
40333,NaN,0.536353,11.607375,-0.419059,-0.143287,-1.456570,1.722127,-0.388689,0.367635,0.400701,0.484679,0.586953,0.419810,0.494300,92.415532,-9.980621,80.717959
40334,NaN,0.505444,11.616191,-0.432139,-0.215369,-1.530808,1.719350,-0.388548,0.380072,0.482811,0.483816,0.586110,0.418342,0.497380,92.159052,-10.267134,80.924644
40335,NaN,0.593297,11.756059,-0.345299,-0.171570,-1.538646,1.861160,-0.401679,0.352575,0.571990,0.482821,0.585484,0.416506,0.500615,91.896935,-10.603294,81.114990
40336,NaN,0.638664,11.860410,-0.520193,-0.398312,-1.553732,1.967564,-0.425698,0.339557,0.665384,0.481682,0.585015,0.414299,0.504079,91.621231,-10.991713,81.297916
40337,NaN,0.650009,11.923580,-0.587003,-0.528545,-1.621315,2.020735,-0.446904,0.364190,0.744932,0.480343,0.584587,0.411856,0.507841,91.329128,-11.425278,81.496233
40338,NaN,0.644550,11.995871,-0.717328,-0.729225,-1.708541,2.077597,-0.476121,0.372522,0.830890,0.478844,0.584230,0.409099,0.511881,91.017394,-11.906980,81.701054
40339,NaN,0.609562,12.003065,-0.861294,-0.952635,-1.819135,2.060342,-0.516539,0.372617,0.901945,0.477266,0.583906,0.406019,0.516160,90.680223,-12.428415,81.908471
40340,NaN,0.588759,11.908549,-0.955408,-1.128060,-1.908491,1.941314,-0.556090,0.410000,0.963676,0.475553,0.583496,0.402733,0.520758,90.312906,-12.983918,82.141246
40341,NaN,0.712279,11.840469,-1.028509,-1.267653,-1.873694,1.876728,-0.580422,0.406806,1.035878,0.473711,0.583160,0.399149,0.525548,89.928843,-13.579515,82.376326
40342,NaN,0.792998,11.582699,-1.143267,-1.452185,-1.835820,1.615953,-0.632610,0.404117,1.093148,0.471858,0.582798,0.395241,0.530548,89.511636,-14.206021,82.614868
40343,NaN,1.124379,11.353673,-1.236266,-1.586169,-1.568461,1.444331,-0.634876,0.434992,1.137648,0.469810,0.582411,0.391249,0.535724,89.084495,-14.856378,82.877451
40344,NaN,1.024294,11.127485,-1.345690,-1.787832,-1.714873,1.166466,-0.636675,0.544592,1.161546,0.467467,0.581743,0.387424,0.541251,88.634821,-15.516857,83.211294
40345,NaN,1.059407,11.065865,-0.757419,-1.285536,-1.858897,1.097832,-0.599513,0.529904,1.148192,0.465056,0.581147,0.383682,0.546607,88.203399,-16.167778,83.542532
40346,NaN,1.410091,10.560124,-0.475230,-1.024600,-1.535093,0.690756,-0.693536,0.379830,1.140149,0.463206,0.580699,0.379342,0.551660,87.738305,-16.814207,83.790327
40347,NaN,1.941861,9.626477,-0.592188,-1.109568,-0.858040,-0.075048,-0.731754,0.321956,1.152226,0.461520,0.580317,0.374706,0.556620,87.256724,-17.467428,84.010250
40348,NaN,2.576406,8.992754,-0.456793,-0.946167,-0.187484,-0.496872,-0.676667,0.295688,1.145232,0.459723,0.580094,0.370168,0.561356,86.807436,-18.115241,84.220461
40349,NaN,3.692554,8.791961,-0.124382,-0.566241,0.789166,-0.325626,-0.590113,0.104677,1.149965,0.457993,0.580591,0.365402,0.565366,86.439898,-18.771220,84.321385
40350,NaN,4.120562,8.767608,-0.840017,-1.297505,1.182939,-0.248611,-0.535041,0.031662,1.136556,0.456257,0.581370,0.360650,0.569008,86.116146,-19.421212,84.382106
40351,NaN,3.958723,8.514696,-0.607690,-1.121827,0.988155,-0.522651,-0.584087,0.204668,1.059330,0.454552,0.581385,0.356361,0.573045,85.727632,-20.020097,84.549123
40352,NaN,3.711374,7.853182,0.102937,-0.436980,0.807080,-1.174738,-0.639915,0.155247,0.976870,0.453319,0.581246,0.352030,0.576827,85.315843,-20.572566,84.687072
40353,NaN,3.734292,7.270856,-0.087706,-0.614514,0.977734,-1.720481,-0.587115,-0.075858,0.895535,0.452558,0.581732,0.347550,0.579645,84.983022,-21.089355,84.684067
40354,NaN,3.511489,6.836638,-0.644722,-1.178681,0.930607,-2.247628,-0.563381,-0.029029,0.785806,0.451954,0.581930,0.343557,0.582292,84.654716,-21.540735,84.706725
40355,NaN,2.107435,5.967895,-0.864845,-1.451035,-0.076319,-3.592284,-0.610384,0.220144,0.595249,0.451602,0.580957,0.340535,0.585303,84.245533,-21.869874,84.874265
40356,NaN,0.352616,5.074159,-1.233360,-1.878058,-1.352462,-5.118409,-0.550788,0.123993,0.358273,0.451929,0.579988,0.338156,0.587388,83.896863,-22.068247,84.970105
40357,NaN,-0.484616,4.384300,-1.717634,-2.351413,-1.818689,-6.128885,-0.410248,-0.141462,0.117417,0.453000,0.579704,0.336283,0.587919,83.695246,-22.145804,84.887913
40358,NaN,-0.871635,3.946420,-1.897582,-2.512671,-1.986174,-6.702001,-0.286081,-0.198149,-0.133370,0.454543,0.579444,0.335375,0.587503,83.584661,-22.083934,84.753744
40359,NaN,-1.503627,4.053094,-1.884796,-2.578519,-2.594823,-6.836278,-0.131584,-0.237484,-0.372806,0.456404,0.579246,0.335521,0.586170,83.577154,-21.888811,84.579112
40360,NaN,-1.982908,4.590985,-1.568386,-2.393016,-3.251066,-6.470106,0.073353,-0.417143,-0.554875,0.458504,0.579732,0.336386,0.583549,83.732032,-21.600668,84.282280
40361,NaN,-1.952776,5.032919,-1.464126,-2.354562,-3.362135,-6.012798,0.175829,-0.677877,-0.718889,0.461215,0.580927,0.337417,0.579617,84.005131,-21.234527,83.817148
40362,NaN,-1.715915,5.202661,-1.753351,-2.637787,-3.116653,-5.761206,0.343752,-0.890127,-0.863217,0.464200,0.582861,0.338858,0.574427,84.420289,-20.795150,83.216875
40363,NaN,-1.515684,5.897029,-1.700245,-2.646589,-3.119800,-4.993461,0.501347,-1.026622,-1.001328,0.467329,0.585290,0.340815,0.568229,84.950456,-20.280247,82.531628
40364,NaN,-1.238784,6.418268,-1.715671,-2.672983,-2.963310,-4.358751,0.538277,-1.243198,-1.137494,0.471075,0.588149,0.342753,0.560972,85.540808,-19.690876,81.715493
40365,NaN,-1.075098,6.560355,-2.234068,-3.145515,-2.683413,-4.147972,0.588002,-1.335424,-1.280852,0.475194,0.591087,0.344998,0.552977,86.167935,-19.016036,80.847338
40366,NaN,-1.041429,6.967366,-2.283518,-3.191865,-2.670475,-3.687151,0.722458,-1.319692,-1.422395,0.479233,0.593997,0.348043,0.544399,86.857192,-18.249465,79.995204
40367,NaN,-0.882414,7.576353,-2.071316,-2.960923,-2.632921,-2.973922,0.838976,-1.406895,-1.543881,0.483350,0.597142,0.351510,0.535010,87.614033,-17.406520,79.101531
40368,NaN,-0.387505,8.055119,-2.010656,-2.775655,-2.193555,-2.292097,0.899208,-1.451163,-1.652026,0.487591,0.600281,0.355313,0.525042,88.396616,-16.490191,78.195046
40369,NaN,-0.033679,8.479304,-1.947566,-2.576928,-1.852781,-1.712305,0.961018,-1.366307,-1.776202,0.491750,0.603040,0.359800,0.514848,89.181085,-15.490924,77.355399
40370,NaN,0.166587,9.003596,-2.011625,-2.510901,-1.633195,-1.085537,1.024298,-1.279504,-1.911299,0.495835,0.605396,0.365022,0.504383,89.969866,-14.401816,76.584879
40371,NaN,0.552303,9.693508,-2.008387,-2.314064,-1.267274,-0.255663,1.087454,-1.230697,-2.034477,0.499868,0.607460,0.370830,0.493569,90.767801,-13.233199,75.863351
40372,NaN,0.898792,10.266613,-2.093266,-2.169089,-0.861228,0.441103,1.109739,-1.091338,-2.110950,0.503679,0.608990,0.377217,0.482852,91.542124,-12.011726,75.244317
40373,NaN,0.985330,10.631813,-2.148011,-2.028778,-0.643126,0.868337,1.100420,-0.855034,-2.159574,0.507103,0.609731,0.384254,0.472678,92.266100,-10.760282,74.783662
40374,NaN,0.970563,10.880157,-1.961153,-1.667555,-0.547953,1.145337,1.110813,-0.692922,-2.187495,0.510168,0.609962,0.391756,0.462820,92.967003,-9.490374,74.435540
40375,NaN,0.998283,11.023956,-2.030328,-1.533701,-0.322807,1.331062,1.148346,-0.549098,-2.196325,0.512773,0.609839,0.399667,0.453239,93.665563,-8.217305,74.188190
40376,NaN,1.140157,11.207788,-2.032777,-1.295230,-0.007980,1.561052,1.171980,-0.403108,-2.218584,0.514984,0.609304,0.408018,0.443916,94.359604,-6.933255,74.042134
40377,NaN,1.240924,11.487980,-1.914534,-0.938217,0.227557,1.859489,1.219390,-0.230254,-2.212097,0.516599,0.608422,0.416826,0.434977,95.064166,-5.660614,74.011429
40378,NaN,1.277963,11.759470,-1.667033,-0.465638,0.375315,2.117621,1.218926,-0.061018,-2.202136,0.517759,0.607094,0.425980,0.426501,95.758771,-4.401282,74.092583
40379,NaN,1.427248,11.802745,-1.561523,-0.112669,0.696931,2.157047,1.205445,0.003979,-2.183957,0.518701,0.605536,0.435144,0.418240,96.443247,-3.158570,74.224940
40380,NaN,1.663342,11.912137,-1.603596,0.127251,1.135963,2.267190,1.214417,0.071480,-2.160471,0.519340,0.603817,0.444372,0.410151,97.134240,-1.934250,74.408771
40381,NaN,1.851028,12.069913,-1.515312,0.483974,1.491249,2.391416,1.220395,0.174799,-2.117956,0.519565,0.601905,0.453676,0.402419,97.830063,-0.745318,74.662937
40382,NaN,1.861688,12.331860,-1.387067,0.846249,1.660730,2.596319,1.227574,0.266697,-2.053237,0.519353,0.599885,0.462979,0.395045,98.535816,0.397378,74.978291
40383,NaN,2.117165,12.532185,-1.021764,1.491237,2.007709,2.690135,1.230233,0.332415,-1.969182,0.518741,0.597852,0.472133,0.388035,99.249109,1.481521,75.337665
40384,NaN,2.761994,12.568475,-0.734845,2.126247,2.751605,2.598461,1.198255,0.364637,-1.868302,0.517884,0.595832,0.480952,0.381398,99.952267,2.502147,75.719087
40385,NaN,3.501201,12.893707,-0.945740,2.349551,3.703169,2.842771,1.239916,0.432136,-1.748560,0.516449,0.594007,0.489602,0.375134,100.687008,3.442409,76.139436
40386,NaN,4.566825,13.716376,-0.049460,3.808792,4.697081,3.318234,1.391232,0.411992,-1.568180,0.514215,0.592982,0.497898,0.368853,101.514521,4.278604,76.541648
40387,NaN,5.592729,13.659999,1.385702,5.560923,5.502728,2.780401,0.953976,0.425015,-1.350907,0.512796,0.591294,0.504723,0.364233,102.095499,4.985485,76.936350
40388,NaN,5.685901,13.226074,1.139914,5.348810,5.778478,2.293298,0.640198,0.572145,-1.070120,0.511391,0.589208,0.510499,0.361529,102.506634,5.514519,77.385829
40389,NaN,5.973121,12.613392,1.954763,6.099063,5.951407,1.411292,0.552827,0.523302,-0.790592,0.509844,0.587676,0.515144,0.359614,102.864698,5.889703,77.776435
40390,NaN,6.413982,12.301392,1.806478,6.019103,6.472935,1.031558,0.475471,0.382362,-0.490648,0.508335,0.586961,0.518401,0.358234,103.168932,6.113874,78.051388
40391,NaN,6.772995,11.874810,1.902255,6.107982,6.816274,0.518526,0.368319,0.368441,-0.188653,0.506631,0.586774,0.520536,0.357860,103.406894,6.169693,78.279672
40392,NaN,6.438524,11.801789,2.699157,6.791530,6.319901,0.284650,0.303115,0.418422,0.093529,0.504479,0.587063,0.521850,0.358511,103.606755,6.060983,78.498181
40393,NaN,5.934613,12.171712,4.245665,8.258825,5.492103,0.337405,0.235259,0.258666,0.369626,0.502445,0.588183,0.521824,0.359568,103.753480,5.819326,78.589258
40394,NaN,6.079061,12.819892,5.200495,9.365448,5.395747,0.747771,0.071382,-0.171264,0.626348,0.501548,0.590330,0.519664,0.360429,103.778858,5.493278,78.404323
40395,NaN,3.629393,13.629478,5.179301,9.053362,2.947236,1.810978,-0.085948,-0.083532,0.802347,0.500565,0.592373,0.516913,0.362395,103.717432,5.057281,78.244579
40396,NaN,-0.247295,13.367055,4.536680,7.541136,-0.788366,2.096530,-0.566157,0.402726,0.747438,0.499835,0.592179,0.514660,0.366898,103.405656,4.585823,78.365576
40397,NaN,-6.023099,10.945089,-0.154005,1.267104,-5.558629,1.304494,-0.789153,0.721503,0.684614,0.499045,0.590660,0.512965,0.372749,102.979545,4.108712,78.676108
40398,NaN,-8.320367,8.426234,-1.383506,-0.999878,-7.672163,-0.741771,-0.773074,0.497416,0.603822,0.498915,0.589372,0.510960,0.377683,102.552421,3.707312,78.874773
40399,NaN,-5.813148,6.220129,-2.143696,-1.794091,-5.142221,-2.926720,-0.168695,-0.636172,0.626639,0.499844,0.591775,0.507189,0.377779,102.431009,3.434710,78.437086
40400,NaN,-1.302596,7.561207,-3.346177,-1.745105,-0.477996,-1.640088,0.856139,-1.193191,0.621903,0.499143,0.597753,0.503955,0.373600,102.880212,3.236016,77.687417
40401,NaN,2.332009,12.363015,-2.690436,0.848470,2.898016,2.693316,1.066888,-0.765827,0.655797,0.496640,0.603510,0.502049,0.370230,103.466025,2.969292,77.170474
40402,NaN,3.758668,14.292697,-2.585293,1.799130,4.160583,4.489210,0.120701,-0.240999,0.732768,0.495517,0.606117,0.499445,0.370997,103.526043,2.592469,76.934636
40403,NaN,2.459815,10.688249,-2.986447,0.237699,2.941928,1.164376,-0.548169,0.115196,0.712486,0.495559,0.606346,0.496536,0.374456,103.213074,2.179194,76.901105
40404,NaN,0.077259,7.553196,-3.671315,-1.734820,0.775066,-1.631941,-0.430473,0.189162,0.619151,0.495227,0.606485,0.494304,0.377611,102.969490,1.808176,76.923033
40405,NaN,-0.393653,6.974621,-4.060944,-2.362134,0.384092,-2.094895,0.129288,-0.278238,0.451844,0.494662,0.608473,0.492473,0.377546,103.039637,1.590929,76.706035
40406,NaN,1.586556,9.232561,-3.611303,-0.945953,2.124567,-0.045907,0.472991,-0.290627,0.292718,0.493378,0.610936,0.491740,0.376200,103.307578,1.464636,76.502300
40407,NaN,2.278703,11.102879,-2.887919,0.356894,2.542427,1.598494,0.184288,0.252727,0.217159,0.491779,0.611476,0.492033,0.377034,103.418307,1.309263,76.611136
40408,NaN,0.623517,10.230529,-1.545869,1.037341,0.621969,0.481933,-0.069071,0.613240,0.174219,0.490145,0.610603,0.492861,0.379486,103.387840,1.129717,76.926549
40409,NaN,-1.036531,9.328975,-0.374069,1.559869,-1.247828,-0.633700,0.075054,0.449490,0.130466,0.488554,0.610281,0.493692,0.380972,103.437614,0.996414,77.156442
40410,NaN,-1.091530,9.738032,0.103893,2.109862,-1.437807,-0.351576,0.268670,0.025394,0.116670,0.487443,0.611204,0.493895,0.380652,103.593821,0.927027,77.151657
40411,NaN,-0.584467,10.207483,-0.666667,1.624530,-0.809756,0.271155,0.261858,-0.112160,0.141568,0.486644,0.612432,0.493674,0.379987,103.745034,0.862564,77.066711
40412,NaN,-0.649705,10.104907,-1.692725,0.636904,-0.663448,0.412316,0.256763,-0.123091,0.183007,0.485808,0.613769,0.493287,0.379403,103.893048,0.776639,76.969866
40413,NaN,-0.663360,9.989000,-2.113136,0.230209,-0.600494,0.398671,0.262012,-0.207651,0.206511,0.485118,0.615335,0.492632,0.378600,104.043790,0.689717,76.822506
40414,NaN,-0.322197,9.819394,-2.350375,0.062337,-0.227753,0.286459,0.208929,-0.307572,0.213571,0.484822,0.616975,0.491609,0.377638,104.163445,0.613062,76.618455
40415,NaN,0.258800,9.372845,-2.998408,-0.505894,0.490794,0.006213,0.152868,-0.411945,0.206053,0.484967,0.618655,0.490249,0.376469,104.250875,0.555738,76.357325
40416,NaN,0.935735,8.976430,-3.763525,-1.146559,1.335011,-0.194001,0.153118,-0.303278,0.174780,0.484902,0.620052,0.489245,0.375560,104.339071,0.500692,76.160895
40417,NaN,1.009667,8.885009,-3.963112,-1.322393,1.445902,-0.229907,0.195001,0.033941,0.116098,0.483990,0.620772,0.489320,0.375449,104.453296,0.430633,76.159857
40418,NaN,0.386711,9.150956,-3.482991,-0.938327,0.695950,-0.083561,0.240245,0.270863,0.083694,0.482418,0.621075,0.490152,0.375885,104.594187,0.344361,76.294750
40419,NaN,-0.363594,9.632365,-2.967711,-0.494425,-0.201363,0.258900,0.232145,0.334231,0.098789,0.480685,0.621275,0.491073,0.376571,104.730558,0.240352,76.462350
40420,NaN,-0.822857,9.869633,-2.540455,-0.124447,-0.782804,0.381052,0.172975,0.244829,0.140944,0.479275,0.621602,0.491535,0.377226,104.832375,0.125562,76.574058
40421,NaN,-0.788782,9.846287,-2.095377,0.307227,-0.873217,0.242420,0.124099,0.138281,0.199560,0.478167,0.622156,0.491466,0.377808,104.906030,-0.006045,76.617952
40422,NaN,-0.552063,9.863238,-2.051395,0.415161,-0.680387,0.245200,0.134151,0.008882,0.255310,0.477239,0.623114,0.490932,0.378097,104.985286,-0.149572,76.581818
40423,NaN,0.030736,9.844232,-2.287294,0.330845,-0.087684,0.288023,0.123147,-0.080161,0.280308,0.476516,0.624273,0.490087,0.378193,105.058695,-0.293541,76.492487
40424,NaN,0.456111,9.736412,-2.605898,0.109756,0.375359,0.269150,0.113907,0.007826,0.282021,0.475602,0.625247,0.489426,0.378591,105.126556,-0.451584,76.451418
40425,NaN,0.463435,9.585397,-2.755659,-0.061845,0.395397,0.163685,0.124351,0.121212,0.276298,0.474387,0.626016,0.489072,0.379301,105.200101,-0.623294,76.473696
40426,NaN,0.256052,9.593216,-2.723540,-0.071262,0.153678,0.161491,0.158789,0.164271,0.261709,0.472985,0.626747,0.488929,0.380028,105.292820,-0.793582,76.521750
40427,NaN,0.194787,9.692785,-2.764767,-0.091180,0.064445,0.267958,0.133498,0.116173,0.250676,0.471800,0.627481,0.488658,0.380637,105.371466,-0.950435,76.544621
40428,NaN,0.217165,9.584834,-2.873330,-0.211800,0.089563,0.193275,0.061749,0.117529,0.243413,0.470850,0.628024,0.488275,0.381410,105.408743,-1.103631,76.569211
40429,NaN,0.160050,9.533004,-2.755965,-0.128271,-0.014489,0.111142,0.052376,0.124955,0.232157,0.469931,0.628503,0.487927,0.382200,105.440635,-1.251631,76.599505
40430,NaN,0.165848,9.589347,-2.676441,-0.038735,-0.055695,0.144308,0.040870,0.067544,0.220425,0.469210,0.629034,0.487457,0.382811,105.466388,-1.384527,76.599827
40431,NaN,0.378240,9.594094,-2.833334,-0.137671,0.162412,0.195915,0.012379,0.022624,0.209327,0.468709,0.629556,0.486862,0.383322,105.476562,-1.504305,76.576969
40432,NaN,0.504742,9.530185,-2.766507,-0.065909,0.256221,0.120223,-0.007373,0.083703,0.188073,0.468162,0.629863,0.486438,0.384025,105.474300,-1.621808,76.591114
40433,NaN,0.404796,9.568410,-2.584000,0.087273,0.096827,0.105899,0.000105,0.122526,0.169641,0.467531,0.630067,0.486178,0.384786,105.475741,-1.734942,76.629504
40434,NaN,0.310794,9.579040,-2.635769,0.014436,-0.001816,0.127214,-0.025276,0.060891,0.155736,0.467157,0.630296,0.485767,0.385384,105.463406,-1.831106,76.636005
40435,NaN,0.415829,9.469821,-2.706003,-0.062940,0.110538,0.044121,-0.072635,0.057452,0.150865,0.466949,0.630409,0.485273,0.386073,105.424119,-1.923922,76.641369
40436,NaN,0.324839,9.319616,-2.808475,-0.228636,0.044215,-0.076464,-0.080538,0.078499,0.142636,0.466731,0.630443,0.484837,0.386829,105.379695,-2.015522,76.659710
40437,NaN,0.315107,9.326500,-2.705137,-0.140919,-0.001360,-0.097710,-0.042041,0.051830,0.140355,0.466460,0.630611,0.484422,0.387401,105.357970,-2.101671,76.663685
40438,NaN,0.412507,9.479984,-2.596462,0.014743,0.042679,0.024986,-0.050857,0.034030,0.134370,0.466271,0.630779,0.483965,0.387926,105.331372,-2.181942,76.658786
40439,NaN,0.396707,9.477940,-2.573224,0.023541,0.010096,0.016327,-0.075907,0.051044,0.138982,0.466111,0.630866,0.483486,0.388574,105.290237,-2.267209,76.662622
40440,NaN,0.411510,9.503162,-2.561352,0.034446,0.006741,0.038135,-0.068982,0.038141,0.143249,0.465952,0.631005,0.482975,0.389175,105.253227,-2.353015,76.658758
40441,NaN,0.538596,9.512056,-2.599315,0.020529,0.125363,0.062006,-0.076168,0.011275,0.135010,0.465895,0.631158,0.482414,0.389688,105.212820,-2.430093,76.641305
40442,NaN,0.586206,9.628108,-2.791750,-0.131043,0.189106,0.226487,-0.073884,0.037708,0.133300,0.465771,0.631261,0.481924,0.390276,105.172953,-2.510341,76.638814
40443,NaN,0.514084,9.664706,-2.825763,-0.182533,0.109189,0.267515,-0.099136,0.103354,0.147378,0.465541,0.631210,0.481493,0.391164,105.117239,-2.608070,76.670600
40444,NaN,0.287597,9.611154,-2.763537,-0.204578,-0.133747,0.189029,-0.134609,0.128948,0.162302,0.465331,0.631062,0.481004,0.392253,105.040439,-2.717970,76.714472
40445,NaN,0.317642,9.504154,-2.821169,-0.295182,-0.097250,0.101555,-0.134993,0.085330,0.181069,0.465190,0.631043,0.480354,0.393247,104.964775,-2.831592,76.731516
40446,NaN,0.307123,9.507659,-2.688235,-0.188329,-0.153458,0.069490,-0.121956,0.115201,0.204404,0.464889,0.631050,0.479723,0.394359,104.895738,-2.962650,76.761838
40447,NaN,0.324022,9.580612,-2.534368,-0.039050,-0.197231,0.100720,-0.128824,0.101975,0.230007,0.464591,0.631128,0.478967,0.395504,104.823408,-3.105777,76.781200
40448,NaN,0.363961,9.556023,-2.392877,0.078902,-0.206778,0.042608,-0.151327,0.072348,0.253379,0.464387,0.631267,0.478023,0.396663,104.739094,-3.257617,76.780923
40449,NaN,0.417635,9.601500,-2.464898,0.013102,-0.167841,0.107520,-0.158544,0.076778,0.273004,0.464155,0.631425,0.477012,0.397897,104.650789,-3.420855,76.780455
40450,NaN,0.452623,9.609119,-2.471705,-0.005694,-0.157519,0.118295,-0.174132,0.041574,0.288944,0.464023,0.631654,0.475836,0.399094,104.554738,-3.587962,76.758412
40451,NaN,0.576546,9.553464,-2.542473,-0.081135,-0.040742,0.089681,-0.196522,0.036112,0.303945,0.463944,0.631875,0.474554,0.400360,104.446373,-3.762530,76.731446
40452,NaN,0.623291,9.525981,-2.498563,-0.061265,-0.026663,0.054990,-0.212662,0.058945,0.313472,0.463841,0.632034,0.473261,0.401757,104.327926,-3.945801,76.716187
40453,NaN,0.645176,9.565097,-2.524736,-0.099494,-0.030651,0.100469,-0.217705,0.048392,0.313239,0.463778,0.632199,0.471933,0.403131,104.207156,-4.127372,76.695442
40454,NaN,0.769277,9.647383,-2.537704,-0.092548,0.056794,0.191903,-0.219757,0.025607,0.310548,0.463778,0.632396,0.470554,0.404430,104.086022,-4.304411,76.662786
40455,NaN,0.830264,9.653244,-2.531657,-0.100462,0.088910,0.200585,-0.245219,0.048444,0.309555,0.463806,0.632484,0.469178,0.405857,103.949516,-4.484030,76.643367
40456,NaN,0.844126,9.664486,-2.536213,-0.130054,0.077452,0.213487,-0.257708,0.050204,0.298761,0.463889,0.632512,0.467813,0.407293,103.805555,-4.658045,76.626880
40457,NaN,0.998015,9.660084,-2.502746,-0.094639,0.196681,0.213740,-0.247136,0.061468,0.292183,0.463924,0.632523,0.466515,0.408722,103.667198,-4.829860,76.617982
40458,NaN,0.959364,9.743831,-2.376260,0.002974,0.098016,0.262008,-0.256766,0.115220,0.287551,0.463871,0.632389,0.465334,0.410332,103.520562,-5.006470,76.640208
40459,NaN,0.882451,9.707537,-2.155715,0.154325,-0.041033,0.169118,-0.274277,0.146987,0.288723,0.463796,0.632149,0.464186,0.412083,103.362338,-5.187790,76.680502
40460,NaN,0.720237,9.597778,-2.028378,0.181793,-0.233521,0.019031,-0.279287,0.141421,0.299847,0.463724,0.631931,0.462977,0.413854,103.201366,-5.374584,76.716753
40461,NaN,0.622894,9.694870,-2.046324,0.129656,-0.363263,0.107849,-0.243882,0.098470,0.309251,0.463619,0.631904,0.461711,0.415425,103.063049,-5.560823,76.728175
40462,NaN,0.732738,9.778386,-2.266833,-0.070293,-0.250251,0.248355,-0.260386,0.030725,0.325515,0.463686,0.632014,0.460199,0.416858,102.919015,-5.747495,76.699978
40463,NaN,0.953188,9.884118,-2.499627,-0.254643,-0.032079,0.423838,-0.276572,0.037417,0.342691,0.463751,0.632110,0.458613,0.418386,102.765724,-5.944579,76.673789
40464,NaN,0.985588,9.972353,-2.505014,-0.271764,-0.042364,0.512934,-0.291764,0.105726,0.364193,0.463660,0.632073,0.457083,0.420213,102.599877,-6.162448,76.683847
40465,NaN,0.912652,9.997658,-2.424056,-0.246612,-0.164619,0.510781,-0.333266,0.117675,0.375309,0.463647,0.631936,0.455456,0.422195,102.409680,-6.387885,76.699899
40466,NaN,1.199678,9.886413,-2.601253,-0.414399,0.134004,0.471134,-0.356973,0.082520,0.395727,0.463742,0.631861,0.453629,0.424165,102.208158,-6.620496,76.694444
40467,NaN,1.337094,9.943204,-2.601009,-0.417817,0.224549,0.540819,-0.352688,0.179291,0.392721,0.463608,0.631578,0.452042,0.426420,102.002683,-6.862973,76.744745
40468,NaN,1.385999,9.995746,-2.365040,-0.219339,0.181136,0.548206,-0.377274,0.232940,0.400574,0.463409,0.631137,0.450499,0.428916,101.779114,-7.116096,76.825381
40469,NaN,1.350181,9.914536,-2.263854,-0.195528,0.104391,0.443851,-0.409124,0.258134,0.403864,0.463242,0.630570,0.448931,0.431566,101.535157,-7.373556,76.920944
40470,NaN,1.299024,9.886944,-2.074965,-0.082623,-0.013568,0.372462,-0.396716,0.303385,0.411606,0.462913,0.629945,0.447465,0.434345,101.294397,-7.640192,77.042434
40471,NaN,1.182158,10.068272,-2.067884,-0.124792,-0.196301,0.530875,-0.397854,0.291453,0.422501,0.462586,0.629361,0.445931,0.437109,101.053432,-7.911018,77.157116
40472,NaN,1.331955,10.147523,-2.234720,-0.294561,-0.072064,0.658604,-0.429315,0.259076,0.438591,0.462391,0.628804,0.444197,0.439874,100.796453,-8.186979,77.252925
40473,NaN,1.501939,10.195825,-2.294124,-0.365950,0.053369,0.738921,-0.446342,0.331491,0.469225,0.462014,0.628109,0.442492,0.442970,100.523638,-8.487328,77.387996
40474,NaN,1.338842,10.293054,-2.133557,-0.295104,-0.197236,0.778110,-0.477157,0.413776,0.492992,0.461494,0.627204,0.440828,0.446441,100.225435,-8.808984,77.569139
40475,NaN,1.341354,10.297969,-2.230792,-0.454906,-0.225339,0.797003,-0.506053,0.375768,0.516293,0.461088,0.626358,0.438931,0.449903,99.913200,-9.138926,77.728081
40476,NaN,1.209530,10.419017,-2.478488,-0.776200,-0.380929,0.930381,-0.519029,0.428482,0.542225,0.460541,0.625410,0.437038,0.453611,99.587734,-9.487830,77.916667
40477,NaN,0.672985,11.025450,-1.888832,-0.308074,-1.178298,1.327202,-0.484759,0.534517,0.574172,0.459573,0.624358,0.435358,0.457639,99.270725,-9.863614,78.165168
40478,NaN,0.051595,12.191337,-2.122115,-0.589655,-2.031444,2.379909,-0.486033,0.341659,0.612201,0.458933,0.623814,0.433105,0.461147,98.970862,-10.242123,78.301712
40479,NaN,0.928532,12.790883,-2.834726,-1.117171,-1.249734,3.213966,-0.544140,-0.024452,0.622716,0.459235,0.623993,0.429837,0.463655,98.674800,-10.593655,78.228697
40480,NaN,1.496056,12.848132,-2.232596,-0.510182,-0.889517,3.273337,-0.727093,0.293347,0.704371,0.459225,0.623177,0.426611,0.467724,98.240883,-11.018687,78.334234
40481,NaN,0.737151,12.130770,-0.791743,0.544987,-1.791365,2.221338,-0.953995,0.524307,0.804154,0.459179,0.621490,0.423058,0.473209,97.650839,-11.517698,78.569369
40482,NaN,-0.190603,11.532251,-0.175841,0.786154,-2.733846,1.366153,-0.856124,0.410318,0.865340,0.458906,0.620399,0.419266,0.478253,97.128115,-12.040761,78.739120
40483,NaN,-0.330055,11.810250,-0.151203,0.691611,-3.021265,1.589312,-0.804992,0.148742,0.966961,0.458761,0.620240,0.414664,0.482592,96.666143,-12.602234,78.754341
40484,NaN,0.364812,11.984774,-0.698339,0.181815,-2.403260,1.953563,-0.847301,0.009015,1.057436,0.458800,0.620480,0.409342,0.486772,96.198186,-13.205970,78.686731
40485,NaN,0.747029,12.076119,-1.288071,-0.444937,-2.069877,2.169168,-0.880110,0.146783,1.155021,0.458397,0.620480,0.403932,0.491646,95.693552,-13.874172,78.698984
40486,NaN,0.560817,12.432148,-1.705121,-1.007153,-2.389489,2.477677,-0.886804,0.283710,1.250036,0.457480,0.620283,0.398503,0.497148,95.164778,-14.603644,78.792790
40487,NaN,0.232546,12.936513,-1.698962,-1.189974,-2.975655,2.837187,-0.938939,0.387156,1.363658,0.456204,0.619897,0.392801,0.503302,94.588715,-15.402323,78.949573
40488,NaN,-0.114652,13.198038,-1.558675,-1.271569,-3.555956,2.929531,-1.037589,0.439351,1.474785,0.454818,0.619322,0.386596,0.510024,93.944153,-16.264753,79.141926
40489,NaN,-0.210889,13.270227,-1.256999,-1.167107,-3.886314,2.885826,-1.101346,0.452228,1.577905,0.453298,0.618712,0.379901,0.517098,93.255912,-17.184712,79.349400
40490,NaN,-0.473003,13.075346,-0.981678,-1.126312,-4.296878,2.532928,-1.167382,0.540871,1.682863,0.451497,0.617857,0.372875,0.524754,92.507285,-18.164283,79.620122
40491,NaN,-0.640106,12.378401,-0.384586,-0.743159,-4.512691,1.713793,-1.246957,0.627954,1.779677,0.449470,0.616702,0.365490,0.532985,91.687406,-19.197929,79.957007
40492,NaN,-0.489318,11.562309,-0.048711,-0.542253,-4.335314,0.903390,-1.230200,0.551267,1.860623,0.447259,0.615855,0.357683,0.541059,90.881372,-20.271736,80.263857
40493,NaN,-0.057151,11.238936,-0.009269,-0.585129,-4.007860,0.670941,-1.117803,0.441340,1.935013,0.444637,0.615611,0.349656,0.548691,90.152170,-21.384219,80.520429
40494,NaN,0.465271,11.423361,-0.155921,-0.813738,-3.756661,0.955498,-1.010297,0.319343,1.993252,0.441683,0.615961,0.341433,0.555816,89.501813,-22.526586,80.718183
40495,NaN,1.178139,11.484865,-0.480336,-1.183063,-3.274353,1.205206,-1.014711,0.163968,2.050485,0.438789,0.616754,0.332629,0.562527,88.877006,-23.701617,80.835114
40496,NaN,2.406040,11.165867,-0.916976,-1.559186,-2.170562,1.329946,-1.025937,0.017725,2.085609,0.436019,0.617906,0.323325,0.568806,88.274994,-24.896782,80.875572
40497,NaN,3.316081,11.055120,-2.040457,-2.663041,-1.326796,1.523893,-0.880341,-0.175645,2.107904,0.432987,0.619883,0.313898,0.574227,87.802767,-26.108955,80.806631
40498,NaN,3.007393,11.771207,-1.685282,-2.564735,-2.180634,1.981689,-0.823716,-0.089585,2.015907,0.429858,0.621510,0.305070,0.579551,87.335976,-27.265932,80.800730
40499,NaN,2.825694,10.728400,-0.607363,-1.544453,-2.269226,0.953578,-1.136115,-0.406571,1.961516,0.428282,0.623226,0.294781,0.584181,86.781458,-28.402016,80.599536
40500,NaN,4.226539,9.127377,0.070941,-0.588373,-0.627307,0.209010,-1.162116,-0.912638,1.934079,0.427559,0.626234,0.283382,0.587128,86.372165,-29.540191,80.075150
40501,NaN,4.415480,8.414753,-1.412564,-1.988217,0.011558,-0.413504,-0.975160,-1.141540,1.842315,0.426776,0.630096,0.272283,0.588815,86.155947,-30.637935,79.396965
40502,NaN,4.263617,7.557424,-1.703801,-2.215859,0.235716,-1.255284,-1.070733,-1.304639,1.727460,0.426799,0.633984,0.260884,0.589785,85.956550,-31.677568,78.601611
40503,NaN,3.166924,5.496303,-1.875506,-2.261890,0.305510,-3.604122,-1.249024,-1.012156,1.514205,0.427572,0.636268,0.250218,0.591385,85.568214,-32.587445,77.990939
40504,NaN,1.486928,3.819404,-2.130971,-2.533085,-0.197056,-5.954669,-1.148465,-0.631324,1.171624,0.428524,0.637148,0.241734,0.593274,85.112975,-33.286721,77.622785
40505,NaN,0.224084,3.211853,-2.590489,-3.111141,-0.796853,-7.212195,-0.934118,-0.559519,0.762836,0.429888,0.637742,0.235322,0.594226,84.768161,-33.752221,77.282534
40506,NaN,0.484654,2.809173,-3.106676,-3.493336,-0.219132,-7.461886,-0.867901,-0.591947,0.353765,0.432283,0.638069,0.230339,0.594090,84.489494,-33.986592,76.895073
40507,NaN,0.436745,2.413570,-3.178695,-3.496767,-0.007396,-7.839709,-0.817084,-0.123400,-0.067485,0.435212,0.636615,0.227851,0.594471,84.075770,-33.957053,76.802149
40508,NaN,-0.796383,2.681545,-2.206068,-2.872793,-1.398378,-8.236865,-0.604442,0.239364,-0.439394,0.438155,0.634111,0.227971,0.594940,83.660903,-33.692921,76.930237
40509,NaN,-1.468654,3.187227,-1.084267,-2.057696,-2.502936,-8.082914,-0.460039,-0.170506,-0.726912,0.441950,0.632804,0.228525,0.593310,83.496759,-33.291896,76.754576
40510,NaN,-0.307182,3.562755,-1.331025,-2.166998,-1.644722,-7.137236,-0.315684,-0.713922,-0.991293,0.446685,0.633107,0.229142,0.589188,83.626404,-32.774136,76.190090
40511,NaN,0.129021,4.180527,-1.778106,-2.650563,-1.414374,-6.402576,-0.278021,-0.351188,-1.293438,0.451751,0.632052,0.231620,0.585477,83.650562,-32.061830,75.852563
40512,NaN,-0.666912,4.453528,-1.412798,-2.531997,-2.252717,-6.528100,-0.333377,-0.093545,-1.527410,0.457359,0.629813,0.235253,0.582077,83.557168,-31.198796,75.671852
40513,NaN,-1.292811,4.424400,-1.508946,-2.750519,-2.666628,-6.838345,-0.248965,-0.423649,-1.719110,0.463611,0.628458,0.238956,0.577066,83.627406,-30.248983,75.260080
40514,NaN,-0.793421,4.586130,-2.033040,-3.170301,-2.089608,-6.439672,-0.068433,-0.673931,-1.879570,0.470021,0.627995,0.243091,0.570622,83.879071,-29.221044,74.679482
40515,NaN,-0.418350,5.140754,-2.185105,-3.335998,-1.883148,-5.726031,0.101932,-0.620132,-2.031048,0.476207,0.627529,0.248279,0.563730,84.200769,-28.102417,74.135795
40516,NaN,-0.558551,5.751825,-2.085281,-3.380189,-2.191231,-5.174252,0.198372,-0.633788,-2.167057,0.482439,0.627085,0.254113,0.556276,84.570439,-26.902701,73.587837
40517,NaN,-0.442592,6.183317,-2.148440,-3.459277,-2.129597,-4.660881,0.313110,-0.849445,-2.300869,0.488885,0.627261,0.260120,0.547607,85.051863,-25.635668,72.911161
40518,NaN,0.099865,6.630067,-2.202709,-3.394162,-1.681689,-3.941709,0.473546,-1.005348,-2.429554,0.495306,0.627983,0.266556,0.537826,85.647569,-24.295180,72.149837
40519,NaN,0.328920,7.396710,-2.340168,-3.517989,-1.563068,-3.069360,0.634053,-1.020456,-2.561719,0.501500,0.628849,0.273740,0.527364,86.314209,-22.873798,71.398028
40520,NaN,0.458665,8.193634,-2.257086,-3.427414,-1.577513,-2.183832,0.760746,-1.074811,-2.673980,0.507565,0.629889,0.281428,0.516154,87.040610,-21.380079,70.635006
40521,NaN,0.613919,8.902561,-2.587834,-3.658784,-1.357094,-1.380960,0.859589,-1.150125,-2.768664,0.513546,0.631095,0.289402,0.504218,87.811063,-19.826659,69.852465
40522,NaN,0.861975,9.509765,-2.755949,-3.647868,-1.043073,-0.627343,0.973461,-1.125498,-2.832077,0.519169,0.632281,0.297866,0.491895,88.612863,-18.224823,69.113642
40523,NaN,1.097059,10.025271,-2.884766,-3.549185,-0.700075,0.032871,1.072280,-1.073418,-2.867224,0.524348,0.633380,0.306729,0.479381,89.432354,-16.594390,68.436694
40524,NaN,1.319347,10.421228,-2.961613,-3.353803,-0.335016,0.567243,1.178772,-1.005806,-2.883404,0.528991,0.634402,0.316007,0.466736,90.275871,-14.943548,67.830050
40525,NaN,1.567362,10.980051,-3.046188,-3.133184,0.031726,1.253817,1.311469,-0.928661,-2.887390,0.532952,0.635417,0.325714,0.454002,91.159195,-13.284220,67.299684
40526,NaN,1.802304,11.686022,-2.859549,-2.634123,0.271201,2.060094,1.372609,-0.798489,-2.883704,0.536357,0.636133,0.335818,0.441455,92.040526,-11.619464,66.875144
40527,NaN,2.027106,12.026785,-2.754702,-2.163564,0.624733,2.485938,1.387863,-0.626510,-2.861993,0.539230,0.636376,0.346246,0.429382,92.893782,-9.967204,66.578770
40528,NaN,2.091336,12.270754,-2.739715,-1.821267,0.892196,2.770020,1.424594,-0.370172,-2.845588,0.541371,0.636031,0.357314,0.417981,93.732890,-8.326777,66.456316
40529,NaN,2.311826,12.640571,-2.558931,-1.252679,1.221739,3.171947,1.470740,-0.204613,-2.837042,0.542909,0.635318,0.368796,0.406953,94.578425,-6.698436,66.454023
40530,NaN,2.517285,12.870583,-2.823247,-1.089081,1.741770,3.443457,1.464527,0.004788,-2.835781,0.543942,0.634001,0.380747,0.396487,95.406502,-5.079487,66.595494
40531,NaN,2.582273,12.938075,-2.987334,-0.899261,2.119459,3.516670,1.453918,0.304886,-2.846395,0.544316,0.631878,0.393417,0.386876,96.216984,-3.475984,66.932169
40532,NaN,2.505442,13.131944,-2.990719,-0.615124,2.294619,3.678518,1.464838,0.616234,-2.862684,0.543933,0.628985,0.406916,0.378067,97.034718,-1.886874,67.469316
40533,NaN,2.538516,13.599900,-2.888943,-0.160449,2.517901,4.092988,1.518252,0.889322,-2.868958,0.542687,0.625534,0.421154,0.369901,97.893373,-0.324385,68.184966
40534,NaN,2.789161,14.515061,-2.416708,0.789898,2.803348,4.877751,1.559919,1.189523,-2.808713,0.540412,0.621589,0.435985,0.362629,98.797494,1.169550,69.089484
40535,NaN,3.468960,15.125923,-1.279468,2.472064,3.307577,5.200550,1.483131,1.396122,-2.706536,0.537582,0.617103,0.450780,0.356351,99.683643,2.570643,70.125304
40536,NaN,4.346454,14.988418,-0.723066,3.519828,4.252002,4.801836,1.347934,1.563412,-2.582692,0.534421,0.612064,0.465286,0.351114,100.523719,3.870901,71.265200
40537,NaN,4.686993,15.355119,0.184277,4.773994,4.584150,4.814732,1.519474,1.711429,-2.412348,0.529945,0.607450,0.479829,0.346304,101.492192,5.039454,72.492045
40538,NaN,7.097735,15.110775,1.748195,7.082012,6.679948,3.861395,1.060169,1.156051,-2.108389,0.527550,0.603175,0.491084,0.341623,102.190244,6.086272,73.389093
40539,NaN,8.849192,13.716782,0.127322,5.821925,9.040021,2.469460,0.688593,1.283099,-1.707655,0.525202,0.598597,0.500749,0.339257,102.692482,6.882438,74.320422
40540,NaN,8.870794,13.051257,1.229579,6.688560,8.916338,1.425431,0.789685,1.673056,-1.375144,0.520941,0.594378,0.510557,0.338624,103.287629,7.434828,75.436984
40541,NaN,7.573066,12.965653,1.947453,6.994113,7.647424,1.225804,0.652008,1.601023,-1.027031,0.516625,0.590742,0.518843,0.339006,103.800899,7.791244,76.472403
40542,NaN,7.081662,12.386791,1.942199,6.707740,7.269509,0.652192,0.567275,1.351127,-0.705484,0.512617,0.588096,0.525352,0.339665,104.246576,7.995619,77.326205
40543,NaN,6.287157,11.969412,2.169237,6.619570,6.507511,0.253777,0.471475,1.326728,-0.397153,0.508403,0.586020,0.530692,0.341281,104.630337,8.025658,78.123537
40544,NaN,5.288400,11.321894,2.437123,6.473233,5.483745,-0.319656,0.350227,1.143073,-0.092328,0.504486,0.584734,0.534446,0.343435,104.924288,7.909293,78.773257
40545,NaN,5.063959,10.944140,2.536158,6.409488,5.233789,-0.681647,0.339150,0.788758,0.175943,0.501077,0.584727,0.536484,0.345255,105.176865,7.693838,79.183959
40546,NaN,4.787130,11.178121,2.477096,6.368964,4.979752,-0.397738,0.286405,0.562834,0.409951,0.498012,0.585598,0.537175,0.347134,105.376539,7.381612,79.431968
