// General information: 
//  MT Manager version: 2019.0.1 
//  XDA version: 2019.0.1 build 2740 rev 84096 built on 2019-01-30
// Device information: 
//  DeviceId: 00B4381A
//  ProductCode: MTW2-3A7G6
//  Firmware Version: 4.3.4
//  Hardware Version: 1.1.0
// Device settings: 
//  Filter Profile: human(46.1)
//  Option Flags: Orientation Smoother Disabled, AHS Disabled, ICC Disabled
// Coordinate system: ENU
PacketCounter,SampleTimeFine,Acc_X,Acc_Y,Acc_Z,FreeAcc_E,FreeAcc_N,FreeAcc_U,Gyr_X,Gyr_Y,Gyr_Z,Quat_q0,Quat_q1,Quat_q2,Quat_q3,Roll,Pitch,Yaw
45577,NaN,-2.236538,7.856943,6.653316,-0.150402,-0.478864,0.711001,-0.299926,0.195594,-0.490456,-0.111845,-0.180962,0.373155,0.903050,47.440870,14.085216,-159.665243
45578,NaN,-2.302798,7.009293,6.151856,0.026958,-0.235031,-0.209451,-0.393730,0.165660,-0.436463,-0.110472,-0.182313,0.370931,0.903863,47.195046,14.336540,-159.774195
45579,NaN,-2.262823,6.708699,5.922766,0.042086,-0.226171,-0.584843,-0.264857,0.117185,-0.346076,-0.109383,-0.183399,0.369375,0.904413,47.026186,14.532570,-159.857372
45580,NaN,-2.510812,7.056650,6.247191,0.140163,-0.214047,-0.062695,-0.164689,-0.003890,-0.236048,-0.108392,-0.183736,0.368459,0.904837,46.912376,14.633018,-159.960493
45581,NaN,-1.720634,7.276450,6.469089,-0.663251,-0.515081,0.038768,-0.204063,0.031995,-0.118054,-0.108075,-0.184027,0.367446,0.905228,46.792408,14.699436,-159.995007
45582,NaN,-1.646775,6.700127,6.520043,-0.786188,-0.123622,-0.353242,-0.281613,0.101631,0.041006,-0.108640,-0.184268,0.366197,0.905617,46.651383,14.725332,-159.940615
45583,NaN,-1.535552,6.195065,6.577001,-0.938763,0.213878,-0.698596,-0.205575,0.182552,0.175986,-0.109929,-0.184696,0.365365,0.905710,46.577202,14.728201,-159.791323
45584,NaN,-1.609408,5.916292,6.559251,-0.879411,0.416627,-0.886908,-0.122059,0.225832,0.279373,-0.111652,-0.185150,0.364989,0.905559,46.565814,14.703970,-159.586496
45585,NaN,-1.741731,5.846410,6.308522,-0.658399,0.358661,-1.069149,0.004383,0.281785,0.369912,-0.113781,-0.185777,0.365238,0.905065,46.642970,14.664915,-159.318757
45586,NaN,-2.644398,6.393534,6.607619,0.072076,0.484422,-0.258064,0.137255,0.265458,0.439208,-0.116058,-0.186263,0.366158,0.904304,46.800510,14.589059,-159.032113
45587,NaN,-3.096745,7.052885,6.576673,0.546510,0.187208,0.299278,0.132216,0.177523,0.424463,-0.118130,-0.186388,0.367089,0.903632,46.944131,14.484858,-158.787010
45588,NaN,-2.973538,7.026220,6.226229,0.590565,-0.026598,0.017170,0.075310,0.143554,0.380269,-0.119974,-0.186393,0.367741,0.903122,47.046016,14.384736,-158.577518
45589,NaN,-3.092794,6.962667,5.865234,0.856158,-0.138896,-0.237056,0.112149,0.085145,0.331597,-0.121476,-0.186258,0.368546,0.902621,47.157832,14.282379,-158.410389
45590,NaN,-3.174909,7.157267,5.775300,0.996780,-0.274696,-0.138418,0.161906,-0.052139,0.293263,-0.122486,-0.185590,0.369624,0.902182,47.278976,14.141899,-158.321329
45591,NaN,-3.086116,7.264004,5.899627,0.891263,-0.276397,-0.003272,0.153189,-0.183601,0.254075,-0.123086,-0.184395,0.370709,0.901900,47.377402,13.966483,-158.305123
45592,NaN,-3.010042,7.214655,6.014436,0.794804,-0.172417,0.017037,0.150830,-0.308217,0.220670,-0.123303,-0.182699,0.371825,0.901756,47.457915,13.757050,-158.356962
45593,NaN,-2.962647,7.271427,6.223004,0.696738,-0.075048,0.181588,0.153904,-0.363703,0.133388,-0.123049,-0.180926,0.372900,0.901704,47.526214,13.562966,-158.464438
45594,NaN,-2.774714,7.428085,6.599683,0.405127,0.004446,0.495906,0.135915,-0.324600,0.000135,-0.122254,-0.179556,0.373756,0.901732,47.576258,13.440552,-158.611530
45595,NaN,-2.664433,7.597311,7.240813,0.068264,0.262133,1.012022,0.062746,-0.296944,-0.108540,-0.121138,-0.178499,0.374153,0.901927,47.577338,13.375823,-158.782760
45596,NaN,-2.767118,7.647575,7.454793,0.084064,0.394562,1.212444,-0.051077,-0.184663,-0.217290,-0.119792,-0.178052,0.373884,0.902307,47.514614,13.399430,-158.955398
45597,NaN,-2.112106,7.529600,6.715005,-0.226763,-0.239491,0.489657,-0.118184,0.011243,-0.361901,-0.118291,-0.178758,0.373045,0.902713,47.419192,13.560911,-159.091045
45598,NaN,-2.376694,7.191591,6.731350,-0.048474,0.068880,0.320004,-0.129084,0.138283,-0.451806,-0.116558,-0.180158,0.372019,0.903083,47.321825,13.808182,-159.217515
45599,NaN,-2.681499,7.605834,6.680348,0.244811,-0.178767,0.655077,-0.113776,0.095980,-0.501158,-0.114576,-0.181505,0.371022,0.903477,47.223100,14.060827,-159.373617
45600,NaN,-2.429080,7.644483,6.594976,0.017399,-0.386855,0.564306,-0.274992,0.118677,-0.534563,-0.112563,-0.182885,0.369268,0.904170,47.030454,14.334679,-159.543222
45601,NaN,-2.355450,6.951496,6.159129,0.054088,-0.248294,-0.234510,-0.365413,0.078041,-0.469707,-0.110922,-0.183954,0.367165,0.905012,46.787056,14.566714,-159.695522
45602,NaN,-2.324188,6.586432,5.839352,0.114146,-0.242741,-0.712748,-0.241607,0.038376,-0.372549,-0.109462,-0.184686,0.365750,0.905614,46.619505,14.740232,-159.836374
45603,NaN,-2.251119,6.742779,5.962352,-0.004461,-0.326582,-0.540388,-0.114296,-0.077869,-0.206623,-0.108447,-0.184680,0.365123,0.905990,46.529452,14.799823,-159.956341
45604,NaN,-1.448130,6.353291,5.888833,-0.728706,-0.373423,-1.068016,-0.073316,-0.063523,-0.057729,-0.108070,-0.184467,0.364815,0.906202,46.479406,14.801829,-160.013302
45605,NaN,-1.547076,6.082602,6.252149,-0.803451,0.079171,-0.990611,0.080821,-0.011722,0.093133,-0.108359,-0.184324,0.365312,0.905997,46.539737,14.763229,-159.981850
45606,NaN,-1.894422,6.769720,6.933961,-0.720699,0.148654,0.033946,0.172428,-0.014727,0.255520,-0.109263,-0.183893,0.366380,0.905545,46.668289,14.654128,-159.890293
45607,NaN,-1.974971,6.827575,7.014309,-0.665985,0.207321,0.148752,0.066817,0.106419,0.381625,-0.111074,-0.183742,0.367016,0.905097,46.762897,14.541230,-159.692726
45608,NaN,-2.212517,6.610888,6.755657,-0.343668,0.297968,-0.115727,0.021347,0.142765,0.457167,-0.113318,-0.183570,0.367496,0.904659,46.841802,14.409367,-159.452040
45609,NaN,-2.612347,6.778972,6.735491,0.054273,0.322008,0.088776,0.008678,0.149727,0.456744,-0.115583,-0.183429,0.367916,0.904230,46.914318,14.280842,-159.208407
45610,NaN,-2.690991,6.738498,6.292725,0.320860,0.121242,-0.214277,0.033898,0.142157,0.403131,-0.117569,-0.183359,0.368400,0.903791,46.993822,14.170750,-158.990414
45611,NaN,-2.914788,6.923897,6.062934,0.644593,-0.051327,-0.180590,0.122375,0.082996,0.331442,-0.119048,-0.183215,0.369251,0.903279,47.110786,14.067865,-158.825732
45612,NaN,-2.998470,7.193652,5.989523,0.782754,-0.230148,-0.017378,0.157677,0.000375,0.274779,-0.120079,-0.182813,0.370258,0.902812,47.232925,13.955682,-158.721306
45613,NaN,-3.111929,7.367855,6.030585,0.897174,-0.260979,0.160488,0.126863,-0.141580,0.231334,-0.120688,-0.181841,0.371171,0.902552,47.318714,13.806838,-158.694434
45614,NaN,-3.041014,7.354178,6.184819,0.790046,-0.159738,0.233900,0.078573,-0.251843,0.196732,-0.120970,-0.180396,0.371900,0.902504,47.361559,13.629316,-158.731064
45615,NaN,-2.951139,7.402306,6.623422,0.557689,0.064539,0.534187,0.024148,-0.295228,0.138089,-0.120968,-0.178842,0.372355,0.902626,47.363906,13.460118,-158.808078
45616,NaN,-2.998922,7.436936,7.115935,0.427933,0.371878,0.893227,-0.055686,-0.288452,0.042847,-0.120608,-0.177437,0.372360,0.902950,47.312134,13.333218,-158.921929
45617,NaN,-2.764348,7.576962,7.079276,0.259111,0.162327,0.914596,-0.104447,-0.171021,-0.111314,-0.119882,-0.176860,0.371918,0.903342,47.229881,13.318086,-159.037008
45618,NaN,-2.526987,7.501826,6.612920,0.223074,-0.180418,0.498054,-0.127156,0.031776,-0.290152,-0.118676,-0.177476,0.371111,0.903712,47.138431,13.455544,-159.145450
45619,NaN,-2.417289,7.401214,6.775667,0.023568,-0.071377,0.508414,-0.093374,0.103271,-0.412720,-0.117061,-0.178690,0.370295,0.904018,47.061789,13.673214,-159.266678
45620,NaN,-2.404389,7.782961,6.716671,0.032385,-0.409950,0.737190,-0.139248,0.097962,-0.484374,-0.115110,-0.179957,0.369218,0.904458,46.950686,13.917598,-159.425324
45621,NaN,-2.220296,7.443389,6.594702,-0.146274,-0.353042,0.369528,-0.297736,0.161315,-0.511188,-0.113307,-0.181484,0.367360,0.905136,46.752533,14.198755,-159.566422
45622,NaN,-2.117831,6.650388,6.058166,-0.105463,-0.209043,-0.573681,-0.290645,0.118720,-0.438367,-0.111737,-0.182670,0.365622,0.905796,46.559646,14.431187,-159.699367
45623,NaN,-2.227328,6.436207,5.871761,0.033929,-0.170022,-0.821960,-0.164622,0.067598,-0.333264,-0.110491,-0.183544,0.364563,0.906199,46.443812,14.601406,-159.804136
45624,NaN,-2.336897,6.599985,5.973301,0.087302,-0.205614,-0.612074,-0.045595,-0.027235,-0.233320,-0.109359,-0.183830,0.364201,0.906424,46.395618,14.690550,-159.917174
45625,NaN,-1.885732,6.670233,6.134241,-0.391229,-0.312778,-0.570068,-0.006356,-0.069496,-0.092097,-0.108711,-0.183685,0.364187,0.906537,46.381566,14.705523,-159.995180
45626,NaN,-1.494121,6.595160,6.611762,-0.946787,-0.089933,-0.403148,0.039149,0.000274,0.128426,-0.109191,-0.183482,0.364526,0.906384,46.422286,14.655402,-159.948712
45627,NaN,-1.694034,6.640678,7.020867,-0.920857,0.206618,-0.046919,-0.020593,0.048026,0.310053,-0.110631,-0.183144,0.364740,0.906192,46.453615,14.549948,-159.807419
45628,NaN,-1.921455,6.178721,6.978802,-0.714378,0.590972,-0.341011,-0.100577,0.202250,0.440012,-0.113019,-0.183211,0.364617,0.905933,46.467613,14.450085,-159.547370
45629,NaN,-2.349513,6.433041,6.838938,-0.235049,0.479681,-0.148842,-0.033115,0.163006,0.520040,-0.115611,-0.182992,0.364907,0.905533,46.525008,14.302219,-159.274002
45630,NaN,-2.583882,6.686326,6.653629,0.091708,0.283372,-0.036931,-0.032285,0.171701,0.511536,-0.118203,-0.182827,0.365172,0.905125,46.580759,14.160162,-158.998468
45631,NaN,-2.687756,6.907099,6.338702,0.351655,-0.010252,-0.066541,0.036170,0.155718,0.470693,-0.120481,-0.182694,0.365734,0.904625,46.670720,14.028876,-158.750865
45632,NaN,-2.785013,7.128350,5.960807,0.631238,-0.341215,-0.138705,0.073036,0.125360,0.409993,-0.122430,-0.182564,0.366406,0.904117,46.770685,13.910191,-158.537097
45633,NaN,-3.044967,7.075630,5.868433,0.916046,-0.243839,-0.175458,0.091476,0.010135,0.371334,-0.124009,-0.182016,0.367188,0.903695,46.865273,13.762899,-158.384447
45634,NaN,-3.340362,7.388859,6.169638,1.105468,-0.144280,0.315230,0.125555,-0.122363,0.323366,-0.125064,-0.180957,0.368169,0.903363,46.960628,13.582811,-158.312937
45635,NaN,-3.297359,7.520606,6.455564,0.985212,-0.051794,0.586013,0.049484,-0.230353,0.230075,-0.125586,-0.179545,0.368785,0.903321,46.992760,13.399809,-158.323086
45636,NaN,-3.063405,7.359098,6.687821,0.688091,0.133439,0.568853,0.015245,-0.263649,0.098363,-0.125464,-0.178192,0.369152,0.903456,46.989553,13.258679,-158.403135
45637,NaN,-2.727394,7.482042,6.877642,0.334680,0.049498,0.704305,0.004494,-0.227726,-0.062425,-0.124739,-0.177324,0.369291,0.903670,46.969262,13.200196,-158.525470
45638,NaN,-2.453745,7.336939,6.692651,0.152832,-0.067135,0.415472,-0.019651,-0.134035,-0.219355,-0.123451,-0.177121,0.369135,0.903951,46.929793,13.242731,-158.677284
45639,NaN,-2.071287,7.177967,6.505633,-0.143130,-0.218163,0.090271,0.016570,-0.065839,-0.327680,-0.121771,-0.177459,0.369007,0.904165,46.908379,13.358004,-158.842436
45640,NaN,-2.191258,7.103719,6.539859,-0.075096,-0.113873,0.087592,0.023320,-0.031636,-0.369010,-0.119957,-0.178020,0.368848,0.904362,46.889192,13.503105,-159.010613
45641,NaN,-2.588310,7.078869,6.588459,0.240311,0.058796,0.195122,0.011457,-0.038304,-0.394893,-0.118050,-0.178611,0.368610,0.904593,46.860052,13.657203,-159.188412
45642,NaN,-2.782883,7.116706,6.845290,0.294690,0.241784,0.439365,-0.052213,-0.092941,-0.400934,-0.116045,-0.178909,0.368114,0.904996,46.787341,13.791394,-159.396245
45643,NaN,-2.666134,6.782793,6.358242,0.348442,0.110272,-0.147897,-0.096742,-0.154815,-0.365658,-0.114143,-0.178857,0.367481,0.905505,46.686599,13.887744,-159.613616
45644,NaN,-2.312762,6.494230,6.058288,0.121757,-0.010381,-0.635989,-0.029827,-0.204761,-0.279615,-0.112460,-0.178435,0.367256,0.905890,46.626210,13.926819,-159.820864
45645,NaN,-2.189157,6.797205,6.099149,0.014169,-0.244141,-0.424705,0.085203,-0.255703,-0.176123,-0.111109,-0.177700,0.367658,0.906038,46.636831,13.904637,-159.999642
45646,NaN,-2.042142,7.322277,6.508995,-0.242918,-0.402449,0.183918,0.059609,-0.254119,-0.091665,-0.110107,-0.176760,0.368031,0.906193,46.640987,13.845941,-160.151893
45647,NaN,-1.353381,7.267172,6.615651,-0.908691,-0.521210,0.052041,-0.029341,-0.173407,0.008909,-0.109843,-0.175997,0.368032,0.906373,46.612764,13.779514,-160.220432
45648,NaN,-1.099057,6.717960,6.751282,-1.221470,-0.132333,-0.304312,-0.067486,-0.029886,0.145281,-0.110439,-0.175566,0.367914,0.906432,46.590115,13.710353,-160.180430
45649,NaN,-1.430958,6.794727,6.754012,-0.902704,-0.070603,-0.168375,0.019396,0.052699,0.256516,-0.111632,-0.175380,0.368241,0.906189,46.637157,13.629374,-160.056822
45650,NaN,-1.186034,7.093164,6.868074,-1.138300,-0.281568,0.062284,-0.032235,0.161374,0.372472,-0.113578,-0.175417,0.368374,0.905886,46.675423,13.540725,-159.843008
45651,NaN,-1.866213,6.785512,6.797960,-0.502006,0.126211,-0.041800,-0.052889,0.246386,0.423245,-0.115981,-0.175771,0.368396,0.905504,46.715128,13.466047,-159.564777
45652,NaN,-2.272166,7.017543,6.643428,-0.042785,0.014514,0.114131,-0.033495,0.271376,0.411597,-0.118307,-0.176232,0.368492,0.905074,46.766700,13.403959,-159.288246
45653,NaN,-2.637957,7.010517,6.500219,0.353624,0.066467,0.098393,-0.059211,0.263389,0.372959,-0.120493,-0.176740,0.368436,0.904709,46.799640,13.356499,-159.026275
45654,NaN,-3.068741,7.014716,6.561174,0.724846,0.260249,0.241132,-0.067843,0.238160,0.306462,-0.122311,-0.177222,0.368300,0.904427,46.817980,13.324985,-158.806561
45655,NaN,-3.265000,6.800296,6.260887,1.009745,0.298397,-0.066184,-0.063770,0.151238,0.213924,-0.123546,-0.177492,0.368157,0.904264,46.822320,13.298910,-158.661088
45656,NaN,-3.306502,6.616587,6.152450,1.077833,0.380348,-0.259759,0.022333,0.046238,0.124035,-0.124105,-0.177497,0.368384,0.904094,46.856280,13.268306,-158.597323
45657,NaN,-3.445362,6.968187,6.291574,1.180908,0.280961,0.113871,0.119962,-0.070880,0.019522,-0.123882,-0.177230,0.369039,0.903910,46.925944,13.236111,-158.626405
45658,NaN,-3.159458,7.247533,6.470255,0.875261,0.105551,0.365518,0.105092,-0.143199,-0.076906,-0.123111,-0.176800,0.369578,0.903879,46.970131,13.215425,-158.724927
45659,NaN,-2.972733,7.339407,6.569610,0.671644,0.042130,0.454295,0.096747,-0.152516,-0.172577,-0.121934,-0.176519,0.369993,0.903924,47.000015,13.231729,-158.860906
45660,NaN,-2.681660,7.628533,6.640527,0.396801,-0.218752,0.640882,0.056109,-0.145907,-0.270239,-0.120326,-0.176404,0.370140,0.904101,46.997997,13.291082,-159.038243
45661,NaN,-2.211102,7.556628,6.444592,0.029307,-0.464828,0.351338,-0.011524,-0.098669,-0.333645,-0.118627,-0.176610,0.369885,0.904390,46.955892,13.396727,-159.214100
45662,NaN,-2.130392,7.396225,6.403251,-0.058180,-0.422099,0.190449,-0.042331,-0.070223,-0.368137,-0.116803,-0.176958,0.369453,0.904736,46.895229,13.526447,-159.398481
45663,NaN,-2.015006,7.240343,6.265555,-0.137256,-0.456047,-0.039605,-0.052870,-0.089821,-0.348842,-0.115076,-0.177206,0.368993,0.905096,46.828434,13.641926,-159.578141
45664,NaN,-2.106156,7.159276,6.418384,-0.136016,-0.288162,0.025260,-0.047915,-0.106851,-0.303112,-0.113483,-0.177264,0.368613,0.905441,46.766243,13.729720,-159.752490
45665,NaN,-2.072907,7.224830,6.475527,-0.192497,-0.323457,0.101235,-0.065843,-0.138977,-0.232197,-0.112195,-0.177059,0.368225,0.905800,46.697395,13.776439,-159.907890
45666,NaN,-1.731501,7.009518,6.458984,-0.516275,-0.309303,-0.143784,-0.096669,-0.082782,-0.164948,-0.111314,-0.176943,0.367731,0.906131,46.622678,13.815718,-160.016263
45667,NaN,-1.712513,6.810378,6.505417,-0.568106,-0.156845,-0.258262,-0.079727,-0.030787,-0.063266,-0.111013,-0.176916,0.367366,0.906322,46.573101,13.834633,-160.055549
45668,NaN,-1.199908,6.667536,6.595214,-1.080810,-0.175515,-0.421537,-0.067778,0.047216,0.078527,-0.111449,-0.176957,0.367146,0.906349,46.551781,13.823651,-160.009529
45669,NaN,-1.001049,6.219491,6.839338,-1.389598,0.227093,-0.621487,-0.026684,0.163739,0.267684,-0.112952,-0.177233,0.367207,0.906084,46.584737,13.781634,-159.831806
45670,NaN,-1.889600,6.322880,7.101482,-0.673951,0.625018,-0.162010,0.039444,0.243058,0.408646,-0.115148,-0.177615,0.367654,0.905552,46.676505,13.710157,-159.568125
45671,NaN,-2.499313,6.759419,6.887466,0.007702,0.407964,0.147582,0.012680,0.242048,0.450437,-0.117563,-0.177911,0.368015,0.905037,46.757007,13.621183,-159.286575
45672,NaN,-2.649853,6.835959,6.545203,0.299818,0.209173,0.008619,-0.027078,0.232557,0.443281,-0.119954,-0.178141,0.368193,0.904605,46.812032,13.530436,-159.013814
45673,NaN,-2.955260,6.994941,6.316358,0.694521,0.078606,0.039752,0.007937,0.196111,0.397339,-0.122046,-0.178317,0.368510,0.904162,46.879214,13.444546,-158.774272
45674,NaN,-3.025076,7.230257,6.003798,0.917404,-0.238252,0.014564,0.013306,0.145362,0.332254,-0.123737,-0.178380,0.368821,0.903792,46.937442,13.365551,-158.584090
45675,NaN,-3.124968,7.003357,6.049525,0.979772,-0.000448,-0.094189,0.012965,0.022928,0.272219,-0.124902,-0.177987,0.369166,0.903569,46.978402,13.263433,-158.474486
45676,NaN,-3.255620,7.055860,6.062419,1.112387,0.033659,-0.019907,0.094116,-0.123869,0.186875,-0.125367,-0.177152,0.369878,0.903377,47.042412,13.139854,-158.458847
45677,NaN,-3.328192,7.365971,6.329138,1.111276,0.027704,0.393028,0.142828,-0.198720,0.059244,-0.125082,-0.176255,0.370745,0.903237,47.115955,13.041307,-158.525243
45678,NaN,-2.987603,7.616375,6.664987,0.698707,-0.045037,0.716641,0.101346,-0.248801,-0.066863,-0.124163,-0.175329,0.371343,0.903298,47.149024,12.975553,-158.665240
45679,NaN,-2.420581,7.459117,6.669558,0.172276,-0.131009,0.479727,0.037232,-0.206613,-0.172430,-0.122959,-0.174779,0.371517,0.903498,47.139744,12.971328,-158.821703
45680,NaN,-2.194828,7.441539,6.660728,-0.034219,-0.207721,0.410558,0.017292,-0.130219,-0.232206,-0.121586,-0.174643,0.371515,0.903711,47.121301,13.021225,-158.976731
45681,NaN,-1.964428,7.362815,6.525260,-0.207321,-0.327555,0.212218,-0.015717,-0.060468,-0.285507,-0.120151,-0.174921,0.371272,0.903949,47.086192,13.121797,-159.119891
45682,NaN,-1.993708,7.207252,6.553617,-0.222345,-0.204351,0.126025,-0.038264,-0.011373,-0.305869,-0.118714,-0.175425,0.370882,0.904201,47.040322,13.248801,-159.253425
45683,NaN,-2.245708,6.944055,6.418828,0.021220,-0.033195,-0.093486,-0.031909,-0.010759,-0.303613,-0.117297,-0.175947,0.370521,0.904433,46.998638,13.376164,-159.383593
45684,NaN,-2.567462,7.082053,6.620795,0.228459,0.095341,0.213327,0.000988,-0.080472,-0.281989,-0.115805,-0.176116,0.370368,0.904655,46.969971,13.465976,-159.537600
45685,NaN,-2.381961,7.236641,6.373029,0.161502,-0.243031,0.115709,-0.033188,-0.123345,-0.251907,-0.114445,-0.176049,0.370100,0.904950,46.920269,13.527948,-159.691481
45686,NaN,-2.195664,6.983378,6.354949,-0.025655,-0.152408,-0.119907,-0.073880,-0.120802,-0.200144,-0.113314,-0.175841,0.369702,0.905296,46.851977,13.567480,-159.830112
45687,NaN,-2.052470,7.014408,6.421421,-0.182460,-0.190612,-0.087484,-0.049638,-0.104606,-0.130051,-0.112526,-0.175609,0.369465,0.905536,46.806427,13.585215,-159.930768
45688,NaN,-1.561835,6.904151,6.629263,-0.720238,-0.154061,-0.142565,-0.093182,-0.052896,-0.032575,-0.112296,-0.175386,0.369088,0.905761,46.749707,13.581174,-159.972686
45689,NaN,-1.306152,6.480163,6.710671,-1.013431,0.103999,-0.448191,-0.078718,0.040809,0.109041,-0.112882,-0.175354,0.368846,0.905793,46.724702,13.556069,-159.914582
45690,NaN,-1.420936,6.577210,6.888958,-0.967376,0.188470,-0.233275,0.009629,0.119199,0.250761,-0.114163,-0.175446,0.369086,0.905517,46.770974,13.501332,-159.768210
45691,NaN,-1.804280,6.858253,6.795782,-0.551153,0.070707,-0.006316,-0.014868,0.175984,0.357670,-0.116069,-0.175600,0.369273,0.905168,46.819239,13.425030,-159.551836
45692,NaN,-2.240760,7.047622,6.702070,-0.090343,0.037005,0.167201,-0.060116,0.212850,0.388006,-0.118204,-0.175822,0.369262,0.904854,46.847276,13.349436,-159.310106
45693,NaN,-2.564095,7.105453,6.513376,0.295412,-0.003226,0.157209,-0.098447,0.218756,0.365092,-0.120299,-0.176110,0.369049,0.904609,46.852106,13.286974,-159.071977
45694,NaN,-2.781355,7.186064,6.382797,0.561734,-0.060467,0.177124,-0.091710,0.202489,0.296776,-0.122029,-0.176433,0.368817,0.904408,46.852063,13.245381,-158.871571
45695,NaN,-2.883433,7.294257,6.351268,0.683101,-0.116985,0.256010,-0.099005,0.167387,0.223022,-0.123404,-0.176751,0.368499,0.904289,46.837616,13.221719,-158.710837
45696,NaN,-3.001147,7.048044,6.302861,0.790927,0.065490,0.075589,-0.101005,0.111424,0.129823,-0.124219,-0.176964,0.368132,0.904286,46.807768,13.214281,-158.616768
45697,NaN,-3.328243,7.007038,6.257234,1.101534,0.180227,0.090994,-0.003654,0.041499,-0.014279,-0.124191,-0.177197,0.368117,0.904250,46.813654,13.239753,-158.607599
45698,NaN,-3.092072,7.276909,6.345375,0.866803,-0.037773,0.288070,0.077721,0.015152,-0.165783,-0.123334,-0.177629,0.368356,0.904185,46.849469,13.318092,-158.673900
45699,NaN,-2.921315,7.286256,6.364481,0.685042,-0.094986,0.269568,0.101951,0.016693,-0.296080,-0.121860,-0.178327,0.368594,0.904150,46.888040,13.452251,-158.792600
45700,NaN,-2.650823,7.406959,6.428418,0.397577,-0.240432,0.336131,0.093876,0.003895,-0.373494,-0.120028,-0.179100,0.368726,0.904189,46.912127,13.613157,-158.947357
45701,NaN,-2.462751,7.204096,6.459788,0.168786,-0.154324,0.169328,0.049957,-0.019046,-0.405587,-0.118047,-0.179809,0.368647,0.904341,46.905941,13.779239,-159.124608
45702,NaN,-2.461794,7.292799,6.657339,0.070022,-0.105860,0.363233,0.028619,-0.101828,-0.399163,-0.115962,-0.180111,0.368521,0.904602,46.878391,13.909467,-159.335490
45703,NaN,-2.036793,7.259892,6.408957,-0.236193,-0.398025,0.072404,-0.026524,-0.092394,-0.389600,-0.113981,-0.180415,0.368152,0.904944,46.821652,14.040446,-159.538571
45704,NaN,-2.053146,6.931732,6.315984,-0.222343,-0.235855,-0.218373,-0.059152,-0.111545,-0.320085,-0.112314,-0.180476,0.367702,0.905323,46.749600,14.133460,-159.722122
45705,NaN,-1.925551,6.899309,6.584610,-0.460177,-0.101098,-0.094493,-0.043183,-0.092599,-0.234367,-0.111026,-0.180467,0.367404,0.905604,46.698071,14.198452,-159.866117
45706,NaN,-1.452623,6.806700,6.823896,-1.000658,-0.054894,-0.117199,-0.091886,0.009401,-0.097144,-0.110619,-0.180647,0.366939,0.905807,46.641760,14.245742,-159.907547
45707,NaN,-1.735954,6.593072,6.913618,-0.798386,0.235750,-0.138637,-0.121090,0.140327,0.041945,-0.111109,-0.181156,0.366398,0.905864,46.597225,14.287331,-159.835841
45708,NaN,-1.964290,6.794633,6.853145,-0.554834,0.122003,0.019318,-0.144960,0.200855,0.147571,-0.112209,-0.181724,0.365807,0.905854,46.555296,14.308124,-159.695686
45709,NaN,-2.010267,6.783979,6.475312,-0.357569,-0.098295,-0.228550,-0.171410,0.239389,0.242898,-0.113819,-0.182281,0.365170,0.905798,46.513126,14.305609,-159.501698
45710,NaN,-2.230015,6.612965,6.264992,-0.079385,-0.037091,-0.434696,-0.134732,0.267065,0.331304,-0.115862,-0.182819,0.364752,0.905599,46.502501,14.276304,-159.258406
45711,NaN,-2.903804,6.668917,6.300655,0.528361,0.182738,-0.205805,-0.050541,0.183996,0.381243,-0.117877,-0.182934,0.364822,0.905287,46.537388,14.194041,-159.033240
45712,NaN,-3.340094,6.956024,6.247585,0.982861,0.114053,0.066368,-0.003892,0.062500,0.391210,-0.119699,-0.182510,0.365168,0.904994,46.585523,14.059003,-158.853577
45713,NaN,-4.156471,7.408891,6.523966,1.661269,0.269255,0.765483,0.022207,-0.017034,0.266488,-0.120758,-0.181960,0.365578,0.904799,46.628626,13.944435,-158.762159
45714,NaN,-3.292949,7.325306,6.558841,0.868166,0.053052,0.520051,-0.055687,0.004746,0.032943,-0.120900,-0.181897,0.365397,0.904866,46.605483,13.935687,-158.752830
45715,NaN,-2.615912,6.628176,6.324633,0.288991,0.157440,-0.290693,0.023562,0.019050,-0.158201,-0.120134,-0.182303,0.365395,0.904887,46.611183,14.012552,-158.814178
45716,NaN,-2.286150,6.933202,6.631941,-0.130646,0.016513,0.049413,0.161322,0.032227,-0.274878,-0.118735,-0.183057,0.365898,0.904716,46.684909,14.142854,-158.917866
45717,NaN,-1.861806,7.172470,6.716545,-0.558240,-0.246083,0.169816,0.123009,0.061644,-0.317642,-0.117213,-0.184002,0.366181,0.904608,46.736541,14.303456,-159.027796
45718,NaN,-1.830834,7.061885,6.668085,-0.603049,-0.213010,0.050193,0.046803,0.096395,-0.295683,-0.115942,-0.185017,0.366108,0.904595,46.748905,14.467801,-159.112195
45719,NaN,-2.005027,6.894165,6.634480,-0.469775,-0.062799,-0.048401,0.025471,0.105036,-0.250682,-0.114906,-0.185980,0.365979,0.904581,46.755167,14.617330,-159.174682
45720,NaN,-2.332922,6.794810,6.553326,-0.169660,0.062685,-0.090276,0.024854,0.120799,-0.214069,-0.114068,-0.186942,0.365866,0.904535,46.765575,14.757213,-159.215497
45721,NaN,-2.841016,7.078271,6.601847,0.267444,0.059669,0.271090,0.003412,0.103478,-0.188874,-0.113312,-0.187764,0.365700,0.904527,46.765367,14.880191,-159.255841
45722,NaN,-3.128805,7.122448,6.362079,0.614450,-0.032165,0.218071,-0.069781,0.088827,-0.161638,-0.112741,-0.188431,0.365225,0.904651,46.723294,14.985631,-159.289245
45723,NaN,-3.236646,7.106504,6.257886,0.744485,-0.063784,0.166343,-0.129732,0.016195,-0.136529,-0.112187,-0.188684,0.364554,0.904938,46.642190,15.052174,-159.346319
45724,NaN,-3.400968,7.010835,6.186377,0.916668,-0.003091,0.094346,-0.189683,-0.077724,-0.092861,-0.111737,-0.188405,0.363695,0.905397,46.519902,15.063310,-159.423783
45725,NaN,-3.394421,7.009266,6.115424,0.951940,-0.068953,0.043239,-0.229416,-0.194295,-0.046480,-0.111342,-0.187508,0.362762,0.906006,46.367377,15.009839,-159.529434
45726,NaN,-3.665114,6.906172,6.147015,1.201920,0.091694,0.059541,-0.290849,-0.340568,-0.006605,-0.110899,-0.185824,0.361671,0.906844,46.167340,14.880747,-159.684187
45727,NaN,-3.603688,6.717204,6.168518,1.163043,0.195383,-0.077856,-0.269011,-0.495555,0.023894,-0.110297,-0.183400,0.360793,0.907760,45.967375,14.677509,-159.891196
45728,NaN,-3.682323,6.817632,6.393166,1.200302,0.268796,0.157211,-0.204720,-0.679321,0.056009,-0.109445,-0.180111,0.360331,0.908704,45.788425,14.386526,-160.162879
45729,NaN,-2.808538,6.633701,6.502580,0.404589,0.164788,-0.118035,-0.220712,-0.719799,-0.002608,-0.108292,-0.176757,0.359759,0.909727,45.592605,14.104023,-160.470651
45730,NaN,-1.699480,6.139929,6.800083,-0.709190,0.331354,-0.527477,-0.158544,-0.718237,-0.066319,-0.106771,-0.173531,0.359409,0.910666,45.427119,13.845732,-160.806738
45731,NaN,-0.172720,5.831216,6.720495,-2.060189,0.016618,-1.155134,-0.039062,-0.529457,-0.074503,-0.105454,-0.171265,0.359497,0.911213,45.351039,13.668132,-161.064092
45732,NaN,-0.253445,5.811565,7.131015,-2.125353,0.323599,-0.864614,0.152745,-0.267201,0.002359,-0.104787,-0.170133,0.360380,0.911154,45.417467,13.562621,-161.181368
45733,NaN,-0.971838,6.745751,7.377880,-1.490077,0.056852,0.120041,0.295528,-0.080357,0.050187,-0.104579,-0.169874,0.361854,0.910642,45.589995,13.515221,-161.195954
45734,NaN,-1.778189,7.522033,7.118575,-0.599610,-0.382866,0.671152,0.168434,0.064212,0.061962,-0.104767,-0.170151,0.362684,0.910238,45.703881,13.518561,-161.149479
45735,NaN,-2.427231,7.435628,6.602051,0.182280,-0.428868,0.412279,0.013918,0.163099,0.044274,-0.105197,-0.170852,0.362746,0.910032,45.738488,13.570518,-161.066198
45736,NaN,-3.382433,7.894427,6.550094,1.104780,-0.486639,0.920867,-0.038482,0.114811,0.055885,-0.105626,-0.171262,0.362603,0.909963,45.738307,13.596514,-161.000845
45737,NaN,-4.330829,8.533898,6.585712,2.009009,-0.631653,1.611845,-0.218646,-0.017056,0.019122,-0.105800,-0.171044,0.361682,0.910350,45.618800,13.585049,-161.006332
45738,NaN,-4.209541,7.607286,5.961718,2.093311,-0.428525,0.510455,-0.478707,-0.188650,-0.051665,-0.105567,-0.170034,0.359601,0.911390,45.326016,13.533344,-161.113069
45739,NaN,-3.724668,6.163469,5.893724,1.604738,0.371254,-0.653856,-0.432821,-0.487515,-0.086569,-0.104595,-0.167750,0.357859,0.912610,45.027922,13.374838,-161.358880
45740,NaN,-1.985991,5.723506,6.670603,-0.283079,0.597121,-0.825879,-0.281720,-0.633844,-0.123289,-0.103067,-0.164939,0.356844,0.913693,44.799333,13.170458,-161.679864
45741,NaN,0.108305,5.398357,7.263868,-2.424615,0.547221,-1.109847,-0.143746,-0.538977,-0.073514,-0.101820,-0.162544,0.356452,0.914415,44.665213,12.983924,-161.939840
45742,NaN,1.189391,5.660754,7.420893,-3.440219,0.134041,-1.056243,0.058347,-0.230668,0.056438,-0.101553,-0.161427,0.356927,0.914457,44.687738,12.870114,-162.017732
45743,NaN,0.797353,6.150169,7.614224,-3.111069,0.029497,-0.498337,0.147579,0.204394,0.129489,-0.102323,-0.162215,0.357651,0.913949,44.808862,12.904160,-161.885310
45744,NaN,-0.413795,7.342749,7.581540,-1.919077,-0.475909,0.563123,0.183926,0.601730,0.110073,-0.103686,-0.164870,0.358316,0.913059,44.985908,13.106797,-161.595836
45745,NaN,-2.291401,7.973486,7.194813,-0.040720,-0.586734,1.152996,0.043697,0.753383,0.109212,-0.105429,-0.168144,0.358261,0.912284,45.098799,13.370562,-161.242902
45746,NaN,-3.806255,8.600234,6.784171,1.509198,-0.818480,1.655915,-0.107560,0.713981,0.100771,-0.107191,-0.171171,0.357521,0.911806,45.121597,13.621315,-160.909082
45747,NaN,-4.730551,8.650280,6.240669,2.540693,-0.910591,1.539273,-0.375822,0.514109,0.067333,-0.108669,-0.173202,0.355637,0.911984,44.969358,13.805189,-160.672741
45748,NaN,-5.194978,7.100918,5.562786,3.107361,-0.088518,0.121685,-0.512427,0.188438,-0.002952,-0.109367,-0.173796,0.353238,0.912719,44.699271,13.885868,-160.601733
45749,NaN,-4.552802,6.762587,5.695953,2.446795,-0.005360,-0.173313,-0.319386,-0.099603,-0.104602,-0.108923,-0.173362,0.351792,0.913413,44.501417,13.890411,-160.693208
45750,NaN,-3.002429,6.474864,6.472706,0.713723,0.144313,-0.205190,-0.294083,-0.307054,-0.176375,-0.107765,-0.172118,0.350507,0.914280,44.289758,13.838281,-160.900538
45751,NaN,-1.470034,5.804797,6.895995,-0.887468,0.376940,-0.730746,-0.250529,-0.338956,-0.135828,-0.106697,-0.170681,0.349475,0.915069,44.104882,13.756410,-161.103609
45752,NaN,-1.056648,5.911864,7.938113,-1.639131,0.781622,-0.025833,-0.170617,-0.249936,0.008929,-0.106380,-0.169439,0.348880,0.915563,43.988795,13.652763,-161.208498
45753,NaN,0.189322,5.959004,7.621785,-2.641888,0.149369,-0.504883,-0.284855,0.003178,0.094674,-0.106992,-0.169147,0.347703,0.915994,43.840963,13.619497,-161.173229
45754,NaN,-0.645993,5.831803,7.252322,-1.733773,0.262153,-0.650336,-0.227812,0.228901,0.244574,-0.108636,-0.169656,0.346788,0.916053,43.761994,13.619975,-160.981967
45755,NaN,-2.226614,6.418382,6.747359,-0.036215,0.018247,-0.237791,-0.157197,0.291034,0.325423,-0.110697,-0.170350,0.346234,0.915887,43.738064,13.614505,-160.730903
45756,NaN,-2.629234,6.541797,6.376225,0.493928,-0.166417,-0.320977,-0.156312,0.210589,0.351432,-0.112737,-0.170627,0.345745,0.915772,43.708902,13.565336,-160.501605
45757,NaN,-2.848559,6.262456,6.344416,0.688041,0.097022,-0.479872,-0.029394,0.253313,0.336077,-0.114670,-0.171198,0.345802,0.915403,43.755353,13.540038,-160.261622
45758,NaN,-2.882058,6.521581,7.197937,0.405533,0.438770,0.301193,0.083979,0.196104,0.247838,-0.116004,-0.171724,0.346331,0.914937,43.851923,13.525653,-160.082420
45759,NaN,-1.221572,7.394382,7.678596,-1.230299,-0.452731,0.836789,0.079734,0.272562,0.136766,-0.116965,-0.172790,0.346703,0.914473,43.942901,13.586837,-159.919240
45760,NaN,-0.569100,7.730964,8.363452,-2.092785,-0.514937,1.385257,-0.060686,0.548942,0.053030,-0.118144,-0.175180,0.346194,0.914059,43.971694,13.794988,-159.678228
45761,NaN,-0.226505,7.654017,8.194913,-2.390797,-0.706379,1.122419,-0.250975,0.829589,-0.016245,-0.119656,-0.178859,0.344588,0.913757,43.913795,14.146607,-159.351607
45762,NaN,-1.236988,7.409410,7.941601,-1.456462,-0.385203,1.014506,-0.399853,1.079712,-0.032924,-0.121654,-0.183615,0.342124,0.913475,43.796052,14.608589,-158.929408
45763,NaN,-2.387653,7.888017,6.988803,-0.042034,-0.954952,0.950705,-0.547940,1.193860,-0.037022,-0.123957,-0.188802,0.338903,0.913309,43.608920,15.120514,-158.462953
45764,NaN,-3.762199,7.253158,5.720763,1.615848,-0.786948,-0.001528,-0.728210,1.086436,0.005556,-0.126441,-0.193307,0.334946,0.913486,43.314692,15.572921,-158.022810
45765,NaN,-5.089488,6.509117,4.898520,3.049246,-0.267291,-0.707883,-0.640335,0.712521,-0.007309,-0.128146,-0.196173,0.331610,0.913854,43.030919,15.876060,-157.742655
45766,NaN,-4.934868,5.136605,4.314973,3.008592,0.345487,-2.054751,-0.386739,0.292352,-0.086993,-0.128545,-0.197413,0.329613,0.914254,42.836305,16.035371,-157.668258
45767,NaN,-4.910584,4.424567,5.001564,2.597615,1.237254,-2.039151,0.107725,-0.012901,-0.113249,-0.127826,-0.197616,0.330051,0.914152,42.888300,16.076678,-157.729956
45768,NaN,-4.564054,5.745497,6.382229,1.812129,0.899056,-0.300486,0.438492,-0.371133,-0.103889,-0.126237,-0.196379,0.332232,0.913850,43.090181,15.964449,-157.932423
45769,NaN,-2.077844,4.993228,7.552479,-0.987386,1.242297,-0.660015,0.279978,-0.318919,-0.142152,-0.124712,-0.195343,0.333621,0.913775,43.203354,15.889718,-158.130676
45770,NaN,-0.397039,4.993599,7.266135,-2.371210,0.513301,-1.327168,0.583919,0.058958,-0.171237,-0.123389,-0.196270,0.336127,0.912837,43.528964,15.984413,-158.187024
45771,NaN,0.211265,5.863015,6.870127,-2.698873,-0.530335,-1.207302,0.663257,0.434919,-0.076301,-0.123051,-0.198801,0.338855,0.911325,43.954864,16.197644,-158.046900
45772,NaN,-1.580648,6.674377,7.301914,-1.289050,-0.190343,0.120339,0.758398,0.766317,0.053677,-0.123770,-0.202674,0.341931,0.909224,44.490431,16.493704,-157.711071
45773,NaN,-3.305908,8.397266,7.624564,0.162401,-0.585326,1.985923,0.593895,0.772474,0.110135,-0.124919,-0.206372,0.344307,0.907336,44.942302,16.766799,-157.345604
45774,NaN,-3.560631,8.003675,6.509647,0.799398,-0.798619,1.042510,0.241298,0.654894,0.100927,-0.126186,-0.209328,0.345137,0.906167,45.178259,16.993859,-157.031591
45775,NaN,-3.807272,7.489003,6.086692,1.122762,-0.547820,0.486216,0.215992,0.549511,0.099578,-0.127289,-0.211791,0.345918,0.905142,45.388319,17.177889,-156.761878
45776,NaN,-4.522698,7.893510,6.640990,1.484333,-0.232967,1.350081,0.162547,0.414056,0.079402,-0.128123,-0.213640,0.346516,0.904361,45.548531,17.314821,-156.557618
45777,NaN,-4.439115,8.144084,7.125250,1.176486,-0.159867,1.823091,-0.031095,0.213795,0.032867,-0.128605,-0.214540,0.346319,0.904155,45.567371,17.390262,-156.458471
45778,NaN,-2.948049,7.018844,6.523878,0.053932,-0.268106,0.209353,-0.291722,0.201556,-0.031681,-0.129055,-0.215328,0.344878,0.904454,45.426756,17.487146,-156.391706
45779,NaN,-2.637775,6.111987,6.589722,-0.333450,0.288764,-0.456189,-0.195518,0.224652,0.002534,-0.129594,-0.216224,0.343898,0.904537,45.349212,17.579633,-156.300822
45780,NaN,-2.556294,6.703933,6.960765,-0.545636,0.021387,0.168865,-0.089515,0.288598,0.011817,-0.130172,-0.217460,0.343361,0.904362,45.341462,17.694008,-156.178648
45781,NaN,-2.491989,6.793897,6.792586,-0.533814,-0.174712,0.096436,-0.098299,0.418046,0.043708,-0.131124,-0.219222,0.342737,0.904035,45.350557,17.847639,-155.987535
45782,NaN,-2.313548,7.611749,6.390007,-0.448334,-1.076548,0.324541,-0.047974,0.507431,0.072817,-0.132306,-0.221368,0.342308,0.903502,45.404133,18.025146,-155.745484
45783,NaN,-2.495033,7.603550,6.307588,-0.279371,-1.059452,0.317675,-0.201402,0.583740,0.052934,-0.133696,-0.223791,0.341115,0.903152,45.378832,18.241509,-155.478854
45784,NaN,-2.924725,6.628516,6.222062,0.020221,-0.240553,-0.265595,-0.156259,0.569264,0.123784,-0.135331,-0.226054,0.340207,0.902687,45.387285,18.423090,-155.188063
45785,NaN,-2.681837,6.696542,6.114020,-0.157115,-0.452683,-0.368774,-0.043570,0.617244,0.182216,-0.137181,-0.228510,0.339843,0.901926,45.476326,18.599954,-154.851468
45786,NaN,-3.266364,6.171930,5.910901,0.359542,0.055430,-0.671130,-0.010553,0.829387,0.153917,-0.139226,-0.231989,0.339441,0.900876,45.610786,18.872821,-154.434350
45787,NaN,-5.038924,6.634394,6.693834,1.472266,0.878890,0.735925,0.077814,0.479662,0.148316,-0.140547,-0.233962,0.339675,0.900072,45.748297,19.007117,-154.170064
45788,NaN,-4.332251,5.770591,6.708327,0.757007,1.228560,-0.066544,-0.125077,0.220643,-0.011934,-0.140945,-0.234897,0.338983,0.900027,45.710723,19.103275,-154.085620
45789,NaN,-3.883252,4.212886,6.544138,0.302879,2.083090,-1.373328,-0.058271,0.087514,-0.035682,-0.140930,-0.235322,0.338663,0.900039,45.689870,19.156059,-154.069047
45790,NaN,-3.579012,5.768779,6.603903,0.151012,0.858518,-0.381899,0.197496,0.082192,0.043896,-0.140965,-0.235766,0.339586,0.899569,45.825311,19.173916,-154.021033
45791,NaN,-2.425676,6.384658,5.859074,-0.396863,-0.463174,-0.834689,0.043637,0.235513,0.042245,-0.141433,-0.236796,0.339710,0.899178,45.894920,19.253698,-153.906874
45792,NaN,-2.953708,6.544595,6.065721,-0.062659,-0.234759,-0.416414,0.253420,0.326425,0.123507,-0.142173,-0.238243,0.340805,0.898265,46.108878,19.335753,-153.718516
45793,NaN,-2.435337,7.278511,6.414151,-0.645802,-0.771718,0.139005,0.272152,0.403580,0.106554,-0.142944,-0.240078,0.341911,0.897233,46.343440,19.454840,-153.502968
45794,NaN,-2.079389,7.661441,6.894487,-1.204040,-0.915231,0.592500,0.281462,0.518148,0.079248,-0.143777,-0.242477,0.342937,0.896062,46.596635,19.629481,-153.247641
45795,NaN,-2.210035,7.254783,6.745940,-1.098062,-0.630669,0.258071,0.174549,0.659480,0.122925,-0.145175,-0.245357,0.343437,0.894861,46.817592,19.840524,-152.910426
45796,NaN,-2.758415,7.240310,7.147576,-0.905932,-0.158158,0.688400,0.106239,0.754960,0.173750,-0.147048,-0.248522,0.343615,0.893612,47.022243,20.066398,-152.508213
45797,NaN,-3.689691,6.158894,6.747908,-0.061555,0.811765,0.006535,-0.086622,0.816204,0.248130,-0.149593,-0.251688,0.342977,0.892548,47.138931,20.283935,-152.046537
45798,NaN,-4.386670,6.784110,5.503598,1.214913,0.012288,-0.113192,0.062332,0.869661,0.350900,-0.152501,-0.255022,0.343082,0.891068,47.365636,20.477685,-151.516850
45799,NaN,-6.944068,7.640439,5.471268,3.380709,0.549681,1.358689,0.020900,0.558471,0.230080,-0.154385,-0.257142,0.343085,0.890132,47.504188,20.600283,-151.176235
45800,NaN,-5.669698,7.769866,4.841956,2.682957,-0.438355,0.607026,-0.052961,0.125405,0.049097,-0.154817,-0.257586,0.342855,0.890018,47.505249,20.631278,-151.105564
45801,NaN,-5.323455,7.030026,5.341975,2.045065,0.198425,0.290553,-0.002541,-0.158579,-0.067832,-0.154175,-0.257008,0.342923,0.890270,47.473633,20.601877,-151.211349
45802,NaN,-2.745665,7.120733,5.963361,-0.402470,-0.699194,-0.161038,0.076691,-0.308951,-0.114586,-0.152966,-0.255898,0.343394,0.890617,47.456305,20.533779,-151.404309
45803,NaN,-1.255181,6.740035,6.768912,-2.111180,-0.658536,-0.435536,0.073948,-0.171104,-0.085184,-0.152127,-0.255353,0.343788,0.890765,47.464234,20.506825,-151.522813
45804,NaN,-1.480660,6.640919,7.455341,-2.321462,-0.110393,0.009476,0.108370,0.055263,0.051805,-0.152245,-0.255603,0.344335,0.890462,47.546897,20.509526,-151.482711
45805,NaN,-1.308732,6.875941,7.115651,-2.262573,-0.533021,-0.105965,0.009045,0.361946,0.135245,-0.153387,-0.257000,0.344315,0.889871,47.633998,20.595476,-151.269597
45806,NaN,-2.622559,6.072534,6.598211,-0.991956,0.352027,-0.529266,-0.110264,0.576608,0.205393,-0.155364,-0.259138,0.343684,0.889152,47.697149,20.734189,-150.930109
45807,NaN,-3.023572,5.766512,5.866889,-0.313059,0.362230,-1.061363,-0.023116,0.811734,0.250943,-0.157831,-0.262307,0.343316,0.887929,47.856642,20.943527,-150.464484
45808,NaN,-4.790745,6.761774,6.046192,1.074924,0.573427,0.372829,0.100966,0.758912,0.310696,-0.160309,-0.265231,0.343609,0.886502,48.088735,21.105647,-149.996994
45809,NaN,-4.581326,6.470593,6.051210,0.834174,0.703937,0.101082,-0.078433,0.613697,0.291635,-0.162688,-0.267399,0.343198,0.885577,48.193163,21.219146,-149.602849
45810,NaN,-3.472465,5.780290,5.130936,0.378973,0.205824,-1.350407,0.054925,0.667066,0.321489,-0.165111,-0.269855,0.343365,0.884317,48.387755,21.339213,-149.171340
45811,NaN,-3.565326,7.285245,6.247104,-0.082745,-0.213958,0.422534,0.271333,0.676431,0.330803,-0.167296,-0.272513,0.344492,0.882652,48.711015,21.457082,-148.730776
45812,NaN,-3.242221,8.160219,6.636448,-0.520255,-0.759818,1.155242,0.134633,0.691435,0.293284,-0.169526,-0.275182,0.344943,0.881221,48.953665,21.594697,-148.297475
45813,NaN,-2.454480,7.724299,5.959620,-0.815627,-1.176398,0.145081,-0.057284,0.657678,0.257501,-0.171801,-0.277599,0.344528,0.880184,49.077063,21.733857,-147.893474
45814,NaN,-4.052346,6.850331,5.020217,0.890217,-0.243692,-0.447904,0.041830,0.575801,0.292811,-0.173951,-0.279675,0.344660,0.879052,49.248825,21.826026,-147.512730
45815,NaN,-4.850428,6.910660,5.637678,1.118773,0.450005,0.267640,0.138025,0.438678,0.294118,-0.175734,-0.281229,0.345338,0.877935,49.453165,21.865307,-147.195207
45816,NaN,-5.249354,7.415375,5.576316,1.496760,0.298070,0.737645,0.206521,0.442364,0.260616,-0.177280,-0.282914,0.346258,0.876719,49.692160,21.919407,-146.889076
45817,NaN,-5.461134,7.698040,5.828689,1.516482,0.365215,1.170221,0.054401,0.254458,0.252839,-0.178680,-0.283653,0.346670,0.876033,49.810556,21.906524,-146.674362
45818,NaN,-3.180049,6.081128,5.026000,0.059736,-0.063312,-1.307048,-0.152911,0.127425,0.348280,-0.180572,-0.283483,0.346418,0.875800,49.801203,21.804644,-146.481661
45819,NaN,-4.414809,5.742314,4.104472,1.552757,0.364283,-1.641549,0.271050,0.128011,0.406204,-0.182115,-0.283599,0.348105,0.874773,50.043483,21.677308,-146.265990
45820,NaN,-3.338238,7.073872,5.536162,-0.009662,-0.337743,-0.235730,0.436433,-0.056020,0.452334,-0.183306,-0.282976,0.350743,0.873672,50.353652,21.461120,-146.120220
45821,NaN,-4.204267,7.114705,4.781030,1.133109,-0.238192,-0.335762,0.528387,0.017416,0.433908,-0.184411,-0.282789,0.353688,0.872312,50.726152,21.279126,-145.948265
45822,NaN,-3.836201,7.774943,5.542408,0.456846,-0.423751,0.458428,0.456291,-0.195026,0.451030,-0.185317,-0.281573,0.356532,0.871355,51.021475,21.011677,-145.872409
45823,NaN,-3.517484,6.738235,5.118675,0.362044,-0.042737,-0.656046,0.436477,-0.238394,0.505566,-0.186407,-0.280052,0.359405,0.870431,51.305245,20.704073,-145.797784
45824,NaN,-2.940290,6.784770,5.354175,-0.208376,-0.189126,-0.687668,0.530591,-0.333293,0.478266,-0.187074,-0.278249,0.362730,0.869487,51.621675,20.374349,-145.780967
45825,NaN,-1.787121,5.463102,5.561637,-1.379565,0.262295,-1.938763,0.589747,-0.240493,0.602473,-0.188363,-0.276676,0.366395,0.868173,52.003344,20.021589,-145.674822
45826,NaN,-2.884160,6.143801,5.740523,-0.556168,0.577292,-0.959739,1.011819,0.014495,0.705538,-0.189979,-0.276409,0.371780,0.865613,52.679209,19.710318,-145.411127
45827,NaN,-3.151993,7.652556,5.877702,-0.264673,-0.071777,0.334604,1.022964,0.013578,0.715141,-0.191610,-0.276121,0.377218,0.862989,53.360224,19.391514,-145.148746
45828,NaN,-3.823347,8.220641,6.578016,-0.132476,0.429162,1.379464,0.887754,0.118641,0.619763,-0.193210,-0.276326,0.381822,0.860538,53.966192,19.149551,-144.873627
45829,NaN,-4.228317,7.973737,6.048405,0.453123,0.618071,1.024946,0.689735,0.212130,0.485420,-0.194677,-0.276994,0.385293,0.858443,54.456939,18.998961,-144.602892
45830,NaN,-4.049608,7.784623,5.145397,0.833683,0.222544,0.322879,0.673594,0.054392,0.409050,-0.195533,-0.277109,0.388732,0.856659,54.902699,18.829652,-144.438478
45831,NaN,-3.550096,7.748536,4.691572,0.711838,-0.206531,-0.111966,0.721083,-0.100762,0.333848,-0.195695,-0.276750,0.392420,0.855055,55.342168,18.643772,-144.378560
45832,NaN,-2.697068,7.833867,4.799580,-0.019958,-0.593247,-0.256184,0.821214,-0.271448,0.222090,-0.194903,-0.275971,0.396537,0.853587,55.798520,18.454866,-144.443606
45833,NaN,-2.091726,7.563131,4.626786,-0.432014,-0.779867,-0.746930,0.959367,-0.281343,0.212621,-0.193855,-0.275299,0.401234,0.851846,56.331739,18.267949,-144.518356
45834,NaN,-2.518384,7.766055,5.087744,-0.396469,-0.306239,-0.206074,1.136970,-0.273271,0.272695,-0.192830,-0.274702,0.406747,0.849654,56.973244,18.055448,-144.571144
45835,NaN,-2.591814,7.548869,4.971004,-0.318691,-0.097592,-0.415790,1.163319,-0.293861,0.335458,-0.191984,-0.273907,0.412466,0.847342,57.632961,17.806984,-144.616360
45836,NaN,-3.211338,6.368814,4.686378,0.205359,0.873930,-1.325653,1.178246,-0.424565,0.482646,-0.191466,-0.272255,0.418554,0.845003,58.294021,17.447730,-144.684226
45837,NaN,-3.117122,5.662948,3.549607,0.763239,0.657506,-2.507277,1.552475,-0.484303,0.759161,-0.191467,-0.270115,0.426633,0.841642,59.185500,16.936293,-144.701533
45838,NaN,-4.541778,6.023795,3.691967,1.820440,1.473768,-1.746951,1.912281,-0.692151,1.034217,-0.191678,-0.266828,0.436749,0.837444,60.273154,16.228990,-144.752476
45839,NaN,-5.325111,6.877164,3.935340,2.367012,1.788433,-0.738897,2.300037,-0.844868,1.203493,-0.191715,-0.262864,0.448794,0.832305,61.571788,15.395733,-144.848889
45840,NaN,-5.533921,8.901076,5.417256,1.795785,2.067612,1.663021,2.675989,-0.963901,1.122922,-0.190617,-0.258887,0.462313,0.826383,63.059386,14.574022,-145.050701
45841,NaN,-3.825793,11.064955,6.407178,-0.007119,1.031613,3.493211,2.545582,-1.135394,0.944116,-0.188508,-0.254436,0.475124,0.820966,64.436777,13.806118,-145.410310
45842,NaN,-0.717659,12.053001,6.116398,-2.274542,-1.029191,3.489956,1.916949,-0.964835,0.686003,-0.186513,-0.250658,0.484780,0.816928,65.460177,13.220773,-145.758939
45843,NaN,1.094494,10.845483,5.103986,-3.227479,-1.947064,1.618113,1.113791,-0.485382,0.598870,-0.186313,-0.248282,0.490560,0.814245,66.078266,12.798839,-145.879163
45844,NaN,0.597015,8.879563,4.678200,-2.699645,-0.958934,-0.175258,0.911657,0.062514,0.665974,-0.187975,-0.247770,0.495069,0.811284,66.647773,12.468552,-145.693353
45845,NaN,-1.119154,8.291719,4.680074,-1.369378,0.361731,-0.331087,1.205136,0.351126,0.746155,-0.190303,-0.248498,0.500577,0.807128,67.421163,12.158495,-145.337531
45846,NaN,-2.455122,8.675370,4.464719,-0.182893,0.928807,0.203553,1.396782,0.428359,0.773911,-0.192689,-0.249634,0.506787,0.802322,68.310911,11.845257,-144.938764
45847,NaN,-3.340218,8.500590,4.061209,0.711141,1.368082,0.063078,1.446277,0.398973,0.803669,-0.195042,-0.250607,0.513228,0.797341,69.224154,11.504026,-144.555256
45848,NaN,-3.909421,8.453294,3.906826,1.210166,1.771835,0.056361,1.652837,0.252019,0.873589,-0.197024,-0.250995,0.520678,0.791882,70.238549,11.089684,-144.244584
45849,NaN,-4.235507,9.070157,3.954928,1.430858,1.959269,0.673423,1.884811,-0.064899,0.955176,-0.198192,-0.250122,0.529411,0.786055,71.352358,10.566038,-144.101124
45850,NaN,-2.866752,9.554469,3.339751,0.700712,0.762131,0.655559,1.914263,-0.295810,0.946342,-0.198656,-0.248362,0.538415,0.780360,72.456285,10.003332,-144.097753
45851,NaN,-0.925181,9.669896,2.808225,-0.555221,-0.578239,0.267123,1.878452,-0.328794,0.916767,-0.198936,-0.246492,0.547215,0.774740,73.534283,9.451552,-144.128448
45852,NaN,0.914680,9.621659,2.437135,-1.842550,-1.698554,-0.165462,1.892813,-0.114782,0.891932,-0.199666,-0.245503,0.555765,0.768757,74.637154,8.947546,-144.054403
45853,NaN,1.407380,9.809897,2.321220,-2.209130,-1.930827,-0.066351,1.942838,0.321795,0.832011,-0.201294,-0.246383,0.563937,0.762070,75.802819,8.539348,-143.754631
45854,NaN,-0.362756,10.109100,2.665245,-1.061897,-0.520981,0.580875,1.946563,0.599468,0.737846,-0.203320,-0.248560,0.571660,0.755039,76.987928,8.214870,-143.320296
45855,NaN,-1.318154,10.336197,2.719366,-0.412449,0.224899,0.945794,1.852502,0.688089,0.664144,-0.205412,-0.251159,0.578784,0.748154,78.122038,7.934008,-142.852140
45856,NaN,-1.690035,10.236158,2.668709,-0.174239,0.622887,0.880090,1.698402,0.752656,0.610415,-0.207665,-0.253970,0.585135,0.741614,79.168641,7.681772,-142.359260
45857,NaN,-1.760424,9.751658,2.284426,0.034507,0.655310,0.335183,1.569413,0.811791,0.600903,-0.210199,-0.256871,0.590884,0.735316,80.143250,7.432470,-141.838612
45858,NaN,-1.602301,9.354958,2.080022,-0.037218,0.647147,-0.118028,1.585310,0.910719,0.620448,-0.213058,-0.260071,0.596556,0.728759,81.131085,7.172475,-141.264414
45859,NaN,-1.546760,9.387598,1.987035,-0.098922,0.695605,-0.118804,1.664231,1.043976,0.630784,-0.216228,-0.263785,0.602329,0.721708,82.170723,6.907739,-140.618284
45860,NaN,-1.322196,9.828109,2.057192,-0.402356,0.695391,0.283025,1.710438,1.109787,0.673609,-0.219667,-0.267627,0.608186,0.714305,83.237490,6.611643,-139.936755
45861,NaN,-1.256042,10.220952,2.104227,-0.572546,0.799674,0.651670,1.664223,1.175706,0.735992,-0.223563,-0.271434,0.613819,0.706802,84.278374,6.271793,-139.219542
45862,NaN,-1.949430,10.526721,1.834890,0.037090,1.185860,0.983971,1.596218,1.197372,0.746926,-0.227633,-0.275175,0.619130,0.699385,85.276277,5.914140,-138.496019
45863,NaN,-2.165293,10.715056,1.490222,0.345150,1.229624,1.145759,1.432510,1.042555,0.738976,-0.231396,-0.278186,0.623972,0.692624,86.166560,5.542684,-137.868187
45864,NaN,-2.188920,10.426327,1.070341,0.589800,1.136505,0.817622,1.270672,0.840349,0.705440,-0.234620,-0.280391,0.628387,0.686632,86.948253,5.174300,-137.363616
45865,NaN,-1.708083,9.756291,0.715816,0.449644,0.765746,0.077962,1.178922,0.624819,0.662622,-0.237132,-0.281866,0.632643,0.681237,87.663162,4.818201,-136.989085
45866,NaN,-0.942207,9.363615,0.590946,-0.053099,0.317067,-0.388808,1.217354,0.462100,0.590449,-0.238818,-0.283044,0.637085,0.675999,88.389493,4.495443,-136.714280
45867,NaN,-0.105492,9.418938,0.399917,-0.578117,-0.275186,-0.406515,1.288139,0.422785,0.532566,-0.240070,-0.284345,0.641699,0.670624,89.153098,4.201954,-136.466996
45868,NaN,0.476763,9.537461,0.364579,-1.029793,-0.588903,-0.330347,1.256170,0.489240,0.491642,-0.241431,-0.285945,0.646033,0.665273,89.899290,3.928876,-136.185851
45869,NaN,1.229531,9.253554,0.248831,-1.521761,-1.071118,-0.661843,1.127798,0.683153,0.479422,-0.243548,-0.288061,0.649657,0.660038,90.578017,3.658964,-135.796766
45870,NaN,2.172018,8.867176,0.092309,-2.095936,-1.732036,-1.097217,1.106999,1.044096,0.546860,-0.247077,-0.291107,0.652832,0.654233,91.254973,3.342441,-135.204571
45871,NaN,2.603336,8.762004,0.011927,-2.353969,-2.004827,-1.210995,1.195076,1.589662,0.624082,-0.252489,-0.295768,0.655677,0.647192,91.996014,2.965535,-134.304911
45872,NaN,1.975005,9.257425,0.178764,-2.079972,-1.354772,-0.676496,1.329469,2.105053,0.664073,-0.259487,-0.302095,0.658275,0.638811,92.821394,2.541069,-133.116376
45873,NaN,1.188739,9.960119,0.364894,-1.753960,-0.549550,0.054975,1.288495,2.429688,0.655791,-0.267541,-0.309376,0.660190,0.629967,93.621788,2.093975,-131.748433
45874,NaN,0.179019,10.336663,0.327058,-1.125982,0.293213,0.464986,1.127175,2.579588,0.553768,-0.275964,-0.317189,0.661102,0.621433,94.321992,1.681490,-130.296889
45875,NaN,-1.744604,10.513781,0.386564,-0.010928,1.913018,0.678798,0.895216,2.426854,0.377425,-0.283650,-0.324729,0.661102,0.614034,94.877974,1.360705,-128.929602
45876,NaN,-2.650809,10.615570,0.248955,0.573067,2.633462,0.794593,0.628006,1.916259,0.223740,-0.289572,-0.330788,0.660664,0.608482,95.267942,1.142390,-127.848623
45877,NaN,-2.247286,10.584862,0.000744,0.458165,2.232096,0.765450,0.374438,1.390737,0.132602,-0.293877,-0.335155,0.660015,0.604721,95.503826,0.998337,-127.063969
45878,NaN,-1.435866,10.562114,-0.296501,0.173752,1.446637,0.750685,0.155400,1.008559,0.106671,-0.297199,-0.338118,0.659195,0.602338,95.608735,0.888034,-126.496184
45879,NaN,-0.481684,10.414927,-0.518550,-0.207537,0.562603,0.609021,-0.044040,0.794456,0.126132,-0.300204,-0.340069,0.658112,0.600932,95.596615,0.778117,-126.051736
45880,NaN,0.659495,10.193637,-0.855881,-0.570120,-0.558542,0.406932,-0.148789,0.782811,0.154595,-0.303431,-0.341728,0.656768,0.599839,95.523339,0.652980,-125.615398
45881,NaN,1.378136,9.881198,-1.188372,-0.659697,-1.340708,0.122941,-0.126946,0.960841,0.235071,-0.307439,-0.343683,0.655345,0.598236,95.462483,0.472649,-125.081855
45882,NaN,1.930815,9.574751,-1.422996,-0.717373,-1.922630,-0.157770,-0.013358,1.317026,0.322495,-0.312670,-0.346580,0.653841,0.595493,95.465801,0.223330,-124.349798
45883,NaN,2.211585,9.527015,-1.497247,-0.762187,-2.162524,-0.187771,0.220287,1.746585,0.430563,-0.319203,-0.350744,0.652508,0.591034,95.599609,-0.112338,-123.379191
45884,NaN,1.804889,9.765420,-1.183054,-0.776046,-1.581159,0.032000,0.420842,2.090472,0.530823,-0.326769,-0.355884,0.651327,0.585100,95.840787,-0.527874,-122.219205
45885,NaN,1.094788,9.923373,-1.037021,-0.506353,-0.820428,0.178171,0.502654,2.378630,0.532932,-0.335090,-0.361942,0.649831,0.578301,96.118205,-0.967251,-120.897181
45886,NaN,0.348392,10.052715,-0.955822,-0.196678,-0.047704,0.289316,0.540518,2.567985,0.474927,-0.343734,-0.368741,0.647913,0.571039,96.404968,-1.391741,-119.465434
45887,NaN,-0.299892,10.138862,-0.757689,-0.072514,0.702076,0.334321,0.516585,2.654833,0.379741,-0.352369,-0.375987,0.645486,0.563754,96.666562,-1.774774,-117.980095
45888,NaN,-0.887719,10.145088,-0.653287,0.076216,1.344987,0.302759,0.456156,2.637398,0.268801,-0.360685,-0.383368,0.642590,0.556789,96.884366,-2.099497,-116.498241
45889,NaN,-1.506339,10.032986,-0.386198,0.073951,2.067987,0.126953,0.372340,2.500249,0.148399,-0.368324,-0.390536,0.639370,0.550478,97.049522,-2.351343,-115.087121
45890,NaN,-1.959370,9.812377,-0.124868,-0.010314,2.612316,-0.152838,0.313269,2.200757,0.055652,-0.374813,-0.397014,0.636265,0.545034,97.182407,-2.532675,-113.840056
45891,NaN,-2.248761,9.765887,0.068944,-0.130103,2.980504,-0.245373,0.287369,1.825277,0.005893,-0.379985,-0.402536,0.633629,0.540454,97.306657,-2.661498,-112.803419
45892,NaN,-2.402686,9.877621,0.353138,-0.402615,3.260207,-0.185971,0.227335,1.436093,-0.015362,-0.383961,-0.406933,0.631483,0.536850,97.404868,-2.751593,-111.986650
45893,NaN,-2.310427,10.092270,0.495478,-0.636646,3.257587,0.006690,0.121356,1.038133,-0.001533,-0.386918,-0.409998,0.629820,0.534343,97.452272,-2.821106,-111.397345
45894,NaN,-2.209157,10.194744,0.507315,-0.719856,3.181898,0.108395,-0.032252,0.681062,0.019033,-0.389113,-0.411740,0.628467,0.533002,97.421200,-2.875901,-111.012652
45895,NaN,-1.994038,10.198845,0.421786,-0.718273,2.951113,0.134449,-0.210341,0.381791,0.036682,-0.390778,-0.412279,0.627251,0.532798,97.296359,-2.918142,-110.799337
45896,NaN,-1.643628,10.259461,0.346655,-0.756921,2.597604,0.225124,-0.359457,0.176162,0.046551,-0.392131,-0.411946,0.626059,0.533464,97.092036,-2.950724,-110.703749
45897,NaN,-1.365141,10.261034,0.210665,-0.687903,2.278415,0.263631,-0.538661,0.069610,0.035854,-0.393488,-0.411011,0.624571,0.534929,96.787947,-2.969235,-110.667762
45898,NaN,-1.258656,10.111914,0.120670,-0.570128,2.115138,0.139715,-0.703443,0.042007,0.024400,-0.395063,-0.409707,0.622668,0.536982,96.390343,-2.979379,-110.646833
45899,NaN,-1.078848,9.982994,-0.049729,-0.393896,1.852627,0.048278,-0.808527,0.060285,0.024621,-0.396906,-0.408241,0.620437,0.539318,95.931792,-2.990360,-110.615149
45900,NaN,-0.995699,9.931735,-0.237092,-0.167383,1.679110,0.027991,-0.873370,0.113509,0.027781,-0.399048,-0.406770,0.617923,0.541729,95.434684,-3.006157,-110.553432
45901,NaN,-0.959393,9.862335,-0.450290,0.104858,1.537333,-0.014024,-0.915083,0.187653,0.012085,-0.401454,-0.405460,0.615100,0.544140,94.911167,-3.015963,-110.448068
45902,NaN,-0.934267,9.989391,-0.666969,0.373031,1.419565,0.134707,-0.910986,0.283954,-0.004290,-0.404093,-0.404459,0.612053,0.546364,94.387260,-3.020246,-110.287111
45903,NaN,-1.147157,10.123842,-0.774329,0.621929,1.561074,0.266168,-0.919271,0.385942,-0.042383,-0.406949,-0.403831,0.608681,0.548471,93.855240,-3.005104,-110.065792
45904,NaN,-1.386621,10.016785,-0.792390,0.805221,1.738529,0.147990,-0.912815,0.444649,-0.079683,-0.409857,-0.403476,0.605121,0.550502,93.325433,-2.969070,-109.810064
45905,NaN,-1.633518,9.819284,-0.807099,0.982482,1.918570,-0.061202,-0.845828,0.447612,-0.107466,-0.412553,-0.403346,0.601665,0.552369,92.833873,-2.914511,-109.551643
45906,NaN,-1.807898,9.680840,-0.795299,1.095955,2.045227,-0.208770,-0.750686,0.417905,-0.140998,-0.414867,-0.403418,0.598456,0.554066,92.398174,-2.838345,-109.310312
45907,NaN,-1.900993,9.736775,-0.708645,1.095243,2.132763,-0.160111,-0.641942,0.370532,-0.168195,-0.416738,-0.403665,0.595578,0.555582,92.026255,-2.743331,-109.095505
45908,NaN,-1.980585,9.817658,-0.672450,1.129374,2.190446,-0.081936,-0.587592,0.312716,-0.220154,-0.418176,-0.404008,0.592863,0.557152,91.687631,-2.616697,-108.914077
45909,NaN,-1.961738,9.709455,-0.685836,1.176525,2.124340,-0.184863,-0.558790,0.234979,-0.277992,-0.419161,-0.404369,0.590262,0.558910,91.367741,-2.454080,-108.776378
45910,NaN,-1.929832,9.628415,-0.744808,1.258556,2.028408,-0.258280,-0.530399,0.165609,-0.335294,-0.419718,-0.404753,0.587770,0.560837,91.066381,-2.257684,-108.679358
45911,NaN,-1.871799,9.630583,-0.737234,1.265993,1.927795,-0.248387,-0.523493,0.124366,-0.393481,-0.419974,-0.405210,0.585252,0.562944,90.770072,-2.026349,-108.605666
45912,NaN,-1.792081,9.671444,-0.718360,1.255295,1.805602,-0.198735,-0.541321,0.096249,-0.453945,-0.420007,-0.405716,0.582621,0.565281,90.464595,-1.760543,-108.549764
45913,NaN,-1.744013,9.677846,-0.730475,1.284654,1.695419,-0.184050,-0.562048,0.069182,-0.514281,-0.419828,-0.406280,0.579850,0.567851,90.147845,-1.458975,-108.509714
45914,NaN,-1.783158,9.605531,-0.688468,1.290226,1.677050,-0.250146,-0.576358,0.031959,-0.572360,-0.419397,-0.406862,0.576997,0.570652,89.823776,-1.124732,-108.493623
45915,NaN,-1.737023,9.621467,-0.644420,1.266596,1.575113,-0.225229,-0.571079,-0.009052,-0.620926,-0.418693,-0.407481,0.574129,0.573613,89.503132,-0.761825,-108.502049
45916,NaN,-1.785442,9.633351,-0.583783,1.256181,1.563572,-0.205050,-0.564468,-0.061094,-0.659559,-0.417707,-0.408058,0.571307,0.576731,89.186652,-0.378075,-108.543587
45917,NaN,-1.712103,9.623028,-0.642081,1.318124,1.394904,-0.207356,-0.546350,-0.133383,-0.690944,-0.416380,-0.408556,0.568605,0.579999,88.880311,0.023693,-108.627798
45918,NaN,-1.577156,9.567930,-0.580517,1.244412,1.204267,-0.253910,-0.535370,-0.192073,-0.709660,-0.414799,-0.408942,0.566015,0.583383,88.579604,0.434012,-108.749114
45919,NaN,-1.405919,9.623685,-0.567428,1.205663,0.961112,-0.193130,-0.525877,-0.228894,-0.719368,-0.413059,-0.409270,0.563488,0.586822,88.283135,0.849709,-108.892605
45920,NaN,-1.247365,9.668087,-0.584854,1.197999,0.719389,-0.147466,-0.511166,-0.242520,-0.721400,-0.411235,-0.409575,0.561026,0.590241,87.993927,1.264538,-109.047283
45921,NaN,-1.113406,9.813878,-0.582958,1.179794,0.503970,-0.002224,-0.472601,-0.245594,-0.709325,-0.409351,-0.409919,0.558688,0.593520,87.725576,1.672714,-109.204227
45922,NaN,-0.973672,10.194050,-0.476450,1.063828,0.308473,0.378791,-0.417910,-0.242752,-0.679105,-0.407445,-0.410279,0.556567,0.596568,87.487516,2.061871,-109.361928
45923,NaN,-0.891265,10.574804,-0.349175,0.946109,0.172517,0.761683,-0.414867,-0.230624,-0.644597,-0.405663,-0.410591,0.554482,0.599501,87.250391,2.432055,-109.512102
45924,NaN,-0.720188,10.787809,-0.331934,0.900371,-0.075387,0.966402,-0.445686,-0.202621,-0.611075,-0.404114,-0.410813,0.552318,0.602386,86.995362,2.782094,-109.648219
45925,NaN,-0.556973,10.852106,-0.375263,0.914298,-0.326911,1.016710,-0.497963,-0.148224,-0.576944,-0.402922,-0.411005,0.549938,0.605224,86.711166,3.114805,-109.752437
45926,NaN,-0.534692,10.722756,-0.449566,1.003251,-0.440459,0.876766,-0.540130,-0.068175,-0.542349,-0.402133,-0.411241,0.547342,0.607936,86.404777,3.428804,-109.812698
45927,NaN,-0.615998,10.491761,-0.454575,1.061351,-0.422285,0.644740,-0.574840,0.011396,-0.531563,-0.401662,-0.411626,0.544485,0.610547,86.081001,3.740421,-109.827361
45928,NaN,-0.672238,10.248980,-0.462683,1.113970,-0.423577,0.399399,-0.581939,0.075800,-0.522984,-0.401399,-0.412150,0.541496,0.613020,85.755418,4.048533,-109.807909
45929,NaN,-0.721940,10.065440,-0.483521,1.175859,-0.436623,0.211997,-0.547890,0.128271,-0.529206,-0.401184,-0.412927,0.538475,0.615294,85.451621,4.363741,-109.758991
45930,NaN,-0.812298,9.950432,-0.466865,1.214528,-0.402670,0.099488,-0.509448,0.167938,-0.542076,-0.400950,-0.413920,0.535468,0.617401,85.171622,4.687259,-109.690914
45931,NaN,-0.868460,9.933889,-0.374359,1.169185,-0.384372,0.089907,-0.441339,0.187134,-0.553592,-0.400587,-0.415145,0.532592,0.619298,84.931962,5.019740,-109.612459
45932,NaN,-0.968965,10.072390,-0.423182,1.272446,-0.386879,0.227326,-0.352954,0.148536,-0.563194,-0.399901,-0.416436,0.530049,0.621054,84.741070,5.354861,-109.559222
45933,NaN,-1.205095,10.210441,-0.435631,1.378118,-0.250405,0.382061,-0.256196,0.079521,-0.573067,-0.398797,-0.417741,0.527910,0.622707,84.602201,5.693233,-109.545591
45934,NaN,-1.170974,10.524911,-0.310309,1.265359,-0.344291,0.700221,-0.157396,-0.015034,-0.563342,-0.397263,-0.418906,0.526291,0.624274,84.514243,6.019804,-109.587724
45935,NaN,-0.906331,11.071027,-0.133671,1.032781,-0.667828,1.227875,-0.087987,-0.101853,-0.534716,-0.395441,-0.419872,0.525108,0.625776,84.460868,6.326368,-109.677056
45936,NaN,-0.517549,11.682831,-0.089082,0.881717,-1.159926,1.790812,-0.067664,-0.156502,-0.502016,-0.393532,-0.420604,0.524170,0.627272,84.415032,6.610023,-109.797691
45937,NaN,-0.210253,11.983250,-0.092722,0.788815,-1.550760,2.045798,-0.146799,-0.175475,-0.482799,-0.391798,-0.421082,0.523050,0.628970,84.322398,6.882639,-109.927101
45938,NaN,0.077191,11.888856,-0.238161,0.825255,-1.914654,1.894588,-0.259742,-0.150283,-0.462215,-0.390429,-0.421347,0.521572,0.630868,84.165952,7.143554,-110.042961
45939,NaN,0.290998,11.630608,-0.354891,0.860056,-2.173850,1.589770,-0.311696,-0.096857,-0.422189,-0.389432,-0.421585,0.519899,0.632703,83.983691,7.385555,-110.125179
45940,NaN,0.400216,11.515670,-0.378926,0.853747,-2.319638,1.448067,-0.281542,-0.026410,-0.361923,-0.388742,-0.421932,0.518316,0.634194,83.823659,7.596181,-110.165388
45941,NaN,0.361764,11.621566,-0.315757,0.826468,-2.324728,1.554098,-0.225395,0.031103,-0.278948,-0.388346,-0.422366,0.516965,0.635250,83.701154,7.764033,-110.166529
45942,NaN,0.222372,11.703027,-0.193774,0.774317,-2.200608,1.659258,-0.152692,0.062110,-0.173757,-0.388208,-0.422754,0.516012,0.635850,83.623150,7.872937,-110.144771
45943,NaN,0.096588,11.723830,-0.075452,0.712889,-2.064928,1.706474,-0.057412,0.064777,-0.043629,-0.388289,-0.423012,0.515626,0.635942,83.601626,7.908860,-110.111914
45944,NaN,-0.070283,11.668986,0.082387,0.619020,-1.848093,1.692890,0.030164,0.061913,0.082567,-0.388579,-0.423093,0.515797,0.635572,83.630654,7.871816,-110.073868
45945,NaN,-0.234002,11.363480,0.225392,0.519635,-1.583271,1.432642,0.087543,0.062012,0.175032,-0.389041,-0.423059,0.516340,0.634871,83.693896,7.782951,-110.028671
45946,NaN,-0.431060,10.812750,0.306500,0.473726,-1.258855,0.929106,0.122620,0.064893,0.233576,-0.389622,-0.422939,0.517117,0.633962,83.777283,7.660010,-109.979478
45947,NaN,-0.592592,10.051174,0.367287,0.420423,-0.937330,0.210123,0.171580,0.062271,0.257700,-0.390168,-0.422854,0.518099,0.632879,83.889199,7.523890,-109.929336
45948,NaN,-0.724274,9.420222,0.416517,0.370892,-0.669557,-0.386517,0.242666,0.062503,0.242288,-0.390515,-0.422936,0.519277,0.631645,84.040967,7.395647,-109.881514
45949,NaN,-0.797579,8.914763,0.505275,0.266185,-0.467056,-0.864204,0.300635,0.056439,0.196006,-0.390575,-0.423242,0.520546,0.630356,84.225656,7.294070,-109.839142
45950,NaN,-0.879584,8.506628,0.649454,0.114220,-0.259058,-1.240760,0.330214,0.045498,0.132017,-0.390342,-0.423725,0.521796,0.629142,84.425284,7.227439,-109.808227
45951,NaN,-0.909930,8.076177,0.687598,0.042284,-0.137483,-1.657649,0.335531,0.026702,0.052920,-0.389798,-0.424376,0.522927,0.628100,84.626663,7.205557,-109.791566
45952,NaN,-0.895965,7.727608,0.833157,-0.141193,-0.041385,-1.990211,0.334049,0.005496,-0.021654,-0.388967,-0.425139,0.523938,0.627256,84.824490,7.224280,-109.792287
45953,NaN,-0.842395,7.640782,0.987050,-0.334391,-0.024033,-2.069756,0.330485,-0.011681,-0.089167,-0.387885,-0.426029,0.524823,0.626583,85.019263,7.281433,-109.805137
45954,NaN,-0.685463,7.546737,1.171647,-0.590190,-0.097267,-2.168211,0.275883,-0.043676,-0.158170,-0.386618,-0.426881,0.525454,0.626257,85.179308,7.375686,-109.840774
45955,NaN,-0.440944,7.327676,1.251293,-0.777057,-0.273590,-2.411586,0.191519,-0.054985,-0.214011,-0.385325,-0.427691,0.525718,0.626279,85.290432,7.502127,-109.884269
45956,NaN,-0.239012,7.046210,1.240293,-0.861149,-0.435057,-2.719476,0.121369,-0.033424,-0.258700,-0.384099,-0.428539,0.525628,0.626529,85.361995,7.654407,-109.918377
45957,NaN,0.027588,6.852451,1.211521,-0.944003,-0.678936,-2.951747,0.078239,0.021404,-0.282921,-0.383032,-0.429549,0.525241,0.626815,85.413492,7.823814,-109.920785
45958,NaN,0.280019,6.795728,1.225601,-1.056135,-0.918259,-3.044839,0.056388,0.112632,-0.287740,-0.382235,-0.430804,0.524602,0.626974,85.459073,7.999403,-109.871742
45959,NaN,0.496839,6.893385,1.260974,-1.170279,-1.143179,-2.980469,0.035023,0.226114,-0.273400,-0.381826,-0.432345,0.523706,0.626912,85.502472,8.172570,-109.755409
45960,NaN,0.657199,7.169219,1.273142,-1.236970,-1.353187,-2.735311,0.023696,0.356249,-0.248753,-0.381858,-0.434196,0.522580,0.626552,85.550100,8.336700,-109.563671
45961,NaN,0.729360,7.493043,1.273452,-1.259562,-1.494412,-2.431662,-0.003272,0.487632,-0.209403,-0.382413,-0.436311,0.521198,0.625895,85.594740,8.484620,-109.293179
45962,NaN,0.806582,7.844391,1.184492,-1.194620,-1.674072,-2.108248,-0.040254,0.617670,-0.157391,-0.383547,-0.438614,0.519564,0.624950,85.629795,8.607732,-108.945977
45963,NaN,0.716171,8.461178,1.142483,-1.111256,-1.723883,-1.493853,-0.011254,0.739853,-0.078433,-0.385177,-0.441151,0.517951,0.623499,85.693797,8.691249,-108.523692
45964,NaN,0.589859,9.268481,1.179996,-1.086738,-1.742273,-0.678765,-0.028043,0.842996,0.015521,-0.387398,-0.443720,0.516288,0.621677,85.757726,8.724506,-108.038380
45965,NaN,0.563990,9.811089,1.200556,-1.076915,-1.811394,-0.139220,-0.117924,0.939859,0.100780,-0.390325,-0.446194,0.514335,0.619691,85.779825,8.713199,-107.492685
45966,NaN,0.407275,10.019011,0.991746,-0.805811,-1.763073,0.075295,-0.219969,1.027042,0.173391,-0.393920,-0.448534,0.512047,0.617619,85.750716,8.663707,-106.894235
45967,NaN,0.207962,9.989309,0.813383,-0.550134,-1.617546,0.065164,-0.271450,1.095191,0.245060,-0.398013,-0.450791,0.509610,0.615362,85.698284,8.576912,-106.252782
45968,NaN,0.031228,9.929997,0.625343,-0.290659,-1.480745,0.021929,-0.281237,1.153566,0.309644,-0.402463,-0.453023,0.507155,0.612852,85.643973,8.456018,-105.575472
45969,NaN,-0.189428,9.693768,0.525295,-0.112460,-1.240475,-0.183076,-0.278638,1.176709,0.369039,-0.407131,-0.455168,0.504777,0.610137,85.592392,8.303054,-104.881779
45970,NaN,-0.448856,9.421442,0.424726,0.068178,-0.949160,-0.419086,-0.250881,1.164071,0.418613,-0.411840,-0.457182,0.502602,0.607259,85.553433,8.121523,-104.193857
45971,NaN,-0.757120,9.151508,0.380690,0.194366,-0.589743,-0.643034,-0.165893,1.118642,0.472630,-0.416389,-0.459086,0.500883,0.604133,85.558009,7.907491,-103.529531
45972,NaN,-0.994284,9.024735,0.323194,0.308795,-0.314975,-0.738319,-0.056086,1.023536,0.532149,-0.420613,-0.460760,0.499813,0.600810,85.615143,7.654744,-102.918355
45973,NaN,-1.263520,8.883246,0.343927,0.341273,0.017918,-0.839961,0.031561,0.915875,0.590462,-0.424527,-0.462141,0.499352,0.597370,85.712316,7.363340,-102.366947
45974,NaN,-1.567545,8.669917,0.373412,0.358035,0.402786,-1.010792,0.135762,0.771784,0.651505,-0.428012,-0.463142,0.499635,0.593861,85.855447,7.029704,-101.897400
45975,NaN,-1.843007,8.575447,0.508735,0.258983,0.770762,-1.064417,0.273307,0.596394,0.717294,-0.430925,-0.463746,0.500842,0.590255,86.063197,6.650105,-101.527056
45976,NaN,-1.922922,8.707964,0.712602,0.053637,0.939454,-0.916166,0.403361,0.410642,0.776772,-0.433238,-0.463918,0.502959,0.586616,86.330368,6.227782,-101.263665
45977,NaN,-1.980418,8.768345,0.863227,-0.113218,1.092001,-0.849139,0.480209,0.233001,0.814431,-0.435025,-0.463634,0.505762,0.583097,86.629372,5.776565,-101.102910
45978,NaN,-2.053660,8.687351,0.963517,-0.235310,1.270801,-0.927589,0.535488,0.065251,0.841899,-0.436329,-0.462896,0.509143,0.579757,86.948708,5.303220,-101.040762
45979,NaN,-2.040795,8.714092,1.057542,-0.365848,1.356180,-0.910732,0.611621,-0.070567,0.856015,-0.437141,-0.461888,0.513059,0.576487,87.304614,4.817771,-101.058552
45980,NaN,-1.949465,8.983702,1.178889,-0.534497,1.352404,-0.659460,0.669653,-0.176781,0.861677,-0.437550,-0.460667,0.517373,0.573289,87.688261,4.326320,-101.140852
45981,NaN,-1.802969,9.297167,1.344312,-0.758713,1.305882,-0.367406,0.649081,-0.237748,0.848954,-0.437799,-0.459251,0.521716,0.570292,88.058611,3.841699,-101.261050
45982,NaN,-1.642098,9.425508,1.438617,-0.918134,1.247726,-0.262518,0.581550,-0.253098,0.806673,-0.438031,-0.457735,0.525789,0.567585,88.389947,3.381474,-101.394269
45983,NaN,-1.462970,9.431003,1.433660,-0.982227,1.156360,-0.281849,0.521030,-0.227004,0.753409,-0.438307,-0.456296,0.529498,0.565078,88.688762,2.953223,-101.515204
45984,NaN,-1.331773,9.457974,1.430172,-1.035081,1.104236,-0.274291,0.469761,-0.157454,0.692516,-0.438704,-0.455086,0.532760,0.562674,88.960378,2.560934,-101.599625
45985,NaN,-1.162326,9.553630,1.406593,-1.072292,1.000006,-0.197538,0.390181,-0.064096,0.631080,-0.439350,-0.454127,0.535444,0.560392,89.189496,2.205468,-101.632204
45986,NaN,-1.097330,9.623725,1.362458,-1.064740,0.987342,-0.139649,0.319357,0.058151,0.564299,-0.440293,-0.453523,0.537505,0.558164,89.380252,1.888867,-101.597048
45987,NaN,-1.151226,9.788934,1.321342,-1.033198,1.081200,0.018780,0.263246,0.183817,0.513017,-0.441553,-0.453285,0.539009,0.555908,89.541188,1.602648,-101.490546
45988,NaN,-1.242608,9.820808,1.375750,-1.084706,1.227873,0.046349,0.175575,0.294863,0.447412,-0.443125,-0.453329,0.539873,0.553779,89.652657,1.353784,-101.321930
45989,NaN,-1.392285,9.614277,1.269514,-0.962835,1.397221,-0.163591,0.094336,0.367677,0.391028,-0.444918,-0.453550,0.540216,0.551822,89.718087,1.137667,-101.111587
45990,NaN,-1.473283,9.340341,1.142987,-0.831888,1.489605,-0.442100,0.070228,0.412865,0.347770,-0.446765,-0.453949,0.540293,0.549923,89.769125,0.945765,-100.876271
45991,NaN,-1.496086,9.036319,1.075177,-0.770689,1.531585,-0.751255,0.081945,0.440926,0.319337,-0.448580,-0.454531,0.540267,0.547986,89.826604,0.770520,-100.624526
45992,NaN,-1.505350,8.896395,1.019145,-0.726866,1.557221,-0.896565,0.133078,0.445466,0.297280,-0.450228,-0.455290,0.540321,0.545948,89.912422,0.607073,-100.371040
45993,NaN,-1.511951,8.948914,1.001213,-0.726265,1.584606,-0.849821,0.195454,0.438993,0.295670,-0.451707,-0.456180,0.540547,0.543754,90.033419,0.444688,-100.120931
45994,NaN,-1.476152,9.124423,1.065172,-0.819875,1.585398,-0.681263,0.266494,0.413408,0.297154,-0.452957,-0.457146,0.541028,0.541421,90.194114,0.280271,-99.886525
45995,NaN,-1.534724,9.372762,1.089914,-0.863927,1.674264,-0.440267,0.296941,0.383886,0.307533,-0.454081,-0.458076,0.541673,0.539043,90.371662,0.109968,-99.668881
45996,NaN,-1.523187,9.596716,1.149207,-0.955868,1.703204,-0.225040,0.297491,0.348917,0.327375,-0.455159,-0.458849,0.542444,0.536695,90.548697,-0.072882,-99.472567
45997,NaN,-1.529471,9.814399,1.097932,-0.936231,1.734751,-0.015693,0.298314,0.320408,0.346558,-0.456205,-0.459499,0.543317,0.534363,90.725707,-0.266401,-99.292566
45998,NaN,-1.520713,10.100388,1.088804,-0.960978,1.762817,0.261275,0.280605,0.295527,0.367687,-0.457279,-0.459974,0.544249,0.532084,90.891944,-0.473105,-99.128279
45999,NaN,-1.623999,10.403340,1.155648,-1.041648,1.918555,0.552460,0.250185,0.294396,0.408508,-0.458523,-0.460270,0.545186,0.529793,91.040182,-0.702808,-98.964850
46000,NaN,-1.713537,10.593859,1.022141,-0.924276,2.033210,0.733513,0.248381,0.285729,0.430236,-0.459803,-0.460467,0.546190,0.527472,91.186758,-0.946105,-98.807959
46001,NaN,-1.755455,10.622275,0.841301,-0.766049,2.094835,0.753612,0.272113,0.259850,0.450756,-0.461007,-0.460600,0.547353,0.525096,91.346524,-1.200329,-98.666003
46002,NaN,-1.629458,10.954849,0.782333,-0.764727,2.021730,1.077828,0.350168,0.246696,0.482115,-0.462074,-0.460779,0.548824,0.522458,91.550589,-1.473688,-98.533627
46003,NaN,-1.315565,11.836865,0.885490,-0.977193,1.812752,1.951011,0.479403,0.253313,0.513886,-0.462938,-0.461191,0.550676,0.519372,91.827916,-1.764893,-98.398281
46004,NaN,-1.138025,13.046686,1.091381,-1.295068,1.778755,3.143404,0.497800,0.297988,0.527419,-0.463911,-0.461708,0.552504,0.516092,92.114362,-2.066400,-98.239874
46005,NaN,-1.252595,13.705409,1.090306,-1.349128,1.991034,3.781834,0.340682,0.346949,0.516661,-0.465348,-0.462019,0.553772,0.513153,92.308776,-2.362392,-98.053528
46006,NaN,-1.536348,13.736148,0.874236,-1.128678,2.313585,3.795375,0.176388,0.370104,0.512563,-0.467213,-0.462005,0.554557,0.510617,92.407684,-2.658159,-97.855425
46007,NaN,-1.851604,13.700440,0.754074,-0.982378,2.676854,3.736041,0.104026,0.338975,0.531587,-0.469202,-0.461694,0.555259,0.508306,92.464798,-2.963122,-97.675047
46008,NaN,-2.282365,13.691781,0.714020,-0.891805,3.168312,3.691012,0.032847,0.243463,0.544197,-0.471119,-0.460925,0.556038,0.506377,92.483381,-3.274263,-97.550823
46009,NaN,-2.872441,13.468283,0.656125,-0.741554,3.799291,3.419513,-0.087815,0.104427,0.525657,-0.472875,-0.459577,0.556780,0.505146,92.436621,-3.569993,-97.504735
46010,NaN,-3.449693,12.804477,0.525854,-0.489309,4.370238,2.709003,-0.183794,-0.101355,0.483754,-0.474172,-0.457587,0.557678,0.504748,92.342461,-3.838111,-97.576335
46011,NaN,-3.924769,12.068211,0.483398,-0.323255,4.832067,1.927222,-0.193767,-0.342677,0.423522,-0.474662,-0.455140,0.558968,0.505073,92.251972,-4.064764,-97.783451
46012,NaN,-4.099685,11.394106,0.528189,-0.278992,4.999158,1.225533,-0.155034,-0.631079,0.337399,-0.474035,-0.452280,0.560851,0.506141,92.196570,-4.237517,-98.155130
46013,NaN,-4.048305,10.899698,0.550041,-0.245547,4.938406,0.725165,-0.097908,-0.905627,0.208372,-0.472175,-0.449229,0.563214,0.507971,92.185890,-4.328788,-98.680207
46014,NaN,-3.625601,10.470420,0.642494,-0.342054,4.512161,0.321942,-0.034695,-1.127062,0.041686,-0.469113,-0.446208,0.565884,0.510496,92.221549,-4.321440,-99.330152
46015,NaN,-3.041300,10.269650,0.760379,-0.507846,3.934667,0.164975,0.003090,-1.259824,-0.155266,-0.465071,-0.443494,0.568486,0.513659,92.282908,-4.195751,-100.050265
46016,NaN,-2.415133,10.227577,0.905644,-0.728388,3.319912,0.172496,-0.005093,-1.302406,-0.353537,-0.460398,-0.441180,0.570718,0.517373,92.339199,-3.956872,-100.791470
46017,NaN,-1.805395,10.259845,1.001156,-0.913116,2.702529,0.256497,-0.100926,-1.241919,-0.547387,-0.455585,-0.439351,0.572092,0.521656,92.333517,-3.605888,-101.491404
46018,NaN,-1.257664,10.217541,0.941471,-0.941575,2.092020,0.267127,-0.208368,-1.105049,-0.742297,-0.450871,-0.438155,0.572436,0.526359,92.257093,-3.149176,-102.109965
46019,NaN,-1.020809,10.077670,0.877065,-0.902632,1.756656,0.160746,-0.353673,-0.916483,-0.918874,-0.446529,-0.437629,0.571540,0.531445,92.085618,-2.594478,-102.615562
46020,NaN,-0.975415,9.892646,0.675432,-0.682713,1.557559,0.004586,-0.513862,-0.727318,-1.066101,-0.442667,-0.437632,0.569466,0.536873,91.813536,-1.963447,-103.013497
46021,NaN,-0.902848,9.854619,0.516414,-0.508279,1.331246,-0.006397,-0.622628,-0.566331,-1.174321,-0.439187,-0.438129,0.566459,0.542477,91.471119,-1.272835,-103.318904
46022,NaN,-0.926103,9.957974,0.399663,-0.350838,1.199341,0.117843,-0.718381,-0.426992,-1.234663,-0.436125,-0.438924,0.562743,0.548143,91.069711,-0.553824,-103.549833
46023,NaN,-0.971189,10.302077,0.234902,-0.139001,1.068514,0.481397,-0.779932,-0.326753,-1.250022,-0.433414,-0.439895,0.558553,0.553772,90.629022,0.173863,-103.726710
46024,NaN,-1.247835,10.715446,0.131426,0.075796,1.164907,0.912527,-0.833200,-0.280836,-1.227805,-0.430984,-0.440773,0.554153,0.559362,90.156685,0.884749,-103.884890
46025,NaN,-1.579087,10.964790,0.076532,0.270634,1.316645,1.183529,-0.927116,-0.301030,-1.201636,-0.428753,-0.441311,0.549539,0.565174,89.627252,1.581710,-104.059098
46026,NaN,-1.791987,10.711041,-0.031758,0.502436,1.350407,0.951145,-1.021678,-0.352964,-1.181033,-0.426620,-0.441399,0.544801,0.571275,89.041261,2.262275,-104.271509
46027,NaN,-1.833746,10.209402,-0.222695,0.773963,1.215474,0.461816,-1.038018,-0.407645,-1.164992,-0.424393,-0.441240,0.540110,0.577476,88.440689,2.933302,-104.520425
46028,NaN,-1.877019,9.693570,-0.429818,1.055052,1.092089,-0.047168,-1.025441,-0.452956,-1.159427,-0.422003,-0.440916,0.535552,0.583687,87.843510,3.595074,-104.804149
46029,NaN,-1.840817,9.207038,-0.581983,1.253248,0.915715,-0.534441,-0.976192,-0.478255,-1.172243,-0.419373,-0.440645,0.531105,0.589818,87.268792,4.263274,-105.107849
46030,NaN,-1.664113,8.910347,-0.654279,1.329665,0.620071,-0.843993,-0.893740,-0.475737,-1.192960,-0.416480,-0.440565,0.526839,0.595724,86.738250,4.937792,-105.419249
46031,NaN,-1.080251,9.000604,-0.787242,1.352981,-0.110084,-0.815269,-0.733453,-0.422533,-1.134064,-0.413527,-0.440815,0.523017,0.600941,86.297467,5.580519,-105.702204
46032,NaN,-0.737856,9.212857,-0.937233,1.446299,-0.614127,-0.656834,-0.594548,-0.269060,-0.977982,-0.411120,-0.441368,0.519640,0.605102,85.943399,6.135295,-105.897502
46033,NaN,0.104440,8.835035,-1.040830,1.331142,-1.495714,-1.144222,-0.609774,-0.100806,-0.814011,-0.409668,-0.441978,0.516194,0.608582,85.589084,6.604978,-105.990842
46034,NaN,0.389951,8.023522,-1.078905,1.284287,-1.741346,-2.001734,-0.545238,0.015831,-0.575903,-0.409090,-0.442433,0.513244,0.611130,85.280844,6.940737,-106.010835
46035,NaN,-0.216828,7.331106,-1.023633,1.387458,-1.095652,-2.621418,-0.345675,0.095231,-0.370487,-0.408897,-0.443024,0.511167,0.612569,85.092699,7.165577,-105.974833
46036,NaN,-0.730707,7.336119,-1.038548,1.549028,-0.636277,-2.558255,-0.062515,0.089577,-0.278532,-0.408342,-0.443922,0.510193,0.613101,85.067822,7.335078,-105.939774
46037,NaN,-1.020498,8.096309,-0.931858,1.549505,-0.460885,-1.759951,0.204596,0.006062,-0.236864,-0.407108,-0.445020,0.510277,0.613055,85.189464,7.479311,-105.948742
46038,NaN,-1.169867,8.878480,-0.944797,1.612361,-0.453425,-0.964906,0.285138,-0.216336,-0.228491,-0.405152,-0.445559,0.511100,0.613274,85.341215,7.605658,-106.086923
46039,NaN,-1.140713,9.147385,-0.920078,1.566991,-0.536523,-0.697918,0.190631,-0.477690,-0.270641,-0.402606,-0.445229,0.512043,0.614403,85.417521,7.746899,-106.375584
46040,NaN,-0.809791,8.852508,-1.108146,1.627154,-0.890407,-1.048553,0.059809,-0.708147,-0.370809,-0.399448,-0.444159,0.512841,0.616569,85.399915,7.932314,-106.803663
46041,NaN,-0.350127,8.680683,-1.266771,1.626254,-1.389886,-1.297710,0.043247,-0.850319,-0.495163,-0.395571,-0.442947,0.513564,0.619333,85.358280,8.184561,-107.317974
46042,NaN,0.199038,8.825500,-1.323618,1.503472,-2.004147,-1.245094,0.012156,-0.908266,-0.590887,-0.391307,-0.441709,0.514099,0.622474,85.291341,8.485687,-107.872739
46043,NaN,0.741679,9.051950,-1.439815,1.432574,-2.650400,-1.124556,-0.050788,-0.881788,-0.655065,-0.387039,-0.440600,0.514210,0.625828,85.186462,8.826417,-108.414349
46044,NaN,0.974797,9.138739,-1.443953,1.343873,-2.953654,-1.093671,-0.147965,-0.802686,-0.684958,-0.383083,-0.439595,0.513803,0.629294,85.029852,9.184325,-108.914882
46045,NaN,0.992045,9.084247,-1.295584,1.180219,-2.985356,-1.159335,-0.229534,-0.709600,-0.707601,-0.379463,-0.438792,0.512877,0.632793,84.831237,9.560728,-109.362574
46046,NaN,0.913824,9.131355,-1.215232,1.121747,-2.969105,-1.116763,-0.290556,-0.636655,-0.733435,-0.376073,-0.438139,0.511569,0.636318,84.601701,9.951665,-109.773143
46047,NaN,0.791996,9.145943,-1.139656,1.087796,-2.911614,-1.099881,-0.359127,-0.582184,-0.763437,-0.372866,-0.437614,0.509843,0.639941,84.334595,10.363214,-110.154342
46048,NaN,0.670248,9.190571,-1.149529,1.141036,-2.892702,-1.062435,-0.416501,-0.539068,-0.807795,-0.369744,-0.437203,0.507760,0.643679,84.035797,10.798433,-110.517445
46049,NaN,0.739769,9.254764,-1.142807,1.117744,-3.054620,-1.042104,-0.471131,-0.511859,-0.846588,-0.366674,-0.436881,0.505335,0.647551,83.704671,11.257563,-110.868507
46050,NaN,0.796797,9.300330,-1.139819,1.103937,-3.205228,-1.041297,-0.501557,-0.469389,-0.856374,-0.363735,-0.436636,0.502713,0.651403,83.357685,11.720834,-111.200499
46051,NaN,0.824026,9.499841,-1.211588,1.177500,-3.390347,-0.895726,-0.507917,-0.404853,-0.839387,-0.361017,-0.436549,0.499960,0.655082,83.011623,12.178821,-111.495634
46052,NaN,0.819584,9.755569,-1.080226,1.076797,-3.492758,-0.666645,-0.509934,-0.309241,-0.825106,-0.358579,-0.436709,0.497060,0.658512,82.673700,12.631806,-111.738923
46053,NaN,0.746291,10.044297,-0.959039,1.014274,-3.546693,-0.391645,-0.503808,-0.195804,-0.804811,-0.356467,-0.437207,0.493996,0.661626,82.351778,13.082162,-111.916185
46054,NaN,0.686077,10.301570,-0.846365,0.955727,-3.608869,-0.149806,-0.483284,-0.063831,-0.780152,-0.354711,-0.438092,0.490821,0.664343,82.057783,13.526025,-112.018772
46055,NaN,0.685343,10.520166,-0.772888,0.911926,-3.728460,0.036536,-0.469888,0.072851,-0.747899,-0.353360,-0.439381,0.487496,0.666655,81.789849,13.963736,-112.039904
46056,NaN,0.825018,10.584301,-0.654284,0.771106,-3.912202,0.048126,-0.446405,0.236088,-0.654376,-0.352661,-0.441005,0.484170,0.668375,81.559903,14.360232,-111.960976
46057,NaN,0.769521,10.539243,-0.472819,0.638726,-3.854621,0.017112,-0.347150,0.409827,-0.476777,-0.352751,-0.442961,0.481243,0.669147,81.416658,14.672522,-111.764708
46058,NaN,0.467304,10.567017,-0.376052,0.673055,-3.599425,0.117705,-0.183509,0.564519,-0.205693,-0.353755,-0.445053,0.479196,0.668698,81.396834,14.843300,-111.455353
46059,NaN,0.269467,10.686210,-0.186969,0.579178,-3.400857,0.306668,0.024296,0.648670,0.123713,-0.355595,-0.447013,0.478415,0.666972,81.517042,14.835590,-111.066196
46060,NaN,-0.290706,11.021649,-0.046140,0.652208,-2.912557,0.801205,0.273779,0.622184,0.474610,-0.357980,-0.448469,0.479298,0.664077,81.782736,14.624241,-110.663806
46061,NaN,-0.390859,12.042158,0.107070,0.564716,-2.980780,1.848046,0.562577,0.502638,0.795886,-0.360488,-0.449277,0.482058,0.660166,82.201028,14.219835,-110.305725
46062,NaN,-0.143762,13.671967,0.300732,0.333211,-3.463771,3.413154,0.621797,0.421765,1.007693,-0.363356,-0.449387,0.485624,0.655891,82.641510,13.685356,-109.983478
46063,NaN,0.232854,14.688015,0.402641,0.136667,-3.889324,4.357926,0.337847,0.459223,1.098077,-0.367234,-0.448879,0.488371,0.652029,82.922525,13.101145,-109.635870
46064,NaN,0.536657,14.427786,0.166215,0.284247,-4.023408,4.051143,-0.074744,0.557487,1.134652,-0.372384,-0.447815,0.489660,0.648865,82.975717,12.501159,-109.231924
46065,NaN,0.140710,13.012328,-0.131895,0.705123,-3.270708,2.763526,-0.320997,0.662175,1.143272,-0.378353,-0.446602,0.489951,0.646021,82.897279,11.904411,-108.766382
46066,NaN,-0.324976,11.407097,-0.295250,1.004331,-2.393036,1.303865,-0.336436,0.742995,1.158536,-0.384587,-0.445553,0.490053,0.642980,82.814127,11.304707,-108.253858
46067,NaN,-0.740389,10.381930,-0.138578,0.984429,-1.617109,0.422857,-0.178311,0.819396,1.194199,-0.390750,-0.444952,0.490570,0.639275,82.825919,10.691032,-107.694401
46068,NaN,-1.279026,9.551700,0.075199,0.924170,-0.761219,-0.250166,-0.000851,0.835621,1.229211,-0.396650,-0.444631,0.491676,0.635001,82.934371,10.057509,-107.125631
46069,NaN,-1.962928,8.570053,0.318067,0.833220,0.259744,-1.058415,0.209278,0.818913,1.244970,-0.402069,-0.444620,0.493489,0.630176,83.155975,9.412705,-106.567606
46070,NaN,-2.390998,7.723617,0.342892,0.853650,0.941801,-1.820697,0.515487,0.719015,1.245594,-0.406541,-0.444874,0.496442,0.624786,83.536049,8.757592,-106.072363
46071,NaN,-2.721337,7.251377,0.384261,0.828419,1.458229,-2.241570,0.889661,0.582604,1.221746,-0.409740,-0.445503,0.500757,0.618775,84.113237,8.104080,-105.662783
46072,NaN,-3.096959,7.262381,0.642560,0.610761,1.988900,-2.169660,1.246712,0.473231,1.138571,-0.411586,-0.446693,0.506180,0.612245,84.879215,7.486817,-105.329983
46073,NaN,-3.509823,7.868379,1.142188,0.172703,2.528445,-1.499449,1.493518,0.322301,0.976586,-0.411968,-0.448313,0.512266,0.605707,85.771222,6.950892,-105.100299
46074,NaN,-3.668679,8.828941,1.755304,-0.454537,2.810835,-0.518557,1.535438,0.113966,0.758274,-0.411031,-0.449903,0.518380,0.599936,86.668266,6.527842,-105.008413
46075,NaN,-3.513782,9.566313,2.304514,-1.119346,2.805059,0.189752,1.339088,-0.146615,0.536359,-0.409166,-0.450865,0.523906,0.595674,87.435096,6.223552,-105.078457
46076,NaN,-3.144371,9.893286,2.549544,-1.541407,2.554678,0.451863,1.086296,-0.369121,0.347900,-0.406711,-0.451109,0.528688,0.592939,88.041933,6.022251,-105.285480
46077,NaN,-2.648391,10.256050,2.817456,-2.002382,2.172373,0.742368,0.880289,-0.519412,0.210725,-0.403900,-0.450849,0.532835,0.591343,88.522715,5.899777,-105.582283
46078,NaN,-2.082074,10.961310,2.970292,-2.360840,1.647505,1.368535,0.651545,-0.578209,0.115327,-0.401160,-0.450185,0.536200,0.590672,88.868430,5.832434,-105.916008
46079,NaN,-1.503305,11.336382,2.938181,-2.524231,1.080953,1.670610,0.246800,-0.534804,0.026249,-0.399176,-0.449081,0.538070,0.591156,88.985539,5.818897,-106.224984
46080,NaN,-1.005193,11.015955,2.660935,-2.391392,0.570844,1.295760,-0.140791,-0.405948,-0.069133,-0.398126,-0.447826,0.538324,0.592583,88.887297,5.860452,-106.461751
46081,NaN,-0.554823,10.478933,2.304449,-2.144939,0.082142,0.714357,-0.375088,-0.203852,-0.159410,-0.397874,-0.446955,0.537272,0.594362,88.666856,5.956515,-106.582489
46082,NaN,0.063001,10.115454,2.102488,-2.085806,-0.556871,0.291067,-0.520164,0.034824,-0.217947,-0.398413,-0.446649,0.535184,0.596113,88.376861,6.088115,-106.567981
46083,NaN,0.617110,9.657068,1.855195,-1.956805,-1.150504,-0.224762,-0.665435,0.374886,-0.284866,-0.399979,-0.447250,0.531825,0.597617,88.024889,6.265159,-106.358730
46084,NaN,0.781848,8.998011,1.721152,-1.821759,-1.327487,-0.898864,-0.722119,0.814613,-0.325467,-0.402713,-0.449139,0.527319,0.598357,87.668682,6.475268,-105.898860
46085,NaN,0.423078,8.456253,1.550186,-1.513945,-1.029832,-1.402147,-0.664885,1.252952,-0.352627,-0.406374,-0.452515,0.522013,0.597990,87.376153,6.715177,-105.187385
46086,NaN,-0.520116,8.376335,1.409856,-1.099697,-0.215029,-1.376737,-0.566999,1.588670,-0.352930,-0.410665,-0.457058,0.516289,0.596572,87.165425,6.966710,-104.283808
46087,NaN,-1.581048,8.484643,1.275592,-0.689896,0.699861,-1.143779,-0.607397,1.642847,-0.348372,-0.415169,-0.461640,0.510299,0.595078,86.939556,7.221389,-103.348716
46088,NaN,-1.819732,7.913147,0.608996,0.014547,0.808755,-1.710482,-0.639004,1.377805,-0.331574,-0.419092,-0.465286,0.504773,0.594201,86.679810,7.461191,-102.567166
46089,NaN,-1.829180,7.443464,0.388483,0.234626,0.804004,-2.183766,-0.551043,1.078068,-0.205715,-0.422406,-0.467893,0.500400,0.593506,86.451181,7.622799,-101.954222
46090,NaN,-1.736205,7.378223,0.351747,0.259529,0.697647,-2.261381,-0.315945,0.919147,-0.085281,-0.425118,-0.470201,0.497332,0.592323,86.346671,7.710806,-101.429535
46091,NaN,-2.014262,7.610190,0.452050,0.221528,0.943084,-1.987210,-0.117556,0.799307,-0.074698,-0.427087,-0.472549,0.495116,0.590893,86.347555,7.789682,-100.972914
46092,NaN,-2.186846,7.652762,0.318606,0.374803,1.072460,-1.928659,-0.026752,0.626410,-0.089792,-0.428365,-0.474603,0.493500,0.589672,86.387201,7.869928,-100.617203
46093,NaN,-2.349012,7.727106,0.295957,0.412048,1.207686,-1.832381,0.094754,0.464230,-0.115383,-0.428874,-0.476507,0.492519,0.588586,86.484244,7.959499,-100.355152
46094,NaN,-2.268858,7.981087,0.456458,0.225723,1.111950,-1.580653,0.199594,0.332042,-0.117453,-0.428801,-0.478241,0.492129,0.587558,86.630892,8.044268,-100.169998
46095,NaN,-2.270681,8.510283,0.602968,0.070831,1.053561,-1.047450,0.280386,0.226671,-0.095478,-0.428336,-0.479791,0.492247,0.586534,86.815929,8.113448,-100.043935
46096,NaN,-2.360879,9.031512,0.801645,-0.123299,1.093979,-0.508251,0.268948,0.109179,-0.047088,-0.427752,-0.480843,0.492703,0.585715,86.984903,8.149955,-99.984809
46097,NaN,-2.577187,9.298229,1.076412,-0.373101,1.313469,-0.200550,0.213659,-0.055873,0.039104,-0.427144,-0.481089,0.493550,0.585243,87.109328,8.133155,-100.017609
46098,NaN,-2.636137,9.393420,1.129444,-0.424887,1.376745,-0.097482,0.140498,-0.235977,0.126296,-0.426524,-0.480427,0.494783,0.585198,87.177296,8.060340,-100.152834
46099,NaN,-2.473856,9.315062,1.237426,-0.560935,1.267918,-0.195035,0.068007,-0.396576,0.220476,-0.425953,-0.478915,0.496363,0.585515,87.191633,7.930319,-100.377368
46100,NaN,-2.199175,9.090752,1.173714,-0.541111,1.050373,-0.460707,0.006317,-0.534122,0.324658,-0.425492,-0.476598,0.498309,0.586088,87.160642,7.735650,-100.679120
46101,NaN,-1.793044,8.668517,1.027149,-0.463385,0.724157,-0.942855,-0.042020,-0.589747,0.417361,-0.425273,-0.473788,0.500439,0.586711,87.099397,7.487279,-101.009132
46102,NaN,-1.660205,8.035606,0.940789,-0.398349,0.705248,-1.593436,-0.065375,-0.576431,0.474544,-0.425306,-0.470808,0.502609,0.587230,87.027410,7.205015,-101.330129
46103,NaN,-1.512580,7.390879,0.928414,-0.413560,0.685233,-2.253970,0.002943,-0.537683,0.516467,-0.425391,-0.467985,0.504980,0.587391,86.999241,6.900865,-101.626213
46104,NaN,-1.376841,7.059274,1.078749,-0.587059,0.667423,-2.594483,0.139538,-0.483739,0.549025,-0.425384,-0.465512,0.507716,0.587002,87.054633,6.578535,-101.890975
46105,NaN,-1.360523,6.981269,1.323510,-0.832492,0.755249,-2.665857,0.281377,-0.422253,0.555766,-0.425215,-0.463509,0.510737,0.586089,87.196745,6.255830,-102.119666
46106,NaN,-1.306500,7.183936,1.621692,-1.141025,0.789214,-2.462809,0.417026,-0.366542,0.565710,-0.424899,-0.461914,0.514061,0.584669,87.421173,5.928402,-102.317777
46107,NaN,-1.197755,7.523613,1.725058,-1.277749,0.720781,-2.140483,0.497944,-0.287916,0.576166,-0.424620,-0.460697,0.517461,0.582829,87.697482,5.599067,-102.470870
46108,NaN,-1.283673,7.799180,1.660494,-1.217259,0.818343,-1.870363,0.525166,-0.206477,0.593413,-0.424534,-0.459713,0.520808,0.580684,87.994647,5.261086,-102.579167
46109,NaN,-1.405860,8.213455,1.751907,-1.301967,0.975871,-1.454540,0.498333,-0.127942,0.626075,-0.424800,-0.458816,0.523968,0.578351,88.280851,4.907743,-102.642546
46110,NaN,-1.357801,8.508997,1.608638,-1.195941,0.934225,-1.179559,0.451894,-0.097837,0.644977,-0.425301,-0.457842,0.526973,0.576020,88.542305,4.543036,-102.690810
46111,NaN,-1.616855,8.848589,1.416718,-0.976073,1.180595,-0.836503,0.471931,-0.076227,0.637522,-0.425783,-0.456995,0.529955,0.573596,88.816109,4.184480,-102.727632
46112,NaN,-2.015248,9.392534,1.373955,-0.874170,1.584334,-0.278858,0.483988,-0.075016,0.620064,-0.426186,-0.456206,0.532931,0.571162,89.097212,3.834757,-102.766481
46113,NaN,-2.384541,9.900184,1.477507,-0.923359,1.996768,0.239308,0.425077,-0.059052,0.546130,-0.426547,-0.455538,0.535518,0.569002,89.344903,3.529139,-102.797517
46114,NaN,-2.420181,10.147154,1.356331,-0.821062,2.046575,0.473166,0.301061,-0.130016,0.443989,-0.426708,-0.454662,0.537676,0.567545,89.519500,3.280316,-102.871814
46115,NaN,-2.411819,10.137675,1.117618,-0.604237,2.030600,0.451318,0.212906,-0.159826,0.332249,-0.426667,-0.453822,0.539379,0.566631,89.642433,3.097140,-102.963445
46116,NaN,-2.226255,10.241680,0.822274,-0.368678,1.810491,0.536733,0.170015,-0.146768,0.224476,-0.426454,-0.453206,0.540698,0.566028,89.741820,2.974374,-103.049134
46117,NaN,-1.612918,10.830961,0.673256,-0.379755,1.173736,1.088806,0.204240,-0.058633,0.168754,-0.426241,-0.453073,0.541785,0.565254,89.863055,2.885548,-103.083674
46118,NaN,-0.857294,12.195686,0.928905,-0.835984,0.451847,2.411445,0.266080,0.136278,0.152144,-0.426370,-0.453656,0.542606,0.563901,90.025798,2.804761,-103.007555
46119,NaN,-0.753740,13.288082,1.122888,-1.084707,0.363514,3.494955,0.128238,0.375650,0.148815,-0.427448,-0.454638,0.542505,0.562389,90.115542,2.727262,-102.793377
46120,NaN,-1.417663,13.622215,1.088632,-0.910395,1.006736,3.859080,-0.137922,0.563425,0.222963,-0.429848,-0.455364,0.541432,0.561004,90.057957,2.605339,-102.472530
46121,NaN,-2.586251,13.171487,1.071984,-0.608932,2.187882,3.460144,-0.398732,0.626121,0.356576,-0.433379,-0.455349,0.539776,0.559894,89.851041,2.409383,-102.114505
46122,NaN,-3.761060,12.358379,0.894986,-0.133965,3.370863,2.689110,-0.546090,0.490374,0.509197,-0.437300,-0.454204,0.538354,0.559145,89.555765,2.125393,-101.833983
46123,NaN,-4.556474,12.210835,0.565057,0.414540,4.144776,2.549892,-0.488328,0.158996,0.683753,-0.440676,-0.451792,0.538189,0.558606,89.284977,1.742799,-101.740059
46124,NaN,-5.111756,12.605099,0.269586,0.900558,4.693201,2.925153,-0.511769,-0.275390,0.815687,-0.443298,-0.447739,0.539218,0.558804,88.994230,1.279406,-101.893092
46125,NaN,-5.310564,12.208917,0.115524,1.203746,4.948115,2.489261,-0.670774,-0.705220,0.869701,-0.445250,-0.441986,0.540841,0.560261,88.608618,0.781263,-102.287767
46126,NaN,-5.484142,11.912036,0.020229,1.473506,5.178520,2.144814,-0.638316,-1.133099,0.874708,-0.445967,-0.435056,0.543508,0.562529,88.243555,0.268695,-102.925306
46127,NaN,-5.748628,12.283443,0.052661,1.679362,5.504217,2.467889,-0.587085,-1.608560,0.812777,-0.445071,-0.427056,0.547184,0.565795,87.912566,-0.218832,-103.831709
46128,NaN,-5.464608,12.556498,0.094274,1.770197,5.284014,2.696449,-0.581094,-2.065582,0.657387,-0.442427,-0.418139,0.551523,0.570298,87.594846,-0.635376,-105.001936
46129,NaN,-4.699854,12.674014,0.315486,1.555804,4.624819,2.797083,-0.509524,-2.421475,0.433740,-0.437949,-0.408943,0.556287,0.575770,87.327481,-0.935969,-106.377812
46130,NaN,-3.449355,13.008054,0.657756,1.054868,3.529494,3.147574,-0.327670,-2.670420,0.215067,-0.431705,-0.399948,0.561598,0.581618,87.173686,-1.126254,-107.902858
46131,NaN,-1.779436,13.932640,0.904930,0.465485,2.022277,4.108408,-0.199137,-2.694949,0.041882,-0.424551,-0.391594,0.566864,0.587432,87.096697,-1.218016,-109.444704
46132,NaN,-0.191504,14.535195,0.928229,0.013809,0.524408,4.743916,-0.370383,-2.411364,-0.177564,-0.417823,-0.384243,0.570524,0.593534,86.920055,-1.182331,-110.832505
46133,NaN,0.743218,14.215811,0.411329,0.193024,-0.585548,4.415104,-0.601137,-1.932685,-0.447911,-0.412046,-0.378575,0.571883,0.599873,86.602163,-0.979262,-111.953336
46134,NaN,0.931759,13.222771,0.119847,0.377237,-0.961731,3.403046,-0.785699,-1.313324,-0.689007,-0.407632,-0.375018,0.570929,0.606001,86.169402,-0.626542,-112.731806
46135,NaN,0.674693,11.593176,-0.015557,0.541749,-0.877820,1.754138,-0.887222,-0.703676,-0.884645,-0.404529,-0.373659,0.567999,0.611647,85.669326,-0.140364,-113.170729
46136,NaN,0.776997,10.072356,-0.441124,0.819449,-1.224413,0.191247,-0.714834,-0.194408,-0.998623,-0.402185,-0.374490,0.564351,0.616046,85.265866,0.427337,-113.329608
46137,NaN,0.596444,9.427848,-0.693809,1.083572,-1.246681,-0.485729,-0.391731,0.297995,-1.065492,-0.400403,-0.377684,0.560539,0.618731,85.048300,1.059249,-113.211837
46138,NaN,0.474364,9.256001,-1.106876,1.482898,-1.388833,-0.702524,-0.155289,0.684307,-1.142635,-0.399004,-0.382726,0.556540,0.620145,84.973956,1.751651,-112.880754
46139,NaN,0.041999,9.060787,-0.804862,1.334266,-0.955117,-0.865384,-0.102407,0.995896,-1.084256,-0.398530,-0.388679,0.552145,0.620676,84.939472,2.429790,-112.367523
46140,NaN,-0.377431,8.188191,-0.622665,1.243283,-0.515841,-1.703167,-0.133565,1.154694,-1.004611,-0.398781,-0.394800,0.547482,0.620782,84.898517,3.067826,-111.761500
46141,NaN,-1.089524,8.188621,0.043161,0.855789,0.319641,-1.602486,0.068637,1.236960,-0.882620,-0.399211,-0.401244,0.543469,0.619899,84.982165,3.643218,-111.099913
46142,NaN,-1.821458,8.212904,0.262190,0.871004,1.013073,-1.502888,-0.003785,1.128332,-0.869903,-0.399511,-0.407128,0.539467,0.619365,85.027509,4.202141,-110.500553
46143,NaN,-1.700181,8.132439,0.082691,0.951292,0.778695,-1.595499,-0.083999,0.998693,-0.922345,-0.399440,-0.412594,0.535319,0.619392,85.026186,4.787455,-109.975570
46144,NaN,-1.206988,8.338769,-0.173303,1.004900,0.132752,-1.446453,-0.196230,0.885678,-1.033107,-0.398939,-0.417741,0.530819,0.620138,84.960589,5.427515,-109.522588
46145,NaN,-0.780898,8.621358,-0.490054,1.161316,-0.495069,-1.234622,-0.396142,0.769591,-1.140715,-0.398190,-0.422417,0.525656,0.621848,84.777769,6.127198,-109.140788
46146,NaN,-0.518342,8.385750,-0.862236,1.420026,-0.934696,-1.539736,-0.665283,0.710352,-1.275186,-0.397416,-0.426679,0.519483,0.624614,84.441207,6.898914,-108.804775
46147,NaN,-0.451581,7.934393,-1.180129,1.694598,-1.144730,-2.043004,-0.797638,0.679018,-1.399202,-0.396424,-0.430895,0.512634,0.628000,84.029269,7.744861,-108.496644
46148,NaN,-0.532937,7.756331,-1.365138,1.906740,-1.210895,-2.249276,-0.763614,0.575676,-1.447607,-0.394916,-0.434922,0.505977,0.631563,83.632166,8.610968,-108.258229
46149,NaN,-0.532841,7.829391,-1.408286,1.968327,-1.352707,-2.206029,-0.673149,0.423716,-1.456453,-0.392766,-0.438662,0.499827,0.635204,83.275493,9.476853,-108.111363
46150,NaN,-0.470667,7.902598,-1.321714,1.881224,-1.516968,-2.159053,-0.567714,0.276049,-1.459154,-0.389985,-0.442094,0.494285,0.638864,82.966151,10.331823,-108.056532
46151,NaN,-0.403560,8.057059,-1.238979,1.791596,-1.705545,-2.034882,-0.398338,0.153206,-1.444038,-0.386546,-0.445423,0.489506,0.642312,82.740755,11.172765,-108.073737
46152,NaN,-0.380618,8.376591,-0.897645,1.466937,-1.818410,-1.709715,-0.233449,0.050088,-1.436989,-0.382493,-0.448675,0.485465,0.645533,82.597202,11.999020,-108.154907
46153,NaN,-0.258766,8.669296,-0.410616,0.960907,-1.983209,-1.414207,-0.153047,-0.042254,-1.446805,-0.377979,-0.451805,0.481792,0.648753,82.486442,12.826797,-108.290803
46154,NaN,-0.120005,8.692846,-0.191032,0.680593,-2.177971,-1.421723,-0.082850,-0.082580,-1.498942,-0.373024,-0.455014,0.478299,0.651955,82.407152,13.677934,-108.457993
46155,NaN,-0.190537,8.475833,-0.353395,0.800619,-2.224258,-1.663386,0.164425,-0.137787,-1.571625,-0.367110,-0.458673,0.475500,0.654789,82.457725,14.569012,-108.662188
46156,NaN,-0.375437,8.517955,-0.521611,0.950117,-2.234346,-1.622951,0.496996,-0.278396,-1.623969,-0.359907,-0.462552,0.473915,0.657204,82.673448,15.477002,-108.953641
46157,NaN,-0.263202,8.912350,-0.649378,0.949330,-2.610606,-1.315511,0.810208,-0.389767,-1.716101,-0.351377,-0.466829,0.473288,0.659244,83.045272,16.433601,-109.312456
46158,NaN,0.298829,9.374063,-0.621225,0.618304,-3.378656,-1.063562,1.076291,-0.405430,-1.855446,-0.341697,-0.471780,0.473206,0.660865,83.559486,17.468366,-109.686240
46159,NaN,0.618352,9.810984,-0.829528,0.545530,-4.002830,-0.812631,1.259533,-0.348057,-1.998711,-0.331197,-0.477530,0.473215,0.662074,84.182739,18.594298,-110.024549
46160,NaN,0.692496,10.207832,-0.797528,0.292699,-4.332751,-0.514748,1.339911,-0.289637,-2.056743,-0.320406,-0.483652,0.473201,0.662950,84.859460,19.757572,-110.321449
46161,NaN,1.621667,10.847191,-0.536588,-0.486441,-5.427324,-0.279526,1.394631,-0.153599,-1.916630,-0.310216,-0.489927,0.473403,0.663044,85.598273,20.852973,-110.513543
46162,NaN,1.685867,11.944005,0.128534,-1.406961,-5.773447,0.684959,1.371556,-0.043190,-1.528501,-0.301597,-0.495534,0.474264,0.662237,86.356074,21.730988,-110.608733
46163,NaN,0.902908,12.597261,0.952065,-2.162008,-5.144053,1.557196,0.999994,-0.015814,-1.058859,-0.295490,-0.499534,0.474967,0.661482,86.916994,22.344131,-110.658153
46164,NaN,0.174686,12.315305,1.601756,-2.633389,-4.244301,1.558916,0.475897,-0.134480,-0.581143,-0.291984,-0.501199,0.475300,0.661539,87.156128,22.678868,-110.762741
46165,NaN,0.303516,11.616058,1.433543,-2.503366,-4.165251,0.839251,0.142291,-0.295238,-0.063661,-0.290638,-0.500624,0.476048,0.662030,87.172211,22.714606,-110.949305
46166,NaN,1.049391,11.010461,1.587197,-2.837762,-4.497300,0.014401,-0.037327,-0.456245,0.548984,-0.291387,-0.497780,0.477974,0.662457,87.054463,22.393494,-111.217502
46167,NaN,0.993544,10.165294,1.641520,-2.756604,-4.039854,-0.697080,-0.234009,-0.620201,1.120938,-0.294117,-0.492736,0.480892,0.662910,86.796412,21.740406,-111.564985
46168,NaN,0.994781,9.217280,1.192192,-2.196112,-3.747157,-1.536021,-0.286596,-0.752729,1.501473,-0.297906,-0.486223,0.484746,0.663220,86.489499,20.862522,-111.975705
46169,NaN,0.820671,8.914816,0.951600,-1.829118,-3.453323,-1.702208,-0.061629,-0.815771,1.641690,-0.301435,-0.479465,0.489740,0.662876,86.308710,19.901343,-112.412371
46170,NaN,1.202781,9.920665,0.914471,-1.965762,-3.991842,-0.818209,0.338760,-0.909481,1.725415,-0.304027,-0.472745,0.496363,0.661592,86.347639,18.887569,-112.899238
46171,NaN,1.694982,11.573407,1.072030,-2.391119,-4.707477,0.679392,0.544305,-0.938581,1.779384,-0.306207,-0.466063,0.503785,0.659715,86.508369,17.843167,-113.400067
46172,NaN,2.284156,12.744588,1.012867,-2.628455,-5.385312,1.709131,0.485959,-0.798009,1.757697,-0.308775,-0.459757,0.510698,0.657624,86.668814,16.816831,-113.818028
46173,NaN,2.449876,13.020701,1.062119,-2.733306,-5.374717,2.032373,0.323586,-0.529758,1.698321,-0.312178,-0.454195,0.516481,0.655362,86.787767,15.834263,-114.078372
46174,NaN,1.960249,12.477010,1.120074,-2.517716,-4.577614,1.740485,0.157368,-0.305087,1.632692,-0.316300,-0.449243,0.521181,0.653074,86.850064,14.896726,-114.208110
46175,NaN,1.416417,11.413721,1.129072,-2.196303,-3.651273,0.929557,0.093835,-0.132994,1.551363,-0.320728,-0.444933,0.525189,0.650649,86.902811,14.010854,-114.239347
46176,NaN,0.648305,10.794083,1.495293,-2.147329,-2.524741,0.588324,0.219474,0.035955,1.439357,-0.324938,-0.441646,0.529052,0.647664,87.049979,13.194591,-114.175960
46177,NaN,-0.440455,11.025619,2.017372,-2.171941,-1.266009,1.119215,0.271176,0.179382,1.198375,-0.328618,-0.439521,0.532298,0.644586,87.242721,12.519500,-114.038433
46178,NaN,-1.073623,11.067120,2.308248,-2.170646,-0.488743,1.323319,0.157322,0.203775,0.791461,-0.331292,-0.438362,0.534223,0.642409,87.368913,12.078222,-113.899736
46179,NaN,-1.387532,10.128884,1.922131,-1.643050,-0.105170,0.458795,0.057320,0.195132,0.365864,-0.332794,-0.438136,0.534909,0.641216,87.433522,11.879325,-113.778757
46180,NaN,-1.616193,9.681013,1.739456,-1.377206,0.139534,0.058664,0.208934,0.268202,-0.005627,-0.332965,-0.439394,0.535138,0.640074,87.591522,11.895431,-113.624469
46181,NaN,-1.497395,10.180107,1.987579,-1.715408,0.019071,0.525781,0.353908,0.436191,-0.348410,-0.332169,-0.442339,0.534799,0.638741,87.851651,12.110245,-113.380218
46182,NaN,-1.037723,11.587611,2.626807,-2.622070,-0.473756,1.812680,0.434491,0.582631,-0.580597,-0.330838,-0.446506,0.533947,0.637244,88.176736,12.460508,-113.052980
46183,NaN,-0.805703,13.495401,3.497764,-3.698562,-0.807778,3.628914,0.265741,0.594001,-0.521850,-0.330096,-0.450256,0.532664,0.636063,88.408933,12.774869,-112.716485
46184,NaN,-1.593832,15.033619,4.032496,-4.020920,-0.294358,5.305386,-0.295928,0.543647,-0.254204,-0.331330,-0.452207,0.530267,0.636039,88.315464,12.935611,-112.403763
46185,NaN,-2.320066,15.687213,3.890909,-3.586110,0.077651,6.116587,-1.128561,0.545322,-0.078980,-0.335002,-0.452298,0.525608,0.637915,87.745873,12.996770,-112.088132
46186,NaN,-1.995916,15.282442,3.130760,-2.785596,-0.524962,5.656512,-1.947417,0.659736,-0.020283,-0.340987,-0.451207,0.518236,0.641539,86.723165,13.032819,-111.703698
46187,NaN,-1.295843,14.061519,2.674871,-2.289520,-1.185028,4.326039,-2.574879,0.815911,0.073325,-0.349047,-0.449227,0.508727,0.646187,85.361660,13.028185,-111.225616
46188,NaN,-0.893278,12.504231,1.879819,-1.352698,-1.592471,2.689756,-2.897268,1.051521,0.176642,-0.358688,-0.447102,0.497886,0.650809,83.848286,12.990158,-110.603051
46189,NaN,-0.101519,11.175966,0.821575,-0.331623,-2.441168,1.119319,-3.009456,1.303320,0.356600,-0.369705,-0.445019,0.486510,0.654663,82.304909,12.882089,-109.821224
46190,NaN,0.783661,9.350907,-0.490665,0.828035,-3.246491,-1.034211,-2.940400,1.619644,0.694494,-0.382336,-0.443167,0.475386,0.656834,80.846978,12.630351,-108.823396
46191,NaN,0.273707,6.844371,-1.064371,1.573663,-2.286128,-3.460767,-2.582816,2.056961,1.020788,-0.396177,-0.442514,0.465189,0.656372,79.650275,12.257967,-107.536905
46192,NaN,-0.699371,5.046837,-1.257730,1.994065,-0.916885,-5.045785,-1.814221,2.327144,1.215090,-0.409471,-0.443712,0.457276,0.652957,78.923673,11.827552,-106.068345
46193,NaN,-1.075902,4.628613,-1.423733,2.263465,-0.413973,-5.418016,-0.831142,2.415321,1.358782,-0.421164,-0.446765,0.452612,0.646657,78.761720,11.335806,-104.533124
46194,NaN,-1.467947,5.092368,-1.318498,2.334543,-0.023513,-4.875711,0.009603,2.364004,1.537982,-0.431354,-0.450940,0.451076,0.638058,79.065404,10.737253,-103.009616
46195,NaN,-2.100487,6.095779,-0.978206,2.253286,0.550934,-3.718042,0.636336,2.247171,1.641954,-0.440116,-0.455757,0.451942,0.627958,79.699334,10.054188,-101.551106
46196,NaN,-2.301790,7.248282,-0.582849,1.993608,0.719182,-2.485939,0.946447,2.054395,1.619096,-0.447574,-0.460626,0.454057,0.617522,80.473148,9.348842,-100.215995
46197,NaN,-2.156111,7.805842,-0.669737,2.034390,0.611243,-1.969634,0.970267,1.760760,1.586326,-0.454132,-0.464622,0.456754,0.607673,81.214938,8.616622,-99.065271
46198,NaN,-2.284309,7.657782,-0.565784,1.844740,0.922756,-2.071695,0.894779,1.405254,1.570372,-0.459936,-0.467346,0.459918,0.598767,81.868093,7.851001,-98.129937
46199,NaN,-2.016708,7.459249,-0.392719,1.530804,0.848905,-2.276392,0.945820,1.150918,1.542754,-0.464900,-0.469422,0.463705,0.590329,82.517036,7.069594,-97.353725
46200,NaN,-2.392071,8.114978,0.367026,0.817029,1.344169,-1.492048,0.994748,1.001832,1.500017,-0.469223,-0.471230,0.467825,0.582162,83.172435,6.294331,-96.675440
46201,NaN,-3.274312,8.323036,-0.141757,1.351097,2.267175,-1.265961,0.932426,0.657652,1.361410,-0.472444,-0.472161,0.472207,0.575223,83.760679,5.567172,-96.213376
46202,NaN,-3.999522,8.284911,-0.337366,1.539667,3.088271,-1.278036,0.880543,0.036045,1.206674,-0.473840,-0.471525,0.477505,0.570200,84.279921,4.887771,-96.123216
46203,NaN,-3.741108,8.182978,-0.641772,1.750414,2.910596,-1.456099,0.834446,-0.605064,1.032669,-0.473295,-0.469334,0.483760,0.567180,84.740967,4.270853,-96.415887
46204,NaN,-2.894947,8.258217,-0.658147,1.644027,2.139903,-1.462264,0.770242,-1.020490,0.824490,-0.471277,-0.466298,0.490295,0.565752,85.150670,3.754879,-96.960708
46205,NaN,-1.886239,8.403794,-0.453670,1.302510,1.211027,-1.373252,0.643108,-1.155125,0.617671,-0.468615,-0.463057,0.496282,0.565404,85.486189,3.353595,-97.595690
46206,NaN,-1.523115,8.595548,-0.187996,0.980190,0.915799,-1.184880,0.503818,-1.106062,0.422034,-0.465821,-0.460097,0.501280,0.565720,85.746799,3.070187,-98.212659
46207,NaN,-1.591736,8.944888,0.144853,0.666590,1.039783,-0.810462,0.351353,-1.018242,0.274929,-0.463166,-0.457379,0.505289,0.566538,85.924819,2.876289,-98.786746
46208,NaN,-1.538946,9.251679,0.429482,0.390807,1.037375,-0.489734,0.179029,-0.918363,0.225572,-0.461003,-0.454660,0.508448,0.567662,86.008585,2.716503,-99.305726
46209,NaN,-1.551896,9.592942,0.876549,-0.018589,1.130368,-0.121296,0.008172,-0.784333,0.315931,-0.459818,-0.451686,0.511012,0.568695,85.999770,2.510282,-99.744676
46210,NaN,-1.620444,9.527529,1.058261,-0.161763,1.270330,-0.175294,-0.242125,-0.644535,0.456302,-0.459945,-0.448170,0.512848,0.569721,85.852968,2.229411,-100.097340
46211,NaN,-1.033178,9.067934,0.788929,0.014530,0.721035,-0.680509,-0.367963,-0.478810,0.706472,-0.461484,-0.444185,0.514497,0.570110,85.639944,1.811150,-100.343850
46212,NaN,-0.602389,8.467099,0.320840,0.403778,0.312670,-1.333537,-0.393668,-0.278760,1.064713,-0.464602,-0.439779,0.516390,0.569280,85.417895,1.196648,-100.458184
46213,NaN,-0.711052,7.549718,0.127261,0.590978,0.506395,-2.268591,-0.351312,-0.037601,1.366368,-0.469090,-0.435359,0.518488,0.567086,85.223663,0.420404,-100.418606
46214,NaN,-1.323467,6.789328,0.045295,0.753235,1.210107,-3.043943,-0.110159,0.155205,1.550066,-0.474047,-0.431554,0.521187,0.563386,85.167012,-0.451037,-100.258261
46215,NaN,-1.804421,6.806697,0.354282,0.546095,1.844883,-3.029646,0.246435,0.217458,1.622317,-0.478571,-0.428552,0.524868,0.558414,85.311604,-1.361160,-100.059705
46216,NaN,-2.203132,7.152424,0.628819,0.363272,2.402793,-2.706374,0.465340,0.158820,1.602137,-0.482383,-0.425935,0.529219,0.553004,85.579646,-2.262869,-99.898654
46217,NaN,-2.084915,7.566917,0.809798,0.173605,2.447521,-2.313425,0.622125,0.061337,1.542132,-0.485403,-0.423556,0.534075,0.547493,85.938031,-3.135381,-99.800789
46218,NaN,-1.747785,8.049241,0.980356,-0.048611,2.287537,-1.839643,0.714660,-0.028572,1.455496,-0.487718,-0.421358,0.539182,0.542099,86.351711,-3.962375,-99.763536
46219,NaN,-1.340323,8.466107,0.824989,0.022289,2.005701,-1.438487,0.793583,-0.106107,1.330596,-0.489288,-0.419454,0.544395,0.536926,86.814262,-4.720749,-99.781294
46220,NaN,-0.791242,8.591839,0.704542,0.004165,1.567608,-1.298963,0.842406,-0.074349,1.120278,-0.490250,-0.418304,0.549191,0.532039,87.304504,-5.357764,-99.793409
46221,NaN,-0.703665,8.447996,0.535072,0.085178,1.537044,-1.459288,0.945940,0.039661,0.922339,-0.490760,-0.418236,0.553542,0.527090,87.848777,-5.878339,-99.750444
46222,NaN,-0.403604,8.554941,0.694939,-0.193012,1.365670,-1.331569,1.114092,0.174315,0.813289,-0.490981,-0.419216,0.557754,0.521637,88.481591,-6.334639,-99.637394
46223,NaN,0.090926,9.525951,0.594261,-0.236515,1.048029,-0.328542,1.407730,0.335305,0.697185,-0.490704,-0.421640,0.562059,0.515285,89.272001,-6.723635,-99.438292
46224,NaN,0.339120,11.428961,0.486781,-0.260296,1.088772,1.576637,1.652983,0.434839,0.544386,-0.489762,-0.425318,0.566391,0.508369,90.195646,-7.028078,-99.188068
46225,NaN,0.123977,13.432659,0.502976,-0.397424,1.624282,3.525408,1.536090,0.500691,0.326579,-0.488663,-0.429465,0.569756,0.502141,91.046870,-7.211530,-98.902914
46226,NaN,-0.614826,14.674716,0.513708,-0.473460,2.556488,4.652000,1.092146,0.524097,0.052938,-0.487872,-0.433341,0.571335,0.497768,91.641407,-7.242535,-98.603027
46227,NaN,-1.594794,15.055273,0.450877,-0.404533,3.560014,4.903617,0.620505,0.493369,-0.224199,-0.487311,-0.436772,0.571195,0.495474,91.967444,-7.116080,-98.315867
46228,NaN,-2.509760,15.356095,0.636759,-0.549061,4.484635,5.090333,0.309833,0.354219,-0.394331,-0.486604,-0.439579,0.570248,0.494777,92.125801,-6.891151,-98.105311
46229,NaN,-3.280182,15.844486,0.950223,-0.804545,5.285608,5.488453,0.035695,0.085825,-0.416553,-0.485674,-0.441120,0.569218,0.495504,92.145872,-6.647194,-98.048387
46230,NaN,-3.547600,16.048879,1.017785,-0.827169,5.522616,5.679373,-0.276339,-0.218737,-0.318384,-0.484808,-0.440861,0.568374,0.497548,92.007891,-6.453965,-98.169716
46231,NaN,-3.621956,15.805891,0.710859,-0.433442,5.478770,5.459646,-0.607008,-0.486035,-0.155696,-0.484308,-0.438677,0.567699,0.500726,91.697362,-6.348105,-98.448266
46232,NaN,-3.619437,15.274386,0.363456,0.046225,5.343191,4.951645,-0.829286,-0.725142,0.085244,-0.484212,-0.434654,0.567570,0.504459,91.275407,-6.379786,-98.869432
46233,NaN,-3.665009,14.531988,0.084775,0.499083,5.260176,4.212176,-0.994874,-0.973160,0.254118,-0.484176,-0.429119,0.567957,0.508778,90.774899,-6.507298,-99.434366
46234,NaN,-2.827929,13.919739,-0.287803,0.910499,4.315883,3.692140,-1.078786,-1.131416,0.314842,-0.484000,-0.422771,0.568624,0.513493,90.238631,-6.675618,-100.090601
46235,NaN,-1.729480,13.373939,-0.490088,1.087171,3.153206,3.262723,-1.091984,-1.194419,0.401568,-0.483861,-0.415968,0.569541,0.518143,89.700619,-6.897638,-100.780866
46236,NaN,-1.486513,12.658509,-0.222472,0.925607,2.900717,2.565676,-1.086203,-1.244662,0.464373,-0.483698,-0.408827,0.570699,0.522685,89.172669,-7.164413,-101.498946
46237,NaN,-1.214076,12.002011,-0.116337,0.888842,2.595785,1.934914,-0.934303,-1.276228,0.365488,-0.482839,-0.402240,0.572074,0.527068,88.736379,-7.378505,-102.233316
46238,NaN,-0.430362,12.206123,-0.030403,0.759527,1.887027,2.230451,-0.656891,-1.275927,0.195073,-0.480950,-0.396772,0.573817,0.531030,88.461894,-7.501855,-102.969905
46239,NaN,0.439937,12.811755,0.135465,0.510935,1.151739,2.945255,-0.522522,-1.204871,0.009246,-0.478478,-0.392347,0.575334,0.534896,88.259672,-7.518122,-103.666941
46240,NaN,1.243917,12.973644,0.187585,0.333627,0.384028,3.211862,-0.516539,-1.043567,-0.200400,-0.475882,-0.388939,0.576064,0.538900,88.049343,-7.416374,-104.275746
46241,NaN,1.614265,12.762825,0.667431,-0.188909,0.074454,3.067503,-0.581080,-0.733948,-0.387596,-0.473781,-0.386755,0.575485,0.542926,87.777521,-7.200948,-104.708761
46242,NaN,1.105146,11.832155,0.711930,-0.118771,0.401448,2.084878,-0.646191,-0.431907,-0.547436,-0.472234,-0.385671,0.573708,0.546912,87.446260,-6.891655,-104.973473
46243,NaN,0.747770,10.265561,-0.108028,0.686079,0.286483,0.453726,-0.484841,-0.363297,-0.637345,-0.470313,-0.385423,0.572007,0.550512,87.201052,-6.527815,-105.201247
46244,NaN,0.459771,9.203752,-0.663603,1.223377,0.238163,-0.658069,-0.145737,-0.294745,-0.716132,-0.467713,-0.386362,0.570933,0.553177,87.145264,-6.120129,-105.393767
46245,NaN,-0.127122,8.516722,-0.872743,1.506081,0.614268,-1.406361,0.166214,-0.209182,-0.838629,-0.464404,-0.388627,0.570259,0.555071,87.261377,-5.637238,-105.538921
46246,NaN,-0.619721,8.073327,-1.012263,1.698870,0.944021,-1.887449,0.340568,-0.184650,-0.972147,-0.460447,-0.391719,0.569754,0.556709,87.475556,-5.079474,-105.673186
46247,NaN,-0.870059,7.985519,-1.092817,1.784643,1.079404,-1.978862,0.447305,-0.165794,-1.176186,-0.455747,-0.395695,0.569068,0.558464,87.748230,-4.401195,-105.797751
46248,NaN,-1.149052,8.264605,-1.182966,1.898427,1.243371,-1.696536,0.481972,-0.167656,-1.516302,-0.450004,-0.400673,0.567796,0.560861,88.039924,-3.530304,-105.928346
46249,NaN,-1.025525,8.650865,-1.061180,1.694888,1.044514,-1.265809,0.337649,-0.189403,-1.932527,-0.443279,-0.406434,0.565270,0.564610,88.247104,-2.418079,-106.073904
46250,NaN,-0.710929,8.715358,-0.971794,1.456949,0.594939,-1.156642,0.082155,-0.209433,-2.314311,-0.435892,-0.412584,0.561243,0.569894,88.305651,-1.090038,-106.236124
46251,NaN,-0.118394,8.636978,-0.784185,1.049332,-0.127560,-1.204268,-0.088850,-0.196801,-2.549026,-0.428152,-0.419013,0.556114,0.576065,88.261916,0.375579,-106.393542
46252,NaN,0.611208,8.962309,-0.339896,0.372508,-0.925229,-0.878875,-0.173107,-0.162122,-2.510225,-0.420734,-0.425166,0.550677,0.582213,88.166556,1.816484,-106.533556
46253,NaN,0.578396,9.541760,0.150314,-0.113108,-0.996737,-0.305212,-0.435039,-0.124536,-2.245086,-0.414679,-0.430105,0.544863,0.588366,87.918470,3.108756,-106.649932
46254,NaN,0.388160,9.623280,0.078740,0.010022,-1.049694,-0.238819,-0.828728,-0.074145,-1.953964,-0.410421,-0.433510,0.538363,0.594801,87.444353,4.231880,-106.740241
46255,NaN,0.683683,9.522174,-0.545785,0.557958,-1.692077,-0.418025,-1.102497,-0.058079,-1.641966,-0.407677,-0.435534,0.531619,0.601241,86.812091,5.178795,-106.822062
46256,NaN,1.198324,9.049166,-0.865410,0.769309,-2.384630,-0.992729,-1.344193,-0.112691,-1.251788,-0.406457,-0.435805,0.525077,0.607586,86.037592,5.896759,-106.934273
46257,NaN,1.124173,7.811751,-1.205742,1.155766,-2.383400,-2.281218,-1.517217,-0.158045,-0.868955,-0.406619,-0.434565,0.518877,0.613662,85.160515,6.394983,-107.064912
46258,NaN,0.856806,6.556144,-1.617647,1.646091,-2.160529,-3.571247,-1.381585,-0.288606,-0.554185,-0.407092,-0.432336,0.514024,0.618984,84.352885,6.702159,-107.262586
46259,NaN,0.688212,5.469367,-1.645479,1.713419,-1.905155,-4.662011,-1.050142,-0.490259,-0.304614,-0.407078,-0.429514,0.511109,0.623356,83.722003,6.855112,-107.563795
46260,NaN,0.305934,4.690951,-1.520112,1.682889,-1.422781,-5.390824,-0.489029,-0.736875,-0.136326,-0.405748,-0.426606,0.510806,0.626461,83.396348,6.891402,-107.998038
46261,NaN,0.517735,5.058021,-1.202311,1.339101,-1.599658,-5.022589,0.230119,-0.978133,-0.043877,-0.402542,-0.424173,0.513417,0.628045,83.467012,6.860693,-108.563392
46262,NaN,1.160589,6.377178,-0.716117,0.729367,-2.254506,-3.737069,0.689044,-1.088964,-0.038174,-0.398089,-0.422269,0.517700,0.628650,83.793307,6.819247,-109.193199
46263,NaN,2.079184,7.470246,0.209117,-0.437666,-2.973961,-2.661821,0.674847,-0.981571,-0.113826,-0.393684,-0.420871,0.521533,0.629193,84.118595,6.833208,-109.765030
46264,NaN,2.397840,7.640141,0.071565,-0.469363,-3.331320,-2.545758,0.463998,-0.749573,-0.216473,-0.389999,-0.420025,0.524027,0.629980,84.337587,6.919486,-110.210762
46265,NaN,3.044969,7.036367,-0.493816,-0.249241,-4.033787,-3.278751,0.477188,-0.594519,-0.271428,-0.386508,-0.419846,0.526125,0.630503,84.574041,7.049449,-110.569194
46266,NaN,3.676928,6.724788,-1.041533,-0.034504,-4.763744,-3.719041,0.774517,-0.283545,-0.361194,-0.382925,-0.421434,0.528370,0.629751,85.001327,7.246878,-110.753914
46267,NaN,2.990640,7.504673,-0.906704,0.029269,-4.206698,-2.856518,1.106248,0.175395,-0.652536,-0.378921,-0.425872,0.530143,0.627694,85.650791,7.635467,-110.685395
46268,NaN,3.614061,8.781204,-0.489474,-0.642350,-4.866805,-1.669524,0.991242,0.480103,-0.972701,-0.374951,-0.431862,0.530278,0.625869,86.257613,8.216951,-110.450655
46269,NaN,3.498562,9.595806,-0.757024,-0.427010,-5.050608,-0.913245,0.603416,0.741952,-1.324593,-0.371384,-0.438863,0.527911,0.625127,86.667141,9.008121,-110.070673
46270,NaN,3.423647,9.968953,-1.149249,-0.090457,-5.294155,-0.626640,0.225631,1.030735,-1.728021,-0.368120,-0.447080,0.522901,0.625445,86.892089,10.036009,-109.531722
46271,NaN,3.641908,10.211807,-1.291261,-0.052656,-5.749599,-0.531123,-0.128501,1.362861,-2.014473,-0.365571,-0.456386,0.515464,0.626392,86.959978,11.237483,-108.803226
46272,NaN,3.902199,10.802403,-1.025014,-0.382681,-6.219363,-0.110217,-0.280327,1.668368,-2.067688,-0.363932,-0.466425,0.506790,0.627030,86.992650,12.477175,-107.894228
46273,NaN,3.634107,12.504400,-0.054432,-1.222157,-6.270853,1.533996,-0.326204,1.883528,-1.737416,-0.363915,-0.476143,0.498263,0.626569,87.049490,13.533940,-106.843274
46274,NaN,2.327314,14.222865,0.504159,-1.343672,-5.530732,3.437225,-0.919916,1.952626,-1.302657,-0.366789,-0.483830,0.488704,0.626533,86.795643,14.345508,-105.736056
46275,NaN,2.113178,15.268232,0.198954,-0.825883,-5.894283,4.406661,-1.677655,2.014113,-0.999181,-0.372530,-0.489496,0.477310,0.627527,86.133391,14.994048,-104.584255
46276,NaN,2.087128,16.283021,-0.362413,0.034120,-6.467856,5.279541,-2.237704,2.004376,-0.629862,-0.380699,-0.493098,0.464974,0.629064,85.161146,15.447195,-103.428627
46277,NaN,2.157039,16.509116,-1.373993,1.434293,-6.943540,5.313475,-2.787282,1.777189,-0.202335,-0.390943,-0.493821,0.452287,0.631459,83.849893,15.665411,-102.390772
46278,NaN,2.588845,14.533130,-2.347193,2.695709,-7.004351,3.113000,-3.187008,1.499631,0.414185,-0.403378,-0.491348,0.440262,0.634060,82.275720,15.539630,-101.478472
46279,NaN,1.722536,11.180061,-2.552142,3.233780,-5.191922,0.038613,-2.963761,1.338524,1.102819,-0.416973,-0.487149,0.430841,0.634977,80.817194,15.031976,-100.598929
46280,NaN,-0.310221,8.706867,-1.996095,3.059166,-2.358319,-1.752603,-2.014806,1.041128,1.707582,-0.429432,-0.482562,0.426407,0.633165,79.864420,14.173432,-99.824881
46281,NaN,-2.017991,8.083977,-1.269383,2.684729,-0.301344,-1.829438,-0.864026,0.432145,2.233076,-0.439407,-0.477313,0.428134,0.629122,79.490725,12.963247,-99.341762
46282,NaN,-3.158061,8.574374,-0.665584,2.397106,0.952854,-1.021917,0.065129,-0.162533,2.572166,-0.446889,-0.471437,0.434817,0.623676,79.572051,11.502937,-99.164793
46283,NaN,-3.612624,8.899739,-0.026935,1.898649,1.635800,-0.540622,0.600025,-0.640347,2.594070,-0.452061,-0.465134,0.444227,0.618024,79.905202,9.979326,-99.265983
46284,NaN,-3.229304,8.439265,0.344793,1.390044,1.639389,-1.029519,0.996668,-1.044446,2.492546,-0.455010,-0.458614,0.455436,0.612550,80.426109,8.475837,-99.619431
46285,NaN,-2.542878,7.915021,0.859252,0.654692,1.355742,-1.591918,1.561606,-1.327123,2.357289,-0.455503,-0.452719,0.468621,0.606595,81.255883,7.025914,-100.163108
46286,NaN,-2.135059,8.420032,2.071861,-0.632456,1.303881,-1.001253,2.263876,-1.490515,2.144213,-0.453253,-0.448303,0.483682,0.599698,82.484359,5.694910,-100.841942
46287,NaN,-2.074706,9.665053,3.741069,-2.298053,1.648990,0.370753,2.714691,-1.559212,1.814773,-0.448696,-0.445360,0.499376,0.592410,83.979278,4.561898,-101.612400
46288,NaN,-1.218782,11.315694,4.847429,-3.636536,1.155435,1.953962,2.903372,-1.579980,1.358674,-0.442171,-0.443772,0.514483,0.585541,85.589084,3.710474,-102.447982
46289,NaN,0.277699,12.924753,5.104099,-4.398873,-0.089379,3.370828,2.706803,-1.469766,0.903666,-0.434855,-0.443068,0.527663,0.579796,87.099561,3.145137,-103.269377
46290,NaN,1.545575,13.158925,4.709896,-4.578655,-1.204278,3.427658,2.007201,-1.074055,0.403729,-0.428649,-0.443267,0.536692,0.575965,88.224053,2.895128,-103.878038
46291,NaN,2.447455,11.934322,3.996824,-4.332373,-2.075737,2.074788,1.307132,-0.282936,-0.153958,-0.424422,-0.445650,0.540776,0.573431,88.972156,2.984381,-104.054984
46292,NaN,2.820431,10.917755,3.508705,-4.087125,-2.514751,0.977734,0.942092,0.703989,-0.600211,-0.422429,-0.451324,0.540650,0.570577,89.540358,3.339771,-103.657737
46293,NaN,3.322945,10.737067,3.054408,-3.839863,-3.194113,0.709067,0.650787,1.606758,-0.820607,-0.422829,-0.459470,0.537304,0.566928,89.977965,3.818605,-102.749898
46294,NaN,2.873575,10.981119,2.539001,-3.265083,-3.023151,0.933793,0.318472,2.387525,-0.758564,-0.426260,-0.468955,0.531388,0.562148,90.263432,4.256689,-101.379757
46295,NaN,1.151398,11.198937,2.067413,-2.452855,-1.587075,1.254348,-0.179270,2.932657,-0.566446,-0.432769,-0.478302,0.523274,0.556887,90.297549,4.577479,-99.695606
46296,NaN,-0.013739,10.794189,1.157697,-1.306607,-0.677763,0.943116,-0.736081,3.326982,-0.404422,-0.441976,-0.487004,0.512995,0.551653,90.038679,4.809945,-97.784423
46297,NaN,-0.524044,9.885482,0.124069,-0.128892,-0.302578,0.081954,-1.078128,3.564885,-0.185349,-0.453094,-0.494877,0.501629,0.546050,89.601468,4.926852,-95.737719
46298,NaN,-1.061397,9.003270,-0.796269,0.919834,0.219613,-0.761470,-1.200855,3.634398,0.231000,-0.465661,-0.501452,0.490610,0.539452,89.097438,4.824430,-93.648650
46299,NaN,-2.082052,7.695518,-1.403250,1.626821,1.383001,-2.004695,-1.224458,3.358557,0.758456,-0.478875,-0.505748,0.481333,0.532181,88.558819,4.433513,-91.712513
46300,NaN,-2.953375,6.264499,-2.065526,2.285217,2.466429,-3.415386,-0.901458,2.626706,1.285980,-0.490775,-0.507469,0.475852,0.524576,88.157713,3.746335,-90.185467
46301,NaN,-4.074831,5.518774,-2.185606,2.342086,3.770802,-4.144225,-0.178605,1.737128,1.706337,-0.499738,-0.507525,0.475439,0.516371,88.120753,2.805861,-89.160202
