// General information: 
//  MT Manager version: 2019.0.1 
//  XDA version: 2019.0.1 build 2740 rev 84096 built on 2019-01-30
// Device information: 
//  DeviceId: 00B4381A
//  ProductCode: MTW2-3A7G6
//  Firmware Version: 4.3.4
//  Hardware Version: 1.1.0
// Device settings: 
//  Filter Profile: human(46.1)
//  Option Flags: Orientation Smoother Disabled, AHS Disabled, ICC Disabled
// Coordinate system: ENU
PacketCounter,SampleTimeFine,Acc_X,Acc_Y,Acc_Z,FreeAcc_E,FreeAcc_N,FreeAcc_U,Gyr_X,Gyr_Y,Gyr_Z,Quat_q0,Quat_q1,Quat_q2,Quat_q3,Roll,Pitch,Yaw
48712,NaN,-2.956477,5.581830,7.040275,-0.660925,-0.465095,-0.388789,0.052155,0.225595,0.523249,0.911938,0.287715,0.194822,0.218251,38.796484,13.281941,31.613806
48713,NaN,-2.897364,6.241390,7.031359,-0.802775,0.027422,-0.007362,0.193078,0.141371,0.373421,0.911112,0.288858,0.195148,0.219895,38.964169,13.212653,31.829869
48714,NaN,-2.769342,6.469806,7.280898,-0.639532,0.121248,0.292527,0.169982,0.053374,0.279432,0.910505,0.289892,0.195185,0.221012,39.100278,13.137866,31.970992
48715,NaN,-2.688932,6.371100,6.895807,-0.731471,0.236019,-0.077050,0.119239,-0.007816,0.194658,0.910123,0.290688,0.195007,0.221695,39.194007,13.065950,32.049344
48716,NaN,-2.583496,6.310385,7.362518,-0.405403,0.019547,0.214142,0.112780,-0.090098,0.145625,0.909884,0.291488,0.194522,0.222050,39.271135,12.975498,32.075794
48717,NaN,-2.728772,6.313777,7.341698,-0.546015,-0.061512,0.232638,0.068368,-0.180250,0.087801,0.909861,0.292139,0.193657,0.222044,39.310180,12.865742,32.041127
48718,NaN,-2.755304,6.316403,7.476657,-0.516856,-0.146219,0.341155,0.046226,-0.223424,0.000673,0.910008,0.292644,0.192703,0.221610,39.323419,12.768774,31.951887
48719,NaN,-2.656170,6.227265,7.483188,-0.418339,-0.172320,0.268357,0.049586,-0.230817,-0.052634,0.910214,0.293128,0.191793,0.220909,39.333529,12.687704,31.834657
48720,NaN,-2.598542,6.355040,7.683566,-0.321334,-0.143936,0.485476,0.021301,-0.201951,-0.127272,0.910516,0.293371,0.191096,0.219947,39.321729,12.646729,31.695322
48721,NaN,-2.615601,6.186092,7.518759,-0.367373,-0.195351,0.260430,-0.047526,-0.089342,-0.272623,0.910968,0.293046,0.191046,0.218547,39.265913,12.708213,31.531009
48722,NaN,-2.754694,6.370061,7.632661,-0.474129,-0.168470,0.491211,0.031022,-0.109363,-0.376025,0.911435,0.292992,0.191144,0.216578,39.242099,12.798325,31.312942
48723,NaN,-2.468773,6.359555,7.449895,-0.301695,0.074538,0.283995,-0.056217,0.014012,-0.567342,0.912111,0.292229,0.191991,0.213999,39.159164,13.012343,31.053502
48724,NaN,-2.626528,6.284106,7.599724,-0.310343,-0.093276,0.387274,-0.007635,0.074602,-0.672177,0.912763,0.291513,0.193315,0.210982,39.096383,13.290832,30.768015
48725,NaN,-2.327334,6.310443,7.551381,-0.053733,0.132673,0.298733,-0.007717,0.050192,-0.696279,0.913451,0.290800,0.194564,0.207819,39.028077,13.566939,30.462102
48726,NaN,-2.233004,5.984211,7.481073,0.110691,0.002929,0.023527,-0.057411,-0.002082,-0.663822,0.914219,0.289938,0.195469,0.204772,38.928028,13.807533,30.150614
48727,NaN,-1.960748,6.281742,7.601390,0.339817,0.330617,0.230276,0.005893,-0.167933,-0.536312,0.914915,0.289661,0.195499,0.202008,38.863176,13.928009,29.836323
48728,NaN,-1.697734,6.653914,7.596855,0.474369,0.761966,0.388459,-0.139716,-0.132661,-0.440619,0.915688,0.288769,0.195399,0.199869,38.727290,14.029200,29.578065
48729,NaN,-0.536500,6.158401,7.233574,1.409222,1.136033,-0.471286,-0.271556,-0.071289,-0.246253,0.916388,0.287405,0.195173,0.198846,38.543438,14.087835,29.433046
48730,NaN,-0.367182,4.954923,7.267797,1.867677,0.319260,-1.215202,-0.312104,0.147912,0.041634,0.916647,0.285913,0.195490,0.199487,38.387550,14.141575,29.500229
48731,NaN,-1.786708,4.963469,7.418693,0.737402,-0.408514,-0.748764,-0.021646,0.190082,0.304222,0.916183,0.285972,0.195917,0.201110,38.432303,14.120810,29.704947
48732,NaN,-1.866548,5.678306,7.689339,0.610819,-0.040028,-0.092690,0.024060,0.144969,0.532388,0.915466,0.286502,0.195853,0.203665,38.523821,13.998259,29.997964
48733,NaN,-2.069531,5.841718,7.495685,0.286585,0.042983,-0.091073,0.024024,0.043973,0.754280,0.914610,0.287356,0.195009,0.207091,38.630770,13.750600,30.356088
48734,NaN,-2.348874,5.891337,7.278128,-0.091479,0.004281,-0.159312,0.013843,0.083436,0.792065,0.913680,0.288149,0.194275,0.210751,38.736876,13.506515,30.744940
48735,NaN,-2.754418,6.185801,7.452457,-0.454464,-0.092552,0.245880,0.015192,0.042051,0.717584,0.912851,0.288919,0.193462,0.214011,38.831260,13.269960,31.084075
48736,NaN,-2.917901,6.382002,7.296835,-0.741203,0.007365,0.283766,0.011651,0.079038,0.521954,0.912195,0.289438,0.193091,0.216429,38.904282,13.119819,31.346031
48737,NaN,-2.731838,6.339223,7.050248,-0.703066,0.156739,0.027830,0.026476,0.101138,0.339255,0.911689,0.289829,0.193100,0.218026,38.968908,13.044807,31.531739
48738,NaN,-2.596680,6.306868,7.285974,-0.473751,0.079591,0.155961,0.061672,0.041014,0.244291,0.911292,0.290347,0.193011,0.219073,39.037909,12.977257,31.652174
48739,NaN,-2.361226,6.395453,7.457136,-0.227488,0.174003,0.287018,0.032487,-0.017788,0.182204,0.911061,0.290745,0.192708,0.219769,39.079641,12.905555,31.721128
48740,NaN,-2.275053,6.301100,7.551184,-0.092169,0.097882,0.280975,-0.030181,-0.039907,0.128905,0.911001,0.290821,0.192317,0.220261,39.077289,12.843535,31.758780
48741,NaN,-2.219988,6.250094,7.720391,0.040639,0.009854,0.365461,-0.044517,-0.038800,0.070470,0.911026,0.290784,0.191995,0.220488,39.061568,12.802773,31.768410
48742,NaN,-2.600375,6.245374,7.682882,-0.296319,-0.169887,0.418473,-0.076208,0.011344,0.003971,0.911120,0.290474,0.191968,0.220529,39.024374,12.808673,31.768046
48743,NaN,-2.570048,6.236773,7.644000,-0.286792,-0.135955,0.377135,-0.062930,0.042262,-0.060048,0.911236,0.290137,0.192187,0.220302,38.991560,12.851190,31.748772
48744,NaN,-3.378868,6.257124,7.284538,-1.127025,-0.363972,0.298205,-0.044949,0.083736,-0.187184,0.911426,0.289706,0.192802,0.219547,38.958743,12.958223,31.687813
48745,NaN,-3.240996,6.300937,7.211852,-1.043038,-0.212087,0.241351,0.025880,0.060803,-0.342362,0.911704,0.289480,0.193611,0.217973,38.949113,13.110726,31.546061
48746,NaN,-3.139372,6.124281,7.236704,-0.874078,-0.282801,0.131572,0.062982,-0.000416,-0.460369,0.912111,0.289367,0.194354,0.215746,38.942160,13.278617,31.328809
48747,NaN,-2.804839,6.134817,7.076736,-0.650474,-0.014112,-0.057695,0.091050,-0.054718,-0.595496,0.912670,0.289314,0.195072,0.212785,38.932255,13.470827,31.028174
48748,NaN,-2.539654,6.240559,7.462040,-0.246300,0.047545,0.237857,0.096612,-0.088597,-0.649168,0.913301,0.289260,0.195720,0.209532,38.915121,13.667295,30.691289
48749,NaN,-2.294489,6.658570,7.704176,-0.015537,0.392008,0.618113,0.056451,-0.209333,-0.580990,0.914025,0.289218,0.195675,0.206453,38.871570,13.785297,30.340849
48750,NaN,-1.897867,6.654618,7.709087,0.331977,0.604861,0.523642,-0.126433,-0.191138,-0.517705,0.914924,0.288375,0.195430,0.203867,38.730308,13.888077,30.025688
48751,NaN,-1.073160,6.245323,7.585903,1.075688,0.785911,-0.018465,-0.293416,-0.114160,-0.397707,0.915853,0.286807,0.195200,0.202117,38.513660,13.981771,29.795799
48752,NaN,-0.449657,5.529408,7.657408,1.815524,0.550598,-0.549154,-0.363681,0.033419,-0.163018,0.916504,0.284993,0.195229,0.201706,38.294973,14.057014,29.726184
48753,NaN,-0.844668,4.967111,7.546435,1.570026,0.014671,-0.875737,-0.295650,0.154921,0.089384,0.916677,0.283620,0.195528,0.202565,38.155292,14.097319,29.818878
48754,NaN,-1.376895,5.270787,7.612030,1.066660,-0.028660,-0.513148,-0.116490,0.139892,0.370692,0.916326,0.283351,0.195535,0.204509,38.147780,14.031334,30.035659
48755,NaN,-1.742036,5.604997,7.510746,0.608115,0.082406,-0.300310,-0.064174,0.079150,0.588999,0.915727,0.283600,0.195015,0.207329,38.189725,13.860746,30.333488
48756,NaN,-2.411772,5.586006,7.403205,-0.017432,-0.231136,-0.232824,-0.058705,0.143112,0.589128,0.915054,0.283801,0.194783,0.210219,38.238649,13.718559,30.652365
48757,NaN,-2.704882,6.030186,7.343766,-0.426847,-0.039494,0.057804,0.013789,0.105574,0.533665,0.914364,0.284325,0.194533,0.212729,38.319800,13.578676,30.931518
48758,NaN,-2.797548,6.225840,7.383445,-0.551874,0.021716,0.227111,-0.030011,0.112887,0.420181,0.913847,0.284521,0.194430,0.214773,38.362749,13.482269,31.160580
48759,NaN,-2.814876,6.153311,7.273900,-0.609426,-0.008885,0.103203,-0.036428,0.052724,0.338951,0.913483,0.284683,0.194155,0.216352,38.388606,13.387249,31.328345
48760,NaN,-2.644417,6.228120,7.186112,-0.543155,0.158710,0.041367,-0.031298,-0.001721,0.260922,0.913245,0.284841,0.193753,0.217505,38.403386,13.295839,31.441717
48761,NaN,-2.426702,6.105881,7.160968,-0.350609,0.179494,-0.102128,-0.030641,-0.009646,0.201223,0.913077,0.284960,0.193398,0.218368,38.412214,13.221911,31.524035
48762,NaN,-2.460035,6.047703,7.534089,-0.193842,-0.053309,0.154686,0.017042,-0.076016,0.160759,0.912950,0.285322,0.192852,0.218911,38.437626,13.132763,31.563937
48763,NaN,-2.364269,6.244228,7.802879,-0.051949,0.012874,0.456791,0.031018,-0.064760,0.096452,0.912863,0.285682,0.192459,0.219150,38.465935,13.071282,31.576768
48764,NaN,-2.325344,6.210294,7.830646,-0.001956,-0.009887,0.448594,-0.028025,-0.017250,0.044102,0.912870,0.285661,0.192298,0.219288,38.458146,13.050047,31.584364
48765,NaN,-2.545900,6.059800,7.604883,-0.250033,-0.133929,0.235027,-0.034302,0.024201,-0.013120,0.912910,0.285520,0.192398,0.219220,38.445100,13.067555,31.579700
48766,NaN,-2.598964,6.122417,7.479672,-0.366661,-0.055631,0.189640,0.002270,0.066705,-0.074901,0.912923,0.285431,0.192823,0.218905,38.449211,13.126391,31.563185
48767,NaN,-2.777310,6.057662,7.386638,-0.528604,-0.149359,0.120560,0.054010,0.056999,-0.152744,0.912958,0.285523,0.193367,0.218159,38.474711,13.208393,31.505939
48768,NaN,-2.863909,6.191164,7.528582,-0.553938,-0.151087,0.330405,0.094683,0.048935,-0.251404,0.913048,0.285704,0.194064,0.216924,38.511577,13.322218,31.401628
48769,NaN,-2.922315,6.122454,7.451811,-0.597154,-0.190674,0.245188,0.124318,0.028624,-0.359568,0.913229,0.285944,0.194853,0.215131,38.552715,13.465512,31.239555
48770,NaN,-2.429001,6.260538,7.479368,-0.184836,0.159008,0.235984,0.145031,0.020210,-0.473327,0.913507,0.286168,0.195788,0.212790,38.591480,13.645890,31.022465
48771,NaN,-1.892047,6.285173,7.471525,0.287167,0.466243,0.117414,0.082080,0.107632,-0.571430,0.913886,0.285918,0.197196,0.210185,38.590882,13.900557,30.792175
48772,NaN,-1.701280,6.709620,7.637072,0.446176,0.824898,0.451746,0.056384,0.082572,-0.423153,0.914165,0.285716,0.198247,0.208247,38.588307,14.090996,30.620858
48773,NaN,-0.935874,6.394785,7.580013,1.165775,1.015006,0.027860,-0.175239,0.170187,-0.252649,0.914504,0.284537,0.199217,0.207446,38.480285,14.259743,30.561016
48774,NaN,-1.256781,5.482883,7.545112,1.134093,0.218346,-0.472651,-0.325283,0.265131,-0.008352,0.914708,0.282811,0.200114,0.208042,38.322003,14.383978,30.648091
48775,NaN,-2.157970,5.450573,7.293685,0.269911,-0.116677,-0.459777,-0.263343,0.218506,0.224296,0.914623,0.281652,0.200535,0.209577,38.222558,14.404837,30.826541
48776,NaN,-2.838174,5.546595,7.367590,-0.300146,-0.410664,-0.177204,-0.159343,0.009875,0.457603,0.914354,0.281417,0.199778,0.211776,38.189730,14.249315,31.036341
48777,NaN,-2.865724,5.304727,6.813482,-0.550283,-0.381359,-0.739226,-0.091857,-0.118929,0.419405,0.914155,0.281595,0.198555,0.213544,38.179923,14.049164,31.180464
48778,NaN,-3.224415,5.230644,6.811013,-0.854214,-0.639002,-0.701801,0.106054,-0.260476,0.318343,0.913922,0.282719,0.197040,0.214460,38.258336,13.821263,31.226541
48779,NaN,-2.927303,6.124086,7.146853,-0.722763,-0.003845,0.017287,0.269273,-0.419385,0.264548,0.913667,0.284713,0.195043,0.214730,38.411069,13.540717,31.187529
48780,NaN,-2.515920,6.158594,6.948257,-0.512950,0.273487,-0.210693,0.226941,-0.428597,0.204722,0.913538,0.286454,0.193048,0.214767,38.531633,13.277706,31.118468
48781,NaN,-2.429966,6.075055,7.599223,-0.136606,-0.073111,0.214026,0.249671,-0.474457,0.179417,0.913438,0.288328,0.190904,0.214600,38.659753,13.003330,31.020708
48782,NaN,-2.162455,6.597016,7.890294,0.045211,0.280042,0.693163,0.149562,-0.467852,0.140016,0.913515,0.289691,0.188736,0.214355,38.726583,12.746203,30.906648
48783,NaN,-2.057476,6.286122,7.863425,0.175490,0.089797,0.460726,-0.010628,-0.379999,0.075797,0.913803,0.290174,0.186890,0.214092,38.703465,12.551348,30.795285
48784,NaN,-1.787945,6.052267,7.875115,0.446222,0.033437,0.269170,-0.000837,-0.279850,0.036908,0.914024,0.290550,0.185568,0.213789,38.689619,12.415232,30.703136
48785,NaN,-1.854216,6.085408,7.867168,0.361408,0.020292,0.298277,-0.000521,-0.151134,0.001692,0.914158,0.290761,0.184889,0.213515,38.683529,12.349298,30.642740
48786,NaN,-2.160045,6.135467,7.818450,0.062081,-0.074972,0.357289,-0.009038,-0.041107,-0.046857,0.914258,0.290767,0.184770,0.213184,38.675727,12.349935,30.599839
48787,NaN,-2.368805,6.182821,7.606391,-0.215448,-0.041156,0.269353,-0.004620,0.141978,-0.174546,0.914313,0.290481,0.185686,0.212542,38.672904,12.478331,30.567242
48788,NaN,-2.551951,6.406454,7.689069,-0.369828,0.008085,0.509133,0.063093,0.170407,-0.257838,0.914334,0.290395,0.186917,0.211486,38.702120,12.649130,30.505243
48789,NaN,-2.020855,5.979370,7.353431,0.074008,0.122650,-0.123055,0.033856,0.274190,-0.396962,0.914438,0.289936,0.188801,0.209986,38.709486,12.916380,30.419703
48790,NaN,-2.194194,6.027063,7.293428,-0.069920,0.116094,-0.101070,0.173826,0.257883,-0.414301,0.914373,0.290114,0.190773,0.208235,38.792719,13.182447,30.318217
48791,NaN,-1.837139,6.538587,7.573083,0.268168,0.557216,0.340993,0.148445,0.221439,-0.379873,0.914332,0.290246,0.192509,0.206625,38.862201,13.420214,30.221389
48792,NaN,-1.377890,6.617381,7.955198,0.850565,0.681567,0.569287,0.016220,0.211439,-0.256925,0.914368,0.289899,0.193876,0.205675,38.867273,13.609178,30.175287
48793,NaN,-0.910217,6.490362,7.775622,1.220159,0.919251,0.241150,-0.158748,0.382253,-0.123000,0.914346,0.288709,0.195654,0.205763,38.802107,13.826296,30.255045
48794,NaN,-1.094677,5.918438,7.688601,1.198560,0.477026,-0.134025,-0.322846,0.542571,0.016008,0.914259,0.286734,0.197788,0.206868,38.672218,14.065295,30.456433
48795,NaN,-1.553759,5.769507,7.616613,0.842068,0.212820,-0.171130,-0.330403,0.643719,0.178860,0.913899,0.284780,0.200147,0.208878,38.566911,14.291760,30.771622
48796,NaN,-2.268029,5.856155,7.436767,0.155604,0.029850,-0.080326,-0.241712,0.596796,0.420925,0.913198,0.283517,0.202031,0.211825,38.536156,14.411101,31.179836
48797,NaN,-2.809054,5.840617,7.337336,-0.329224,-0.201462,-0.030503,-0.228130,0.451638,0.542263,0.912486,0.282598,0.203086,0.215089,38.514990,14.421842,31.588991
48798,NaN,-3.237370,5.472254,6.760545,-0.864148,-0.449661,-0.583270,-0.176231,0.340846,0.506421,0.911839,0.281985,0.203746,0.217993,38.508543,14.396205,31.942520
48799,NaN,-3.555832,5.653010,6.847345,-1.134876,-0.527021,-0.330025,-0.020252,0.200102,0.404823,0.911226,0.282145,0.204063,0.220046,38.567389,14.342968,32.193486
48800,NaN,-3.785639,6.086266,6.965768,-1.390641,-0.390170,0.077180,0.021036,0.050046,0.250755,0.910868,0.282487,0.203971,0.221170,38.617613,14.277996,32.321402
48801,NaN,-3.466315,6.045932,6.911052,-1.154507,-0.246039,-0.069083,0.008469,-0.134423,0.164353,0.910819,0.282903,0.203131,0.221615,38.634588,14.160518,32.336317
48802,NaN,-3.115205,6.121580,7.032741,-0.848157,-0.075252,-0.019191,0.048233,-0.302937,0.127456,0.910915,0.283632,0.201635,0.221651,38.654342,13.981589,32.276948
48803,NaN,-2.772889,6.260783,7.238759,-0.533917,0.099254,0.136731,0.027512,-0.414020,0.082039,0.911204,0.284355,0.199666,0.221322,38.648325,13.768803,32.153082
48804,NaN,-2.383723,6.088343,7.054502,-0.285419,0.235443,-0.201285,0.025341,-0.460369,0.019911,0.911602,0.285045,0.197579,0.220665,38.630010,13.557889,31.986339
48805,NaN,-2.315411,5.913267,7.353994,-0.061252,-0.006695,-0.096454,0.109466,-0.467356,-0.030391,0.911937,0.286080,0.195624,0.219683,38.655291,13.361784,31.793785
48806,NaN,-2.177264,6.219723,7.697958,0.105335,0.119140,0.319371,0.137269,-0.475633,-0.071991,0.912281,0.287203,0.193719,0.218473,38.691271,13.177042,31.579335
48807,NaN,-2.184384,6.286666,8.064352,0.234752,-0.013226,0.640645,0.067453,-0.367996,-0.135770,0.912686,0.287833,0.192319,0.217187,38.690823,13.063253,31.374670
48808,NaN,-2.411722,6.311260,8.097549,0.039979,-0.130048,0.732462,0.001245,-0.272009,-0.207264,0.913168,0.287980,0.191388,0.215782,38.652616,13.018022,31.173142
48809,NaN,-2.290286,6.348335,7.918412,0.037031,0.046316,0.591373,-0.093716,-0.200600,-0.278701,0.913791,0.287552,0.190786,0.214246,38.559257,13.030120,30.965446
48810,NaN,-2.035379,5.847003,7.437228,0.165171,0.040240,-0.137277,-0.200621,-0.025206,-0.444798,0.914576,0.286283,0.191106,0.212302,38.400874,13.179616,30.744976
48811,NaN,-2.585517,5.832310,7.514283,-0.240727,-0.249956,0.038438,-0.011681,-0.000028,-0.464295,0.915079,0.285835,0.191771,0.210125,38.350823,13.347009,30.524798
48812,NaN,-2.360601,6.086222,7.470337,-0.119154,0.092765,0.106868,0.037168,0.034518,-0.505018,0.915519,0.285530,0.192699,0.207761,38.325852,13.544217,30.297638
48813,NaN,-2.046087,5.972901,7.466624,0.201977,0.181942,-0.038307,0.075839,0.041908,-0.474236,0.915856,0.285426,0.193661,0.205515,38.326969,13.733856,30.087957
48814,NaN,-1.248162,6.205725,7.552180,0.876606,0.715606,-0.023725,0.132254,0.013098,-0.288483,0.915948,0.285784,0.194278,0.204018,38.377096,13.844510,29.952855
48815,NaN,-0.841890,5.925988,7.739288,1.397312,0.622648,-0.149225,-0.024409,0.123341,-0.071050,0.915930,0.285526,0.194935,0.203834,38.371790,13.927509,29.959956
48816,NaN,-1.095863,5.580617,7.792120,1.306036,0.224357,-0.257309,-0.111977,0.193069,0.164102,0.915732,0.285022,0.195481,0.204903,38.347982,13.958108,30.100223
48817,NaN,-1.071187,5.762269,7.518512,1.148323,0.500213,-0.362272,-0.109554,0.279446,0.391423,0.915206,0.284665,0.196103,0.207139,38.359308,13.946693,30.378245
48818,NaN,-1.649328,5.641176,7.458215,0.662995,0.149309,-0.341348,-0.092586,0.334112,0.621130,0.914360,0.284548,0.196661,0.210480,38.409811,13.877981,30.781667
48819,NaN,-2.728890,6.127691,7.658561,-0.279920,-0.131323,0.363427,0.057812,0.290289,0.709280,0.913237,0.285254,0.197049,0.214010,38.552334,13.757345,31.209418
48820,NaN,-2.710491,6.460707,7.597674,-0.389257,0.127165,0.514192,-0.045907,0.368044,0.579376,0.912314,0.285265,0.197864,0.217158,38.626646,13.717351,31.605514
48821,NaN,-2.503885,5.794524,7.261351,-0.191450,-0.130013,-0.193976,-0.067928,0.344628,0.486544,0.911536,0.285114,0.198676,0.219863,38.676619,13.699420,31.949445
48822,NaN,-2.729848,5.887422,7.157728,-0.448908,-0.147928,-0.162639,0.092401,0.291339,0.411840,0.910659,0.285668,0.199529,0.221996,38.804884,13.684202,32.239986
48823,NaN,-2.946172,6.265531,7.126918,-0.743781,0.010540,0.095714,0.108873,0.184861,0.325666,0.909956,0.286336,0.200033,0.223559,38.924457,13.651537,32.450373
48824,NaN,-3.076685,6.183665,6.992637,-0.890182,-0.078733,-0.024836,0.060054,0.067870,0.219992,0.909555,0.286799,0.200105,0.224530,38.993602,13.604796,32.569985
48825,NaN,-3.016012,6.398965,7.031322,-0.889079,0.077410,0.121400,0.085961,-0.092432,0.161228,0.909344,0.287509,0.199556,0.224964,39.057835,13.507400,32.601350
48826,NaN,-2.942081,6.406674,7.079071,-0.819206,0.086267,0.144019,0.023027,-0.191746,0.080535,0.909411,0.287955,0.198605,0.224965,39.068105,13.395304,32.560613
48827,NaN,-2.870774,6.045951,7.021144,-0.697794,-0.126426,-0.138578,0.045947,-0.243789,0.003782,0.909584,0.288497,0.197548,0.224503,39.079648,13.287450,32.463471
48828,NaN,-2.811655,6.186483,7.575416,-0.435435,-0.246455,0.351687,0.091766,-0.325200,-0.049285,0.909826,0.289275,0.196255,0.223652,39.104557,13.162931,32.313882
48829,NaN,-2.726954,6.351358,7.680860,-0.380702,-0.138388,0.512404,0.031490,-0.345801,-0.116012,0.910247,0.289743,0.194895,0.222522,39.087279,13.053273,32.125796
48830,NaN,-2.654182,6.276608,7.684142,-0.314386,-0.158733,0.451935,-0.021438,-0.316380,-0.203801,0.910810,0.289844,0.193738,0.221090,39.032730,12.988383,31.909114
48831,NaN,-2.639617,6.299873,7.684160,-0.321266,-0.127429,0.462663,-0.032214,-0.292436,-0.319103,0.911489,0.289761,0.192844,0.219175,38.962970,12.975474,31.648524
48832,NaN,-2.502336,6.438383,7.577745,-0.300244,0.110170,0.435939,-0.078186,-0.194161,-0.490024,0.912322,0.289190,0.192594,0.216669,38.856604,13.067525,31.346184
48833,NaN,-2.546608,6.127533,7.602623,-0.225483,-0.117527,0.275271,-0.159541,-0.066604,-0.687699,0.913352,0.287920,0.193126,0.213525,38.693465,13.286887,31.000392
48834,NaN,-2.312580,6.087297,7.580383,-0.005496,0.022890,0.180543,-0.061915,-0.027482,-0.780850,0.914293,0.286956,0.194068,0.209912,38.577314,13.556163,30.624590
48835,NaN,-2.169245,5.970075,7.515792,0.150828,0.074315,0.026318,-0.003798,0.048539,-0.807495,0.915086,0.286152,0.195457,0.206230,38.496819,13.868535,30.264263
48836,NaN,-2.036692,6.157439,7.695221,0.336184,0.232467,0.242727,0.069076,-0.003491,-0.722032,0.915728,0.285809,0.196555,0.202786,38.460352,14.126602,29.922783
48837,NaN,-1.788859,6.368420,7.638498,0.493540,0.561302,0.264252,-0.005879,-0.063114,-0.569592,0.916367,0.285334,0.197089,0.200033,38.392160,14.303540,29.630525
48838,NaN,-1.033773,6.039243,7.509281,1.169988,0.756341,-0.221575,-0.154703,-0.009006,-0.408713,0.917001,0.284276,0.197485,0.198233,38.260570,14.446920,29.431129
48839,NaN,0.054439,5.492801,7.465188,2.212125,0.903059,-0.857589,-0.201997,0.118626,-0.086566,0.917250,0.283194,0.197968,0.198147,38.151297,14.533421,29.429348
48840,NaN,-0.812907,4.788253,7.126298,1.500615,0.120492,-1.321166,-0.140136,0.300297,0.259883,0.916890,0.282556,0.198848,0.199836,38.133937,14.578961,29.653671
48841,NaN,-1.509107,5.430623,7.620840,0.990111,0.055526,-0.385978,0.052575,0.288182,0.567261,0.915953,0.283122,0.199432,0.202727,38.262507,14.509890,30.017255
48842,NaN,-2.383738,5.863201,7.694876,0.173045,-0.097788,0.148780,0.005338,0.246746,0.815437,0.914864,0.283752,0.199421,0.206737,38.387315,14.333277,30.479785
48843,NaN,-2.921610,6.271939,7.677347,-0.412582,-0.082207,0.513857,-0.030304,0.189575,0.861866,0.913815,0.284326,0.199043,0.210910,38.490868,14.113406,30.942136
48844,NaN,-3.112288,6.320839,7.360918,-0.760727,-0.036030,0.348137,-0.110369,0.203952,0.747034,0.912973,0.284393,0.198805,0.214655,38.534476,13.940546,31.355914
48845,NaN,-3.164393,6.164069,7.289677,-0.809806,-0.170333,0.210470,-0.096350,0.241222,0.527720,0.912300,0.284273,0.199058,0.217425,38.564962,13.862028,31.680577
48846,NaN,-2.808302,6.212384,7.189311,-0.582863,0.077735,0.077747,-0.049798,0.214543,0.352176,0.911772,0.284208,0.199492,0.219319,38.599229,13.834515,31.915570
48847,NaN,-2.635161,6.079073,7.163036,-0.414541,0.071826,-0.064288,-0.040993,0.179256,0.231322,0.911396,0.284109,0.199943,0.220595,38.622810,13.833985,32.080888
48848,NaN,-2.610867,6.260560,7.285500,-0.385976,0.161045,0.132906,-0.003013,0.089513,0.159055,0.911135,0.284201,0.200133,0.221383,38.651505,13.819385,32.180757
48849,NaN,-2.558430,6.288461,7.353834,-0.319205,0.176007,0.189128,-0.042852,0.017773,0.080822,0.911089,0.284121,0.200058,0.221741,38.643102,13.800282,32.216601
48850,NaN,-2.773387,6.116006,7.352178,-0.450809,-0.061863,0.134406,-0.043102,-0.039461,0.011281,0.911177,0.284025,0.199825,0.221712,38.621205,13.780824,32.200849
48851,NaN,-3.046661,6.140292,7.480060,-0.622462,-0.237996,0.311172,-0.009313,-0.053561,-0.078171,0.911331,0.284018,0.199688,0.221210,38.608318,13.786683,32.137137
48852,NaN,-3.102127,6.240908,7.419244,-0.727040,-0.161001,0.339298,-0.006746,-0.088659,-0.161399,0.911607,0.283970,0.199517,0.220289,38.583946,13.806905,32.023666
48853,NaN,-3.180677,6.170378,7.335773,-0.812537,-0.208738,0.252104,-0.021172,-0.151163,-0.253118,0.912066,0.283841,0.199170,0.218864,38.536321,13.831554,31.843520
48854,NaN,-3.177667,6.133579,7.321529,-0.808617,-0.215684,0.218402,-0.009001,-0.233285,-0.345355,0.912686,0.283756,0.198597,0.216900,38.477522,13.852382,31.591913
48855,NaN,-2.960191,6.174012,7.369955,-0.621306,-0.081366,0.227468,-0.016555,-0.319683,-0.418559,0.913476,0.283662,0.197724,0.214480,38.399326,13.860128,31.274190
48856,NaN,-2.668453,6.121486,7.612728,-0.253814,-0.059793,0.310495,-0.079930,-0.328898,-0.495348,0.914441,0.283204,0.196848,0.211763,38.274676,13.890568,30.918048
48857,NaN,-2.427396,5.853801,7.401292,-0.083186,-0.022423,-0.069441,-0.114626,-0.242129,-0.575308,0.915445,0.282421,0.196443,0.208828,38.129151,13.987505,30.555668
48858,NaN,-2.227058,5.701582,7.621120,0.237911,-0.105658,-0.041226,-0.053015,-0.134167,-0.595164,0.916267,0.281778,0.196623,0.205899,38.024642,14.139475,30.223621
48859,NaN,-1.929948,5.873917,7.599043,0.445070,0.199888,-0.028262,0.041724,-0.128041,-0.513905,0.916855,0.281644,0.196818,0.203263,37.984071,14.265330,29.932300
48860,NaN,-1.444482,5.954404,7.595791,0.844369,0.506210,-0.103502,0.070394,-0.106326,-0.337017,0.917200,0.281788,0.196887,0.201432,37.981004,14.338316,29.730086
48861,NaN,-0.540173,5.648961,7.519336,1.654503,0.742809,-0.568563,0.018763,-0.071605,-0.084998,0.917323,0.281910,0.196715,0.200869,37.981231,14.338383,29.659823
48862,NaN,-0.704873,5.152284,7.584903,1.671789,0.254783,-0.773117,-0.030129,0.021415,0.191130,0.917151,0.281984,0.196523,0.201738,37.992869,14.282821,29.750233
48863,NaN,-1.425377,5.633455,7.601897,0.940328,0.254446,-0.293898,0.063943,0.072955,0.435596,0.916542,0.282680,0.196322,0.203716,38.091564,14.164161,29.974255
48864,NaN,-1.534931,6.015509,7.851229,0.851617,0.361384,0.153668,-0.024353,0.132798,0.622343,0.915806,0.283089,0.196035,0.206712,38.164761,14.006039,30.305432
48865,NaN,-2.282102,5.792640,7.635521,0.164690,-0.099212,0.037532,-0.063547,0.211460,0.710804,0.914944,0.283324,0.195943,0.210266,38.232014,13.851546,30.706701
48866,NaN,-2.937568,6.293084,7.724340,-0.493064,-0.115695,0.562332,0.016916,0.185590,0.713354,0.913981,0.283949,0.195808,0.213708,38.341482,13.683969,31.098409
48867,NaN,-2.981777,6.302523,7.454222,-0.673196,-0.038578,0.371787,-0.087784,0.257090,0.524540,0.913288,0.283837,0.196154,0.216486,38.376342,13.614980,31.428326
48868,NaN,-2.877597,6.146212,7.210050,-0.663922,-0.008411,0.066606,-0.064825,0.233042,0.365136,0.912753,0.283692,0.196640,0.218481,38.403990,13.591927,31.675927
48869,NaN,-2.716297,6.170585,7.208733,-0.538001,0.084812,0.042442,-0.029523,0.171604,0.246797,0.912353,0.283665,0.197051,0.219810,38.434472,13.583134,31.846169
48870,NaN,-2.794710,6.197645,7.151391,-0.637475,0.082370,0.033654,0.023406,0.055978,0.125460,0.912126,0.283879,0.197165,0.220373,38.471338,13.565769,31.918181
48871,NaN,-2.593095,6.184597,6.986014,-0.546554,0.239059,-0.147187,0.080913,-0.029933,0.035305,0.912001,0.284369,0.197077,0.220338,38.524714,13.541760,31.916333
48872,NaN,-2.754186,6.067414,7.246156,-0.518844,-0.053608,0.017560,0.123170,-0.107332,-0.018746,0.911952,0.285076,0.196761,0.219912,38.589102,13.502595,31.861858
48873,NaN,-2.792010,6.288165,7.692127,-0.398695,-0.114516,0.499106,0.118083,-0.144531,-0.060272,0.911993,0.285769,0.196322,0.219233,38.643683,13.461316,31.772558
48874,NaN,-2.766836,6.304756,7.821043,-0.322936,-0.150597,0.601105,0.015008,-0.137483,-0.123047,0.912240,0.285913,0.195899,0.218394,38.632405,13.446047,31.658955
48875,NaN,-2.592720,6.183745,7.690280,-0.209452,-0.089743,0.387772,-0.033828,-0.102389,-0.180211,0.912585,0.285747,0.195660,0.217383,38.590683,13.466674,31.530804
48876,NaN,-2.663611,6.061932,7.505234,-0.321463,-0.124360,0.189891,-0.044464,-0.080055,-0.247373,0.912994,0.285434,0.195611,0.216116,38.536810,13.521395,31.381016
48877,NaN,-2.752552,6.049438,7.374676,-0.450201,-0.107615,0.104157,-0.023501,-0.098896,-0.310142,0.913455,0.285182,0.195587,0.214513,38.487044,13.589873,31.195128
48878,NaN,-2.717096,6.019508,7.474520,-0.358080,-0.140931,0.154129,-0.000055,-0.117048,-0.361377,0.913955,0.284999,0.195579,0.212629,38.442631,13.668378,30.978966
48879,NaN,-2.356005,5.650073,7.290981,-0.032836,-0.137574,-0.293631,-0.042615,-0.073122,-0.463936,0.914574,0.284476,0.195874,0.210385,38.366587,13.803001,30.732189
48880,NaN,-2.338835,5.711415,7.359329,0.013251,-0.100305,-0.208528,0.166372,-0.092928,-0.425050,0.914871,0.284963,0.196239,0.208079,38.411674,13.914716,30.495095
48881,NaN,-1.973655,6.482339,7.609975,0.249880,0.545929,0.359197,0.215653,-0.129742,-0.320228,0.915018,0.285818,0.196341,0.206158,38.493697,13.972958,30.294042
48882,NaN,-1.705036,6.321789,7.680210,0.563772,0.524867,0.250337,0.010646,-0.063974,-0.219756,0.915290,0.285762,0.196383,0.204984,38.474537,14.024842,30.162528
48883,NaN,-1.438657,5.968455,7.813912,0.946060,0.337227,0.073700,-0.097145,-0.029862,-0.063278,0.915518,0.285335,0.196252,0.204686,38.414832,14.036277,30.116809
48884,NaN,-1.049796,5.662147,7.455667,1.176772,0.465439,-0.477404,-0.190545,0.072598,0.104663,0.915609,0.284536,0.196250,0.205389,38.328859,14.033873,30.185452
48885,NaN,-1.175680,5.200424,7.326742,1.124520,0.121297,-0.822219,-0.127181,0.145008,0.292645,0.915340,0.284140,0.196383,0.207004,38.307335,13.997389,30.369248
48886,NaN,-1.937864,5.585637,7.592336,0.504446,-0.085135,-0.203500,0.018031,0.167366,0.437002,0.914694,0.284523,0.196556,0.209157,38.386266,13.919461,30.626463
48887,NaN,-2.417383,6.173058,7.689599,-0.014048,0.056476,0.339991,0.034918,0.180854,0.508832,0.913926,0.285040,0.196711,0.211652,38.484182,13.821670,30.923218
48888,NaN,-2.811939,6.174383,7.390146,-0.493647,-0.029614,0.207276,-0.014506,0.178867,0.468109,0.913271,0.285289,0.196856,0.213993,38.548012,13.737061,31.198580
48889,NaN,-2.748582,6.448952,7.443553,-0.500882,0.164281,0.398691,-0.014085,0.112161,0.433275,0.912712,0.285581,0.196748,0.216082,38.602646,13.634684,31.433765
48890,NaN,-2.582373,6.160695,7.184928,-0.416499,0.136227,-0.011974,-0.119812,0.129203,0.289319,0.912441,0.285224,0.196805,0.217638,38.581602,13.591378,31.608172
48891,NaN,-2.593692,6.110590,7.187096,-0.418534,0.087958,-0.038334,-0.051427,0.056268,0.225401,0.912212,0.285203,0.196693,0.218724,38.587094,13.538057,31.725515
48892,NaN,-2.546349,6.424690,7.348963,-0.399366,0.269061,0.263815,-0.042963,-0.000890,0.159916,0.912099,0.285210,0.196425,0.219427,38.584667,13.482747,31.792436
48893,NaN,-2.474686,6.300298,7.495851,-0.243633,0.148565,0.283063,-0.111250,-0.036353,0.095699,0.912189,0.284891,0.196006,0.219839,38.533695,13.434205,31.814800
48894,NaN,-2.414207,6.058862,7.501387,-0.131830,0.003007,0.126710,-0.122701,-0.029615,0.043049,0.912345,0.284452,0.195686,0.220047,38.470544,13.407795,31.817373
48895,NaN,-2.514204,5.974202,7.540746,-0.176738,-0.120869,0.128606,-0.090844,0.015596,-0.013569,0.912476,0.284061,0.195681,0.220013,38.424010,13.421535,31.808366
48896,NaN,-2.553776,6.109160,7.693671,-0.176359,-0.098716,0.335974,-0.076080,-0.003461,-0.061454,0.912654,0.283703,0.195680,0.219736,38.378599,13.444066,31.772313
48897,NaN,-2.507952,6.221173,7.652070,-0.191813,0.037661,0.361238,-0.123152,0.004551,-0.099333,0.912933,0.283091,0.195715,0.219337,38.303431,13.483469,31.720927
48898,NaN,-2.677381,6.004522,7.520739,-0.332312,-0.135786,0.170061,-0.154284,0.025206,-0.149833,0.913290,0.282258,0.195884,0.218773,38.206030,13.550161,31.654366
48899,NaN,-2.892159,5.864248,7.364139,-0.542243,-0.263578,0.016911,-0.098777,0.004051,-0.197641,0.913641,0.281662,0.196081,0.217896,38.133877,13.623969,31.556544
48900,NaN,-2.737203,5.786171,7.394250,-0.370328,-0.241464,-0.042757,0.002999,-0.024306,-0.252536,0.913935,0.281500,0.196339,0.216639,38.110867,13.704521,31.424118
48901,NaN,-2.687656,5.689547,7.304359,-0.333951,-0.242841,-0.180575,0.110410,-0.067319,-0.290518,0.914156,0.281843,0.196572,0.215042,38.142048,13.779114,31.258663
48902,NaN,-2.396508,5.794325,7.443939,-0.041232,-0.079469,-0.080183,0.208651,-0.117990,-0.294823,0.914292,0.282679,0.196683,0.213256,38.223718,13.832588,31.072465
48903,NaN,-1.978812,5.975563,7.594014,0.343088,0.190309,0.043181,0.260388,-0.129103,-0.269706,0.914336,0.283793,0.196760,0.211509,38.337322,13.872332,30.892890
48904,NaN,-1.871386,6.222087,7.782904,0.473486,0.334187,0.309275,0.222921,-0.045819,-0.237236,0.914314,0.284672,0.197133,0.210073,38.439643,13.938376,30.759908
48905,NaN,-1.198467,6.470278,7.719451,0.952913,0.875299,0.247956,0.088304,0.010850,-0.119924,0.914298,0.284995,0.197461,0.209396,38.483574,13.988279,30.703300
48906,NaN,-0.637344,5.932419,7.624011,1.529472,0.797398,-0.286398,-0.120030,0.206652,0.071127,0.914188,0.284346,0.198189,0.210067,38.446163,14.057858,30.805673
48907,NaN,-1.757882,5.478151,7.588649,0.707692,-0.073085,-0.316283,-0.135811,0.305053,0.258319,0.913799,0.283708,0.199091,0.211763,38.430387,14.105040,31.032718
48908,NaN,-2.099010,5.607531,7.534192,0.366060,-0.118504,-0.196750,-0.108777,0.301021,0.384376,0.913243,0.283319,0.199815,0.213987,38.443339,14.105447,31.314704
48909,NaN,-3.063112,5.988864,7.547446,-0.532154,-0.338278,0.277675,0.048438,0.205535,0.505769,0.912425,0.283879,0.200095,0.216461,38.552028,14.019140,31.616270
48910,NaN,-2.766419,6.209327,7.275246,-0.483384,0.076707,0.132084,-0.065835,0.244306,0.383891,0.911856,0.283743,0.200604,0.218557,38.583974,13.993687,31.877030
48911,NaN,-2.873177,6.049709,7.240994,-0.543326,-0.091349,0.035285,-0.032403,0.187361,0.312532,0.911372,0.283758,0.200984,0.220198,38.622521,13.967773,32.081933
48912,NaN,-2.542815,6.464676,7.210982,-0.407435,0.392340,0.184126,-0.051425,0.128130,0.234599,0.911057,0.283663,0.201189,0.221434,38.635547,13.943450,32.230935
48913,NaN,-2.546564,6.255430,7.186037,-0.368499,0.244723,0.039157,-0.133380,0.067662,0.179457,0.910983,0.283217,0.201097,0.222392,38.590694,13.911391,32.329339
48914,NaN,-2.634305,6.072092,6.989430,-0.494671,0.147812,-0.200433,-0.091525,-0.036616,0.145097,0.910987,0.283032,0.200634,0.223027,38.556095,13.845385,32.376393
48915,NaN,-2.476338,6.294880,7.409427,-0.238695,0.212887,0.215027,-0.063976,-0.143279,0.095488,0.911118,0.283053,0.199777,0.223234,38.523114,13.748895,32.358542
48916,NaN,-2.836320,6.084084,7.267710,-0.560141,-0.071055,0.064638,-0.098109,-0.207062,0.007164,0.911455,0.282890,0.198725,0.223005,38.454717,13.655702,32.279430
48917,NaN,-2.727130,6.080513,7.444233,-0.401620,-0.090342,0.170148,-0.070285,-0.231231,-0.069855,0.911864,0.282813,0.197697,0.222346,38.392596,13.578699,32.153985
48918,NaN,-2.478609,6.017155,7.598780,-0.117608,-0.070669,0.190926,-0.064854,-0.191311,-0.128718,0.912287,0.282648,0.196946,0.221486,38.330133,13.540729,32.018098
48919,NaN,-2.462404,5.860514,7.678828,-0.028782,-0.206489,0.153756,-0.050038,-0.163018,-0.172717,0.912713,0.282486,0.196392,0.220426,38.274431,13.530603,31.869182
48920,NaN,-2.599057,5.966220,7.779358,-0.131353,-0.233554,0.326221,-0.051896,-0.183212,-0.190574,0.913174,0.282309,0.195779,0.219282,38.213493,13.517945,31.707721
48921,NaN,-2.764144,6.121740,7.645057,-0.383925,-0.133928,0.355780,-0.065224,-0.160570,-0.242862,0.913691,0.282005,0.195321,0.217925,38.141819,13.533514,31.527927
48922,NaN,-2.725813,6.001548,7.494056,-0.390539,-0.124820,0.159343,-0.038436,-0.111888,-0.309884,0.914191,0.281694,0.195215,0.216322,38.081593,13.594838,31.337086
48923,NaN,-2.461033,5.631038,7.552175,-0.029037,-0.278776,-0.080163,0.031037,-0.067517,-0.386949,0.914628,0.281583,0.195495,0.214356,38.056980,13.703166,31.126020
48924,NaN,-2.411469,5.431285,7.283904,-0.041729,-0.279135,-0.416433,0.176811,-0.023431,-0.424927,0.914854,0.282046,0.196185,0.212140,38.114301,13.844956,30.913753
48925,NaN,-1.824375,6.091806,7.523203,0.401506,0.398357,0.021796,0.344698,-0.133188,-0.301482,0.914808,0.283513,0.196386,0.210186,38.272282,13.894249,30.721343
48926,NaN,-1.165904,6.385482,7.706551,0.978004,0.847332,0.179816,0.238133,-0.071745,-0.173112,0.914721,0.284553,0.196564,0.208992,38.388148,13.925723,30.608489
48927,NaN,-0.849614,6.014580,7.631029,1.319004,0.747583,-0.177805,0.073311,0.056758,0.001466,0.914551,0.284877,0.196918,0.208960,38.441124,13.953119,30.626314
48928,NaN,-1.563483,6.019208,7.992299,0.902006,0.237144,0.271078,-0.016673,0.187627,0.165039,0.914216,0.284813,0.197534,0.209932,38.471620,13.980713,30.765084
48929,NaN,-1.417537,6.125412,7.719190,0.867098,0.513710,0.091868,-0.152775,0.298674,0.290488,0.913825,0.284135,0.198341,0.211781,38.448822,14.013465,31.004395
48930,NaN,-1.712124,5.696731,7.552171,0.660856,0.126260,-0.222760,-0.159750,0.406766,0.447607,0.913170,0.283462,0.199405,0.214495,38.448666,14.038737,31.354360
48931,NaN,-2.292221,5.821074,7.647659,0.194722,-0.116062,0.065291,-0.076528,0.372320,0.531130,0.912328,0.283292,0.200283,0.217463,38.503319,14.018527,31.731303
48932,NaN,-2.633053,6.010851,7.277553,-0.315839,0.002030,-0.018490,-0.061998,0.417255,0.473734,0.911478,0.283074,0.201457,0.220210,38.563057,14.038674,32.097239
48933,NaN,-2.803611,6.150188,7.193007,-0.528656,0.044018,0.043426,-0.014053,0.359725,0.387924,0.910707,0.283059,0.202536,0.222418,38.636359,14.062913,32.400479
48934,NaN,-2.889630,6.192742,7.170398,-0.613447,0.032652,0.073527,-0.036975,0.292932,0.276230,0.910153,0.282889,0.203449,0.224061,38.677460,14.097355,32.629562
48935,NaN,-2.887146,6.351956,7.062400,-0.704750,0.193014,0.088147,-0.031974,0.209038,0.201814,0.909768,0.282777,0.204071,0.225199,38.706375,14.119982,32.787982
48936,NaN,-2.943669,6.242453,7.148669,-0.673767,0.045726,0.100981,-0.096769,0.104539,0.122814,0.909659,0.282390,0.204276,0.225937,38.679158,14.124986,32.876803
48937,NaN,-3.292770,6.135907,6.910450,-1.050253,-0.115130,-0.059241,-0.040437,-0.069722,0.030761,0.909759,0.282376,0.203868,0.225923,38.658956,14.084384,32.854912
48938,NaN,-3.355348,6.206040,7.054410,-1.062769,-0.156596,0.106182,-0.051291,-0.239388,-0.054267,0.910136,0.282403,0.202809,0.225323,38.607074,13.998891,32.735182
48939,NaN,-3.254114,5.975637,7.062705,-0.928839,-0.277467,-0.053614,-0.013515,-0.395586,-0.124502,0.910703,0.282722,0.201162,0.224101,38.556136,13.867669,32.520115
48940,NaN,-2.923906,6.057366,7.405612,-0.537828,-0.194346,0.175151,0.044531,-0.464425,-0.181349,0.911308,0.283307,0.199364,0.222507,38.526003,13.726507,32.259285
48941,NaN,-2.799804,5.969450,7.607247,-0.334028,-0.285252,0.244671,0.020580,-0.425446,-0.243544,0.911977,0.283689,0.197791,0.220676,38.479860,13.624359,31.980328
48942,NaN,-2.849705,6.033860,7.815285,-0.314171,-0.353064,0.452962,0.020651,-0.463851,-0.297276,0.912730,0.284045,0.196131,0.218575,38.424630,13.524366,31.666669
48943,NaN,-2.705238,6.243100,7.800115,-0.280639,-0.112834,0.533562,-0.005306,-0.423950,-0.396884,0.913583,0.284146,0.194762,0.216090,38.348273,13.477264,31.320791
48944,NaN,-2.366624,5.823727,7.442449,-0.058092,-0.079713,-0.071180,-0.111264,-0.245837,-0.578315,0.914600,0.283385,0.194350,0.213140,38.206015,13.574148,30.957085
48945,NaN,-2.485337,5.713616,7.749111,0.029841,-0.333628,0.125059,0.114957,-0.167592,-0.610628,0.915243,0.283545,0.194583,0.209931,38.196410,13.717291,30.606737
48946,NaN,-2.124659,6.089617,7.695345,0.226033,0.160419,0.224198,0.209495,-0.141728,-0.604224,0.915712,0.284108,0.195020,0.206693,38.242356,13.869867,30.268508
48947,NaN,-1.753440,6.036598,7.585933,0.527298,0.353411,0.018816,0.212796,-0.118560,-0.535270,0.916065,0.284726,0.195480,0.203823,38.299767,14.009200,29.973985
48948,NaN,-0.786265,6.115747,7.390251,1.251586,0.965967,-0.318648,0.189445,-0.085970,-0.371081,0.916254,0.285364,0.195817,0.201749,38.363895,14.104631,29.764125
48949,NaN,-0.244822,6.034546,7.932052,2.000517,0.922274,-0.089495,0.022153,0.025287,-0.084873,0.916275,0.285401,0.196097,0.201325,38.374828,14.148737,29.730104
48950,NaN,-0.963606,5.720445,7.670573,1.357230,0.459834,-0.302893,-0.098630,0.198122,0.161374,0.916057,0.284954,0.196685,0.202377,38.359380,14.182557,29.871101
48951,NaN,-1.542928,5.871805,7.809117,0.898547,0.240531,0.034941,-0.140191,0.316091,0.363280,0.915568,0.284395,0.197490,0.204577,38.354440,14.197774,30.151087
48952,NaN,-1.861978,5.632621,7.513001,0.550379,0.038622,-0.255797,-0.168488,0.354614,0.538645,0.914900,0.283837,0.198184,0.207646,38.355906,14.167799,30.524314
48953,NaN,-2.552773,5.885910,7.524050,-0.092317,-0.125328,0.074054,-0.033327,0.339816,0.637097,0.913939,0.284011,0.198813,0.211015,38.445062,14.095807,30.938580
48954,NaN,-2.591714,5.976229,7.434250,-0.192782,-0.053479,0.069637,-0.081991,0.396696,0.564406,0.913059,0.283823,0.199747,0.214171,38.502081,14.074779,31.338962
48955,NaN,-2.676692,5.888695,7.127727,-0.384414,-0.042749,-0.195189,-0.013003,0.351196,0.499291,0.912187,0.283937,0.200635,0.216889,38.587803,14.055872,31.691891
48956,NaN,-2.853961,6.268352,7.223528,-0.585086,0.091491,0.150543,0.040647,0.291701,0.403587,0.911395,0.284256,0.201447,0.219036,38.687407,14.044275,31.979234
48957,NaN,-3.006196,6.254384,7.110745,-0.757495,0.034813,0.093987,0.026526,0.173476,0.302188,0.910850,0.284544,0.201844,0.220557,38.757619,14.015451,32.175131
48958,NaN,-3.077156,6.146888,6.943706,-0.866898,-0.023038,-0.080467,0.030592,0.061543,0.188368,0.910536,0.284851,0.201901,0.221405,38.806628,13.977591,32.278183
48959,NaN,-3.087482,6.300744,7.118053,-0.837202,-0.002345,0.147115,0.064820,-0.066946,0.123295,0.910376,0.285399,0.201498,0.221724,38.857142,13.905289,32.301818
48960,NaN,-3.048398,6.292159,7.227770,-0.758413,-0.046109,0.214642,-0.000365,-0.168352,0.045751,0.910495,0.285675,0.200677,0.221626,38.852059,13.815989,32.254106
48961,NaN,-2.795236,5.958885,7.106940,-0.526391,-0.115313,-0.141088,0.023291,-0.209966,-0.036411,0.910714,0.286032,0.199803,0.221052,38.848575,13.737271,32.151084
48962,NaN,-2.707808,5.874678,7.461935,-0.267026,-0.294237,0.054766,0.098919,-0.255945,-0.082466,0.910918,0.286728,0.198876,0.220145,38.878901,13.654997,32.012103
48963,NaN,-2.694147,6.256795,7.559251,-0.327914,-0.058562,0.357721,0.115774,-0.300254,-0.134651,0.911199,0.287507,0.197833,0.218903,38.910226,13.571482,31.830753
48964,NaN,-2.758566,6.218521,7.613962,-0.352950,-0.150660,0.390490,0.061432,-0.284932,-0.206240,0.911616,0.287939,0.196910,0.217426,38.903624,13.520925,31.624302
48965,NaN,-2.669710,6.367414,7.710122,-0.281185,-0.035677,0.533179,0.025704,-0.256464,-0.306791,0.912163,0.288085,0.196217,0.215556,38.868853,13.518993,31.380999
48966,NaN,-2.398115,6.186409,7.542775,-0.084432,0.054808,0.232505,-0.049451,-0.149866,-0.426048,0.912837,0.287648,0.196105,0.213378,38.786709,13.607409,31.123591
48967,NaN,-2.347330,6.060112,7.540417,0.001200,0.010898,0.141839,-0.063013,-0.103908,-0.518333,0.913575,0.287010,0.196323,0.210862,38.690748,13.749186,30.841128
48968,NaN,-2.279073,5.925101,7.582847,0.132383,-0.050085,0.075713,0.010462,-0.042591,-0.538266,0.914165,0.286619,0.196921,0.208264,38.638696,13.925051,30.571005
48969,NaN,-2.084548,5.820169,7.413360,0.264681,0.060872,-0.163657,0.074632,-0.025669,-0.503297,0.914599,0.286538,0.197619,0.205795,38.628651,14.096006,30.324249
48970,NaN,-1.913081,6.118032,7.446896,0.369504,0.362477,-0.000527,0.154268,-0.046095,-0.389711,0.914821,0.286951,0.198135,0.203727,38.673881,14.217080,30.120969
48971,NaN,-1.437246,6.352224,7.527773,0.765503,0.736009,0.084589,0.085085,-0.033004,-0.240146,0.914969,0.287184,0.198431,0.202439,38.698044,14.290715,29.992866
48972,NaN,-1.024138,6.336370,7.860361,1.283681,0.781855,0.223476,-0.091136,0.039574,-0.043000,0.915103,0.286729,0.198592,0.202323,38.649502,14.326054,29.981208
48973,NaN,-1.147280,5.870253,7.599118,1.173496,0.502176,-0.226583,-0.240327,0.204420,0.153429,0.915081,0.285620,0.199082,0.203506,38.553610,14.365206,30.123340
48974,NaN,-1.761605,5.579829,7.394585,0.632171,0.090273,-0.404721,-0.213350,0.290311,0.346436,0.914740,0.284738,0.199708,0.205650,38.502654,14.373916,30.384156
48975,NaN,-2.130607,5.636814,7.582391,0.392795,-0.130405,-0.136195,-0.100163,0.251000,0.594672,0.914011,0.284662,0.199920,0.208768,38.541754,14.276484,30.746501
48976,NaN,-2.566234,5.734870,7.400088,-0.095461,-0.210151,-0.107933,-0.040380,0.221089,0.655500,0.913156,0.284946,0.199965,0.212051,38.617947,14.143532,31.124427
48977,NaN,-2.649313,5.966667,7.430770,-0.222582,-0.115601,0.075353,-0.008459,0.237377,0.616006,0.912269,0.285321,0.200173,0.215145,38.709366,14.031369,31.490223
48978,NaN,-2.743840,6.170340,7.408775,-0.375089,-0.026439,0.204810,0.012874,0.216492,0.540459,0.911448,0.285732,0.200414,0.217839,38.801222,13.936504,31.812683
48979,NaN,-2.736619,6.022774,7.346162,-0.362820,-0.125525,0.065651,0.000953,0.165922,0.400241,0.910843,0.286010,0.200605,0.219820,38.866455,13.868667,32.050308
48980,NaN,-2.778362,5.932484,7.058488,-0.513550,-0.105205,-0.197019,0.058738,0.119712,0.253025,0.910359,0.286444,0.200864,0.221018,38.943571,13.833262,32.204461
48981,NaN,-2.766796,6.376419,7.221025,-0.550736,0.142200,0.193987,0.090127,0.034298,0.184088,0.909993,0.287056,0.200861,0.221735,39.024078,13.784096,32.293522
48982,NaN,-2.783528,6.418622,7.250731,-0.565925,0.138874,0.246153,0.007692,-0.044027,0.127423,0.909884,0.287313,0.200498,0.222177,39.043512,13.720803,32.329151
48983,NaN,-2.818907,6.273098,7.278919,-0.547998,-0.005044,0.186328,-0.038462,-0.081740,0.069305,0.909950,0.287356,0.199982,0.222319,39.027397,13.661115,32.320515
48984,NaN,-2.934233,6.272730,7.380471,-0.602515,-0.109177,0.289454,-0.070046,-0.093479,-0.009139,0.910153,0.287177,0.199504,0.222146,38.983141,13.625067,32.275241
48985,NaN,-2.916421,6.152566,7.391277,-0.554389,-0.187124,0.219669,-0.068956,-0.069620,-0.100740,0.910436,0.286894,0.199259,0.221572,38.932217,13.632263,32.194558
48986,NaN,-2.848719,6.099280,7.501821,-0.431525,-0.229284,0.254832,-0.053624,-0.090273,-0.186444,0.910808,0.286609,0.199067,0.220580,38.878469,13.661369,32.069184
48987,NaN,-2.993346,6.183838,7.458911,-0.595417,-0.209425,0.308425,-0.038476,-0.123215,-0.297872,0.911315,0.286327,0.198895,0.219003,38.818861,13.715417,31.878439
48988,NaN,-2.936013,6.287332,7.346871,-0.628026,-0.037095,0.273511,-0.020405,-0.145821,-0.407163,0.911932,0.286033,0.198802,0.216892,38.754869,13.798682,31.630931
48989,NaN,-2.601684,6.067104,7.384416,-0.262270,-0.025244,0.088759,-0.024317,-0.136029,-0.507533,0.912650,0.285618,0.198888,0.214329,38.678572,13.921812,31.339245
48990,NaN,-2.540914,5.573389,7.191210,-0.153504,-0.253062,-0.371039,-0.003611,-0.081639,-0.616723,0.913391,0.285119,0.199402,0.211334,38.605323,14.108169,31.018255
48991,NaN,-2.346458,6.095279,7.371929,-0.025257,0.173718,0.034788,0.169754,-0.167894,-0.594199,0.913935,0.285529,0.199676,0.208150,38.626065,14.247797,30.676482
48992,NaN,-2.106932,6.360993,7.494364,0.185377,0.449423,0.228751,0.098146,-0.148106,-0.562461,0.914523,0.285614,0.199914,0.205202,38.609491,14.384863,30.355525
48993,NaN,-1.887846,6.445875,7.801526,0.512785,0.495673,0.457094,0.081190,-0.158536,-0.430805,0.914998,0.285764,0.199904,0.202869,38.597497,14.470356,30.093118
48994,NaN,-1.046477,6.741162,7.965632,1.229965,1.065149,0.547925,-0.079245,-0.111199,-0.283379,0.915507,0.285275,0.199730,0.201426,38.513940,14.523958,29.914517
48995,NaN,-0.385662,6.002392,7.866501,1.926574,0.893819,-0.140636,-0.320531,0.132628,-0.093513,0.915916,0.283625,0.200169,0.201462,38.337225,14.619394,29.916462
48996,NaN,-0.827174,5.200918,7.582388,1.624056,0.230060,-0.727765,-0.317038,0.304704,0.163979,0.915892,0.282075,0.201022,0.202895,38.208082,14.700456,30.098024
48997,NaN,-1.699300,5.677946,7.772733,0.861539,0.100077,-0.076682,-0.121020,0.325763,0.512170,0.915204,0.281752,0.201686,0.205770,38.235248,14.667868,30.451609
48998,NaN,-2.353968,5.693325,7.631803,0.233737,-0.152354,-0.008522,-0.207081,0.286004,0.677290,0.914502,0.281236,0.201836,0.209413,38.227444,14.558636,30.864968
48999,NaN,-2.806268,5.295253,7.015930,-0.348438,-0.425837,-0.602077,-0.111765,0.247941,0.703614,0.913663,0.281226,0.201873,0.213024,38.273835,14.422622,31.276533
49000,NaN,-2.874678,5.768159,7.069978,-0.517202,-0.152212,-0.261285,0.031729,0.248763,0.616154,0.912705,0.281772,0.202186,0.216088,38.390569,14.317674,31.647214
49001,NaN,-3.403044,5.869779,7.300136,-0.871185,-0.467880,0.104424,0.004271,0.197856,0.445322,0.912015,0.282084,0.202472,0.218316,38.467876,14.249680,31.918413
49002,NaN,-3.072111,6.191801,7.226141,-0.726764,-0.046752,0.160425,0.066620,0.134645,0.306242,0.911449,0.282596,0.202737,0.219768,38.558009,14.203008,32.103175
49003,NaN,-2.919338,6.263993,7.167921,-0.651865,0.093673,0.122377,0.036894,0.039260,0.214400,0.911121,0.282995,0.202659,0.220683,38.612895,14.145788,32.208658
49004,NaN,-2.829816,6.250503,7.161836,-0.583062,0.119934,0.087524,0.032413,-0.060947,0.124960,0.910999,0.283381,0.202252,0.221067,38.645038,14.076048,32.237426
49005,NaN,-2.719337,6.218092,7.046623,-0.548211,0.192028,-0.046577,0.037038,-0.139323,0.041383,0.911049,0.283808,0.201593,0.220914,38.664184,14.000283,32.193586
49006,NaN,-2.818371,5.994264,7.119534,-0.537002,-0.066056,-0.103442,0.093097,-0.188273,-0.035356,0.911145,0.284450,0.200899,0.220326,38.701833,13.930979,32.101395
49007,NaN,-2.728917,6.272373,7.589202,-0.319717,-0.027850,0.399199,0.131617,-0.255224,-0.092817,0.911318,0.285295,0.200015,0.219319,38.750183,13.851891,31.955201
49008,NaN,-2.727815,6.320856,7.753060,-0.259466,-0.069026,0.552256,0.031741,-0.214795,-0.171607,0.911674,0.285549,0.199326,0.218132,38.735537,13.819684,31.790485
49009,NaN,-2.757976,6.236007,7.705438,-0.288060,-0.122440,0.471768,-0.019769,-0.166157,-0.237325,0.912125,0.285457,0.198895,0.216758,38.689284,13.832465,31.612632
49010,NaN,-2.722726,6.305767,7.573830,-0.341551,0.019001,0.406010,-0.064275,-0.102401,-0.339630,0.912684,0.284982,0.198853,0.215060,38.610898,13.910417,31.411930
49011,NaN,-2.826545,6.194155,7.500650,-0.422323,-0.058049,0.308322,-0.119752,-0.013217,-0.474193,0.913374,0.284030,0.199348,0.212920,38.493788,14.075889,31.180698
49012,NaN,-2.775435,6.097265,7.650396,-0.264600,-0.133697,0.351968,-0.116800,-0.030095,-0.581502,0.914184,0.282993,0.199922,0.210271,38.363225,14.271677,30.894008
49013,NaN,-2.819558,5.824334,7.344354,-0.353082,-0.186868,-0.032478,-0.112825,0.048665,-0.690127,0.915012,0.281784,0.201012,0.207230,38.228864,14.540827,30.585084
49014,NaN,-2.386957,5.862247,7.414275,0.060077,0.060304,-0.064478,0.035608,0.008512,-0.645148,0.915616,0.281333,0.202006,0.204186,38.179002,14.775459,30.281500
49015,NaN,-1.795578,6.260065,7.729691,0.630316,0.532638,0.261020,0.090185,-0.063285,-0.476047,0.916030,0.281379,0.202494,0.201769,38.173691,14.917891,30.031501
49016,NaN,-0.488542,6.371206,7.715620,1.704811,1.268139,-0.022532,-0.084442,0.013785,-0.224780,0.916360,0.280795,0.202798,0.200777,38.104431,15.005822,29.925230
49017,NaN,-0.945551,5.470251,7.812598,1.600474,0.340730,-0.369345,-0.296330,0.137978,0.035861,0.916591,0.279380,0.203102,0.201388,37.957666,15.057944,29.988706
49018,NaN,-1.856622,5.590430,7.689235,0.741191,0.064956,-0.155012,-0.220474,0.175044,0.280818,0.916436,0.278523,0.203300,0.203076,37.886918,15.040332,30.177483
49019,NaN,-2.264542,6.407162,8.137951,0.386114,0.297060,0.778285,-0.185476,0.055528,0.609708,0.916005,0.278283,0.202535,0.206087,37.865384,14.853318,30.479334
49020,NaN,-2.062371,5.459712,7.186859,0.310432,0.076741,-0.560098,-0.372422,0.175287,0.716070,0.915600,0.277165,0.201966,0.209919,37.758588,14.683278,30.871736
49021,NaN,-2.293456,4.955281,7.284365,0.281261,-0.469097,-0.725470,-0.107540,0.259239,0.754075,0.914684,0.277213,0.202005,0.213773,37.815667,14.537932,31.312638
49022,NaN,-3.222747,5.272896,7.230797,-0.608481,-0.696439,-0.345977,0.015549,0.246572,0.610585,0.913756,0.277681,0.202313,0.216824,37.923282,14.436855,31.680980
49023,NaN,-2.955819,5.826367,7.254972,-0.533058,-0.182608,-0.065869,0.121845,0.175882,0.435498,0.912934,0.278546,0.202648,0.218854,38.065670,14.364338,31.939945
49024,NaN,-3.280523,5.814637,6.925120,-0.958353,-0.247336,-0.244540,0.154602,0.021138,0.293979,0.912374,0.279571,0.202515,0.220001,38.194940,14.272044,32.077954
49025,NaN,-2.937858,6.458783,7.161485,-0.749421,0.280082,0.236869,0.234744,-0.127910,0.193507,0.911963,0.281035,0.201923,0.220386,38.345782,14.147623,32.112628
49026,NaN,-2.611541,6.269129,6.788733,-0.617080,0.436809,-0.239945,0.166681,-0.204847,0.093927,0.911831,0.282160,0.201052,0.220291,38.438571,14.024419,32.074530
49027,NaN,-2.740264,5.956455,7.068558,-0.502866,-0.006779,-0.184607,0.256635,-0.263283,0.016039,0.911717,0.283694,0.200113,0.219647,38.569974,13.902342,31.976188
49028,NaN,-2.737903,6.382938,7.473781,-0.431662,0.108137,0.380316,0.283726,-0.338313,-0.051742,0.911707,0.285352,0.198966,0.218580,38.702048,13.771675,31.821276
49029,NaN,-2.426852,6.263400,7.666193,-0.050870,0.075479,0.379565,0.139683,-0.218607,-0.181361,0.911926,0.286102,0.198382,0.217213,38.748505,13.740767,31.647744
49030,NaN,-2.744010,6.166397,8.012389,-0.113884,-0.315596,0.658217,0.134051,-0.134718,-0.234718,0.912121,0.286672,0.198260,0.215750,38.792850,13.767052,31.483624
49031,NaN,-2.924742,6.596695,7.878606,-0.436292,-0.026395,0.862136,0.087408,-0.046374,-0.349769,0.912418,0.286831,0.198647,0.213916,38.806296,13.873710,31.296897
49032,NaN,-3.172658,6.794757,7.499903,-0.860265,0.182471,0.756587,-0.037544,-0.000736,-0.492295,0.912996,0.286216,0.199320,0.211639,38.735050,14.052262,31.063599
49033,NaN,-2.978893,6.635962,7.276475,-0.740502,0.297287,0.444990,-0.137194,0.036405,-0.614146,0.913798,0.284986,0.200231,0.208957,38.595885,14.290691,30.787473
49034,NaN,-1.819749,6.020528,7.294602,0.419795,0.447674,-0.200579,-0.223668,0.008385,-0.607106,0.914737,0.283392,0.200910,0.206352,38.403552,14.513210,30.503061
49035,NaN,-0.584674,5.526637,7.343265,1.616498,0.691494,-0.772896,-0.112645,-0.038652,-0.317772,0.915258,0.282644,0.201081,0.204894,38.303749,14.611200,30.335686
49036,NaN,-1.375151,5.620808,7.775958,1.144060,0.201513,-0.189769,-0.094468,-0.015073,-0.079786,0.915487,0.282192,0.201039,0.204536,38.243793,14.634933,30.286613
49037,NaN,-1.515639,6.330209,7.899718,0.897308,0.626012,0.364600,-0.143009,0.050525,0.081440,0.915549,0.281618,0.201023,0.205064,38.181892,14.631044,30.337660
49038,NaN,-1.527990,6.047580,7.648047,0.829476,0.531361,0.007199,-0.320984,0.162025,0.207487,0.915622,0.280235,0.201153,0.206498,38.042288,14.632891,30.487088
49039,NaN,-2.337413,5.898163,7.972889,0.337233,-0.109233,0.370294,-0.154276,0.115406,0.409602,0.915293,0.279873,0.200960,0.208625,38.018460,14.542443,30.714227
49040,NaN,-2.228810,5.711158,7.492571,0.233681,0.008348,-0.134420,-0.169243,0.207887,0.370037,0.914932,0.279298,0.201226,0.210712,37.988714,14.507926,30.956103
49041,NaN,-2.542417,5.684084,7.687764,0.074967,-0.248726,0.077051,-0.124456,0.317214,0.312205,0.914453,0.278762,0.202119,0.212638,37.988722,14.542991,31.210526
49042,NaN,-2.732169,5.432280,7.319018,-0.187308,-0.374125,-0.306511,-0.140871,0.294002,0.308191,0.914022,0.278161,0.202894,0.214532,37.976002,14.569257,31.454964
49043,NaN,-3.043289,5.287094,7.029625,-0.538468,-0.516387,-0.535081,-0.079634,0.272985,0.204506,0.913635,0.277766,0.203778,0.215851,37.985258,14.622258,31.642318
49044,NaN,-3.423543,5.875947,7.166421,-0.940060,-0.327576,0.016553,0.061357,0.154482,0.136704,0.913244,0.278064,0.204370,0.216561,38.055688,14.645911,31.755973
49045,NaN,-3.338353,6.313968,7.067232,-1.038482,0.078403,0.180909,0.014881,0.002012,0.090904,0.913127,0.278284,0.204268,0.216870,38.081059,14.616182,31.789235
49046,NaN,-3.269466,6.239360,7.124312,-0.941537,0.030104,0.161651,-0.077110,-0.141146,0.048489,0.913325,0.278179,0.203483,0.216907,38.034537,14.537551,31.753864
49047,NaN,-2.924483,6.167735,7.349568,-0.545873,0.059288,0.202709,-0.124344,-0.237299,-0.006609,0.913754,0.277926,0.202266,0.216565,37.946706,14.434013,31.652584
49048,NaN,-2.722560,6.097487,7.683904,-0.219158,-0.024279,0.365003,-0.169716,-0.241606,-0.061850,0.914299,0.277394,0.201075,0.216051,37.825430,14.348674,31.529483
49049,NaN,-2.436971,6.130752,7.733455,0.009209,0.138429,0.351562,-0.219133,-0.195600,-0.111898,0.914924,0.276550,0.200098,0.215396,37.675221,14.300866,31.396618
49050,NaN,-2.550571,5.953835,7.595863,-0.119715,0.026290,0.169076,-0.257204,-0.133589,-0.142913,0.915565,0.275420,0.199418,0.214748,37.504384,14.292285,31.275006
49051,NaN,-2.577067,5.769695,7.521298,-0.137450,-0.071197,0.009561,-0.209492,-0.084479,-0.201687,0.916153,0.274405,0.199091,0.213842,37.359338,14.325918,31.142617
49052,NaN,-2.483034,5.650789,7.359983,-0.108533,-0.026738,-0.207808,-0.100451,-0.105595,-0.244442,0.916656,0.273860,0.198846,0.212611,37.268873,14.364789,30.983303
49053,NaN,-2.172335,5.837179,7.274708,0.057306,0.316555,-0.241398,0.021004,-0.117189,-0.255695,0.917011,0.273876,0.198694,0.211195,37.246213,14.402172,30.815092
49054,NaN,-1.675887,5.990510,7.584325,0.578979,0.555676,-0.036553,-0.017153,-0.081017,-0.156866,0.917280,0.273773,0.198529,0.210315,37.215725,14.421673,30.705719
49055,NaN,-1.769550,5.417001,7.479222,0.605755,0.120953,-0.430130,-0.079052,-0.106194,-0.036391,0.917529,0.273538,0.198019,0.210013,37.162498,14.387771,30.644080
49056,NaN,-1.603271,5.483628,7.298135,0.630142,0.324038,-0.571404,0.083307,-0.138149,0.104689,0.917441,0.274215,0.197339,0.210155,37.215169,14.290534,30.637530
49057,NaN,-2.323556,6.039921,7.715959,0.064660,0.196016,0.255724,0.138337,-0.140431,0.184186,0.917195,0.275231,0.196595,0.210598,37.309053,14.164496,30.666708
49058,NaN,-2.485023,6.579961,7.670025,-0.252654,0.520301,0.577977,0.146224,-0.128762,0.185755,0.916923,0.276265,0.195913,0.211062,37.407824,14.043369,30.701300
49059,NaN,-2.689830,6.496667,7.754582,-0.371018,0.304297,0.644135,-0.044413,-0.063185,0.119240,0.916919,0.276298,0.195421,0.211495,37.396180,13.975067,30.727807
49060,NaN,-2.484835,6.042037,7.827243,-0.050340,0.032455,0.382544,-0.155197,-0.026205,0.072239,0.917081,0.275730,0.195047,0.211875,37.318172,13.940113,30.745849
49061,NaN,-2.308435,5.537779,7.941817,0.280884,-0.297308,0.132211,-0.255079,0.028471,0.061888,0.917336,0.274642,0.194834,0.212383,37.187227,13.933679,30.779135
49062,NaN,-3.057490,5.171626,7.658059,-0.386790,-0.810676,-0.120784,-0.248914,0.025735,0.095134,0.917550,0.273611,0.194567,0.213031,37.062593,13.914606,30.826601
49063,NaN,-3.282855,5.545463,7.534120,-0.753370,-0.575529,0.056124,-0.183665,-0.038829,0.111283,0.917719,0.272971,0.194050,0.213595,36.972388,13.860362,30.858251
49064,NaN,-3.185079,5.464140,7.335424,-0.759377,-0.497658,-0.169781,-0.177322,-0.117084,0.050156,0.918020,0.272377,0.193265,0.213771,36.871539,13.791515,30.833925
49065,NaN,-2.797179,5.604614,7.429546,-0.452222,-0.234004,-0.108319,-0.072301,-0.251085,0.017511,0.918341,0.272383,0.192020,0.213508,36.816770,13.672299,30.746383
49066,NaN,-2.604145,5.944514,7.611138,-0.327954,0.041503,0.184258,-0.057472,-0.326423,-0.011648,0.918743,0.272502,0.190486,0.212998,36.760488,13.528548,30.619166
49067,NaN,-2.566523,6.320949,7.808323,-0.339666,0.264441,0.547138,-0.126061,-0.331315,-0.086288,0.919318,0.272245,0.188959,0.212206,36.657378,13.407967,30.455697
49068,NaN,-2.399046,6.210648,7.739329,-0.226132,0.305173,0.389294,-0.242496,-0.299982,-0.187374,0.920128,0.271317,0.187587,0.211099,36.478660,13.335893,30.255332
49069,NaN,-2.124066,5.896380,7.635906,0.023661,0.265323,0.062279,-0.247746,-0.292404,-0.251502,0.920998,0.270300,0.186334,0.209713,36.291484,13.288541,30.027924
49070,NaN,-1.433116,5.919947,7.417790,0.478971,0.729355,-0.254352,-0.175660,-0.297085,-0.198781,0.921719,0.269664,0.185059,0.208493,36.150575,13.220489,29.823699
49071,NaN,-1.879989,5.244227,7.907589,0.493819,-0.198393,-0.154377,-0.211868,-0.284697,-0.128346,0.922395,0.268914,0.183714,0.207657,35.998532,13.134052,29.658794
49072,NaN,-1.806761,5.047215,7.876720,0.575828,-0.296519,-0.306797,-0.029426,-0.291445,-0.103754,0.922809,0.269032,0.182488,0.206747,35.952781,13.035780,29.502197
49073,NaN,-1.472743,5.362429,7.916563,0.772084,0.085019,-0.169387,0.010505,-0.228145,-0.076808,0.923077,0.269297,0.181563,0.206017,35.938660,12.957819,29.381363
49074,NaN,-1.457496,5.376657,8.059848,0.835029,0.036319,-0.050757,0.027705,-0.128774,-0.007075,0.923163,0.269598,0.181016,0.205719,35.948946,12.902405,29.327065
49075,NaN,-1.753025,5.519549,7.977002,0.503282,0.032510,0.031942,0.056184,0.006986,0.081540,0.922994,0.269975,0.181007,0.205992,35.996104,12.880146,29.362278
49076,NaN,-2.654570,6.105545,7.734827,-0.534912,0.147849,0.377699,0.011364,0.082472,0.130323,0.922768,0.270107,0.181233,0.206628,36.027892,12.876414,29.446246
49077,NaN,-3.179314,6.531750,7.512777,-1.204693,0.319528,0.563256,-0.175477,0.028407,0.109161,0.922863,0.269418,0.181047,0.207266,35.946821,12.854781,29.501998
49078,NaN,-4.030837,6.472366,7.436188,-1.962633,-0.089475,0.655171,-0.311356,-0.067755,0.118696,0.923219,0.268205,0.180261,0.207939,35.780915,12.785408,29.528702
49079,NaN,-3.977234,6.225297,7.225590,-1.968803,-0.144167,0.330525,-0.356240,-0.207304,-0.004055,0.923884,0.266824,0.178949,0.207896,35.566500,12.692198,29.449295
49080,NaN,-3.219110,6.196182,7.617678,-1.179188,0.063544,0.453256,-0.402133,-0.362318,-0.195405,0.924943,0.265214,0.177127,0.206803,35.293782,12.589833,29.225965
49081,NaN,-3.040764,6.235783,7.540696,-1.111057,0.254959,0.370315,-0.483509,-0.425459,-0.395295,0.926361,0.263118,0.175193,0.204772,34.950079,12.522694,28.886138
49082,NaN,-2.036971,5.407636,7.572792,-0.043577,0.123416,-0.287909,-0.568854,-0.610858,-0.581896,0.928228,0.260643,0.172554,0.201703,34.524566,12.426860,28.394755
49083,NaN,-1.577821,5.352776,7.412200,0.257725,0.405101,-0.547069,-0.384339,-0.654508,-0.658391,0.929943,0.259001,0.169995,0.198057,34.195410,12.332086,27.852786
49084,NaN,-0.254815,4.904521,7.909396,1.698771,0.475556,-0.671260,-0.307739,-0.655232,-0.515882,0.931399,0.257825,0.167318,0.195004,33.925357,12.188343,27.380493
49085,NaN,-0.379106,4.392080,8.251382,1.839157,-0.123237,-0.640904,-0.096686,-0.575038,-0.333163,0.932322,0.257709,0.164984,0.192724,33.802454,12.022907,27.024028
49086,NaN,-0.608686,4.658943,8.462328,1.623626,-0.111867,-0.271278,0.045021,-0.436579,-0.196146,0.932809,0.258225,0.163252,0.191144,33.784240,11.879235,26.779813
49087,NaN,-1.514910,5.008909,8.420379,0.701997,-0.232702,0.073663,0.134261,-0.285450,-0.100307,0.932961,0.259095,0.162187,0.190131,33.837957,11.777025,26.631406
49088,NaN,-2.155750,5.368157,8.417229,0.032453,-0.239698,0.397875,0.044804,-0.165952,-0.072251,0.933104,0.259451,0.161556,0.189478,33.850694,11.722815,26.535666
49089,NaN,-2.502742,5.260751,8.360362,-0.269683,-0.456316,0.363457,0.004102,-0.032898,-0.026935,0.933148,0.259533,0.161450,0.189239,33.854049,11.717455,26.505217
49090,NaN,-2.461117,5.855875,8.097843,-0.500722,0.150132,0.465939,-0.110682,-0.008499,-0.029697,0.933325,0.259049,0.161351,0.189114,33.792373,11.724585,26.481479
49091,NaN,-2.310089,5.637202,7.977473,-0.370009,0.114317,0.217493,-0.370864,-0.113134,-0.071628,0.933960,0.257420,0.160574,0.188865,33.571194,11.695102,26.403257
49092,NaN,-2.807291,5.842252,7.835943,-0.939496,0.153272,0.311961,-0.379936,-0.117241,-0.078463,0.934614,0.255741,0.159775,0.188587,33.343334,11.665507,26.320597
49093,NaN,-2.729974,5.849015,7.596234,-0.992916,0.328746,0.100554,-0.450114,-0.174226,-0.112545,0.935429,0.253765,0.158689,0.188131,33.068917,11.618968,26.203055
49094,NaN,-2.806851,3.979395,7.303237,-0.708845,-1.043769,-1.125973,-0.502977,-0.544963,-0.139839,0.936624,0.251860,0.155850,0.187118,32.737746,11.401939,25.954752
49095,NaN,-2.852894,3.546978,7.263819,-0.694589,-1.379772,-1.380797,-0.017456,-0.611185,-0.225195,0.937325,0.252227,0.153263,0.185240,32.674190,11.178654,25.644463
49096,NaN,-2.032224,4.156795,7.493613,-0.080532,-0.656327,-1.030565,0.382176,-0.684369,-0.260618,0.937599,0.254499,0.150744,0.182796,32.832485,10.931253,25.293804
49097,NaN,-1.648347,5.202633,8.072179,0.170233,0.057758,-0.070412,0.419972,-0.727603,-0.216335,0.937799,0.257021,0.147999,0.180472,33.016009,10.650423,24.950628
49098,NaN,-1.039380,5.721537,8.400923,0.668640,0.540016,0.368318,0.298042,-0.642007,-0.154372,0.938022,0.258931,0.145462,0.178637,33.141094,10.392093,24.664522
49099,NaN,-1.279633,6.364772,8.600403,0.337344,0.834624,0.925293,0.221793,-0.403733,-0.130310,0.938138,0.260290,0.143943,0.177275,33.239718,10.241122,24.465710
49100,NaN,-0.718438,6.788898,8.339301,0.619822,1.496710,0.842117,0.044492,-0.343090,-0.105445,0.938417,0.260775,0.142517,0.176237,33.242208,10.111467,24.298378
49101,NaN,-1.260390,6.515124,8.260361,0.154602,1.091198,0.725544,-0.173564,-0.251967,-0.043081,0.938855,0.260206,0.141246,0.175764,33.131117,10.005859,24.190526
49102,NaN,-1.820658,7.064091,8.864902,-0.299096,1.057143,1.615154,-0.265923,-0.201446,-0.054365,0.939387,0.259145,0.140144,0.175370,32.968539,9.927719,24.093588
49103,NaN,-1.423976,5.614435,8.324833,0.209918,0.330753,0.321341,-0.687301,-0.159097,-0.183689,0.940541,0.255981,0.139039,0.174715,32.556734,9.909657,23.947017
49104,NaN,-0.662856,3.185797,7.887686,1.336422,-1.089512,-1.456191,-0.492607,-0.233909,-0.093633,0.941409,0.253852,0.137634,0.174253,32.259560,9.826808,23.821605
49105,NaN,-0.643777,4.515545,8.570508,1.229728,-0.277692,-0.186221,-0.107415,-0.057264,-0.054017,0.941628,0.253414,0.137346,0.173934,32.196519,9.817111,23.770612
49106,NaN,-1.125749,5.159157,8.361026,0.554316,0.153352,0.059505,-0.130552,0.089050,0.017374,0.941715,0.252784,0.137636,0.174154,32.133335,9.856521,23.800192
49107,NaN,-1.802461,4.586576,7.764886,-0.110505,-0.313218,-0.622003,-0.119893,0.162202,0.054762,0.941703,0.252170,0.138233,0.174634,32.083920,9.920068,23.870631
49108,NaN,-2.646303,5.486724,8.174545,-0.957157,-0.094717,0.336456,0.080822,0.050292,0.151030,0.941432,0.252661,0.138356,0.175288,32.151145,9.899979,23.954041
49109,NaN,-2.206786,5.887193,8.375498,-0.597603,0.314664,0.638235,-0.080944,0.024300,0.108586,0.941419,0.252388,0.138269,0.175820,32.121277,9.880206,24.008369
49110,NaN,-1.801972,5.224772,8.171291,-0.138692,0.035263,0.051127,-0.184152,0.008064,0.059510,0.941591,0.251605,0.138076,0.176173,32.026662,9.867523,24.033643
49111,NaN,-1.145374,5.890255,8.835980,0.497562,0.566584,0.841557,-0.141627,-0.037592,0.127310,0.941679,0.251114,0.137622,0.176757,31.960315,9.812135,24.078179
49112,NaN,-0.160285,5.918168,8.705981,1.319333,1.062395,0.578417,-0.363403,0.149996,0.103088,0.941937,0.249391,0.137883,0.177617,31.774105,9.855424,24.168591
49113,NaN,-0.286970,5.149343,8.502097,1.338328,0.516000,0.027340,-0.454451,0.348895,0.036656,0.942224,0.247020,0.139083,0.178471,31.541283,10.015992,24.286548
49114,NaN,-0.489973,5.171506,8.363082,1.119179,0.554652,-0.047172,-0.266075,0.467304,-0.047477,0.942264,0.245365,0.141111,0.178945,31.415092,10.259981,24.398444
49115,NaN,-1.702947,6.346988,8.583459,-0.165741,0.971100,0.952496,-0.221298,0.610313,-0.174170,0.942253,0.243707,0.144008,0.178962,31.312111,10.611845,24.490111
49116,NaN,-2.437876,6.580572,8.480890,-0.871109,0.959796,1.118554,-0.390823,0.633503,-0.299402,0.942532,0.241131,0.147012,0.178539,31.101408,11.012587,24.525616
49117,NaN,-2.388321,5.680974,8.724791,-0.454074,0.220276,0.857087,-0.606896,0.571055,-0.333558,0.943130,0.237569,0.149568,0.178033,30.760464,11.392771,24.523164
49118,NaN,-2.255802,4.907744,8.346726,-0.236263,-0.129177,0.125586,-0.682296,0.560586,-0.243785,0.943728,0.233717,0.151898,0.177994,30.383594,11.741696,24.560543
49119,NaN,-2.309369,4.459694,8.379230,-0.127416,-0.454369,-0.055110,-0.681757,0.527681,-0.145254,0.944242,0.229972,0.153955,0.178374,30.015721,12.046085,24.635657
49120,NaN,-1.728431,4.726154,8.511239,0.382840,0.028835,0.067461,-0.685053,0.409671,-0.047574,0.944749,0.226383,0.155336,0.179082,29.648434,12.264520,24.724263
49121,NaN,-1.213243,4.881618,8.383407,0.762951,0.489144,-0.078118,-0.641708,0.507856,-0.050287,0.945117,0.222911,0.157221,0.179849,29.312516,12.533140,24.838383
49122,NaN,-1.542098,5.891188,8.864803,0.405057,1.102019,0.877947,-0.652213,0.658619,-0.126376,0.945430,0.219184,0.159891,0.180432,28.971114,12.899170,24.955257
49123,NaN,-2.037952,6.048820,8.959340,-0.003481,1.098380,1.132791,-0.871119,0.800290,-0.243292,0.945946,0.214201,0.163157,0.180785,28.500630,13.369260,25.049249
49124,NaN,-2.393796,5.310257,8.470659,-0.266133,0.621694,0.445105,-1.064213,0.855745,-0.271769,0.946612,0.208215,0.166533,0.181215,27.918770,13.876002,25.139813
49125,NaN,-3.028718,2.780611,7.114047,-0.634926,-1.213745,-1.711004,-1.186153,0.633742,-0.331329,0.947597,0.201801,0.168803,0.181223,27.244749,14.286605,25.132755
49126,NaN,-4.643749,-0.235770,5.352933,-1.889003,-3.811585,-4.140207,-0.642128,0.674582,-0.188303,0.947837,0.198035,0.171609,0.181486,26.902331,14.680803,25.208453
49127,NaN,-5.307358,2.605250,7.177609,-2.518737,-2.229308,-1.143236,0.538089,-0.307010,0.131903,0.947444,0.201029,0.170515,0.181278,27.212811,14.490682,25.188444
49128,NaN,-3.651702,4.898304,8.916049,-1.035801,-0.193417,0.944339,0.300702,-0.533641,0.137265,0.947469,0.203102,0.168124,0.181069,27.372021,14.183869,25.109118
49129,NaN,-0.897057,4.327190,8.805782,1.461759,0.449178,-0.079629,0.165917,-0.413956,0.073642,0.947580,0.204378,0.166243,0.180791,27.454634,13.954943,25.028349
49130,NaN,-0.340651,4.076908,8.601089,1.925139,0.501063,-0.498254,0.263126,-0.084087,0.166168,0.947231,0.205887,0.165917,0.181208,27.625729,13.869197,25.085627
49131,NaN,-2.162183,4.349944,9.088950,0.445576,-0.210391,0.481152,0.331788,0.085013,0.184111,0.946650,0.207587,0.166435,0.181825,27.850011,13.864215,25.198312
49132,NaN,-2.347398,4.185348,8.950693,0.286581,-0.411621,0.330818,0.240585,0.035359,0.152135,0.946233,0.208868,0.166667,0.182316,28.014140,13.842321,25.280672
49133,NaN,-1.467977,3.606839,8.610819,1.092565,-0.448559,-0.436361,0.216999,0.056825,0.251081,0.945729,0.210106,0.166876,0.183316,28.178990,13.804325,25.420326
49134,NaN,-1.935164,3.707371,8.246165,0.527627,-0.464375,-0.593440,0.341583,0.276030,0.367953,0.944800,0.211823,0.168111,0.184995,28.443790,13.844657,25.681984
49135,NaN,-2.436511,5.135644,8.313548,-0.254105,0.463344,0.244498,0.434497,0.347613,0.465521,0.943611,0.213996,0.169666,0.187129,28.779577,13.892841,26.014582
49136,NaN,-4.375938,5.406713,8.089088,-2.084072,-0.108125,0.649598,0.340320,0.275452,0.424689,0.942613,0.215752,0.170833,0.189072,29.051131,13.914486,26.305902
49137,NaN,-3.229771,5.678648,8.568488,-0.952164,0.405260,0.912352,0.240161,0.137644,0.331708,0.941921,0.217089,0.171356,0.190512,29.244835,13.891957,26.509673
49138,NaN,-2.387815,5.780745,8.290287,-0.357776,0.918125,0.525421,0.179986,0.038986,0.307407,0.941399,0.218211,0.171383,0.191782,29.393504,13.826383,26.672407
49139,NaN,-1.396386,6.302466,8.666674,0.506433,1.634263,0.857594,0.048175,0.122377,0.226474,0.941024,0.218568,0.171764,0.192873,29.462951,13.824902,26.817485
49140,NaN,-1.850321,5.962037,8.710484,0.238007,1.141046,0.840172,-0.107883,0.264664,0.021426,0.940894,0.217871,0.172887,0.193290,29.427169,13.952131,26.898584
49141,NaN,-1.746204,4.827631,8.659508,0.655718,0.283913,0.228808,-0.137086,0.323522,-0.135233,0.940893,0.216850,0.174429,0.193058,29.360071,14.152819,26.915954
49142,NaN,-2.271379,4.071727,8.332449,0.314839,-0.437961,-0.279757,-0.093640,0.414085,-0.157468,0.940784,0.215920,0.176462,0.192781,29.320896,14.405046,26.948040
49143,NaN,-2.944296,4.079187,8.076051,-0.338119,-0.621845,-0.324268,0.018126,0.424976,-0.087039,0.940472,0.215571,0.178578,0.192747,29.356426,14.642875,27.019533
49144,NaN,-3.572085,4.446874,7.873348,-1.035300,-0.516329,-0.159419,0.078382,0.298932,-0.033189,0.940153,0.215670,0.180100,0.192777,29.423922,14.802644,27.082579
49145,NaN,-3.084069,4.131951,7.988162,-0.454809,-0.604252,-0.335175,0.105638,0.122445,-0.014428,0.939943,0.216088,0.180799,0.192679,29.497132,14.868978,27.104004
49146,NaN,-2.786040,4.173876,8.072294,-0.161987,-0.479691,-0.321175,0.224263,0.037830,0.081724,0.939589,0.217227,0.181109,0.192835,29.644112,14.865947,27.150476
49147,NaN,-2.455903,4.913636,8.202014,-0.024797,0.211123,0.056611,0.266536,-0.008630,0.163219,0.939149,0.218687,0.181154,0.193284,29.823126,14.816510,27.225143
49148,NaN,-2.164829,5.069782,8.397498,0.270685,0.374756,0.221921,0.229031,0.019176,0.143410,0.938743,0.219921,0.181314,0.193705,29.979467,14.786335,27.297762
49149,NaN,-1.664781,4.881841,8.415425,0.772498,0.411672,0.018740,0.220175,0.107551,0.106252,0.938300,0.220999,0.181921,0.194054,30.133136,14.810442,27.377382
49150,NaN,-1.556281,4.634839,8.553752,1.014216,0.189017,-0.014423,0.231876,0.216111,0.124810,0.937726,0.222038,0.183028,0.194602,30.303735,14.882746,27.499066
49151,NaN,0.518466,4.367932,8.548938,2.890260,0.877829,-0.685381,0.296560,0.291449,0.263986,0.936871,0.223438,0.184395,0.195824,30.536345,14.951420,27.714730
49152,NaN,-2.426807,3.837517,8.391963,0.492435,-0.844654,-0.321386,0.237793,0.622154,0.335522,0.935698,0.224298,0.187172,0.197804,30.770789,15.161413,28.067480
49153,NaN,-2.534747,4.437819,7.956807,0.091828,-0.273560,-0.360368,0.403499,0.638335,0.399661,0.934245,0.225979,0.190113,0.199942,31.112209,15.358613,28.459139
49154,NaN,-3.944740,4.148839,7.776607,-1.046846,-1.133116,-0.280151,0.435853,0.513418,0.396693,0.932862,0.227924,0.192504,0.201894,31.462466,15.493382,28.812404
49155,NaN,-5.414587,4.732231,6.972382,-2.769295,-1.114827,-0.251646,0.643401,0.347493,0.322682,0.931462,0.230934,0.194412,0.203106,31.909184,15.567049,29.077420
49156,NaN,-4.373937,5.908685,7.253905,-2.066790,0.158651,0.304907,0.692808,0.054463,0.306566,0.930293,0.234448,0.195020,0.203855,32.356867,15.501562,29.242341
49157,NaN,-2.277441,5.622733,8.074607,0.170584,0.554802,0.270166,0.516097,-0.118780,0.283709,0.929510,0.237296,0.194668,0.204464,32.685646,15.358341,29.339841
49158,NaN,-2.477299,6.291351,8.045513,-0.196029,0.943661,0.652449,0.579691,-0.115154,0.277906,0.928647,0.240424,0.194402,0.204987,33.049363,15.218108,29.434708
49159,NaN,-1.623218,6.224392,8.688135,0.845113,1.005807,0.917438,0.324851,-0.025391,0.164278,0.928111,0.242169,0.194428,0.205335,33.260125,15.156058,29.501395
49160,NaN,-1.661607,5.054430,8.385009,1.026263,0.135420,0.063796,0.282877,0.191543,0.084238,0.927495,0.243413,0.195512,0.205616,33.454354,15.222837,29.599055
49161,NaN,-1.781838,4.887904,8.248601,0.945755,-0.024226,-0.106466,0.339360,0.421210,0.090224,0.926574,0.244692,0.197712,0.206147,33.702517,15.396913,29.775359
49162,NaN,0.122223,4.407020,8.100313,2.650152,0.540788,-0.995891,0.404432,0.444009,0.203765,0.925426,0.246355,0.199943,0.207167,34.005093,15.544851,30.016370
49163,NaN,-1.991834,4.059410,8.288521,1.131529,-0.845054,-0.477227,0.445673,0.798091,0.318150,0.923739,0.247956,0.203711,0.209106,34.380255,15.822237,30.433129
49164,NaN,-3.037952,5.755550,7.859860,-0.352022,0.112019,0.385147,0.500263,0.827007,0.436709,0.921808,0.249889,0.207518,0.211569,34.807361,16.072031,30.920513
49165,NaN,-4.159793,5.684986,7.118919,-1.550278,-0.262858,0.078169,0.380527,0.720952,0.420029,0.920131,0.251364,0.210724,0.213940,35.156496,16.274170,31.365647
49166,NaN,-5.092050,5.375509,6.678289,-2.383586,-0.851791,-0.168150,0.466427,0.589834,0.362920,0.918528,0.253304,0.213487,0.215791,35.535575,16.431406,31.739541
49167,NaN,-4.139648,6.395656,6.782452,-1.800243,0.327223,0.221970,0.600998,0.271721,0.358480,0.917084,0.256202,0.214937,0.217069,35.961162,16.439594,32.001481
49168,NaN,-3.660246,6.278007,7.243519,-1.117518,0.246692,0.383850,0.476150,-0.019931,0.263718,0.916207,0.258734,0.215033,0.217673,36.272605,16.343265,32.115106
49169,NaN,-3.031021,5.467452,7.620193,-0.173623,-0.254645,0.038822,0.452270,-0.143962,0.243178,0.915509,0.261273,0.214561,0.218045,36.555476,16.196129,32.174269
49170,NaN,-2.409351,5.355069,7.848454,0.486181,-0.165557,-0.024126,0.498556,-0.062585,0.297736,0.914597,0.263986,0.214438,0.218724,36.879220,16.067419,32.287739
49171,NaN,-2.596239,5.237514,7.824749,0.371123,-0.398148,-0.060653,0.515627,0.079606,0.337644,0.913457,0.266667,0.214929,0.219750,37.232226,15.989264,32.470362
49172,NaN,-1.787599,5.325205,8.353926,1.299749,-0.178527,0.168284,0.597678,0.260557,0.400725,0.911934,0.269584,0.216250,0.221217,37.657630,15.970298,32.747862
49173,NaN,0.000503,4.633384,8.702949,3.170347,0.046995,-0.476955,0.546471,0.688116,0.481154,0.909909,0.271881,0.219352,0.223676,38.108213,16.114275,33.219584
49174,NaN,-1.168626,5.054508,8.010213,1.820166,-0.011308,-0.444477,0.729082,0.973037,0.543523,0.907224,0.274744,0.223861,0.226599,38.702633,16.359911,33.827983
49175,NaN,-1.804416,5.567492,7.659793,1.074433,0.127450,-0.233878,0.793473,1.167773,0.504465,0.904230,0.277625,0.229368,0.229528,39.354131,16.699778,34.495081
49176,NaN,-2.337240,6.384100,6.879504,0.099379,0.704601,-0.166985,0.771793,1.219559,0.501811,0.901158,0.280326,0.235076,0.232530,40.003532,17.056342,35.186081
49177,NaN,-3.527175,7.134715,6.637397,-1.082598,0.644886,0.473776,0.633367,1.013346,0.402340,0.898594,0.282517,0.239820,0.234945,40.542218,17.352512,35.756515
49178,NaN,-3.784513,6.295818,6.501037,-1.035522,-0.104472,-0.058738,0.520842,0.797064,0.348731,0.896483,0.284378,0.243529,0.236942,40.986676,17.570405,36.221317
49179,NaN,-4.176135,6.195155,6.793291,-1.063610,-0.562506,0.213297,0.663652,0.742855,0.346001,0.894212,0.286937,0.247162,0.238669,41.508879,17.762039,36.665718
49180,NaN,-3.917687,5.812313,6.423384,-0.895561,-0.601479,-0.366702,0.680505,0.641324,0.372125,0.891989,0.289713,0.250317,0.240340,42.033258,17.896629,37.083478
49181,NaN,-3.470098,5.480560,6.570276,-0.311637,-0.703627,-0.611940,0.787508,0.453761,0.459885,0.889716,0.293298,0.252630,0.241990,42.609067,17.913935,37.465707
49182,NaN,-2.810183,5.469549,7.318428,0.695999,-0.703989,-0.305242,0.916174,0.556234,0.603878,0.886924,0.297499,0.255336,0.244262,43.290672,17.914156,37.953719
49183,NaN,-2.247039,5.539215,7.639392,1.366407,-0.536058,-0.224316,0.966249,0.741104,0.695291,0.883670,0.301805,0.258775,0.247138,44.037500,17.948911,38.558359
49184,NaN,-2.434329,5.403516,7.415777,1.221008,-0.732249,-0.427102,1.062224,0.987057,0.768078,0.879812,0.306303,0.263295,0.250570,44.881479,18.047189,39.298828
49185,NaN,-4.012623,6.024548,6.956873,-0.280933,-1.163642,0.155214,1.231395,1.102097,0.715422,0.875543,0.311313,0.268594,0.253703,45.833388,18.202025,40.068306
49186,NaN,-4.121996,6.176884,6.486439,-0.568195,-1.039909,-0.024321,1.285351,1.022370,0.583237,0.871397,0.316455,0.273797,0.256043,46.790706,18.368042,40.751315
49187,NaN,-3.500803,6.204033,6.037062,-0.293251,-0.558069,-0.496452,1.440882,0.805596,0.517077,0.867320,0.322441,0.278338,0.257518,47.801118,18.466382,41.314389
49188,NaN,-3.280904,6.825522,5.569252,-0.488660,0.069422,-0.425320,1.618768,0.652874,0.456903,0.863179,0.329282,0.282522,0.258220,48.884929,18.522676,41.786483
49189,NaN,-2.983137,7.001031,5.816880,-0.047099,0.136952,-0.235314,1.705869,0.430572,0.539145,0.859029,0.336878,0.285699,0.258764,49.997164,18.451640,42.189830
49190,NaN,-2.145679,6.731435,5.659805,0.608099,0.420188,-0.790464,1.837573,0.344287,0.736218,0.854446,0.345398,0.288318,0.259799,51.194112,18.254403,42.626597
49191,NaN,-2.816219,6.812492,5.844722,0.348912,-0.211031,-0.414192,2.077696,0.419678,0.946420,0.848964,0.355111,0.291173,0.261483,52.561075,17.979717,43.171934
49192,NaN,-4.072777,6.988982,6.023656,-0.326523,-1.207236,0.194725,2.246728,0.346661,1.125889,0.842930,0.365843,0.293578,0.263516,54.027915,17.584999,43.738328
49193,NaN,-5.594534,7.108504,5.899845,-1.363112,-2.323579,0.645501,2.419971,0.251008,1.215266,0.836453,0.377501,0.295593,0.265450,55.581726,17.102642,44.276196
49194,NaN,-6.969292,7.700412,5.874351,-2.314593,-3.163433,1.456813,2.704368,0.105238,1.121584,0.829613,0.390325,0.297494,0.266244,57.259094,16.604656,44.694565
49195,NaN,-6.523718,9.149332,5.994663,-2.070592,-2.422927,2.517619,2.862666,-0.029616,0.938178,0.822724,0.403628,0.299339,0.265719,58.983817,16.143444,44.970099
49196,NaN,-4.336348,10.216241,5.597478,-0.904962,-0.462326,2.575457,2.551127,-0.079765,0.682709,0.816712,0.415250,0.301018,0.264456,60.495742,15.786885,45.128853
49197,NaN,-2.020704,9.908114,4.780440,0.288036,1.144157,1.309801,2.077071,-0.091543,0.552269,0.811755,0.424696,0.302251,0.263309,61.721241,15.489050,45.234909
49198,NaN,-1.237393,9.124882,4.676439,1.000048,1.155178,0.401303,1.928104,0.148597,0.544801,0.806673,0.433163,0.304243,0.262839,62.891819,15.256779,45.458552
49199,NaN,0.121548,8.669294,4.288352,1.827214,1.914030,-0.509128,1.927443,0.462096,0.628679,0.800920,0.441299,0.307286,0.263359,64.109482,15.057238,45.865700
49200,NaN,0.657376,8.315967,4.227659,2.299107,1.998682,-0.970896,1.928341,0.820365,0.980859,0.794054,0.449452,0.310950,0.266046,65.396662,14.754159,46.548904
49201,NaN,-1.914153,7.753576,4.033267,0.629006,-0.122095,-0.888848,2.018133,0.993406,1.197060,0.786311,0.458003,0.314888,0.269802,66.766026,14.362726,47.369056
49202,NaN,-3.269145,7.573379,3.887924,-0.233026,-1.283533,-0.787573,2.189426,0.732786,1.376115,0.778211,0.467780,0.317568,0.273349,68.198994,13.800137,48.075691
49203,NaN,-3.654514,7.955265,3.880993,-0.426903,-1.631756,-0.386516,2.392158,0.468669,1.498594,0.769737,0.478814,0.319150,0.276380,69.709119,13.100220,48.645989
49204,NaN,-3.203708,8.528442,3.813104,-0.148573,-1.303121,-0.024415,2.521199,0.275167,1.616587,0.760935,0.490693,0.319815,0.279136,71.262483,12.285055,49.111231
49205,NaN,-2.309114,8.724472,3.475790,0.247352,-0.658458,-0.167620,2.565931,0.210223,1.728548,0.751791,0.502900,0.319945,0.282022,72.826638,11.385326,49.536162
49206,NaN,-1.388683,8.635636,3.171946,0.708242,-0.106526,-0.536712,2.648984,0.287255,1.767467,0.742075,0.515246,0.320305,0.285045,74.435832,10.465497,49.983741
49207,NaN,-1.095366,8.840811,2.932324,0.798224,0.033695,-0.468602,2.835490,0.452881,1.786395,0.731385,0.527939,0.321409,0.288189,76.156728,9.546856,50.498644
49208,NaN,-1.053037,9.537641,2.952498,0.910974,-0.052833,0.184835,2.934744,0.640565,1.760022,0.719953,0.540526,0.323317,0.291488,77.937755,8.652009,51.086230
49209,NaN,-1.157268,10.184388,2.934124,0.933265,-0.273633,0.804009,2.839717,0.841075,1.645559,0.708408,0.552135,0.326022,0.294984,79.666051,7.826396,51.745472
49210,NaN,-1.257968,10.679470,3.016330,1.062082,-0.594118,1.288742,2.579503,0.965514,1.493192,0.697415,0.562241,0.329118,0.298629,81.240121,7.080291,52.435557
49211,NaN,-1.242236,10.800976,2.975722,1.183406,-0.806106,1.367734,2.257756,1.054378,1.301896,0.687309,0.570655,0.332508,0.302320,82.623337,6.432365,53.140205
49212,NaN,-1.583042,10.678413,3.090613,1.216375,-1.395352,1.262263,1.948533,1.028365,1.094688,0.678324,0.577600,0.335874,0.305686,83.817165,5.885067,53.800265
49213,NaN,-1.394414,10.491630,2.962469,1.352489,-1.389747,1.005380,1.669092,0.935489,0.953624,0.670426,0.583426,0.338860,0.308735,84.837867,5.400288,54.387680
49214,NaN,-0.947166,10.311995,2.721257,1.522148,-1.073782,0.730892,1.440417,0.892154,0.858042,0.663347,0.588331,0.341593,0.311692,85.719346,4.958474,54.937161
49215,NaN,-0.100176,10.105815,2.315972,1.761168,-0.315280,0.399964,1.305703,0.955977,0.850889,0.656510,0.592625,0.344318,0.315017,86.521794,4.515169,55.515993
49216,NaN,0.636949,9.902626,1.816242,1.831591,0.420906,0.098564,1.262381,1.163630,0.976758,0.649185,0.596614,0.347253,0.319415,87.303276,3.998383,56.211310
49217,NaN,0.484168,9.413467,1.404605,1.457750,0.348909,-0.401405,1.280746,1.383176,1.112994,0.641137,0.600483,0.350485,0.324845,88.096256,3.399068,57.027997
49218,NaN,-0.138015,8.986219,1.156758,0.963250,-0.207726,-0.805125,1.381694,1.476668,1.237238,0.632336,0.604663,0.353763,0.330734,88.940551,2.718493,57.891022
49219,NaN,-0.515876,8.923299,0.920023,0.625829,-0.562217,-0.866887,1.566215,1.478441,1.322715,0.622739,0.609484,0.357039,0.336524,89.879314,1.975500,58.744272
49220,NaN,-0.754776,9.368002,0.810953,0.497258,-0.872742,-0.433229,1.727819,1.466689,1.339803,0.612538,0.614757,0.360440,0.341985,90.899030,1.208432,59.577591
49221,NaN,-0.808495,9.736746,0.605762,0.396856,-0.998938,-0.083060,1.720212,1.446282,1.270134,0.602412,0.619812,0.363917,0.347127,91.902864,0.466856,60.386219
49222,NaN,-0.459457,9.961401,0.166519,0.293965,-0.667578,0.133798,1.702989,1.475000,1.171870,0.592359,0.624485,0.367696,0.352036,92.886860,-0.232960,61.200643
49223,NaN,0.056183,10.422774,0.158605,0.655797,-0.411832,0.582456,1.729464,1.533833,1.161883,0.582036,0.629011,0.371667,0.356993,93.875556,-0.943049,62.036881
49224,NaN,0.051972,10.776956,0.225564,0.832521,-0.649623,0.914735,1.613327,1.575791,1.132738,0.571956,0.632967,0.375584,0.362154,94.787275,-1.651995,62.886685
49225,NaN,-0.035689,10.846575,0.297015,0.953885,-0.940286,0.954886,1.408214,1.635071,1.084055,0.562416,0.636041,0.379395,0.367694,95.569870,-2.348779,63.762541
49226,NaN,-0.252939,10.765545,0.311303,0.946220,-1.291042,0.840645,1.170831,1.674320,0.975881,0.553677,0.638085,0.383173,0.373454,96.205490,-2.996934,64.658913
49227,NaN,-0.550387,10.741833,0.275583,0.857114,-1.675906,0.780746,0.982265,1.699529,0.831469,0.545696,0.639203,0.387082,0.379212,96.722160,-3.573501,65.572911
49228,NaN,-0.910252,10.893659,0.312438,0.821525,-2.145852,0.879232,0.790732,1.661242,0.681573,0.538627,0.639517,0.390964,0.384769,97.121913,-4.069414,66.471349
49229,NaN,-1.039797,11.111955,0.240317,0.782030,-2.352530,1.071598,0.584396,1.588300,0.540665,0.532586,0.639081,0.394667,0.390083,97.398434,-4.485196,67.336047
49230,NaN,-1.302075,11.228809,0.258067,0.751957,-2.682253,1.145774,0.291181,1.497713,0.386754,0.527922,0.637695,0.398023,0.395249,97.505109,-4.809728,68.159579
49231,NaN,-1.384444,11.106500,0.189526,0.669861,-2.760658,1.014912,0.020337,1.366546,0.256204,0.524613,0.635556,0.400891,0.400170,97.457656,-5.050590,68.918383
49232,NaN,-1.361561,10.999307,0.109312,0.595331,-2.719007,0.915925,-0.197670,1.236950,0.154041,0.522437,0.632874,0.403290,0.404830,97.288918,-5.222588,69.611376
49233,NaN,-1.618544,10.853253,0.001615,0.374861,-2.906608,0.761991,-0.431167,1.089574,0.037794,0.521515,0.629620,0.405186,0.409177,96.991159,-5.314929,70.229574
49234,NaN,-1.676647,10.489514,-0.166526,0.130843,-2.845080,0.422397,-0.646027,0.921653,-0.071903,0.521815,0.625909,0.406536,0.413129,96.578399,-5.329935,70.759706
49235,NaN,-1.416228,10.222710,-0.426565,-0.099964,-2.458183,0.219185,-0.727699,0.771030,-0.119476,0.522762,0.622177,0.407462,0.416642,96.126012,-5.303930,71.207090
49236,NaN,-1.197237,10.243738,-0.596314,-0.248286,-2.172383,0.283937,-0.767652,0.640068,-0.100228,0.524043,0.618641,0.407890,0.419866,95.658552,-5.278006,71.577867
49237,NaN,-1.138370,10.173077,-0.805237,-0.501115,-2.015678,0.243215,-0.843382,0.509314,-0.068079,0.525749,0.615226,0.407710,0.422916,95.154309,-5.259737,71.872094
49238,NaN,-0.825311,10.129064,-0.950695,-0.619418,-1.644754,0.241837,-0.823154,0.440469,-0.014280,0.527403,0.612110,0.407215,0.425843,94.666161,-5.266764,72.123696
49239,NaN,-0.760847,9.973190,-0.988956,-0.719131,-1.533952,0.094420,-0.810230,0.396395,0.027780,0.529012,0.609190,0.406497,0.428712,94.187245,-5.293169,72.348601
49240,NaN,-0.731582,9.839691,-1.173789,-0.962737,-1.421409,-0.025714,-0.714226,0.315925,0.062105,0.530404,0.606762,0.405657,0.431224,93.768180,-5.334828,72.525763
49241,NaN,-0.840966,9.879429,-1.209933,-1.090061,-1.508746,0.001051,-0.595861,0.246700,0.080527,0.531535,0.604820,0.404832,0.433330,93.419972,-5.382689,72.663238
49242,NaN,-0.710097,9.918351,-1.219658,-1.111326,-1.379907,0.047642,-0.489244,0.164256,0.101344,0.532458,0.603383,0.403948,0.435021,93.137803,-5.439668,72.752489
49243,NaN,-0.470580,9.968442,-1.212824,-1.077655,-1.155773,0.115299,-0.427422,0.148801,0.088258,0.533254,0.602108,0.403200,0.436504,92.891215,-5.487542,72.834021
49244,NaN,-0.388886,9.918757,-1.173747,-1.059468,-1.078992,0.067788,-0.445808,0.179401,0.053375,0.534113,0.600651,0.402591,0.438020,92.632780,-5.516683,72.933836
49245,NaN,-0.422433,9.869765,-1.076506,-1.020436,-1.124169,0.007921,-0.483541,0.213078,0.004129,0.535127,0.598909,0.402140,0.439580,92.350198,-5.517198,73.054930
49246,NaN,-0.582422,9.853296,-0.963829,-1.003932,-1.292613,-0.031241,-0.511447,0.214865,-0.038508,0.536306,0.597005,0.401753,0.441084,92.051969,-5.493539,73.177457
49247,NaN,-0.556552,9.972681,-1.072533,-1.144138,-1.230677,0.091384,-0.494691,0.202502,-0.069363,0.537528,0.595101,0.401464,0.442431,91.763571,-5.450478,73.293915
49248,NaN,-0.461636,10.469363,-1.186248,-1.269118,-1.136445,0.595265,-0.492187,0.197929,-0.089797,0.538790,0.593175,0.401221,0.443702,91.477420,-5.395936,73.407270
49249,NaN,-0.319983,10.774782,-1.298578,-1.387417,-0.973092,0.911698,-0.585892,0.182653,-0.123173,0.540433,0.590951,0.400831,0.445021,91.138081,-5.320517,73.512587
49250,NaN,-0.314512,10.891130,-1.333644,-1.480074,-0.936193,1.023672,-0.673171,0.173063,-0.155007,0.542415,0.588450,0.400304,0.446397,90.749848,-5.227054,73.611572
49251,NaN,-0.336640,10.856700,-1.333480,-1.552697,-0.914277,0.981389,-0.746942,0.172086,-0.207365,0.544728,0.585630,0.399765,0.447768,90.319243,-5.101880,73.710248
49252,NaN,-0.227490,10.762992,-1.411299,-1.665504,-0.733502,0.891188,-0.775372,0.137606,-0.255826,0.547290,0.582712,0.399197,0.448957,89.874784,-4.949171,73.787501
49253,NaN,-0.168764,10.676026,-1.371717,-1.679730,-0.628544,0.801942,-0.794958,0.074430,-0.305788,0.550141,0.579764,0.398558,0.449855,89.422206,-4.766397,73.827728
49254,NaN,0.042308,10.571643,-1.299621,-1.618312,-0.378614,0.708121,-0.808267,0.019396,-0.387438,0.553310,0.576738,0.397960,0.450388,88.965198,-4.538045,73.833501
49255,NaN,0.092479,10.441286,-1.359761,-1.723832,-0.235785,0.572396,-0.804966,-0.040347,-0.469978,0.556766,0.573671,0.397442,0.450504,88.512710,-4.262020,73.802815
49256,NaN,0.186196,10.190448,-1.485208,-1.868093,-0.019316,0.316222,-0.777917,-0.084862,-0.545236,0.560387,0.570625,0.397060,0.450219,88.077880,-3.945013,73.742435
49257,NaN,0.398608,10.192326,-1.434626,-1.811777,0.248923,0.324144,-0.662042,-0.092076,-0.595511,0.563795,0.567801,0.397062,0.449533,87.709406,-3.598664,73.675398
49258,NaN,0.799004,10.726108,-1.278443,-1.615556,0.642168,0.878394,-0.472219,-0.065314,-0.624556,0.566664,0.565391,0.397632,0.448457,87.448687,-3.236553,73.620388
49259,NaN,1.206762,11.600879,-1.014388,-1.320173,1.003363,1.776767,-0.343503,0.013738,-0.635201,0.569030,0.563132,0.398749,0.447310,87.258952,-2.865338,73.609746
49260,NaN,1.573639,12.337393,-0.883758,-1.152524,1.377124,2.526000,-0.340052,0.112882,-0.622094,0.571150,0.560687,0.400105,0.446468,87.068594,-2.499992,73.654304
49261,NaN,1.713336,12.624378,-0.841711,-1.118501,1.580025,2.807558,-0.474732,0.250830,-0.606131,0.573328,0.557567,0.401512,0.446321,86.798178,-2.138271,73.777580
49262,NaN,1.739083,12.300553,-0.833401,-1.130464,1.700328,2.469514,-0.623272,0.401379,-0.598714,0.575589,0.553696,0.402981,0.446905,86.440563,-1.776144,73.984534
49263,NaN,1.498853,11.691181,-0.953175,-1.328376,1.599833,1.828353,-0.636237,0.581062,-0.604096,0.577523,0.549355,0.404953,0.447984,86.074131,-1.401875,74.292410
49264,NaN,1.491148,11.288996,-0.987670,-1.390449,1.685793,1.406244,-0.564475,0.713615,-0.584302,0.578930,0.544955,0.407393,0.449328,85.749168,-1.032702,74.673872
49265,NaN,1.612596,11.021619,-1.156732,-1.550207,1.913258,1.112075,-0.436377,0.834912,-0.441033,0.579402,0.540924,0.410079,0.451142,85.498834,-0.737177,75.129659
49266,NaN,1.293040,10.540044,-0.984470,-1.472629,1.599671,0.627898,-0.381382,0.845437,-0.258037,0.579277,0.537396,0.412406,0.453393,85.281640,-0.544809,75.597998
49267,NaN,0.811332,9.925717,-0.867937,-1.464346,1.116644,0.012798,-0.234178,0.781619,-0.054180,0.578414,0.534844,0.414334,0.455748,85.150390,-0.469543,76.039667
49268,NaN,0.303430,9.718542,-0.561342,-1.291875,0.545484,-0.174704,-0.069605,0.674608,0.099693,0.576974,0.533328,0.415902,0.457917,85.113838,-0.487599,76.426987
49269,NaN,0.012085,9.562321,-0.296349,-1.098197,0.182734,-0.310767,-0.014788,0.511614,0.223720,0.575437,0.532592,0.416799,0.459888,85.109472,-0.583384,76.727937
49270,NaN,-0.077868,9.144846,-0.060135,-0.861369,0.014284,-0.707981,-0.049736,0.338365,0.287876,0.574203,0.532288,0.416936,0.461654,85.085203,-0.725097,76.932534
49271,NaN,-0.131055,8.563138,0.104768,-0.673372,-0.101579,-1.275024,-0.091996,0.198784,0.287431,0.573371,0.532179,0.416582,0.463132,85.037719,-0.872413,77.058145
49272,NaN,-0.060789,7.975539,0.294294,-0.434491,-0.096554,-1.843912,-0.129668,0.071762,0.235002,0.573024,0.532149,0.415907,0.464201,84.969172,-0.996914,77.108157
49273,NaN,0.103805,7.526704,0.330163,-0.334813,0.042966,-2.285597,-0.129805,-0.027747,0.152208,0.573075,0.532172,0.415175,0.464765,84.901991,-1.078228,77.097960
49274,NaN,0.364272,7.145738,0.450362,-0.136107,0.264617,-2.649690,-0.154363,-0.090992,0.049651,0.573562,0.532063,0.414469,0.464921,84.821103,-1.105185,77.045876
49275,NaN,0.838538,6.811759,0.527568,0.066820,0.711638,-2.966475,-0.162829,-0.128785,-0.062112,0.574407,0.531782,0.413940,0.464670,84.736323,-1.069512,76.967062
49276,NaN,1.295648,6.516362,0.562888,0.226342,1.157606,-3.250125,-0.124566,-0.110877,-0.177409,0.575383,0.531333,0.413848,0.464058,84.672856,-0.968123,76.891699
49277,NaN,1.732864,6.366505,0.657871,0.430816,1.577070,-3.386552,-0.082367,-0.039563,-0.288920,0.576354,0.530605,0.414364,0.463224,84.633300,-0.798519,76.851578
49278,NaN,2.036067,6.331804,0.691049,0.537633,1.886682,-3.420020,-0.034021,0.071201,-0.382529,0.577185,0.529568,0.415550,0.462314,84.620163,-0.570454,76.868949
49279,NaN,2.297429,6.430409,0.718777,0.619188,2.164786,-3.326148,0.005665,0.193669,-0.470120,0.577853,0.528174,0.417418,0.461390,84.629798,-0.285077,76.952017
49280,NaN,2.587409,6.580417,0.736035,0.693612,2.481020,-3.186857,0.071843,0.340311,-0.542422,0.578204,0.526480,0.420041,0.460503,84.677189,0.048560,77.114475
49281,NaN,2.774575,6.943758,0.732875,0.707594,2.713046,-2.842059,0.151369,0.494692,-0.580775,0.578101,0.524572,0.423397,0.459737,84.771924,0.412663,77.363878
49282,NaN,2.963954,7.448509,0.752920,0.732503,2.952591,-2.357648,0.187021,0.672780,-0.566116,0.577485,0.522381,0.427297,0.459399,84.889297,0.776481,77.715878
49283,NaN,3.031133,7.868335,0.683135,0.646733,3.094872,-1.966133,0.158410,0.860208,-0.530779,0.576446,0.519738,0.431575,0.459701,84.994743,1.129416,78.177768
49284,NaN,2.823049,8.188144,0.509511,0.404478,2.986615,-1.676888,0.124544,1.051003,-0.476370,0.574943,0.516663,0.436165,0.460717,85.085628,1.459453,78.751564
49285,NaN,2.585541,8.647752,0.359275,0.165736,2.845037,-1.240881,0.124819,1.189699,-0.365352,0.572858,0.513492,0.440856,0.462391,85.182520,1.732249,79.410880
49286,NaN,2.240700,9.151747,0.388376,0.079263,2.556604,-0.736154,0.076419,1.250295,-0.197141,0.570354,0.510393,0.445155,0.464792,85.255186,1.910583,80.113034
49287,NaN,1.750159,9.619537,0.425218,-0.022553,2.107060,-0.255539,-0.025124,1.250905,0.014346,0.567592,0.507454,0.448667,0.468004,85.271956,1.967828,80.825953
49288,NaN,1.100901,9.706656,0.486616,-0.100012,1.458842,-0.141616,-0.198043,1.185128,0.255749,0.564832,0.504699,0.450953,0.472106,85.188124,1.884330,81.512545
49289,NaN,0.658810,9.632432,0.269643,-0.410530,1.024182,-0.217234,-0.301810,1.030782,0.494295,0.562096,0.502538,0.451944,0.476708,85.041129,1.658590,82.122900
49290,NaN,0.473874,9.835081,0.439589,-0.327389,0.772775,0.007785,-0.324338,0.846832,0.805418,0.559073,0.501435,0.451564,0.481758,84.875079,1.247595,82.644258
49291,NaN,0.134849,9.793183,0.401988,-0.455612,0.355232,-0.027428,-0.462982,0.612415,1.126904,0.556127,0.501217,0.449372,0.487411,84.623597,0.642823,83.050244
49292,NaN,-0.184296,9.011645,0.223768,-0.658832,-0.063755,-0.820787,-0.562807,0.427290,1.332223,0.553322,0.501606,0.445882,0.493371,84.309215,-0.087294,83.364790
49293,NaN,-0.331902,8.308553,0.224851,-0.660215,-0.330495,-1.527378,-0.440266,0.226744,1.451434,0.550327,0.503069,0.441819,0.498856,84.062275,-0.895424,83.575649
49294,NaN,-0.369170,8.126378,0.396731,-0.513528,-0.502828,-1.700112,-0.205660,0.020833,1.505378,0.547035,0.505779,0.437610,0.503426,83.948715,-1.745974,83.674834
49295,NaN,-0.383537,8.236375,0.688907,-0.257161,-0.671819,-1.570064,0.036718,-0.148933,1.470816,0.543555,0.509478,0.433614,0.506912,83.976870,-2.586937,83.675948
49296,NaN,-0.234146,8.450060,1.074479,0.116296,-0.696195,-1.320729,0.248133,-0.274465,1.409576,0.539938,0.513907,0.429941,0.509428,84.129555,-3.400503,83.600327
49297,NaN,0.018301,8.643240,1.367069,0.429124,-0.611510,-1.094006,0.427295,-0.335185,1.336290,0.536146,0.518793,0.426731,0.511177,84.389300,-4.175404,83.482945
49298,NaN,-0.071225,8.717689,1.402055,0.479960,-0.827671,-1.034747,0.633308,-0.350768,1.215736,0.532137,0.523985,0.424293,0.512099,84.769578,-4.881806,83.345516
49299,NaN,-0.388505,8.795494,1.007852,0.101705,-1.207802,-1.034475,0.899297,-0.449419,1.040427,0.528060,0.529741,0.422714,0.511703,85.310823,-5.491776,83.137126
49300,NaN,0.110865,9.177222,0.905566,0.106353,-0.831493,-0.628486,1.138182,-0.510767,0.841612,0.523962,0.535833,0.422085,0.510089,85.995444,-5.988693,82.877959
49301,NaN,0.408491,9.643324,1.046739,0.348925,-0.687096,-0.134838,1.234369,-0.447693,0.652037,0.519925,0.541588,0.422355,0.507914,86.735236,-6.371493,82.641895
49302,NaN,0.601905,9.907253,1.307890,0.723389,-0.632027,0.152375,1.123618,-0.319857,0.500127,0.516282,0.546382,0.423063,0.505902,87.405100,-6.660890,82.469945
49303,NaN,0.938098,9.870978,1.328156,0.893695,-0.358118,0.144834,1.052611,-0.174219,0.370070,0.512833,0.550331,0.424311,0.504082,88.026400,-6.870343,82.375770
49304,NaN,0.857358,9.865636,1.330609,0.987356,-0.480611,0.118553,1.054391,-0.038619,0.242854,0.509397,0.553655,0.426244,0.502291,88.639567,-7.003874,82.355224
49305,NaN,0.675239,9.985848,1.454230,1.184743,-0.718649,0.205639,1.068305,0.144023,0.105644,0.505862,0.556247,0.429049,0.500610,89.248659,-7.056415,82.437366
49306,NaN,0.436548,10.089083,1.616730,1.417661,-0.996945,0.266468,1.046288,0.279831,-0.073559,0.502532,0.558041,0.432623,0.498888,89.835238,-7.006743,82.596357
49307,NaN,0.540293,10.121411,1.755799,1.675393,-0.907078,0.296071,1.038380,0.360798,-0.218122,0.499392,0.559284,0.436775,0.497028,90.412205,-6.875680,82.802908
49308,NaN,0.772329,10.332478,1.884371,1.939549,-0.697996,0.514815,1.065178,0.471912,-0.256303,0.496014,0.560215,0.441359,0.495309,90.996860,-6.725876,83.074925
49309,NaN,0.922743,10.682078,2.038915,2.218630,-0.586153,0.857300,0.967199,0.604091,-0.157162,0.492355,0.560775,0.445739,0.494404,91.517352,-6.636839,83.423483
49310,NaN,1.007331,10.735519,2.083756,2.362850,-0.502028,0.900507,0.773327,0.746411,0.066998,0.488353,0.560987,0.449343,0.494869,91.917456,-6.681701,83.850729
49311,NaN,0.930785,10.836697,2.114943,2.452325,-0.605710,0.975838,0.567400,0.838596,0.401315,0.483881,0.561203,0.451716,0.496854,92.193229,-6.922078,84.324251
49312,NaN,0.933836,10.976024,2.025388,2.404273,-0.659829,1.106608,0.323793,0.873337,0.774329,0.479071,0.561568,0.452502,0.500375,92.325020,-7.378775,84.808629
49313,NaN,0.468726,10.615340,1.798017,2.131898,-1.132516,0.690154,0.005908,0.901166,1.040928,0.474404,0.561679,0.451795,0.505310,92.268883,-7.988728,85.303371
49314,NaN,-0.043673,9.865598,1.451709,1.705991,-1.602752,-0.119431,-0.203021,0.817830,1.188338,0.470116,0.561813,0.449924,0.510809,92.094599,-8.680604,85.748488
49315,NaN,-0.265721,9.335450,1.267370,1.465656,-1.831442,-0.684484,-0.240938,0.612408,1.255311,0.466202,0.562502,0.447264,0.515947,91.911544,-9.404941,86.076374
49316,NaN,-0.581636,9.090088,1.125841,1.274128,-2.198728,-0.993579,-0.172881,0.360427,1.261456,0.462623,0.563990,0.444153,0.520215,91.787874,-10.127662,86.260169
49317,NaN,-0.489015,9.213345,1.140932,1.280569,-2.237008,-0.880639,-0.095136,0.154078,1.227968,0.459352,0.566094,0.440845,0.523630,91.727814,-10.826784,86.326234
49318,NaN,-0.295576,9.350651,1.128892,1.270648,-2.178990,-0.733432,-0.055291,-0.015419,1.170585,0.456475,0.568590,0.437397,0.526327,91.708792,-11.490588,86.294742
49319,NaN,-0.204409,9.558386,1.500856,1.640154,-2.256225,-0.545782,-0.052751,-0.093566,1.077330,0.453995,0.571072,0.434032,0.528566,91.700332,-12.099038,86.219573
49320,NaN,-0.026044,9.528321,1.750796,1.887474,-2.187747,-0.565781,-0.107500,-0.129317,0.996311,0.451948,0.573337,0.430657,0.530625,91.665669,-12.661136,86.124578
49321,NaN,-0.158915,9.321893,1.529053,1.645876,-2.345291,-0.809852,0.031551,-0.153765,0.885132,0.449843,0.575723,0.427909,0.532051,91.714026,-13.158398,86.017275
49322,NaN,-0.377398,9.459070,0.918490,1.035629,-2.625114,-0.729966,0.319614,-0.284897,0.711174,0.447641,0.578729,0.426121,0.532082,91.946003,-13.554122,85.834219
49323,NaN,0.218422,10.263699,0.612678,0.827603,-2.278403,0.181812,0.582263,-0.313872,0.504625,0.445287,0.581943,0.425562,0.530998,92.332614,-13.829123,85.636653
49324,NaN,0.656474,11.306266,0.750084,1.084730,-2.159131,1.277228,0.630492,-0.209514,0.269001,0.443185,0.584484,0.426038,0.529583,92.732249,-13.971443,85.504173
49325,NaN,0.769986,12.175406,0.820176,1.256459,-2.284400,2.133382,0.527272,-0.042810,0.003502,0.441732,0.585775,0.427387,0.528281,93.046977,-13.964853,85.477485
49326,NaN,0.890870,12.979090,0.957605,1.492057,-2.359229,2.929953,0.430588,0.098410,-0.240271,0.440898,0.585963,0.429498,0.527057,93.284885,-13.824139,85.541464
49327,NaN,0.375268,13.352726,0.966631,1.524946,-2.902236,3.172751,0.247330,0.236285,-0.472533,0.440918,0.584871,0.432112,0.526114,93.396227,-13.554246,85.695581
49328,NaN,-0.422814,12.938137,0.828450,1.344162,-3.491842,2.607458,0.128686,0.324615,-0.701465,0.441685,0.582792,0.435268,0.525175,93.427182,-13.157736,85.909169
49329,NaN,-1.050202,12.699940,0.889749,1.382816,-3.952695,2.255703,0.191730,0.328474,-0.826887,0.442588,0.580549,0.438962,0.523823,93.493645,-12.688499,86.130126
49330,NaN,-1.427352,13.022038,1.087669,1.611400,-4.298008,2.504909,0.254952,0.256519,-0.831028,0.443461,0.578622,0.442659,0.522103,93.607767,-12.215987,86.308757
49331,NaN,-1.752822,13.477103,1.326993,1.893408,-4.627761,2.894146,0.202289,0.142679,-0.678906,0.444340,0.577191,0.445526,0.520499,93.707162,-11.825076,86.416549
49332,NaN,-2.310302,13.557597,1.511354,2.064331,-5.127370,2.871100,-0.061670,-0.015160,-0.400820,0.445598,0.576210,0.446540,0.519640,93.677481,-11.588952,86.421028
49333,NaN,-2.446185,13.063108,1.508115,1.998866,-5.128895,2.377543,-0.388540,-0.206314,-0.058958,0.447343,0.575745,0.445302,0.519720,93.484568,-11.539644,86.301894
49334,NaN,-2.485036,12.239910,1.267028,1.642455,-5.000089,1.584537,-0.689284,-0.402609,0.286443,0.449479,0.575893,0.441835,0.520671,93.145836,-11.683772,86.055287
49335,NaN,-2.216662,11.220234,0.900764,1.147564,-4.549755,0.656315,-0.906015,-0.566881,0.514737,0.452007,0.576455,0.436776,0.522127,92.703618,-11.953263,85.707723
49336,NaN,-1.777736,10.513479,0.698045,0.836330,-4.017279,0.053481,-0.991727,-0.704183,0.655202,0.454686,0.577481,0.430749,0.523671,92.232463,-12.304594,85.276980
49337,NaN,-1.386684,10.033864,0.483419,0.524495,-3.577649,-0.338573,-1.009651,-0.819728,0.683814,0.457579,0.578784,0.424322,0.524958,91.766747,-12.671085,84.781467
49338,NaN,-0.844639,9.710705,0.476276,0.450977,-3.033072,-0.548024,-0.961782,-0.872736,0.578914,0.460687,0.580101,0.418168,0.525725,91.338552,-12.982789,84.257578
49339,NaN,-0.206922,9.779483,0.369374,0.312469,-2.460038,-0.343399,-0.809215,-0.885157,0.394868,0.463853,0.581372,0.412915,0.525688,90.999577,-13.189812,83.731532
49340,NaN,0.471044,10.420381,0.434018,0.371491,-1.981276,0.430886,-0.616622,-0.846403,0.190373,0.466889,0.582566,0.408825,0.524875,90.767782,-13.285100,83.229571
49341,NaN,1.048088,11.255205,0.857418,0.785725,-1.667871,1.372742,-0.615959,-0.683091,-0.050418,0.470223,0.582806,0.405824,0.523961,90.512709,-13.242922,82.827099
49342,NaN,1.317952,11.569656,1.038999,0.924854,-1.479141,1.747141,-0.745407,-0.441052,-0.281375,0.474025,0.581646,0.403703,0.523462,90.151534,-13.073967,82.566381
49343,NaN,1.397665,11.119330,0.528282,0.366019,-1.186496,1.337629,-0.778187,-0.322886,-0.449783,0.478128,0.579726,0.402271,0.522962,89.753804,-12.807441,82.375588
49344,NaN,1.633737,10.515022,-0.283214,-0.446620,-0.652192,0.802847,-0.561937,-0.212993,-0.590143,0.481727,0.577763,0.402053,0.521999,89.466761,-12.463903,82.245929
49345,NaN,1.109353,10.725541,-0.681040,-0.948522,-1.065352,0.896947,-0.285224,-0.035505,-0.853165,0.484860,0.575442,0.403750,0.520349,89.314418,-11.966313,82.218993
49346,NaN,0.693678,10.991812,-1.010422,-1.355585,-1.364144,1.078692,-0.301147,0.019108,-1.143906,0.488659,0.572358,0.406349,0.518169,89.148448,-11.304581,82.218920
49347,NaN,0.287256,11.065033,-1.020403,-1.439843,-1.621589,1.089311,-0.399526,0.028275,-1.496769,0.493624,0.568244,0.409721,0.515328,88.924757,-10.437764,82.219899
49348,NaN,0.115735,10.743954,-1.253668,-1.711494,-1.513554,0.760580,-0.667281,0.076334,-1.817922,0.500027,0.562665,0.413387,0.512340,88.545758,-9.389246,82.238633
49349,NaN,-0.021192,10.249928,-1.290070,-1.791039,-1.353022,0.271113,-0.821190,0.087493,-2.050690,0.507396,0.556108,0.417313,0.509062,88.078421,-8.204158,82.253417
49350,NaN,-0.586008,9.853707,-1.438288,-2.044981,-1.605844,-0.182416,-0.856463,0.072327,-2.294704,0.515432,0.548937,0.421715,0.505128,87.595645,-6.882587,82.242735
49351,NaN,-0.867942,9.610610,-1.271104,-1.951670,-1.635198,-0.418839,-0.826019,0.024073,-2.564020,0.524094,0.541284,0.426756,0.500217,87.133729,-5.405196,82.187661
49352,NaN,-0.809066,9.455353,-1.275550,-1.976727,-1.301227,-0.534840,-0.724489,-0.068880,-2.783794,0.533113,0.533577,0.432301,0.494167,86.735410,-3.808455,82.060075
49353,NaN,-0.236635,9.930752,-1.151069,-1.825622,-0.501237,0.006162,-0.481793,-0.201260,-2.823127,0.541770,0.526626,0.438126,0.487028,86.475959,-2.191273,81.847836
49354,NaN,0.206317,10.993927,-0.685887,-1.377493,0.129182,1.117005,-0.406753,-0.295481,-2.604877,0.549788,0.520507,0.443202,0.479977,86.256184,-0.706402,81.581669
49355,NaN,0.616833,11.453526,-0.463331,-1.144310,0.784401,1.582374,-0.668601,-0.332287,-2.281973,0.557717,0.514364,0.446653,0.474218,85.878861,0.594249,81.300904
49356,NaN,1.308374,11.250472,-0.556109,-1.168587,1.720519,1.334693,-0.990923,-0.334714,-1.760115,0.565162,0.508453,0.447918,0.470571,85.312474,1.591095,81.029585
49357,NaN,1.026810,10.185450,-0.935486,-1.591042,1.638611,0.209969,-1.286513,-0.384400,-1.227653,0.572174,0.502944,0.446969,0.468917,84.571291,2.281518,80.746678
49358,NaN,0.776492,9.050976,-1.109671,-1.800581,1.478930,-0.962628,-1.265573,-0.497415,-0.830694,0.578403,0.498635,0.444697,0.468037,83.838086,2.732275,80.411995
49359,NaN,0.768958,8.310773,-0.992268,-1.696787,1.484059,-1.715620,-1.091411,-0.703028,-0.492384,0.583841,0.496011,0.441386,0.467205,83.196698,2.976145,79.977842
49360,NaN,0.629456,7.867870,-0.973277,-1.716258,1.362314,-2.167751,-0.823859,-0.911028,-0.267912,0.588514,0.495152,0.437501,0.465906,82.702709,3.070373,79.437320
49361,NaN,0.824847,8.051954,-0.838447,-1.609006,1.579537,-1.993906,-0.538047,-1.051665,-0.187331,0.592587,0.495596,0.433669,0.463850,82.366973,3.107414,78.823371
49362,NaN,1.442882,8.385145,-0.623199,-1.340624,2.200191,-1.679869,-0.443574,-1.088982,-0.205999,0.596520,0.496371,0.429959,0.461428,82.084577,3.145875,78.185278
49363,NaN,1.751366,8.326521,-0.235571,-0.909394,2.451316,-1.712214,-0.502931,-0.963780,-0.297723,0.600530,0.496444,0.426715,0.459152,81.770133,3.245984,77.611937
49364,NaN,2.199853,8.028752,0.096961,-0.469641,2.828945,-1.996935,-0.529668,-0.744866,-0.398218,0.604346,0.495728,0.424287,0.457166,81.446527,3.415306,77.152622
49365,NaN,2.705501,7.444770,-0.700256,-1.058393,3.472433,-2.737620,-0.387677,-0.680962,-0.400145,0.607672,0.495259,0.422389,0.455017,81.204269,3.591669,76.729656
49366,NaN,3.423690,7.476743,-1.123614,-1.294192,4.300110,-2.832730,-0.048927,-0.443859,-0.458742,0.609776,0.495169,0.422104,0.452558,81.163713,3.818290,76.434370
49367,NaN,3.483187,8.111268,-1.154865,-1.365584,4.467948,-2.234343,0.201952,-0.129862,-0.621247,0.610963,0.494767,0.423757,0.449844,81.276175,4.167037,76.304179
49368,NaN,2.824507,8.603324,-0.846063,-1.251799,3.865930,-1.676474,0.205689,0.052504,-0.813785,0.612172,0.493569,0.426431,0.446981,81.397232,4.638384,76.260494
49369,NaN,3.221268,8.685996,-1.052031,-1.334825,4.375433,-1.688462,0.089506,0.147335,-0.981112,0.613832,0.491420,0.429552,0.444074,81.454257,5.214919,76.258056
49370,NaN,3.241424,8.957807,-1.348483,-1.624840,4.579319,-1.508692,0.017193,0.311801,-1.148316,0.615663,0.488325,0.433402,0.441204,81.478060,5.897959,76.334403
49371,NaN,3.316315,9.457888,-1.376296,-1.680168,4.829261,-1.083561,-0.126280,0.500844,-1.329488,0.617812,0.483944,0.437952,0.438526,81.430405,6.701725,76.503808
49372,NaN,3.168943,9.791247,-1.387345,-1.771388,4.867858,-0.812727,-0.404478,0.775034,-1.570182,0.620516,0.477557,0.443281,0.436351,81.243071,7.663869,76.806603
49373,NaN,3.056337,9.550479,-1.474465,-1.886793,4.888877,-1.137278,-0.657835,1.005759,-1.774979,0.623702,0.469368,0.449229,0.434607,80.931552,8.765398,77.220239
49374,NaN,2.926482,9.385521,-1.347796,-1.823894,4.866516,-1.359515,-0.705027,1.183995,-1.822145,0.626621,0.460493,0.455675,0.433189,80.616216,9.910516,77.726028
49375,NaN,2.781733,9.550259,-1.087925,-1.679455,4.864839,-1.231368,-0.669601,1.266511,-1.662700,0.628848,0.451846,0.462041,0.432323,80.341473,10.977308,78.290972
49376,NaN,2.831216,10.252797,-0.587181,-1.334811,5.115028,-0.564278,-0.617767,1.282561,-1.224478,0.629906,0.444301,0.467522,0.432710,80.115316,11.799242,78.905000
49377,NaN,2.075616,11.195998,-0.448252,-1.535669,4.687154,0.460120,-0.609593,1.287145,-0.710634,0.629776,0.437934,0.471867,0.434670,79.912364,12.335012,79.572836
49378,NaN,1.871345,12.717989,-0.214326,-1.640401,4.884306,1.966381,-0.768612,1.205545,-0.260712,0.629172,0.432285,0.474588,0.438221,79.622309,12.610505,80.238528
49379,NaN,2.393876,14.170300,-0.389843,-2.072907,5.774567,3.188649,-1.054830,1.050026,0.274708,0.628348,0.427321,0.475017,0.443773,79.162786,12.573088,80.871305
49380,NaN,2.516039,13.839622,-0.762638,-2.575100,5.804377,2.761883,-1.479025,0.903722,0.792683,0.627583,0.422551,0.472897,0.451618,78.452286,12.233789,81.478252
49381,NaN,2.733105,11.881450,-1.304119,-2.977992,5.504147,0.731011,-1.603542,0.774417,1.237884,0.626315,0.418692,0.469107,0.460832,77.662834,11.637795,82.068909
49382,NaN,2.075592,9.651606,-1.378977,-2.921798,4.234571,-1.275085,-1.293408,0.626628,1.664927,0.623689,0.417097,0.464613,0.470295,77.038495,10.791280,82.635468
49383,NaN,0.789859,8.634532,-0.987637,-2.618083,2.578099,-1.897478,-0.608393,0.370608,2.037819,0.619275,0.419060,0.460106,0.478738,76.781988,9.707827,83.111150
49384,NaN,0.095084,8.914667,-0.429695,-2.262624,1.725758,-1.353142,0.081778,0.055827,2.247481,0.613568,0.424343,0.455775,0.485527,76.886738,8.466857,83.436153
49385,NaN,-0.375436,9.325855,0.160862,-1.826554,1.078595,-0.722331,0.448751,-0.253027,2.347854,0.607454,0.431678,0.451119,0.491066,77.173076,7.128994,83.595082
49386,NaN,-0.591132,9.029432,0.638983,-1.297743,0.564331,-0.852687,0.643536,-0.480877,2.359146,0.601321,0.440121,0.446153,0.495636,77.551017,5.755418,83.618658
49387,NaN,-0.922011,8.501658,1.219613,-0.617036,-0.090849,-1.197415,0.908410,-0.585960,2.269659,0.594961,0.449357,0.441660,0.499036,78.074238,4.419014,83.561650
49388,NaN,-0.627341,8.008580,1.618434,-0.030689,-0.087282,-1.618918,1.267613,-0.769163,2.189546,0.588306,0.459862,0.437619,0.500912,78.795043,3.107331,83.377665
49389,NaN,-0.982777,8.744796,1.688399,-0.032899,-0.588117,-0.871976,1.801454,-0.792266,1.881154,0.581135,0.471244,0.435483,0.500566,79.823994,1.969705,83.128262
49390,NaN,-0.054007,10.579385,2.794150,1.008487,0.123450,1.082062,1.938111,-0.739624,1.264898,0.574978,0.481464,0.435215,0.498176,80.932759,1.190167,82.828315
49391,NaN,0.700283,10.883091,3.392897,1.820737,0.668204,1.442490,1.521968,-0.593738,0.620715,0.571040,0.488675,0.435838,0.495131,81.807616,0.793328,82.542429
49392,NaN,1.310237,10.659748,3.845466,2.532246,1.129048,1.252818,1.346547,-0.391829,0.146449,0.568234,0.493814,0.437729,0.491580,82.582929,0.685627,82.328413
49393,NaN,0.914392,11.350605,4.338430,3.025047,0.663331,1.972962,1.211632,-0.159749,-0.163197,0.565983,0.497306,0.440696,0.487992,83.283443,0.772987,82.223288
49394,NaN,0.535154,11.446251,4.081892,2.836600,0.342199,2.011033,0.830150,0.081054,-0.463216,0.564871,0.498448,0.444142,0.484983,83.765857,1.047918,82.236667
49395,NaN,0.301531,11.367471,4.261382,3.083867,0.151688,1.931894,0.571383,0.337420,-0.761778,0.564539,0.497568,0.448421,0.482329,84.103876,1.508179,82.380104
49396,NaN,0.995111,11.744432,4.452886,3.400610,0.932490,2.283384,0.430235,0.485552,-0.858594,0.564448,0.495696,0.453003,0.480076,84.363884,2.031598,82.604819
49397,NaN,1.549320,12.528917,4.716705,3.710137,1.587475,3.045599,0.249061,0.649545,-0.480490,0.563510,0.493767,0.456666,0.479694,84.526843,2.347391,82.946104
49398,NaN,0.413522,12.340618,4.681897,3.557416,0.524656,2.893660,-0.242713,0.937706,-0.014459,0.562003,0.490812,0.458801,0.482450,84.416419,2.413427,83.477796
49399,NaN,-0.001673,11.033970,3.903979,2.801956,0.166383,1.549976,-0.827152,1.170645,0.294306,0.560627,0.486346,0.459404,0.487968,83.977620,2.319115,84.159871
49400,NaN,0.511910,9.753987,2.793615,1.781834,0.723389,0.162643,-1.047889,1.316351,0.686289,0.558461,0.481770,0.458894,0.495414,83.413682,2.017087,84.950447
49401,NaN,0.923790,8.671406,1.611931,0.655435,1.144347,-1.043170,-1.074812,1.493441,1.089915,0.554899,0.477563,0.457793,0.504428,82.832966,1.505072,85.872154
49402,NaN,0.639159,7.534489,0.840492,-0.088112,0.794914,-2.246815,-0.889679,1.565052,1.538959,0.549530,0.474653,0.456229,0.514370,82.349458,0.752224,86.872329
49403,NaN,-0.465361,6.380385,0.251276,-0.635205,-0.408509,-3.455222,-0.499446,1.437385,1.954140,0.542376,0.474026,0.454265,0.524186,82.074356,-0.240112,87.836867
49404,NaN,-2.172317,5.998958,0.172003,-0.722199,-2.235103,-3.878283,0.130867,1.122531,2.159085,0.533828,0.476323,0.452547,0.532302,82.144595,-1.371277,88.640850
49405,NaN,-1.898338,6.580590,0.165003,-0.754632,-2.112579,-3.339648,0.707459,0.560136,2.330446,0.524640,0.481976,0.450385,0.538150,82.539459,-2.646356,89.134055
49406,NaN,-1.736800,7.109985,0.269242,-0.648357,-2.139269,-2.838393,1.035934,0.084219,2.476492,0.515254,0.490016,0.447432,0.542404,83.126622,-4.042221,89.356424
49407,NaN,-1.165451,7.409097,0.542228,-0.320831,-1.773347,-2.512300,1.277971,-0.286867,2.473957,0.506013,0.499591,0.444102,0.545100,83.866189,-5.463470,89.350735
49408,NaN,-0.552144,8.002272,1.160205,0.337943,-1.418186,-1.840381,1.389735,-0.456772,2.350145,0.497112,0.509537,0.440870,0.546704,84.682912,-6.823364,89.221165
49409,NaN,-0.307028,8.358430,1.325212,0.581389,-1.409597,-1.482935,1.331943,-0.586676,2.178310,0.489022,0.519226,0.437516,0.547578,85.483114,-8.089752,88.988560
49410,NaN,0.233928,8.100583,0.873783,0.272778,-1.003992,-1.728645,1.393248,-0.836874,2.014687,0.481687,0.529302,0.434068,0.547177,86.348834,-9.269198,88.585304
49411,NaN,0.122170,8.029371,0.536143,0.056688,-1.250662,-1.862680,1.578544,-0.849197,1.787591,0.474430,0.539279,0.431627,0.545703,87.334639,-10.312584,88.147038
49412,NaN,-0.589145,8.851034,0.961235,0.551601,-2.250966,-1.196572,1.752568,-0.796821,1.363463,0.467678,0.548529,0.430864,0.542908,88.426627,-11.103952,87.709716
49413,NaN,-0.502625,9.992898,1.562353,1.257476,-2.520846,-0.085751,1.429767,-0.726961,0.813315,0.463102,0.555590,0.430851,0.539652,89.334740,-11.571703,87.291990
49414,NaN,-0.446587,10.062972,1.688603,1.492922,-2.554168,-0.037162,0.831360,-0.700971,0.334981,0.461397,0.560132,0.430586,0.536620,89.900744,-11.760057,86.880980
49415,NaN,-1.159497,9.525266,1.760653,1.591987,-3.168006,-0.724001,0.455467,-0.666312,-0.118522,0.461875,0.562722,0.430654,0.533434,90.248015,-11.685132,86.489086
49416,NaN,-0.945310,9.354751,1.731572,1.606351,-2.900983,-0.845689,0.246473,-0.557215,-0.578690,0.463926,0.563539,0.431702,0.529934,90.460846,-11.345319,86.163221
49417,NaN,-0.967455,9.280547,1.781875,1.670521,-2.850312,-0.906278,0.064758,-0.425346,-0.958600,0.467201,0.562750,0.433637,0.526303,90.551593,-10.787194,85.917914
49418,NaN,-0.635342,9.462577,1.893400,1.811559,-2.475076,-0.640976,-0.007515,-0.311713,-1.191600,0.471029,0.560971,0.436286,0.522588,90.585894,-10.096431,85.741094
49419,NaN,-0.156783,10.252640,2.278509,2.235064,-2.064144,0.240947,-0.017485,-0.224669,-1.141395,0.474550,0.559026,0.438961,0.519236,90.603589,-9.434211,85.615525
49420,NaN,-0.103512,10.912779,2.668448,2.622681,-2.050036,0.917564,-0.211741,-0.024353,-0.807790,0.477293,0.556821,0.440658,0.517650,90.490710,-8.964983,85.603759
49421,NaN,-0.134334,11.087749,2.604691,2.523052,-2.037994,1.106151,-0.501706,0.205743,-0.303993,0.479030,0.554426,0.440750,0.518538,90.191186,-8.784434,85.722297
49422,NaN,0.199371,11.034056,2.083379,1.961939,-1.652588,1.121193,-0.725633,0.440550,0.328573,0.479219,0.552277,0.439060,0.522078,89.742889,-8.966283,85.975709
49423,NaN,-0.017990,10.096735,1.409452,1.198829,-1.720983,0.163818,-0.940483,0.616652,0.875481,0.478175,0.550328,0.435708,0.527869,89.152300,-9.457290,86.336650
49424,NaN,-0.307261,8.905366,0.714965,0.431007,-1.857956,-1.079315,-0.795891,0.659452,1.388192,0.475252,0.549702,0.431400,0.534655,88.634985,-10.239000,86.733354
49425,NaN,-2.141075,7.977031,0.531833,0.125068,-3.605692,-2.364090,-0.410017,0.421748,1.799213,0.470651,0.551463,0.426398,0.540889,88.355438,-11.255895,87.004856
49426,NaN,-3.168212,7.513381,0.274484,-0.180937,-4.637084,-3.102515,0.075222,-0.053379,1.945881,0.465279,0.555920,0.421143,0.545075,88.405386,-12.365019,87.003447
49427,NaN,-2.624683,7.646685,0.223559,-0.196558,-4.267882,-2.945745,0.597528,-0.551630,2.034434,0.459220,0.563068,0.415868,0.546923,88.820353,-13.530375,86.706411
49428,NaN,-1.962451,8.363612,0.352102,-0.014848,-3.949443,-2.175675,0.973376,-0.875834,1.999482,0.452806,0.571829,0.410913,0.546926,89.507070,-14.676965,86.204002
49429,NaN,-0.644931,9.131865,0.942245,0.705756,-3.072148,-1.166563,1.035442,-0.944735,1.759736,0.446959,0.580339,0.406612,0.545987,90.253073,-15.678399,85.643830
49430,NaN,0.539077,9.398501,1.535800,1.454304,-2.206243,-0.647741,0.819872,-0.766043,1.448290,0.442169,0.587196,0.402973,0.545252,90.858899,-16.497626,85.176511
49431,NaN,1.653566,9.102349,0.894270,0.981727,-1.138445,-0.640710,0.829028,-0.699691,1.198974,0.437875,0.593334,0.400218,0.544101,91.465715,-17.168131,84.741936
49432,NaN,3.305583,9.416162,0.305215,0.643592,0.272594,0.146886,1.279270,-0.567555,1.040679,0.432371,0.599752,0.399409,0.542057,92.314253,-17.747011,84.378597
49433,NaN,3.146783,10.949520,0.519651,1.018436,-0.477070,1.536123,1.760728,-0.154280,0.814153,0.425185,0.605574,0.401452,0.539754,93.365437,-18.200269,84.260443
49434,NaN,2.175305,13.486212,1.068899,1.749852,-2.335203,3.575080,1.746031,0.129527,0.527039,0.418200,0.609981,0.404883,0.537682,94.355152,-18.500151,84.315228
49435,NaN,0.638128,15.515798,1.219046,2.041892,-4.499243,4.959527,1.100394,0.195578,0.084609,0.414227,0.611916,0.408052,0.536161,94.955567,-18.549150,84.428100
49436,NaN,-0.711264,16.169896,1.203354,2.041346,-5.964746,5.143043,0.192189,-0.088259,-0.361517,0.414789,0.611823,0.409546,0.534691,95.083524,-18.331956,84.392432
49437,NaN,-1.638369,15.498143,0.638581,1.340482,-6.505359,4.299943,-0.472623,-0.442339,-0.728256,0.419098,0.610522,0.409656,0.532730,94.889237,-17.885433,84.164399
49438,NaN,-2.834527,14.670652,0.773844,1.215163,-7.258590,3.213955,-0.907282,-0.706130,-1.135018,0.426325,0.608168,0.409267,0.529979,94.487126,-17.197803,83.795550
49439,NaN,-3.367754,13.646686,0.977312,1.159346,-7.298869,2.183314,-1.277292,-0.962539,-1.555087,0.436291,0.604769,0.408604,0.526258,93.906578,-16.259529,83.288892
49440,NaN,-2.996616,13.005828,0.605474,0.629703,-6.507229,1.838405,-1.357476,-1.259041,-1.974904,0.448126,0.601042,0.408275,0.520810,93.317770,-15.078398,82.613409
49441,NaN,-2.013573,13.534240,-0.009977,-0.005837,-5.360253,2.776476,-1.140748,-1.446992,-2.269037,0.460388,0.597548,0.408909,0.513589,92.864073,-13.725740,81.830715
49442,NaN,-0.408524,14.907290,-0.232223,-0.103695,-3.789755,4.611708,-1.008354,-1.421048,-2.288096,0.472135,0.594149,0.409895,0.506025,92.467657,-12.371932,81.056553
49443,NaN,0.262827,15.669510,-0.037427,0.090345,-2.995941,5.569444,-1.072274,-1.220830,-1.968935,0.482786,0.590611,0.410187,0.499843,91.995132,-11.207371,80.387048
49444,NaN,0.852425,15.644344,0.150823,0.241281,-2.149544,5.705294,-1.313071,-0.925505,-1.593749,0.492514,0.586463,0.409404,0.495863,91.345198,-10.272827,79.872652
49445,NaN,0.894189,15.411209,-0.016284,-0.088605,-1.785926,5.520290,-1.567475,-0.549274,-1.215905,0.501245,0.581432,0.407779,0.494375,90.505135,-9.560999,79.564150
49446,NaN,0.341745,14.556490,-0.502324,-0.861984,-1.891018,4.607242,-1.811696,-0.337936,-0.886502,0.509367,0.575905,0.405060,0.494778,89.505722,-9.046792,79.365828
49447,NaN,-0.262569,13.050277,-1.087266,-1.715216,-1.979978,3.020590,-1.838427,-0.333222,-0.664145,0.516975,0.570661,0.401627,0.495761,88.488123,-8.659425,79.165222
49448,NaN,-0.498585,11.507157,-1.574364,-2.345270,-1.775973,1.433835,-1.589639,-0.478271,-0.481697,0.523648,0.566766,0.397860,0.496263,87.626678,-8.386693,78.876455
49449,NaN,-0.905147,10.746262,-1.632428,-2.562102,-1.967894,0.604987,-1.031266,-0.666711,-0.354259,0.528786,0.564992,0.394622,0.495421,87.097829,-8.191173,78.480591
49450,NaN,-0.669087,11.105952,-0.716373,-1.724207,-1.906707,1.036003,-0.512852,-0.779370,-0.393423,0.532743,0.564801,0.392447,0.493123,86.875940,-7.983396,78.015722
49451,NaN,-0.434352,11.430918,-0.268920,-1.302424,-1.747555,1.420127,-0.308700,-0.844642,-0.554415,0.536653,0.564954,0.391068,0.489792,86.773094,-7.682556,77.509400
49452,NaN,-0.333723,11.072563,-0.748136,-1.729317,-1.415908,1.062818,-0.185667,-1.084053,-0.774232,0.541182,0.565602,0.389932,0.484942,86.758254,-7.268563,76.856202
