// General information: 
//  MT Manager version: 2019.0.1 
//  XDA version: 2019.0.1 build 2740 rev 84096 built on 2019-01-30
// Device information: 
//  DeviceId: 00B43876
//  ProductCode: MTW2-3A7G6
//  Firmware Version: 4.3.4
//  Hardware Version: 1.1.0
// Device settings: 
//  Filter Profile: human(46.1)
//  Option Flags: Orientation Smoother Disabled, AHS Disabled, ICC Disabled
// Coordinate system: ENU
PacketCounter,SampleTimeFine,Acc_X,Acc_Y,Acc_Z,FreeAcc_E,FreeAcc_N,FreeAcc_U,Gyr_X,Gyr_Y,Gyr_Z,Quat_q0,Quat_q1,Quat_q2,Quat_q3,Roll,Pitch,Yaw
56069,NaN,0.766006,9.513353,-2.841723,-0.378263,0.068906,0.138102,0.053398,0.021581,0.015476,0.437255,0.604584,0.508692,0.429555,104.434552,-4.275213,83.468731
56070,NaN,0.637961,9.616926,-2.743369,-0.268321,-0.080812,0.204288,0.049575,0.065331,0.015230,0.436902,0.604616,0.508880,0.429646,104.462245,-4.294346,83.499764
56071,NaN,0.658117,9.711495,-2.575443,-0.076394,-0.089412,0.255347,0.056702,0.055305,0.014815,0.436553,0.604687,0.509067,0.429681,104.495321,-4.311297,83.525030
56072,NaN,0.638337,9.795675,-2.442770,0.074492,-0.134024,0.301972,0.053105,0.084717,0.025648,0.436119,0.604713,0.509271,0.429843,104.524280,-4.339001,83.564933
56073,NaN,0.609621,9.720057,-2.268299,0.226227,-0.175592,0.183028,0.054166,0.045317,0.032097,0.435765,0.604844,0.509379,0.429891,104.556493,-4.364127,83.582133
56074,NaN,0.779155,9.748589,-2.320265,0.207169,-0.010994,0.236326,0.057648,0.020743,0.040282,0.435450,0.605058,0.509407,0.429876,104.591139,-4.390683,83.583787
56075,NaN,0.722853,9.749759,-2.272061,0.252411,-0.076877,0.220904,0.045674,0.078408,0.038342,0.435024,0.605114,0.509549,0.430059,104.617128,-4.424071,83.618458
56076,NaN,0.632572,9.615753,-2.278108,0.207225,-0.158186,0.086033,0.030794,0.042247,0.045955,0.434720,0.605234,0.509552,0.430194,104.635348,-4.456975,83.631974
56077,NaN,0.697023,9.489467,-2.431266,0.039315,-0.073270,0.007697,0.039691,0.020323,0.039618,0.434458,0.605405,0.509551,0.430220,104.660404,-4.482681,83.634139
56078,NaN,0.925161,9.512823,-2.104940,0.386151,0.118035,-0.034270,-0.006512,0.018562,0.020340,0.434378,0.605427,0.509504,0.430325,104.658111,-4.498103,83.638946
56079,NaN,1.083103,9.311825,-1.782475,0.662415,0.267646,-0.296912,-0.075735,-0.073993,-0.018600,0.434830,0.605402,0.509225,0.430233,104.620474,-4.477879,83.597127
56080,NaN,1.394090,8.750246,-1.817266,0.519118,0.642824,-0.805466,-0.155766,-0.162914,-0.053068,0.435824,0.605303,0.508683,0.430008,104.539580,-4.426332,83.511401
56081,NaN,1.659642,8.374102,-2.113995,0.164190,0.980827,-1.074268,-0.104633,-0.122061,-0.086241,0.436631,0.605146,0.508442,0.429696,104.486623,-4.361778,83.452542
56082,NaN,1.596006,8.872173,-2.466890,-0.066402,0.908754,-0.511183,-0.010810,-0.036191,-0.083748,0.436934,0.605015,0.508574,0.429416,104.482765,-4.311503,83.440677
56083,NaN,0.875038,9.707611,-2.584982,-0.062851,0.128234,0.270225,-0.032765,0.066816,-0.076724,0.437022,0.604633,0.508871,0.429513,104.463119,-4.279317,83.485493
56084,NaN,0.134666,10.027956,-3.137854,-0.606233,-0.579408,0.662088,-0.049685,-0.079110,-0.063276,0.437506,0.604561,0.508765,0.429247,104.439136,-4.234354,83.447033
56085,NaN,0.384533,10.326859,-3.265737,-0.632421,-0.341750,1.001200,-0.033063,-0.047345,-0.050014,0.437828,0.604491,0.508731,0.429058,104.424334,-4.200655,83.424480
56086,NaN,0.244848,10.333283,-2.508691,0.078938,-0.547556,0.809185,-0.056327,0.119447,-0.025799,0.437746,0.604072,0.508933,0.429492,104.388795,-4.204783,83.491321
56087,NaN,0.195702,9.882847,-2.157929,0.298476,-0.583475,0.283653,-0.058709,-0.005715,-0.002073,0.437936,0.603979,0.508790,0.429598,104.358099,-4.203636,83.485064
56088,NaN,0.774672,9.566709,-2.303978,0.144139,0.035623,0.056877,-0.026404,-0.068921,0.006572,0.438173,0.604111,0.508546,0.429458,104.347686,-4.198836,83.442542
56089,NaN,0.791064,9.244798,-2.394005,-0.019208,0.091364,-0.230693,-0.020645,0.031807,0.016751,0.438113,0.604069,0.508510,0.429622,104.337463,-4.213467,83.454491
56090,NaN,0.641175,9.107205,-2.585594,-0.253833,-0.027883,-0.327310,0.019606,-0.008939,0.017039,0.438036,0.604200,0.508466,0.429569,104.351082,-4.222969,83.443871
56091,NaN,0.721300,9.403918,-2.803054,-0.379749,0.040277,0.019160,0.057078,-0.007456,0.015782,0.437843,0.604409,0.508513,0.429415,104.386989,-4.231485,83.434100
56092,NaN,0.711521,9.554970,-2.839380,-0.374879,0.015899,0.173554,0.045734,0.051506,0.018313,0.437534,0.604474,0.508650,0.429477,104.413186,-4.250200,83.456193
56093,NaN,0.664876,9.679193,-2.670860,-0.183072,-0.062183,0.248374,0.058361,0.066473,0.015654,0.437149,0.604527,0.508863,0.429542,104.446777,-4.269191,83.487567
56094,NaN,0.622404,9.771499,-2.395507,0.104613,-0.143164,0.265834,0.050467,0.092562,0.019593,0.436716,0.604516,0.509097,0.429721,104.474007,-4.294575,83.532660
56095,NaN,0.545679,9.708380,-2.254269,0.221580,-0.230551,0.163780,0.049602,0.057758,0.030895,0.436347,0.604607,0.509226,0.429815,104.503083,-4.320803,83.556977
56096,NaN,0.610570,9.684151,-2.390606,0.096689,-0.156331,0.179148,0.059181,0.004962,0.035517,0.436076,0.604843,0.509240,0.429742,104.539117,-4.342490,83.551133
56097,NaN,0.818012,9.698459,-2.431831,0.089615,0.046639,0.218904,0.061322,0.013641,0.041766,0.435760,0.605082,0.509264,0.429697,104.576873,-4.368422,83.549313
56098,NaN,0.745066,9.741467,-2.326430,0.198416,-0.045332,0.228336,0.047999,0.068957,0.042364,0.435346,0.605175,0.509372,0.429858,104.603978,-4.403049,83.577694
56099,NaN,0.636039,9.624635,-2.299450,0.187617,-0.149980,0.100330,0.037358,0.073692,0.037903,0.434958,0.605222,0.509487,0.430047,104.625392,-4.435519,83.609801
56100,NaN,0.788802,9.537590,-2.226517,0.256154,-0.000923,0.009716,0.019389,0.009582,0.030523,0.434803,0.605346,0.509444,0.430080,104.638416,-4.455191,83.607865
56101,NaN,1.058257,9.478433,-1.991273,0.498805,0.249426,-0.085676,-0.017207,-0.004777,0.004740,0.434852,0.605359,0.509371,0.430099,104.631562,-4.457929,83.601144
56102,NaN,1.251419,9.161578,-1.675324,0.743340,0.447896,-0.455653,-0.103857,-0.092303,-0.033954,0.435466,0.605269,0.509038,0.429999,104.577614,-4.427261,83.552211
56103,NaN,1.396991,8.590838,-1.958423,0.340466,0.683061,-0.924099,-0.137071,-0.131496,-0.062719,0.436344,0.605122,0.508635,0.429792,104.506737,-4.374366,83.484743
56104,NaN,1.781823,8.498064,-2.088119,0.230358,1.095079,-0.952668,-0.072834,-0.113813,-0.088597,0.437040,0.605007,0.508483,0.429428,104.470624,-4.310358,83.431126
56105,NaN,1.494194,9.054449,-2.453530,-0.024460,0.796733,-0.346955,-0.043768,0.013190,-0.085636,0.437317,0.604693,0.508666,0.429371,104.446814,-4.265545,83.447378
56106,NaN,0.523048,9.711629,-2.634737,-0.156750,-0.207464,0.260224,-0.061923,0.066798,-0.077237,0.437499,0.604248,0.508892,0.429543,104.409612,-4.233502,83.491437
56107,NaN,0.124454,10.139884,-3.155118,-0.605717,-0.588704,0.773814,-0.049351,-0.119101,-0.066861,0.438089,0.604254,0.508717,0.429142,104.388227,-4.180243,83.431343
56108,NaN,0.387740,10.428954,-3.073807,-0.431968,-0.355601,1.052333,-0.044294,-0.021648,-0.046507,0.438375,0.604112,0.508697,0.429073,104.365069,-4.152749,83.422476
56109,NaN,0.142409,10.279187,-2.419470,0.129815,-0.641524,0.728061,-0.074325,0.089101,-0.023119,0.438417,0.603727,0.508792,0.429459,104.321380,-4.153381,83.471986
56110,NaN,0.328773,9.858727,-2.145711,0.308085,-0.439553,0.267915,-0.068889,-0.039470,-0.007860,0.438737,0.603666,0.508566,0.429486,104.285234,-4.144841,83.448059
56111,NaN,0.761589,9.496011,-2.277799,0.139044,0.038644,-0.018720,-0.045058,-0.043110,0.001597,0.438974,0.603692,0.508359,0.429453,104.263893,-4.140460,83.420463
56112,NaN,0.605458,9.208496,-2.534744,-0.197674,-0.064374,-0.244789,-0.021841,0.022690,0.014762,0.438953,0.603664,0.508294,0.429589,104.252378,-4.152982,83.426284
56113,NaN,0.419131,9.089850,-2.792600,-0.495164,-0.215122,-0.309625,0.030628,-0.018852,0.019139,0.438862,0.603849,0.508250,0.429475,104.273610,-4.161772,83.409711
56114,NaN,0.696076,9.431181,-3.099676,-0.673014,0.052645,0.116258,0.083176,-0.039475,0.019095,0.438667,0.604190,0.508268,0.429173,104.324783,-4.168144,83.381703
56115,NaN,0.797385,9.646826,-2.843729,-0.355901,0.104248,0.269294,0.065540,0.088960,0.019851,0.438195,0.604222,0.508532,0.429298,104.361657,-4.192609,83.425022
56116,NaN,0.662884,9.649571,-2.469569,-0.004349,-0.069234,0.169677,0.060164,0.109174,0.015444,0.437699,0.604184,0.508838,0.429494,104.393676,-4.217973,83.480259
56117,NaN,0.689719,9.638817,-2.244921,0.218619,-0.066479,0.105476,0.067768,0.060678,0.013723,0.437305,0.604265,0.509064,0.429514,104.432890,-4.235056,83.508689
56118,NaN,0.633527,9.643864,-2.252537,0.212383,-0.126125,0.107916,0.068254,0.074470,0.021455,0.436863,0.604339,0.509289,0.429593,104.471124,-4.258766,83.542814
56119,NaN,0.395124,9.599289,-2.391603,0.047463,-0.350039,0.081626,0.071141,0.034868,0.030835,0.436487,0.604526,0.509414,0.429563,104.513502,-4.281680,83.554405
56120,NaN,0.455888,9.606676,-2.637214,-0.173284,-0.272758,0.154585,0.080644,-0.030869,0.035458,0.436238,0.604882,0.509401,0.429331,104.563344,-4.298344,83.529725
56121,NaN,0.618413,9.621489,-2.901537,-0.397484,-0.093785,0.247511,0.091349,0.005040,0.039918,0.435857,0.605200,0.509476,0.429180,104.618640,-4.322010,83.523376
56122,NaN,0.927179,9.741341,-2.515297,0.045611,0.159875,0.289415,0.056192,0.037728,0.036171,0.435506,0.605359,0.509557,0.429216,104.651798,-4.348879,83.536333
56123,NaN,0.971373,9.792497,-1.953004,0.607231,0.144211,0.200367,0.004014,0.111338,-0.000851,0.435206,0.605154,0.509800,0.429520,104.652123,-4.365344,83.594978
56124,NaN,0.729398,9.357317,-1.574882,0.834246,-0.083712,-0.332779,-0.097027,0.036258,-0.051066,0.435510,0.604759,0.509813,0.429754,104.596413,-4.343642,83.619904
56125,NaN,0.643150,8.643571,-1.613964,0.604812,-0.086672,-1.017432,-0.129484,-0.021683,-0.091175,0.436147,0.604319,0.509752,0.429799,104.524875,-4.290764,83.617643
56126,NaN,1.247587,8.286083,-2.084755,0.125691,0.600896,-1.199618,-0.059628,-0.156732,-0.113804,0.436963,0.604258,0.509615,0.429219,104.497846,-4.206578,83.544569
56127,NaN,1.843747,9.054225,-2.504535,-0.026079,1.165921,-0.310528,0.024246,-0.028375,-0.119070,0.437212,0.604096,0.509954,0.428790,104.514365,-4.137268,83.542551
56128,NaN,1.532665,10.039831,-2.521114,0.160358,0.771859,0.621956,-0.036531,0.110956,-0.091611,0.437231,0.603572,0.510379,0.429003,104.490044,-4.103692,83.614068
56129,NaN,1.167793,10.316799,-2.593240,0.111929,0.396284,0.881021,-0.066051,-0.019042,-0.047558,0.437575,0.603375,0.510328,0.428989,104.455189,-4.075393,83.606934
56130,NaN,0.614645,10.164253,-2.925448,-0.313338,-0.103090,0.776895,-0.079179,-0.010125,-0.017982,0.437874,0.603205,0.510174,0.429107,104.412041,-4.065361,83.600471
56131,NaN,0.089002,9.924688,-2.649135,-0.170771,-0.624648,0.439430,-0.087116,0.067173,-0.010609,0.437983,0.602871,0.510155,0.429487,104.362088,-4.069854,83.635990
56132,NaN,-0.086364,9.627245,-2.146607,0.215585,-0.815610,0.015208,-0.075583,0.065403,0.000360,0.438035,0.602588,0.510123,0.429868,104.317984,-4.080811,83.670009
56133,NaN,0.193563,9.475977,-2.330819,0.028020,-0.507206,-0.065571,-0.027422,-0.090826,0.015586,0.438311,0.602791,0.509807,0.429678,104.308745,-4.077420,83.613876
56134,NaN,0.880665,9.323245,-2.801175,-0.385888,0.231726,-0.048342,0.008504,-0.122120,0.023588,0.438540,0.603156,0.509473,0.429328,104.320461,-4.074580,83.539701
56135,NaN,1.023519,9.321853,-2.863796,-0.428425,0.377840,-0.023941,0.020767,0.032731,0.023638,0.438338,0.603220,0.509507,0.429405,104.334021,-4.093164,83.551190
56136,NaN,0.630663,9.429446,-2.596630,-0.186801,-0.050248,-0.013848,0.034115,0.069993,0.020918,0.438010,0.603225,0.509653,0.429559,104.352884,-4.115959,83.583549
56137,NaN,0.660385,9.489710,-2.616159,-0.183832,-0.027969,0.051409,0.050789,-0.000445,0.012779,0.437824,0.603398,0.509712,0.429435,104.384854,-4.123807,83.578111
56138,NaN,0.698088,9.628243,-2.618854,-0.144058,-0.006928,0.188712,0.055709,0.079424,0.014139,0.437419,0.603412,0.509948,0.429549,104.415686,-4.144283,83.617074
56139,NaN,0.382027,9.687646,-2.410716,0.040480,-0.349479,0.171510,0.046697,0.125671,0.018333,0.436913,0.603319,0.510256,0.429828,104.440285,-4.173212,83.680998
56140,NaN,0.364693,9.678763,-2.405933,0.045821,-0.370836,0.160293,0.056619,0.009467,0.027249,0.436654,0.603517,0.510302,0.429758,104.474554,-4.190978,83.679282
56141,NaN,0.650475,9.751937,-2.537576,-0.025713,-0.086948,0.284563,0.068989,-0.014024,0.035796,0.436400,0.603817,0.510301,0.429597,104.517756,-4.209635,83.662963
56142,NaN,0.694774,9.760782,-2.507982,0.015601,-0.051485,0.288928,0.049517,0.036189,0.041028,0.436061,0.603974,0.510352,0.429660,104.546939,-4.239059,83.674986
56143,NaN,0.729062,9.747953,-2.204684,0.312668,-0.048098,0.203034,0.036002,0.050591,0.030461,0.435752,0.604049,0.510436,0.429767,104.568535,-4.264045,83.695349
56144,NaN,1.439912,9.724607,-1.521476,1.044105,0.597043,0.062008,-0.033567,-0.061691,-0.000830,0.436006,0.604132,0.510220,0.429650,104.553978,-4.256021,83.658347
56145,NaN,1.670718,9.410120,-1.432993,1.072841,0.852093,-0.246180,-0.117960,-0.018023,-0.038978,0.436486,0.603842,0.510034,0.429791,104.489446,-4.232622,83.650568
56146,NaN,1.316884,8.766448,-1.520080,0.782820,0.577698,-0.871274,-0.155323,0.062697,-0.057879,0.436911,0.603243,0.510001,0.430240,104.399205,-4.210927,83.691449
56147,NaN,1.314637,8.596461,-1.951945,0.315861,0.637388,-0.928349,-0.085977,-0.110677,-0.071592,0.437601,0.603138,0.509779,0.429948,104.356417,-4.156264,83.636702
56148,NaN,1.095598,9.185777,-2.826614,-0.415255,0.448984,-0.158955,-0.032679,-0.011419,-0.069129,0.437870,0.602939,0.509879,0.429835,104.339273,-4.117769,83.637546
56149,NaN,0.244122,9.668851,-3.316935,-0.871257,-0.392157,0.367463,-0.066080,0.056346,-0.057510,0.438044,0.602555,0.510023,0.430026,104.301301,-4.094649,83.673711
56150,NaN,0.196114,9.856349,-3.571288,-1.082255,-0.429259,0.607708,-0.045404,-0.054278,-0.052083,0.438427,0.602467,0.509946,0.429849,104.278829,-4.059410,83.647418
56151,NaN,0.522423,10.142186,-3.168760,-0.592753,-0.164822,0.808018,-0.024083,0.073697,-0.034961,0.438382,0.602194,0.510150,0.430035,104.264495,-4.051231,83.690028
56152,NaN,0.299721,9.959426,-2.365496,0.109674,-0.440186,0.418137,-0.071993,0.154628,-0.012448,0.438221,0.601695,0.510361,0.430647,104.219020,-4.067631,83.775601
56153,NaN,0.398476,9.657405,-2.009103,0.386937,-0.345964,0.045879,-0.047661,0.037908,-0.000019,0.438263,0.601537,0.510331,0.430862,104.192930,-4.073780,83.793347
56154,NaN,0.650430,9.420400,-2.203306,0.167565,-0.057282,-0.117833,-0.017915,-0.018844,0.011476,0.438332,0.601590,0.510205,0.430866,104.185403,-4.078933,83.778927
56155,NaN,0.730845,9.357626,-2.391447,-0.020672,0.043597,-0.126822,0.003271,0.028377,0.011701,0.438219,0.601594,0.510228,0.430948,104.188987,-4.090248,83.789718
56156,NaN,0.532346,9.406301,-2.549870,-0.182276,-0.146417,-0.055174,0.024095,0.019147,0.018509,0.438050,0.601677,0.510255,0.430972,104.204298,-4.104656,83.795122
56157,NaN,0.686700,9.448595,-2.806308,-0.399699,0.023010,0.059627,0.041763,-0.029848,0.015794,0.437961,0.601902,0.510221,0.430790,104.232295,-4.110057,83.772908
56158,NaN,0.789083,9.634738,-2.812128,-0.345505,0.104661,0.248553,0.050822,0.045114,0.017493,0.437648,0.601984,0.510364,0.430822,104.261744,-4.127482,83.792891
56159,NaN,0.482636,9.637216,-2.499223,-0.071762,-0.231225,0.152069,0.038942,0.103715,0.023469,0.437210,0.601934,0.510593,0.431065,104.282847,-4.155990,83.843943
56160,NaN,0.359141,9.610125,-2.368476,0.039166,-0.367096,0.084628,0.056196,0.014576,0.029704,0.436932,0.602125,0.510646,0.431018,104.316874,-4.175908,83.845295
56161,NaN,0.646843,9.728687,-2.396578,0.077835,-0.094813,0.226948,0.075270,-0.045462,0.041238,0.436727,0.602521,0.510574,0.430758,104.364998,-4.193170,83.810756
56162,NaN,0.759923,9.813904,-2.402798,0.111777,0.005229,0.319001,0.070269,0.004590,0.035672,0.436420,0.602779,0.510615,0.430659,104.407366,-4.214972,83.805598
56163,NaN,0.980120,9.903788,-1.974063,0.575653,0.173615,0.315544,0.028240,0.025890,0.027677,0.436204,0.602884,0.510638,0.430704,104.425502,-4.234842,83.812677
56164,NaN,1.282429,9.821752,-1.617482,0.932691,0.448537,0.170127,-0.028297,-0.015902,0.006956,0.436305,0.602897,0.510512,0.430733,104.412170,-4.237825,83.800625
56165,NaN,1.352375,9.480140,-1.539561,0.928732,0.545345,-0.173586,-0.085524,-0.010028,-0.011312,0.436607,0.602731,0.510329,0.430875,104.366187,-4.230940,83.793292
56166,NaN,1.021987,8.899979,-1.725990,0.566457,0.293123,-0.711791,-0.105618,-0.029764,-0.021709,0.437039,0.602532,0.510092,0.430997,104.308645,-4.216118,83.777558
56167,NaN,0.946373,8.596901,-2.439883,-0.208629,0.315089,-0.834238,-0.057989,-0.130927,-0.045272,0.437640,0.602600,0.509806,0.430631,104.283004,-4.173285,83.707727
56168,NaN,1.077424,8.947916,-2.731030,-0.393168,0.442917,-0.414081,-0.006090,-0.034291,-0.051319,0.437847,0.602553,0.509861,0.430420,104.282437,-4.141444,83.693503
56169,NaN,0.657499,9.438071,-2.823813,-0.413094,-0.007975,0.052032,-0.028747,0.038063,-0.048616,0.437936,0.602312,0.510018,0.430480,104.266663,-4.120653,83.718214
56170,NaN,0.505359,9.649001,-3.170000,-0.716443,-0.143496,0.329976,-0.041381,-0.075815,-0.039649,0.438333,0.602310,0.509869,0.430257,104.247583,-4.089350,83.678603
56171,NaN,0.752802,9.960302,-3.108117,-0.557794,0.071539,0.633291,-0.021387,-0.007406,-0.033540,0.438483,0.602221,0.509896,0.430195,104.238001,-4.070509,83.675855
56172,NaN,0.498871,10.094671,-2.553885,-0.022323,-0.241033,0.609164,-0.049750,0.122187,-0.022725,0.438364,0.601818,0.510112,0.430625,104.206660,-4.076394,83.743969
56173,NaN,0.259133,9.833435,-2.164142,0.260617,-0.488567,0.244175,-0.059315,0.059449,-0.006454,0.438399,0.601572,0.510123,0.430920,104.172971,-4.081991,83.774620
56174,NaN,0.500734,9.635035,-2.222738,0.179286,-0.225067,0.083898,-0.027550,-0.028576,0.005604,0.438538,0.601613,0.509970,0.430903,104.160307,-4.082425,83.754811
56175,NaN,0.722214,9.490779,-2.411109,-0.014433,0.024435,0.006127,-0.017864,0.020770,0.006022,0.438520,0.601573,0.509948,0.431003,104.152024,-4.089515,83.762170
56176,NaN,0.614273,9.403403,-2.411697,-0.047881,-0.076081,-0.085945,0.008027,0.062757,0.008637,0.438314,0.601504,0.510061,0.431175,104.156178,-4.104385,83.792499
56177,NaN,0.571034,9.400780,-2.579683,-0.213741,-0.106230,-0.050590,0.025423,0.005195,0.013738,0.438189,0.601612,0.510075,0.431135,104.173393,-4.113579,83.790098
56178,NaN,0.723637,9.438662,-2.781387,-0.379916,0.056785,0.046346,0.038520,0.011955,0.017750,0.437998,0.601742,0.510118,0.431098,104.197289,-4.126460,83.791317
56179,NaN,0.628915,9.579083,-2.700114,-0.274064,-0.061370,0.155568,0.053873,0.082289,0.019290,0.437578,0.601759,0.510345,0.431229,104.227764,-4.149581,83.831058
56180,NaN,0.430078,9.745256,-2.391635,0.046911,-0.305918,0.226193,0.057583,0.075220,0.020725,0.437164,0.601803,0.510556,0.431338,104.259983,-4.172934,83.866691
56181,NaN,0.528229,9.738389,-2.250612,0.197335,-0.224102,0.191879,0.053130,0.014679,0.025921,0.436906,0.601982,0.510614,0.431283,104.292818,-4.190228,83.867827
56182,NaN,0.764810,9.783587,-2.197746,0.289680,-0.002036,0.239659,0.054048,0.003585,0.026814,0.436663,0.602180,0.510651,0.431206,104.326018,-4.207132,83.864473
56183,NaN,1.200643,9.884233,-1.647425,0.895478,0.370535,0.232930,0.024315,0.006745,0.015093,0.436535,0.602286,0.510662,0.431177,104.342555,-4.217292,83.862714
56184,NaN,1.259165,9.816104,-1.506490,1.020101,0.422563,0.136772,-0.061339,-0.018859,-0.004139,0.436773,0.602210,0.510486,0.431250,104.310295,-4.213514,83.849292
56185,NaN,1.109538,9.401997,-1.408871,0.991692,0.307842,-0.297683,-0.123624,-0.018550,-0.013623,0.437216,0.601973,0.510209,0.431459,104.242804,-4.204157,83.837529
56186,NaN,1.003001,9.088547,-1.759774,0.557220,0.267652,-0.521705,-0.123700,-0.158980,-0.040889,0.438073,0.601963,0.509708,0.431197,104.179947,-4.160539,83.752617
56187,NaN,1.098199,9.057521,-2.562724,-0.222039,0.443248,-0.348729,-0.076100,-0.100500,-0.054999,0.438671,0.601901,0.509478,0.430947,104.142545,-4.116732,83.701005
56188,NaN,0.755661,9.283415,-2.878989,-0.517556,0.115927,-0.078208,-0.068457,0.047722,-0.049237,0.438851,0.601544,0.509574,0.431149,104.102808,-4.097638,83.732579
56189,NaN,0.405697,9.368077,-3.077197,-0.732510,-0.216974,0.026568,-0.054662,-0.032762,-0.042430,0.439185,0.601414,0.509500,0.431076,104.075082,-4.070329,83.716898
56190,NaN,0.675776,9.653330,-3.234229,-0.790554,0.043657,0.359667,-0.024123,-0.099869,-0.035701,0.439585,0.601511,0.509322,0.430745,104.066704,-4.037888,83.663116
56191,NaN,0.843509,9.804334,-3.100908,-0.610225,0.188653,0.485086,-0.044076,0.013775,-0.034329,0.439750,0.601325,0.509349,0.430803,104.043285,-4.021567,83.672219
56192,NaN,0.657451,9.829982,-2.541177,-0.088722,-0.046529,0.361217,-0.051823,0.112654,-0.034437,0.439688,0.600908,0.509574,0.431182,104.010995,-4.019373,83.736542
56193,NaN,0.474614,9.719806,-2.212938,0.177460,-0.245535,0.162542,-0.056210,0.060440,-0.022654,0.439746,0.600624,0.509643,0.431436,103.978920,-4.015999,83.770014
56194,NaN,0.475628,9.624546,-2.282806,0.083245,-0.227987,0.087333,-0.041554,0.017523,-0.019230,0.439864,0.600472,0.509635,0.431539,103.956068,-4.009031,83.779284
56195,NaN,0.521767,9.549575,-2.427384,-0.071818,-0.161634,0.052785,-0.023722,0.048289,-0.010454,0.439829,0.600317,0.509710,0.431700,103.943203,-4.010736,83.804291
56196,NaN,0.492836,9.584664,-2.335763,0.020253,-0.202100,0.062696,-0.007963,0.051779,-0.006987,0.439728,0.600193,0.509817,0.431850,103.938588,-4.015405,83.831794
56197,NaN,0.512612,9.669617,-2.348408,0.029775,-0.189850,0.149358,0.000036,-0.008042,0.004412,0.439733,0.600250,0.509776,0.431815,103.941675,-4.017597,83.823342
56198,NaN,0.705883,9.744501,-2.487181,-0.065670,0.006284,0.268745,0.004726,-0.015638,0.010100,0.439733,0.600345,0.509707,0.431763,103.947034,-4.022287,83.810055
56199,NaN,0.656231,9.790494,-2.309882,0.111949,-0.064409,0.267158,0.007296,0.032402,0.013202,0.439594,0.600353,0.509743,0.431850,103.952784,-4.034952,83.822930
56200,NaN,0.526140,9.854408,-2.046139,0.368074,-0.224841,0.256416,-0.002738,-0.003523,0.021759,0.439560,0.600437,0.509650,0.431879,103.953676,-4.047792,83.814714
56201,NaN,0.663165,9.820063,-2.021265,0.398801,-0.089140,0.226832,-0.011529,-0.087565,0.018608,0.439772,0.600676,0.509366,0.431665,103.953408,-4.046889,83.759966
56202,NaN,0.909857,9.815967,-1.910275,0.529822,0.146113,0.213685,-0.049682,-0.069364,0.010956,0.440069,0.600772,0.509059,0.431591,103.930028,-4.044622,83.716460
56203,NaN,1.023471,9.673577,-1.572129,0.829796,0.243821,0.003073,-0.105338,-0.079004,-0.012225,0.440607,0.600708,0.508684,0.431574,103.875366,-4.027798,83.670741
56204,NaN,1.109410,9.393140,-1.530299,0.805085,0.355984,-0.271787,-0.138366,-0.133006,-0.027000,0.441415,0.600648,0.508158,0.431452,103.803031,-3.995813,83.597042
56205,NaN,0.942183,9.393353,-1.822702,0.494136,0.223061,-0.213151,-0.114699,-0.141773,-0.033131,0.442185,0.600644,0.507686,0.431223,103.745192,-3.958894,83.519133
56206,NaN,0.792205,9.618154,-1.950828,0.396511,0.072767,0.024979,-0.106817,-0.212190,-0.036518,0.443122,0.600801,0.507078,0.430759,103.693663,-3.910904,83.401868
56207,NaN,0.891569,9.665230,-2.043394,0.321155,0.184583,0.099416,-0.123465,-0.276228,-0.029204,0.444250,0.601076,0.506276,0.430156,103.635798,-3.858121,83.248336
56208,NaN,0.834914,9.763668,-2.123833,0.249691,0.136700,0.210082,-0.139945,-0.301370,-0.021593,0.445480,0.601387,0.505351,0.429537,103.568571,-3.806614,83.078936
56209,NaN,0.906996,9.768694,-2.120133,0.252015,0.216939,0.218982,-0.165270,-0.327529,-0.014369,0.446828,0.601713,0.504298,0.428917,103.488504,-3.755582,82.894664
56210,NaN,1.042909,9.613549,-2.108769,0.232814,0.373902,0.074722,-0.171284,-0.321707,-0.006417,0.448174,0.602035,0.503205,0.428344,103.403558,-3.710098,82.710803
56211,NaN,1.139984,9.650699,-2.090569,0.259606,0.472561,0.112801,-0.157881,-0.331487,0.011719,0.449452,0.602447,0.502077,0.427748,103.327811,-3.673608,82.520732
56212,NaN,1.241310,9.515031,-2.146633,0.177619,0.597874,0.000350,-0.164721,-0.306497,0.025759,0.450673,0.602832,0.500927,0.427269,103.246045,-3.648421,82.339938
56213,NaN,1.280969,9.634834,-2.133420,0.211694,0.628478,0.116189,-0.135329,-0.263160,0.045667,0.451637,0.603231,0.499896,0.426897,103.180923,-3.640318,82.183515
56214,NaN,1.401279,9.731709,-1.913055,0.451672,0.713181,0.168138,-0.154412,-0.258697,0.074494,0.452606,0.603659,0.498720,0.426640,103.103589,-3.648888,82.021896
56215,NaN,1.609301,9.586418,-2.069635,0.286436,0.949308,0.076166,-0.158959,-0.243904,0.095840,0.453483,0.604086,0.497528,0.426496,103.024700,-3.671688,81.869707
56216,NaN,1.639112,9.898787,-2.001851,0.412242,0.936077,0.367385,-0.119572,-0.152122,0.116738,0.453992,0.604467,0.496538,0.426569,102.963662,-3.717989,81.762366
56217,NaN,1.679740,10.086244,-1.958275,0.488454,0.944083,0.543894,-0.150196,-0.155079,0.148105,0.454508,0.604852,0.495406,0.426789,102.887216,-3.781727,81.653216
56218,NaN,1.884099,9.990585,-1.920667,0.518351,1.137753,0.458017,-0.179930,-0.071637,0.178794,0.454843,0.605066,0.494301,0.427410,102.790324,-3.874040,81.586908
56219,NaN,1.736469,10.015870,-1.691303,0.703853,0.944113,0.424825,-0.201173,0.006536,0.203084,0.454995,0.605124,0.493260,0.428368,102.679272,-3.989279,81.561521
56220,NaN,1.807988,9.834351,-1.526421,0.812927,0.993415,0.220529,-0.238059,-0.053841,0.223315,0.455364,0.605276,0.491934,0.429286,102.548969,-4.109050,81.499937
56221,NaN,2.064803,9.691873,-1.420200,0.899458,1.228750,0.081444,-0.256266,-0.042838,0.235391,0.455733,0.605391,0.490561,0.430301,102.408727,-4.236361,81.443355
56222,NaN,1.968665,9.697992,-1.339541,0.937110,1.103010,0.067907,-0.279300,-0.011886,0.245700,0.456072,0.605410,0.489171,0.431496,102.253420,-4.374184,81.403136
56223,NaN,2.056229,9.649862,-1.395552,0.857706,1.181350,0.044499,-0.299261,-0.117278,0.263936,0.456688,0.605653,0.487446,0.432454,102.092264,-4.508788,81.301939
56224,NaN,2.347878,9.639114,-1.655005,0.619129,1.482538,0.116197,-0.305509,-0.104367,0.285723,0.457243,0.605904,0.485662,0.433522,101.926567,-4.658328,81.205688
56225,NaN,2.218510,9.821964,-1.635095,0.622324,1.307843,0.285253,-0.314330,0.000773,0.313220,0.457507,0.605971,0.484021,0.434982,101.752237,-4.835031,81.165850
56226,NaN,1.968691,9.966603,-1.606974,0.603809,1.013048,0.404956,-0.324762,-0.018785,0.352800,0.457762,0.606150,0.482182,0.436505,101.572525,-5.032804,81.110846
56227,NaN,1.879744,9.934237,-1.623023,0.531747,0.899469,0.373808,-0.344371,-0.012375,0.385183,0.457987,0.606344,0.480222,0.438158,101.382559,-5.248662,81.056455
56228,NaN,1.788025,9.909671,-1.338934,0.750382,0.739903,0.290807,-0.355398,-0.029478,0.399090,0.458252,0.606580,0.478144,0.439823,101.186611,-5.471672,80.991467
56229,NaN,1.870744,9.729816,-1.406751,0.626036,0.818561,0.141496,-0.390296,-0.105090,0.410326,0.458777,0.606923,0.475787,0.441356,100.975972,-5.691827,80.883377
56230,NaN,1.921843,9.612009,-1.432513,0.548510,0.853370,0.041599,-0.385391,-0.073186,0.414796,0.459196,0.607214,0.473488,0.442989,100.765825,-5.919471,80.793527
56231,NaN,1.831877,9.767821,-1.494527,0.459971,0.719030,0.200848,-0.382180,-0.089685,0.423164,0.459623,0.607563,0.471138,0.444571,100.559751,-6.149268,80.694323
56232,NaN,1.738493,9.833834,-1.636448,0.276688,0.602613,0.285068,-0.383844,-0.091482,0.439968,0.460017,0.607947,0.468715,0.446196,100.352445,-6.389889,80.593043
56233,NaN,1.657831,9.874290,-1.593077,0.269716,0.473675,0.311072,-0.393261,-0.043112,0.471019,0.460254,0.608268,0.466293,0.448048,100.138234,-6.652126,80.516955
56234,NaN,1.328825,9.800833,-1.568452,0.183587,0.117397,0.199023,-0.407399,-0.050340,0.493618,0.460494,0.608620,0.463740,0.449968,99.916014,-6.927902,80.435368
56235,NaN,1.019110,9.670032,-1.609504,0.027544,-0.202184,0.041076,-0.403401,-0.067223,0.506039,0.460730,0.609041,0.461124,0.451842,99.698588,-7.208129,80.344055
56236,NaN,0.741354,9.642722,-1.445464,0.092379,-0.535002,-0.049184,-0.395643,-0.078612,0.508952,0.460956,0.609507,0.458476,0.453675,99.485887,-7.490465,80.246902
56237,NaN,0.597271,9.322919,-1.444717,-0.020262,-0.665615,-0.383105,-0.411644,-0.163626,0.493705,0.461455,0.610086,0.455647,0.455236,99.271490,-7.755388,80.103773
56238,NaN,0.596352,9.083761,-1.675877,-0.320455,-0.628743,-0.583349,-0.386189,-0.211436,0.457952,0.462063,0.610746,0.452861,0.456514,99.074573,-7.997394,79.937458
56239,NaN,0.479496,9.168081,-1.862184,-0.549791,-0.759326,-0.492156,-0.349369,-0.171016,0.433126,0.462518,0.611335,0.450333,0.457762,98.896657,-8.228339,79.797250
56240,NaN,0.364932,9.310974,-1.938584,-0.663124,-0.912138,-0.362099,-0.338173,-0.182393,0.401700,0.463034,0.611902,0.447887,0.458883,98.725276,-8.442019,79.653910
56241,NaN,0.248507,9.379126,-1.884295,-0.659000,-1.072089,-0.326039,-0.340996,-0.157027,0.374839,0.463559,0.612338,0.445582,0.460013,98.551065,-8.641989,79.528052
56242,NaN,0.114682,9.373219,-1.854863,-0.692267,-1.230621,-0.361916,-0.345558,-0.130451,0.350766,0.464091,0.612646,0.443390,0.461183,98.371132,-8.831959,79.420019
56243,NaN,-0.076308,9.233903,-1.974465,-0.896955,-1.393633,-0.516322,-0.352980,-0.146652,0.308592,0.464777,0.612876,0.441278,0.462212,98.188906,-8.995998,79.306790
56244,NaN,-0.342742,9.044066,-2.284075,-1.305364,-1.584554,-0.706937,-0.339147,-0.109404,0.257877,0.465452,0.612936,0.439430,0.463211,98.010031,-9.135535,79.219570
56245,NaN,-0.824270,8.667098,-2.512302,-1.691648,-1.957511,-1.128446,-0.343245,-0.035933,0.192893,0.466127,0.612672,0.437948,0.464284,97.822123,-9.243359,79.180210
56246,NaN,-1.435174,8.217997,-2.636692,-2.004156,-2.453751,-1.657338,-0.332070,0.016770,0.114024,0.466835,0.612136,0.436849,0.465315,97.634062,-9.311347,79.177680
56247,NaN,-2.229349,7.784866,-2.898486,-2.475253,-3.101837,-2.182022,-0.257503,0.023046,0.021699,0.467513,0.611557,0.436226,0.465979,97.487646,-9.326622,79.186010
56248,NaN,-3.099360,7.496373,-3.090882,-2.869270,-3.854611,-2.583273,-0.188342,-0.012546,-0.094101,0.468328,0.610968,0.436030,0.466117,97.382208,-9.273970,79.182605
56249,NaN,-2.706609,7.393450,-3.731446,-3.437813,-3.334286,-2.534195,0.064326,-0.238907,-0.165433,0.469029,0.611343,0.436114,0.464840,97.442106,-9.163538,79.054204
56250,NaN,-0.048955,8.015612,-3.960177,-3.083343,-0.803837,-1.459123,0.334412,-0.702045,-0.207346,0.470008,0.613329,0.435862,0.461458,97.697547,-8.994217,78.663023
56251,NaN,2.719909,8.685241,-5.120319,-3.562384,2.001963,-0.202794,0.365970,-0.591566,-0.332398,0.470930,0.614854,0.436321,0.458043,97.958606,-8.760575,78.346144
56252,NaN,3.945221,11.352476,-3.573666,-1.483661,2.480209,2.388203,0.281050,0.111646,-0.345682,0.470605,0.614533,0.438276,0.456940,98.108610,-8.574800,78.434917
56253,NaN,3.961396,14.658917,-1.883836,0.547993,1.653779,5.388956,0.098405,0.198968,-0.242558,0.470412,0.613806,0.439702,0.456746,98.148111,-8.454520,78.565616
56254,NaN,2.935073,13.643578,0.203596,2.243221,0.495473,3.954133,-0.409982,0.473406,-0.130189,0.470915,0.611501,0.440263,0.458774,97.874723,-8.419998,78.844319
56255,NaN,0.544781,10.710483,1.492416,2.670460,-1.522635,0.569432,-0.572861,0.480081,-0.098210,0.471824,0.608859,0.440365,0.461249,97.508027,-8.402254,79.124215
56256,NaN,-0.371198,8.594959,0.863918,1.625425,-1.933149,-1.543572,-0.442364,0.009683,-0.112860,0.473400,0.607572,0.439696,0.461969,97.255248,-8.340409,79.134890
56257,NaN,0.706194,8.516944,-0.036600,0.911363,-0.707082,-1.344642,-0.283806,-0.301576,-0.116820,0.475186,0.607368,0.438670,0.461380,97.119359,-8.253618,78.966848
56258,NaN,2.109198,9.654715,-1.176701,0.156800,0.682438,0.114876,-0.225186,-0.525096,-0.113635,0.477274,0.607820,0.437232,0.459991,97.034817,-8.153448,78.670063
56259,NaN,2.292686,10.444027,-2.326441,-0.872208,0.959557,1.053077,-0.328864,-0.330830,-0.119001,0.479261,0.607563,0.436035,0.459401,96.874953,-8.064062,78.485092
56260,NaN,1.330540,10.315096,-1.879811,-0.669109,-0.010762,0.735167,-0.430358,-0.107360,-0.106037,0.481037,0.606574,0.435096,0.459741,96.638611,-7.998073,78.427372
56261,NaN,1.161103,10.169184,-1.142869,-0.033038,-0.266242,0.482675,-0.396937,-0.174040,-0.108794,0.482861,0.605810,0.434082,0.459796,96.426968,-7.926069,78.331255
56262,NaN,1.764901,10.156765,-0.650892,0.532433,0.250004,0.500037,-0.408258,-0.189375,-0.113341,0.484760,0.605041,0.433015,0.459817,96.209647,-7.851171,78.226355
56263,NaN,1.745386,9.865731,-0.369609,0.745233,0.242663,0.182373,-0.410721,-0.077093,-0.116844,0.486428,0.603997,0.432224,0.460170,95.982285,-7.781208,78.185966
56264,NaN,1.542483,10.000364,-0.215758,0.830481,0.014798,0.274089,-0.367378,-0.085393,-0.118942,0.487987,0.603071,0.431515,0.460400,95.780057,-7.710042,78.140670
56265,NaN,1.266040,9.903586,-0.637769,0.322964,-0.139950,0.185643,-0.370001,-0.060512,-0.104734,0.489466,0.602109,0.430819,0.460741,95.574815,-7.648217,78.108626
56266,NaN,1.050767,9.709961,-0.831345,0.047866,-0.266097,-0.014452,-0.293361,-0.039882,-0.100502,0.490658,0.601294,0.430333,0.460991,95.411584,-7.590371,78.088030
56267,NaN,1.181664,9.975413,-0.787047,0.112816,-0.173185,0.261134,-0.224665,-0.030368,-0.079725,0.491574,0.600670,0.429969,0.461169,95.287491,-7.544606,78.071637
56268,NaN,1.199424,9.740028,-0.535515,0.328453,-0.158336,0.008746,-0.207551,0.005135,-0.080125,0.492363,0.600004,0.429729,0.461418,95.170168,-7.500815,78.075615
56269,NaN,1.491111,9.633739,-0.330467,0.567860,0.111194,-0.075814,-0.135977,-0.029454,-0.084812,0.493022,0.599584,0.429585,0.461395,95.096782,-7.452255,78.059841
56270,NaN,1.439155,9.761939,-0.250103,0.634288,0.036982,0.037463,-0.100713,0.024425,-0.091980,0.493476,0.599110,0.429674,0.461443,95.039155,-7.402667,78.075406
56271,NaN,1.334099,9.854127,-0.373301,0.492327,-0.043628,0.126060,-0.057929,0.009746,-0.101336,0.493854,0.598755,0.429856,0.461328,95.007468,-7.346673,78.082937
56272,NaN,1.479648,9.784955,-0.822815,0.077417,0.205539,0.115226,-0.017457,0.014511,-0.108100,0.494117,0.598475,0.430161,0.461127,94.998168,-7.287375,78.093553
56273,NaN,1.492931,9.799807,-0.944167,-0.035301,0.249727,0.141854,0.029518,0.089461,-0.109008,0.494080,0.598136,0.430764,0.461044,95.010758,-7.230984,78.147318
56274,NaN,1.180186,9.840505,-0.893419,-0.042140,-0.061282,0.138244,0.058941,0.158525,-0.101932,0.493789,0.597724,0.431581,0.461124,95.034898,-7.182448,78.240488
56275,NaN,1.105278,9.783269,-0.844590,-0.005635,-0.128789,0.068137,0.087827,0.146741,-0.091931,0.493414,0.597433,0.432409,0.461127,95.076985,-7.138743,78.326371
56276,NaN,1.236596,9.842871,-0.749426,0.126488,-0.021720,0.134998,0.094974,0.137855,-0.091169,0.493035,0.597181,0.433225,0.461094,95.123454,-7.095410,78.407150
56277,NaN,1.372014,9.703932,-0.684471,0.217493,0.123146,0.008450,0.090704,0.129571,-0.095559,0.492696,0.596927,0.434027,0.461030,95.168506,-7.048887,78.483401
56278,NaN,1.382690,9.798267,-0.633399,0.284598,0.118233,0.098119,0.090159,0.127019,-0.109225,0.492395,0.596648,0.434859,0.460929,95.212980,-6.994818,78.558946
56279,NaN,1.220191,9.841710,-0.749023,0.150782,-0.015589,0.131465,0.068028,0.113128,-0.116793,0.492208,0.596329,0.435631,0.460813,95.246186,-6.935431,78.626913
56280,NaN,1.206598,9.870384,-0.859812,0.049188,-0.002491,0.168154,0.062235,0.085657,-0.126129,0.492119,0.596038,0.436346,0.460607,95.277549,-6.869640,78.679631
56281,NaN,1.262216,9.886539,-0.951669,-0.022203,0.077175,0.199108,0.038127,0.074639,-0.130697,0.492135,0.595704,0.436996,0.460407,95.296316,-6.800356,78.726262
56282,NaN,1.260101,9.927882,-0.898374,0.037021,0.071156,0.234766,0.025557,0.094655,-0.132568,0.492150,0.595288,0.437667,0.460291,95.306138,-6.731404,78.784523
56283,NaN,0.883806,9.813371,-0.920696,-0.062785,-0.264578,0.079587,-0.006159,0.120311,-0.130612,0.492198,0.594739,0.438326,0.460323,95.296581,-6.664597,78.857389
56284,NaN,0.765410,9.772402,-1.064460,-0.227013,-0.337300,0.038883,0.012203,0.057456,-0.123100,0.492312,0.594395,0.438847,0.460149,95.301418,-6.599066,78.893761
56285,NaN,1.043311,9.882326,-1.087978,-0.185862,-0.065905,0.181994,0.012907,0.005691,-0.111537,0.492510,0.594198,0.439210,0.459845,95.310597,-6.537074,78.899774
56286,NaN,1.039899,9.846851,-1.040987,-0.140906,-0.063002,0.142295,-0.014958,0.025309,-0.106589,0.492737,0.593897,0.439540,0.459675,95.302156,-6.479245,78.916806
56287,NaN,1.158444,9.693395,-1.015053,-0.102388,0.077552,0.001472,-0.009621,-0.017250,-0.103034,0.493033,0.593715,0.439770,0.459373,95.299971,-6.420889,78.909187
56288,NaN,1.266825,9.987293,-0.815765,0.134812,0.119898,0.286015,-0.019953,-0.017507,-0.104075,0.493363,0.593506,0.439975,0.459093,95.291467,-6.362223,78.901489
56289,NaN,1.359509,9.881521,-0.989875,-0.025684,0.266371,0.207340,-0.045077,-0.027852,-0.112850,0.493809,0.593239,0.440126,0.458813,95.269567,-6.297711,78.888286
56290,NaN,1.110736,9.814278,-1.064448,-0.154635,0.057186,0.120068,-0.075643,0.055859,-0.108801,0.494153,0.592713,0.440399,0.458861,95.224521,-6.240210,78.922896
56291,NaN,0.826198,9.750061,-1.091120,-0.244465,-0.196955,0.027956,-0.064665,0.024777,-0.097535,0.494506,0.592311,0.440589,0.458817,95.188197,-6.187190,78.939018
56292,NaN,0.761686,9.927663,-1.116377,-0.273589,-0.267768,0.199226,-0.057338,0.027628,-0.083180,0.494799,0.591951,0.440757,0.458805,95.155609,-6.142796,78.956009
56293,NaN,0.629885,9.626143,-1.085611,-0.293512,-0.357734,-0.116100,-0.066520,0.033285,-0.060252,0.495053,0.591606,0.440854,0.458882,95.117937,-6.111469,78.975023
56294,NaN,0.723620,9.735031,-0.896505,-0.086386,-0.308674,-0.014961,-0.023901,0.003269,-0.038113,0.495197,0.591484,0.440905,0.458835,95.106281,-6.091505,78.975673
56295,NaN,0.911983,9.768794,-0.820972,0.023597,-0.139528,0.031855,-0.038543,0.000555,-0.020395,0.495349,0.591371,0.440867,0.458853,95.086863,-6.081245,78.973839
56296,NaN,0.993894,9.726688,-0.673069,0.179092,-0.079759,-0.014174,-0.018608,-0.001025,-0.008228,0.495418,0.591338,0.440832,0.458855,95.078666,-6.078101,78.970492
56297,NaN,0.930272,9.835127,-0.652150,0.193088,-0.158401,0.084689,-0.024180,0.007298,0.002891,0.495460,0.591297,0.440774,0.458919,95.067193,-6.081473,78.971337
56298,NaN,0.844028,9.724360,-0.813814,0.009693,-0.200942,-0.019967,-0.004790,0.003626,0.016100,0.495422,0.591340,0.440710,0.458964,95.066751,-6.092441,78.969424
56299,NaN,0.843143,9.780900,-0.832731,-0.005034,-0.207366,0.037557,0.006641,-0.015555,0.022817,0.495377,0.591472,0.440608,0.458942,95.074438,-6.106028,78.956138
56300,NaN,0.924338,9.718075,-0.716745,0.121019,-0.144753,-0.026294,0.018514,-0.005989,0.032319,0.495254,0.591631,0.440526,0.458948,95.088025,-6.125749,78.947879
56301,NaN,0.902735,9.704057,-0.597457,0.234507,-0.189735,-0.053096,0.019840,-0.008593,0.036256,0.495124,0.591808,0.440431,0.458951,95.102931,-6.147354,78.937895
56302,NaN,1.008119,9.773125,-0.754501,0.108951,-0.071113,0.040364,0.053329,-0.048917,0.035796,0.494985,0.592160,0.440312,0.458761,95.139124,-6.166847,78.904807
56303,NaN,1.134023,9.850288,-0.921990,-0.021312,0.068623,0.145178,0.030799,-0.051482,0.033944,0.494921,0.592458,0.440143,0.458607,95.162953,-6.184917,78.870303
56304,NaN,1.241752,9.757771,-0.964067,-0.044117,0.188784,0.069006,0.043935,-0.037632,0.032311,0.494793,0.592752,0.440041,0.458463,95.193070,-6.202973,78.843853
56305,NaN,1.276653,9.910825,-0.826582,0.111498,0.175130,0.212004,0.030409,-0.018661,0.026053,0.494677,0.592956,0.439976,0.458387,95.214616,-6.218214,78.828581
56306,NaN,1.235930,9.907638,-0.862796,0.070512,0.139395,0.207733,0.020409,0.006025,0.019555,0.494552,0.593064,0.439965,0.458393,95.228483,-6.231258,78.827840
56307,NaN,0.963960,9.678921,-0.974894,-0.105534,-0.079838,-0.038045,0.017836,0.025501,0.022088,0.494384,0.593128,0.439992,0.458466,95.240056,-6.246537,78.838114
56308,NaN,0.991761,9.735585,-0.873001,0.006235,-0.081673,0.011804,0.044954,0.000699,0.024644,0.494186,0.593319,0.440010,0.458414,95.268354,-6.262205,78.834040
56309,NaN,1.065375,9.709277,-0.806343,0.087800,-0.022305,-0.012327,0.039248,0.007793,0.024407,0.493989,0.593481,0.440035,0.458393,95.293315,-6.277882,78.834016
56310,NaN,1.101176,9.671253,-0.832963,0.070622,0.018487,-0.043643,0.060504,-0.002526,0.026378,0.493748,0.593723,0.440075,0.458302,95.330738,-6.294359,78.827984
56311,NaN,1.116422,9.802448,-0.635713,0.281979,-0.023124,0.069542,0.068712,0.000082,0.024746,0.493479,0.593976,0.440147,0.458194,95.373071,-6.309817,78.823496
56312,NaN,1.144807,9.696731,-0.613643,0.307782,0.009839,-0.034195,0.061743,-0.005727,0.024645,0.493245,0.594223,0.440187,0.458086,95.411393,-6.325125,78.815699
56313,NaN,1.158859,9.917016,-0.653586,0.293909,-0.000698,0.188860,0.075397,-0.024573,0.021899,0.493018,0.594543,0.440222,0.457883,95.459104,-6.337614,78.797195
56314,NaN,1.046900,9.909944,-0.851075,0.084982,-0.076363,0.188026,0.051946,-0.020066,0.020977,0.492853,0.594791,0.440215,0.457745,95.492689,-6.350038,78.781352
56315,NaN,0.939068,9.669909,-1.051670,-0.143826,-0.117787,-0.042302,0.058381,-0.050431,0.027777,0.492719,0.595140,0.440130,0.457517,95.532340,-6.364431,78.747667
56316,NaN,1.056419,9.869780,-1.009717,-0.058299,-0.040461,0.164440,0.079935,-0.056867,0.028929,0.492533,0.595559,0.440073,0.457227,95.584368,-6.379316,78.710246
56317,NaN,1.049338,9.724646,-0.974308,-0.029253,-0.039574,0.016692,0.044863,-0.041402,0.034018,0.492405,0.595868,0.439960,0.457070,95.615757,-6.397722,78.681366
56318,NaN,1.063443,9.558268,-1.034704,-0.091829,0.002128,-0.140378,0.076871,-0.054912,0.036562,0.492207,0.596291,0.439878,0.456812,95.665985,-6.417012,78.644611
56319,NaN,1.161289,9.912468,-0.909414,0.084598,0.023449,0.208537,0.089503,-0.029481,0.040598,0.491904,0.596697,0.439877,0.456609,95.722250,-6.439800,78.622162
56320,NaN,1.034008,9.722482,-0.928325,0.033959,-0.078500,0.008223,0.063940,-0.001009,0.047004,0.491602,0.596987,0.439866,0.456565,95.761698,-6.468066,78.615691
56321,NaN,1.025223,9.750701,-1.063977,-0.090552,-0.072316,0.048644,0.104129,-0.016870,0.054174,0.491197,0.597430,0.439889,0.456400,95.825642,-6.499284,78.599644
56322,NaN,1.088596,9.916191,-1.054359,-0.047937,-0.041442,0.218440,0.073079,0.000787,0.058546,0.490836,0.597764,0.439868,0.456370,95.870303,-6.534215,78.593474
56323,NaN,0.949515,9.681827,-1.015613,-0.049227,-0.161193,-0.032993,0.074702,-0.002862,0.067942,0.490456,0.598132,0.439817,0.456345,95.916589,-6.574076,78.584591
56324,NaN,1.163638,9.730698,-0.901907,0.113534,0.011943,0.028092,0.056176,-0.045381,0.065930,0.490231,0.598546,0.439623,0.456232,95.954676,-6.610461,78.551442
56325,NaN,1.174086,9.586477,-0.956147,0.057385,0.043677,-0.107636,0.079101,-0.033297,0.066254,0.489909,0.598991,0.439512,0.456102,96.005505,-6.647529,78.525139
56326,NaN,1.252190,9.929345,-1.014176,0.050010,0.077190,0.246138,0.057908,-0.088587,0.063676,0.489778,0.599502,0.439222,0.455850,96.047491,-6.679982,78.467279
56327,NaN,1.411619,9.638138,-1.355383,-0.269574,0.328152,0.012947,0.047067,-0.051293,0.066338,0.489590,0.599909,0.438993,0.455737,96.081208,-6.715970,78.430587
56328,NaN,1.194761,9.865572,-1.162504,-0.102028,0.042831,0.192119,0.045336,-0.008000,0.068572,0.489309,0.600217,0.438857,0.455765,96.110695,-6.756056,78.418607
56329,NaN,0.972703,9.733503,-1.091684,-0.085078,-0.176386,0.028078,0.029439,0.012450,0.071945,0.489021,0.600447,0.438727,0.455895,96.130093,-6.799097,78.418098
56330,NaN,0.982922,9.809031,-1.088447,-0.070342,-0.185787,0.103384,0.062366,-0.017981,0.077159,0.488691,0.600837,0.438579,0.455877,96.170111,-6.843443,78.399821
56331,NaN,1.037794,9.843836,-1.085807,-0.049967,-0.146871,0.143870,0.041583,0.004941,0.085269,0.488353,0.601144,0.438418,0.455991,96.197088,-6.893610,78.394128
56332,NaN,1.058418,9.796499,-1.101961,-0.062363,-0.127105,0.101237,0.050191,-0.003381,0.092600,0.487991,0.601505,0.438232,0.456080,96.229279,-6.947624,78.383213
56333,NaN,1.223273,9.757565,-1.108750,-0.035596,0.029489,0.083456,0.047346,-0.039628,0.099978,0.487700,0.601958,0.437931,0.456083,96.262793,-7.003384,78.350967
56334,NaN,1.538327,9.953938,-0.970946,0.181611,0.271885,0.300826,0.036351,-0.055620,0.095409,0.487487,0.602410,0.437577,0.456052,96.290778,-7.055708,78.309835
56335,NaN,1.300763,9.774899,-1.033003,0.059172,0.068333,0.101926,-0.005693,-0.002676,0.094414,0.487287,0.602638,0.437262,0.456268,96.291311,-7.110594,78.299095
56336,NaN,1.129038,9.696570,-1.115906,-0.063218,-0.081066,0.012427,0.020992,-0.020768,0.090989,0.487055,0.602963,0.436971,0.456365,96.308054,-7.162587,78.278216
56337,NaN,1.227785,9.777031,-1.044383,0.034446,-0.019850,0.096245,0.030443,-0.002848,0.094955,0.486745,0.603280,0.436735,0.456503,96.329332,-7.217765,78.267314
56338,NaN,1.222702,9.775125,-0.957257,0.119937,-0.051061,0.084151,0.032326,-0.000855,0.094695,0.486426,0.603595,0.436508,0.456644,96.351204,-7.273109,78.257588
56339,NaN,1.390141,9.738395,-1.074735,0.038553,0.129282,0.082042,0.043501,-0.013260,0.086424,0.486118,0.603949,0.436302,0.456701,96.380680,-7.322759,78.241206
56340,NaN,1.649857,9.713590,-1.046037,0.120341,0.370415,0.087734,0.048223,-0.000975,0.080844,0.485783,0.604272,0.436152,0.456773,96.411579,-7.370201,78.232247
56341,NaN,1.635845,9.790901,-0.974767,0.197239,0.322995,0.154492,0.058689,0.050505,0.071961,0.485323,0.604485,0.436180,0.456954,96.444960,-7.415689,78.253352
56342,NaN,1.374283,9.766237,-0.844082,0.273652,0.039527,0.081960,0.061232,0.090327,0.064950,0.484785,0.604597,0.436328,0.457234,96.476411,-7.459981,78.297789
56343,NaN,1.187257,9.716836,-1.059372,0.026358,-0.103186,0.032992,0.076396,0.073451,0.071086,0.484224,0.604798,0.436454,0.457443,96.518188,-7.506484,78.332075
56344,NaN,1.152064,9.638355,-1.220086,-0.137316,-0.105919,-0.030885,0.114220,0.093146,0.082090,0.483480,0.605068,0.436679,0.457658,96.579861,-7.560781,78.376944
56345,NaN,1.062697,9.851265,-1.154400,-0.063567,-0.249021,0.159439,0.130752,0.127489,0.088130,0.482596,0.605313,0.437008,0.457953,96.648781,-7.620620,78.441036
56346,NaN,1.159213,9.692061,-1.283777,-0.174650,-0.119813,0.030230,0.126704,0.056972,0.093840,0.481866,0.605721,0.437138,0.458058,96.720409,-7.679282,78.464229
56347,NaN,1.547765,9.728456,-1.181645,0.016547,0.221026,0.106262,0.150980,0.052677,0.084461,0.481092,0.606177,0.437343,0.458073,96.806535,-7.732151,78.485477
56348,NaN,1.806796,9.819691,-1.007669,0.256914,0.416166,0.210636,0.121509,0.063263,0.060751,0.480439,0.606485,0.437575,0.458128,96.874380,-7.772482,78.514405
56349,NaN,1.948073,9.777211,-0.814193,0.477116,0.518010,0.165077,0.066055,0.080259,0.025632,0.479996,0.606545,0.437830,0.458270,96.909139,-7.793831,78.555454
56350,NaN,1.830339,9.577372,-0.863030,0.391922,0.440367,-0.041633,0.055777,0.133959,0.000212,0.479526,0.606400,0.438265,0.458539,96.933211,-7.804681,78.629130
56351,NaN,1.347837,9.789398,-0.955960,0.230356,-0.047104,0.112410,0.074785,0.192031,-0.002391,0.478876,0.606162,0.438892,0.458932,96.963966,-7.817879,78.736287
56352,NaN,1.040032,9.823851,-0.993390,0.141922,-0.348200,0.108762,0.063212,0.173075,0.008648,0.478277,0.605963,0.439411,0.459323,96.989271,-7.836334,78.831821
56353,NaN,1.128136,9.702485,-1.274002,-0.121769,-0.198268,0.035147,0.072812,0.130574,0.013942,0.477730,0.605896,0.439837,0.459573,97.023806,-7.854632,78.902541
56354,NaN,1.161603,9.830815,-1.362375,-0.183992,-0.175875,0.176582,0.085961,0.155887,0.028844,0.477053,0.605835,0.440306,0.459908,97.063623,-7.883454,78.986769
56355,NaN,1.382102,9.691491,-1.434671,-0.221522,0.066144,0.078725,0.061383,0.162186,0.038278,0.476414,0.605721,0.440706,0.460337,97.089288,-7.917907,79.073888
56356,NaN,1.596833,9.638318,-1.328367,-0.079206,0.258194,0.043207,0.072107,0.189296,0.033691,0.475694,0.605559,0.441207,0.460815,97.118488,-7.951930,79.176929
56357,NaN,1.713334,9.701845,-1.160417,0.115682,0.326571,0.101335,0.069056,0.223481,0.027183,0.474921,0.605296,0.441804,0.461385,97.143462,-7.984517,79.300015
56358,NaN,1.477400,9.822858,-1.168594,0.078382,0.072697,0.188584,0.075809,0.297694,0.025223,0.473968,0.604872,0.442595,0.462162,97.165918,-8.021568,79.465879
56359,NaN,1.032983,9.750714,-1.232131,-0.070223,-0.345820,0.063400,0.042136,0.340750,0.042955,0.472978,0.604308,0.443358,0.463181,97.166036,-8.071577,79.655157
56360,NaN,0.862092,9.741291,-1.395560,-0.258790,-0.494265,0.049983,0.095906,0.243053,0.060919,0.472001,0.604134,0.443957,0.463830,97.204515,-8.125078,79.787085
56361,NaN,0.950497,9.891835,-1.423555,-0.249957,-0.439576,0.213410,0.091879,0.198190,0.084858,0.471079,0.604108,0.444370,0.464406,97.244820,-8.188825,79.891453
56362,NaN,1.318231,9.660398,-1.623322,-0.400275,-0.024772,0.063311,0.061991,0.102150,0.090067,0.470448,0.604245,0.444470,0.464772,97.275481,-8.248826,79.940307
56363,NaN,1.710403,9.790076,-1.225985,0.074613,0.263064,0.197273,0.098129,0.132375,0.085833,0.469650,0.604387,0.444738,0.465137,97.324608,-8.308471,80.006753
56364,NaN,1.691726,9.791952,-1.162589,0.137006,0.224680,0.188643,0.031102,0.106501,0.069100,0.469152,0.604394,0.444839,0.465535,97.336911,-8.356939,80.059592
56365,NaN,1.664440,9.732744,-1.288347,0.002863,0.219197,0.142635,0.015640,0.115695,0.055288,0.468710,0.604313,0.444968,0.465961,97.339732,-8.398050,80.118693
56366,NaN,1.306767,9.888687,-1.235548,0.008194,-0.170297,0.236754,0.009614,0.161978,0.052532,0.468191,0.604103,0.445199,0.466535,97.334797,-8.441180,80.204631
56367,NaN,0.828975,9.873433,-1.468080,-0.305248,-0.606239,0.180632,-0.036046,0.083914,0.074899,0.467931,0.604018,0.445074,0.467025,97.310811,-8.491099,80.244049
56368,NaN,0.767268,9.660680,-1.860392,-0.726234,-0.580752,0.011457,-0.031621,-0.043869,0.100344,0.467883,0.604298,0.444581,0.467181,97.300149,-8.546329,80.208226
56369,NaN,1.374826,9.854272,-1.738705,-0.486733,-0.048494,0.275952,0.001753,-0.128206,0.117548,0.467880,0.604891,0.443919,0.467045,97.316390,-8.605015,80.122613
56370,NaN,1.835208,9.908486,-1.616308,-0.286093,0.362383,0.382672,-0.069691,-0.078393,0.119060,0.467979,0.605203,0.443200,0.467224,97.287213,-8.668343,80.065555
56371,NaN,1.953237,9.680216,-1.276725,0.034748,0.454626,0.134364,-0.109705,0.045387,0.106610,0.467953,0.605105,0.442716,0.467835,97.224554,-8.733451,80.080583
56372,NaN,1.663933,9.691788,-1.178551,0.070907,0.146898,0.089927,-0.092968,0.073449,0.098652,0.467834,0.604962,0.442359,0.468477,97.168633,-8.796203,80.112432
56373,NaN,1.446663,9.742300,-0.947519,0.253721,-0.117455,0.077957,-0.098436,0.109550,0.101719,0.467643,0.604729,0.442066,0.469245,97.106655,-8.863069,80.164868
56374,NaN,1.093397,9.833092,-0.810427,0.324782,-0.507713,0.095830,-0.102840,0.101034,0.117550,0.467447,0.604539,0.441693,0.470035,97.042725,-8.938446,80.211392
56375,NaN,1.017549,9.692496,-1.180550,-0.076992,-0.512338,-0.009364,-0.122696,-0.077828,0.134425,0.467666,0.604761,0.440805,0.470366,96.983880,-9.010689,80.153802
56376,NaN,1.536532,9.676829,-1.490154,-0.304865,0.031577,0.093298,-0.089353,-0.132661,0.140464,0.467890,0.605201,0.439847,0.470473,96.948939,-9.082741,80.064302
56377,NaN,1.580031,9.967886,-1.380917,-0.172408,-0.005419,0.372223,-0.092238,-0.054418,0.145600,0.467938,0.605462,0.439051,0.470833,96.905663,-9.163043,80.019502
56378,NaN,1.738873,9.908469,-1.526845,-0.306034,0.171043,0.356372,-0.147244,-0.078283,0.123947,0.468257,0.605602,0.438134,0.471191,96.832596,-9.229573,79.962568
56379,NaN,2.246717,9.822012,-1.647782,-0.359745,0.690302,0.367140,-0.136559,0.028760,0.095346,0.468374,0.605452,0.437579,0.471782,96.755735,-9.287025,79.969339
56380,NaN,2.124426,9.830321,-1.349469,-0.106828,0.516503,0.320980,-0.188161,0.208049,0.082059,0.468287,0.604727,0.437361,0.472998,96.632148,-9.349035,80.080532
56381,NaN,1.681251,9.714939,-1.049349,0.078693,0.053609,0.101881,-0.198211,0.217062,0.082706,0.468207,0.603959,0.437140,0.474262,96.502067,-9.411604,80.197009
56382,NaN,1.327773,9.808736,-0.901503,0.149628,-0.336682,0.119644,-0.184032,0.187105,0.099270,0.468111,0.603329,0.436828,0.475444,96.382721,-9.481600,80.295304
56383,NaN,1.175679,9.898725,-0.874819,0.136193,-0.514069,0.179780,-0.191716,0.119344,0.125874,0.468120,0.602900,0.436261,0.476498,96.265817,-9.562097,80.352910
56384,NaN,1.098465,9.956078,-0.965859,0.015521,-0.598079,0.232460,-0.213006,0.074344,0.166279,0.468196,0.602615,0.435414,0.477559,96.141100,-9.662849,80.382205
56385,NaN,1.281294,10.028054,-1.089637,-0.095367,-0.429938,0.345899,-0.230590,0.013558,0.193193,0.468391,0.602492,0.434302,0.478535,96.012685,-9.775038,80.374905
56386,NaN,1.669765,10.016274,-1.317179,-0.282063,-0.032602,0.422943,-0.242788,-0.027566,0.205141,0.468684,0.602462,0.433025,0.479442,95.881177,-9.891723,80.343401
56387,NaN,1.975973,9.940227,-1.458742,-0.405534,0.283632,0.414506,-0.287912,0.060226,0.205064,0.468920,0.602115,0.431847,0.480708,95.715306,-10.013413,80.362961
56388,NaN,2.167585,9.968855,-1.391786,-0.340722,0.437998,0.468630,-0.306651,0.173599,0.192089,0.468998,0.601420,0.430926,0.482325,95.526740,-10.134124,80.449346
56389,NaN,2.146694,9.904951,-1.238354,-0.235577,0.391760,0.387349,-0.321499,0.262864,0.171584,0.468975,0.600430,0.430240,0.484190,95.320295,-10.247563,80.589007
56390,NaN,2.045035,9.996925,-1.158766,-0.207521,0.249541,0.451714,-0.316418,0.286521,0.168350,0.468892,0.599383,0.429627,0.486108,95.113711,-10.360029,80.743052
56391,NaN,1.925041,10.434193,-1.337548,-0.418741,0.058905,0.873200,-0.327871,0.366172,0.190981,0.468614,0.598162,0.429104,0.488337,94.892214,-10.488689,80.942629
56392,NaN,1.208732,10.910175,-0.858608,-0.078865,-0.817579,1.167077,-0.384948,0.529122,0.251529,0.468004,0.596533,0.428637,0.491315,94.620359,-10.658957,81.234610
56393,NaN,0.445574,11.111766,-0.454097,0.162995,-1.681264,1.188336,-0.435806,0.468258,0.328304,0.467483,0.595092,0.427670,0.494392,94.325672,-10.868798,81.488722
56394,NaN,0.425057,12.272436,-0.853198,-0.230480,-1.914471,2.344724,-0.308511,0.256379,0.398399,0.466858,0.594615,0.426309,0.496727,94.126607,-11.108731,81.617643
56395,NaN,1.738721,13.094727,-1.840291,-1.039815,-0.720500,3.464390,-0.466712,-0.006860,0.440802,0.467154,0.594509,0.423811,0.498709,93.866573,-11.361816,81.592486
56396,NaN,3.317269,11.965904,-2.536809,-1.631487,1.085442,2.708553,-0.742326,0.247160,0.476363,0.467637,0.593190,0.421106,0.502107,93.418953,-11.644605,81.715858
56397,NaN,2.777603,11.186476,-2.388818,-1.688241,0.649642,1.818536,-0.635881,0.818620,0.512303,0.466496,0.590746,0.419887,0.507045,92.963280,-11.965245,82.174390
56398,NaN,1.275112,12.545567,-1.463214,-1.026754,-1.279312,2.775656,-0.390483,0.940073,0.557431,0.464247,0.588642,0.419426,0.511916,92.630263,-12.312024,82.705556
56399,NaN,0.380718,14.488654,-0.928591,-0.636965,-2.718195,4.439780,-0.310743,0.853068,0.700670,0.461562,0.587226,0.418532,0.516678,92.350785,-12.735835,83.184708
56400,NaN,-0.163496,15.008180,-0.489196,-0.338871,-3.517715,4.782526,-0.621399,0.820812,0.838858,0.459484,0.585443,0.416340,0.522295,91.893634,-13.234952,83.645587
56401,NaN,-0.405298,14.373998,-0.736462,-0.726136,-3.704910,4.081990,-0.723353,0.692353,1.022974,0.457468,0.584118,0.413028,0.528146,91.390986,-13.833743,84.032979
56402,NaN,-0.649653,14.562833,-0.954246,-1.079417,-4.110614,4.163836,-0.653968,0.557684,1.161360,0.455139,0.583561,0.409167,0.533749,90.942278,-14.506750,84.345388
56403,NaN,-0.660169,14.955346,-0.931843,-1.176597,-4.389494,4.481024,-0.726982,0.516307,1.310396,0.452684,0.583221,0.404556,0.539690,90.452833,-15.262689,84.638826
56404,NaN,-1.079284,14.847104,-1.212125,-1.625003,-4.926553,4.192792,-0.887828,0.539854,1.470379,0.450187,0.582733,0.399073,0.546346,89.861288,-16.107020,84.954637
56405,NaN,-1.435216,14.590197,-1.568267,-2.152543,-5.368703,3.749395,-0.987440,0.454728,1.624454,0.447688,0.582511,0.392639,0.553254,89.219133,-17.037294,85.231084
56406,NaN,-1.315752,14.161733,-1.700439,-2.420461,-5.332013,3.259455,-1.104189,0.320171,1.758207,0.445381,0.582600,0.385157,0.560239,88.525786,-18.041637,85.441192
56407,NaN,-0.820085,13.433775,-1.801775,-2.619707,-4.847628,2.597593,-1.210848,0.306850,1.880429,0.443011,0.582659,0.376938,0.567599,87.764692,-19.114510,85.660200
56408,NaN,-0.352228,12.783341,-1.719341,-2.632545,-4.423575,2.018973,-1.177029,0.383800,1.976069,0.440072,0.582673,0.368666,0.575251,86.997046,-20.236019,85.945409
56409,NaN,-0.532657,12.630079,-1.528016,-2.599096,-4.780617,1.699063,-1.098694,0.470010,2.038126,0.436502,0.582650,0.360569,0.583073,86.242752,-21.387673,86.303500
56410,NaN,-0.112400,12.492201,-0.734615,-1.927940,-4.634876,1.650334,-1.194130,0.386946,2.058978,0.433243,0.582612,0.351912,0.590781,85.438927,-22.548535,86.631137
56411,NaN,1.065873,11.852082,-0.141807,-1.375497,-3.585310,1.451157,-1.296259,0.251451,2.133298,0.430229,0.582799,0.342379,0.598352,84.593121,-23.755567,86.899571
56412,NaN,2.100158,11.331011,-1.089641,-2.364019,-2.575154,1.221935,-1.174243,0.113424,2.208803,0.426808,0.583695,0.332653,0.605373,83.837516,-25.008305,87.107530
56413,NaN,2.319663,11.633769,-1.962114,-3.394377,-2.651268,1.413072,-0.940902,0.047299,2.204948,0.422758,0.585200,0.323440,0.611722,83.220985,-26.262503,87.292158
56414,NaN,2.548464,11.586331,-1.617741,-3.175705,-2.688510,1.413834,-1.174428,0.135019,2.121099,0.419451,0.585718,0.313912,0.618430,82.437023,-27.458744,87.545066
56415,NaN,2.784133,10.504082,-0.159340,-1.718342,-2.353910,0.656936,-1.387123,-0.026423,2.064904,0.417124,0.586116,0.303490,0.624796,81.566471,-28.634472,87.711438
56416,NaN,3.385894,8.852060,0.712766,-0.699636,-1.342216,-0.429925,-1.297627,-0.614600,2.012886,0.415532,0.588366,0.292242,0.629089,80.924464,-29.827966,87.510486
56417,NaN,2.950077,8.203663,-2.019876,-3.371376,-1.229731,-1.614955,-0.960373,-1.080329,1.859854,0.414043,0.592475,0.281480,0.631119,80.636625,-30.981089,86.996854
56418,NaN,2.861625,7.905961,-3.217315,-4.548211,-1.099773,-2.121945,-0.944665,-1.034469,1.659556,0.413028,0.596112,0.271436,0.632757,80.362626,-32.016733,86.491913
56419,NaN,0.135096,6.227247,-2.848339,-4.054726,-2.665693,-4.979248,-1.181840,-0.257883,1.371400,0.412530,0.596353,0.263059,0.636382,79.695683,-32.818329,86.477471
56420,NaN,-2.678099,3.941353,-1.966492,-2.914359,-3.987540,-8.336553,-1.315544,-0.265008,1.014654,0.413549,0.595824,0.255305,0.639367,78.974678,-33.417670,86.424167
56421,NaN,-4.044281,2.642726,-3.812639,-4.537607,-4.099394,-10.506130,-0.799548,-1.043192,0.674997,0.415078,0.598381,0.248568,0.638643,78.861994,-33.914274,85.805509
56422,NaN,-2.835080,3.397591,-2.954546,-3.848533,-3.605334,-9.105029,-0.151428,-1.332377,0.445864,0.415745,0.602888,0.243994,0.635727,79.255947,-34.309674,84.955065
56423,NaN,-1.351245,3.817073,-2.496027,-3.423923,-2.661368,-7.858258,-0.220233,-1.423274,0.179404,0.417548,0.607187,0.239783,0.632046,79.670894,-34.562016,84.002511
56424,NaN,-1.296407,2.937502,-3.729268,-4.424362,-1.851566,-8.711101,-0.325873,-1.179448,-0.137677,0.420371,0.610085,0.236720,0.628528,79.958395,-34.603290,83.173850
56425,NaN,-2.832633,2.452275,-4.473465,-5.195252,-2.645106,-10.061527,-0.104316,-0.680895,-0.492015,0.423022,0.611447,0.236454,0.625519,80.200454,-34.394939,82.645323
56426,NaN,-3.942932,2.822907,-3.888448,-4.859552,-3.849605,-10.260377,0.207761,-0.723855,-0.849528,0.425885,0.613165,0.238183,0.621224,80.658561,-33.983123,82.049111
56427,NaN,-3.427391,3.565494,-3.722941,-4.842055,-3.818164,-9.269220,0.382992,-1.040906,-1.159493,0.429522,0.615842,0.240697,0.615072,81.344518,-33.422312,81.212842
56428,NaN,-2.425492,4.267299,-3.951578,-5.110515,-3.251675,-8.076002,0.425595,-0.866108,-1.446901,0.433680,0.617684,0.244611,0.608730,81.992365,-32.672793,80.479744
56429,NaN,-2.346235,4.844615,-3.677998,-4.960575,-3.489492,-7.421489,0.450481,-0.439560,-1.706835,0.437988,0.617915,0.250283,0.603080,82.495039,-31.739805,80.025534
56430,NaN,-2.747394,5.320979,-3.186561,-4.634049,-4.121192,-7.064059,0.536009,-0.426518,-1.935859,0.442673,0.617949,0.256954,0.596786,83.040063,-30.668761,79.574829
56431,NaN,-2.298393,5.763778,-3.139476,-4.587205,-3.890978,-6.323319,0.665191,-0.675826,-2.149150,0.447853,0.618663,0.264058,0.589030,83.730289,-29.492149,78.963129
56432,NaN,-1.504740,6.310027,-3.334658,-4.708955,-3.319737,-5.340234,0.806139,-0.659846,-2.349128,0.453106,0.619288,0.272221,0.580579,84.481862,-28.190292,78.372110
56433,NaN,-1.233239,6.987250,-3.154461,-4.546654,-3.310354,-4.459278,0.899811,-0.512685,-2.530380,0.458306,0.619342,0.281473,0.571964,85.221288,-26.774590,77.892443
56434,NaN,-1.287936,7.431824,-3.112369,-4.507594,-3.417840,-3.932808,0.965682,-0.543293,-2.688006,0.463714,0.619289,0.291307,0.562664,85.990115,-25.260679,77.411954
56435,NaN,-1.225052,7.760662,-3.329485,-4.654251,-3.283087,-3.459141,1.113437,-0.637351,-2.844279,0.469126,0.619475,0.301724,0.552390,86.844046,-23.658845,76.896465
56436,NaN,-1.066919,8.499184,-3.419703,-4.684211,-3.218126,-2.548871,1.281817,-0.641433,-2.972928,0.474265,0.619712,0.312951,0.541379,87.772928,-21.972092,76.407750
56437,NaN,-0.934129,9.286772,-3.514667,-4.683088,-3.145773,-1.588778,1.387994,-0.694563,-3.068578,0.479274,0.620019,0.324513,0.529683,88.745992,-20.228547,75.920963
56438,NaN,-0.602449,9.811260,-3.798320,-4.741965,-2.709342,-0.800889,1.503226,-0.766279,-3.151890,0.484124,0.620465,0.336401,0.517186,89.775703,-18.425574,75.427532
56439,NaN,-0.083757,10.419683,-4.047209,-4.680184,-2.093165,0.119945,1.627579,-0.762324,-3.233639,0.488624,0.620860,0.348728,0.504151,90.846302,-16.572113,74.976931
56440,NaN,0.235431,10.984260,-4.166473,-4.483792,-1.637809,0.923508,1.737084,-0.676128,-3.305584,0.492650,0.620960,0.361678,0.490810,91.943157,-14.666076,74.619297
56441,NaN,0.270903,11.456761,-4.367830,-4.387897,-1.367320,1.556880,1.854771,-0.608333,-3.368735,0.496154,0.620840,0.375109,0.477160,93.073472,-12.724045,74.344646
56442,NaN,0.328065,12.111836,-4.484063,-4.156210,-1.106957,2.368856,1.997154,-0.567790,-3.422692,0.499081,0.620632,0.389039,0.463015,94.265248,-10.742716,74.138013
56443,NaN,0.521773,12.865253,-4.394971,-3.629647,-0.750558,3.277008,2.109495,-0.473803,-3.475125,0.501387,0.620131,0.403430,0.448656,95.494397,-8.737140,74.032211
56444,NaN,0.803730,13.624078,-3.782279,-2.517452,-0.398591,4.117237,2.135816,-0.392084,-3.527001,0.503355,0.619143,0.418111,0.434141,96.725310,-6.700191,74.020754
56445,NaN,1.649896,13.987607,-3.123901,-1.198898,0.586023,4.551277,2.110811,-0.431999,-3.591980,0.505402,0.617776,0.432620,0.419238,97.935943,-4.628641,74.034694
56446,NaN,2.762534,14.305223,-2.978800,-0.278570,2.001384,4.919204,2.149768,-0.486909,-3.632651,0.507310,0.616256,0.447041,0.403756,99.171463,-2.525127,74.065529
56447,NaN,3.313943,14.602890,-3.278458,0.078002,3.021552,5.214135,2.157057,-0.231819,-3.681562,0.508491,0.613854,0.462035,0.388772,100.404198,-0.424994,74.290013
56448,NaN,3.109379,15.051994,-3.180346,0.637143,3.224212,5.533626,2.115773,0.114039,-3.739958,0.508881,0.610254,0.477829,0.374581,101.627304,1.669627,74.760815
56449,NaN,2.942122,15.781090,-2.920040,1.430886,3.443763,6.070664,2.138686,0.284128,-3.759458,0.508592,0.606066,0.493901,0.360667,102.884256,3.739028,75.374459
56450,NaN,4.090416,16.666880,-2.190154,3.058304,4.862748,6.505131,2.091604,0.344218,-3.770308,0.508077,0.601335,0.509874,0.346818,104.146296,5.796919,76.070801
56451,NaN,5.866720,17.182421,-1.576638,4.598315,6.956313,6.391060,1.930525,0.609146,-3.734808,0.507078,0.595553,0.525867,0.334143,105.359637,7.776594,76.956022
56452,NaN,7.672106,17.465124,-0.488182,6.417812,8.967911,5.758937,1.746429,0.989788,-3.603751,0.505181,0.588749,0.541926,0.323239,106.535628,9.609321,78.078936
56453,NaN,9.604352,16.965575,0.558785,7.820949,11.030817,4.240888,1.420897,1.230851,-3.326679,0.502945,0.581255,0.557010,0.314530,107.578421,11.224058,79.329398
56454,NaN,12.077454,14.827870,0.496701,7.536942,13.591725,1.341209,1.034867,1.363106,-2.956692,0.500710,0.573419,0.570585,0.308080,108.443306,12.596128,80.621185
56455,NaN,14.185304,13.483646,0.320152,7.109688,15.797113,-0.701410,1.064735,2.061755,-2.491529,0.495540,0.565745,0.584432,0.304651,109.422329,13.562667,82.240325
56456,NaN,14.115123,14.853586,2.756303,9.591958,15.791116,-0.535036,1.139248,2.931723,-1.879029,0.486521,0.558544,0.598651,0.304866,110.557095,14.001684,84.241901
56457,NaN,13.016537,16.018443,5.839157,12.474542,14.745007,-0.481678,0.674741,2.874182,-1.156887,0.477736,0.552298,0.609812,0.308000,111.388451,14.030768,86.067772
56458,NaN,12.649167,15.007165,8.306675,14.054467,14.132448,-2.266246,0.129079,2.596055,-0.374666,0.469992,0.547449,0.617191,0.313818,111.826942,13.683025,87.570561
56459,NaN,10.654730,15.787921,9.400860,15.056551,12.443828,-1.469731,0.430695,2.306600,0.456950,0.460944,0.546241,0.621979,0.319833,112.341886,12.943155,88.724311
56460,NaN,8.827297,16.281471,13.015949,18.409371,10.478868,-1.831088,-0.456446,1.257289,1.065534,0.456553,0.546504,0.621206,0.327102,112.180177,12.104870,89.167018
56461,NaN,8.277816,14.085328,11.163144,15.785659,9.622030,-2.759124,-0.894303,-0.077438,1.710850,0.456418,0.549905,0.614850,0.333537,111.585652,11.211417,88.748435
56462,NaN,6.741325,13.646377,8.841300,13.423717,8.005115,-1.716730,-0.888317,-0.641995,2.170835,0.457175,0.555613,0.605875,0.339412,110.928924,10.184581,87.937098
56463,NaN,0.059390,13.623594,4.640332,9.194459,1.510239,1.155697,-1.188927,-0.735143,2.503051,0.458410,0.561695,0.595149,0.346636,110.098057,8.988506,87.023882
56464,NaN,-10.874240,11.816679,-5.710312,-1.973825,-8.737261,4.686652,-1.398362,-1.466394,2.618374,0.462096,0.568777,0.581913,0.352616,109.106832,7.855689,85.711369
56465,NaN,-30.043210,13.789700,-18.672564,-15.284050,-26.313871,12.888019,-0.831053,0.335768,2.284511,0.459418,0.572896,0.574670,0.361220,108.602233,6.554271,85.465077
56466,NaN,-15.506387,16.824851,3.380379,7.236793,-14.470786,6.714672,-0.837892,-1.562363,1.402057,0.463743,0.577813,0.565504,0.362327,108.002501,6.072239,84.352816
56467,NaN,9.440329,12.425598,13.578737,17.877088,7.980482,-3.140784,-0.457507,-5.594730,1.847825,0.477329,0.591885,0.546106,0.351563,107.384242,6.037199,80.954779
56468,NaN,19.922904,15.469579,-1.831739,6.401428,20.556843,3.453698,0.176678,-1.569347,1.825391,0.477847,0.600031,0.537216,0.350748,107.370842,5.307158,79.775153
56469,NaN,5.318974,13.599689,-2.913570,2.237202,6.091195,3.588831,-0.793298,4.760057,1.793824,0.464136,0.594435,0.541624,0.371307,107.095951,3.516620,82.078864
56470,NaN,-9.234750,7.812207,-1.683019,-0.464610,-8.854837,-1.415675,-2.000256,3.925810,1.711602,0.456140,0.587002,0.541765,0.392243,106.040730,1.933939,83.953724
56471,NaN,-6.817684,4.790783,0.544092,1.064608,-6.854080,-5.163568,-0.443395,-1.275281,1.512183,0.457903,0.592586,0.533509,0.393109,105.762512,1.300130,83.009870
56472,NaN,3.489175,9.682280,-0.517751,2.682845,3.343704,-0.442272,0.974712,-4.314319,1.376937,0.463692,0.606836,0.521311,0.380756,106.265686,1.222926,80.412257
56473,NaN,7.551984,12.008952,-10.640013,-5.464582,8.861591,4.542359,-0.848894,-0.927667,1.363501,0.466066,0.610189,0.513371,0.383278,105.770041,0.617964,79.682343
56474,NaN,3.868940,7.129775,-6.236835,-3.412776,4.532525,-1.297891,-1.603262,2.310286,1.128726,0.462807,0.604880,0.512164,0.397012,104.855861,-0.356556,80.784838
56475,NaN,-3.094882,8.226704,1.739230,3.254486,-3.730963,-2.344774,-0.271913,2.243379,0.970984,0.455917,0.602266,0.513828,0.406689,104.687398,-1.223049,81.882605
56476,NaN,-3.728767,12.253483,1.515506,3.923580,-4.639625,1.563860,-0.148124,-1.110343,0.951205,0.457265,0.606641,0.508102,0.405867,104.623085,-1.590573,81.125635
56477,NaN,4.500647,10.542953,-3.613567,-0.156750,4.259891,1.425467,-0.679850,-2.532081,0.970239,0.463740,0.612658,0.497929,0.402072,104.281358,-1.767639,79.578011
56478,NaN,5.899956,8.098652,-6.440330,-3.203624,6.232746,-0.181300,-0.493950,0.618893,0.864532,0.461962,0.612438,0.495698,0.407179,103.992386,-2.335829,79.797679
56479,NaN,-1.286039,9.839479,-1.321936,0.781155,-1.910699,-0.017040,-0.115528,2.763465,0.757492,0.453872,0.608387,0.499463,0.417615,103.860331,-3.139041,81.228303
56480,NaN,-4.407561,11.894174,2.454572,4.390135,-5.779897,0.875705,-0.311832,0.427562,0.799923,0.452072,0.608805,0.497328,0.421489,103.676216,-3.643829,81.354021
56481,NaN,-0.136972,10.082350,-0.782514,1.446000,-1.035630,0.143241,-0.733963,-1.840103,0.844846,0.457069,0.613117,0.489009,0.419577,103.333096,-3.869178,80.210033
56482,NaN,4.347758,8.380753,-5.634409,-2.868081,4.242860,-0.083411,-0.428875,-0.886684,0.743915,0.458977,0.615831,0.483778,0.419584,103.131053,-4.169029,79.613163
56483,NaN,3.347099,9.908399,-3.959791,-1.145859,2.770998,0.960746,-0.107777,1.112500,0.593772,0.455357,0.614702,0.484255,0.424604,103.030110,-4.645567,80.155309
56484,NaN,-0.024370,10.505408,-1.493385,0.719599,-1.054924,0.721214,-0.461159,0.937520,0.545640,0.453332,0.612999,0.483710,0.429821,102.729570,-5.071442,80.607561
56485,NaN,0.320005,8.866693,-2.719422,-0.797959,-0.391852,-0.575517,-0.541828,-0.254202,0.490491,0.454544,0.613527,0.480451,0.431441,102.440384,-5.314909,80.400001
56486,NaN,2.402997,9.046802,-3.996818,-1.687129,1.784182,0.064749,-0.175763,-0.054148,0.388684,0.454367,0.614205,0.478740,0.432563,102.349410,-5.527109,80.318222
56487,NaN,2.156188,10.455446,-2.539916,-0.077822,1.110241,1.104162,-0.204116,0.789214,0.350552,0.452336,0.612895,0.478999,0.436247,102.195605,-5.820431,80.716007
56488,NaN,0.290863,10.298192,-1.134580,0.902806,-0.937109,0.469872,-0.453533,0.753644,0.366093,0.451111,0.611123,0.478572,0.440450,101.898587,-6.117105,81.093249
56489,NaN,0.227380,9.571562,-1.399822,0.451075,-0.901558,-0.189304,-0.381323,0.158972,0.354326,0.451107,0.610787,0.476995,0.442626,101.677736,-6.335415,81.137887
56490,NaN,1.354706,10.131689,-2.010163,0.099048,0.175239,0.602994,-0.217774,0.066542,0.342481,0.450848,0.610992,0.475602,0.444103,101.555621,-6.536682,81.132389
56491,NaN,1.327997,10.413594,-2.101700,0.018688,0.084464,0.893191,-0.368609,0.374500,0.374752,0.450242,0.610246,0.474469,0.446947,101.327688,-6.790687,81.297913
56492,NaN,1.050094,9.754701,-2.171928,-0.256750,-0.123783,0.231844,-0.404324,0.313145,0.389281,0.449854,0.609584,0.473066,0.449719,101.082385,-7.045738,81.428233
56493,NaN,1.504720,9.907841,-2.552248,-0.574334,0.308097,0.508091,-0.254162,0.170570,0.387051,0.449346,0.609571,0.471686,0.451689,100.932912,-7.283097,81.478916
56494,NaN,1.730207,10.438781,-2.660221,-0.594114,0.419779,1.073498,-0.284240,0.347812,0.401406,0.448477,0.609119,0.470586,0.454303,100.752726,-7.547871,81.629354
56495,NaN,1.373119,10.240969,-2.369460,-0.442675,0.018304,0.778843,-0.393421,0.497277,0.427284,0.447524,0.608136,0.469492,0.457678,100.498492,-7.842063,81.863055
56496,NaN,0.817799,10.001084,-2.127686,-0.375380,-0.565531,0.422368,-0.394240,0.485577,0.465375,0.446508,0.607259,0.468244,0.461101,100.243479,-8.155852,82.087634
56497,NaN,0.852667,10.191450,-1.855673,-0.122744,-0.643850,0.560653,-0.350014,0.354332,0.504889,0.445567,0.606868,0.466682,0.464101,100.024113,-8.477405,82.234849
56498,NaN,0.836011,10.417396,-1.901693,-0.184010,-0.749518,0.781713,-0.389278,0.349477,0.574157,0.444590,0.606553,0.464798,0.467328,99.782291,-8.837313,82.373849
56499,NaN,0.552721,10.623737,-1.619726,0.033022,-1.156254,0.885637,-0.406779,0.424257,0.635768,0.443341,0.606158,0.462848,0.470949,99.523814,-9.238277,82.551334
56500,NaN,0.471644,10.861028,-1.227219,0.384717,-1.387941,1.032372,-0.455344,0.307744,0.695304,0.442360,0.606055,0.460334,0.474456,99.247467,-9.661459,82.658548
56501,NaN,0.835809,10.815705,-1.394697,0.195438,-1.081053,1.069200,-0.540101,0.144431,0.756051,0.441858,0.606280,0.457066,0.477784,98.938743,-10.103403,82.668685
56502,NaN,1.233645,10.605802,-1.606734,-0.062373,-0.709844,0.961250,-0.585230,0.213506,0.807194,0.441203,0.606342,0.453674,0.481528,98.596961,-10.580489,82.716659
56503,NaN,1.257340,10.619539,-1.567461,-0.092614,-0.776360,0.966927,-0.562724,0.261830,0.837821,0.440284,0.606391,0.450341,0.485420,98.262710,-11.078492,82.792786
56504,NaN,1.478025,10.781348,-1.694749,-0.245256,-0.669511,1.177521,-0.573846,0.153143,0.870100,0.439554,0.606735,0.446629,0.489068,97.933378,-11.585766,82.806511
56505,NaN,1.752368,10.741807,-1.910691,-0.506879,-0.463784,1.216123,-0.633369,0.181301,0.904492,0.438843,0.606939,0.442718,0.492993,97.566700,-12.114476,82.836965
56506,NaN,1.717539,10.760204,-1.835634,-0.517207,-0.603711,1.208571,-0.611006,0.333915,0.931794,0.437647,0.606855,0.439098,0.497378,97.192872,-12.669870,82.957773
56507,NaN,1.379669,11.089343,-1.576275,-0.351240,-1.131463,1.410354,-0.587964,0.354514,0.952997,0.436266,0.606798,0.435503,0.501802,96.828159,-13.237848,83.092950
56508,NaN,1.103841,11.473800,-1.510478,-0.369502,-1.602560,1.695642,-0.644316,0.334658,1.007882,0.434947,0.606763,0.431540,0.506392,96.432151,-13.834961,83.217039
56509,NaN,0.821236,11.618491,-1.593026,-0.570142,-2.017370,1.754702,-0.777864,0.344139,1.082807,0.433804,0.606551,0.427014,0.511438,95.957189,-14.474305,83.346855
56510,NaN,0.639929,11.755099,-1.407959,-0.510209,-2.365935,1.793933,-0.871984,0.339860,1.175758,0.432696,0.606312,0.421934,0.516848,95.427035,-15.165291,83.474953
56511,NaN,0.731456,12.060428,-1.435549,-0.632098,-2.491815,2.080080,-0.919154,0.288807,1.275628,0.431554,0.606278,0.416294,0.522387,94.876173,-15.909421,83.574592
56512,NaN,0.977005,12.570397,-1.803672,-1.077659,-2.517004,2.626049,-0.946898,0.227013,1.378395,0.430328,0.606517,0.410108,0.527984,94.317369,-16.708362,83.640529
56513,NaN,1.147033,13.066060,-2.332782,-1.711987,-2.619527,3.136513,-1.029044,0.262828,1.471686,0.428997,0.606631,0.403468,0.534017,93.703069,-17.561448,83.732718
56514,NaN,1.060912,13.323651,-2.578658,-2.128825,-2.942354,3.305958,-1.194289,0.453068,1.602891,0.427395,0.606089,0.396361,0.541192,92.955087,-18.494619,83.945965
56515,NaN,0.532310,13.400048,-2.609693,-2.403887,-3.667094,3.126436,-1.287324,0.694366,1.751804,0.425141,0.604920,0.389018,0.549537,92.099371,-19.516383,84.316224
56516,NaN,-0.165454,13.923745,-2.384823,-2.444052,-4.743404,3.267937,-1.286421,0.773998,1.901664,0.422262,0.603741,0.381343,0.558363,91.215345,-20.619544,84.751403
56517,NaN,-0.679684,14.638530,-2.494700,-2.816335,-5.719770,3.615353,-1.373231,0.830552,2.091357,0.418937,0.602488,0.372909,0.567837,90.253351,-21.825389,85.242075
56518,NaN,-1.479750,15.223300,-2.740858,-3.367337,-6.943839,3.673554,-1.506448,1.043863,2.302935,0.414937,0.600625,0.363836,0.578533,89.143471,-23.142833,85.893653
56519,NaN,-3.370113,16.452891,-1.942154,-2.974692,-9.544223,3.820569,-1.515686,1.578823,2.502276,0.409310,0.597412,0.355156,0.591125,87.862444,-24.554142,86.919997
56520,NaN,-7.820989,19.561076,-2.362430,-3.961547,-15.219642,4.400656,-1.411312,2.120752,2.714758,0.401656,0.593001,0.347154,0.605398,86.447492,-26.048379,88.344512
56521,NaN,-8.756797,23.538389,-1.487559,-3.583463,-18.298356,7.075948,-1.439049,1.100043,2.935558,0.395056,0.591818,0.336246,0.616945,85.246691,-27.682131,89.182422
56522,NaN,-5.657261,23.415338,-1.326288,-3.760092,-16.008011,7.838730,-2.250219,-0.571191,3.162999,0.392835,0.594364,0.318757,0.625144,84.047129,-29.517457,89.000663
56523,NaN,0.936148,17.902409,-1.237998,-3.465239,-8.097547,5.848557,-2.690620,-0.951315,3.628243,0.390889,0.597707,0.297608,0.633547,82.687566,-31.647241,88.647409
56524,NaN,1.590862,17.614136,-3.425709,-5.956945,-7.721052,5.332632,-1.551722,-0.302892,3.870998,0.383623,0.601288,0.280476,0.642355,81.720149,-33.868355,88.797396
56525,NaN,-2.901854,22.708014,-4.328927,-8.020934,-14.720487,6.364702,-1.545094,0.189232,3.871086,0.375472,0.603043,0.264173,0.652359,80.524959,-36.045097,89.342322
56526,NaN,-0.793890,20.309141,-3.355778,-7.070750,-12.268919,5.145586,-2.842499,-0.800155,3.991130,0.371959,0.605428,0.241298,0.660968,78.934395,-38.376795,89.284260
56527,NaN,1.630378,14.055366,-6.128673,-8.961862,-6.552544,0.887511,-2.776936,-1.764648,3.805437,0.369785,0.610523,0.217242,0.665828,77.802553,-40.718393,88.566695
56528,NaN,2.123028,10.932463,-7.506286,-9.845743,-4.128209,-1.665301,-2.241310,-1.583486,3.360659,0.367064,0.615183,0.196559,0.669461,76.938765,-42.795398,87.940365
56529,NaN,3.232956,8.846249,-4.577595,-6.611130,-2.601757,-2.119661,-1.921660,-1.838853,2.963817,0.364771,0.620630,0.177594,0.670985,76.449889,-44.692735,87.058574
56530,NaN,2.184363,6.438253,-5.567404,-7.048063,-1.567052,-4.804057,-1.953807,-1.574252,2.360580,0.364251,0.624378,0.160833,0.672016,75.898532,-46.221297,86.266329
56531,NaN,2.152158,3.932908,-8.996450,-9.655585,1.004982,-7.206436,-2.154191,-0.328936,1.362312,0.366614,0.622632,0.148726,0.675132,74.652347,-47.026445,86.286106
56532,NaN,-1.328722,1.999983,-8.607825,-8.831566,-0.106428,-11.170796,-1.803187,2.767297,0.855855,0.367218,0.610561,0.145043,0.686534,71.844358,-47.038881,88.716311
56533,NaN,-3.466180,-1.482143,-0.173763,0.338040,-1.315266,-13.333391,-2.299100,3.248157,0.098309,0.371452,0.595170,0.142783,0.698147,68.649358,-46.465365,91.297182
56534,NaN,-3.584568,-2.502959,-5.410595,-4.121252,0.563009,-15.388219,-1.238216,-0.103437,-0.649982,0.377460,0.592783,0.140218,0.697475,68.148283,-46.141122,91.014279
56535,NaN,-2.408143,-0.385776,-9.372654,-8.584020,0.949188,-14.195393,0.087995,-0.279956,-1.213476,0.381601,0.593091,0.143587,0.694266,68.620912,-45.556460,90.429291
56536,NaN,-2.560851,1.872786,-6.012500,-6.248738,-1.583638,-11.971212,0.115905,2.364163,-1.530606,0.384825,0.583980,0.153043,0.698180,67.766010,-44.239272,91.740066
56537,NaN,-4.497087,1.886283,-0.598298,-1.111180,-4.345862,-11.817045,-0.220187,1.987274,-1.725067,0.389917,0.575277,0.161118,0.700758,67.006119,-42.891685,92.663112
56538,NaN,-4.539989,0.718367,-1.957689,-1.949865,-3.369012,-12.944337,-0.200559,-0.188134,-1.986402,0.397576,0.573948,0.165774,0.696445,67.391660,-41.884570,91.926909
56539,NaN,-2.415212,-0.206674,-4.732525,-4.292330,-0.610112,-12.890988,0.327058,-0.658316,-2.259650,0.405005,0.575007,0.172073,0.689731,68.320654,-40.830170,90.808370
56540,NaN,-1.923955,0.617057,-3.882065,-3.832676,-0.972391,-11.688110,0.925235,0.276868,-2.578517,0.410951,0.573685,0.183240,0.684418,69.184297,-39.395898,90.297270
56541,NaN,-3.557481,2.594348,-1.839852,-2.625731,-3.899704,-10.629644,1.198063,0.166849,-2.843198,0.417025,0.572932,0.195812,0.677862,70.254509,-37.837292,89.686449
56542,NaN,-3.750532,3.595669,-1.819659,-2.972337,-4.633388,-9.835503,1.187550,-0.983587,-3.042547,0.424828,0.575712,0.206491,0.667412,71.773910,-36.372139,88.302982
56543,NaN,-2.039747,3.527366,-3.301463,-4.335792,-2.852891,-9.063608,1.264792,-1.603037,-3.259513,0.433624,0.580305,0.216646,0.654432,73.530031,-34.865725,86.536553
56544,NaN,-1.003011,3.741633,-4.127046,-5.132443,-1.850180,-8.306240,1.467899,-1.369781,-3.505095,0.442220,0.584086,0.228623,0.641106,75.252234,-33.142234,84.968923
56545,NaN,-1.321962,4.628219,-3.678454,-4.962133,-2.558758,-7.462410,1.662378,-1.154769,-3.738393,0.450552,0.587087,0.242257,0.627409,76.937130,-31.224294,83.598921
56546,NaN,-1.402315,5.413401,-3.269054,-4.742486,-2.959421,-6.541358,1.750961,-1.456171,-3.931656,0.459385,0.590717,0.255964,0.611965,78.698502,-29.197663,82.101303
56547,NaN,-0.745447,5.940113,-3.890048,-5.306104,-2.303747,-5.629247,1.870205,-1.776161,-4.134764,0.468634,0.595009,0.269735,0.594634,80.537525,-27.052817,80.479227
56548,NaN,-0.072474,6.704183,-4.495652,-5.828290,-1.655593,-4.479909,2.087033,-1.723739,-4.349649,0.477520,0.598993,0.284768,0.576273,82.393216,-24.733734,78.978782
56549,NaN,0.197331,8.029154,-4.474582,-5.830364,-1.644277,-2.898075,2.319385,-1.575147,-4.536059,0.485702,0.602427,0.301163,0.557204,84.247291,-22.259292,77.668762
56550,NaN,0.113733,9.440559,-4.264162,-5.617379,-1.922260,-1.324832,2.413561,-1.490129,-4.677310,0.493517,0.605200,0.318258,0.537481,86.048841,-19.659880,76.511561
56551,NaN,-0.035317,10.607391,-4.313187,-5.526048,-2.011606,0.010964,2.480394,-1.475654,-4.760465,0.500948,0.607506,0.335552,0.517100,87.801822,-16.983387,75.465103
56552,NaN,-0.223250,11.594987,-4.610115,-5.563451,-1.928008,1.188922,2.613208,-1.533543,-4.833769,0.507870,0.609687,0.353025,0.495705,89.567925,-14.233135,74.483737
56553,NaN,-0.131080,12.945088,-4.719241,-5.258277,-1.623400,2.817582,2.832904,-1.641763,-4.912805,0.514075,0.612041,0.370686,0.472995,91.403297,-11.412062,73.540506
56554,NaN,0.325241,14.461064,-4.849674,-4.712052,-0.879680,4.668279,2.994975,-1.826990,-4.972876,0.519812,0.614587,0.388129,0.448815,93.288027,-8.520470,72.593827
56555,NaN,1.301074,15.687732,-5.001254,-3.846793,0.536763,6.238329,3.113399,-1.986434,-5.061201,0.525192,0.617041,0.405300,0.423281,95.188790,-5.545880,71.663094
56556,NaN,2.153044,16.685358,-5.133193,-2.838774,1.963469,7.431677,3.201172,-1.845679,-5.186620,0.529760,0.618555,0.423032,0.397226,97.079525,-2.476069,70.924379
56557,NaN,3.527994,18.448192,-4.202950,-0.416230,3.572509,9.091789,3.356295,-1.764343,-5.328765,0.533403,0.619375,0.441261,0.370330,99.014525,0.687232,70.347623
56558,NaN,6.103150,21.056278,-3.938247,2.163629,6.618950,11.340281,3.486026,-1.796651,-5.428901,0.536318,0.619698,0.459494,0.342349,100.997616,3.931501,69.871021
56559,NaN,10.377419,23.649083,-3.005536,6.178610,11.172550,12.831728,3.234084,-1.322463,-5.440330,0.538362,0.617838,0.478081,0.316040,102.843795,7.136771,69.769731
56560,NaN,13.340896,24.275730,-2.767110,8.604278,14.767256,12.156258,2.703668,-0.337654,-5.197587,0.538792,0.612983,0.497296,0.294367,104.475116,10.078313,70.287843
56561,NaN,15.160941,23.387515,-2.008829,10.361598,16.936668,9.846873,2.348531,0.493071,-4.684026,0.537072,0.606753,0.516246,0.277301,106.018924,12.592542,71.282110
56562,NaN,18.115588,22.352083,-2.279513,11.171636,20.349665,7.332258,2.076447,0.546380,-4.161639,0.534979,0.600687,0.533073,0.262309,107.452625,14.787455,72.294325
56563,NaN,22.594371,21.131717,-3.226616,11.369031,25.225913,4.391928,1.532709,1.256729,-3.626884,0.531666,0.593370,0.549206,0.252222,108.705223,16.538933,73.671377
56564,NaN,23.046262,18.782948,-2.337757,11.053572,25.442605,1.133242,0.936946,3.064794,-2.812501,0.523890,0.584166,0.566747,0.251174,109.915413,17.479900,75.958578
56565,NaN,20.975026,17.127071,2.570316,13.622414,22.108160,-1.720404,0.638428,3.831698,-1.873789,0.513398,0.575607,0.582909,0.255569,111.054263,17.716897,78.506714
56566,NaN,21.794510,17.393557,7.153430,17.306762,22.112780,-3.476351,0.483593,3.596852,-0.914773,0.502595,0.569516,0.595280,0.262090,112.002837,17.447968,80.716289
56567,NaN,19.907873,18.188010,10.154972,19.395985,20.267685,-3.239585,0.208888,4.048353,0.133460,0.489673,0.565043,0.605209,0.273257,112.769676,16.493407,82.924609
56568,NaN,13.828322,18.083451,13.143239,20.792885,14.305978,-2.468970,-0.323606,4.006068,1.142031,0.476791,0.562143,0.611202,0.288268,113.110782,14.995006,84.852287
56569,NaN,9.246563,16.173233,13.613371,19.710189,9.728935,-2.796019,-0.876946,2.455425,1.962023,0.468861,0.562461,0.610181,0.302466,112.826715,13.410646,85.732357
56570,NaN,4.121107,16.636231,7.702331,14.009117,5.708651,1.332737,-0.096820,1.076117,2.344723,0.462259,0.567746,0.605895,0.311243,112.783859,11.931742,85.777567
56571,NaN,-0.514235,13.095037,11.423924,15.541879,-0.142748,-2.024099,-2.391107,0.814128,2.454922,0.462688,0.568329,0.596980,0.326401,111.396431,10.452683,85.675455
56572,NaN,-12.702020,5.855522,-0.657917,0.529404,-11.625166,-2.026516,-2.356252,0.070076,2.458850,0.465089,0.570052,0.586204,0.339261,109.968567,9.118759,85.205005
56573,NaN,-42.574391,11.236501,-29.180715,-26.592662,-37.221197,16.598220,-1.321697,2.298615,1.769718,0.459057,0.568222,0.584176,0.353737,109.346303,7.720319,86.110478
56574,NaN,-19.987094,28.118015,9.705419,17.133545,-18.213176,15.857818,0.458185,-1.436686,1.763433,0.458797,0.576956,0.576625,0.352321,109.466904,7.039926,84.985605
56575,NaN,15.791164,31.071554,30.017065,40.604902,12.728018,7.617330,-0.135476,-9.115193,2.775550,0.480047,0.600068,0.546813,0.332369,108.707143,7.244518,79.483952
56576,NaN,21.967786,16.091472,-12.825378,-2.089441,25.036916,6.762760,-2.029482,-4.214371,3.473069,0.491681,0.611465,0.522656,0.333453,107.204851,6.094604,76.550191
56577,NaN,3.052469,1.853495,-6.509966,-4.875886,4.460181,-6.429765,-1.830945,6.185312,2.441902,0.476751,0.602698,0.527018,0.362927,106.414462,3.729220,79.545434
56578,NaN,-9.443886,2.663465,6.083088,5.002099,-10.320080,-8.495552,-1.026562,5.210886,1.966226,0.462352,0.595764,0.531420,0.385861,105.951420,1.813263,82.098163
56579,NaN,-4.475160,11.011470,5.237084,7.334411,-5.474625,-0.597407,1.378556,-4.183688,2.178001,0.465015,0.612655,0.517749,0.374634,106.672024,1.288048,79.442761
56580,NaN,12.825097,16.579401,-6.975517,1.013533,13.326357,7.774811,0.487302,-6.536072,1.860162,0.476682,0.630514,0.497451,0.357448,106.863332,1.346589,75.545175
56581,NaN,11.513874,11.045643,-16.082488,-9.076951,14.338651,5.194027,-1.462710,1.851056,1.825788,0.473368,0.628217,0.493423,0.371212,106.036385,0.042278,76.262758
56582,NaN,2.020729,4.978682,2.727153,4.302960,1.063592,-5.731205,-1.151468,5.069527,1.457746,0.461595,0.619480,0.498506,0.393277,105.344607,-1.549452,78.829958
56583,NaN,-7.171304,7.950327,2.519216,3.050370,-8.130730,-3.062383,-0.109017,1.431448,1.199348,0.455980,0.619404,0.497846,0.400713,105.263553,-2.429505,79.436650
56584,NaN,-2.399412,11.827085,0.287787,2.768469,-3.505294,1.401899,0.080563,-2.410503,0.972396,0.459738,0.626813,0.489439,0.395217,105.376624,-2.603677,77.952595
56585,NaN,5.162800,11.460108,-5.415100,-1.175343,4.927360,2.901535,-0.664469,-1.571742,1.028745,0.463605,0.630905,0.481252,0.394242,105.048070,-2.936929,76.924379
56586,NaN,4.077538,8.419418,-4.123965,-1.013092,3.854580,-0.398198,-0.740814,1.689119,0.926321,0.460020,0.628081,0.480740,0.403466,104.579186,-3.699254,77.722271
56587,NaN,-0.913851,9.112839,-0.674983,1.273128,-1.844377,-0.906991,-0.257589,1.770580,0.742792,0.455046,0.625700,0.481925,0.411315,104.372555,-4.365745,78.596950
56588,NaN,-1.651723,10.847177,-0.609292,1.554159,-2.856945,0.684105,-0.179655,-0.358672,0.667763,0.455089,0.627661,0.478628,0.412129,104.294918,-4.687348,78.298848
56589,NaN,2.041886,10.620603,-3.421457,-0.463554,1.225632,1.454773,-0.361915,-0.934236,0.653230,0.457099,0.630342,0.473686,0.411522,104.141637,-4.919512,77.682523
56590,NaN,3.561494,9.471957,-4.675507,-1.632947,3.048100,0.784697,-0.461985,0.257286,0.561772,0.456779,0.630110,0.471531,0.414695,103.873213,-5.269258,77.744560
56591,NaN,1.826019,8.904559,-3.047405,-0.633631,1.080731,-0.307842,-0.374442,0.983296,0.457261,0.454678,0.628312,0.471540,0.419693,103.615071,-5.658458,78.228421
56592,NaN,0.828837,9.250782,-1.689061,0.490986,-0.227426,-0.388044,-0.160735,0.423790,0.383002,0.453371,0.627985,0.470942,0.422259,103.506426,-5.930532,78.410614
56593,NaN,1.386294,9.870383,-2.377930,0.054150,0.308764,0.429503,-0.052951,-0.009391,0.334003,0.452846,0.628698,0.469748,0.423091,103.484177,-6.116231,78.357086
56594,NaN,1.820661,10.145156,-2.867569,-0.286904,0.739257,0.856566,-0.100185,0.296208,0.337435,0.451742,0.628664,0.469127,0.425007,103.415880,-6.345532,78.474551
56595,NaN,1.078852,9.936112,-2.509714,-0.162553,-0.053466,0.490680,-0.198648,0.573614,0.346321,0.450276,0.627833,0.468897,0.428035,103.273793,-6.615337,78.746934
56596,NaN,0.281806,9.609026,-2.291075,-0.205525,-0.857384,0.030293,-0.203902,0.468338,0.363642,0.449029,0.627249,0.468353,0.430787,103.133952,-6.881258,78.958743
56597,NaN,0.358679,10.004397,-2.287468,-0.132946,-0.885078,0.417069,-0.125529,0.198649,0.369227,0.448154,0.627430,0.467358,0.432511,103.057187,-7.113988,79.018779
56598,NaN,1.068191,10.489091,-2.667994,-0.293218,-0.250456,1.056137,-0.200639,0.069456,0.390308,0.447768,0.627769,0.465837,0.434058,102.946003,-7.342576,79.003823
56599,NaN,1.476542,10.375358,-3.136745,-0.729230,0.200820,1.100376,-0.377184,0.252127,0.391427,0.447506,0.627314,0.464341,0.436582,102.720868,-7.594239,79.092276
56600,NaN,1.885992,9.825853,-2.999214,-0.683361,0.630963,0.590872,-0.495796,0.413143,0.381947,0.447257,0.626213,0.462965,0.439866,102.414277,-7.861073,79.274060
56601,NaN,1.832061,9.354107,-3.312410,-1.147575,0.669628,0.190415,-0.507180,0.432875,0.353685,0.447054,0.624969,0.461696,0.443163,102.098653,-8.112693,79.472003
56602,NaN,1.872963,9.110814,-3.452048,-1.381078,0.734065,-0.015500,-0.447961,0.570536,0.344349,0.446362,0.623522,0.460882,0.446732,101.804016,-8.375162,79.750549
56603,NaN,1.591190,9.532472,-2.991164,-0.967479,0.275141,0.253832,-0.365637,0.711609,0.350686,0.445067,0.621947,0.460545,0.450551,101.543793,-8.655409,80.109828
56604,NaN,1.459155,9.823654,-1.960367,0.002750,-0.093580,0.309917,-0.429457,0.756252,0.383730,0.443783,0.620192,0.460046,0.454727,101.241169,-8.958294,80.492395
56605,NaN,0.994692,9.672661,-1.549227,0.238288,-0.617314,0.011338,-0.529910,0.746635,0.446883,0.442679,0.618367,0.459095,0.459226,100.881005,-9.292668,80.864521
56606,NaN,0.661355,9.629279,-1.141106,0.513496,-1.031863,-0.162111,-0.505752,0.658443,0.498772,0.441572,0.616902,0.457828,0.463507,100.540815,-9.645346,81.183180
56607,NaN,0.571511,9.921811,-0.899712,0.719875,-1.253679,0.060912,-0.522437,0.501811,0.553700,0.440740,0.615875,0.456002,0.467449,100.205424,-10.010228,81.408897
56608,NaN,0.860920,9.916254,-1.095048,0.503216,-1.001496,0.137965,-0.624741,0.318446,0.615587,0.440485,0.615180,0.453328,0.471191,99.828759,-10.391042,81.525840
56609,NaN,1.337411,9.601614,-1.462324,0.092951,-0.489427,-0.021412,-0.682932,0.261747,0.669325,0.440402,0.614597,0.450221,0.474992,99.424892,-10.795308,81.607685
56610,NaN,1.602069,9.658913,-1.760341,-0.230418,-0.270993,0.128775,-0.651658,0.299475,0.696291,0.440063,0.614039,0.447172,0.478892,99.033640,-11.218359,81.711776
56611,NaN,2.031912,10.124731,-1.765955,-0.190787,-0.018302,0.662037,-0.587728,0.277787,0.717497,0.439515,0.613706,0.444158,0.482612,98.681023,-11.650195,81.804316
56612,NaN,2.068093,10.654142,-2.149518,-0.577890,-0.130205,1.235216,-0.636038,0.311729,0.760640,0.438924,0.613266,0.440954,0.486632,98.295654,-12.109368,81.915842
56613,NaN,1.843409,10.758317,-2.273060,-0.810364,-0.439510,1.298345,-0.732769,0.479699,0.816449,0.438111,0.612308,0.437703,0.491482,97.833734,-12.612272,82.123922
56614,NaN,1.486994,10.960913,-1.979313,-0.646687,-0.952474,1.365123,-0.718743,0.550903,0.873133,0.436942,0.611307,0.434447,0.496629,97.368268,-13.151684,82.373744
56615,NaN,1.077230,11.606462,-1.549915,-0.312052,-1.646830,1.826102,-0.682574,0.536675,0.940898,0.435508,0.610544,0.431031,0.501778,96.923541,-13.726075,82.615170
56616,NaN,0.919293,12.202380,-1.159917,0.003510,-2.097007,2.298836,-0.734089,0.441851,1.024511,0.434208,0.610060,0.427001,0.506914,96.460032,-14.340356,82.800604
56617,NaN,1.065134,12.327016,-0.936471,0.135883,-2.131575,2.410327,-0.859358,0.389537,1.106451,0.433172,0.609582,0.422273,0.512306,95.930791,-14.995974,82.955929
56618,NaN,0.860142,12.206850,-0.767078,0.141841,-2.441048,2.202038,-0.928308,0.463459,1.190616,0.431951,0.608907,0.417244,0.518226,95.347679,-15.702694,83.157238
56619,NaN,0.501251,12.353155,-0.516662,0.225121,-2.985901,2.193524,-0.921975,0.424332,1.275931,0.430542,0.608487,0.411864,0.524161,94.771588,-16.453690,83.338865
56620,NaN,0.537156,12.733837,-0.988598,-0.354514,-3.168921,2.566527,-0.913092,0.198322,1.379757,0.429272,0.608850,0.405674,0.529581,94.235892,-17.252434,83.389180
56621,NaN,0.842225,13.131658,-1.667950,-1.121122,-3.102612,3.034264,-0.950598,0.159055,1.481558,0.427893,0.609399,0.398964,0.535134,93.684414,-18.106979,83.419761
56622,NaN,0.884649,13.636015,-2.046868,-1.636094,-3.372236,3.486122,-1.042684,0.296907,1.623040,0.426105,0.609610,0.391834,0.541549,93.051372,-19.046975,83.538110
56623,NaN,0.633238,14.041344,-2.553483,-2.339993,-3.904770,3.727985,-1.163814,0.422065,1.785523,0.423956,0.609479,0.384108,0.548869,92.319304,-20.081686,83.740289
56624,NaN,0.322967,14.535537,-2.750367,-2.766334,-4.584710,3.981087,-1.222347,0.599252,1.953587,0.421128,0.608980,0.376034,0.557129,91.506965,-21.213475,84.063885
56625,NaN,-0.806694,15.554497,-2.352916,-2.706072,-6.311575,4.363238,-1.280287,0.934288,2.133975,0.417278,0.607669,0.367896,0.566807,90.571561,-22.447232,84.613233
56626,NaN,-3.171389,17.511886,-2.029352,-2.860546,-9.579845,5.048889,-1.323986,1.343400,2.323430,0.412188,0.605333,0.359839,0.578090,89.488154,-23.780424,85.446166
56627,NaN,-5.929005,20.108901,-3.121630,-4.482836,-13.419305,5.968951,-1.412482,1.261370,2.535655,0.406801,0.603292,0.350629,0.589585,88.340780,-25.220993,86.267156
56628,NaN,-6.085531,21.314276,-3.405960,-5.135857,-14.461434,6.539005,-1.759814,0.688573,2.754306,0.402717,0.602455,0.338481,0.600248,87.113318,-26.783501,86.772189
56629,NaN,-4.932841,19.673746,-4.301252,-6.214929,-13.045363,5.054540,-2.103326,0.607937,3.000604,0.398937,0.601399,0.324290,0.611559,85.673510,-28.479200,87.283298
56630,NaN,-3.830453,18.176795,-2.856582,-4.946240,-11.903885,3.862734,-2.022686,0.930040,3.232208,0.393542,0.599672,0.310179,0.623945,84.127073,-30.277450,88.078005
56631,NaN,-1.543340,18.237578,-1.211076,-3.598235,-10.558252,4.747046,-1.981532,0.406162,3.627513,0.387439,0.600032,0.293848,0.635221,82.710420,-32.317442,88.623972
56632,NaN,0.098758,21.205012,-2.876746,-5.963784,-11.144139,7.453366,-1.457027,-0.577042,3.901991,0.380171,0.604668,0.276335,0.643028,81.898658,-34.578061,88.586729
56633,NaN,-1.893901,22.318941,-5.421250,-9.073852,-13.731191,6.316328,-2.146483,0.183858,3.898512,0.373764,0.605263,0.257925,0.653783,80.350957,-36.770801,89.135641
56634,NaN,-0.373282,17.415329,-3.130560,-6.416136,-10.375963,3.006905,-3.088913,0.112455,3.907149,0.370070,0.604000,0.236142,0.665184,78.213007,-38.958943,89.739529
56635,NaN,0.683418,12.707070,-5.188409,-7.848339,-6.687877,-0.729221,-2.548404,-1.180071,3.653913,0.366893,0.607392,0.214383,0.671197,76.933771,-41.151119,89.462048
56636,NaN,2.498208,11.703117,-4.785680,-7.457842,-4.933186,-0.531601,-2.168676,-1.445629,3.307914,0.363837,0.611702,0.194370,0.675029,76.024787,-43.188016,88.969465
56637,NaN,4.528279,9.822204,-3.240070,-5.627250,-2.679414,-0.398429,-2.054733,-2.037252,2.959386,0.362018,0.617613,0.174634,0.676018,75.546771,-45.120676,87.969161
56638,NaN,3.956195,7.070901,-4.550774,-6.232470,-1.058730,-3.001403,-1.837577,-2.356603,2.436553,0.361437,0.624292,0.156611,0.674608,75.491129,-46.810517,86.586336
56639,NaN,-0.219513,4.923493,-8.663189,-9.747896,-1.394252,-8.273044,-2.127299,-0.691326,1.556005,0.363318,0.623967,0.143311,0.676851,74.441369,-47.776615,86.359560
56640,NaN,-2.404498,2.320213,-10.877904,-11.121342,-0.365118,-12.193606,-2.135097,1.249687,0.908057,0.365968,0.616484,0.135522,0.683848,72.299751,-48.070736,87.600941
56641,NaN,-2.230444,-1.107898,-0.163750,0.188451,-0.682193,-12.205966,-2.062023,2.245329,0.234400,0.369939,0.605150,0.131838,0.692501,69.727303,-47.781681,89.478066
56642,NaN,-3.081994,-1.540718,-6.032810,-5.091289,0.608036,-14.500514,-1.539607,0.279155,-0.500522,0.376122,0.601014,0.128546,0.693390,68.799219,-47.457582,89.544769
56643,NaN,-2.917006,-0.091761,-8.452462,-7.849404,0.406814,-14.076814,-0.193481,-0.204209,-1.034699,0.380397,0.600713,0.130595,0.690932,69.041476,-46.949106,89.066912
56644,NaN,-2.582010,1.825856,-5.093833,-5.419615,-1.629140,-11.792749,-0.199079,1.947703,-1.333121,0.384290,0.592724,0.137619,0.694306,68.136249,-45.831373,90.164298
56645,NaN,-4.803342,1.429203,-1.537076,-1.926088,-3.925344,-12.703779,-0.572365,1.670221,-1.517872,0.390062,0.584771,0.143326,0.696673,67.252841,-44.666198,90.949874
56646,NaN,-4.488141,-0.293867,-2.453807,-2.127855,-2.393021,-13.812208,-0.437802,-0.201371,-1.874415,0.397986,0.583279,0.146895,0.692687,67.513754,-43.719995,90.220892
56647,NaN,-2.390894,-0.610715,-4.833090,-4.253131,-0.087172,-13.181805,0.261020,-0.735119,-2.227641,0.405433,0.584697,0.152819,0.685857,68.483892,-42.696991,89.026048
56648,NaN,-1.913488,0.575797,-3.739639,-3.715646,-0.797706,-11.692847,0.766329,0.104463,-2.598757,0.411976,0.583884,0.163255,0.680223,69.361276,-41.286784,88.376418
56649,NaN,-3.638245,2.233297,-1.895703,-2.674487,-3.614369,-11.077578,0.902337,0.128025,-2.910749,0.419071,0.582893,0.175061,0.673772,70.314807,-39.698519,87.708095
56650,NaN,-4.121034,2.861232,-1.879426,-2.939769,-4.374397,-10.772607,0.906906,-0.876029,-3.163357,0.427780,0.584922,0.185487,0.663675,71.700512,-38.148497,86.335720
56651,NaN,-2.643826,2.942256,-3.374858,-4.341783,-2.854991,-9.988853,1.110952,-1.493272,-3.415588,0.437151,0.589005,0.195928,0.650834,73.411995,-36.540305,84.568097
56652,NaN,-1.415248,3.410821,-4.020671,-5.029291,-1.893347,-8.853410,1.404770,-1.304644,-3.668362,0.446126,0.592632,0.208420,0.637433,75.147051,-34.719712,82.978181
56653,NaN,-1.336207,4.406917,-3.707003,-5.021875,-2.333402,-7.744056,1.597059,-1.077347,-3.889176,0.454790,0.595465,0.222575,0.623738,76.826204,-32.709392,81.606488
56654,NaN,-1.273714,5.201769,-3.575678,-5.074350,-2.579384,-6.803211,1.695112,-1.266925,-4.080887,0.463749,0.598602,0.237082,0.608608,78.547903,-30.579602,80.183863
56655,NaN,-0.562529,5.690979,-4.062766,-5.478286,-1.903345,-5.867271,1.806118,-1.427782,-4.271025,0.472881,0.601925,0.251972,0.592098,80.294805,-28.326314,78.741425
56656,NaN,0.191836,6.334497,-4.312995,-5.612151,-1.247533,-4.743139,1.989625,-1.358884,-4.491270,0.481738,0.604829,0.268094,0.574662,82.036989,-25.902615,77.429383
56657,NaN,0.604619,7.254906,-4.535992,-5.759243,-0.929390,-3.525714,2.173388,-1.213724,-4.702777,0.490119,0.607062,0.285531,0.556535,83.755058,-23.316757,76.300852
56658,NaN,0.780438,8.510866,-4.548316,-5.723950,-0.909563,-2.059086,2.350683,-1.023564,-4.895615,0.497872,0.608480,0.304322,0.537832,85.449194,-20.578694,75.383300
56659,NaN,0.872549,9.722979,-4.312225,-5.351394,-0.916165,-0.626406,2.490516,-0.812556,-5.029707,0.504843,0.608996,0.324164,0.518820,87.106383,-17.735043,74.690416
56660,NaN,0.692898,10.910035,-4.219330,-5.069165,-1.024202,0.700639,2.643631,-0.636525,-5.126800,0.510903,0.608784,0.344896,0.499406,88.763816,-14.811766,74.196995
56661,NaN,0.235300,12.238419,-4.200751,-4.822855,-1.306094,2.123251,2.911148,-0.601929,-5.199671,0.515823,0.608514,0.366285,0.479033,90.521449,-11.836521,73.820420
56662,NaN,-0.230368,13.670054,-4.135613,-4.391533,-1.517339,3.691943,3.138525,-0.693469,-5.279350,0.519934,0.608339,0.387907,0.457297,92.383322,-8.801474,73.491251
56663,NaN,-0.017912,15.205115,-4.492837,-3.999060,-0.851429,5.503238,3.415792,-1.017965,-5.372996,0.523524,0.608838,0.409195,0.433357,94.394704,-5.695459,73.084687
56664,NaN,0.625017,17.027326,-5.233075,-3.613978,0.459551,7.631980,3.649883,-1.126925,-5.484777,0.526303,0.609299,0.430625,0.407825,96.515690,-2.504413,72.736575
56665,NaN,3.020423,20.017492,-3.811639,-0.258472,2.914941,10.574115,3.921113,-0.998799,-5.569742,0.527546,0.609329,0.452687,0.381428,98.767653,0.733161,72.590523
56666,NaN,6.544502,24.012427,-2.684686,3.676866,6.746598,14.006358,3.876219,-1.362583,-5.608333,0.529191,0.609116,0.473299,0.353444,100.984323,4.034302,72.369210
56667,NaN,10.477611,26.615984,-1.779472,7.531605,11.271531,15.431996,3.429694,-0.880833,-5.530649,0.530313,0.606359,0.493599,0.327806,102.968227,7.237769,72.530500
56668,NaN,13.059782,27.808530,0.143433,11.492060,14.223644,14.870284,2.961616,0.109022,-5.156976,0.529277,0.601064,0.514156,0.306972,104.786524,10.092771,73.305497
56669,NaN,14.889730,26.480182,1.687451,13.879097,16.274490,11.822097,2.555928,0.011674,-4.508662,0.528304,0.596045,0.531470,0.288384,106.393495,12.578425,74.016626
56670,NaN,19.726663,22.804577,0.553346,13.538029,21.402562,6.558390,2.045012,-0.439264,-3.803017,0.528730,0.591860,0.544461,0.271492,107.665178,14.736589,74.422543
56671,NaN,26.327425,21.122341,-2.014265,12.654917,28.588545,3.063687,1.816046,0.316547,-3.061017,0.526563,0.587830,0.556718,0.259330,108.908238,16.344358,75.168905
56672,NaN,29.641034,20.485850,-1.915808,13.117463,31.907025,0.758061,1.065248,2.208922,-2.232689,0.520100,0.581503,0.570391,0.256914,110.008518,17.129165,76.856813
56673,NaN,27.496827,17.828717,3.055839,15.253713,28.337922,-2.924331,0.223355,4.025487,-1.199096,0.509395,0.573392,0.584489,0.264786,110.874352,16.966928,79.364749
56674,NaN,22.173090,18.808932,6.896548,17.258129,23.021312,-1.745248,0.724823,4.664194,-0.068181,0.493628,0.568736,0.597346,0.275769,112.033204,16.024774,81.970299
56675,NaN,16.617423,21.808422,15.423229,24.759817,16.939501,-0.349362,-0.377517,4.250086,0.969461,0.480553,0.564731,0.604400,0.291287,112.378106,14.589681,84.086479
56676,NaN,11.592544,17.221824,15.511780,22.055971,11.625744,-2.746540,-1.408880,2.428596,1.938867,0.474291,0.563619,0.602603,0.307002,111.787146,13.035450,84.980658
56677,NaN,5.968034,14.846518,10.193348,15.559107,6.640807,-1.225551,-1.047368,1.197483,2.603457,0.469583,0.567103,0.596415,0.319649,111.208598,11.395730,85.070997
56678,NaN,-5.908329,16.915376,6.659798,11.937942,-4.392418,4.455083,-0.955848,1.345938,2.836279,0.463677,0.571122,0.589905,0.332921,110.688225,9.600257,85.208943
56679,NaN,-28.781659,16.282885,-4.066631,-0.247111,-26.045975,10.959423,-2.425460,2.482242,3.074913,0.458038,0.570310,0.582670,0.354179,109.410110,7.457195,85.945651
56680,NaN,-40.297553,16.622268,-8.916727,-5.381014,-37.649390,13.275737,-3.230536,3.235620,2.134947,0.453893,0.563251,0.578068,0.377579,107.718274,5.705693,87.319062
56681,NaN,-9.021772,9.112676,16.588060,17.684944,-10.219694,-5.108649,-1.168888,-8.226713,2.428128,0.475945,0.582641,0.549807,0.362929,106.556425,5.764542,82.376723
56682,NaN,22.828115,14.413798,6.867555,15.080347,21.426059,-0.392873,1.852453,-11.290670,2.931934,0.495423,0.614588,0.516801,0.331291,106.930383,6.018762,75.659081
56683,NaN,26.946455,18.507441,-16.003920,-2.332127,30.463095,9.967620,-0.075057,-0.141893,2.722242,0.491461,0.621641,0.507897,0.337741,106.840439,4.549211,75.122598
56684,NaN,3.141528,11.269775,0.808615,4.682724,2.766623,0.575990,-1.902804,9.003655,2.306397,0.470065,0.606953,0.519042,0.375822,106.005647,1.819709,79.700349
56685,NaN,-10.497584,6.665039,3.818980,3.644814,-11.163463,-4.218537,-2.242605,3.231393,2.098721,0.464420,0.600934,0.515912,0.396266,104.748432,0.168515,81.163431
56686,NaN,-0.708936,5.815092,2.758328,3.967753,-1.457611,-4.908378,0.842594,-5.638285,2.012205,0.472227,0.619003,0.498189,0.381634,105.231162,-0.111623,77.741303
56687,NaN,10.147542,13.345929,-9.055879,-2.693151,11.026949,5.491682,0.367825,-4.260612,1.544214,0.478627,0.631714,0.483911,0.371059,105.454178,-0.319748,75.149667
56688,NaN,10.461844,10.057673,-7.648408,-2.109021,11.106739,2.072960,-0.977447,3.147931,1.537942,0.471158,0.627179,0.484671,0.386976,104.869879,-1.644182,76.656858
56689,NaN,-1.516926,8.757820,2.036531,3.699759,-2.681488,-1.921598,-0.693862,4.480733,1.299263,0.459826,0.619877,0.489662,0.405640,104.381464,-3.013709,78.951448
56690,NaN,-6.243833,9.394660,1.534849,2.443301,-7.348194,-1.467995,-0.166035,0.069079,1.113801,0.457897,0.622101,0.486003,0.408805,104.295068,-3.644039,78.828226
56691,NaN,0.231883,10.265111,-3.161614,-0.606004,-0.352704,0.907871,0.000029,-2.443036,1.005365,0.461732,0.629511,0.477228,0.403452,104.396024,-3.856124,77.322815
56692,NaN,4.394136,10.273387,-6.483036,-2.866787,4.294506,2.028708,-0.427330,-0.247461,1.030135,0.461575,0.631499,0.472523,0.406054,104.173418,-4.395229,77.035737
56693,NaN,1.570449,9.636279,-1.916446,0.620108,0.623248,0.098014,-0.448869,2.247412,0.930106,0.455752,0.628077,0.473813,0.416306,103.824685,-5.224673,78.156838
56694,NaN,-1.499892,11.032028,0.677291,2.700393,-3.118468,0.550536,-0.264692,0.641159,0.831037,0.453319,0.628127,0.472086,0.420824,103.651506,-5.776617,78.398438
56695,NaN,1.384643,10.584628,-1.784828,0.791747,0.112244,0.980708,-0.373102,-1.205104,0.779849,0.455675,0.631668,0.466096,0.419656,103.520935,-6.049604,77.614811
56696,NaN,4.211756,9.296947,-5.183242,-2.149861,3.627323,0.829608,-0.382464,-0.226196,0.670482,0.455991,0.632856,0.462636,0.421347,103.327229,-6.395311,77.395014
56697,NaN,2.823766,9.329408,-3.371785,-0.769359,1.873823,0.300486,-0.270027,1.302108,0.530884,0.452697,0.630737,0.463332,0.427271,103.099043,-6.862851,78.052848
56698,NaN,0.561909,9.613778,-1.120356,0.920395,-0.826927,-0.196846,-0.288054,0.855780,0.455148,0.450635,0.629331,0.463192,0.431652,102.884275,-7.229388,78.471908
56699,NaN,1.016377,9.446213,-2.003208,0.095816,-0.249206,-0.106742,-0.221988,-0.078821,0.402145,0.450640,0.629959,0.461257,0.432802,102.772244,-7.444930,78.372571
56700,NaN,2.043704,9.916968,-2.782057,-0.382292,0.763870,0.653114,-0.115943,0.234491,0.375789,0.449641,0.630083,0.460330,0.434643,102.696820,-7.686727,78.453625
56701,NaN,1.031277,10.670183,-2.112769,0.170436,-0.506117,1.100358,-0.229636,0.765113,0.394983,0.447733,0.628835,0.460291,0.438446,102.516036,-8.004178,78.832256
56702,NaN,0.553413,10.511695,-1.882207,0.225493,-1.025264,0.828851,-0.375082,0.312937,0.404141,0.447294,0.628264,0.458877,0.441185,102.285355,-8.270987,78.955663
56703,NaN,1.271625,10.042990,-3.314624,-1.151106,-0.054165,0.776799,-0.348601,-0.027198,0.389541,0.447583,0.628464,0.456811,0.442749,102.097769,-8.486797,78.889267
56704,NaN,2.013520,10.265253,-3.438309,-1.131614,0.607163,1.123589,-0.253727,0.392803,0.369284,0.446655,0.627895,0.455947,0.445376,101.927927,-8.742712,79.064116
56705,NaN,1.527291,10.754874,-2.476159,-0.255615,-0.150812,1.324761,-0.331773,0.648671,0.383608,0.445352,0.626607,0.455437,0.449002,101.690965,-9.034881,79.383448
56706,NaN,1.224966,10.426655,-2.147116,-0.104400,-0.476464,0.891865,-0.431182,0.412596,0.398771,0.444856,0.625653,0.454117,0.452150,101.416186,-9.308194,79.568455
56707,NaN,1.489153,10.043801,-2.382214,-0.402075,-0.152469,0.607736,-0.367436,0.327512,0.390219,0.444369,0.625006,0.452781,0.454854,101.185380,-9.565206,79.707226
56708,NaN,1.747572,9.927630,-2.253803,-0.300636,0.061940,0.511890,-0.366978,0.417456,0.400572,0.443648,0.624173,0.451601,0.457865,100.944839,-9.838456,79.897441
56709,NaN,1.598268,9.748637,-2.159394,-0.314395,-0.103779,0.293912,-0.381513,0.479509,0.433651,0.442752,0.623232,0.450424,0.461162,100.689994,-10.135091,80.120751
56710,NaN,1.445160,9.643908,-1.763970,-0.024104,-0.330946,0.091580,-0.398846,0.493012,0.472128,0.441783,0.622299,0.449104,0.464626,100.422409,-10.454868,80.349387
56711,NaN,1.301486,9.534058,-1.480616,0.158801,-0.532666,-0.092865,-0.424108,0.452000,0.515346,0.440879,0.621493,0.447499,0.468100,100.144591,-10.792683,80.551671
56712,NaN,1.253868,9.523633,-1.364660,0.209823,-0.641872,-0.133969,-0.416847,0.363318,0.565409,0.440025,0.621012,0.445546,0.471392,99.879350,-11.149978,80.699892
56713,NaN,1.375297,9.641688,-1.494235,0.066271,-0.587653,0.022764,-0.423659,0.279318,0.616129,0.439254,0.620818,0.443236,0.474535,99.620101,-11.526082,80.796442
56714,NaN,1.332055,9.722472,-1.737358,-0.224924,-0.675902,0.127694,-0.499273,0.265511,0.664989,0.438624,0.620587,0.440549,0.477910,99.318362,-11.928994,80.882465
56715,NaN,1.392346,9.827734,-1.851156,-0.378996,-0.691577,0.253447,-0.554585,0.335860,0.720281,0.437870,0.620176,0.437710,0.481728,98.977009,-12.368149,81.006348
56716,NaN,1.555843,10.226604,-2.072088,-0.592917,-0.669771,0.699050,-0.552746,0.252919,0.747382,0.437215,0.620014,0.434593,0.485340,98.645500,-12.815564,81.082667
56717,NaN,2.345992,10.544433,-2.337050,-0.770960,-0.026759,1.212488,-0.589427,0.142194,0.779249,0.436828,0.620094,0.431043,0.488740,98.307587,-13.270330,81.094487
56718,NaN,2.606868,10.622607,-2.398703,-0.870940,0.131492,1.350291,-0.699347,0.433554,0.824765,0.436029,0.619303,0.427700,0.493371,97.866341,-13.775187,81.275868
56719,NaN,1.753735,10.604796,-1.795641,-0.508613,-0.843309,1.040423,-0.778633,0.780368,0.883377,0.434573,0.617582,0.424725,0.499347,97.329287,-14.337207,81.660416
56720,NaN,0.821902,10.759932,-1.088096,-0.034716,-1.950746,0.856302,-0.787442,0.681593,0.945667,0.433174,0.616191,0.421294,0.505154,96.797026,-14.925014,81.988923
56721,NaN,0.686508,11.063430,-0.826516,0.125930,-2.289121,1.063716,-0.794473,0.406123,1.027730,0.432152,0.615624,0.416981,0.510273,96.300511,-15.537822,82.155580
56722,NaN,0.864694,11.450044,-0.629218,0.261872,-2.357717,1.439753,-0.853734,0.351003,1.135303,0.431129,0.615262,0.412041,0.515560,95.776701,-16.207879,82.289197
56723,NaN,0.572121,11.765683,-0.196087,0.549385,-2.896302,1.593618,-0.944655,0.400064,1.243248,0.429983,0.614765,0.406621,0.521381,95.191220,-16.940177,82.452904
56724,NaN,0.249198,12.059244,-0.082359,0.501273,-3.439526,1.737601,-1.000556,0.281885,1.364081,0.428903,0.614658,0.400397,0.527182,94.591319,-17.734643,82.548537
56725,NaN,0.443867,12.526139,-0.684000,-0.196361,-3.490369,2.243168,-1.007593,-0.016923,1.473514,0.428122,0.615496,0.393152,0.532267,94.041518,-18.577167,82.468164
56726,NaN,1.040917,13.049977,-1.791700,-1.361713,-3.149168,2.947361,-1.072160,-0.076582,1.607902,0.427263,0.616564,0.385155,0.537542,93.466017,-19.495484,82.354937
56727,NaN,1.194588,13.570242,-2.686403,-2.396190,-3.274018,3.466142,-1.135966,0.177986,1.768372,0.425635,0.617059,0.377001,0.544007,92.801847,-20.514197,82.401019
56728,NaN,0.682117,14.455680,-3.214601,-3.179625,-4.227143,4.035671,-1.198023,0.453196,1.934119,0.423177,0.616908,0.368702,0.551729,92.036530,-21.634179,82.625797
56729,NaN,-0.085193,15.649860,-2.802472,-3.100943,-5.688494,4.705942,-1.287560,0.700443,2.123926,0.419951,0.616144,0.360043,0.560693,91.152253,-22.863330,83.019303
56730,NaN,-2.169018,17.049420,-2.473432,-3.293535,-8.482889,4.975107,-1.408696,1.108271,2.333486,0.415698,0.614241,0.351183,0.571466,90.078066,-24.208799,83.693064
56731,NaN,-5.182396,19.391896,-3.006471,-4.474606,-12.470715,5.561686,-1.396022,1.401225,2.535733,0.410214,0.611738,0.342267,0.583399,88.902795,-25.656142,84.589257
56732,NaN,-5.853552,22.230553,-3.617255,-5.589303,-14.640467,7.389616,-1.513406,0.793630,2.681274,0.405603,0.610857,0.331229,0.593825,87.791359,-27.180081,85.143083
56733,NaN,-4.789959,21.723502,-3.533225,-5.776895,-13.913501,6.930191,-2.096981,0.484870,2.964919,0.402320,0.610001,0.316869,0.604674,86.400356,-28.864351,85.551506
56734,NaN,-3.971718,18.622405,-2.568390,-4.879757,-12.254507,4.156267,-2.229050,0.872710,3.283268,0.397718,0.607981,0.301805,0.617327,84.758699,-30.702415,86.289693
56735,NaN,-1.502902,18.837474,0.056744,-2.543132,-11.003123,5.337467,-1.786843,0.348675,3.657859,0.391237,0.608773,0.285796,0.628211,83.483347,-32.768644,86.772359
56736,NaN,-0.379060,22.286999,-1.893367,-5.253871,-12.250259,8.151084,-1.313828,-0.876740,3.955679,0.383968,0.614496,0.267852,0.634995,82.889455,-35.079385,86.491963
56737,NaN,-2.007757,23.312275,-5.168954,-9.130448,-14.344057,7.069281,-2.002538,-0.188695,4.033005,0.377457,0.616525,0.248669,0.644661,81.596394,-37.385561,86.742322
56738,NaN,-0.636842,19.367210,-3.255391,-6.990751,-11.717822,4.323649,-2.847827,-0.088892,4.069942,0.373104,0.616332,0.226707,0.655387,79.707698,-39.695059,87.158645
56739,NaN,0.011672,15.303080,-5.190729,-8.460970,-8.736527,0.825822,-2.495818,-1.478724,3.840445,0.369762,0.620724,0.203867,0.660618,78.644693,-42.017560,86.601222
56740,NaN,1.842785,13.629369,-5.755427,-8.841299,-6.392686,0.347506,-2.173958,-2.103440,3.444458,0.367172,0.627025,0.182065,0.662477,78.137840,-44.193349,85.524268
56741,NaN,3.013899,11.029369,-4.795261,-7.386110,-4.179711,-0.774215,-2.054502,-2.260249,3.066834,0.365408,0.633413,0.161450,0.662721,77.873329,-46.183573,84.241341
56742,NaN,1.694796,8.011218,-5.095957,-7.063259,-3.017029,-3.979530,-2.070527,-1.764216,2.514978,0.364986,0.637423,0.143386,0.663263,77.421385,-47.807350,83.241130
56743,NaN,-0.717742,5.088713,-9.337595,-10.487019,-1.344218,-8.467085,-2.346310,-0.562152,1.482488,0.367894,0.636032,0.129835,0.665778,76.216800,-48.710077,83.057117
56744,NaN,-3.418642,2.461258,-9.858447,-10.318413,-1.040127,-12.527758,-2.321308,2.374658,0.752626,0.371168,0.624281,0.124078,0.676101,73.267906,-48.768001,85.214680
56745,NaN,-4.349247,-0.785577,-0.751094,-0.593568,-2.112696,-13.721562,-2.488549,3.139271,0.070547,0.376655,0.608998,0.121242,0.687425,69.903262,-48.240576,87.806119
56746,NaN,-6.027804,-1.876304,-6.269327,-5.240371,-0.899439,-16.946274,-1.709014,0.566530,-0.834189,0.384355,0.603326,0.118984,0.688558,68.781197,-47.679047,88.003031
56747,NaN,-5.083380,-0.633930,-8.623089,-7.831650,-0.426390,-16.064373,-0.395782,0.121295,-1.431344,0.390374,0.601308,0.122165,0.686376,68.810452,-46.891948,87.657951
56748,NaN,-4.700580,0.862965,-5.208687,-5.229162,-2.286277,-13.983678,-0.330854,2.308079,-1.809097,0.396116,0.591601,0.130976,0.689888,67.747843,-45.439778,88.873072
56749,NaN,-6.374206,0.836263,-1.853463,-2.086938,-4.548666,-14.253050,-0.461762,2.051742,-2.090549,0.403287,0.582205,0.139612,0.692030,66.872605,-43.883858,89.745232
56750,NaN,-5.838800,0.261666,-2.438194,-2.387056,-3.744502,-14.327537,-0.063557,0.092515,-2.435558,0.411796,0.580044,0.146675,0.687357,67.307909,-42.578028,89.062067
56751,NaN,-3.640998,0.830673,-4.516115,-4.550455,-1.967498,-12.937257,0.612338,-0.505902,-2.762810,0.419825,0.580987,0.155731,0.679669,68.439198,-41.223407,87.897299
56752,NaN,-2.897319,2.514152,-3.325114,-4.127693,-2.780920,-10.812040,1.003812,0.299785,-3.085887,0.427098,0.579626,0.168732,0.673164,69.425197,-39.511755,87.269036
56753,NaN,-4.163273,4.170032,-1.504658,-3.130310,-5.213425,-9.752200,1.010259,0.130578,-3.321885,0.435159,0.578484,0.182008,0.665482,70.473365,-37.700712,86.521007
56754,NaN,-3.887033,4.223637,-1.866764,-3.500423,-4.901513,-9.424382,0.999374,-1.109111,-3.501542,0.444842,0.581088,0.193032,0.653599,71.987484,-36.005236,84.958089
56755,NaN,-1.847113,4.085991,-3.622495,-4.965889,-2.641770,-8.553396,1.265944,-1.613590,-3.703645,0.454708,0.585501,0.204290,0.639292,73.778308,-34.251593,83.111178
56756,NaN,-0.757126,4.879466,-3.939221,-5.396351,-1.939243,-7.164534,1.571513,-1.270793,-3.913249,0.463797,0.589027,0.217847,0.624886,75.535060,-32.281243,81.557787
56757,NaN,-1.081172,6.090618,-3.383861,-5.230516,-2.784627,-5.992445,1.695457,-1.088965,-4.092007,0.472637,0.591780,0.232606,0.610168,77.212962,-30.151881,80.199987
56758,NaN,-0.842349,6.816982,-3.334813,-5.256261,-2.722498,-4.990853,1.794249,-1.506274,-4.254998,0.481916,0.595522,0.247057,0.593358,78.995422,-27.943058,78.655233
56759,NaN,0.320351,7.256403,-4.128958,-5.763172,-1.425206,-3.935127,1.952171,-1.774707,-4.443702,0.491302,0.599832,0.261712,0.574744,80.848250,-25.616225,77.031833
56760,NaN,1.457940,8.072833,-4.637761,-5.983525,-0.288352,-2.539478,2.164125,-1.497210,-4.644401,0.499936,0.603189,0.278103,0.555775,82.651557,-23.104340,75.677005
56761,NaN,1.595294,9.341675,-4.296850,-5.602816,-0.359560,-1.053181,2.336814,-1.061654,-4.798659,0.507500,0.605113,0.296300,0.537110,84.360026,-20.443300,74.688382
56762,NaN,1.168074,10.394598,-4.033945,-5.295477,-0.763483,0.037661,2.421932,-0.864273,-4.890377,0.514386,0.606133,0.315307,0.518257,86.005389,-17.691149,73.913703
56763,NaN,0.803518,10.966550,-4.278366,-5.310779,-0.763266,0.694143,2.533061,-0.753322,-4.969062,0.520557,0.606555,0.334855,0.498982,87.632426,-14.874263,73.297150
56764,NaN,0.401763,12.064714,-4.293044,-5.101519,-0.938994,1.900446,2.825914,-0.656006,-5.029381,0.525408,0.606899,0.355321,0.478923,89.364993,-12.001600,72.829713
56765,NaN,-0.228860,13.586522,-4.221833,-4.778124,-1.351051,3.519814,3.030120,-0.671207,-5.064913,0.529291,0.607230,0.376011,0.457972,91.173643,-9.099553,72.449354
56766,NaN,-0.087757,15.070454,-4.395866,-4.291149,-0.835314,5.262514,3.229114,-0.986597,-5.106210,0.532781,0.608177,0.396131,0.435138,93.090312,-6.152756,71.985885
56767,NaN,0.947686,16.497439,-4.817217,-3.574788,0.744975,7.005042,3.401248,-1.232626,-5.221588,0.535962,0.609299,0.415910,0.410510,95.082128,-3.119817,71.489925
56768,NaN,3.574998,18.087968,-4.277275,-1.215365,3.658412,8.714630,3.593732,-1.181081,-5.390159,0.538237,0.609840,0.436324,0.384730,97.155763,0.025440,71.142931
56769,NaN,7.510397,21.196725,-2.073237,3.555175,7.357209,11.236018,3.654576,-1.124799,-5.519164,0.539854,0.609483,0.456892,0.358244,99.247281,3.245932,70.952881
56770,NaN,11.415850,23.681643,-2.222817,6.270459,11.989379,12.831876,3.317088,-1.109595,-5.515195,0.541865,0.607524,0.476406,0.332165,101.147102,6.470922,70.883254
56771,NaN,14.436695,25.348646,-0.865118,9.914076,15.372302,12.922456,2.884011,0.000903,-5.253564,0.541579,0.602578,0.496924,0.310900,102.889440,9.413882,71.513160
56772,NaN,14.488628,24.925981,0.830264,12.134468,15.708479,11.109480,2.410583,0.727991,-4.678361,0.539583,0.596163,0.516563,0.294284,104.470634,11.921695,72.567518
56773,NaN,15.378143,21.843759,0.207646,11.436780,17.113876,7.213318,2.107389,0.217927,-3.997013,0.538479,0.591079,0.532016,0.278614,105.846167,14.098703,73.302317
56774,NaN,19.243695,19.151438,-1.782712,10.153181,21.483458,3.437913,1.864780,0.504349,-3.370698,0.536213,0.586345,0.545829,0.265979,107.139148,15.869708,74.153658
56775,NaN,23.406779,18.021645,-2.664048,10.025577,25.824805,0.783058,1.490068,1.842231,-2.813466,0.530466,0.580140,0.560889,0.259706,108.437377,17.081629,75.711719
56776,NaN,24.514835,17.512851,-1.341812,10.787750,26.717828,-0.913887,1.006810,3.466217,-2.219690,0.520580,0.571985,0.577694,0.260960,109.734310,17.634325,78.110735
56777,NaN,21.531403,16.618244,4.386016,14.204489,22.573084,-2.913648,0.576874,4.672680,-1.491047,0.507221,0.562936,0.594679,0.268676,110.955327,17.504048,81.051777
56778,NaN,17.707615,16.344219,11.014939,18.742463,17.915092,-4.362636,0.319624,4.797306,-0.653728,0.492777,0.555227,0.608927,0.279468,111.974493,16.845585,83.869448
56779,NaN,13.645139,15.907016,14.815914,21.042942,13.854090,-4.919515,0.024467,4.009241,0.274894,0.480020,0.550437,0.617938,0.291123,112.595599,15.828272,86.018591
56780,NaN,10.038151,16.556945,12.267955,18.428024,11.379890,-2.309465,0.125923,2.635900,1.109997,0.469856,0.550310,0.621312,0.300608,112.982047,14.655048,87.202908
56781,NaN,4.688222,19.835621,16.737252,23.451739,6.387695,0.423399,-0.255565,1.881034,1.561953,0.462333,0.551720,0.620989,0.310203,112.997843,13.409941,87.861733
56782,NaN,0.344358,9.496368,10.643640,13.488012,0.848663,-5.238279,-2.627769,0.190676,2.098330,0.465664,0.551820,0.611456,0.323686,111.412893,12.253261,87.495822
56783,NaN,-19.869317,8.502830,-8.348482,-5.507543,-16.991499,4.942738,-1.221328,0.379933,1.677874,0.465130,0.553488,0.605688,0.332335,110.685264,11.277458,87.347148
56784,NaN,-37.411188,19.188285,-21.790955,-14.660973,-31.664306,22.199739,-0.556248,3.472735,1.713580,0.453213,0.551539,0.607961,0.347542,110.647556,9.654480,88.884291
56785,NaN,-8.410518,28.931170,24.873366,33.047528,-6.863902,9.854653,-0.379723,-5.359122,2.475715,0.466048,0.567301,0.588054,0.339355,109.866189,9.386299,85.461969
56786,NaN,15.398980,21.994911,11.715990,20.345696,15.540988,4.412363,-0.903003,-7.899065,3.333206,0.485740,0.587892,0.558103,0.327048,108.552337,9.070422,80.491842
56787,NaN,15.017689,10.677099,-10.724904,-3.771574,17.760967,1.361468,-1.501816,-1.871533,3.638460,0.489309,0.597345,0.540261,0.334475,107.452570,7.418495,78.807001
56788,NaN,2.543248,3.468116,-6.792018,-4.819249,4.043500,-4.808753,-1.353303,4.029918,2.638335,0.477898,0.594263,0.539783,0.356509,106.873901,5.290338,80.574287
56789,NaN,-3.039731,6.021755,4.164516,5.257701,-3.530771,-5.044690,0.130345,2.651570,2.213585,0.466334,0.595761,0.539680,0.369250,107.035345,3.633427,81.657497
56790,NaN,4.290335,13.881780,0.991799,5.793799,4.145003,2.888963,0.727510,-2.800070,2.130508,0.467710,0.608307,0.528038,0.363848,107.344495,2.939086,79.757508
56791,NaN,9.209430,15.729114,-10.669383,-3.513638,10.890961,7.938112,-0.240329,-2.184386,1.979259,0.470552,0.616905,0.516402,0.362407,107.140022,2.226306,78.221109
56792,NaN,6.767305,7.922059,-6.000601,-2.033718,7.564672,-0.691868,-1.693245,2.281423,1.685862,0.466758,0.613085,0.513406,0.377727,106.197817,0.923357,79.193188
56793,NaN,0.896170,5.722751,1.753598,3.377322,0.331198,-4.801534,-0.642543,2.510401,1.404636,0.459576,0.610411,0.513677,0.390288,105.838936,-0.247858,80.350236
56794,NaN,-3.399088,10.259415,1.033589,3.155003,-4.083200,-0.260203,0.106205,0.033659,1.092141,0.457019,0.613415,0.510595,0.392617,105.902566,-0.857836,80.194291
56795,NaN,0.312575,12.359112,0.224346,3.552871,-0.542326,2.018511,-0.171399,-0.693281,1.035871,0.457266,0.617044,0.505475,0.393267,105.817248,-1.320931,79.646520
56796,NaN,1.499700,10.602934,-2.759838,0.420773,1.130767,1.179628,-0.486751,-0.097676,1.124456,0.456788,0.618982,0.500791,0.396754,105.546074,-1.928797,79.415074
56797,NaN,1.148388,8.762990,-1.514610,1.000577,0.628826,-0.924194,-0.445197,0.581630,0.988192,0.454735,0.619302,0.498156,0.401898,105.286900,-2.563962,79.582578
56798,NaN,-0.037375,9.194618,-1.463908,0.897101,-0.666310,-0.569524,-0.196045,0.256860,0.860441,0.452960,0.620505,0.495652,0.405129,105.175280,-3.081038,79.591774
56799,NaN,0.643056,10.332631,-2.804945,-0.001999,0.033997,0.913121,-0.137220,-0.325065,0.737422,0.452688,0.622703,0.492333,0.406107,105.115857,-3.440984,79.297763
56800,NaN,1.837816,10.216386,-3.678157,-0.671912,1.300555,1.102332,-0.321063,-0.122752,0.656133,0.452646,0.623864,0.489333,0.407992,104.943739,-3.788517,79.128733
56801,NaN,2.228347,9.000306,-3.806729,-1.057010,1.787108,-0.007035,-0.362675,0.189620,0.545521,0.452192,0.624015,0.487306,0.410683,104.736921,-4.119267,79.150388
56802,NaN,1.690411,9.036957,-3.084548,-0.499500,1.089260,-0.189681,-0.184351,0.405827,0.427521,0.450890,0.623832,0.486484,0.413358,104.620650,-4.417878,79.310426
56803,NaN,0.985699,9.522917,-2.232044,0.269364,0.161117,0.012834,-0.162518,0.357792,0.360554,0.449773,0.623629,0.485817,0.415660,104.518636,-4.670191,79.453960
