// General information: 
//  MT Manager version: 2019.0.1 
//  XDA version: 2019.0.1 build 2740 rev 84096 built on 2019-01-30
// Device information: 
//  DeviceId: 00B4381A
//  ProductCode: MTW2-3A7G6
//  Firmware Version: 4.3.4
//  Hardware Version: 1.1.0
// Device settings: 
//  Filter Profile: human(46.1)
//  Option Flags: Orientation Smoother Disabled, AHS Disabled, ICC Disabled
// Coordinate system: ENU
PacketCounter,SampleTimeFine,Acc_X,Acc_Y,Acc_Z,FreeAcc_E,FreeAcc_N,FreeAcc_U,Gyr_X,Gyr_Y,Gyr_Z,Quat_q0,Quat_q1,Quat_q2,Quat_q3,Roll,Pitch,Yaw
11448,NaN,-6.691236,0.684233,7.207258,-0.093525,-0.065709,0.044914,-0.031791,-0.030422,0.018330,0.420541,-0.311467,0.192612,0.830081,4.515910,42.772450,128.033306
11449,NaN,-6.656571,0.569307,7.127297,0.014558,-0.028836,-0.043790,-0.021369,-0.015615,0.026215,0.420473,-0.311394,0.192553,0.830156,4.517895,42.760677,128.045180
11450,NaN,-6.711273,0.629491,7.160716,-0.020425,-0.076356,0.021287,-0.010601,-0.014445,0.018965,0.420445,-0.311324,0.192543,0.830199,4.523250,42.752202,128.052396
11451,NaN,-6.836033,0.646411,7.153853,0.026048,-0.162843,0.101928,-0.007135,-0.005148,0.018416,0.420422,-0.311271,0.192554,0.830228,4.529704,42.746759,128.058842
11452,NaN,-6.865430,0.631253,7.150300,0.054490,-0.173491,0.118392,-0.002272,-0.016900,0.015599,0.420423,-0.311177,0.192568,0.830260,4.537948,42.737034,128.063297
11453,NaN,-6.870756,0.610859,7.142742,0.078770,-0.170632,0.115247,0.004152,-0.027311,0.016290,0.420447,-0.311010,0.192575,0.830308,4.548814,42.719028,128.066717
11454,NaN,-6.889239,0.607921,7.172110,0.082560,-0.164463,0.149063,0.009246,-0.045342,0.013261,0.420503,-0.310776,0.192574,0.830368,4.561236,42.693165,128.067552
11455,NaN,-6.869140,0.642870,7.216005,0.034149,-0.150793,0.169557,0.013923,-0.061550,0.016221,0.420576,-0.310446,0.192550,0.830460,4.576211,42.655606,128.068778
11456,NaN,-6.815178,0.623959,7.233417,0.025039,-0.102895,0.144575,0.015884,-0.080984,0.018715,0.420654,-0.310045,0.192509,0.830580,4.593776,42.609146,128.071650
11457,NaN,-6.738855,0.669867,7.279003,-0.055982,-0.064385,0.129017,0.011104,-0.094273,0.024121,0.420721,-0.309578,0.192417,0.830741,4.609877,42.552535,128.076929
11458,NaN,-6.684518,0.712594,7.218426,-0.086633,-0.098827,0.050323,0.004965,-0.100844,0.028804,0.420759,-0.309107,0.192305,0.830923,4.625599,42.494264,128.086337
11459,NaN,-6.602328,0.729207,7.197545,-0.122669,-0.080062,-0.019544,-0.002269,-0.102338,0.024595,0.420811,-0.308634,0.192141,0.831111,4.633904,42.433024,128.091430
11460,NaN,-6.510089,0.686464,7.174722,-0.115697,-0.021171,-0.101082,-0.006499,-0.067720,0.023212,0.420822,-0.308330,0.192042,0.831241,4.641513,42.393915,128.098543
11461,NaN,-6.515579,0.675665,7.146949,-0.090788,-0.038147,-0.118437,-0.010181,-0.035133,0.018015,0.420825,-0.308159,0.191976,0.831318,4.644677,42.371358,128.102743
11462,NaN,-6.546321,0.730578,7.176111,-0.130120,-0.071672,-0.072946,-0.008070,-0.004869,0.019692,0.420788,-0.308123,0.191998,0.831345,4.652218,42.368293,128.111048
11463,NaN,-6.662700,0.699360,7.146472,-0.040007,-0.138339,-0.018199,-0.005435,0.004451,0.022544,0.420741,-0.308102,0.192042,0.831366,4.662134,42.368129,128.121233
11464,NaN,-6.706563,0.701697,7.178664,-0.031900,-0.146065,0.035217,-0.008544,-0.011266,0.025090,0.420687,-0.308035,0.192056,0.831415,4.671936,42.361154,128.133357
11465,NaN,-6.788654,0.676695,7.176928,0.029282,-0.181991,0.087719,-0.009475,-0.036044,0.028924,0.420646,-0.307849,0.192008,0.831516,4.681129,42.337565,128.145909
11466,NaN,-6.826530,0.669649,7.234777,0.036796,-0.169882,0.155348,-0.006128,-0.072854,0.037728,0.420602,-0.307508,0.191923,0.831684,4.696262,42.294831,128.163864
11467,NaN,-6.896147,0.667504,7.247126,0.073943,-0.208799,0.210993,-0.003316,-0.119598,0.043392,0.420591,-0.306947,0.191747,0.831937,4.712886,42.222846,128.182240
11468,NaN,-6.924564,0.643356,7.222502,0.126987,-0.236383,0.210087,0.009438,-0.187754,0.043821,0.420655,-0.306090,0.191494,0.832279,4.735095,42.114204,128.197487
11469,NaN,-6.816698,0.624615,7.216501,0.110121,-0.180881,0.131684,0.010960,-0.219412,0.049412,0.420736,-0.305078,0.191176,0.832683,4.758592,41.984931,128.213986
11470,NaN,-6.781376,0.643051,7.182709,0.107122,-0.206404,0.083663,0.007210,-0.238733,0.051313,0.420814,-0.304005,0.190818,0.833118,4.781037,41.846829,128.231485
11471,NaN,-6.564264,0.696170,7.118015,0.002791,-0.163610,-0.106322,0.014910,-0.228288,0.046198,0.420921,-0.302949,0.190493,0.833523,4.804580,41.712632,128.244745
11472,NaN,-6.362943,0.651657,7.221553,-0.077931,0.027372,-0.166149,0.005871,-0.111514,0.006489,0.421061,-0.302452,0.190328,0.833670,4.808696,41.649310,128.236081
11473,NaN,-6.609409,0.643424,7.382957,-0.009413,-0.023656,0.117353,-0.003254,0.019073,0.008698,0.421061,-0.302501,0.190390,0.833638,4.813284,41.658140,128.236511
11474,NaN,-6.668151,0.722185,7.503398,-0.089978,-0.031284,0.250995,-0.017288,0.052314,0.011193,0.420991,-0.302731,0.190481,0.833569,4.813540,41.688118,128.241939
11475,NaN,-6.744900,0.766912,7.583092,-0.121773,-0.053255,0.364123,-0.037982,0.044187,0.017926,0.420875,-0.302949,0.190466,0.833552,4.803999,41.710844,128.251042
11476,NaN,-6.738806,0.716272,7.558011,-0.077823,-0.033182,0.338220,-0.043017,0.025292,0.016648,0.420770,-0.303114,0.190400,0.833560,4.791151,41.725111,128.258865
11477,NaN,-6.657374,0.679811,7.505209,-0.070013,0.005458,0.242461,-0.040851,0.018579,0.013956,0.420691,-0.303236,0.190313,0.833576,4.776851,41.733408,128.263281
11478,NaN,-6.603505,0.669360,7.413683,-0.056963,-0.009114,0.137875,-0.039046,0.013678,0.017251,0.420600,-0.303344,0.190241,0.833599,4.766116,41.741013,128.270775
11479,NaN,-6.587332,0.622147,7.309324,0.008545,-0.032156,0.046579,-0.033745,0.017988,0.019946,0.420508,-0.303442,0.190192,0.833621,4.758914,41.748689,128.279735
11480,NaN,-6.638099,0.634074,7.185152,0.063760,-0.139196,-0.011189,-0.032558,0.011510,0.018496,0.420423,-0.303526,0.190144,0.833644,4.752432,41.754982,128.288045
11481,NaN,-6.719800,0.648753,7.147367,0.101941,-0.217861,0.016025,-0.036004,-0.006061,0.020690,0.420347,-0.303527,0.190036,0.833706,4.743296,41.748893,128.296044
11482,NaN,-6.735867,0.614483,7.108270,0.150675,-0.231633,-0.004495,-0.039968,-0.017019,0.018725,0.420277,-0.303508,0.189897,0.833780,4.731457,41.738903,128.302799
11483,NaN,-6.740046,0.651887,7.155492,0.106595,-0.231676,0.035622,-0.031108,-0.034474,0.021037,0.420234,-0.303381,0.189750,0.833881,4.724103,41.716575,128.309265
11484,NaN,-6.696114,0.659937,7.103349,0.099271,-0.243274,-0.031993,-0.026113,-0.029803,0.019370,0.420195,-0.303279,0.189644,0.833962,4.720013,41.699277,128.315674
11485,NaN,-6.692726,0.719504,7.159733,0.031157,-0.246199,0.011286,-0.019470,-0.027557,0.014823,0.420189,-0.303162,0.189550,0.834029,4.716456,41.681193,128.317827
11486,NaN,-6.740456,0.758949,7.239601,-0.005072,-0.253811,0.104829,-0.015199,-0.032639,0.007817,0.420217,-0.303036,0.189466,0.834080,4.712631,41.662824,128.315213
11487,NaN,-6.756089,0.795530,7.234232,-0.024066,-0.290600,0.113374,-0.014328,-0.038744,0.001996,0.420283,-0.302873,0.189351,0.834132,4.705037,41.638955,128.306861
11488,NaN,-6.716341,0.771681,7.195864,-0.007891,-0.279434,0.056813,-0.019121,-0.049630,0.003463,0.420339,-0.302689,0.189208,0.834203,4.696067,41.611089,128.299864
11489,NaN,-6.696323,0.743447,7.185678,0.012153,-0.262746,0.034050,-0.019021,-0.066332,0.006650,0.420405,-0.302417,0.189022,0.834311,4.687014,41.571247,128.293354
11490,NaN,-6.590130,0.670471,7.146471,0.039106,-0.187087,-0.070262,-0.023467,-0.076699,-0.001853,0.420502,-0.302133,0.188796,0.834416,4.671772,41.528181,128.280688
11491,NaN,-6.507347,0.602909,7.112168,0.070458,-0.125754,-0.154985,-0.019190,-0.061493,-0.003482,0.420605,-0.301892,0.188605,0.834495,4.657730,41.491572,128.266785
11492,NaN,-6.514191,0.608609,7.174286,0.049797,-0.102609,-0.103801,-0.012637,-0.049460,0.000728,0.420682,-0.301697,0.188485,0.834553,4.651143,41.463934,128.257818
11493,NaN,-6.574950,0.552958,7.294625,0.084332,-0.042407,0.022879,-0.002916,-0.048128,-0.005405,0.420804,-0.301478,0.188387,0.834593,4.646032,41.435044,128.243306
11494,NaN,-6.607582,0.575539,7.339653,0.068441,-0.053022,0.079450,0.007176,-0.055515,-0.005584,0.420943,-0.301222,0.188328,0.834629,4.647390,41.404249,128.229137
11495,NaN,-6.657712,0.687517,7.320627,0.010846,-0.163078,0.105109,0.003251,-0.074776,-0.005942,0.421102,-0.300880,0.188198,0.834701,4.644477,41.360166,128.212584
11496,NaN,-6.666431,0.644467,7.308130,0.059070,-0.157077,0.098783,0.004170,-0.091490,-0.006177,0.421273,-0.300480,0.188050,0.834792,4.642374,41.308826,128.195720
11497,NaN,-6.655310,0.693882,7.390918,-0.009503,-0.140026,0.156294,-0.003720,-0.099108,-0.007088,0.421449,-0.300052,0.187838,0.834905,4.633946,41.250899,128.176831
11498,NaN,-6.629869,0.656016,7.405090,0.009961,-0.103112,0.147741,0.002405,-0.094851,-0.007837,0.421627,-0.299644,0.187672,0.834999,4.629919,41.197752,128.158606
11499,NaN,-6.572173,0.675837,7.387266,-0.021768,-0.098082,0.097500,0.003484,-0.086908,-0.008493,0.421808,-0.299252,0.187514,0.835083,4.625467,41.146854,128.139445
11500,NaN,-6.539536,0.589612,7.376970,0.041556,-0.041543,0.063011,0.004874,-0.077045,-0.008775,0.421976,-0.298914,0.187395,0.835146,4.623139,41.103915,128.121679
11501,NaN,-6.557580,0.647121,7.330169,0.023491,-0.117987,0.043150,0.011348,-0.076905,-0.011549,0.422173,-0.298551,0.187286,0.835202,4.622118,41.058869,128.100848
11502,NaN,-6.495152,0.577400,7.322698,0.058558,-0.050388,-0.007774,0.014544,-0.068220,-0.002185,0.422319,-0.298223,0.187236,0.835256,4.629009,41.020667,128.088611
11503,NaN,-6.508081,0.545705,7.286741,0.107414,-0.064679,-0.028323,0.021437,-0.058020,-0.004011,0.422481,-0.297910,0.187220,0.835289,4.638301,40.986062,128.074655
11504,NaN,-6.557680,0.537111,7.292193,0.140072,-0.089443,0.007705,0.025452,-0.053127,-0.004460,0.422639,-0.297624,0.187243,0.835306,4.650870,40.956573,128.061732
11505,NaN,-6.653188,0.540398,7.308857,0.181319,-0.142467,0.082925,0.031696,-0.065535,-0.002026,0.422815,-0.297256,0.187257,0.835345,4.666729,40.917587,128.048808
11506,NaN,-6.701479,0.551015,7.405089,0.168716,-0.127290,0.187518,0.037945,-0.081655,-0.005953,0.423024,-0.296826,0.187270,0.835389,4.684574,40.871898,128.032966
11507,NaN,-6.697780,0.563457,7.388687,0.169476,-0.147280,0.173303,0.036239,-0.093360,-0.006001,0.423249,-0.296336,0.187238,0.835457,4.699953,40.817216,128.015305
11508,NaN,-6.645661,0.624181,7.415734,0.093284,-0.141564,0.163222,0.038112,-0.089215,-0.016475,0.423510,-0.295884,0.187220,0.835489,4.712426,40.767694,127.990915
11509,NaN,-6.555607,0.651237,7.422065,0.032835,-0.105537,0.110766,0.025847,-0.072864,-0.017532,0.423748,-0.295512,0.187171,0.835510,4.717032,40.725263,127.965836
11510,NaN,-6.484987,0.644740,7.387015,0.020789,-0.083310,0.037763,0.024170,-0.043421,-0.021305,0.423966,-0.295285,0.187185,0.835477,4.721047,40.702143,127.940675
11511,NaN,-6.464358,0.607694,7.396571,0.040471,-0.046830,0.029195,0.020759,-0.019710,-0.022765,0.424169,-0.295150,0.187219,0.835414,4.722347,40.690313,127.914973
11512,NaN,-6.422224,0.565021,7.399186,0.055808,0.003968,0.001029,0.021947,0.000017,-0.016540,0.424323,-0.295105,0.187323,0.835329,4.729192,40.691739,127.896064
11513,NaN,-6.468245,0.577087,7.410358,0.064555,-0.024020,0.040226,0.020391,-0.005879,-0.012034,0.424467,-0.295019,0.187401,0.835268,4.736115,40.687304,127.879304
11514,NaN,-6.495255,0.551877,7.429691,0.092543,-0.015026,0.070855,0.013994,-0.014303,-0.007607,0.424585,-0.294922,0.187454,0.835230,4.742193,40.680180,127.866335
11515,NaN,-6.439791,0.562726,7.428983,0.060390,0.009917,0.034830,0.009674,-0.036081,0.003916,0.424675,-0.294718,0.187447,0.835258,4.749577,40.657746,127.859698
11516,NaN,-6.423631,0.564920,7.484521,0.035654,0.047087,0.066419,0.006004,-0.045034,0.002399,0.424767,-0.294501,0.187415,0.835295,4.754680,40.632563,127.852389
11517,NaN,-6.496360,0.672684,7.491636,-0.018461,-0.056854,0.125935,-0.005087,-0.031448,0.006241,0.424822,-0.294345,0.187359,0.835335,4.754939,40.612665,127.847792
11518,NaN,-6.624935,0.728488,7.536034,-0.017084,-0.142986,0.246713,-0.007020,-0.030965,0.008756,0.424857,-0.294207,0.187313,0.835376,4.756300,40.595145,127.845926
11519,NaN,-6.648535,0.744327,7.521598,-0.012151,-0.176885,0.252105,-0.006708,-0.029038,0.009127,0.424895,-0.294062,0.187260,0.835419,4.757143,40.576486,127.843651
11520,NaN,-6.653771,0.722854,7.514740,0.012049,-0.173827,0.248930,-0.007851,-0.028613,0.008205,0.424927,-0.293938,0.187214,0.835457,4.757809,40.560363,127.841782
11521,NaN,-6.603350,0.683016,7.437822,0.048663,-0.166272,0.155358,-0.000138,-0.020796,0.006875,0.424976,-0.293815,0.187202,0.835478,4.761652,40.546518,127.838330
11522,NaN,-6.572381,0.680752,7.352376,0.065702,-0.194911,0.070366,0.001360,-0.002888,0.007097,0.425002,-0.293779,0.187248,0.835467,4.768124,40.545129,127.837159
11523,NaN,-6.562942,0.673875,7.293432,0.086659,-0.218023,0.019170,-0.001236,0.014721,-0.000184,0.425046,-0.293814,0.187297,0.835421,4.769335,40.551900,127.830627
11524,NaN,-6.545911,0.636306,7.299809,0.106249,-0.181201,0.010597,-0.004554,0.024098,-0.002400,0.425079,-0.293912,0.187361,0.835356,4.768900,40.566394,127.823964
11525,NaN,-6.548282,0.687375,7.241378,0.083703,-0.243649,-0.028841,-0.002704,0.009500,-0.007835,0.425157,-0.293935,0.187382,0.835303,4.765314,40.570547,127.811351
11526,NaN,-6.583520,0.639262,7.251361,0.135733,-0.231944,-0.001398,-0.004201,-0.008408,-0.008059,0.425244,-0.293903,0.187370,0.835273,4.760982,40.566794,127.798457
11527,NaN,-6.516613,0.701558,7.245785,0.055881,-0.232324,-0.045256,-0.002624,-0.027215,-0.009872,0.425365,-0.293774,0.187310,0.835270,4.754956,40.550080,127.782018
11528,NaN,-6.492986,0.653646,7.277575,0.075095,-0.175654,-0.039626,0.004735,-0.037723,-0.010501,0.425505,-0.293602,0.187271,0.835268,4.753417,40.529678,127.765241
11529,NaN,-6.502672,0.670569,7.316792,0.055139,-0.172615,-0.002641,0.009808,-0.047384,-0.012977,0.425676,-0.293366,0.187215,0.835276,4.752198,40.501593,127.745223
11530,NaN,-6.440064,0.660729,7.361317,0.022079,-0.107516,-0.010242,0.012244,-0.042394,-0.006581,0.425810,-0.293155,0.187201,0.835285,4.756570,40.478336,127.731614
11531,NaN,-6.500197,0.658480,7.425107,0.034180,-0.109748,0.076962,0.018433,-0.046466,-0.005769,0.425964,-0.292898,0.187194,0.835299,4.763862,40.450435,127.717073
11532,NaN,-6.456003,0.686798,7.461891,-0.018333,-0.081161,0.077943,0.017129,-0.042136,-0.002513,0.426088,-0.292674,0.187207,0.835311,4.773072,40.427184,127.706461
11533,NaN,-6.487330,0.658940,7.564021,-0.011165,-0.029740,0.173957,0.014662,-0.041106,-0.006536,0.426234,-0.292448,0.187194,0.835318,4.778057,40.402383,127.691682
11534,NaN,-6.420281,0.610933,7.562336,0.000132,0.034957,0.126174,0.013734,-0.024474,-0.006359,0.426354,-0.292308,0.187225,0.835299,4.784198,40.389353,127.679151
11535,NaN,-6.477700,0.640317,7.611236,-0.011412,0.010139,0.202365,0.016889,-0.011266,-0.005043,0.426469,-0.292200,0.187288,0.835264,4.792404,40.381520,127.667364
11536,NaN,-6.539615,0.661212,7.547938,0.022297,-0.074296,0.195765,0.014888,-0.002504,-0.004160,0.426564,-0.292147,0.187375,0.835215,4.801228,40.380916,127.657585
11537,NaN,-6.462919,0.666113,7.539729,-0.013978,-0.035302,0.140156,0.007241,0.000070,-0.006257,0.426659,-0.292108,0.187420,0.835170,4.803778,40.379616,127.645600
11538,NaN,-6.448165,0.639056,7.524568,0.006070,-0.018349,0.117367,0.005973,0.020775,-0.004095,0.426716,-0.292172,0.187519,0.835096,4.808450,40.392341,127.637543
11539,NaN,-6.478959,0.734912,7.517046,-0.056690,-0.094214,0.137734,-0.004156,0.011701,-0.002778,0.426770,-0.292203,0.187546,0.835052,4.806632,40.397515,127.628897
11540,NaN,-6.413328,0.657047,7.444997,-0.000716,-0.049858,0.035560,-0.007121,0.020702,-0.000638,0.426793,-0.292291,0.187594,0.834998,4.805431,40.410007,127.623467
11541,NaN,-6.402029,0.639461,7.407361,0.019828,-0.053163,-0.001435,-0.005279,0.015841,0.002654,0.426818,-0.292336,0.187633,0.834961,4.805775,40.417284,127.619152
11542,NaN,-6.416487,0.637849,7.353475,0.044740,-0.089892,-0.033032,-0.003171,0.015184,0.002319,0.426838,-0.292391,0.187690,0.834919,4.808004,40.426524,127.615901
11543,NaN,-6.443388,0.653365,7.336270,0.049563,-0.123809,-0.027637,-0.007182,0.010318,0.002809,0.426865,-0.292418,0.187710,0.834891,4.807105,40.430640,127.611353
11544,NaN,-6.482043,0.615740,7.323783,0.102009,-0.132080,-0.014424,-0.006351,0.007977,0.003364,0.426888,-0.292446,0.187742,0.834862,4.807881,40.435658,127.607716
11545,NaN,-6.510725,0.660075,7.374347,0.062198,-0.145639,0.045363,-0.001304,0.004320,0.003251,0.426927,-0.292434,0.187774,0.834839,4.810320,40.436329,127.603121
11546,NaN,-6.543588,0.673350,7.438470,0.045967,-0.136251,0.116164,0.005717,-0.002099,0.004616,0.426971,-0.292394,0.187836,0.834817,4.818150,40.435521,127.599966
11547,NaN,-6.487924,0.725833,7.400946,-0.009501,-0.153566,0.054953,0.007066,-0.008702,0.005358,0.427026,-0.292308,0.187878,0.834809,4.825875,40.428657,127.596129
11548,NaN,-6.363029,0.668185,7.439567,-0.031156,-0.023992,-0.000439,0.006798,-0.012906,0.008984,0.427061,-0.292217,0.187927,0.834813,4.835912,40.421430,127.595832
11549,NaN,-6.329124,0.674830,7.465081,-0.059386,0.007025,-0.002638,0.006164,0.001926,0.003170,0.427113,-0.292179,0.187985,0.834786,4.842494,40.420740,127.591026
11550,NaN,-6.376383,0.757383,7.507845,-0.118889,-0.042594,0.065758,0.008221,0.013274,0.007557,0.427132,-0.292195,0.188093,0.834746,4.853742,40.428549,127.591270
11551,NaN,-6.361939,0.731168,7.492354,-0.098679,-0.026058,0.042962,0.003666,0.018674,0.010218,0.427136,-0.292226,0.188187,0.834712,4.863012,40.437080,127.592817
11552,NaN,-6.411785,0.682859,7.448286,-0.021852,-0.051560,0.038765,-0.003194,0.021193,0.004679,0.427144,-0.292302,0.188261,0.834665,4.866719,40.449520,127.591207
11553,NaN,-6.459391,0.694343,7.458260,-0.013227,-0.079567,0.077964,-0.006402,0.019991,0.008084,0.427141,-0.292362,0.188313,0.834634,4.869238,40.458906,127.591239
11554,NaN,-6.514427,0.684223,7.459477,0.019302,-0.104530,0.113965,-0.004650,0.019695,0.003389,0.427150,-0.292437,0.188374,0.834589,4.871336,40.470613,127.589060
11555,NaN,-6.508159,0.635555,7.434654,0.063566,-0.085362,0.087960,0.001266,0.030092,0.002751,0.427171,-0.292528,0.188471,0.834524,4.876071,40.486026,127.585737
11556,NaN,-6.574329,0.614259,7.404259,0.120454,-0.127533,0.106556,0.003196,0.029617,0.000238,0.427197,-0.292631,0.188583,0.834450,4.881592,40.503574,127.581623
11557,NaN,-6.645514,0.631613,7.419293,0.133208,-0.169518,0.165350,-0.000639,0.024571,0.002905,0.427219,-0.292702,0.188661,0.834396,4.885080,40.515828,127.578064
11558,NaN,-6.666869,0.627227,7.445930,0.137207,-0.163354,0.199152,-0.002489,0.007028,-0.001667,0.427264,-0.292725,0.188697,0.834357,4.885424,40.520575,127.571368
11559,NaN,-6.603150,0.648366,7.474229,0.080798,-0.121023,0.180555,0.001088,-0.001860,-0.009425,0.427365,-0.292695,0.188707,0.834313,4.882783,40.518342,127.556853
11560,NaN,-6.574954,0.603452,7.423285,0.121074,-0.107419,0.120748,0.004923,0.003191,-0.012089,0.427470,-0.292695,0.188751,0.834250,4.882138,40.521370,127.541849
11561,NaN,-6.546078,0.670547,7.368655,0.069990,-0.158455,0.064956,0.009900,0.007823,-0.013830,0.427593,-0.292690,0.188812,0.834174,4.882799,40.524879,127.524646
11562,NaN,-6.497801,0.649039,7.378884,0.061570,-0.110444,0.039958,0.008458,0.010045,-0.008767,0.427683,-0.292707,0.188890,0.834105,4.886033,40.531583,127.512533
11563,NaN,-6.434860,0.670516,7.406503,0.005185,-0.068070,0.021368,0.006621,0.014912,-0.012059,0.427787,-0.292737,0.188955,0.834026,4.885971,40.539054,127.497113
11564,NaN,-6.418318,0.703122,7.445134,-0.043045,-0.053205,0.041983,0.000472,0.016709,-0.008881,0.427860,-0.292800,0.189015,0.833953,4.884967,40.549668,127.485225
11565,NaN,-6.432681,0.701066,7.391227,-0.018121,-0.090396,0.010378,-0.001118,0.013102,-0.008361,0.427940,-0.292836,0.189050,0.833892,4.882194,40.555925,127.472462
11566,NaN,-6.423203,0.711898,7.421436,-0.042290,-0.072896,0.027788,-0.006885,0.008527,-0.003185,0.427986,-0.292874,0.189070,0.833850,4.879374,40.561549,127.464366
11567,NaN,-6.446987,0.716984,7.426465,-0.037848,-0.086957,0.047388,-0.006397,0.010270,-0.000635,0.428028,-0.292902,0.189087,0.833815,4.877231,40.565811,127.457224
11568,NaN,-6.504244,0.716318,7.406110,-0.005092,-0.131823,0.069183,-0.010438,0.011407,0.002209,0.428043,-0.292956,0.189107,0.833783,4.875137,40.572912,127.453373
11569,NaN,-6.535799,0.699938,7.402027,0.023400,-0.143275,0.085571,-0.008536,0.016940,0.002060,0.428065,-0.293013,0.189134,0.833746,4.873362,40.580851,127.448683
11570,NaN,-6.622929,0.631797,7.435399,0.107622,-0.137332,0.163137,-0.011787,0.018021,0.001467,0.428077,-0.293097,0.189161,0.833704,4.870423,40.591587,127.444372
11571,NaN,-6.634953,0.619745,7.403016,0.132242,-0.154710,0.145722,-0.007807,0.028907,0.003352,0.428083,-0.293201,0.189218,0.833651,4.870193,40.606295,127.441418
11572,NaN,-6.600592,0.615051,7.448798,0.103705,-0.103385,0.157731,-0.010988,0.021692,0.004388,0.428082,-0.293296,0.189262,0.833609,4.869327,40.619055,127.439543
11573,NaN,-6.581993,0.618859,7.419753,0.100134,-0.109414,0.123929,-0.006809,0.022663,-0.000265,0.428110,-0.293376,0.189304,0.833557,4.867635,40.630374,127.433466
11574,NaN,-6.549914,0.624210,7.443997,0.071872,-0.077946,0.121741,-0.004943,0.011782,0.000661,0.428143,-0.293419,0.189346,0.833515,4.867981,40.637598,127.428010
11575,NaN,-6.476848,0.638377,7.413421,0.035989,-0.058646,0.051955,-0.003146,0.009198,-0.000039,0.428188,-0.293434,0.189376,0.833479,4.867934,40.641219,127.421239
11576,NaN,-6.495982,0.675460,7.405169,0.016458,-0.094796,0.060574,-0.001037,0.008539,-0.000370,0.428231,-0.293458,0.189424,0.833438,4.869810,40.646739,127.415297
11577,NaN,-6.432966,0.696928,7.433065,-0.039849,-0.052309,0.042001,0.001658,0.014017,-0.003952,0.428295,-0.293488,0.189478,0.833383,4.870797,40.653302,127.405890
11578,NaN,-6.406608,0.723040,7.413095,-0.067628,-0.060521,0.011423,0.010684,0.021243,-0.002168,0.428349,-0.293541,0.189600,0.833308,4.879044,40.666161,127.399457
11579,NaN,-6.460463,0.754838,7.378220,-0.058618,-0.128269,0.022230,0.007327,0.032916,-0.008379,0.428422,-0.293641,0.189712,0.833210,4.881895,40.683730,127.387930
11580,NaN,-6.483290,0.750612,7.403582,-0.054568,-0.122094,0.056031,0.005877,0.035143,-0.003315,0.428464,-0.293763,0.189843,0.833115,4.887463,40.704551,127.381190
11581,NaN,-6.416805,0.733709,7.384558,-0.066619,-0.080312,-0.002768,0.006325,0.039181,-0.004753,0.428515,-0.293888,0.189969,0.833017,4.891777,40.725521,127.372794
11582,NaN,-6.490987,0.709360,7.433730,-0.030501,-0.079638,0.081209,0.005806,0.043461,-0.004936,0.428552,-0.294047,0.190113,0.832909,4.896756,40.751162,127.365842
11583,NaN,-6.601776,0.740705,7.378366,0.010981,-0.192616,0.113800,0.000275,0.026666,-0.002323,0.428595,-0.294130,0.190191,0.832839,4.898266,40.764869,127.358468
11584,NaN,-6.512258,0.676216,7.390790,0.018327,-0.094219,0.060576,-0.003078,0.000898,0.001583,0.428637,-0.294123,0.190218,0.832814,4.899654,40.765808,127.353021
11585,NaN,-6.450645,0.637637,7.365221,0.030360,-0.049881,-0.001445,-0.002942,0.006735,0.006131,0.428659,-0.294122,0.190253,0.832795,4.902639,40.767724,127.350731
11586,NaN,-6.533351,0.671798,7.417691,0.022694,-0.088176,0.094372,-0.006536,0.008179,0.001171,0.428691,-0.294153,0.190281,0.832761,4.902183,40.772907,127.345458
11587,NaN,-6.534301,0.671282,7.416901,0.022995,-0.088295,0.094371,-0.011620,0.017865,0.003640,0.428701,-0.294220,0.190299,0.832728,4.899438,40.781298,127.342010
11588,NaN,-6.588858,0.660747,7.418241,0.055428,-0.113420,0.130350,-0.010239,0.008955,0.008371,0.428689,-0.294258,0.190321,0.832716,4.900277,40.786592,127.343140
11589,NaN,-6.556414,0.666218,7.442961,0.027353,-0.082264,0.128166,-0.007712,0.014621,0.002614,0.428711,-0.294303,0.190347,0.832682,4.899129,40.793182,127.338707
11590,NaN,-6.547323,0.658757,7.383561,0.047886,-0.105231,0.076954,-0.006572,0.014201,0.003541,0.428725,-0.294358,0.190390,0.832646,4.899958,40.801628,127.335968
11591,NaN,-6.586548,0.621276,7.370196,0.100417,-0.114236,0.090103,-0.005328,0.021910,0.005027,0.428734,-0.294427,0.190445,0.832605,4.901671,40.812261,127.333825
11592,NaN,-6.565988,0.685922,7.395260,0.028383,-0.121594,0.099778,0.000482,0.024206,0.003861,0.428748,-0.294507,0.190541,0.832547,4.907242,40.826501,127.331741
11593,NaN,-6.570405,0.696061,7.371694,0.028868,-0.141577,0.085581,-0.002421,0.021197,0.001265,0.428778,-0.294570,0.190601,0.832496,4.908735,40.836912,127.326714
11594,NaN,-6.571906,0.695964,7.370365,0.029022,-0.141326,0.085584,-0.006609,0.020229,0.005911,0.428773,-0.294649,0.190659,0.832457,4.910946,40.848738,127.326557
11595,NaN,-6.547309,0.680282,7.385859,0.025034,-0.107615,0.080176,-0.002842,0.014871,0.006694,0.428785,-0.294681,0.190712,0.832427,4.914608,40.855272,127.325217
11596,NaN,-6.571268,0.686066,7.390556,0.029289,-0.121334,0.099779,-0.003945,0.009272,0.003397,0.428807,-0.294710,0.190755,0.832396,4.916662,40.860943,127.322161
11597,NaN,-6.513435,0.727983,7.374858,-0.026560,-0.118423,0.052838,-0.002746,0.004267,0.012304,0.428806,-0.294693,0.190794,0.832394,4.922698,40.861147,127.324367
11598,NaN,-6.538536,0.692715,7.415497,0.001401,-0.089873,0.097601,-0.002229,-0.000010,0.012487,0.428800,-0.294672,0.190838,0.832394,4.929866,40.861190,127.327673
11599,NaN,-6.548544,0.681902,7.384615,0.025939,-0.107338,0.080177,-0.005449,-0.001217,0.015877,0.428786,-0.294634,0.190859,0.832410,4.935884,40.858088,127.332219
11600,NaN,-6.522698,0.666686,7.401192,0.021852,-0.073251,0.074773,-0.009045,0.003963,0.017277,0.428750,-0.294638,0.190890,0.832420,4.941715,40.860027,127.338982
11601,NaN,-6.517627,0.628249,7.355487,0.066369,-0.074246,0.034517,-0.010730,0.010955,0.012178,0.428731,-0.294665,0.190910,0.832415,4.943400,40.864055,127.341530
11602,NaN,-6.511298,0.649886,7.363382,0.042454,-0.076499,0.037749,-0.012082,0.021316,0.017805,0.428667,-0.294750,0.190966,0.832406,4.948405,40.875972,127.350410
11603,NaN,-6.502209,0.643016,7.303861,0.063056,-0.099874,-0.013472,-0.009280,0.012465,0.013479,0.428644,-0.294779,0.190997,0.832400,4.951630,40.880797,127.354040
11604,NaN,-6.552205,0.664578,7.291720,0.071543,-0.147432,0.011537,-0.010793,0.019277,0.010563,0.428620,-0.294857,0.191045,0.832374,4.953821,40.891840,127.356633
11605,NaN,-6.591329,0.627244,7.278350,0.124050,-0.156542,0.024667,-0.009307,0.014760,0.009491,0.428611,-0.294900,0.191074,0.832356,4.955159,40.898173,127.357404
11606,NaN,-6.612388,0.622959,7.305263,0.128144,-0.150415,0.058462,-0.004227,0.005059,0.007017,0.428625,-0.294907,0.191114,0.832338,4.958754,40.901226,127.356316
11607,NaN,-6.649195,0.697596,7.289733,0.088737,-0.223201,0.075738,-0.005475,-0.002653,0.005524,0.428655,-0.294873,0.191117,0.832333,4.959580,40.897816,127.352950
11608,NaN,-6.676523,0.671792,7.308813,0.116887,-0.214581,0.106300,-0.001222,-0.010004,0.002496,0.428705,-0.294817,0.191129,0.832325,4.961960,40.892543,127.347693
11609,NaN,-6.668334,0.711661,7.407952,0.048608,-0.176538,0.178177,-0.002184,-0.013495,-0.002613,0.428784,-0.294738,0.191110,0.832316,4.960185,40.883348,127.337473
11610,NaN,-6.624127,0.728513,7.465185,-0.003730,-0.127527,0.193436,-0.006410,-0.008436,0.004405,0.428815,-0.294698,0.191107,0.832315,4.960623,40.878930,127.333978
11611,NaN,-6.515880,0.748504,7.462023,-0.067865,-0.076689,0.121509,-0.005211,-0.017173,0.006948,0.428854,-0.294602,0.191082,0.832335,4.961682,40.867161,127.330737
11612,NaN,-6.476191,0.715273,7.443056,-0.051766,-0.046011,0.079075,-0.010798,-0.006924,0.002880,0.428882,-0.294579,0.191060,0.832334,4.958845,40.863577,127.326337
11613,NaN,-6.445326,0.730244,7.446851,-0.079603,-0.034610,0.062714,-0.014562,-0.001559,0.002101,0.428912,-0.294572,0.191022,0.832329,4.952824,40.860961,127.320462
11614,NaN,-6.397258,0.759493,7.400668,-0.111383,-0.048593,-0.001629,-0.019613,0.005852,0.008568,0.428893,-0.294615,0.191000,0.832329,4.948334,40.864374,127.320986
11615,NaN,-6.330824,0.699973,7.418864,-0.099449,0.035431,-0.035280,-0.016287,0.018923,0.012112,0.428859,-0.294688,0.191014,0.832318,4.947144,40.872954,127.324005
11616,NaN,-6.411581,0.687095,7.313613,-0.018444,-0.064329,-0.062563,-0.011444,0.021452,0.012205,0.428824,-0.294775,0.191067,0.832293,4.949918,40.885223,127.328030
11617,NaN,-6.479577,0.694460,7.350776,-0.006075,-0.086510,0.010428,-0.007858,0.020002,0.017169,0.428781,-0.294829,0.191125,0.832282,4.956105,40.894168,127.334940
11618,NaN,-6.564774,0.669533,7.348325,0.054426,-0.123287,0.062749,0.001750,0.010895,0.014408,0.428764,-0.294842,0.191212,0.832266,4.967013,40.900220,127.340218
11619,NaN,-6.611364,0.682296,7.358746,0.062837,-0.151369,0.101945,0.009248,0.002452,0.011976,0.428784,-0.294792,0.191296,0.832255,4.979683,40.899404,127.342059
11620,NaN,-6.621548,0.672501,7.327583,0.087186,-0.168554,0.084515,0.015407,0.000639,0.008812,0.428822,-0.294737,0.191410,0.832228,4.995198,40.899794,127.342272
11621,NaN,-6.585552,0.669669,7.375095,0.059136,-0.117411,0.096535,0.014925,-0.001106,0.006257,0.428878,-0.294665,0.191502,0.832204,5.008139,40.897233,127.339559
11622,NaN,-6.585731,0.671210,7.374795,0.059286,-0.117161,0.096537,0.014068,0.007273,0.008081,0.428905,-0.294644,0.191621,0.832170,5.022709,40.901582,127.340402
11623,NaN,-6.576251,0.683856,7.405065,0.035408,-0.099853,0.113969,0.005776,0.012045,0.007582,0.428929,-0.294645,0.191705,0.832138,5.031634,40.906461,127.339561
11624,NaN,-6.602768,0.700201,7.387728,0.039716,-0.133448,0.119380,-0.003768,0.009104,0.005586,0.428942,-0.294671,0.191751,0.832112,5.034892,40.911942,127.338192
11625,NaN,-6.649612,0.711518,7.398035,0.048108,-0.161533,0.158577,-0.012517,0.009839,0.006520,0.428945,-0.294703,0.191753,0.832098,5.032715,40.915616,127.336403
11626,NaN,-6.575185,0.654844,7.336153,0.080294,-0.120371,0.059500,-0.014419,0.000562,0.000285,0.428970,-0.294723,0.191728,0.832084,5.026826,40.916532,127.330753
11627,NaN,-6.511399,0.675370,7.365249,0.024252,-0.077507,0.040979,-0.011974,-0.000467,0.004322,0.428994,-0.294713,0.191706,0.832080,5.023423,40.914434,127.326619
11628,NaN,-6.544490,0.669211,7.339878,0.052636,-0.108696,0.043144,-0.014060,-0.002092,0.008639,0.428994,-0.294709,0.191692,0.832084,5.021885,40.913273,127.326159
11629,NaN,-6.498302,0.657070,7.329057,0.044838,-0.080852,0.003942,-0.019760,0.003764,0.010370,0.428977,-0.294728,0.191657,0.832095,5.017197,40.913286,127.326874
11630,NaN,-6.511476,0.654995,7.275758,0.069243,-0.117937,-0.027684,-0.019302,0.007805,0.008939,0.428959,-0.294777,0.191642,0.832090,5.013232,40.917756,127.327284
11631,NaN,-6.537209,0.618645,7.315967,0.097508,-0.089906,0.017043,-0.008130,0.008329,0.008053,0.428964,-0.294792,0.191661,0.832078,5.014260,40.920491,127.326550
11632,NaN,-6.589042,0.668788,7.372057,0.061582,-0.116569,0.096530,-0.005312,-0.002827,0.007705,0.428981,-0.294768,0.191680,0.832073,5.017187,40.918949,127.325459
11633,NaN,-6.567754,0.691832,7.434906,0.013590,-0.081758,0.131406,0.000637,-0.023212,0.007384,0.429032,-0.294633,0.191667,0.832098,5.021537,40.903715,127.322128
11634,NaN,-6.586201,0.688443,7.464060,0.017720,-0.075638,0.165196,0.007155,-0.027685,0.012573,0.429060,-0.294478,0.191686,0.832134,5.032748,40.887805,127.324476
11635,NaN,-6.609967,0.705411,7.449119,0.022115,-0.109610,0.170605,0.002914,-0.024055,0.009241,0.429108,-0.294333,0.191683,0.832161,5.039282,40.871997,127.322488
11636,NaN,-6.564844,0.723472,7.507029,-0.030027,-0.060419,0.185888,0.008242,-0.019786,0.011892,0.429138,-0.294208,0.191726,0.832180,5.051232,40.860648,127.324249
11637,NaN,-6.553413,0.736266,7.538968,-0.053854,-0.043049,0.203329,0.006420,-0.011164,0.014974,0.429154,-0.294104,0.191774,0.832197,5.063164,40.851908,127.327440
11638,NaN,-6.542541,0.730472,7.480915,-0.033519,-0.066148,0.152102,0.001838,-0.003440,0.013645,0.429158,-0.294056,0.191831,0.832199,5.073172,40.849757,127.330704
11639,NaN,-6.465665,0.735452,7.473482,-0.069388,-0.026674,0.096557,-0.003858,0.002417,0.015379,0.429145,-0.294030,0.191865,0.832207,5.080008,40.848748,127.335107
11640,NaN,-6.406891,0.707200,7.425825,-0.057175,-0.001932,0.020317,-0.008754,0.008214,0.013676,0.429119,-0.294055,0.191902,0.832203,5.084413,40.853314,127.339588
11641,NaN,-6.387129,0.711633,7.397744,-0.060856,-0.007916,-0.013469,-0.013626,0.011722,0.015963,0.429080,-0.294089,0.191917,0.832208,5.086349,40.857584,127.345056
11642,NaN,-6.398043,0.700150,7.366136,-0.036569,-0.025166,-0.030911,-0.020097,0.011621,0.018757,0.429008,-0.294148,0.191918,0.832224,5.086794,40.863777,127.354202
11643,NaN,-6.374940,0.624167,7.327962,0.027923,0.009803,-0.079877,-0.011979,0.007022,0.017070,0.428971,-0.294157,0.191932,0.832236,5.090014,40.865309,127.360191
11644,NaN,-6.391411,0.703578,7.284738,-0.015928,-0.068269,-0.096327,-0.011642,0.006662,0.021435,0.428915,-0.294172,0.191966,0.832252,5.096613,40.868504,127.369842
11645,NaN,-6.431708,0.625527,7.307412,0.060574,-0.035556,-0.058124,-0.005125,-0.001551,0.020252,0.428883,-0.294128,0.191994,0.832278,5.104955,40.864980,127.377655
11646,NaN,-6.521075,0.639722,7.351441,0.076810,-0.071428,0.034462,-0.003819,-0.002156,0.023363,0.428833,-0.294089,0.192042,0.832306,5.116425,40.862967,127.388933
11647,NaN,-6.585237,0.690162,7.354749,0.065102,-0.135747,0.082329,0.000059,0.000606,0.024713,0.428788,-0.294039,0.192102,0.832333,5.130033,40.860444,127.400256
11648,NaN,-6.672165,0.695005,7.420556,0.081301,-0.151744,0.189104,0.006847,0.002634,0.022297,0.428754,-0.293998,0.192204,0.832342,5.147311,40.861254,127.410885
11649,NaN,-6.754063,0.712892,7.383876,0.117748,-0.231238,0.216264,0.001029,-0.003372,0.017087,0.428747,-0.293936,0.192249,0.832357,5.157532,40.856849,127.416182
11650,NaN,-6.773113,0.872009,7.351337,0.005566,-0.350183,0.215022,-0.031094,0.003490,0.009094,0.428711,-0.293993,0.192174,0.832373,5.146574,40.858831,127.416951
11651,NaN,-6.675435,0.704678,7.397993,0.082051,-0.171635,0.174911,-0.025039,0.020584,-0.001277,0.428718,-0.294104,0.192135,0.832339,5.133857,40.869040,127.410018
11652,NaN,-6.648343,0.589052,7.313297,0.190603,-0.137612,0.085620,-0.011612,0.030002,0.008445,0.428692,-0.294229,0.192200,0.832293,5.135028,40.886194,127.411666
11653,NaN,-6.590140,0.620318,7.317586,0.134707,-0.114428,0.052938,-0.000540,0.053175,0.006733,0.428670,-0.294416,0.192344,0.832205,5.141750,40.914590,127.412989
11654,NaN,-6.616974,0.678487,7.262711,0.114810,-0.190155,0.033242,-0.001938,0.041072,0.011027,0.428635,-0.294563,0.192475,0.832140,5.150167,40.937792,127.417556
11655,NaN,-6.519389,0.676561,7.247927,0.074977,-0.136630,-0.041899,-0.012076,0.022241,0.003501,0.428640,-0.294649,0.192500,0.832102,5.147306,40.948702,127.414339
11656,NaN,-6.449503,0.718118,7.284813,-0.005102,-0.095520,-0.057119,-0.018379,0.018229,0.002098,0.428642,-0.294745,0.192501,0.832067,5.140876,40.959355,127.410301
11657,NaN,-6.356289,0.735577,7.226861,-0.044934,-0.081706,-0.160625,-0.016277,0.021299,0.008148,0.428622,-0.294832,0.192514,0.832043,5.137864,40.969489,127.410528
11658,NaN,-6.350432,0.774395,7.324168,-0.112977,-0.042777,-0.088670,-0.015954,0.019491,0.002150,0.428624,-0.294929,0.192528,0.832004,5.132952,40.981047,127.406882
11659,NaN,-6.408756,0.792175,7.392001,-0.124730,-0.047434,0.001770,-0.010006,0.029905,0.001580,0.428633,-0.295044,0.192576,0.831948,5.130659,40.996429,127.402727
11660,NaN,-6.451719,0.835167,7.388276,-0.140675,-0.097353,0.030053,-0.004601,0.017516,0.007443,0.428624,-0.295106,0.192637,0.831916,5.134629,41.006547,127.403850
11661,NaN,-6.437303,0.826589,7.462593,-0.164400,-0.040142,0.075881,0.009043,0.007200,0.001838,0.428682,-0.295086,0.192716,0.831876,5.142365,41.008959,127.398347
11662,NaN,-6.468615,0.812167,7.458266,-0.136137,-0.051563,0.092217,0.017770,0.012473,0.003299,0.428735,-0.295080,0.192857,0.831817,5.157060,41.016413,127.395111
11663,NaN,-6.510291,0.787098,7.422608,-0.083705,-0.080933,0.091098,0.023756,0.014561,0.004331,0.428797,-0.295057,0.193017,0.831757,5.174794,41.022899,127.391998
11664,NaN,-6.547292,0.741813,7.430617,-0.031333,-0.070218,0.118348,0.021763,0.025676,0.001253,0.428850,-0.295100,0.193198,0.831672,5.191308,41.037955,127.388399
11665,NaN,-6.628396,0.679205,7.381259,0.073251,-0.109036,0.130284,0.015073,0.036390,-0.003735,0.428912,-0.295193,0.193357,0.831570,5.201047,41.057316,127.380687
11666,NaN,-6.705879,0.717361,7.350437,0.085329,-0.190564,0.160714,0.004986,0.046096,-0.007521,0.428959,-0.295364,0.193500,0.831452,5.204494,41.084314,127.371508
11667,NaN,-6.790620,0.732750,7.310911,0.121575,-0.270150,0.187867,-0.011468,0.029263,-0.014093,0.429031,-0.295495,0.193517,0.831364,5.193541,41.100147,127.355460
11668,NaN,-6.594376,0.545616,7.254572,0.202362,-0.078799,0.003887,-0.001923,0.032189,-0.012072,0.429092,-0.295631,0.193590,0.831268,5.189942,41.119542,127.343141
11669,NaN,-6.740745,0.599732,7.240153,0.226470,-0.202690,0.093107,-0.007467,0.040188,-0.012145,0.429151,-0.295796,0.193650,0.831164,5.182730,41.141505,127.329306
11670,NaN,-6.723097,0.672388,7.243098,0.154291,-0.229179,0.088741,-0.012234,0.019556,-0.019419,0.429234,-0.295911,0.193642,0.831082,5.168922,41.154189,127.311149
11671,NaN,-6.657303,0.610628,7.261423,0.166804,-0.145301,0.055032,-0.016874,0.007075,-0.026111,0.429369,-0.295973,0.193571,0.831007,5.147844,41.157971,127.284443
11672,NaN,-6.642939,0.650564,7.279132,0.118786,-0.149623,0.061579,-0.014106,0.004231,-0.028066,0.429510,-0.296033,0.193513,0.830926,5.128130,41.162292,127.257328
11673,NaN,-6.600104,0.664690,7.335884,0.067031,-0.100543,0.076892,-0.012140,-0.000850,-0.022598,0.429646,-0.296048,0.193450,0.830865,5.111157,41.161359,127.232741
11674,NaN,-6.592401,0.684092,7.345286,0.043116,-0.102579,0.080168,-0.004321,-0.009696,-0.020666,0.429788,-0.296020,0.193416,0.830810,5.100174,41.157304,127.209833
11675,NaN,-6.463378,0.602945,7.429654,0.023848,0.066668,0.053089,0.001855,-0.013824,-0.019834,0.429945,-0.295949,0.193387,0.830761,5.092027,41.148818,127.186468
11676,NaN,-6.527308,0.651122,7.433115,0.011807,0.002762,0.100978,0.012328,-0.002805,-0.020659,0.430102,-0.295915,0.193435,0.830680,5.090856,41.148716,127.164364
11677,NaN,-6.620308,0.743919,7.487023,-0.040282,-0.074133,0.208804,0.007807,-0.005690,-0.016403,0.430246,-0.295862,0.193454,0.830620,5.088195,41.144696,127.144152
11678,NaN,-6.568533,0.711530,7.520889,-0.047915,-0.006136,0.197974,0.004259,-0.008820,-0.013400,0.430364,-0.295815,0.193465,0.830573,5.085705,41.140845,127.127588
11679,NaN,-6.553336,0.753881,7.539192,-0.095787,-0.010738,0.204531,-0.001776,-0.001137,-0.005673,0.430444,-0.295790,0.193470,0.830539,5.083109,41.138877,127.115817
11680,NaN,-6.520012,0.740555,7.475171,-0.079609,-0.019978,0.133690,-0.008797,0.009087,-0.000678,0.430481,-0.295830,0.193488,0.830502,5.080402,41.144508,127.109029
11681,NaN,-6.513067,0.691091,7.450798,-0.035098,-0.001606,0.107535,-0.016014,0.025535,0.004525,0.430472,-0.295937,0.193506,0.830464,5.075914,41.157244,127.106782
11682,NaN,-6.540914,0.706156,7.432247,-0.031044,-0.035272,0.112952,-0.017843,0.034181,0.007621,0.430427,-0.296095,0.193547,0.830421,5.073039,41.176712,127.109165
11683,NaN,-6.556112,0.704201,7.376853,-0.006839,-0.072900,0.081306,-0.023221,0.039698,0.013720,0.430356,-0.296268,0.193579,0.830389,5.069637,41.197065,127.114841
11684,NaN,-6.642348,0.659567,7.282995,0.097352,-0.151409,0.064834,-0.026272,0.034583,0.012907,0.430284,-0.296438,0.193598,0.830362,5.064746,41.216434,127.120266
11685,NaN,-6.628508,0.631651,7.267044,0.117758,-0.135312,0.041949,-0.023441,0.018798,0.020514,0.430204,-0.296517,0.193594,0.830375,5.063691,41.224516,127.129691
11686,NaN,-6.664978,0.635961,7.218468,0.145782,-0.186641,0.029902,-0.022901,0.008470,0.018289,0.430145,-0.296566,0.193581,0.830392,5.062326,41.228764,127.136786
11687,NaN,-6.641993,0.629679,7.213077,0.142095,-0.172773,0.010296,-0.022360,-0.001861,0.016063,0.430106,-0.296561,0.193531,0.830425,5.058750,41.225281,127.141445
11688,NaN,-6.641320,0.629145,7.213743,0.142245,-0.172554,0.010298,-0.023923,-0.013819,0.018143,0.430057,-0.296523,0.193462,0.830480,5.055687,41.216975,127.148184
11689,NaN,-6.574021,0.639558,7.266349,0.086644,-0.109351,0.006026,-0.023762,-0.014000,0.020328,0.430010,-0.296467,0.193386,0.830542,5.052902,41.206350,127.155263
11690,NaN,-6.565557,0.660861,7.276313,0.062708,-0.111340,0.009312,-0.018439,-0.009733,0.023007,0.429946,-0.296429,0.193355,0.830596,5.055523,41.200101,127.165990
11691,NaN,-6.580872,0.706253,7.381070,-0.001026,-0.086484,0.100909,-0.018754,-0.011661,0.022627,0.429894,-0.296370,0.193309,0.830655,5.056857,41.190694,127.174969
11692,NaN,-6.595282,0.733838,7.396510,-0.021006,-0.102504,0.123795,-0.018738,-0.016258,0.030597,0.429795,-0.296300,0.193269,0.830740,5.062603,41.180160,127.192153
11693,NaN,-6.529924,0.685539,7.394303,-0.008357,-0.038518,0.075894,-0.014900,-0.005155,0.030382,0.429710,-0.296252,0.193264,0.830802,5.070299,41.174072,127.207444
11694,NaN,-6.584053,0.746678,7.428530,-0.044514,-0.084724,0.141266,-0.017540,0.005857,0.032944,0.429593,-0.296266,0.193286,0.830853,5.079080,41.176092,127.226416
11695,NaN,-6.584200,0.747457,7.428321,-0.044223,-0.084838,0.141266,-0.020939,0.004855,0.034144,0.429475,-0.296269,0.193283,0.830914,5.085636,41.175522,127.245232
11696,NaN,-6.581260,0.719917,7.360601,-0.000069,-0.105961,0.086731,-0.024023,0.005785,0.035727,0.429335,-0.296294,0.193282,0.830977,5.092176,41.177400,127.266473
11697,NaN,-6.571320,0.731791,7.391567,-0.023741,-0.088392,0.104200,-0.024991,0.003739,0.040969,0.429183,-0.296295,0.193269,0.831058,5.099768,41.175844,127.290388
11698,NaN,-6.573650,0.742818,7.369614,-0.023698,-0.108029,0.090021,-0.024652,-0.000360,0.038952,0.429042,-0.296291,0.193260,0.831135,5.107336,41.174040,127.312837
11699,NaN,-6.547775,0.727391,7.386486,-0.027212,-0.074258,0.084603,-0.026761,0.000328,0.039282,0.428897,-0.296282,0.193231,0.831219,5.112918,41.170618,127.335240
11700,NaN,-6.563008,0.755347,7.401132,-0.047191,-0.090218,0.107495,-0.020597,-0.001517,0.036123,0.428766,-0.296270,0.193227,0.831292,5.121240,41.168292,127.356621
11701,NaN,-6.539723,0.750457,7.395864,-0.050841,-0.076315,0.087897,-0.017535,0.003602,0.036950,0.428642,-0.296258,0.193240,0.831358,5.131087,41.166854,127.377476
11702,NaN,-6.542042,0.762094,7.373853,-0.050821,-0.095956,0.073718,-0.012342,-0.000300,0.039028,0.428510,-0.296230,0.193278,0.831427,5.145625,41.165084,127.401137
11703,NaN,-6.516206,0.747444,7.390611,-0.054317,-0.062178,0.068301,-0.015585,0.000821,0.038429,0.428385,-0.296201,0.193295,0.831498,5.157200,41.161976,127.422922
11704,NaN,-6.515971,0.748786,7.390683,-0.054139,-0.061955,0.068304,-0.013638,0.000330,0.035921,0.428264,-0.296181,0.193324,0.831560,5.169468,41.160652,127.444151
11705,NaN,-6.526077,0.739302,7.359347,-0.029912,-0.079780,0.050830,-0.008799,0.008875,0.038447,0.428141,-0.296171,0.193387,0.831613,5.185300,41.162131,127.466498
11706,NaN,-6.624384,0.733002,7.392666,0.010236,-0.113606,0.140114,-0.012552,0.022633,0.036113,0.427993,-0.296243,0.193466,0.831645,5.199195,41.173545,127.490155
11707,NaN,-6.666212,0.759949,7.299513,0.037887,-0.205083,0.099693,-0.009298,0.020077,0.026339,0.427909,-0.296292,0.193533,0.831655,5.209217,41.182037,127.504104
11708,NaN,-6.649575,0.653327,7.272823,0.126739,-0.148361,0.061499,-0.008657,0.028541,0.019142,0.427841,-0.296394,0.193620,0.831634,5.217345,41.197714,127.514279
11709,NaN,-6.633153,0.668376,7.221815,0.122746,-0.174223,0.013534,-0.010912,0.023369,0.014875,0.427799,-0.296471,0.193669,0.831616,5.220876,41.208680,127.519771
11710,NaN,-6.795720,0.761017,7.201078,0.125772,-0.333897,0.111484,-0.030478,0.014434,-0.002143,0.427798,-0.296583,0.193604,0.831592,5.205220,41.217446,127.512979
11711,NaN,-6.645212,0.602246,7.246217,0.171726,-0.130121,0.035297,-0.014247,-0.003248,-0.003953,0.427856,-0.296575,0.193555,0.831577,5.196217,41.214203,127.502347
11712,NaN,-6.506573,0.565993,7.214485,0.148343,-0.045795,-0.082296,0.000654,-0.002182,-0.001641,0.427914,-0.296551,0.193583,0.831548,5.197835,41.213492,127.494991
11713,NaN,-6.550084,0.637364,7.280352,0.088293,-0.074510,0.000569,0.001160,-0.012522,-0.003896,0.428003,-0.296471,0.193578,0.831532,5.197268,41.204955,127.483763
11714,NaN,-6.526498,0.649007,7.365625,0.040826,-0.018937,0.049706,-0.003539,-0.017498,0.002154,0.428052,-0.296389,0.193561,0.831540,5.197633,41.195249,127.478410
11715,NaN,-6.486813,0.685267,7.379864,-0.010990,-0.009286,0.036705,-0.010983,-0.021051,-0.000206,0.428116,-0.296296,0.193493,0.831556,5.191570,41.181653,127.469397
11716,NaN,-6.470598,0.674745,7.456218,-0.034325,0.048435,0.082543,-0.014397,-0.013703,-0.000579,0.428160,-0.296255,0.193435,0.831562,5.184578,41.174222,127.461927
11717,NaN,-6.488277,0.711219,7.449013,-0.054394,0.012311,0.091264,-0.015567,0.007159,0.001749,0.428181,-0.296287,0.193412,0.831545,5.178147,41.176621,127.456341
11718,NaN,-6.479100,0.721077,7.479515,-0.078086,0.030292,0.108745,-0.017686,0.016188,0.000507,0.428195,-0.296373,0.193409,0.831508,5.171238,41.186088,127.450649
11719,NaN,-6.541798,0.741062,7.413773,-0.046464,-0.055370,0.102105,-0.019645,0.027335,-0.002531,0.428209,-0.296502,0.193405,0.831455,5.161241,41.200220,127.443199
11720,NaN,-6.638319,0.703645,7.378611,0.037544,-0.110759,0.136816,-0.017217,0.028586,-0.002470,0.428221,-0.296643,0.193427,0.831394,5.153675,41.217020,127.436431
11721,NaN,-6.585997,0.694027,7.285792,0.049570,-0.126329,0.032179,-0.014615,0.025909,-0.006622,0.428260,-0.296759,0.193434,0.831330,5.144441,41.230547,127.425770
11722,NaN,-6.610245,0.680937,7.199975,0.097310,-0.181552,-0.016963,-0.009745,0.022360,-0.008917,0.428317,-0.296864,0.193463,0.831257,5.137601,41.244017,127.413589
11723,NaN,-6.606602,0.711082,7.185903,0.073267,-0.203653,-0.027843,-0.014921,0.017940,-0.009424,0.428376,-0.296950,0.193449,0.831200,5.126422,41.253137,127.400248
11724,NaN,-6.633502,0.673459,7.225189,0.101860,-0.175618,0.016811,-0.009556,0.010090,-0.011566,0.428448,-0.297009,0.193446,0.831142,5.117790,41.259912,127.386233
11725,NaN,-6.612925,0.676541,7.197927,0.098007,-0.181599,-0.016971,-0.004819,-0.009971,-0.012919,0.428563,-0.296961,0.193408,0.831109,5.109394,41.253279,127.368337
11726,NaN,-6.616007,0.651036,7.322771,0.079098,-0.098146,0.076827,0.002629,-0.001810,-0.018515,0.428694,-0.296950,0.193420,0.831042,5.103693,41.253488,127.348121
11727,NaN,-6.664742,0.742078,7.344566,0.018562,-0.166478,0.131359,0.002962,-0.008225,-0.016564,0.428834,-0.296896,0.193413,0.830991,5.098012,41.248034,127.327581
11728,NaN,-6.598507,0.769132,7.486644,-0.080419,-0.061198,0.195883,0.005404,-0.015325,-0.014939,0.428967,-0.296820,0.193412,0.830950,5.095022,41.240340,127.309299
11729,NaN,-6.568744,0.724634,7.436719,-0.039956,-0.048974,0.135895,0.005561,-0.017815,-0.008773,0.429088,-0.296713,0.193407,0.830927,5.094308,41.229016,127.294028
11730,NaN,-6.527187,0.750803,7.472551,-0.091631,-0.019007,0.137093,0.001488,-0.008284,-0.007499,0.429180,-0.296666,0.193416,0.830893,5.093159,41.224946,127.281483
11731,NaN,-6.478005,0.780692,7.427400,-0.123704,-0.032875,0.072853,-0.001453,-0.001495,-0.001315,0.429243,-0.296635,0.193428,0.830869,5.092887,41.222555,127.272978
11732,NaN,-6.437426,0.737042,7.429182,-0.106957,0.017358,0.044528,-0.007493,0.014573,0.004887,0.429252,-0.296690,0.193470,0.830835,5.093902,41.230942,127.270899
11733,NaN,-6.441146,0.747220,7.406092,-0.106902,-0.002620,0.030353,-0.012384,0.021862,0.013582,0.429215,-0.296765,0.193509,0.830818,5.095859,41.241124,127.275278
11734,NaN,-6.432340,0.688102,7.403055,-0.062139,0.035635,0.018313,-0.017734,0.023672,0.013309,0.429167,-0.296870,0.193541,0.830798,5.095686,41.254250,127.279929
11735,NaN,-6.505080,0.698086,7.305878,-0.006868,-0.067920,-0.005823,-0.020498,0.026543,0.015281,0.429106,-0.296981,0.193559,0.830786,5.094055,41.267017,127.285917
11736,NaN,-6.580666,0.666125,7.243309,0.072888,-0.129376,-0.004917,-0.019204,0.028231,0.014416,0.429045,-0.297107,0.193595,0.830764,5.093693,41.282606,127.292067
11737,NaN,-6.633765,0.646150,7.265114,0.105300,-0.135645,0.045139,-0.009958,0.023123,0.013652,0.429009,-0.297182,0.193646,0.830743,5.097137,41.293504,127.296588
11738,NaN,-6.677934,0.629889,7.207016,0.157038,-0.185141,0.029757,-0.012667,0.010164,0.004380,0.429014,-0.297231,0.193655,0.830722,5.094694,41.299358,127.294185
11739,NaN,-6.685613,0.608217,7.197742,0.181411,-0.183242,0.026436,-0.008107,-0.005981,0.007233,0.429037,-0.297187,0.193642,0.830729,5.094680,41.293974,127.291860
11740,NaN,-6.777415,0.579228,7.276567,0.222029,-0.177536,0.144043,-0.006123,-0.018569,-0.000121,0.429106,-0.297103,0.193613,0.830729,5.092527,41.283579,127.283011
11741,NaN,-6.794294,0.633995,7.360422,0.158304,-0.172110,0.221530,-0.003190,-0.029973,0.001652,0.429182,-0.296955,0.193561,0.830755,5.091466,41.264786,127.274825
11742,NaN,-6.764207,0.677149,7.434329,0.086711,-0.138274,0.259831,-0.001228,-0.038817,0.000701,0.429262,-0.296780,0.193504,0.830790,5.091433,41.242871,127.266928
11743,NaN,-6.638964,0.686431,7.509199,0.000015,-0.028733,0.233918,0.000880,-0.039497,0.000376,0.429359,-0.296585,0.193447,0.830823,5.091649,41.218707,127.257135
11744,NaN,-6.516155,0.688650,7.471734,-0.043568,0.019740,0.125071,-0.001590,-0.020306,0.003599,0.429408,-0.296485,0.193433,0.830836,5.093679,41.207220,127.252732
11745,NaN,-6.464461,0.778336,7.481820,-0.143835,0.005702,0.104569,-0.006981,0.001934,0.006609,0.429427,-0.296473,0.193440,0.830829,5.094356,41.206385,127.250472
11746,NaN,-6.426858,0.745024,7.461135,-0.127296,0.036002,0.062058,-0.010101,0.025607,0.007496,0.429399,-0.296579,0.193494,0.830793,5.095473,41.220878,127.252638
11747,NaN,-6.424247,0.776274,7.446202,-0.151385,0.014012,0.051205,-0.020031,0.044993,0.014759,0.429323,-0.296765,0.193552,0.830752,5.094668,41.244202,127.259475
11748,NaN,-6.485784,0.787357,7.401123,-0.119909,-0.051567,0.058731,-0.013873,0.038517,0.019555,0.429246,-0.296916,0.193643,0.830717,5.100529,41.265376,127.269269
11749,NaN,-6.521202,0.782467,7.373164,-0.091942,-0.083572,0.060835,-0.017425,0.029368,0.020124,0.429166,-0.297027,0.193686,0.830709,5.103215,41.279509,127.279128
11750,NaN,-6.557934,0.718057,7.290900,0.004055,-0.115103,0.019203,-0.015786,0.018589,0.018779,0.429094,-0.297104,0.193719,0.830711,5.106474,41.289356,127.288894
11751,NaN,-6.602743,0.719698,7.322537,0.012371,-0.123423,0.072572,-0.011236,0.013102,0.016091,0.429056,-0.297138,0.193747,0.830712,5.109961,41.294410,127.294591
11752,NaN,-6.682304,0.657090,7.273629,0.116392,-0.163200,0.084305,-0.008637,0.008113,0.015913,0.429017,-0.297158,0.193783,0.830716,5.115414,41.298380,127.301324
11753,NaN,-6.680322,0.647200,7.295193,0.116977,-0.143462,0.098475,-0.007825,0.005745,0.016453,0.428991,-0.297153,0.193810,0.830725,5.120708,41.299217,127.306797
11754,NaN,-6.731290,0.610314,7.228504,0.192700,-0.191093,0.079752,-0.008295,0.006309,0.009899,0.428980,-0.297172,0.193836,0.830718,5.123289,41.302553,127.308709
11755,NaN,-6.716657,0.600489,7.303567,0.169813,-0.133605,0.125596,-0.005520,-0.002609,0.005499,0.429010,-0.297138,0.193838,0.830714,5.124037,41.299183,127.305292
11756,NaN,-6.711046,0.632227,7.291182,0.145567,-0.155283,0.114744,-0.005849,-0.006847,0.009088,0.429021,-0.297097,0.193845,0.830722,5.127075,41.295064,127.305491
11757,NaN,-6.656621,0.641610,7.290428,0.114024,-0.129325,0.078869,-0.006805,-0.010335,0.003938,0.429063,-0.297036,0.193824,0.830727,5.125958,41.287366,127.300363
11758,NaN,-6.597039,0.682351,7.276900,0.057960,-0.124907,0.032151,-0.008427,-0.005593,0.002862,0.429099,-0.297009,0.193815,0.830720,5.124414,41.284167,127.295273
11759,NaN,-6.532924,0.702325,7.307101,0.002648,-0.081026,0.013782,-0.006974,-0.004100,0.004181,0.429134,-0.296974,0.193806,0.830716,5.123603,41.280014,127.290756
11760,NaN,-6.504692,0.727717,7.289035,-0.025467,-0.088633,-0.016661,-0.007789,0.006623,0.002092,0.429156,-0.297000,0.193822,0.830692,5.122558,41.283950,127.286895
11761,NaN,-6.479958,0.780812,7.338359,-0.097168,-0.074777,0.007496,-0.006657,0.006184,0.003021,0.429186,-0.297008,0.193835,0.830671,5.121809,41.285725,127.282196
11762,NaN,-6.537382,0.799048,7.406980,-0.108879,-0.078902,0.097969,-0.005700,0.009672,0.008172,0.429181,-0.297038,0.193875,0.830653,5.125143,41.291144,127.283347
11763,NaN,-6.578664,0.773002,7.371256,-0.056871,-0.109001,0.096735,-0.003592,0.008982,0.007844,0.429193,-0.297046,0.193914,0.830635,5.128692,41.294269,127.282502
11764,NaN,-6.542843,0.750236,7.329118,-0.040623,-0.098620,0.040040,-0.007143,0.002135,0.004424,0.429212,-0.297049,0.193928,0.830621,5.129041,41.295522,127.279802
11765,NaN,-6.527630,0.722922,7.314347,-0.020079,-0.082735,0.017114,-0.009270,0.006565,0.011159,0.429204,-0.297057,0.193943,0.830619,5.130890,41.297098,127.281310
11766,NaN,-6.602684,0.709050,7.342447,0.016092,-0.102850,0.086750,-0.010891,0.011308,0.010085,0.429184,-0.297101,0.193968,0.830608,5.132287,41.303228,127.283757
11767,NaN,-6.657226,0.699469,7.343107,0.048168,-0.129114,0.122610,-0.012024,0.011749,0.009157,0.429175,-0.297137,0.193980,0.830596,5.131788,41.307865,127.284098
11768,NaN,-6.627104,0.644681,7.313293,0.088888,-0.096950,0.076755,-0.013156,0.012191,0.008229,0.429166,-0.297189,0.193998,0.830578,5.131081,41.314564,127.284134
11769,NaN,-6.651025,0.650125,7.317867,0.093011,-0.111128,0.096348,-0.011360,0.011877,0.003532,0.429182,-0.297231,0.194004,0.830554,5.128146,41.319562,127.280210
11770,NaN,-6.621081,0.664971,7.321206,0.065243,-0.098836,0.080084,-0.010394,0.009318,0.006254,0.429178,-0.297270,0.194021,0.830538,5.127834,41.324787,127.279841
11771,NaN,-6.588547,0.669616,7.346710,0.037947,-0.066979,0.077993,-0.002596,0.004996,0.000183,0.429227,-0.297267,0.194044,0.830508,5.127930,41.326030,127.272901
11772,NaN,-6.568078,0.673925,7.319241,0.033935,-0.072625,0.044223,0.001142,0.001869,-0.003049,0.429293,-0.297257,0.194082,0.830469,5.129243,41.327417,127.264134
11773,NaN,-6.525211,0.689726,7.376289,-0.017087,-0.022808,0.059643,0.002430,0.001240,0.000064,0.429354,-0.297228,0.194117,0.830439,5.131989,41.326523,127.256848
11774,NaN,-6.494590,0.705293,7.380183,-0.044820,-0.010495,0.043383,0.004538,0.000548,-0.000263,0.429417,-0.297202,0.194171,0.830404,5.136648,41.326973,127.249757
11775,NaN,-6.505548,0.711836,7.438484,-0.064047,0.013171,0.094665,-0.000488,0.004304,-0.000145,0.429471,-0.297192,0.194201,0.830372,5.137755,41.327839,127.242521
11776,NaN,-6.535953,0.679295,7.344323,0.007323,-0.040517,0.042135,-0.002452,0.010856,0.004799,0.429479,-0.297222,0.194249,0.830345,5.141195,41.333951,127.241711
11777,NaN,-6.551961,0.689138,7.267959,0.030571,-0.098347,-0.003726,-0.008942,0.027527,0.004483,0.429480,-0.297323,0.194301,0.830297,5.140828,41.347832,127.239579
11778,NaN,-6.638325,0.664001,7.263564,0.090452,-0.136492,0.048388,-0.008443,0.025535,0.000651,0.429491,-0.297429,0.194354,0.830241,5.139558,41.362540,127.235476
11779,NaN,-6.678601,0.626774,7.248523,0.142773,-0.146860,0.061303,-0.016244,0.029863,0.006723,0.429468,-0.297552,0.194383,0.830202,5.136238,41.377639,127.235205
11780,NaN,-6.701420,0.621466,7.273923,0.147179,-0.140860,0.095072,-0.014767,0.027620,0.001635,0.429473,-0.297677,0.194420,0.830146,5.132081,41.393488,127.230796
11781,NaN,-6.720729,0.657947,7.265227,0.126771,-0.176829,0.103828,-0.015065,0.013589,-0.003626,0.429511,-0.297740,0.194404,0.830107,5.123493,41.399830,127.221538
11782,NaN,-6.698238,0.650830,7.259522,0.123127,-0.162580,0.084233,-0.013125,0.002414,-0.000618,0.429548,-0.297761,0.194389,0.830084,5.118021,41.401524,127.214197
11783,NaN,-6.669654,0.675669,7.241880,0.095068,-0.170435,0.053799,-0.012316,-0.008321,0.001459,0.429591,-0.297722,0.194345,0.830086,5.112577,41.395101,127.207313
11784,NaN,-6.577382,0.668319,7.311395,0.036780,-0.072264,0.044215,-0.010041,-0.015253,0.000882,0.429631,-0.297664,0.194301,0.830097,5.108590,41.386532,127.201594
11785,NaN,-6.566474,0.678743,7.343566,0.013364,-0.054403,0.061729,-0.002752,-0.011533,0.001081,0.429692,-0.297592,0.194289,0.830094,5.108295,41.378296,127.194207
11786,NaN,-6.511766,0.688021,7.343165,-0.018189,-0.028015,0.025881,-0.002919,-0.013655,0.002873,0.429737,-0.297522,0.194282,0.830097,5.109433,41.370450,127.189546
11787,NaN,-6.498621,0.688524,7.397138,-0.041178,0.009735,0.057571,-0.004074,-0.009475,0.008357,0.429764,-0.297454,0.194280,0.830108,5.112131,41.363017,127.187833
11788,NaN,-6.521168,0.764353,7.436262,-0.105678,-0.023832,0.106795,-0.008458,-0.010209,0.010804,0.429773,-0.297400,0.194273,0.830125,5.114320,41.356674,127.188353
11789,NaN,-6.502785,0.726953,7.444123,-0.084660,0.011865,0.098031,-0.005062,-0.003173,0.012050,0.429777,-0.297357,0.194285,0.830135,5.118592,41.352648,127.189876
11790,NaN,-6.497369,0.689174,7.398177,-0.040471,0.009991,0.057574,-0.008954,0.008507,0.011559,0.429761,-0.297383,0.194317,0.830127,5.121775,41.357111,127.192596
11791,NaN,-6.590403,0.713085,7.418651,-0.024944,-0.046348,0.135956,-0.010418,0.013067,0.012674,0.429739,-0.297418,0.194344,0.830119,5.124023,41.362321,127.195700
11792,NaN,-6.585960,0.674974,7.371862,0.019234,-0.048258,0.095497,-0.015121,0.018763,0.013189,0.429691,-0.297499,0.194371,0.830108,5.124860,41.372488,127.201110
11793,NaN,-6.630987,0.676095,7.403329,0.027567,-0.056622,0.148859,-0.017873,0.015596,0.012730,0.429655,-0.297560,0.194372,0.830105,5.122979,41.379139,127.204430
11794,NaN,-6.643677,0.727812,7.292627,0.025558,-0.155840,0.077996,-0.017705,0.017721,0.010940,0.429607,-0.297647,0.194380,0.830097,5.120964,41.388787,127.208967
11795,NaN,-6.660029,0.684900,7.273015,0.074056,-0.152257,0.071297,-0.017720,0.015412,0.014917,0.429563,-0.297705,0.194384,0.830098,5.120263,41.395221,127.213938
11796,NaN,-6.647914,0.667698,7.235569,0.094107,-0.156051,0.034182,-0.018028,0.015795,0.010548,0.429532,-0.297780,0.194393,0.830084,5.118061,41.403821,127.216078
11797,NaN,-6.648763,0.667320,7.234824,0.094379,-0.156186,0.034177,-0.012196,0.009655,0.010962,0.429518,-0.297807,0.194402,0.830080,5.118277,41.407172,127.217649
11798,NaN,-6.664606,0.694449,7.249068,0.074232,-0.171920,0.057123,-0.011880,0.003226,0.012892,0.429491,-0.297817,0.194409,0.830089,5.120113,41.408532,127.221780
11799,NaN,-6.585450,0.687220,7.264567,0.039455,-0.111838,0.015858,-0.010571,-0.001145,0.009589,0.429496,-0.297797,0.194400,0.830096,5.120082,41.405790,127.221570
11800,NaN,-6.585135,0.687189,7.264856,0.039632,-0.111665,0.015859,-0.010910,-0.005389,0.013169,0.429478,-0.297769,0.194393,0.830117,5.122242,41.402193,127.225377
11801,NaN,-6.562628,0.698405,7.349663,-0.006940,-0.055837,0.065077,-0.006202,-0.002726,0.011120,0.429484,-0.297731,0.194401,0.830126,5.125413,41.398471,127.226223
11802,NaN,-6.554710,0.719763,7.359244,-0.030876,-0.057480,0.068431,-0.013672,-0.002504,0.015150,0.429449,-0.297719,0.194391,0.830150,5.127101,41.396482,127.231918
11803,NaN,-6.618144,0.699675,7.329415,0.024755,-0.101939,0.086742,-0.013826,-0.002312,0.012965,0.429435,-0.297698,0.194371,0.830169,5.126851,41.392902,127.234196
11804,NaN,-6.567491,0.666547,7.362702,0.018310,-0.033883,0.075897,-0.016748,0.006814,0.015205,0.429399,-0.297728,0.194374,0.830177,5.127388,41.396133,127.239002
11805,NaN,-6.597743,0.703641,7.301918,0.020975,-0.107692,0.052975,-0.014293,0.004313,0.008854,0.429395,-0.297739,0.194360,0.830178,5.125101,41.396544,127.238605
11806,NaN,-6.595937,0.692690,7.323462,0.021618,-0.087646,0.067148,-0.013476,0.010302,0.007857,0.429376,-0.297788,0.194366,0.830169,5.123736,41.402188,127.239873
11807,NaN,-6.642775,0.703964,7.333436,0.029470,-0.115897,0.106335,-0.017191,0.009704,0.004676,0.429381,-0.297831,0.194346,0.830156,5.117928,41.405889,127.236664
11808,NaN,-6.651029,0.682006,7.323593,0.053767,-0.113922,0.102981,-0.011845,0.007864,0.004948,0.429385,-0.297867,0.194352,0.830139,5.115984,41.410205,127.234712
11809,NaN,-6.682140,0.735854,7.352671,0.013381,-0.145795,0.148880,-0.012988,-0.000056,0.005548,0.429402,-0.297860,0.194329,0.830138,5.112584,41.408292,127.231502
11810,NaN,-6.666469,0.708234,7.338304,0.033900,-0.129764,0.125930,-0.010244,-0.005254,0.007541,0.429412,-0.297835,0.194317,0.830145,5.112281,41.404948,127.230494
11811,NaN,-6.632831,0.712856,7.364918,0.006775,-0.097753,0.123863,-0.006524,-0.010706,0.008276,0.429437,-0.297767,0.194302,0.830160,5.113478,41.396818,127.228634
11812,NaN,-6.609060,0.706989,7.360266,0.003172,-0.083512,0.104270,-0.007830,-0.006333,0.011584,0.429428,-0.297731,0.194303,0.830177,5.116492,41.392774,127.231555
11813,NaN,-6.624124,0.664801,7.341724,0.051687,-0.080045,0.097551,-0.008641,0.002096,0.013501,0.429415,-0.297716,0.194314,0.830186,5.119680,41.391682,127.234541
11814,NaN,-6.603632,0.669493,7.314243,0.047624,-0.085686,0.063785,-0.008952,0.008530,0.011578,0.429407,-0.297739,0.194348,0.830175,5.122939,41.395983,127.236324
11815,NaN,-6.596644,0.690703,7.323013,0.023792,-0.087601,0.067143,-0.013820,0.012117,0.013890,0.429375,-0.297776,0.194360,0.830175,5.123809,41.400590,127.240291
11816,NaN,-6.586523,0.684264,7.263874,0.043305,-0.111311,0.015847,-0.016405,0.011077,0.011637,0.429341,-0.297830,0.194365,0.830173,5.122816,41.406528,127.243845
11817,NaN,-6.579784,0.635454,7.238965,0.088045,-0.093809,-0.010472,-0.014283,0.018746,0.009785,0.429319,-0.297900,0.194383,0.830154,5.121655,41.415128,127.245140
11818,NaN,-6.613864,0.699876,7.245479,0.047028,-0.145223,0.021269,-0.012649,0.010254,0.004423,0.429322,-0.297947,0.194390,0.830134,5.119118,41.420794,127.243106
11819,NaN,-6.645294,0.684147,7.240762,0.075184,-0.157646,0.037497,-0.012496,0.010064,0.006610,0.429325,-0.297981,0.194392,0.830120,5.116989,41.424603,127.241392
11820,NaN,-6.614663,0.699040,7.244831,0.047478,-0.145180,0.021267,-0.008142,-0.005947,0.007209,0.429340,-0.297949,0.194388,0.830125,5.117734,41.420966,127.240023
11821,NaN,-6.629332,0.726185,7.260164,0.027399,-0.161145,0.044222,-0.004901,-0.013145,0.005357,0.429382,-0.297870,0.194370,0.830135,5.118280,41.411593,127.235774
11822,NaN,-6.623980,0.705096,7.304756,0.028625,-0.121228,0.072565,-0.004404,-0.009088,0.003968,0.429420,-0.297820,0.194371,0.830133,5.119401,41.406299,127.231669
11823,NaN,-6.580509,0.720390,7.362602,-0.022037,-0.071056,0.088042,-0.003754,-0.005224,0.004764,0.429459,-0.297773,0.194374,0.830130,5.120664,41.401478,127.227510
11824,NaN,-6.610917,0.705206,7.358770,0.006033,-0.083189,0.104271,-0.004559,-0.002845,0.004234,0.429487,-0.297749,0.194387,0.830120,5.122138,41.399750,127.224353
11825,NaN,-6.577872,0.709706,7.384866,-0.021024,-0.051119,0.102214,-0.008124,0.002422,0.005689,0.429508,-0.297742,0.194389,0.830112,5.121707,41.399245,127.221418
11826,NaN,-6.565903,0.709625,7.437910,-0.043893,-0.012958,0.133923,-0.008776,0.004609,0.007345,0.429502,-0.297758,0.194401,0.830106,5.122458,41.401606,127.222210
11827,NaN,-6.566113,0.709420,7.437744,-0.043598,-0.013074,0.133924,-0.007147,0.002168,0.004432,0.429529,-0.297749,0.194405,0.830094,5.121943,41.401020,127.218301
11828,NaN,-6.591397,0.725614,7.421172,-0.040185,-0.046829,0.139349,-0.014139,-0.001906,0.008597,0.429528,-0.297745,0.194388,0.830100,5.120181,41.399635,127.218025
11829,NaN,-6.621276,0.693245,7.327198,0.030823,-0.101344,0.086731,-0.013968,0.006270,0.009263,0.429522,-0.297763,0.194381,0.830099,5.118374,41.401143,127.218072
11830,NaN,-6.573359,0.670272,7.338183,0.024059,-0.053165,0.061716,-0.013643,0.008203,0.009662,0.429503,-0.297799,0.194386,0.830095,5.117787,41.405370,127.219861
11831,NaN,-6.629962,0.671239,7.316952,0.055412,-0.099578,0.083360,-0.012818,0.008141,0.006219,0.429509,-0.297826,0.194383,0.830083,5.115191,41.408101,127.217719
11832,NaN,-6.627212,0.643497,7.248669,0.098985,-0.121637,0.028686,-0.012991,0.006018,0.008007,0.429505,-0.297852,0.194386,0.830075,5.114078,41.411141,127.217372
11833,NaN,-6.632721,0.681012,7.294656,0.055329,-0.119428,0.069187,-0.009927,-0.003306,0.007937,0.429519,-0.297822,0.194373,0.830081,5.113488,41.407252,127.215758
11834,NaN,-6.601654,0.696027,7.299112,0.027653,-0.106895,0.052967,-0.007819,-0.004008,0.007608,0.429537,-0.297796,0.194378,0.830080,5.114799,41.404726,127.214094
11835,NaN,-6.580575,0.700540,7.272180,0.023625,-0.112817,0.019202,-0.011404,-0.001054,0.013039,0.429526,-0.297774,0.194370,0.830095,5.116031,41.401862,127.216514
11836,NaN,-6.591336,0.706722,7.330777,0.004583,-0.088707,0.070509,-0.007016,-0.000335,0.010593,0.429531,-0.297757,0.194390,0.830094,5.119421,41.401103,127.217194
11837,NaN,-6.604185,0.723725,7.367588,-0.014942,-0.084747,0.107644,-0.007211,-0.004774,0.016352,0.429515,-0.297708,0.194397,0.830118,5.124554,41.395946,127.221881
11838,NaN,-6.626866,0.730262,7.373151,-0.011006,-0.098666,0.127239,-0.008015,-0.002393,0.015825,0.429490,-0.297682,0.194413,0.830137,5.129817,41.393769,127.227648
11839,NaN,-6.550009,0.733718,7.366705,-0.046055,-0.058255,0.071835,-0.007992,0.005975,0.014309,0.429471,-0.297681,0.194436,0.830142,5.133960,41.394851,127.231514
11840,NaN,-6.611878,0.703843,7.358036,0.009845,-0.082846,0.104271,-0.010924,0.006745,0.018085,0.429418,-0.297699,0.194461,0.830157,5.139033,41.397807,127.240212
11841,NaN,-6.543298,0.686102,7.341655,-0.001074,-0.040730,0.045493,-0.011075,0.012991,0.018357,0.429372,-0.297729,0.194493,0.830162,5.143763,41.402684,127.247638
11842,NaN,-6.584761,0.660465,7.305465,0.050508,-0.071133,0.044163,-0.016246,0.010923,0.013846,0.429328,-0.297779,0.194500,0.830166,5.143889,41.408224,127.252857
11843,NaN,-6.639594,0.651172,7.305664,0.082376,-0.097729,0.079968,-0.017046,0.019358,0.015778,0.429277,-0.297851,0.194517,0.830162,5.144191,41.416867,127.258759
11844,NaN,-6.673474,0.646311,7.278808,0.109836,-0.129857,0.082012,-0.019007,0.007770,0.013377,0.429242,-0.297891,0.194507,0.830168,5.142408,41.420535,127.262532
11845,NaN,-6.661019,0.629275,7.241621,0.129908,-0.134099,0.044867,-0.017049,0.013312,0.013322,0.429207,-0.297941,0.194507,0.830168,5.141199,41.425853,127.266151
11846,NaN,-6.626563,0.622767,7.288950,0.103470,-0.081826,0.056992,-0.015747,0.008936,0.010004,0.429197,-0.297980,0.194512,0.830158,5.139755,41.430310,127.266287
11847,NaN,-6.657697,0.607193,7.284461,0.131599,-0.094366,0.073199,-0.015600,0.002692,0.009729,0.429190,-0.297986,0.194490,0.830165,5.137087,41.429753,127.266445
11848,NaN,-6.600463,0.658051,7.249238,0.074904,-0.109151,0.012437,-0.013497,-0.004066,0.006937,0.429206,-0.297970,0.194471,0.830167,5.134792,41.427061,127.263801
11849,NaN,-6.553811,0.714919,7.272821,-0.000904,-0.100212,0.002985,-0.009761,-0.007218,0.003688,0.429242,-0.297928,0.194444,0.830170,5.131978,41.421159,127.258683
11850,NaN,-6.548537,0.693524,7.317370,0.000494,-0.060305,0.031325,-0.005098,-0.015261,0.007124,0.429262,-0.297854,0.194428,0.830190,5.133863,41.412182,127.257855
11851,NaN,-6.529720,0.725385,7.359201,-0.046848,-0.043884,0.052258,-0.008858,-0.014424,0.014346,0.429262,-0.297770,0.194404,0.830225,5.136606,41.401621,127.260355
11852,NaN,-6.531749,0.752626,7.428167,-0.089946,-0.021383,0.106956,-0.007206,-0.014551,0.007456,0.429283,-0.297701,0.194384,0.830244,5.137526,41.392977,127.259063
11853,NaN,-6.537271,0.784654,7.363505,-0.091516,-0.081107,0.064450,-0.004468,-0.013711,0.011900,0.429299,-0.297613,0.194377,0.830269,5.141584,41.382949,127.259749
11854,NaN,-6.532065,0.763847,7.407900,-0.090081,-0.041192,0.092791,-0.007370,-0.004570,0.014169,0.429281,-0.297579,0.194387,0.830288,5.146245,41.379659,127.264393
11855,NaN,-6.547586,0.721823,7.388893,-0.041547,-0.037995,0.086024,-0.008942,0.008562,0.011609,0.429270,-0.297593,0.194408,0.830284,5.148602,41.382355,127.266382
11856,NaN,-6.604502,0.723515,7.367324,-0.010436,-0.084230,0.107654,-0.009888,0.017189,0.011361,0.429239,-0.297658,0.194451,0.830267,5.151378,41.391606,127.270277
11857,NaN,-6.644232,0.687287,7.352570,0.041803,-0.095146,0.120473,-0.011017,0.017641,0.010434,0.429221,-0.297715,0.194481,0.830248,5.152367,41.399544,127.271996
11858,NaN,-6.639945,0.649410,7.305502,0.085887,-0.097487,0.079940,-0.011673,0.013780,0.009631,0.429196,-0.297772,0.194506,0.830235,5.153109,41.406975,127.274639
11859,NaN,-6.643188,0.659467,7.282730,0.085528,-0.117492,0.065768,-0.018295,0.016293,0.006252,0.429186,-0.297844,0.194497,0.830217,5.147762,41.414359,127.273084
11860,NaN,-6.705653,0.628614,7.273546,0.141370,-0.142256,0.098175,-0.016872,0.009406,0.009088,0.429163,-0.297893,0.194490,0.830213,5.145028,41.419265,127.274587
11861,NaN,-6.646972,0.599220,7.225948,0.154006,-0.118368,0.021838,-0.014267,0.006702,0.004909,0.429173,-0.297917,0.194475,0.830202,5.140877,41.421245,127.271350
11862,NaN,-6.716605,0.616923,7.241344,0.165299,-0.160512,0.080611,-0.010703,0.007474,0.005909,0.429172,-0.297948,0.194484,0.830189,5.139936,41.425182,127.270649
11863,NaN,-6.686057,0.631626,7.245380,0.137746,-0.148193,0.064402,-0.006497,0.000003,0.002778,0.429209,-0.297931,0.194484,0.830176,5.138860,41.423448,127.265332
11864,NaN,-6.614276,0.671947,7.285479,0.058800,-0.104860,0.049559,-0.004248,-0.006952,0.002165,0.429246,-0.297893,0.194484,0.830171,5.139152,41.419472,127.260957
11865,NaN,-6.569813,0.670085,7.253611,0.051022,-0.096678,-0.003794,-0.006833,-0.007981,-0.000093,0.429302,-0.297846,0.194461,0.830164,5.136078,41.413329,127.252910
11866,NaN,-6.543838,0.722543,7.304499,-0.020489,-0.081495,0.020549,-0.006053,-0.006629,0.006871,0.429331,-0.297804,0.194466,0.830163,5.137876,41.409219,127.250233
11867,NaN,-6.506143,0.705493,7.374631,-0.046035,-0.009519,0.046855,-0.009759,-0.001153,0.006154,0.429351,-0.297785,0.194455,0.830162,5.136579,41.406653,127.247407
11868,NaN,-6.534739,0.748870,7.425917,-0.086030,-0.020878,0.106991,-0.008746,0.006960,0.003393,0.429366,-0.297812,0.194470,0.830141,5.135587,41.410533,127.244355
11869,NaN,-6.539762,0.769807,7.381658,-0.087077,-0.060729,0.078657,-0.012001,0.011857,0.009238,0.429357,-0.297849,0.194482,0.830130,5.135147,41.415233,127.244765
11870,NaN,-6.571228,0.754458,7.376856,-0.059073,-0.073053,0.094857,-0.013636,0.008253,0.009691,0.429336,-0.297886,0.194487,0.830126,5.134513,41.419475,127.246807
11871,NaN,-6.569829,0.743363,7.398065,-0.058111,-0.053295,0.109026,-0.013929,0.014695,0.007788,0.429328,-0.297941,0.194495,0.830109,5.132367,41.425870,127.246307
11872,NaN,-6.626752,0.744535,7.376473,-0.027081,-0.099601,0.130646,-0.016543,0.011351,0.009500,0.429306,-0.297995,0.194497,0.830100,5.130192,41.431797,127.247649
11873,NaN,-6.635194,0.723138,7.366360,-0.002675,-0.098127,0.127250,-0.013008,0.009802,0.014470,0.429276,-0.298020,0.194508,0.830104,5.131718,41.435057,127.251900
11874,NaN,-6.614921,0.727467,7.338721,-0.006863,-0.103768,0.093493,-0.016722,0.009230,0.011284,0.429238,-0.298067,0.194502,0.830108,5.130056,41.439683,127.255848
11875,NaN,-6.617611,0.668478,7.282768,0.061417,-0.104904,0.049543,-0.013196,0.001626,0.013782,0.429218,-0.298060,0.194494,0.830123,5.130757,41.438311,127.259018
11876,NaN,-6.648692,0.653274,7.278263,0.089432,-0.117273,0.065736,-0.012659,0.008004,0.008435,0.429213,-0.298092,0.194504,0.830112,5.130208,41.442373,127.258906
11877,NaN,-6.633872,0.625937,7.263053,0.110152,-0.101731,0.042743,-0.009274,0.006647,0.011218,0.429205,-0.298099,0.194520,0.830109,5.132092,41.443998,127.260467
11878,NaN,-6.624222,0.636367,7.294194,0.086918,-0.083316,0.060309,-0.008955,0.002525,0.009149,0.429204,-0.298101,0.194532,0.830107,5.133599,41.444875,127.261068
11879,NaN,-6.624224,0.636420,7.294188,0.087200,-0.083449,0.060305,-0.004093,-0.001090,0.006821,0.429229,-0.298070,0.194546,0.830102,5.135886,41.442311,127.258752
11880,NaN,-6.616366,0.657507,7.303815,0.063278,-0.084900,0.063704,-0.004393,-0.000701,0.002446,0.429266,-0.298054,0.194560,0.830085,5.136507,41.441632,127.254018
11881,NaN,-6.637079,0.652892,7.331086,0.067944,-0.079259,0.097459,-0.002466,-0.003539,0.003896,0.429308,-0.298012,0.194571,0.830075,5.138142,41.437820,127.249308
11882,NaN,-6.636511,0.722491,7.365237,-0.000546,-0.097896,0.127252,-0.001188,-0.004187,0.007011,0.429342,-0.297969,0.194602,0.830066,5.142917,41.435016,127.246781
11883,NaN,-6.632171,0.701389,7.408931,0.001165,-0.058278,0.155587,-0.002276,0.004641,0.004589,0.429374,-0.297960,0.194632,0.830046,5.145381,41.435837,127.243159
11884,NaN,-6.646950,0.712489,7.333341,0.023367,-0.116183,0.109683,-0.003393,0.011149,0.006137,0.429399,-0.297984,0.194688,0.830011,5.149202,41.441738,127.240181
11885,NaN,-6.606888,0.737924,7.368407,-0.027555,-0.085439,0.111065,-0.008115,0.008518,0.008178,0.429404,-0.298000,0.194708,0.829998,5.150304,41.444587,127.239557
11886,NaN,-6.569213,0.704273,7.347802,-0.010585,-0.055539,0.068484,-0.012627,0.010333,0.004469,0.429399,-0.298050,0.194711,0.829982,5.147641,41.450258,127.238487
11887,NaN,-6.589729,0.752294,7.318122,-0.032212,-0.111044,0.063143,-0.013595,0.016649,0.008205,0.429387,-0.298111,0.194726,0.829963,5.145986,41.457747,127.238441
11888,NaN,-6.575381,0.724414,7.302548,-0.011565,-0.095261,0.040150,-0.019127,0.010350,0.007248,0.429362,-0.298171,0.194707,0.829959,5.141021,41.463209,127.239265
11889,NaN,-6.565017,0.717668,7.243576,0.007711,-0.119478,-0.011180,-0.019457,0.008421,0.006843,0.429355,-0.298212,0.194677,0.829954,5.134946,41.466071,127.237617
11890,NaN,-6.537005,0.742575,7.225521,-0.020609,-0.126651,-0.041529,-0.018499,0.011897,0.012030,0.429323,-0.298269,0.194676,0.829951,5.132945,41.472051,127.240523
11891,NaN,-6.597022,0.701460,7.238301,0.035978,-0.132045,0.005001,-0.015277,0.004675,0.010148,0.429312,-0.298282,0.194660,0.829956,5.130762,41.472607,127.241135
11892,NaN,-6.581978,0.673978,7.223301,0.056644,-0.116271,-0.017994,-0.013022,0.003767,0.012003,0.429297,-0.298293,0.194666,0.829958,5.131575,41.474052,127.243303
11893,NaN,-6.646646,0.671088,7.282891,0.069386,-0.118977,0.069104,-0.006599,-0.006948,0.014682,0.429292,-0.298235,0.194668,0.829981,5.136124,41.467742,127.246573
11894,NaN,-6.671028,0.688496,7.266977,0.072490,-0.152811,0.074526,-0.003048,-0.012240,0.013205,0.429302,-0.298158,0.194682,0.830000,5.142510,41.460020,127.248587
11895,NaN,-6.694229,0.642148,7.329219,0.102802,-0.105926,0.133203,-0.001784,-0.018943,0.013840,0.429319,-0.298041,0.194677,0.830035,5.148847,41.446908,127.250391
11896,NaN,-6.671000,0.652941,7.414940,0.057018,-0.049211,0.182523,-0.001920,-0.012691,0.014133,0.429327,-0.297958,0.194696,0.830056,5.156328,41.438863,127.253188
11897,NaN,-6.681876,0.723339,7.396380,0.011187,-0.106206,0.180596,-0.004492,-0.007657,0.014353,0.429326,-0.297893,0.194705,0.830077,5.161882,41.432165,127.256153
11898,NaN,-6.641187,0.679582,7.398333,0.028952,-0.056482,0.152176,-0.008955,0.002539,0.009156,0.429312,-0.297899,0.194712,0.830081,5.163251,41.433104,127.258536
11899,NaN,-6.636402,0.641984,7.351618,0.073082,-0.059360,0.111595,-0.011511,0.013629,0.011856,0.429291,-0.297940,0.194734,0.830072,5.164493,41.438681,127.261064
11900,NaN,-6.577998,0.682013,7.337452,0.016959,-0.053872,0.065076,-0.020050,0.019010,0.007033,0.429263,-0.298037,0.194732,0.830052,5.159377,41.449150,127.261610
11901,NaN,-6.604590,0.697816,7.319693,0.020121,-0.087972,0.070496,-0.019868,0.021140,0.005254,0.429249,-0.298133,0.194726,0.830026,5.152845,41.459354,127.259627
11902,NaN,-6.559929,0.684244,7.308034,0.013028,-0.059639,0.031320,-0.023764,0.018453,0.003847,0.429228,-0.298239,0.194701,0.830005,5.143838,41.469497,127.257867
11903,NaN,-6.598237,0.700133,7.237322,0.038752,-0.131985,0.004992,-0.020215,0.013159,0.002366,0.429234,-0.298305,0.194671,0.829985,5.135286,41.475294,127.253133
11904,NaN,-6.588904,0.709308,7.268336,0.015580,-0.113471,0.022574,-0.015073,0.003088,0.001924,0.429244,-0.298332,0.194645,0.829976,5.129601,41.476923,127.249493
11905,NaN,-6.565548,0.702390,7.263449,0.012215,-0.099483,0.002985,-0.008488,-0.011566,0.000330,0.429300,-0.298273,0.194609,0.829977,5.125620,41.468714,127.241517
11906,NaN,-6.600976,0.724570,7.306090,-0.003657,-0.109185,0.059744,-0.006551,-0.008354,0.004262,0.429331,-0.298230,0.194599,0.829979,5.125543,41.463632,127.237962
11907,NaN,-6.541941,0.711865,7.349662,-0.033206,-0.042826,0.052318,-0.003036,-0.015974,0.006746,0.429373,-0.298135,0.194585,0.829995,5.127724,41.452579,127.234572
11908,NaN,-6.548649,0.691079,7.341004,-0.008889,-0.041213,0.048902,-0.000416,-0.012631,0.005041,0.429402,-0.298063,0.194589,0.830004,5.131271,41.445057,127.232830
11909,NaN,-6.589572,0.682271,7.395939,0.000259,-0.029822,0.116410,0.000064,-0.010895,0.007637,0.429440,-0.297981,0.194600,0.830011,5.135907,41.436857,127.230466
11910,NaN,-6.583440,0.714574,7.384076,-0.024462,-0.051012,0.105663,-0.004447,0.000718,0.012867,0.429431,-0.297963,0.194633,0.830015,5.141846,41.436551,127.233911
11911,NaN,-6.618025,0.657410,7.413584,0.029318,-0.022578,0.146745,-0.006335,0.005885,0.007454,0.429444,-0.297964,0.194654,0.830003,5.143483,41.437937,127.232554
11912,NaN,-6.643779,0.674179,7.396500,0.032360,-0.056432,0.152166,-0.011989,0.011902,0.009273,0.429431,-0.298010,0.194675,0.829988,5.143765,41.444094,127.233499
11913,NaN,-6.644472,0.673779,7.395914,0.032649,-0.056559,0.152164,-0.012801,0.008236,0.006269,0.429437,-0.298037,0.194671,0.829977,5.141207,41.446883,127.231401
11914,NaN,-6.645240,0.673178,7.395278,0.032848,-0.056431,0.152164,-0.018307,0.014059,0.010276,0.429403,-0.298106,0.194670,0.829970,5.138405,41.454261,127.233999
11915,NaN,-6.606334,0.692360,7.318637,0.023442,-0.087928,0.070489,-0.019119,0.010395,0.007272,0.429393,-0.298154,0.194647,0.829963,5.132828,41.458230,127.232812
11916,NaN,-6.576526,0.637140,7.288377,0.064628,-0.056670,0.024471,-0.021261,0.008793,0.011573,0.429343,-0.298210,0.194619,0.829975,5.128642,41.462601,127.237598
11917,NaN,-6.587026,0.626249,7.256462,0.088222,-0.075221,0.006880,-0.016718,0.009289,0.011316,0.429320,-0.298245,0.194609,0.829977,5.126430,41.465732,127.239414
11918,NaN,-6.622216,0.701598,7.242167,0.045767,-0.145925,0.024567,-0.019156,0.008079,0.011241,0.429296,-0.298288,0.194598,0.829977,5.123580,41.469749,127.241259
11919,NaN,-6.599335,0.694983,7.236817,0.042417,-0.131936,0.004977,-0.015978,-0.001476,0.013311,0.429277,-0.298274,0.194571,0.829998,5.122311,41.466635,127.243859
11920,NaN,-6.635628,0.648085,7.244876,0.095330,-0.123197,0.031882,-0.015184,-0.003864,0.013829,0.429257,-0.298257,0.194552,0.830019,5.122387,41.463513,127.247072
11921,NaN,-6.586706,0.694105,7.290665,0.020429,-0.093643,0.036733,-0.012745,-0.002651,0.013905,0.429241,-0.298230,0.194537,0.830040,5.123216,41.459697,127.250044
11922,NaN,-6.627202,0.669249,7.255058,0.071666,-0.124641,0.035303,-0.009033,-0.002094,0.017096,0.429209,-0.298206,0.194550,0.830062,5.128466,41.457508,127.256762
11923,NaN,-6.689314,0.725002,7.370632,0.016526,-0.125927,0.166423,-0.011139,-0.001372,0.017431,0.429180,-0.298178,0.194550,0.830087,5.132051,41.454242,127.262506
11924,NaN,-6.644896,0.723800,7.338685,0.008635,-0.117415,0.113085,-0.011990,-0.007359,0.018389,0.429135,-0.298140,0.194538,0.830127,5.135945,41.449077,127.270866
11925,NaN,-6.607064,0.706657,7.409060,-0.016297,-0.045239,0.139424,-0.009885,-0.008078,0.018055,0.429112,-0.298081,0.194530,0.830162,5.140257,41.441951,127.276624
11926,NaN,-6.595545,0.701376,7.350975,0.002742,-0.069301,0.088078,-0.014556,-0.002312,0.018621,0.429070,-0.298064,0.194523,0.830191,5.143155,41.439511,127.283815
11927,NaN,-6.595563,0.701494,7.350947,0.003026,-0.069422,0.088077,-0.015475,0.006331,0.018411,0.429023,-0.298077,0.194523,0.830211,5.145095,41.440589,127.290830
11928,NaN,-6.603885,0.680385,7.340871,0.027330,-0.067886,0.084649,-0.019499,0.009906,0.017305,0.428945,-0.298130,0.194511,0.830235,5.144782,41.445309,127.300740
11929,NaN,-6.619620,0.707189,7.355331,0.007091,-0.083539,0.107663,-0.021939,0.008701,0.017231,0.428891,-0.298167,0.194487,0.830255,5.142532,41.447801,127.307019
11930,NaN,-6.601190,0.722127,7.306138,0.001965,-0.109018,0.059747,-0.021294,0.006511,0.015559,0.428838,-0.298206,0.194465,0.830274,5.140354,41.450589,127.313192
11931,NaN,-6.568083,0.640625,7.207775,0.086231,-0.100901,-0.041069,-0.021442,0.006710,0.013372,0.428803,-0.298238,0.194433,0.830288,5.136354,41.452143,127.316397
11932,NaN,-6.620661,0.620570,7.229782,0.118648,-0.107750,0.008836,-0.017960,0.016037,0.010719,0.428782,-0.298310,0.194446,0.830270,5.134357,41.460623,127.317387
11933,NaN,-6.661751,0.664381,7.227468,0.101126,-0.157392,0.037268,-0.008250,0.008755,0.006029,0.428794,-0.298329,0.194462,0.830253,5.134307,41.463721,127.315141
11934,NaN,-6.620766,0.689476,7.263514,0.050318,-0.126060,0.038715,-0.003230,-0.012043,0.010995,0.428805,-0.298257,0.194469,0.830272,5.139337,41.456189,127.316631
11935,NaN,-6.592340,0.661908,7.302945,0.048744,-0.072333,0.047458,-0.006028,-0.021235,0.008009,0.428842,-0.298145,0.194433,0.830301,5.140200,41.442072,127.313840
11936,NaN,-6.596006,0.699578,7.350732,0.005154,-0.069230,0.088078,0.000956,-0.019544,0.007826,0.428877,-0.298037,0.194435,0.830321,5.145718,41.430411,127.312609
11937,NaN,-6.591998,0.758460,7.407986,-0.062481,-0.067750,0.132133,0.000499,-0.015221,0.007724,0.428919,-0.297936,0.194439,0.830335,5.150449,41.419741,127.310011
11938,NaN,-6.587140,0.737369,7.452121,-0.060485,-0.027888,0.160466,-0.002680,-0.001926,0.012130,0.428929,-0.297899,0.194476,0.830335,5.156956,41.417755,127.311376
11939,NaN,-6.556972,0.683477,7.422056,-0.019112,0.002998,0.114425,-0.003741,0.006914,0.009737,0.428935,-0.297897,0.194512,0.830324,5.161276,41.419612,127.311829
11940,NaN,-6.559679,0.694590,7.399686,-0.019764,-0.016729,0.100260,-0.007280,0.012225,0.011234,0.428928,-0.297930,0.194560,0.830304,5.165409,41.425791,127.313333
11941,NaN,-6.464645,0.648236,7.421123,-0.032038,0.079394,0.050253,-0.009171,0.021134,0.012293,0.428901,-0.297997,0.194608,0.830283,5.168553,41.435631,127.316710
11942,NaN,-6.636219,0.665955,7.335119,0.058517,-0.080613,0.100786,-0.013046,0.024518,0.013379,0.428854,-0.298094,0.194657,0.830261,5.170863,41.448785,127.322150
11943,NaN,-6.574070,0.615357,7.330452,0.073076,-0.017133,0.052756,-0.017728,0.007281,0.016570,0.428811,-0.298117,0.194646,0.830277,5.170631,41.450499,127.327830
11944,NaN,-6.501501,0.639022,7.280609,0.036597,-0.015718,-0.030891,-0.022797,0.002747,0.018195,0.428753,-0.298139,0.194616,0.830306,5.168767,41.450911,127.335024
11945,NaN,-6.551901,0.608416,7.324492,0.069999,-0.003024,0.033167,-0.019616,0.016197,0.017635,0.428694,-0.298203,0.194618,0.830314,5.168397,41.457658,127.342130
11946,NaN,-6.648933,0.654932,7.301198,0.082749,-0.099169,0.083173,-0.019848,0.011749,0.023378,0.428628,-0.298245,0.194633,0.830329,5.171447,41.462814,127.351577
11947,NaN,-6.639298,0.665122,7.332407,0.059810,-0.080781,0.100776,-0.015360,0.000115,0.018114,0.428589,-0.298232,0.194620,0.830357,5.173024,41.460359,127.357940
11948,NaN,-6.671826,0.661394,7.306548,0.086805,-0.113325,0.102753,-0.016412,-0.007999,0.020839,0.428534,-0.298195,0.194594,0.830404,5.175613,41.454517,127.367199
11949,NaN,-6.666153,0.708941,7.385319,0.020102,-0.091874,0.160992,-0.013022,-0.013116,0.017150,0.428515,-0.298123,0.194560,0.830448,5.177438,41.444562,127.371914
11950,NaN,-6.683105,0.678149,7.344896,0.067656,-0.108938,0.139941,-0.008096,-0.008385,0.013340,0.428518,-0.298070,0.194563,0.830465,5.181151,41.438923,127.373677
11951,NaN,-6.590564,0.653537,7.324247,0.053643,-0.052535,0.061603,-0.004150,-0.003389,0.010793,0.428529,-0.298026,0.194577,0.830472,5.185299,41.434847,127.374223
11952,NaN,-6.552842,0.705251,7.428362,-0.039908,0.001866,0.117875,-0.004424,0.006794,0.015389,0.428499,-0.298031,0.194624,0.830474,5.192631,41.437802,127.380576
11953,NaN,-6.598313,0.702413,7.348391,0.009424,-0.069324,0.088074,-0.012302,0.010035,0.008906,0.428493,-0.298061,0.194631,0.830465,5.191772,41.441483,127.380614
11954,NaN,-6.504817,0.665956,7.348636,-0.003722,0.007170,0.023904,-0.021584,0.006965,0.011203,0.428449,-0.298108,0.194598,0.830478,5.187058,41.444599,127.384438
11955,NaN,-6.523414,0.634365,7.306804,0.043900,-0.010178,0.002847,-0.015691,0.015160,0.012601,0.428418,-0.298164,0.194606,0.830473,5.186353,41.451014,127.387642
11956,NaN,-6.608400,0.679700,7.336871,0.034263,-0.067903,0.084627,-0.021057,0.011028,0.009844,0.428400,-0.298222,0.194593,0.830464,5.181854,41.456599,127.387660
11957,NaN,-6.526461,0.644233,7.284219,0.043476,-0.030035,-0.011321,-0.011975,-0.004991,0.014427,0.428386,-0.298184,0.194577,0.830489,5.183278,41.451421,127.390863
11958,NaN,-6.592807,0.652256,7.322342,0.055315,-0.052467,0.061594,-0.008441,-0.010310,0.012923,0.428376,-0.298129,0.194567,0.830516,5.186323,41.444708,127.394303
11959,NaN,-6.627057,0.743954,7.399816,-0.029298,-0.080355,0.148302,-0.012536,-0.015102,0.013280,0.428376,-0.298051,0.194525,0.830554,5.186383,41.433820,127.395933
11960,NaN,-6.604842,0.748618,7.373893,-0.033605,-0.085932,0.114555,-0.011411,-0.015563,0.014207,0.428373,-0.297976,0.194499,0.830588,5.188298,41.424083,127.398303
11961,NaN,-6.589109,0.721572,7.359449,-0.012747,-0.070613,0.091522,-0.008023,0.000006,0.011885,0.428371,-0.297953,0.194506,0.830596,5.190932,41.421888,127.399914
11962,NaN,-6.616762,0.749784,7.320661,-0.010888,-0.124353,0.082777,-0.008504,0.018966,0.010655,0.428360,-0.298016,0.194562,0.830566,5.194314,41.431865,127.401221
11963,NaN,-6.707195,0.748274,7.272107,0.046391,-0.204035,0.106291,-0.020791,0.025286,0.013100,0.428309,-0.298124,0.194572,0.830551,5.191402,41.444032,127.405506
11964,NaN,-6.702579,0.779069,7.259020,0.021473,-0.225077,0.095580,-0.025553,0.012906,0.006151,0.428282,-0.298207,0.194531,0.830545,5.182256,41.450842,127.404961
11965,NaN,-6.720785,0.815574,7.251434,0.000181,-0.260483,0.104447,-0.024976,0.019294,0.000831,0.428281,-0.298311,0.194493,0.830517,5.170487,41.460225,127.399487
11966,NaN,-6.831513,0.808009,7.230608,0.061878,-0.334234,0.161709,-0.022988,0.004124,-0.000568,0.428317,-0.298352,0.194443,0.830495,5.159309,41.462272,127.390179
11967,NaN,-6.602237,0.674918,7.143551,0.095494,-0.174986,-0.064065,-0.006480,-0.007392,-0.010165,0.428416,-0.298316,0.194408,0.830465,5.151377,41.456991,127.374495
11968,NaN,-6.562181,0.630052,7.145008,0.113704,-0.125453,-0.092520,0.006249,0.006387,-0.004653,0.428489,-0.298315,0.194471,0.830413,5.154840,41.460742,127.365088
11969,NaN,-6.580448,0.684095,7.228239,0.050632,-0.117952,-0.014665,0.010958,-0.004255,0.004878,0.428548,-0.298240,0.194537,0.830394,5.164625,41.456477,127.361074
11970,NaN,-6.586548,0.732907,7.253930,0.006122,-0.134502,0.011829,0.000094,-0.023221,0.004766,0.428615,-0.298116,0.194530,0.830406,5.168086,41.442734,127.355062
11971,NaN,-6.625718,0.792266,7.344402,-0.053400,-0.141111,0.109273,-0.010789,-0.031275,-0.002945,0.428700,-0.297983,0.194437,0.830432,5.160243,41.423455,127.343235
11972,NaN,-6.595684,0.748294,7.294355,-0.012991,-0.130058,0.049033,-0.004260,-0.021554,0.003255,0.428758,-0.297877,0.194409,0.830446,5.160408,41.410648,127.337097
11973,NaN,-6.605795,0.753692,7.353701,-0.031314,-0.105852,0.100401,0.000933,-0.002593,0.002699,0.428810,-0.297833,0.194434,0.830429,5.163433,41.407445,127.331541
11974,NaN,-6.573772,0.688696,7.345200,0.011113,-0.055082,0.068486,-0.000797,0.006124,0.005966,0.428844,-0.297830,0.194488,0.830400,5.168325,41.410314,127.328190
11975,NaN,-6.515092,0.595718,7.374556,0.052080,0.049302,0.045316,-0.000312,0.007855,0.008572,0.428859,-0.297826,0.194539,0.830382,5.174067,41.412770,127.327822
11976,NaN,-6.525750,0.586491,7.342362,0.075418,0.030809,0.027690,0.002953,0.012714,0.011672,0.428845,-0.297845,0.194623,0.830363,5.184088,41.419299,127.332381
11977,NaN,-6.599617,0.627911,7.313895,0.084292,-0.051478,0.058104,-0.001740,0.012448,0.009744,0.428849,-0.297862,0.194680,0.830341,5.189814,41.424316,127.333223
11978,NaN,-6.604832,0.665020,7.360361,0.040775,-0.048114,0.098770,-0.015197,-0.007511,0.007367,0.428856,-0.297836,0.194642,0.830356,5.186425,41.419514,127.331727
11979,NaN,-6.580847,0.658125,7.356023,0.037532,-0.034091,0.079187,-0.014640,-0.018088,0.007137,0.428881,-0.297757,0.194576,0.830387,5.182053,41.407242,127.328476
11980,NaN,-6.500844,0.648853,7.372664,0.004042,0.027094,0.038069,-0.010843,-0.009171,0.008881,0.428888,-0.297714,0.194554,0.830403,5.181773,41.401325,127.328167
11981,NaN,-6.513410,0.665209,7.409862,-0.015245,0.031460,0.075278,-0.003816,-0.001455,0.011211,0.428896,-0.297676,0.194575,0.830408,5.186411,41.398332,127.329165
11982,NaN,-6.652952,0.778516,7.343165,-0.023156,-0.153829,0.125408,-0.013286,-0.010365,0.008804,0.428889,-0.297637,0.194535,0.830435,5.184505,41.391818,127.330481
11983,NaN,-6.643882,0.798454,7.354058,-0.047019,-0.155164,0.128871,-0.025007,-0.018340,0.004548,0.428909,-0.297581,0.194421,0.830471,5.172883,41.379535,127.325247
11984,NaN,-6.622863,0.732598,7.293384,0.017552,-0.142958,0.065153,-0.020329,-0.007168,-0.001124,0.428968,-0.297568,0.194360,0.830460,5.162530,41.375065,127.314033
11985,NaN,-6.672239,0.685926,7.247258,0.092720,-0.173455,0.060171,-0.007414,0.019628,-0.004988,0.429017,-0.297641,0.194387,0.830402,5.157922,41.384939,127.304161
11986,NaN,-6.683319,0.675530,7.214759,0.116022,-0.192000,0.042540,0.000424,0.010310,-0.001029,0.429070,-0.297663,0.194441,0.830354,5.160099,41.390610,127.296835
11987,NaN,-6.560236,0.600522,7.275242,0.102872,-0.041946,0.001289,0.005888,-0.012511,0.000010,0.429150,-0.297569,0.194462,0.830342,5.164164,41.381887,127.288555
11988,NaN,-6.597336,0.633935,7.296464,0.085975,-0.071364,0.043916,-0.003498,-0.013036,-0.003844,0.429218,-0.297508,0.194440,0.830334,5.161402,41.374362,127.279268
11989,NaN,-6.643102,0.725519,7.321317,0.023345,-0.137403,0.098893,-0.012183,-0.024336,-0.005742,0.429306,-0.297410,0.194351,0.830344,5.151691,41.359187,127.265806
11990,NaN,-6.656262,0.751381,7.338242,0.002941,-0.152649,0.121943,-0.015797,-0.027388,-0.002779,0.429383,-0.297310,0.194256,0.830363,5.141974,41.343337,127.254011
11991,NaN,-6.591678,0.699584,7.335746,0.017873,-0.089261,0.073896,-0.006428,-0.015955,-0.006526,0.429474,-0.297234,0.194208,0.830353,5.135558,41.332981,127.240539
11992,NaN,-6.580055,0.629402,7.354748,0.064950,-0.032916,0.075704,0.006989,0.001656,-0.000189,0.429528,-0.297209,0.194266,0.830321,5.141296,41.333692,127.235037
11993,NaN,-6.617038,0.732149,7.409952,-0.020778,-0.080244,0.148324,0.000595,-0.004522,0.002280,0.429583,-0.297158,0.194285,0.830307,5.143841,41.329409,127.229040
11994,NaN,-6.543396,0.691848,7.437942,-0.028957,0.002087,0.117913,-0.001790,-0.010570,0.012319,0.429595,-0.297085,0.194306,0.830321,5.150590,41.322646,127.230789
11995,NaN,-6.526592,0.733993,7.458256,-0.076934,-0.000382,0.124858,-0.006631,-0.010631,0.008205,0.429620,-0.297019,0.194291,0.830336,5.151693,41.314573,127.228875
11996,NaN,-6.598883,0.774771,7.431430,-0.068328,-0.082437,0.155272,-0.012308,-0.006900,0.014025,0.429608,-0.296981,0.194278,0.830358,5.153336,41.309614,127.231743
11997,NaN,-6.573577,0.757274,7.448103,-0.070469,-0.048534,0.149857,-0.020830,0.002287,0.015718,0.429569,-0.296991,0.194243,0.830384,5.150656,41.308527,127.236422
11998,NaN,-6.533174,0.697369,7.358844,-0.010492,-0.042135,0.052372,-0.017475,0.015518,0.017374,0.429516,-0.297054,0.194263,0.830384,5.152099,41.316266,127.243159
11999,NaN,-6.532684,0.686503,7.379186,-0.009120,-0.022396,0.066535,-0.009719,0.029408,0.016576,0.429462,-0.297152,0.194333,0.830360,5.157445,41.330610,127.250350
12000,NaN,-6.569835,0.694192,7.329322,0.016583,-0.075002,0.054313,-0.011484,0.032077,0.017338,0.429403,-0.297270,0.194413,0.830330,5.162989,41.347652,127.258089
12001,NaN,-6.568967,0.668204,7.259028,0.059468,-0.098363,-0.000547,-0.014414,0.029161,0.014655,0.429351,-0.297378,0.194460,0.830307,5.164676,41.361954,127.263810
12002,NaN,-6.572663,0.679226,7.235777,0.058589,-0.118119,-0.014711,-0.014357,0.020585,0.018289,0.429286,-0.297457,0.194501,0.830303,5.168489,41.372459,127.272702
12003,NaN,-6.641747,0.682893,7.160549,0.110843,-0.203832,-0.025002,-0.020071,0.014546,0.015108,0.429238,-0.297516,0.194495,0.830308,5.166502,41.378397,127.277765
12004,NaN,-6.635574,0.634443,7.134848,0.155835,-0.187270,-0.051537,-0.016350,0.011347,0.011819,0.429218,-0.297563,0.194504,0.830299,5.165713,41.384014,127.279414
12005,NaN,-6.662921,0.597737,7.173412,0.185932,-0.160719,-0.007115,-0.009151,0.000488,0.010971,0.429217,-0.297545,0.194506,0.830305,5.167264,41.382145,127.280363
12006,NaN,-6.690326,0.641485,7.225904,0.145966,-0.171362,0.053162,-0.001364,-0.014899,0.012398,0.429255,-0.297447,0.194528,0.830316,5.174271,41.372714,127.278947
12007,NaN,-6.672530,0.683865,7.247184,0.097959,-0.173768,0.060114,-0.004137,-0.032652,0.013009,0.429286,-0.297279,0.194483,0.830371,5.178210,41.351829,127.279164
12008,NaN,-6.708852,0.732757,7.360106,0.039566,-0.159981,0.171782,-0.010345,-0.036688,0.013704,0.429325,-0.297108,0.194421,0.830426,5.179629,41.329806,127.277322
12009,NaN,-6.677702,0.773215,7.435856,-0.030339,-0.123772,0.210549,-0.014300,-0.045382,0.009765,0.429366,-0.296912,0.194301,0.830503,5.175539,41.301824,127.274197
12010,NaN,-6.568142,0.720956,7.401780,-0.023389,-0.051724,0.109177,-0.001794,-0.025194,0.013422,0.429393,-0.296776,0.194292,0.830540,5.182031,41.286399,127.275102
12011,NaN,-6.536177,0.736062,7.407086,-0.050718,-0.038792,0.093081,-0.006551,0.001484,0.013246,0.429385,-0.296754,0.194311,0.830547,5.186255,41.284980,127.277847
12012,NaN,-6.575728,0.700994,7.392244,0.001271,-0.050600,0.105695,-0.002646,0.015036,0.007073,0.429398,-0.296793,0.194376,0.830512,5.190994,41.292915,127.276697
12013,NaN,-6.565726,0.696058,7.332826,0.019961,-0.075148,0.054305,-0.005285,0.011721,0.008769,0.429401,-0.296815,0.194415,0.830493,5.194166,41.297569,127.276748
12014,NaN,-6.520456,0.683236,7.321582,0.013210,-0.046707,0.015149,-0.010810,0.007814,0.003817,0.429410,-0.296848,0.194421,0.830475,5.192068,41.301614,127.274099
12015,NaN,-6.518645,0.671633,7.343165,0.014635,-0.026972,0.029312,-0.013349,-0.001753,0.005179,0.429429,-0.296836,0.194392,0.830476,5.188207,41.298766,127.270494
12016,NaN,-6.524367,0.639309,7.355325,0.040133,-0.005929,0.039990,-0.009338,-0.005356,0.006265,0.429443,-0.296808,0.194378,0.830482,5.187557,41.295019,127.268925
12017,NaN,-6.533709,0.629256,7.324415,0.063424,-0.024806,0.022339,-0.007136,-0.012344,0.005589,0.429480,-0.296738,0.194354,0.830494,5.186981,41.286106,127.264901
12018,NaN,-6.560415,0.672515,7.377519,0.023441,-0.035388,0.082630,-0.009824,-0.017985,0.011247,0.429482,-0.296654,0.194317,0.830531,5.187934,41.274964,127.266446
12019,NaN,-6.613079,0.664210,7.379525,0.054809,-0.062753,0.118296,-0.009776,-0.015657,0.007286,0.429512,-0.296574,0.194277,0.830554,5.186545,41.264074,127.263483
12020,NaN,-6.601710,0.673761,7.412271,0.032035,-0.043917,0.135947,-0.014371,-0.018431,0.011516,0.429506,-0.296499,0.194220,0.830597,5.184952,41.252550,127.265380
12021,NaN,-6.588466,0.672341,7.466563,0.010497,-0.005419,0.167761,-0.011047,-0.011261,0.010660,0.429515,-0.296436,0.194189,0.830622,5.184725,41.243993,127.265282
12022,NaN,-6.576945,0.667209,7.408542,0.029081,-0.029758,0.116368,-0.009678,-0.003553,0.012338,0.429507,-0.296410,0.194190,0.830636,5.187099,41.241077,127.267625
12023,NaN,-6.606832,0.721650,7.438895,-0.011977,-0.060375,0.162501,-0.012171,0.007560,0.015123,0.429477,-0.296424,0.194201,0.830643,5.189316,41.243028,127.272211
12024,NaN,-6.624376,0.759611,7.431889,-0.033613,-0.095366,0.171406,-0.016476,0.011567,0.009660,0.429445,-0.296480,0.194197,0.830641,5.187012,41.248867,127.274980
12025,NaN,-6.606445,0.774777,7.382319,-0.039121,-0.121011,0.123502,-0.017550,0.018089,0.011264,0.429413,-0.296553,0.194203,0.830630,5.184694,41.257026,127.277363
12026,NaN,-6.580080,0.730915,7.328963,0.001264,-0.110245,0.063204,-0.014714,0.023532,0.007800,0.429386,-0.296656,0.194233,0.830600,5.183132,41.269927,127.278794
12027,NaN,-6.527133,0.723802,7.236342,0.011792,-0.126334,-0.041510,-0.011240,0.030503,0.009139,0.429360,-0.296769,0.194288,0.830560,5.183931,41.285280,127.280419
12028,NaN,-6.481020,0.700272,7.245710,0.006239,-0.078044,-0.066500,-0.005375,0.021703,0.015611,0.429305,-0.296840,0.194359,0.830547,5.191338,41.296603,127.289033
12029,NaN,-6.530077,0.724217,7.233644,0.012251,-0.126357,-0.041511,-0.014865,0.012836,0.013195,0.429275,-0.296883,0.194368,0.830545,5.191290,41.301666,127.292522
12030,NaN,-6.582436,0.704877,7.255797,0.044696,-0.133696,0.008312,-0.012572,-0.000408,0.012174,0.429263,-0.296874,0.194364,0.830555,5.192114,41.300443,127.294602
12031,NaN,-6.606925,0.722281,7.239861,0.047237,-0.167843,0.013722,-0.010571,-0.009528,0.013261,0.429260,-0.296816,0.194342,0.830583,5.193541,41.292740,127.296597
12032,NaN,-6.641789,0.744840,7.283018,0.031378,-0.177319,0.070534,-0.008520,-0.016320,0.010387,0.429258,-0.296739,0.194310,0.830618,5.194759,41.282511,127.298724
12033,NaN,-6.575652,0.682944,7.301689,0.047821,-0.094169,0.036633,-0.006761,-0.018987,0.009623,0.429286,-0.296637,0.194278,0.830648,5.196114,41.269601,127.297303
12034,NaN,-6.557549,0.644945,7.309217,0.069924,-0.059007,0.027723,-0.008665,-0.012392,0.014690,0.429282,-0.296567,0.194269,0.830677,5.199836,41.261424,127.300312
12035,NaN,-6.572229,0.687456,7.415499,0.008276,-0.031053,0.119854,-0.004314,-0.014075,0.016193,0.429280,-0.296474,0.194268,0.830712,5.206105,41.250975,127.304215
12036,NaN,-6.623337,0.668673,7.438744,0.040721,-0.038424,0.169671,-0.010373,-0.007392,0.011496,0.429270,-0.296436,0.194252,0.830734,5.207355,41.245837,127.306864
12037,NaN,-6.599859,0.662262,7.433861,0.037571,-0.024370,0.150094,-0.013109,-0.004451,0.013531,0.429257,-0.296403,0.194231,0.830757,5.207690,41.241018,127.309411
12038,NaN,-6.570641,0.687625,7.416891,0.009007,-0.030944,0.119854,-0.014325,0.002272,0.012949,0.429234,-0.296410,0.194227,0.830768,5.208067,41.241456,127.312659
12039,NaN,-6.600096,0.661868,7.433686,0.038091,-0.024364,0.150092,-0.015197,0.010923,0.012790,0.429207,-0.296447,0.194229,0.830768,5.207536,41.245447,127.315707
12040,NaN,-6.598829,0.715600,7.377825,0.010540,-0.084827,0.111103,-0.015633,0.015249,0.012711,0.429169,-0.296511,0.194246,0.830761,5.207556,41.253198,127.319786
12041,NaN,-6.564037,0.692747,7.334651,0.026874,-0.075417,0.054287,-0.016758,0.015724,0.011789,0.429139,-0.296572,0.194250,0.830754,5.205850,41.259981,127.322407
12042,NaN,-6.597968,0.688664,7.307670,0.053452,-0.108339,0.056198,-0.021164,0.011365,0.007755,0.429116,-0.296636,0.194227,0.830748,5.199980,41.265679,127.322642
12043,NaN,-6.552574,0.675149,7.296588,0.046863,-0.080103,0.017045,-0.011343,0.003792,0.005185,0.429133,-0.296642,0.194218,0.830739,5.197526,41.265997,127.319425
12044,NaN,-6.579434,0.703364,7.258666,0.048044,-0.133884,0.008294,-0.009982,-0.003132,0.007955,0.429131,-0.296625,0.194208,0.830749,5.197397,41.263537,127.319940
12045,NaN,-6.546046,0.706513,7.285255,0.021975,-0.100983,0.006383,-0.007247,-0.006074,0.005920,0.429160,-0.296581,0.194196,0.830752,5.197209,41.258187,127.316600
12046,NaN,-6.568348,0.712765,7.291201,0.025638,-0.115075,0.025958,-0.005834,-0.010671,0.004729,0.429208,-0.296520,0.194190,0.830750,5.197727,41.251404,127.311091
12047,NaN,-6.511692,0.709471,7.312717,-0.003847,-0.067982,0.004475,-0.008716,-0.007527,0.004575,0.429243,-0.296474,0.194168,0.830754,5.195959,41.245296,127.306630
12048,NaN,-6.553139,0.699721,7.367229,0.005720,-0.056563,0.071951,-0.008371,-0.005600,0.004998,0.429276,-0.296440,0.194161,0.830751,5.195336,41.241378,127.302407
12049,NaN,-6.567597,0.726704,7.382874,-0.014706,-0.071853,0.095031,-0.007880,-0.003874,0.007612,0.429295,-0.296405,0.194154,0.830755,5.195733,41.237196,127.300503
12050,NaN,-6.596484,0.701182,7.400137,0.014335,-0.065076,0.125262,-0.009145,0.000522,0.010995,0.429299,-0.296392,0.194168,0.830754,5.198077,41.236639,127.300820
12051,NaN,-6.586285,0.710859,7.431830,-0.008268,-0.046332,0.142932,-0.005579,-0.002491,0.005498,0.429329,-0.296360,0.194171,0.830750,5.198799,41.233356,127.297408
12052,NaN,-6.588242,0.721856,7.410196,-0.009327,-0.066065,0.128770,-0.013004,0.003940,0.012111,0.429295,-0.296376,0.194167,0.830762,5.199300,41.234805,127.302060
12053,NaN,-6.558902,0.667313,7.379336,0.032404,-0.035855,0.082603,-0.009526,0.007178,0.006960,0.429304,-0.296391,0.194176,0.830750,5.198931,41.236963,127.300425
12054,NaN,-6.630303,0.697472,7.373236,0.041655,-0.098149,0.127163,-0.007711,0.010557,0.008729,0.429319,-0.296416,0.194218,0.830724,5.201503,41.242131,127.298503
12055,NaN,-6.599980,0.711880,7.377156,0.014383,-0.085056,0.111096,-0.009667,0.011103,0.011267,0.429306,-0.296443,0.194241,0.830716,5.203387,41.246305,127.300408
12056,NaN,-6.574921,0.679637,7.302655,0.053509,-0.094348,0.036602,-0.012261,0.010126,0.008999,0.429284,-0.296485,0.194251,0.830710,5.203068,41.251306,127.302588
12057,NaN,-6.573588,0.668104,7.323784,0.055059,-0.074625,0.050762,-0.011774,0.008130,0.005115,0.429296,-0.296510,0.194250,0.830695,5.200531,41.254103,127.299619
12058,NaN,-6.589047,0.694854,7.338558,0.034559,-0.089692,0.073847,-0.012261,0.010128,0.009000,0.429290,-0.296546,0.194266,0.830681,5.200368,41.258974,127.299705
12059,NaN,-6.576589,0.678570,7.301252,0.054299,-0.094514,0.036596,-0.011051,0.003403,0.009574,0.429289,-0.296546,0.194264,0.830682,5.200262,41.258842,127.299793
12060,NaN,-6.522855,0.686313,7.300280,0.023540,-0.067012,0.000962,-0.010851,0.005531,0.007807,0.429282,-0.296566,0.194268,0.830678,5.199913,41.261244,127.300390
12061,NaN,-6.533360,0.676362,7.268313,0.046686,-0.086025,-0.016716,-0.013585,0.008479,0.009847,0.429271,-0.296592,0.194268,0.830674,5.198722,41.263995,127.301036
12062,NaN,-6.579730,0.688793,7.278613,0.053718,-0.114295,0.022430,-0.013931,0.006554,0.009423,0.429263,-0.296618,0.194270,0.830669,5.197742,41.266959,127.301414
12063,NaN,-6.601007,0.683606,7.305400,0.058688,-0.108763,0.056163,-0.013645,0.002430,0.007306,0.429268,-0.296621,0.194252,0.830669,5.194970,41.266390,127.299713
12064,NaN,-6.613912,0.699225,7.342376,0.039424,-0.103940,0.093415,-0.010765,-0.000718,0.007458,0.429260,-0.296619,0.194241,0.830677,5.194240,41.265434,127.300782
12065,NaN,-6.611759,0.687666,7.364248,0.040999,-0.084218,0.107575,-0.013559,-0.003821,0.006955,0.429273,-0.296596,0.194210,0.830685,5.191056,41.261318,127.298383
12066,NaN,-6.672327,0.727252,7.390431,0.027342,-0.127619,0.169811,-0.011397,0.001482,0.009152,0.429312,-0.296584,0.194226,0.830666,5.191583,41.261139,127.293243
12067,NaN,-6.618144,0.734868,7.389885,-0.003314,-0.100284,0.134181,-0.010480,-0.004841,0.005340,0.429338,-0.296553,0.194203,0.830669,5.189310,41.256524,127.289549
12068,NaN,-6.617984,0.734699,7.390046,-0.003089,-0.100193,0.134182,-0.006848,0.001912,0.008885,0.429348,-0.296544,0.194223,0.830662,5.191805,41.256732,127.288976
12069,NaN,-6.516392,0.718721,7.400025,-0.039218,-0.024615,0.073573,-0.006300,0.005967,0.007544,0.429360,-0.296546,0.194244,0.830650,5.193522,41.258170,127.287699
12070,NaN,-6.518922,0.729748,7.377876,-0.040311,-0.044338,0.059412,-0.010934,0.011793,0.008166,0.429350,-0.296591,0.194265,0.830635,5.193774,41.264234,127.288378
12071,NaN,-6.480199,0.684810,7.378004,-0.021350,0.004697,0.030910,-0.012198,0.016194,0.011556,0.429327,-0.296644,0.194290,0.830622,5.194585,41.271299,127.290853
12072,NaN,-6.529219,0.708376,7.366038,-0.015639,-0.043398,0.055893,-0.019626,0.018920,0.011675,0.429297,-0.296729,0.194303,0.830604,5.192197,41.281227,127.292612
12073,NaN,-6.584253,0.699898,7.365885,0.015569,-0.070995,0.091515,-0.014361,0.010896,0.009358,0.429285,-0.296767,0.194303,0.830596,5.190428,41.285384,127.293053
12074,NaN,-6.592966,0.678976,7.355390,0.039953,-0.069989,0.087993,-0.010216,0.007066,0.012623,0.429279,-0.296781,0.194330,0.830588,5.193273,41.288357,127.294535
12075,NaN,-6.607011,0.691652,7.280366,0.060398,-0.128738,0.041981,-0.013705,0.000113,0.011266,0.429270,-0.296771,0.194313,0.830600,5.192346,41.286263,127.295681
12076,NaN,-6.604955,0.680097,7.302159,0.061936,-0.108814,0.056143,-0.010281,-0.002705,0.003570,0.429294,-0.296758,0.194298,0.830596,5.189928,41.284162,127.291903
12077,NaN,-6.604735,0.679817,7.302384,0.062216,-0.108938,0.056140,-0.005587,-0.002483,0.005495,0.429324,-0.296725,0.194301,0.830592,5.190642,41.280886,127.288487
12078,NaN,-6.617608,0.695683,7.339381,0.042998,-0.104092,0.093398,-0.010075,0.003145,0.008311,0.429319,-0.296733,0.194305,0.830590,5.190987,41.281934,127.289036
12079,NaN,-6.617691,0.695538,7.339319,0.043280,-0.104215,0.093396,-0.009299,0.000743,0.008808,0.429327,-0.296718,0.194304,0.830592,5.191381,41.280327,127.288359
12080,NaN,-6.570092,0.671330,7.350099,0.038067,-0.055876,0.068415,-0.012808,0.006098,0.010356,0.429305,-0.296743,0.194307,0.830594,5.191309,41.283011,127.290970
12081,NaN,-6.570683,0.670920,7.349609,0.038355,-0.055998,0.068413,-0.017440,0.011932,0.010982,0.429281,-0.296790,0.194299,0.830591,5.188638,41.287675,127.292716
12082,NaN,-6.627534,0.673490,7.327897,0.068122,-0.103245,0.089866,-0.020461,0.015292,0.008644,0.429255,-0.296868,0.194291,0.830578,5.183933,41.295700,127.293403
12083,NaN,-6.628677,0.672603,7.326945,0.068403,-0.103371,0.089863,-0.022071,0.017770,0.011612,0.429216,-0.296949,0.194278,0.830573,5.179188,41.303664,127.296029
12084,NaN,-6.668775,0.636940,7.311503,0.120260,-0.115746,0.102376,-0.020929,0.008707,0.016132,0.429153,-0.296997,0.194259,0.830593,5.177409,41.307484,127.303549
12085,NaN,-6.654684,0.689020,7.309715,0.070897,-0.137453,0.095268,-0.019035,0.002108,0.011040,0.429135,-0.297006,0.194224,0.830607,5.173406,41.306540,127.304662
12086,NaN,-6.654487,0.688491,7.309944,0.071102,-0.137370,0.095268,-0.015731,-0.005378,0.011254,0.429122,-0.296987,0.194192,0.830628,5.171588,41.302531,127.306387
12087,NaN,-6.627108,0.659395,7.348447,0.070740,-0.083616,0.104017,-0.013059,-0.010663,0.013165,0.429117,-0.296929,0.194157,0.830659,5.171494,41.294190,127.308235
12088,NaN,-6.588787,0.705538,7.342442,0.017911,-0.090879,0.077347,-0.011306,-0.013340,0.012389,0.429098,-0.296870,0.194123,0.830698,5.172278,41.285693,127.312389
12089,NaN,-6.569490,0.735789,7.385093,-0.028720,-0.072866,0.098571,-0.009205,-0.014092,0.012042,0.429106,-0.296791,0.194095,0.830729,5.173673,41.275454,127.313148
12090,NaN,-6.599647,0.721797,7.381215,-0.000993,-0.086102,0.114611,-0.008016,-0.008517,0.015520,0.429091,-0.296737,0.194096,0.830755,5.178401,41.269502,127.317756
12091,NaN,-6.542727,0.718871,7.402990,-0.030199,-0.038819,0.093164,-0.004859,-0.015800,0.013538,0.429102,-0.296640,0.194085,0.830787,5.182957,41.258212,127.319532
12092,NaN,-6.516832,0.701648,7.420137,-0.031948,-0.004691,0.087757,-0.008365,-0.010439,0.015093,0.429092,-0.296578,0.194080,0.830816,5.187082,41.251014,127.323482
12093,NaN,-6.494945,0.706949,7.393874,-0.036394,-0.010436,0.054026,-0.005771,-0.009470,0.017366,0.429079,-0.296505,0.194084,0.830847,5.193316,41.243137,127.328596
12094,NaN,-6.523699,0.682100,7.411140,-0.007285,-0.003866,0.084223,-0.011656,0.000772,0.021398,0.429021,-0.296493,0.194097,0.830879,5.199193,41.242112,127.338750
12095,NaN,-6.566795,0.670050,7.353162,0.041875,-0.056194,0.068398,-0.014531,0.003933,0.021255,0.428966,-0.296491,0.194100,0.830907,5.202962,41.241680,127.347739
12096,NaN,-6.590196,0.676820,7.358071,0.045493,-0.070309,0.087967,-0.017336,0.013147,0.023670,0.428907,-0.296531,0.194130,0.830916,5.207619,41.247444,127.356773
12097,NaN,-6.624057,0.673909,7.331002,0.071879,-0.103649,0.089835,-0.020703,0.014590,0.020907,0.428834,-0.296587,0.194129,0.830934,5.208166,41.253110,127.366237
12098,NaN,-6.643336,0.643516,7.288398,0.118992,-0.121739,0.068597,-0.019663,0.016650,0.015681,0.428787,-0.296659,0.194141,0.830930,5.207557,41.261470,127.371297
12099,NaN,-6.631492,0.627343,7.250487,0.138660,-0.126682,0.031322,-0.019726,0.014322,0.019639,0.428721,-0.296713,0.194142,0.830944,5.208019,41.267050,127.379782
12100,NaN,-6.596942,0.684628,7.221149,0.084423,-0.153686,-0.009494,-0.017069,0.017623,0.017958,0.428662,-0.296784,0.194167,0.830944,5.209972,41.275885,127.387426
12101,NaN,-6.629199,0.670143,7.215416,0.112184,-0.167209,0.006531,-0.019806,0.016866,0.013494,0.428618,-0.296854,0.194164,0.830942,5.207429,41.283236,127.391422
12102,NaN,-6.622028,0.690543,7.224574,0.088258,-0.167920,0.010071,-0.012383,0.014116,0.013369,0.428595,-0.296903,0.194197,0.830929,5.209722,41.290266,127.394429
12103,NaN,-6.646303,0.711081,7.319828,0.051180,-0.138564,0.098772,-0.010490,-0.001080,0.011850,0.428590,-0.296880,0.194192,0.830940,5.210875,41.287462,127.395937
12104,NaN,-6.658598,0.727073,7.357350,0.032005,-0.133659,0.136045,-0.008877,-0.012149,0.012464,0.428588,-0.296816,0.194176,0.830968,5.213247,41.279490,127.398157
12105,NaN,-6.611516,0.714317,7.347746,0.025602,-0.105358,0.096904,-0.005727,-0.019440,0.010474,0.428614,-0.296709,0.194149,0.831000,5.215600,41.266283,127.397346
12106,NaN,-6.591776,0.744742,7.390767,-0.020997,-0.087023,0.118152,-0.003276,-0.018271,0.010555,0.428664,-0.296600,0.194152,0.831012,5.220298,41.254729,127.393836
12107,NaN,-6.511727,0.734939,7.407408,-0.053433,-0.025453,0.077151,-0.004962,-0.013254,0.007381,0.428697,-0.296519,0.194137,0.831027,5.221824,41.245213,127.391105
12108,NaN,-6.517171,0.703104,7.419702,-0.027634,-0.004742,0.087770,-0.010625,-0.009459,0.013248,0.428687,-0.296470,0.194120,0.831054,5.223702,41.238708,127.394134
12109,NaN,-6.487243,0.728576,7.403407,-0.056251,-0.011257,0.057586,-0.008110,-0.005960,0.009373,0.428700,-0.296424,0.194110,0.831066,5.224755,41.233249,127.393421
12110,NaN,-6.511738,0.746136,7.387463,-0.054091,-0.045209,0.062994,-0.013852,0.000371,0.009093,0.428714,-0.296419,0.194103,0.831062,5.223455,41.232424,127.391213
12111,NaN,-6.559231,0.690463,7.362679,0.021958,-0.057206,0.071924,-0.011465,-0.000795,0.013130,0.428702,-0.296399,0.194097,0.831077,5.224701,41.229716,127.393708
12112,NaN,-6.544431,0.663169,7.347337,0.043023,-0.042132,0.048808,-0.011752,-0.000386,0.008744,0.428718,-0.296388,0.194096,0.831073,5.224360,41.228552,127.391512
12113,NaN,-6.600223,0.666586,7.326539,0.072658,-0.089750,0.070233,-0.009652,-0.001145,0.008393,0.428728,-0.296367,0.194089,0.831077,5.224261,41.225893,127.390390
12114,NaN,-6.576995,0.660014,7.321459,0.069541,-0.075460,0.050664,-0.008111,-0.005956,0.009374,0.428733,-0.296330,0.194083,0.831089,5.225762,41.221617,127.390913
12115,NaN,-6.576565,0.659829,7.321862,0.069826,-0.075584,0.050661,-0.012455,-0.004232,0.007883,0.428744,-0.296303,0.194057,0.831098,5.223660,41.217222,127.389190
12116,NaN,-6.553296,0.652925,7.316845,0.066719,-0.061300,0.031093,-0.012455,-0.004231,0.007883,0.428749,-0.296284,0.194036,0.831108,5.222010,41.213957,127.388442
12117,NaN,-6.553011,0.652798,7.317111,0.067006,-0.061423,0.031090,-0.008386,-0.001828,0.011509,0.428749,-0.296254,0.194037,0.831118,5.224162,41.210745,127.389637
12118,NaN,-6.526371,0.703400,7.369038,-0.003742,-0.043761,0.055903,-0.014334,0.002379,0.012995,0.428720,-0.296263,0.194029,0.831132,5.224327,41.211046,127.393727
12119,NaN,-6.514536,0.701407,7.422175,-0.024654,-0.004955,0.087778,-0.011739,0.003340,0.015269,0.428694,-0.296258,0.194033,0.831146,5.226673,41.210586,127.398131
12120,NaN,-6.537642,0.708159,7.427356,-0.021123,-0.019096,0.107346,-0.012222,0.005340,0.019168,0.428636,-0.296269,0.194046,0.831169,5.231151,41.212216,127.407563
12121,NaN,-6.552587,0.735838,7.442536,-0.041654,-0.034166,0.130466,-0.010605,0.006580,0.022715,0.428578,-0.296268,0.194073,0.831193,5.238016,41.213216,127.417840
12122,NaN,-6.536320,0.698107,7.448340,-0.019111,0.000711,0.121508,-0.007879,0.003618,0.020660,0.428533,-0.296258,0.194109,0.831211,5.245843,41.213735,127.426704
12123,NaN,-6.546915,0.689470,7.416163,0.003848,-0.018498,0.103793,-0.014724,0.014162,0.025990,0.428448,-0.296294,0.194140,0.831235,5.252334,41.218887,127.439994
12124,NaN,-6.526886,0.694754,7.388264,-0.000698,-0.024046,0.070064,-0.014305,0.018423,0.022469,0.428377,-0.296355,0.194184,0.831240,5.258060,41.227628,127.450668
12125,NaN,-6.608831,0.716702,7.349929,0.030688,-0.105758,0.096886,-0.019130,0.022157,0.024880,0.428282,-0.296435,0.194212,0.831253,5.261845,41.237398,127.463679
12126,NaN,-6.677025,0.724731,7.386435,0.042297,-0.128492,0.169748,-0.029227,0.017928,0.020170,0.428178,-0.296536,0.194183,0.831278,5.257733,41.246318,127.475260
12127,NaN,-6.662433,0.683017,7.279838,0.103909,-0.157500,0.077457,-0.021821,0.011436,0.013511,0.428138,-0.296588,0.194160,0.831286,5.253799,41.250569,127.478898
12128,NaN,-6.715770,0.743206,7.315198,0.065739,-0.201531,0.143271,-0.019984,0.023396,0.011726,0.428084,-0.296698,0.194171,0.831272,5.251018,41.262914,127.483546
12129,NaN,-6.679605,0.709005,7.293127,0.083542,-0.172495,0.100576,-0.009356,0.015651,0.005634,0.428090,-0.296748,0.194197,0.831244,5.250477,41.269983,127.481498
12130,NaN,-6.605909,0.641608,7.250149,0.118825,-0.114101,0.015192,-0.001289,0.022983,0.006750,0.428091,-0.296819,0.194280,0.831199,5.256013,41.282353,127.481571
12131,NaN,-6.566168,0.665371,7.285256,0.069022,-0.081591,0.016902,0.004515,0.018970,0.003068,0.428126,-0.296856,0.194367,0.831148,5.262287,41.291450,127.477809
12132,NaN,-6.529258,0.711738,7.277964,0.016138,-0.088527,-0.009707,-0.000485,0.002001,0.003901,0.428160,-0.296841,0.194404,0.831127,5.265839,41.292003,127.474212
12133,NaN,-6.542343,0.727444,7.314811,-0.002913,-0.083737,0.027580,-0.009025,0.005266,0.003112,0.428188,-0.296850,0.194405,0.831109,5.263744,41.293280,127.469524
12134,NaN,-6.552628,0.797416,7.297108,-0.050718,-0.138930,0.025947,-0.007066,0.004706,0.000567,0.428224,-0.296863,0.194416,0.831083,5.262001,41.295514,127.463547
12135,NaN,-6.569462,0.755639,7.276587,-0.002159,-0.137649,0.018823,-0.009519,0.003546,0.000484,0.428263,-0.296869,0.194408,0.831063,5.258226,41.295948,127.456743
12136,NaN,-6.588919,0.739271,7.324940,0.004371,-0.112144,0.066712,-0.001818,0.000356,0.004740,0.428275,-0.296854,0.194429,0.831057,5.261172,41.295515,127.456222
12137,NaN,-6.521936,0.731253,7.287379,-0.006754,-0.089408,-0.006147,0.002382,-0.001175,0.004037,0.428322,-0.296811,0.194465,0.831040,5.265779,41.293070,127.451786
12138,NaN,-6.551311,0.706272,7.304084,0.022446,-0.083048,0.024016,-0.000344,0.001796,0.006096,0.428359,-0.296788,0.194510,0.831018,5.270621,41.293217,127.448327
12139,NaN,-6.597174,0.719595,7.314702,0.029306,-0.111620,0.063145,-0.002938,0.000841,0.003818,0.428397,-0.296765,0.194528,0.831003,5.272163,41.291933,127.443866
12140,NaN,-6.626641,0.693634,7.331420,0.058477,-0.105267,0.093307,-0.014567,0.001433,-0.001877,0.428428,-0.296785,0.194494,0.830987,5.264650,41.292443,127.436761
12141,NaN,-6.631532,0.649407,7.364268,0.085976,-0.065060,0.118061,-0.008540,0.003268,-0.000788,0.428474,-0.296789,0.194487,0.830964,5.260787,41.292785,127.428972
12142,NaN,-6.600751,0.662828,7.368791,0.058727,-0.051448,0.102061,-0.008812,0.007399,0.001354,0.428477,-0.296823,0.194486,0.830950,5.258175,41.296575,127.427130
12143,NaN,-6.590089,0.657682,7.309885,0.076787,-0.076327,0.050604,-0.009660,0.003754,-0.001710,0.428525,-0.296833,0.194474,0.830925,5.253229,41.297243,127.418674
12144,NaN,-6.609810,0.640670,7.358051,0.083357,-0.050834,0.098490,-0.010427,0.006165,-0.002196,0.428553,-0.296866,0.194464,0.830901,5.248042,41.300509,127.412491
12145,NaN,-6.641361,0.625671,7.352964,0.111070,-0.064528,0.114483,-0.007842,0.003399,-0.006449,0.428624,-0.296874,0.194452,0.830865,5.241745,41.301222,127.400411
12146,NaN,-6.687373,0.637822,7.363548,0.117860,-0.092920,0.153610,-0.008055,0.001269,-0.004690,0.428684,-0.296879,0.194444,0.830833,5.236680,41.301746,127.390137
12147,NaN,-6.697266,0.627712,7.332046,0.140731,-0.112223,0.135875,-0.002956,-0.006598,-0.009244,0.428784,-0.296838,0.194427,0.830801,5.231323,41.296900,127.375239
12148,NaN,-6.673757,0.620417,7.327316,0.137634,-0.097904,0.116309,-0.001423,-0.011419,-0.008272,0.428861,-0.296787,0.194406,0.830784,5.227470,41.290606,127.364033
12149,NaN,-6.671342,0.687949,7.363743,0.068765,-0.114222,0.146580,-0.001765,-0.004746,-0.012275,0.428973,-0.296754,0.194393,0.830741,5.221365,41.286972,127.346965
12150,NaN,-6.594160,0.687984,7.358142,0.034995,-0.072111,0.091458,0.000547,-0.003380,-0.014385,0.429081,-0.296735,0.194391,0.830693,5.215931,41.285367,127.330385
12151,NaN,-6.477626,0.722723,7.367470,-0.050244,-0.017230,0.023916,-0.001412,-0.002820,-0.011839,0.429189,-0.296709,0.194385,0.830647,5.210338,41.282808,127.313783
12152,NaN,-6.390110,0.638785,7.288330,0.004496,0.036139,-0.098781,0.002111,0.012712,-0.014018,0.429304,-0.296746,0.194434,0.830563,5.207082,41.290388,127.295683
12153,NaN,-6.526034,0.731822,7.264847,-0.004447,-0.109490,-0.020309,-0.001799,0.022430,-0.012494,0.429390,-0.296826,0.194480,0.830479,5.202087,41.302268,127.280328
12154,NaN,-6.607044,0.834574,7.352801,-0.082889,-0.163289,0.105967,-0.008885,0.009940,-0.004790,0.429435,-0.296872,0.194484,0.830439,5.196796,41.307785,127.271431
12155,NaN,-6.576219,0.767794,7.343161,-0.039287,-0.113838,0.073853,-0.011354,-0.003535,-0.007838,0.429513,-0.296860,0.194440,0.830413,5.187473,41.304606,127.257815
12156,NaN,-6.552865,0.760314,7.338313,-0.042345,-0.099535,0.054291,-0.009256,-0.009182,0.001908,0.429547,-0.296820,0.194410,0.830417,5.184369,41.298779,127.252897
12157,NaN,-6.565058,0.695984,7.361702,0.009391,-0.058749,0.075462,-0.007994,-0.009874,0.005023,0.429582,-0.296763,0.194386,0.830425,5.183132,41.291315,127.248614
12158,NaN,-6.564501,0.695896,7.362207,0.009573,-0.058666,0.075462,-0.008755,-0.003747,0.011069,0.429559,-0.296741,0.194378,0.830446,5.185026,41.288337,127.252880
12159,NaN,-6.555985,0.636822,7.358301,0.056473,-0.023486,0.062906,-0.010855,-0.002981,0.011422,0.429557,-0.296712,0.194367,0.830460,5.185670,41.284476,127.253932
12160,NaN,-6.611686,0.640437,7.337442,0.085743,-0.071068,0.084293,-0.014843,0.000683,0.010369,0.429533,-0.296720,0.194347,0.830475,5.184118,41.284124,127.256833
12161,NaN,-6.663930,0.621303,7.359541,0.118288,-0.079235,0.133998,-0.015541,0.000551,0.016030,0.429501,-0.296711,0.194330,0.830498,5.184546,41.282039,127.261628
12162,NaN,-6.609692,0.628763,7.359185,0.087863,-0.051291,0.098449,-0.011835,-0.002698,0.012696,0.429495,-0.296690,0.194327,0.830510,5.185952,41.279415,127.263399
12163,NaN,-6.601064,0.649456,7.369701,0.064009,-0.052024,0.102025,-0.013866,-0.004475,0.019195,0.429458,-0.296653,0.194311,0.830546,5.188696,41.274300,127.270249
12164,NaN,-6.582459,0.679381,7.411870,0.017562,-0.033318,0.123345,-0.013441,-0.000210,0.015680,0.429433,-0.296643,0.194310,0.830562,5.190752,41.272968,127.274557
12165,NaN,-6.565915,0.720558,7.432278,-0.030431,-0.034631,0.130505,-0.019105,0.003604,0.021564,0.429370,-0.296649,0.194293,0.830597,5.192047,41.272339,127.283763
12166,NaN,-6.522219,0.718929,7.399745,-0.038331,-0.025905,0.077220,-0.019023,0.009662,0.024149,0.429278,-0.296687,0.194296,0.830630,5.195334,41.276124,127.297154
12167,NaN,-6.524722,0.730323,7.377581,-0.039655,-0.045836,0.063060,-0.019717,0.014416,0.019716,0.429211,-0.296742,0.194297,0.830645,5.195846,41.281760,127.305704
12168,NaN,-6.510938,0.782981,7.375591,-0.089330,-0.066774,0.056065,-0.019567,0.017930,0.028449,0.429095,-0.296810,0.194322,0.830675,5.201399,41.289947,127.322550
12169,NaN,-6.497389,0.756409,7.359019,-0.068151,-0.052049,0.032922,-0.018308,0.017241,0.031566,0.428979,-0.296861,0.194353,0.830709,5.208791,41.296579,127.340297
12170,NaN,-6.522981,0.774910,7.341967,-0.066309,-0.086000,0.038325,-0.023217,0.014938,0.031400,0.428856,-0.296921,0.194366,0.830748,5.213794,41.303140,127.358032
12171,NaN,-6.543833,0.757176,7.277731,-0.020998,-0.124590,0.002835,-0.016919,0.012635,0.030344,0.428752,-0.296951,0.194391,0.830785,5.221164,41.307204,127.374537
12172,NaN,-6.505271,0.712710,7.277645,-0.001513,-0.075610,-0.025711,-0.021334,0.012051,0.032809,0.428622,-0.296995,0.194405,0.830833,5.227731,41.312049,127.394027
12173,NaN,-6.539117,0.710875,7.250349,0.024519,-0.109216,-0.023897,-0.019913,0.019757,0.034567,0.428489,-0.297058,0.194439,0.830872,5.235836,41.319954,127.414240
12174,NaN,-6.638225,0.706099,7.282023,0.063480,-0.145755,0.064924,-0.018881,0.013219,0.032901,0.428366,-0.297099,0.194466,0.830914,5.243818,41.325190,127.433274
12175,NaN,-6.614096,0.688922,7.297668,0.062154,-0.111813,0.059520,-0.016732,0.006189,0.032154,0.428260,-0.297100,0.194480,0.830965,5.251916,41.325475,127.450712
12176,NaN,-6.637011,0.696266,7.302914,0.065597,-0.125987,0.079081,-0.015980,0.000060,0.026094,0.428175,-0.297090,0.194479,0.831012,5.257561,41.323732,127.464746
12177,NaN,-6.597538,0.651803,7.303689,0.085189,-0.077242,0.050528,-0.011020,-0.003897,0.025870,0.428114,-0.297043,0.194486,0.831059,5.265312,41.318590,127.476704
12178,NaN,-6.604129,0.620487,7.314897,0.111196,-0.056790,0.061099,-0.009929,0.006762,0.017093,0.428072,-0.297056,0.194513,0.831070,5.270320,41.321167,127.483836
12179,NaN,-6.729485,0.737905,7.414612,0.039201,-0.139031,0.226540,-0.008544,0.002140,0.015861,0.428050,-0.297039,0.194528,0.831083,5.274748,41.319995,127.488612
12180,NaN,-6.696140,0.740760,7.441374,0.013690,-0.105450,0.224730,-0.008450,-0.010387,0.015064,0.428034,-0.296979,0.194520,0.831115,5.278661,41.312804,127.493307
12181,NaN,-6.605985,0.646548,7.384498,0.070246,-0.032695,0.116153,-0.003676,-0.007879,0.013042,0.428040,-0.296913,0.194530,0.831133,5.283999,41.306064,127.495237
12182,NaN,-6.592424,0.710980,7.362249,0.018855,-0.073354,0.095013,-0.002305,0.002364,0.008655,0.428046,-0.296899,0.194564,0.831127,5.288797,41.306500,127.496115
12183,NaN,-6.547134,0.697932,7.351118,0.012683,-0.044973,0.055890,-0.004370,0.011741,0.005457,0.428064,-0.296923,0.194602,0.831100,5.290844,41.311354,127.493663
12184,NaN,-6.556565,0.677311,7.339890,0.037078,-0.044344,0.052298,-0.004693,0.018419,0.001466,0.428104,-0.296982,0.194661,0.831045,5.291801,41.321313,127.487133
12185,NaN,-6.591928,0.765438,7.305605,-0.009488,-0.133474,0.056121,-0.011081,0.014687,-0.000067,0.428132,-0.297038,0.194669,0.831009,5.287368,41.328139,127.480691
