// General information: 
//  MT Manager version: 2019.0.1 
//  XDA version: 2019.0.1 build 2740 rev 84096 built on 2019-01-30
// Device information: 
//  DeviceId: 00B4381A
//  ProductCode: MTW2-3A7G6
//  Firmware Version: 4.3.4
//  Hardware Version: 1.1.0
// Device settings: 
//  Filter Profile: human(46.1)
//  Option Flags: Orientation Smoother Disabled, AHS Disabled, ICC Disabled
// Coordinate system: ENU
PacketCounter,SampleTimeFine,Acc_X,Acc_Y,Acc_Z,FreeAcc_E,FreeAcc_N,FreeAcc_U,Gyr_X,Gyr_Y,Gyr_Z,Quat_q0,Quat_q1,Quat_q2,Quat_q3,Roll,Pitch,Yaw
16680,NaN,-4.090895,6.258278,7.045807,0.531345,-0.592984,0.429889,-0.698051,-0.234354,-0.237255,-0.366075,0.030748,-0.374810,-0.851212,40.641688,19.072479,140.578232
16681,NaN,-3.332845,5.864415,6.523344,0.075928,-0.370857,-0.436683,-0.669697,-0.463738,-0.214199,-0.367811,0.030391,-0.371116,-0.852094,40.170787,18.953044,140.290142
16682,NaN,-2.903693,5.560313,6.170665,-0.143399,-0.270111,-1.018842,-0.576609,-0.542187,-0.190651,-0.369602,0.029488,-0.367678,-0.852841,39.748477,18.789164,139.983819
16683,NaN,-2.741551,5.524753,6.271877,-0.232905,-0.148282,-1.020706,-0.466072,-0.520271,-0.172143,-0.371283,0.028436,-0.364744,-0.853406,39.395820,18.625489,139.695951
16684,NaN,-2.798543,5.725030,6.582465,-0.265513,-0.126243,-0.655722,-0.370518,-0.457555,-0.122613,-0.372648,0.027388,-0.362342,-0.853868,39.114521,18.470937,139.456564
16685,NaN,-3.147270,6.085361,7.093250,-0.145021,-0.227170,0.045218,-0.325220,-0.396686,-0.088415,-0.373760,0.026448,-0.360244,-0.854300,38.872027,18.329348,139.257233
16686,NaN,-3.166488,6.337073,7.588557,-0.197705,-0.084341,0.566376,-0.352801,-0.290340,-0.108149,-0.374760,0.026054,-0.358227,-0.854722,38.624439,18.242328,139.089623
16687,NaN,-4.782422,5.973672,7.335325,1.118603,-1.118507,0.668761,-0.352930,-0.159306,-0.292517,-0.376309,0.026546,-0.356424,-0.854780,38.364768,18.278335,138.884533
16688,NaN,-5.537208,5.634711,7.208847,1.809501,-1.548573,0.613499,-0.366851,-0.263148,-0.540521,-0.379100,0.027067,-0.354335,-0.854399,38.048057,18.355277,138.522864
16689,NaN,-5.561085,6.001508,7.221281,1.526418,-1.772614,0.846485,-0.356755,-0.492559,-0.746837,-0.383172,0.026951,-0.351816,-0.853626,37.678435,18.398498,137.977160
16690,NaN,-4.746749,6.078690,6.844068,0.754493,-1.581426,0.348641,-0.361883,-0.662500,-0.846454,-0.387958,0.026296,-0.348930,-0.852669,37.271142,18.396106,137.321002
16691,NaN,-4.561886,6.159000,6.838800,0.510848,-1.558679,0.327445,-0.313936,-0.702349,-0.867646,-0.392897,0.025415,-0.346155,-0.851565,36.883411,18.378383,136.640130
16692,NaN,-4.438979,6.096868,6.389918,0.310076,-1.776595,-0.093918,-0.298402,-0.702862,-0.838331,-0.397701,0.024449,-0.343439,-0.850462,36.509594,18.346211,135.973571
16693,NaN,-4.047731,5.540598,5.914579,0.266689,-1.599397,-0.900052,-0.241741,-0.594910,-0.823165,-0.402250,0.023804,-0.341170,-0.849253,36.182857,18.354966,135.353237
16694,NaN,-3.807082,5.518676,6.083575,0.113710,-1.356274,-0.862438,-0.122248,-0.470481,-0.778145,-0.406400,0.023369,-0.339656,-0.847896,35.945200,18.403141,134.798995
16695,NaN,-4.770141,6.616844,7.555391,0.293421,-1.636274,1.180817,-0.055599,-0.537083,-0.658190,-0.410154,0.022314,-0.338297,-0.846659,35.756723,18.378503,134.279688
16696,NaN,-5.248532,7.386383,9.011265,0.392338,-1.499316,2.872182,-0.221286,-1.007805,-0.425865,-0.413692,0.019210,-0.335288,-0.846210,35.458869,18.054666,133.709634
16697,NaN,-4.114402,6.671045,8.837697,0.114673,-0.640245,1.981837,-0.568858,-1.451925,-0.222806,-0.417063,0.014609,-0.329897,-0.846766,34.951122,17.452596,133.089297
16698,NaN,-1.282101,4.973948,8.044792,-0.708639,1.468289,-0.408279,-0.847297,-1.439140,-0.161328,-0.420105,0.010536,-0.323333,-0.847854,34.302667,16.830049,132.512092
16699,NaN,-0.280134,4.146759,7.893326,-0.804643,2.328463,-1.238985,-0.937295,-1.054950,-0.122875,-0.422333,0.008221,-0.317180,-0.849096,33.652760,16.371997,132.091394
16700,NaN,-0.482555,4.249224,8.028668,-0.735441,2.108798,-0.994556,-0.954513,-0.734654,-0.038701,-0.423676,0.007166,-0.311617,-0.850495,33.038335,16.035844,131.823824
16701,NaN,-0.742573,3.991054,7.568300,-0.527722,1.699388,-1.410786,-0.932099,-0.557541,0.099281,-0.424143,0.006602,-0.306520,-0.852117,32.473859,15.739735,131.686502
16702,NaN,-1.078334,3.490829,6.927676,-0.135345,1.268774,-2.085280,-0.814923,-0.453984,0.201896,-0.424008,0.006072,-0.302137,-0.853753,32.000678,15.461164,131.636657
16703,NaN,-2.104552,4.089801,7.023926,0.089939,0.242090,-1.420778,-0.611290,-0.375791,0.127813,-0.424069,0.005555,-0.298781,-0.854906,31.641434,15.242580,131.576045
16704,NaN,-2.544260,4.090949,7.087901,0.372319,-0.097345,-1.251196,-0.481152,-0.392551,0.066366,-0.424417,0.004784,-0.295941,-0.855725,31.347946,15.033990,131.480510
16705,NaN,-2.615153,4.357561,7.417300,0.291472,-0.148685,-0.827338,-0.348420,-0.282915,-0.040798,-0.425062,0.004358,-0.293895,-0.856113,31.125577,14.910427,131.365366
16706,NaN,-3.081734,4.447022,7.843871,0.615360,-0.343331,-0.309909,-0.220521,-0.196020,-0.103247,-0.425847,0.004124,-0.292581,-0.856174,30.975609,14.847723,131.245573
16707,NaN,-2.674636,4.406378,8.328033,0.493610,0.191951,-0.032839,-0.165855,-0.214060,-0.108669,-0.426683,0.003704,-0.291460,-0.856142,30.854860,14.777443,131.117676
16708,NaN,-1.444784,4.584195,8.671010,-0.342704,1.161905,0.027088,-0.101234,-0.065052,-0.092048,-0.427230,0.003761,-0.290935,-0.856047,30.785121,14.775429,131.043662
16709,NaN,-1.904353,5.422239,10.011479,-0.354452,1.104743,1.672556,-0.127724,0.066621,-0.097651,-0.427609,0.004445,-0.290576,-0.855977,30.709388,14.839699,131.006613
16710,NaN,-1.827187,5.699467,10.509481,-0.514734,1.272569,2.203435,-0.328366,0.030950,-0.098532,-0.428039,0.005407,-0.289283,-0.856195,30.515984,14.886657,130.958248
16711,NaN,-1.563658,5.136493,10.055013,-0.417905,1.473715,1.482670,-0.523808,-0.006005,-0.096112,-0.428504,0.006625,-0.287069,-0.856698,30.207623,14.914138,130.899757
16712,NaN,-1.313294,4.639717,9.649697,-0.357309,1.649652,0.841838,-0.648103,-0.020186,-0.131126,-0.429131,0.008099,-0.284293,-0.857297,29.822616,14.944577,130.818969
16713,NaN,-1.564245,4.870650,9.395221,-0.487538,1.185854,0.807849,-0.740291,-0.072084,-0.156945,-0.429934,0.009583,-0.281000,-0.857965,29.376867,14.955353,130.709343
16714,NaN,-1.800325,4.851859,9.396656,-0.392301,0.967638,0.863823,-0.867487,-0.087067,-0.205435,-0.430953,0.011346,-0.277127,-0.858692,28.851062,14.971798,130.570257
16715,NaN,-2.204744,4.430778,9.381473,0.093733,0.801783,0.763329,-0.963584,-0.097614,-0.299643,-0.432375,0.013398,-0.272801,-0.859332,28.256110,15.006635,130.378826
16716,NaN,-2.567170,4.288768,9.074737,0.273884,0.390140,0.536537,-1.027355,-0.129998,-0.416678,-0.434328,0.015611,-0.268122,-0.859782,27.606645,15.055264,130.116722
16717,NaN,-2.770598,4.013690,8.696367,0.437762,0.125378,0.147446,-1.033131,-0.176479,-0.565049,-0.436967,0.017832,-0.263290,-0.859896,26.929175,15.115459,129.762972
16718,NaN,-3.405745,3.803653,8.443665,0.846191,-0.431795,0.008653,-0.989388,-0.277873,-0.700502,-0.440309,0.019703,-0.258410,-0.859630,26.251087,15.155174,129.309702
16719,NaN,-3.862295,3.812928,8.142902,0.969764,-0.991280,-0.125668,-0.907060,-0.483516,-0.843245,-0.444521,0.020689,-0.253398,-0.858931,25.585551,15.118852,128.726276
16720,NaN,-3.490793,4.087933,7.291793,0.290833,-1.309193,-0.853475,-0.794532,-0.757289,-0.967032,-0.449601,0.020408,-0.248244,-0.857798,24.951029,14.965245,128.007966
16721,NaN,-1.807917,3.750965,7.069843,-0.546082,-0.041016,-1.626078,-0.631043,-0.891533,-1.009336,-0.455021,0.019233,-0.243465,-0.856336,24.398108,14.744090,127.235829
16722,NaN,-0.677440,4.368247,8.026360,-1.552721,0.901871,-0.827234,-0.523926,-0.684392,-0.960190,-0.459966,0.018642,-0.239615,-0.854791,23.929567,14.613643,126.543291
16723,NaN,-0.660800,4.186547,7.956216,-1.466547,0.928322,-0.966647,-0.508182,-0.525912,-0.790293,-0.463981,0.018485,-0.236199,-0.853575,23.504052,14.521378,125.981879
16724,NaN,-0.851412,3.991031,8.243528,-1.181990,0.954440,-0.740712,-0.447455,-0.371916,-0.596330,-0.466980,0.018619,-0.233417,-0.852701,23.149976,14.463011,125.562920
16725,NaN,-1.771057,4.091229,8.956637,-0.644723,0.441819,0.161529,-0.445949,-0.393953,-0.430557,-0.469291,0.018455,-0.230595,-0.852204,22.818255,14.352550,125.229642
16726,NaN,-2.474826,3.732328,9.399093,0.088785,0.176570,0.596854,-0.480387,-0.465864,-0.341942,-0.471298,0.017970,-0.227469,-0.851947,22.476121,14.183573,124.929256
16727,NaN,-2.908850,3.611367,9.802733,0.469974,-0.017752,1.021296,-0.538008,-0.536938,-0.312733,-0.473248,0.017277,-0.223922,-0.851820,22.101847,13.967732,124.630237
16728,NaN,-1.615224,3.241790,9.605442,-0.010001,1.032728,0.400812,-0.563103,-0.498351,-0.245559,-0.474860,0.016739,-0.220369,-0.851860,21.725979,13.757164,124.378251
16729,NaN,-1.761445,3.043693,9.450054,0.173081,0.888562,0.229749,-0.477119,-0.256441,-0.189948,-0.475970,0.016960,-0.217754,-0.851908,21.419935,13.661589,124.210577
16730,NaN,-2.194459,3.660589,9.770071,-0.073137,0.348502,0.842961,-0.445109,-0.092127,-0.121841,-0.476611,0.017736,-0.215676,-0.852063,21.149758,13.639489,124.116128
16731,NaN,-2.826323,3.816810,9.516833,0.060606,-0.358176,0.817180,-0.458085,-0.055304,-0.069810,-0.476986,0.018635,-0.213625,-0.852351,20.880474,13.624615,124.058146
16732,NaN,-3.298875,4.078562,9.630510,0.081055,-0.846732,1.120755,-0.510544,-0.095611,-0.103963,-0.477542,0.019532,-0.211258,-0.852609,20.575075,13.596132,123.973069
16733,NaN,-3.263178,4.259496,9.373167,-0.175927,-1.041980,0.935839,-0.586800,-0.247658,-0.181642,-0.478578,0.020040,-0.208186,-0.852772,20.208268,13.499966,123.814009
16734,NaN,-2.338146,4.278909,9.250204,-0.757418,-0.407822,0.608529,-0.630150,-0.410471,-0.218910,-0.479933,0.020001,-0.204540,-0.852894,19.805256,13.323462,123.602306
16735,NaN,-2.463364,3.712460,9.081221,-0.293132,-0.379528,0.291201,-0.671488,-0.444742,-0.296042,-0.481638,0.019988,-0.200619,-0.852864,19.367886,13.140826,123.342554
16736,NaN,-3.042106,3.545898,8.961463,0.090066,-0.889708,0.253854,-0.661262,-0.572043,-0.398449,-0.483900,0.019515,-0.196427,-0.852571,18.919636,12.907520,123.003034
16737,NaN,-3.129130,3.497907,8.995467,0.137663,-1.011070,0.282022,-0.658117,-0.760031,-0.501821,-0.486774,0.018329,-0.191776,-0.852020,18.454896,12.587882,122.572846
16738,NaN,-2.737839,3.271970,8.965431,0.075104,-0.692591,0.091564,-0.674687,-0.887879,-0.605619,-0.490194,0.016744,-0.186728,-0.851212,17.966348,12.214417,122.064743
16739,NaN,-2.230124,3.070892,9.046816,-0.044848,-0.252633,-0.005447,-0.656701,-0.905953,-0.659117,-0.493839,0.015083,-0.181700,-0.850224,17.485357,11.835865,121.527499
16740,NaN,-1.721682,3.103967,8.973155,-0.378868,0.040357,-0.170571,-0.630055,-0.855756,-0.634168,-0.497316,0.013550,-0.176904,-0.849234,17.028326,11.476620,121.016844
16741,NaN,-1.414294,2.898905,8.985941,-0.389234,0.309822,-0.278386,-0.594632,-0.762985,-0.576734,-0.500450,0.012265,-0.172485,-0.848321,16.604687,11.154114,120.557463
16742,NaN,-1.300413,2.679143,9.004664,-0.285300,0.433126,-0.342558,-0.568826,-0.675946,-0.524031,-0.503274,0.011245,-0.168393,-0.847486,16.207086,10.868488,120.144764
16743,NaN,-1.111553,2.476559,8.725652,-0.273962,0.532500,-0.694195,-0.513727,-0.603731,-0.479292,-0.505838,0.010348,-0.164715,-0.846694,15.850602,10.612227,119.771042
16744,NaN,-1.124331,2.365807,8.286524,-0.259330,0.388017,-1.134576,-0.392810,-0.506419,-0.398539,-0.507977,0.009497,-0.161797,-0.845985,15.575924,10.395754,119.459726
16745,NaN,-1.311926,2.485594,8.322200,-0.281227,0.143999,-1.034397,-0.271923,-0.391915,-0.297790,-0.509597,0.008734,-0.159681,-0.845421,15.385208,10.224967,119.223859
16746,NaN,-1.454160,2.609965,8.711064,-0.272907,0.045717,-0.607662,-0.188781,-0.277542,-0.199840,-0.510713,0.008172,-0.158214,-0.845029,15.255472,10.102798,119.061146
16747,NaN,-1.669761,2.793886,9.220389,-0.261944,-0.101864,-0.038720,-0.156568,-0.193721,-0.136112,-0.511492,0.007828,-0.157094,-0.844770,15.152756,10.016428,118.947398
16748,NaN,-2.122916,2.925045,9.390042,-0.146568,-0.516753,0.234551,-0.156296,-0.052469,-0.164852,-0.512282,0.008106,-0.156340,-0.844428,15.051497,10.012930,118.839007
16749,NaN,-2.396283,3.131983,10.248297,-0.091953,-0.616250,1.150468,-0.230946,-0.012783,-0.186327,-0.513126,0.008758,-0.155368,-0.844088,14.906108,10.033931,118.724607
16750,NaN,-1.300342,3.055630,10.108476,-0.597482,0.312074,0.805906,-0.390507,0.008761,-0.133546,-0.513724,0.009870,-0.153783,-0.844003,14.675258,10.059193,118.642934
16751,NaN,-0.970616,2.254990,9.476352,-0.185404,0.755152,-0.054432,-0.407100,0.117391,-0.074146,-0.513982,0.011432,-0.152405,-0.844076,14.443348,10.134890,118.610631
16752,NaN,-1.157604,1.962946,8.998244,0.054106,0.586559,-0.549075,-0.331890,0.194806,-0.015818,-0.513940,0.013089,-0.151550,-0.844232,14.262336,10.246085,118.621971
16753,NaN,-1.073303,2.149470,8.638473,-0.226793,0.489638,-0.862595,-0.227538,0.275518,0.053540,-0.513547,0.014758,-0.151343,-0.844481,14.150105,10.391286,118.683836
16754,NaN,-1.391930,2.461470,8.822858,-0.349830,0.147470,-0.555533,-0.163468,0.360050,0.101851,-0.512890,0.016591,-0.151631,-0.844794,14.081939,10.577903,118.784695
16755,NaN,-1.719216,2.712490,9.264691,-0.385000,-0.097518,-0.015243,-0.191515,0.435223,0.083066,-0.512251,0.018820,-0.151990,-0.845070,13.998359,10.808227,118.885404
16756,NaN,-2.453064,2.857107,9.544193,-0.166270,-0.683618,0.423374,-0.271982,0.508660,-0.016745,-0.511967,0.021649,-0.152188,-0.845139,13.859942,11.094166,118.939500
16757,NaN,-2.407680,2.791671,9.718233,-0.163065,-0.536969,0.566093,-0.401801,0.522823,-0.114577,-0.512065,0.024938,-0.151857,-0.845049,13.636785,11.400656,118.939301
16758,NaN,-2.428442,2.317532,9.404095,0.161034,-0.413103,0.162696,-0.479813,0.504822,-0.181115,-0.512444,0.028406,-0.151145,-0.844837,13.360606,11.706832,118.897323
16759,NaN,-2.458541,1.962278,9.145359,0.394698,-0.338546,-0.155472,-0.452845,0.442915,-0.195178,-0.512925,0.031547,-0.150384,-0.844569,13.096466,11.979356,118.837585
16760,NaN,-2.485357,1.739549,8.921804,0.524721,-0.313046,-0.409068,-0.378441,0.357316,-0.202990,-0.513512,0.034149,-0.149715,-0.844230,12.870691,12.205611,118.760801
16761,NaN,-2.490925,1.788682,9.131899,0.458264,-0.264366,-0.194185,-0.308974,0.300532,-0.196677,-0.514123,0.036320,-0.149192,-0.843860,12.683756,12.398187,118.679457
16762,NaN,-2.768239,1.430306,9.209001,0.870461,-0.312803,-0.134932,-0.245525,0.282705,-0.185563,-0.514710,0.038252,-0.148894,-0.843470,12.533356,12.580048,118.601464
16763,NaN,-2.643611,1.364259,9.697441,0.879190,-0.020470,0.292595,-0.190854,0.276503,-0.159374,-0.515198,0.039990,-0.148811,-0.843106,12.417098,12.753998,118.537314
16764,NaN,-2.255585,1.375222,10.262087,0.704293,0.491743,0.749100,-0.180565,0.316132,-0.124883,-0.515513,0.041850,-0.148884,-0.842810,12.311918,12.946797,118.497457
16765,NaN,-2.362919,1.541440,10.658509,0.604560,0.466879,1.186386,-0.230610,0.313900,-0.096698,-0.515698,0.043805,-0.148744,-0.842622,12.181529,13.134327,118.473085
16766,NaN,-2.315999,1.327454,10.575541,0.724476,0.589611,1.054483,-0.295471,0.271908,-0.089486,-0.515867,0.045748,-0.148225,-0.842507,12.013451,13.297916,118.447162
16767,NaN,-2.031217,1.273401,9.979850,0.554187,0.688823,0.412920,-0.316152,0.225779,-0.088626,-0.516060,0.047545,-0.147493,-0.842417,11.831809,13.434611,118.415613
16768,NaN,-1.700599,1.856088,9.517174,-0.185479,0.592896,0.012161,-0.317775,0.214123,-0.084775,-0.516244,0.049299,-0.146730,-0.842337,11.649592,13.565074,118.384402
16769,NaN,-1.596301,2.025066,9.602488,-0.417362,0.642170,0.100441,-0.354617,0.264149,-0.072063,-0.516326,0.051342,-0.145941,-0.842302,11.449165,13.721158,118.365933
16770,NaN,-1.814344,1.868534,9.081107,-0.254248,0.374802,-0.376348,-0.359511,0.287016,-0.082599,-0.516432,0.053508,-0.145190,-0.842232,11.244963,13.892113,118.343480
16771,NaN,-1.370257,2.052991,9.097965,-0.664556,0.693118,-0.434888,-0.342882,0.353084,-0.124592,-0.516668,0.055933,-0.144661,-0.842021,11.045772,14.103610,118.303595
16772,NaN,-1.432090,1.724700,8.916315,-0.399965,0.742486,-0.657651,-0.337256,0.404961,-0.128044,-0.516880,0.058570,-0.144295,-0.841774,10.850623,14.345702,118.266740
16773,NaN,-1.227787,1.954485,8.677655,-0.751363,0.768199,-0.897851,-0.265803,0.422356,-0.098823,-0.516973,0.061071,-0.144275,-0.841543,10.700407,14.593542,118.247987
16774,NaN,-1.435615,1.947345,9.001951,-0.672574,0.719218,-0.543467,-0.221791,0.460632,-0.059385,-0.516882,0.063594,-0.144557,-0.841363,10.582452,14.859523,118.255775
16775,NaN,-1.643278,1.953831,9.093549,-0.614827,0.597128,-0.406535,-0.192165,0.461864,-0.001963,-0.516555,0.065995,-0.144976,-0.841307,10.489744,15.118747,118.296732
16776,NaN,-1.817028,2.028605,9.407083,-0.623993,0.548321,-0.054623,-0.179186,0.509251,0.037896,-0.516028,0.068542,-0.145592,-0.841320,10.412366,15.402036,118.365678
16777,NaN,-2.278785,1.942958,9.940805,-0.355944,0.400708,0.555533,-0.199852,0.576459,0.040706,-0.515428,0.071413,-0.146290,-0.841328,10.325837,15.721814,118.443142
16778,NaN,-3.233065,1.642849,9.862820,0.303395,-0.259735,0.688124,-0.212166,0.586643,0.022678,-0.514888,0.074380,-0.146960,-0.841285,10.229912,16.050489,118.510713
16779,NaN,-3.920399,1.512886,10.000223,0.694335,-0.700389,0.989623,-0.230135,0.468387,-0.070403,-0.514815,0.076955,-0.147208,-0.841055,10.105162,16.320877,118.510625
16780,NaN,-2.948460,1.282016,9.940085,0.409623,0.228973,0.623876,-0.247611,0.411814,-0.092267,-0.514866,0.079361,-0.147233,-0.840796,9.964912,16.562664,118.491119
16781,NaN,-2.674608,1.434707,10.015940,0.105797,0.449676,0.642803,-0.254148,0.486098,-0.067958,-0.514753,0.082068,-0.147423,-0.840571,9.826806,16.842403,118.492956
16782,NaN,-3.093852,1.365506,9.854279,0.309906,0.107725,0.600544,-0.266947,0.517867,-0.045182,-0.514513,0.084934,-0.147656,-0.840393,9.686192,17.139409,118.510733
16783,NaN,-2.608732,1.487266,9.781048,-0.068927,0.475561,0.407641,-0.288380,0.567299,-0.007068,-0.514062,0.088026,-0.147934,-0.840302,9.540980,17.459512,118.555242
16784,NaN,-2.332860,1.352943,9.598334,-0.127332,0.745084,0.128586,-0.298592,0.686672,0.065526,-0.513207,0.091599,-0.148514,-0.840340,9.406957,17.841557,118.653908
16785,NaN,-2.707804,1.575304,9.649517,-0.207501,0.403512,0.322430,-0.298564,0.733484,0.105367,-0.512142,0.095329,-0.149221,-0.840450,9.281843,18.245139,118.780127
16786,NaN,-2.581711,1.446859,9.188778,-0.199892,0.453323,-0.171816,-0.303010,0.716635,0.120430,-0.511017,0.098995,-0.149880,-0.840593,9.157431,18.639503,118.913082
16787,NaN,-2.898877,1.435132,9.355961,-0.098211,0.306318,0.081408,-0.284759,0.785711,0.123070,-0.509830,0.102894,-0.150783,-0.840685,9.046457,19.071588,119.053660
16788,NaN,-2.932898,1.383212,9.413337,-0.091927,0.379865,0.135818,-0.287728,0.830955,0.126111,-0.508585,0.106994,-0.151795,-0.840745,8.937075,19.530637,119.199888
16789,NaN,-2.991236,1.218021,9.373940,0.025517,0.452800,0.091630,-0.284550,0.891587,0.110074,-0.507352,0.111341,-0.152956,-0.840715,8.828936,20.024192,119.341632
16790,NaN,-3.692654,1.240740,9.060194,0.282077,-0.182697,0.043718,-0.260150,0.851389,0.072417,-0.506312,0.115494,-0.154101,-0.840573,8.726771,20.500019,119.456412
16791,NaN,-3.813942,1.520774,9.232237,0.031871,-0.279494,0.287485,-0.202115,0.747131,0.007325,-0.505650,0.119097,-0.155174,-0.840271,8.640645,20.920688,119.521577
16792,NaN,-3.697297,1.778011,9.536039,-0.312949,-0.131310,0.562851,-0.264473,0.616270,-0.039984,-0.505245,0.122356,-0.155635,-0.839961,8.504823,21.273289,119.545383
16793,NaN,-3.092077,1.514866,9.314499,-0.398735,0.431147,0.100456,-0.301304,0.604755,-0.042849,-0.504833,0.125649,-0.155896,-0.839674,8.345953,21.617621,119.565421
16794,NaN,-3.479944,0.897536,8.866736,0.301399,0.257437,-0.253548,-0.253861,0.634450,-0.004619,-0.504261,0.128927,-0.156467,-0.839414,8.224437,21.977717,119.610648
16795,NaN,-3.707341,1.062970,9.034675,0.206266,0.111153,0.007925,-0.172289,0.607354,0.010083,-0.503697,0.131861,-0.157308,-0.839140,8.151704,22.319541,119.661866
16796,NaN,-3.227931,1.372920,9.286271,-0.342011,0.504955,0.095241,-0.149771,0.601732,0.042055,-0.503012,0.134700,-0.158261,-0.838921,8.099865,22.657414,119.732015
16797,NaN,-3.040852,1.233070,9.064068,-0.325590,0.676135,-0.202221,-0.153365,0.674601,0.122766,-0.501924,0.137775,-0.159426,-0.838853,8.068070,23.028272,119.858104
16798,NaN,-2.003379,1.458182,9.133040,-1.043259,1.486615,-0.525417,-0.138626,0.805241,0.261626,-0.500151,0.141261,-0.161083,-0.839015,8.084040,23.463973,120.081718
16799,NaN,-2.659114,1.087069,8.697863,-0.416831,1.019317,-0.719167,-0.084799,0.956846,0.408587,-0.497668,0.145111,-0.163433,-0.839380,8.174895,23.971217,120.411002
16800,NaN,-4.338868,0.723592,8.412232,0.677470,-0.183693,-0.345810,0.023571,0.851609,0.361781,-0.495532,0.148301,-0.165950,-0.839592,8.315681,24.424373,120.704102
16801,NaN,-3.836681,0.945435,8.821785,0.195534,0.356160,-0.154926,0.084552,0.735217,0.203448,-0.494195,0.150966,-0.168304,-0.839437,8.448608,24.822129,120.889906
16802,NaN,-4.256992,0.507596,8.776198,0.762571,0.279428,-0.079177,0.150508,0.758798,0.075054,-0.493419,0.153686,-0.170904,-0.838874,8.588294,25.245749,120.999345
16803,NaN,-5.602857,0.952878,8.947389,0.965515,-0.821551,0.711009,0.205901,0.623946,-0.044793,-0.493298,0.155789,-0.173294,-0.838067,8.722672,25.600522,121.022077
16804,NaN,-5.950598,1.461640,9.072264,0.656345,-1.210234,1.048085,0.188238,0.367767,-0.090401,-0.493571,0.156916,-0.174956,-0.837350,8.824753,25.816733,120.992311
16805,NaN,-4.981925,1.684081,8.926454,0.017455,-0.595116,0.530560,0.089424,0.222589,-0.062945,-0.493779,0.157644,-0.175854,-0.836903,8.870810,25.946507,120.965664
16806,NaN,-3.972477,1.564485,8.441487,-0.306703,0.043036,-0.358010,0.044699,0.261101,0.024030,-0.493551,0.158578,-0.176742,-0.836674,8.917699,26.092257,120.997893
16807,NaN,-3.536162,1.520739,8.188297,-0.455746,0.313048,-0.781658,0.026587,0.411799,0.083207,-0.492928,0.160121,-0.177959,-0.836489,8.976951,26.315947,121.082466
16808,NaN,-4.131812,1.449905,8.225022,-0.133579,-0.055497,-0.495823,0.023387,0.528083,0.148071,-0.491924,0.162112,-0.179513,-0.836365,9.058929,26.601573,121.220355
16809,NaN,-5.001757,1.238340,7.970474,0.468045,-0.695101,-0.358742,0.031890,0.538023,0.187672,-0.490749,0.164075,-0.181144,-0.836320,9.157744,26.886886,121.384997
16810,NaN,-4.500174,1.428387,7.928660,0.063695,-0.374152,-0.592529,0.047236,0.440282,0.196530,-0.489634,0.165595,-0.182618,-0.836354,9.265209,27.117991,121.546350
16811,NaN,-3.663079,1.411323,7.884782,-0.312547,0.288298,-1.015028,0.063495,0.482012,0.225632,-0.488371,0.167209,-0.184271,-0.836409,9.392545,27.367465,121.731180
16812,NaN,-3.541645,1.392686,7.782812,-0.348116,0.386671,-1.164909,0.107876,0.591185,0.298352,-0.486734,0.169116,-0.186450,-0.836496,9.574373,27.673553,121.975470
16813,NaN,-3.376118,1.267044,7.742076,-0.315279,0.606199,-1.299398,0.182873,0.726410,0.373987,-0.484713,0.171322,-0.189318,-0.836577,9.829723,28.045866,122.284565
16814,NaN,-3.409311,1.352447,7.978296,-0.400932,0.729128,-1.071246,0.261172,0.887797,0.472160,-0.482184,0.173928,-0.193000,-0.836659,10.173133,28.500052,122.678559
16815,NaN,-4.024519,2.004653,8.644975,-0.746396,0.389600,-0.104891,0.279730,0.956421,0.638101,-0.478897,0.176593,-0.197053,-0.837044,10.587462,28.971131,123.192366
16816,NaN,-4.559879,2.298484,8.683438,-0.738053,-0.025376,0.233782,0.207596,0.884799,0.867801,-0.474636,0.178916,-0.200838,-0.838077,11.034963,29.376164,123.851723
16817,NaN,-5.560096,3.059380,9.105292,-0.932408,-0.805769,1.217340,0.101227,0.768521,1.032107,-0.469692,0.180814,-0.204021,-0.839685,11.471690,29.690079,124.607725
16818,NaN,-4.849181,2.984853,8.962464,-1.172351,-0.265556,0.737403,-0.085623,0.659969,1.173529,-0.464073,0.182561,-0.206304,-0.841871,11.846360,29.924989,125.445767
16819,NaN,-4.750609,2.893912,8.965239,-1.121426,-0.095004,0.677861,-0.205807,0.722976,1.268468,-0.457859,0.184731,-0.208288,-0.844308,12.191219,30.176999,126.357395
16820,NaN,-5.772529,2.678287,8.830527,-0.377729,-0.712303,1.041948,-0.325209,0.712291,1.323094,-0.451288,0.187077,-0.209797,-0.846951,12.491141,30.414206,127.307133
16821,NaN,-6.701892,2.272652,8.735621,0.484146,-1.136207,1.361644,-0.424309,0.617778,1.247010,-0.445022,0.189297,-0.210573,-0.849577,12.705854,30.601494,128.196765
16822,NaN,-6.161934,1.305597,8.093821,1.104540,-0.555471,0.368431,-0.447106,0.555143,1.084525,-0.439470,0.191482,-0.210967,-0.851877,12.853627,30.774842,128.974252
16823,NaN,-5.526155,1.321814,7.860349,0.782749,-0.210500,-0.147625,-0.338911,0.613567,0.974357,-0.434413,0.193767,-0.211813,-0.853742,13.032627,30.989647,129.690382
16824,NaN,-5.703205,1.209840,7.482479,1.030912,-0.408047,-0.392066,-0.163156,0.659481,0.937164,-0.429620,0.195920,-0.213489,-0.855257,13.309130,31.235874,130.392576
16825,NaN,-6.799975,1.712158,7.356436,1.263781,-1.387958,0.175512,0.040270,0.658154,0.892012,-0.425210,0.197659,-0.215957,-0.856440,13.688687,31.481328,131.067731
16826,NaN,-7.144492,2.283525,8.215367,0.892703,-1.384597,1.188946,0.082308,0.456891,0.881925,-0.421088,0.198466,-0.218185,-0.857724,14.077980,31.614968,131.707983
16827,NaN,-7.068209,2.843442,8.373801,0.418794,-1.502286,1.400369,0.058444,0.256629,0.874108,-0.417188,0.198448,-0.219847,-0.859209,14.432263,31.631288,132.310547
16828,NaN,-6.718631,3.315680,8.985227,-0.204818,-1.177980,1.825103,-0.049620,0.118442,0.877141,-0.413308,0.198074,-0.220785,-0.860928,14.715976,31.571351,132.892604
16829,NaN,-6.375732,2.951127,9.626770,-0.168675,-0.397659,2.097271,-0.246300,0.066933,0.867300,-0.409326,0.197866,-0.220732,-0.862890,14.876235,31.478293,133.458143
16830,NaN,-6.838161,2.213238,9.541523,0.733127,-0.309845,2.106457,-0.382680,0.029401,0.814975,-0.405467,0.197856,-0.219981,-0.864903,14.937771,31.375340,133.982978
16831,NaN,-6.005574,1.741879,9.190373,0.679551,0.276760,1.279004,-0.530893,0.094930,0.683023,-0.401956,0.198557,-0.218553,-0.866741,14.871180,31.325063,134.431718
16832,NaN,-5.772739,1.532135,9.056156,0.709347,0.472218,1.002100,-0.499318,0.393450,0.489695,-0.398978,0.200710,-0.217701,-0.867835,14.788286,31.472053,134.808030
16833,NaN,-6.260474,1.844494,9.318203,0.671822,0.154425,1.542890,-0.508647,0.542114,0.357592,-0.396399,0.203658,-0.216939,-0.868521,14.666276,31.718857,135.123002
16834,NaN,-5.909791,2.287737,9.380803,0.043043,0.162360,1.506770,-0.577871,0.694330,0.219707,-0.394173,0.207560,-0.216064,-0.868829,14.475623,32.073060,135.375288
16835,NaN,-6.325592,2.376541,9.026101,0.207946,-0.303768,1.456529,-0.712374,0.808799,0.072505,-0.392316,0.212373,-0.214644,-0.868858,14.164281,32.510947,135.548052
16836,NaN,-6.721873,2.174514,8.326943,0.645633,-0.772513,1.060932,-0.752576,0.768747,-0.073404,-0.391079,0.217246,-0.212838,-0.868655,13.777371,32.949295,135.616752
16837,NaN,-6.245235,2.152682,7.771821,0.399020,-0.769087,0.350325,-0.735270,0.643786,-0.174282,-0.390426,0.221650,-0.210723,-0.868352,13.347974,33.331621,135.593469
16838,NaN,-5.602261,1.744381,7.571701,0.291759,-0.254338,-0.241451,-0.663126,0.484248,-0.207753,-0.390153,0.225245,-0.208593,-0.868063,12.935104,33.629524,135.520840
16839,NaN,-4.959445,1.607791,7.222457,0.020607,0.018073,-0.905176,-0.577158,0.643787,-0.175863,-0.389669,0.229328,-0.207158,-0.867555,12.592468,34.011216,135.490212
16840,NaN,-4.334754,1.767234,7.836996,-0.700218,0.638113,-0.733405,-0.515853,1.004106,-0.172733,-0.388855,0.234845,-0.206710,-0.866551,12.317477,34.594891,135.514047
16841,NaN,-4.569676,1.604212,8.077772,-0.603707,0.783333,-0.446463,-0.540378,1.399667,-0.199346,-0.387702,0.242140,-0.206875,-0.865019,12.048647,35.402972,135.574382
16842,NaN,-5.889260,0.879594,8.022313,0.604242,0.522774,0.145914,-0.532251,1.627222,-0.228950,-0.386426,0.250419,-0.207476,-0.863087,11.791658,36.342778,135.644065
16843,NaN,-5.348321,1.235637,8.076294,-0.139154,0.728477,-0.075877,-0.534993,1.665620,-0.165907,-0.384805,0.258785,-0.208199,-0.861167,11.560723,37.296959,135.759088
16844,NaN,-4.521020,1.905234,8.010703,-1.237103,0.817484,-0.536880,-0.553381,1.472363,-0.001741,-0.382628,0.266165,-0.208673,-0.859772,11.373716,38.124346,135.960041
16845,NaN,-4.098149,0.990639,8.080717,-0.910045,1.716632,-0.907758,-0.735748,1.359088,0.181863,-0.379516,0.273191,-0.208367,-0.859021,11.154251,38.866740,136.274578
16846,NaN,-4.872404,1.021159,8.021668,-0.587703,1.296999,-0.479863,-0.754839,1.145183,0.264889,-0.376221,0.279242,-0.207686,-0.858690,10.946426,39.481997,136.618937
16847,NaN,-3.856356,1.068850,7.338531,-1.063980,1.450969,-1.649967,-0.787046,0.928110,0.303355,-0.372929,0.284362,-0.206486,-0.858735,10.719026,39.970485,136.959788
16848,NaN,-3.451699,0.983828,7.575971,-1.386732,1.871130,-1.759570,-0.796988,0.941568,0.363182,-0.369334,0.289493,-0.205363,-0.858844,10.519961,40.462689,137.347652
16849,NaN,-2.765234,1.060924,7.492178,-1.884002,2.147462,-2.279890,-0.832648,1.096137,0.520112,-0.364840,0.295167,-0.204576,-0.859021,10.392682,41.024668,137.873972
16850,NaN,-3.102506,1.030525,7.361424,-1.712758,1.949914,-2.187626,-0.860233,1.264240,0.760352,-0.359077,0.301360,-0.204333,-0.859357,10.392078,41.658845,138.608406
16851,NaN,-3.518373,0.995986,7.349314,-1.537517,1.800711,-1.952920,-0.911662,1.381133,1.041404,-0.351881,0.307823,-0.204473,-0.860009,10.526279,42.327033,139.580085
16852,NaN,-3.118312,0.875263,7.044475,-1.643411,1.949509,-2.490646,-0.932566,1.517984,1.387519,-0.342985,0.314536,-0.205286,-0.860980,10.861150,43.034506,140.851686
16853,NaN,-3.622067,0.756918,6.497436,-1.131920,1.550962,-2.586261,-0.863671,1.673982,1.700123,-0.332645,0.321422,-0.207109,-0.862056,11.443993,43.785112,142.410932
16854,NaN,-5.098901,0.139700,6.235194,0.187336,1.285774,-1.862489,-0.713919,1.848396,1.840819,-0.321700,0.328626,-0.210075,-0.862776,12.249663,44.605633,144.143118
16855,NaN,-6.712280,-0.344881,5.213316,1.833609,0.526476,-1.523537,-0.458596,1.902456,1.712466,-0.311618,0.335712,-0.213968,-0.862792,13.183186,45.451027,145.824928
16856,NaN,-6.782803,-0.004633,5.798362,1.317051,0.778265,-1.021570,-0.149370,2.048633,1.379214,-0.303283,0.343267,-0.218842,-0.861565,14.176663,46.405415,147.316788
16857,NaN,-8.339517,0.406310,5.895177,1.817448,0.158028,0.243814,0.113662,2.097263,0.999536,-0.296944,0.350985,-0.224222,-0.859278,15.155674,47.421348,148.560103
16858,NaN,-8.911468,1.026607,5.870015,1.654135,-0.303993,0.774699,0.319725,1.908252,0.652794,-0.292627,0.357946,-0.229590,-0.856465,16.061713,48.374751,149.524678
16859,NaN,-8.302100,1.469239,5.819700,0.946276,-0.268321,0.384471,0.427919,1.738763,0.450969,-0.289542,0.364209,-0.234772,-0.853463,16.908634,49.255809,150.316476
16860,NaN,-6.984163,1.780586,6.219472,-0.286613,0.338769,-0.303147,0.466161,1.762381,0.424324,-0.286581,0.370530,-0.240101,-0.850253,17.802696,50.148321,151.129124
16861,NaN,-6.806251,2.534916,6.296961,-1.010732,0.057632,-0.253670,0.415914,1.883865,0.537373,-0.282879,0.377255,-0.245564,-0.846969,18.805523,51.075649,152.110138
16862,NaN,-6.909373,2.755195,6.380877,-1.224666,0.085663,-0.089714,0.284595,1.873441,0.718185,-0.278142,0.383876,-0.250785,-0.844028,19.901955,51.953554,153.293358
16863,NaN,-7.314911,3.035787,6.501861,-1.325105,0.013432,0.347986,0.110190,1.846245,0.907829,-0.272282,0.390332,-0.255556,-0.841543,21.071424,52.762033,154.682758
16864,NaN,-8.048158,3.210295,6.348021,-1.024782,-0.236429,0.876918,-0.081538,1.694745,1.063859,-0.265551,0.396187,-0.259607,-0.839716,22.253816,53.441308,156.210730
16865,NaN,-8.294571,3.105069,6.035289,-0.707193,-0.266997,0.878089,-0.274893,1.533868,1.156252,-0.258238,0.401450,-0.262773,-0.838511,23.385745,53.994133,157.803083
16866,NaN,-8.642800,2.673397,5.503771,0.006878,-0.230897,0.774166,-0.394785,1.403746,1.164947,-0.250790,0.406290,-0.265280,-0.837651,24.455817,54.460827,159.391919
16867,NaN,-8.813708,1.717732,4.648782,1.142516,0.016937,0.234004,-0.372841,1.273720,1.088312,-0.243868,0.410611,-0.267516,-0.836876,25.465549,54.859106,160.885070
16868,NaN,-8.614278,0.885368,3.868515,1.959253,0.295524,-0.537584,-0.150719,1.225969,0.955271,-0.237999,0.414630,-0.270355,-0.835672,26.520411,55.252994,162.268548
16869,NaN,-7.729159,0.684176,3.393147,1.838055,0.420123,-1.556482,0.201947,1.362447,0.883362,-0.232968,0.418857,-0.274647,-0.833579,27.801771,55.717314,163.676088
16870,NaN,-6.746222,1.686008,3.556363,0.555973,0.077775,-2.022640,0.526784,1.616202,0.932487,-0.228039,0.423675,-0.280687,-0.830489,29.452887,56.276897,165.295006
16871,NaN,-6.062820,2.229731,3.473713,-0.141113,-0.128907,-2.480753,0.719625,1.962665,1.107825,-0.222285,0.429404,-0.288246,-0.826508,31.552874,56.925082,167.309226
16872,NaN,-7.273888,2.526049,3.347902,0.341801,-0.383777,-1.432335,0.900096,2.294664,1.256530,-0.215781,0.436032,-0.297206,-0.821573,34.116385,57.642786,169.734463
16873,NaN,-9.669628,4.034673,3.879972,0.291832,-1.095195,1.302249,0.933268,2.362266,1.226568,-0.209336,0.442854,-0.306244,-0.816256,36.816869,58.340265,172.280667
16874,NaN,-11.234604,4.749655,4.329619,0.312750,-1.122851,3.077421,0.699711,2.043867,1.028284,-0.203630,0.448857,-0.313513,-0.811648,39.157264,58.904552,174.543894
16875,NaN,-10.228774,4.537473,3.613448,0.280496,-1.170185,1.884391,0.456978,1.624482,0.843820,-0.198767,0.453633,-0.318907,-0.808089,41.031682,59.308433,176.415786
16876,NaN,-8.389356,4.142068,2.703338,0.085785,-1.285824,-0.159532,0.344087,1.424065,0.774897,-0.194225,0.457795,-0.323477,-0.805024,42.708868,59.624012,178.125770
16877,NaN,-7.357559,4.093145,2.263564,-0.174778,-1.401801,-1.209546,0.348955,1.464324,0.799069,-0.189523,0.462031,-0.328126,-0.801836,44.462911,59.919464,179.917321
16878,NaN,-7.077340,4.506734,2.402172,-0.684370,-1.465105,-1.236366,0.306223,1.506479,0.909073,-0.184192,0.466273,-0.332886,-0.798655,46.335497,60.159391,-178.132074
16879,NaN,-6.189381,4.180813,1.907776,-0.644856,-1.464633,-2.271809,0.237280,1.583250,1.087845,-0.177849,0.470542,-0.337817,-0.795512,48.370128,60.320061,-175.952166
16880,NaN,-5.791124,3.920382,1.259960,-0.293770,-1.617379,-2.899651,0.285880,1.829895,1.294863,-0.170355,0.475353,-0.343623,-0.791797,50.781071,60.440293,-173.375561
16881,NaN,-5.232299,4.340198,1.082996,-0.718744,-1.925865,-3.243095,0.352353,2.126063,1.500226,-0.161674,0.480851,-0.350375,-0.787325,53.608514,60.512789,-170.366088
16882,NaN,-5.233279,4.981192,1.118183,-1.132950,-2.186651,-2.929238,0.364407,2.517555,1.749743,-0.151319,0.487350,-0.358025,-0.781927,56.922370,60.516463,-166.807519
16883,NaN,-6.430113,5.748922,1.390909,-1.206813,-2.188111,-1.441194,0.262450,2.840723,1.888784,-0.139557,0.494809,-0.365757,-0.775829,60.518407,60.442530,-162.855557
16884,NaN,-7.622564,5.551656,1.042176,-0.331241,-1.866461,-0.516978,0.125527,2.996683,1.913955,-0.127028,0.502775,-0.373026,-0.769372,64.157543,60.274558,-158.759898
16885,NaN,-8.666964,5.265289,0.599605,0.570661,-1.496636,0.218512,0.079463,2.966990,1.893090,-0.114479,0.510535,-0.379926,-0.762827,67.675054,59.984131,-154.764086
16886,NaN,-9.456760,5.190209,0.409886,1.048362,-1.093502,0.875290,0.072453,2.787335,1.789798,-0.102614,0.517666,-0.386326,-0.756468,70.906419,59.596272,-151.081544
16887,NaN,-9.944222,5.076362,0.154034,1.451351,-0.761746,1.232039,0.089747,2.498851,1.636906,-0.091903,0.523858,-0.392150,-0.750563,73.742717,59.143689,-147.853060
16888,NaN,-10.119030,5.123152,0.202658,1.411316,-0.420231,1.434859,0.194471,2.197326,1.488831,-0.082596,0.529062,-0.397765,-0.745019,76.238375,58.652806,-145.077074
16889,NaN,-9.745408,4.498790,0.198191,1.547418,0.138909,0.809599,0.054229,1.875826,1.355472,-0.074041,0.533306,-0.402308,-0.740440,78.252875,58.139579,-142.756158
16890,NaN,-9.568397,4.993279,-0.064520,1.360455,-0.199908,0.892281,0.192395,1.708308,1.270961,-0.066495,0.536987,-0.407028,-0.735901,80.115242,57.615247,-140.695832
16891,NaN,-9.362511,4.057708,-0.528270,2.079189,0.249129,0.187905,0.436850,1.606241,1.250890,-0.059880,0.540193,-0.412514,-0.731053,81.961008,57.058028,-138.809069
16892,NaN,-9.296402,4.516021,-0.454197,1.712041,0.182600,0.388083,0.539199,1.549599,1.214657,-0.053784,0.543179,-0.418217,-0.726057,83.750940,56.485330,-137.047202
16893,NaN,-8.503382,5.053357,-0.616736,1.180155,-0.367282,0.020575,0.766888,1.552679,1.173705,-0.048444,0.546144,-0.424591,-0.720487,85.611001,55.905942,-135.346220
16894,NaN,-7.539572,5.494546,-0.215021,0.213119,-0.565040,-0.500678,0.758862,1.565447,1.207226,-0.042928,0.549025,-0.430984,-0.714829,87.419205,55.277601,-133.690282
16895,NaN,-5.875536,5.712930,-0.330178,-0.515679,-1.278872,-1.727875,0.761429,1.804582,1.315711,-0.036513,0.552460,-0.437682,-0.708442,89.363055,54.560959,-131.857067
16896,NaN,-5.383633,5.708892,-0.089834,-0.923546,-1.147098,-2.104823,0.706073,2.040445,1.516714,-0.028708,0.556211,-0.444714,-0.701452,91.382171,53.691943,-129.873508
16897,NaN,-5.486876,5.827084,0.064275,-1.099499,-0.875357,-1.933212,0.613249,2.216920,1.687003,-0.019651,0.560114,-0.451836,-0.694068,93.382145,52.681025,-127.823564
16898,NaN,-6.031113,5.637959,-0.101106,-0.706195,-0.397215,-1.596219,0.547379,2.326756,1.783175,-0.009824,0.564066,-0.458913,-0.686390,95.311932,51.568832,-125.785361
16899,NaN,-6.785610,6.022369,-0.029585,-0.727340,0.040057,-0.769534,0.470505,2.270207,1.824425,0.000236,0.567610,-0.465742,-0.678899,97.045813,50.396957,-123.910234
16900,NaN,-6.802598,6.207125,-0.146952,-0.757808,0.113052,-0.634815,0.396418,2.126700,1.885245,0.010377,0.570406,-0.472392,-0.671845,98.534719,49.169257,-122.267357
16901,NaN,-6.647222,6.856790,-0.691230,-0.747770,-0.426055,-0.276805,0.330099,2.083304,1.902274,0.020661,0.572896,-0.478775,-0.664934,99.867662,47.909933,-120.750767
16902,NaN,-7.215298,7.645731,-1.205603,-0.578343,-0.580198,0.736902,0.228590,2.241087,1.793786,0.031248,0.576044,-0.484396,-0.657691,101.170640,46.672686,-119.165662
16903,NaN,-7.851765,7.994755,-1.994216,0.047368,-0.573494,1.554135,0.136808,2.418426,1.656037,0.042071,0.579973,-0.489190,-0.650043,102.462959,45.467452,-117.490133
16904,NaN,-8.664806,8.343567,-2.849208,0.766262,-0.447633,2.516795,0.045060,2.500547,1.425192,0.052599,0.584593,-0.492895,-0.642293,103.703602,44.355396,-115.779709
16905,NaN,-7.939447,8.157304,-3.497570,1.100669,-0.894334,2.010642,0.033720,2.463616,1.241804,0.062474,0.589426,-0.495942,-0.634599,104.875964,43.324694,-114.125534
16906,NaN,-7.232926,7.907556,-3.534693,0.992918,-0.988486,1.384179,0.047901,2.411173,1.184371,0.071979,0.594133,-0.498787,-0.626926,105.978215,42.310686,-112.554789
16907,NaN,-6.879617,7.911268,-3.398363,0.728981,-0.909140,1.146473,0.079491,2.250352,1.159551,0.080903,0.598308,-0.501634,-0.619552,106.969776,41.315035,-111.146959
16908,NaN,-6.615519,7.560727,-3.241563,0.659174,-0.613928,0.705005,0.120217,2.009803,1.186417,0.089170,0.601599,-0.504708,-0.612697,107.820609,40.329725,-109.961789
16909,NaN,-6.159605,7.635315,-2.971095,0.245657,-0.628415,0.415092,0.168318,1.739217,1.254433,0.096810,0.603835,-0.508196,-0.606422,108.528693,39.343006,-109.018707
16910,NaN,-4.888607,7.716769,-2.707875,-0.350768,-1.271730,-0.376780,0.133152,1.620999,1.389616,0.104652,0.605284,-0.511979,-0.600464,109.113939,38.297372,-108.218255
16911,NaN,-4.226924,8.012001,-2.483897,-0.841494,-1.601880,-0.595775,0.013878,1.613085,1.617605,0.113509,0.605989,-0.516042,-0.594637,109.567699,37.123553,-107.501733
16912,NaN,-4.331755,7.793064,-2.456995,-0.709444,-1.214823,-0.672119,-0.123827,1.677207,1.817818,0.123525,0.606205,-0.520188,-0.588780,109.913650,35.826248,-106.812494
16913,NaN,-3.724659,7.900262,-2.754869,-0.615165,-1.656705,-0.826644,-0.225624,1.769124,2.048896,0.134754,0.605924,-0.524597,-0.582662,110.179560,34.382451,-106.138298
16914,NaN,-3.430912,7.848201,-2.976051,-0.419049,-1.735116,-0.922770,-0.304013,1.982989,2.259302,0.147361,0.605540,-0.529158,-0.575846,110.422903,32.781754,-105.396417
16915,NaN,-4.113961,8.045086,-3.431086,0.086362,-1.189017,-0.221453,-0.343630,2.132813,2.448636,0.161001,0.604905,-0.533945,-0.568394,110.640825,31.045435,-104.625856
16916,NaN,-5.229417,8.451202,-3.847384,0.555972,-0.277612,0.825742,-0.335121,2.108455,2.544168,0.174770,0.603793,-0.538913,-0.560769,110.813609,29.262092,-103.913915
16917,NaN,-6.203457,8.941062,-4.103170,0.817923,0.614854,1.771942,-0.332108,1.923137,2.521043,0.187929,0.602065,-0.543848,-0.553561,110.910323,27.525945,-103.326152
16918,NaN,-6.877314,9.452953,-4.256504,0.925196,1.315998,2.523237,-0.348428,1.640961,2.422362,0.200044,0.599670,-0.548571,-0.547218,110.911380,25.901450,-102.895606
16919,NaN,-7.456182,10.034930,-4.411241,0.996277,1.920514,3.266409,-0.349746,1.297143,2.253750,0.210726,0.596679,-0.553031,-0.541965,110.829574,24.436335,-102.634568
16920,NaN,-7.656803,10.553300,-4.309910,0.813507,2.287858,3.702850,-0.365913,0.878391,2.094914,0.219831,0.592887,-0.557323,-0.538099,110.647909,23.143185,-102.582869
16921,NaN,-7.503254,10.870162,-4.066220,0.547746,2.414796,3.783457,-0.380506,0.351386,2.033807,0.227323,0.587759,-0.561913,-0.535833,110.347085,21.987857,-102.818555
16922,NaN,-7.193242,11.150534,-3.762351,0.247654,2.396254,3.767536,-0.445350,-0.220843,2.037547,0.233379,0.580952,-0.566925,-0.535374,109.895036,20.942806,-103.376038
16923,NaN,-6.636023,10.988540,-3.469367,0.120899,2.229355,3.295713,-0.534563,-0.776693,2.096540,0.238251,0.572316,-0.572453,-0.536645,109.290360,19.967508,-104.251616
16924,NaN,-6.313858,10.999392,-3.183791,0.010213,2.207348,3.075610,-0.569774,-1.304138,2.221370,0.242011,0.561779,-0.578782,-0.539302,108.575196,19.013656,-105.437898
16925,NaN,-5.827577,11.031269,-2.694245,-0.296701,2.092920,2.774256,-0.687222,-1.985535,2.427103,0.244630,0.548548,-0.586075,-0.543845,107.681886,18.053603,-107.033015
16926,NaN,-4.525188,10.223330,-2.678718,-0.086464,1.213368,1.618920,-0.772718,-2.568612,2.588869,0.246144,0.532988,-0.594114,-0.549878,106.662794,17.078515,-108.965978
16927,NaN,-3.198451,10.156046,-2.705738,-0.188087,0.142531,1.170672,-0.708895,-2.936913,2.730846,0.246687,0.515871,-0.602935,-0.556320,105.653961,16.051817,-111.105300
16928,NaN,-2.838979,11.053033,-2.708219,-0.370624,-0.175401,1.908578,-0.618798,-3.231930,2.925030,0.246542,0.497228,-0.612601,-0.562763,104.689835,14.926506,-113.414027
16929,NaN,-3.174059,11.546910,-2.732722,-0.103693,0.204864,2.467818,-0.642529,-3.621354,3.157792,0.245783,0.476483,-0.622931,-0.569659,103.702871,13.689136,-115.946947
16930,NaN,-4.001761,12.543499,-3.185804,0.667431,0.764628,3.695015,-0.675143,-4.100587,3.421720,0.244203,0.453198,-0.633979,-0.577102,102.691333,12.324262,-118.753230
16931,NaN,-5.207197,12.995526,-3.955689,2.181067,1.479515,4.493922,-0.802602,-4.689853,3.626039,0.241434,0.427047,-0.645329,-0.585569,101.609855,10.866608,-121.880611
16932,NaN,-7.007563,12.641658,-4.748699,4.378955,2.548398,4.531953,-0.763270,-5.446120,3.616830,0.235879,0.398337,-0.657051,-0.594956,100.559610,9.440218,-125.395808
16933,NaN,-8.862770,12.535754,-6.164175,7.142275,2.967115,4.810330,-0.562470,-6.349064,3.302407,0.225736,0.367747,-0.669029,-0.605149,99.636493,8.223575,-129.355557
16934,NaN,-10.705567,11.644982,-7.047771,9.697097,3.274361,4.153865,-0.201231,-7.372262,2.661874,0.209260,0.336088,-0.681134,-0.615883,98.922061,7.406851,-133.811442
16935,NaN,-10.642193,10.650189,-7.596775,10.633218,2.011233,3.118042,0.320714,-8.346809,1.757873,0.185436,0.304505,-0.693200,-0.626389,98.490545,7.145459,-138.730664
16936,NaN,-10.802736,10.629262,-6.826291,10.458153,1.698490,2.990635,1.012956,-9.395977,0.670731,0.153164,0.273414,-0.705343,-0.635828,98.383396,7.563275,-144.156908
16937,NaN,-7.994355,12.134097,-5.971200,7.371652,-0.113325,4.057701,1.180676,-9.076298,-0.497146,0.117713,0.247015,-0.714642,-0.643750,98.342828,8.614562,-149.311633
16938,NaN,-8.007739,12.817293,-2.767775,5.475896,1.933700,4.410394,0.975137,-8.450653,-1.880597,0.080094,0.226929,-0.719776,-0.651161,98.132571,10.383461,-154.013472
16939,NaN,-5.766443,14.037196,-0.119718,1.881576,2.799668,4.982539,0.358282,-7.652178,-3.102616,0.041885,0.213214,-0.719889,-0.659201,97.505658,12.755822,-158.200059
16940,NaN,-4.139176,14.327876,1.902473,-0.676032,3.596784,4.768657,-0.698123,-6.503153,-3.990589,0.005982,0.205887,-0.714195,-0.668955,96.250577,15.480679,-161.732042
16941,NaN,-3.247631,13.352069,3.076722,-1.897951,3.926485,3.575317,-1.729978,-5.417355,-4.509976,-0.026710,0.203821,-0.703454,-0.680365,94.397928,18.356165,-164.702106
16942,NaN,-3.650138,12.100702,3.793263,-1.641809,4.195421,2.589107,-2.592445,-4.697630,-4.632961,-0.056393,0.204392,-0.688875,-0.693177,92.006455,21.165070,-167.400461
16943,NaN,-3.489587,9.315676,3.448061,-1.019708,3.413001,0.093390,-3.195957,-4.302734,-4.609608,-0.083986,0.206196,-0.671453,-0.706810,89.168851,23.845316,-170.041189
16944,NaN,-3.763580,7.589826,3.039146,-0.279040,2.719236,-1.238870,-3.305134,-3.983710,-4.599025,-0.110217,0.208855,-0.652988,-0.719610,86.161136,26.393193,-172.679869
16945,NaN,-4.163821,6.870436,2.626644,0.195341,2.001527,-1.604592,-3.270313,-3.799597,-4.585742,-0.135679,0.211951,-0.633947,-0.731286,83.026458,28.817374,-175.398425
16946,NaN,-3.918545,6.268644,2.305322,0.050193,1.349482,-2.188833,-3.216902,-3.650273,-4.565529,-0.160522,0.215166,-0.614551,-0.741798,79.770842,31.098875,-178.239188
16947,NaN,-3.496423,6.218781,2.211313,-0.531003,0.876589,-2.415316,-3.251069,-3.456395,-4.535625,-0.184481,0.218827,-0.594507,-0.751427,76.351082,33.244686,178.831240
16948,NaN,-3.342715,6.230222,2.317686,-0.936601,0.618802,-2.458467,-3.398462,-3.285774,-4.474112,-0.207307,0.222821,-0.573531,-0.760550,72.708147,35.220665,175.805977
16949,NaN,-2.678845,6.254720,2.260723,-1.739118,0.249901,-2.862355,-3.617131,-3.140234,-4.291423,-0.228527,0.226911,-0.551421,-0.769560,68.804657,36.961021,172.703373
16950,NaN,-1.718530,5.813027,1.781478,-2.410415,-0.288607,-3.980509,-3.854043,-2.929656,-4.019069,-0.247651,0.231025,-0.528445,-0.778487,64.705792,38.421347,169.600847
16951,NaN,-0.650496,4.814387,1.159317,-2.710582,-0.638293,-5.667195,-3.965766,-2.682947,-3.599830,-0.264158,0.234935,-0.505287,-0.787218,60.557563,39.556624,166.614919
16952,NaN,0.066587,3.349595,0.437645,-2.315889,-0.808983,-7.489780,-3.820796,-2.395588,-3.069937,-0.277778,0.238230,-0.483323,-0.795289,56.621719,40.348580,163.884552
16953,NaN,0.534188,2.399906,-0.018476,-2.015343,-0.834450,-8.678407,-3.408734,-2.023629,-2.496366,-0.288556,0.240911,-0.463847,-0.802212,53.146207,40.860081,161.540463
16954,NaN,-1.279486,5.610323,-0.635264,-2.875964,-3.195385,-5.935620,-2.766232,-1.435734,-1.286082,-0.293744,0.242097,-0.449097,-0.808341,50.608895,40.937292,160.075052
16955,NaN,-0.564481,2.169747,-0.466942,-1.045759,-1.494707,-8.428398,-2.810282,-1.178414,-1.137788,-0.297643,0.244005,-0.434570,-0.814260,48.181300,41.000076,158.822611
16956,NaN,-2.786097,0.049176,0.531683,1.843083,-0.351087,-7.685011,-2.019894,-1.105563,-1.026479,-0.301811,0.244723,-0.423446,-0.818361,46.274365,41.006517,157.669247
16957,NaN,-5.207251,3.299177,0.990399,1.164402,-2.232720,-4.099652,-1.170113,-1.414579,-0.738184,-0.306474,0.242271,-0.415599,-0.821374,44.842879,40.747778,156.500320
16958,NaN,-6.127838,6.108532,1.657148,-0.279320,-3.404051,-1.692180,-1.071106,-1.690997,-0.216366,-0.309638,0.237405,-0.408358,-0.825231,43.579262,40.144298,155.487536
16959,NaN,-4.471823,2.050256,1.752904,1.421075,-1.014371,-4.890929,-1.188272,-2.020574,-0.561834,-0.314740,0.232055,-0.399635,-0.829084,42.041960,39.520083,154.143859
16960,NaN,-4.084927,1.714446,2.176967,1.340053,-0.498359,-5.088294,-0.585147,-2.291372,-0.604224,-0.321195,0.224666,-0.392906,-0.831856,40.790230,38.768747,152.680886
16961,NaN,-3.756202,3.698656,2.714811,-0.343339,-1.021272,-3.981948,-0.066778,-2.377077,-0.495612,-0.327920,0.215863,-0.388232,-0.833755,39.880524,37.920788,151.269354
16962,NaN,-2.337100,4.366363,2.748710,-1.777020,-0.858091,-4.503443,0.111851,-2.292947,-0.428999,-0.334330,0.206936,-0.384483,-0.835209,39.159789,37.067747,149.968311
16963,NaN,-1.666715,5.437415,3.072616,-2.998655,-0.899945,-4.157405,0.282164,-2.134793,-0.090958,-0.339175,0.197727,-0.381987,-0.836630,38.718094,36.154921,148.949026
16964,NaN,-1.491243,6.266499,3.746523,-3.695275,-0.737548,-3.383905,0.430224,-2.001149,0.483044,-0.341456,0.187690,-0.380885,-0.838515,38.608511,35.090648,148.325423
16965,NaN,-1.664174,5.814911,4.419804,-3.177461,-0.117482,-3.029965,0.610567,-1.966253,1.021096,-0.341555,0.176458,-0.381034,-0.840842,38.786902,33.850956,148.014451
16966,NaN,-1.407533,5.306892,4.759775,-2.865739,0.461735,-3.151491,0.832265,-1.866190,1.390189,-0.340045,0.164525,-0.382581,-0.843168,39.231162,32.522706,147.941827
16967,NaN,-1.355765,5.578989,6.017142,-2.943069,1.290186,-2.141991,1.118831,-1.481067,1.556783,-0.337292,0.153396,-0.386048,-0.844790,39.962834,31.305167,148.104535
16968,NaN,-2.331881,6.756544,5.788452,-2.860388,0.136089,-1.072483,1.307519,-0.787452,1.495074,-0.333551,0.144966,-0.391406,-0.845298,40.929834,30.410233,148.515295
16969,NaN,-2.920225,7.737401,5.985531,-2.928663,-0.378884,-0.040344,1.283128,-0.099874,1.046106,-0.330323,0.140357,-0.397425,-0.844536,41.904415,29.975503,148.982257
16970,NaN,-4.255146,7.735127,5.972128,-1.830835,-0.875457,0.650797,1.198744,0.567087,0.555194,-0.327753,0.139663,-0.403842,-0.842605,42.856683,30.005448,149.498992
16971,NaN,-5.544341,7.932044,5.995302,-0.954407,-1.366937,1.448706,1.142425,0.915950,0.093976,-0.326374,0.141459,-0.410231,-0.839750,43.743821,30.355137,149.951811
16972,NaN,-6.331300,8.039236,5.757587,-0.444110,-1.772535,1.785711,1.140366,0.912455,-0.231833,-0.326343,0.143900,-0.416373,-0.836318,44.559569,30.827315,150.256814
16973,NaN,-6.930174,7.734189,6.241367,0.207346,-1.352653,2.225802,1.097319,0.571789,-0.314330,-0.327326,0.145156,-0.421682,-0.833050,45.251431,31.191447,150.369207
16974,NaN,-6.065300,7.772271,6.573846,-0.448249,-0.599341,2.013129,1.238694,0.218771,-0.343391,-0.329256,0.144761,-0.426980,-0.829652,45.935260,31.424418,150.305640
16975,NaN,-5.850913,9.096999,8.011888,-1.421203,0.228690,3.570330,1.180052,0.099701,-0.429638,-0.331748,0.144149,-0.431741,-0.826295,46.532977,31.646547,150.145778
16976,NaN,-4.564493,9.412153,7.997261,-2.567132,0.753624,3.079964,0.860376,-0.055255,-0.361398,-0.334045,0.143272,-0.434977,-0.823821,46.927367,31.780446,149.944681
16977,NaN,-4.470426,9.044986,8.541965,-2.358008,1.481276,3.110410,0.695710,0.181151,-0.490189,-0.336240,0.143923,-0.437814,-0.821309,47.255364,32.061631,149.800637
16978,NaN,-3.294816,8.527134,8.224584,-2.901503,2.016081,1.965586,0.517332,0.309135,-0.339705,-0.337396,0.145066,-0.440249,-0.819329,47.554271,32.329690,149.791921
16979,NaN,-5.259511,8.719484,8.082156,-1.609172,1.071208,3.043269,0.553054,0.292944,-0.070303,-0.337511,0.145484,-0.442977,-0.817736,47.933668,32.476558,149.898608
16980,NaN,-4.520741,8.079304,6.498929,-1.807280,0.401038,1.346203,0.389241,0.533427,-0.006119,-0.336704,0.147022,-0.445500,-0.816422,48.303944,32.688177,150.158797
16981,NaN,-6.590340,7.226634,6.391067,0.270582,-0.150250,1.866611,0.452155,0.713464,0.011607,-0.335468,0.149140,-0.448573,-0.814862,48.764464,32.957779,150.520273
16982,NaN,-8.539486,7.145216,6.425451,1.741953,-0.807628,2.898574,0.449284,0.433544,-0.124477,-0.335404,0.150432,-0.451073,-0.813269,49.116639,33.179776,150.680840
16983,NaN,-7.671373,7.063207,6.235096,1.137114,-0.518203,2.272573,0.361907,0.162712,-0.293773,-0.336575,0.151146,-0.452617,-0.811794,49.299141,33.372334,150.625461
16984,NaN,-5.618075,6.566773,5.133937,-0.107874,-0.374846,0.231726,0.327332,0.191337,-0.392797,-0.338051,0.152261,-0.454006,-0.810196,49.448037,33.619630,150.542486
16985,NaN,-4.345041,5.184041,4.927310,-0.116663,0.511194,-1.460625,0.425134,0.246402,-0.334776,-0.339241,0.153297,-0.455907,-0.808433,49.680967,33.861353,150.513775
16986,NaN,-5.467003,4.875125,1.735633,0.702878,-2.488471,-2.742977,0.869795,-0.302727,-0.218818,-0.341547,0.151096,-0.458774,-0.806252,50.039387,33.850535,150.249775
16987,NaN,-3.875068,5.463757,3.346696,-0.746599,-0.637629,-2.389419,0.825637,0.046781,-0.546398,-0.344333,0.151124,-0.461787,-0.803336,50.392568,34.112767,150.024929
16988,NaN,-3.602022,4.406709,2.418501,-0.296310,-0.890610,-3.700294,1.080810,0.458905,-0.570054,-0.346440,0.152421,-0.466514,-0.799445,51.012739,34.537289,150.013879
16989,NaN,-3.511470,5.076833,2.263201,-0.858518,-1.118160,-3.390962,1.239242,0.760538,-0.561076,-0.347913,0.154617,-0.472366,-0.794934,51.821376,35.065018,150.176530
16990,NaN,-3.634268,5.477010,2.770452,-1.027166,-0.747782,-2.793751,1.395592,0.846028,-0.547463,-0.349224,0.156841,-0.478979,-0.789950,52.760055,35.615057,150.404587
16991,NaN,-4.289648,5.628913,2.349662,-0.724106,-1.294901,-2.504878,1.531076,0.841887,-0.568486,-0.350709,0.158847,-0.486058,-0.784550,53.778061,36.169530,150.633741
16992,NaN,-4.477576,6.023296,2.735413,-0.853458,-0.998759,-1.933395,1.692740,0.945458,-0.641516,-0.352321,0.161141,-0.493856,-0.778466,54.918154,36.789526,150.908022
16993,NaN,-6.302183,8.207569,5.140483,-0.918729,0.043415,1.704897,1.774542,1.195346,-0.814037,-0.354012,0.164666,-0.502208,-0.771588,56.165144,37.566632,151.278253
16994,NaN,-5.575160,8.973152,3.463257,-2.196991,-1.109984,1.028420,1.495432,1.510594,-0.962356,-0.355206,0.170256,-0.509857,-0.764779,57.354973,38.508042,151.807054
16995,NaN,-4.089879,7.761075,3.137662,-2.451489,-0.338391,-0.830631,1.458883,2.125957,-0.751105,-0.353935,0.177692,-0.518552,-0.757799,58.846537,39.522218,152.838218
16996,NaN,-4.131207,7.969316,3.417649,-2.591034,0.106110,-0.564629,1.655847,2.466440,-0.464224,-0.350797,0.185296,-0.528751,-0.750353,60.710592,40.469480,154.251056
16997,NaN,-5.284987,7.878168,3.159085,-1.784721,-0.213496,0.022865,1.705299,2.728869,-0.241064,-0.346085,0.193152,-0.539669,-0.742748,62.826853,41.335712,155.980546
16998,NaN,-7.041501,7.758003,2.489243,-0.565591,-1.035634,0.890753,1.720237,2.756041,-0.200741,-0.341077,0.200934,-0.550590,-0.734944,65.036223,42.139437,157.807824
16999,NaN,-6.772282,7.503870,1.621432,-0.650301,-1.421466,0.304123,1.631942,2.552842,-0.296317,-0.336801,0.208323,-0.560605,-0.727247,67.136938,42.892874,159.522501
17000,NaN,-6.879958,7.756065,2.131430,-0.746819,-0.710095,0.721303,1.392804,2.295654,-0.394506,-0.333288,0.215421,-0.569100,-0.720165,69.006782,43.600511,161.076333
17001,NaN,-6.003873,7.499569,2.353914,-1.190813,-0.009147,0.006101,1.031995,2.135409,-0.546729,-0.330329,0.222930,-0.575770,-0.713915,70.604423,44.322275,162.515981
17002,NaN,-6.361379,7.002902,3.046879,-0.610180,0.851976,0.071106,0.715245,2.032740,-0.672091,-0.327720,0.230936,-0.580920,-0.708378,71.987235,45.067472,163.889169
17003,NaN,-6.953537,7.341174,4.584499,-0.470052,2.384832,1.020127,0.439208,1.851606,-0.767697,-0.325613,0.238993,-0.584617,-0.703621,73.135969,45.810463,165.138592
17004,NaN,-2.764407,12.048734,6.529195,-6.815451,4.646069,1.474691,-0.427442,1.616962,-0.670757,-0.322790,0.247340,-0.584945,-0.701761,73.704417,46.450236,166.256881
17005,NaN,-13.648433,-1.022803,-1.775858,9.802335,-3.763893,-0.856095,0.131593,1.698204,-1.051372,-0.321719,0.256144,-0.586839,-0.697501,74.605978,47.300080,167.379937
17006,NaN,-12.539572,7.378068,2.606088,2.785919,0.097046,4.702429,1.225559,1.815736,-0.495284,-0.319736,0.261955,-0.593385,-0.690683,76.335965,47.842963,168.762636
17007,NaN,-19.006133,8.054297,2.512405,6.444938,-0.597281,9.948767,0.635600,1.256178,-0.489656,-0.318590,0.266727,-0.596948,-0.686302,77.412087,48.285804,169.710906
17008,NaN,-13.631107,5.329916,-0.629623,4.858671,-2.656688,3.749983,0.517767,0.345499,-0.417958,-0.319749,0.268347,-0.598735,-0.683569,77.873023,48.569363,169.920947
17009,NaN,-10.254468,5.909850,1.432386,2.207974,-0.218811,1.900938,0.425235,0.043774,-0.267966,-0.321175,0.268631,-0.599913,-0.681754,78.111116,48.732172,169.904746
17010,NaN,-7.708658,5.347583,2.428790,0.977449,1.121857,-0.236411,0.097975,-0.007002,-0.219003,-0.322143,0.269120,-0.599963,-0.681060,78.137350,48.861433,169.855513
17011,NaN,-7.681832,6.173551,2.947970,0.316861,1.583263,0.346378,0.011391,0.011686,-0.287544,-0.323175,0.270018,-0.599647,-0.680493,78.115115,49.031760,169.808718
17012,NaN,-8.148962,5.821426,3.870984,0.871157,2.468431,0.600136,-0.157157,0.059743,-0.327830,-0.323967,0.271471,-0.598787,-0.680297,78.022930,49.229901,169.796445
17013,NaN,-7.115277,6.424630,1.967950,-0.331002,0.654366,-0.053693,-0.170235,0.064547,-0.378959,-0.324906,0.273114,-0.597808,-0.680052,77.916730,49.457728,169.776778
17014,NaN,-5.415358,6.177864,1.435480,-1.268849,0.347649,-1.577287,-0.095284,0.400703,-0.192427,-0.324300,0.275219,-0.597891,-0.679419,78.102569,49.620558,170.083398
17015,NaN,-4.522933,6.380869,0.521217,-2.021875,-0.455467,-2.253017,-0.126841,0.593240,-0.064639,-0.322645,0.277645,-0.598342,-0.678823,78.414925,49.733591,170.580255
17016,NaN,-5.499442,6.938223,0.365867,-1.833731,-0.731605,-1.174471,-0.111672,0.620676,0.035882,-0.320578,0.279836,-0.599032,-0.678294,78.771748,49.791085,171.122147
17017,NaN,-7.666917,7.256741,0.515369,-0.695910,-0.797676,0.703342,-0.168041,0.480905,0.027252,-0.318882,0.281665,-0.599282,-0.678115,79.001316,49.836160,171.540371
17018,NaN,-12.092757,7.441072,1.176237,1.973651,-0.552882,4.286490,-0.079173,0.221039,-0.140894,-0.318654,0.282977,-0.599187,-0.677760,79.089448,49.946817,171.705577
17019,NaN,-9.218692,6.974174,-0.235677,0.487207,-1.645149,1.621255,-0.022842,-0.095512,-0.100371,-0.319321,0.283002,-0.598828,-0.677753,79.001763,50.000328,171.599761
17020,NaN,-8.894987,7.050790,-0.020559,0.216281,-1.414954,1.447240,0.143764,-0.185207,0.030608,-0.320044,0.282067,-0.599083,-0.677577,78.968131,49.970171,171.438974
17021,NaN,-8.647289,6.928379,0.159552,0.157592,-1.216650,1.200867,0.100552,-0.337209,0.069321,-0.321033,0.280569,-0.598995,-0.677808,78.812256,49.901520,171.151361
17022,NaN,-8.555847,6.994762,0.210495,0.056442,-1.187985,1.176350,0.096930,-0.443635,0.093620,-0.322249,0.278642,-0.598761,-0.678232,78.588780,49.806434,170.777012
17023,NaN,-7.220096,6.899045,0.790622,-0.704692,-0.499719,0.167556,0.008238,-0.489452,0.127928,-0.323362,0.276599,-0.598194,-0.679039,78.289520,49.686004,170.369818
17024,NaN,-8.886621,7.031726,1.226016,0.271432,-0.290953,1.578621,0.050911,-0.389946,0.046213,-0.324510,0.275068,-0.597819,-0.679443,78.071620,49.621619,170.036274
17025,NaN,-6.062706,6.910983,1.064827,-1.431824,-0.154010,-0.670585,-0.109420,-0.323436,0.103804,-0.325045,0.273850,-0.597082,-0.680327,77.814000,49.532267,169.771233
17026,NaN,-7.132243,7.132425,0.890383,-0.908917,-0.490470,0.260366,-0.122064,-0.166636,0.177079,-0.324841,0.272966,-0.596659,-0.681151,77.664067,49.420121,169.656601
17027,NaN,-6.332475,6.519766,1.218903,-0.927595,-0.048497,-0.689616,-0.277895,-0.143850,0.236043,-0.324156,0.272235,-0.595818,-0.682504,77.448447,49.277571,169.573155
17028,NaN,-6.070604,6.441310,1.538091,-1.010096,0.272925,-0.890049,-0.441560,-0.116350,0.325154,-0.322859,0.271597,-0.594584,-0.684446,77.171452,49.088432,169.532008
17029,NaN,-6.828363,6.333878,1.861434,-0.411014,0.471323,-0.335443,-0.568271,-0.117974,0.376344,-0.321218,0.271001,-0.592976,-0.686845,76.829288,48.870171,169.500879
17030,NaN,-7.799252,6.262994,2.219904,0.301653,0.665436,0.407257,-0.704225,-0.144700,0.395335,-0.319401,0.270474,-0.590878,-0.689703,76.397484,48.637840,169.453727
17031,NaN,-7.801192,6.286765,2.014531,0.311686,0.396866,0.394428,-0.858119,-0.198837,0.388836,-0.317553,0.270018,-0.588140,-0.693067,75.844318,48.401203,169.362504
17032,NaN,-8.267608,6.130615,1.940237,0.761237,0.209882,0.631365,-0.942536,-0.219874,0.374119,-0.315695,0.269662,-0.585044,-0.696666,75.231258,48.169343,169.255110
17033,NaN,-8.235624,6.348369,1.781194,0.604088,-0.052691,0.719713,-1.024720,-0.332279,0.369482,-0.314064,0.269048,-0.581458,-0.700631,74.504095,47.922291,169.057673
17034,NaN,-7.988823,6.112953,1.566833,0.651241,-0.297965,0.342638,-1.088748,-0.404251,0.396887,-0.312448,0.268195,-0.577555,-0.704896,73.707016,47.647241,168.814082
17035,NaN,-8.131396,6.046100,1.424352,0.829407,-0.548413,0.371322,-1.098519,-0.465940,0.373743,-0.311069,0.267196,-0.573465,-0.709211,72.868507,47.372422,168.521295
17036,NaN,-7.851337,5.730225,1.240858,0.915795,-0.746363,-0.085304,-1.039307,-0.563121,0.376698,-0.310023,0.265743,-0.569419,-0.713462,72.014400,47.076302,168.159227
17037,NaN,-7.857822,5.436409,0.987104,1.179091,-1.048829,-0.337295,-0.864545,-0.682934,0.363742,-0.309588,0.263620,-0.565771,-0.717331,71.195133,46.762199,167.706355
17038,NaN,-7.873074,5.418433,1.485140,1.222035,-0.659147,-0.240768,-0.621897,-0.796018,0.314832,-0.309957,0.260845,-0.562739,-0.720563,70.449208,46.448890,167.160365
17039,NaN,-7.201472,5.680807,1.971936,0.595609,-0.219926,-0.452268,-0.428607,-0.875097,0.279100,-0.310924,0.257582,-0.560218,-0.723280,69.770188,46.135246,166.551140
17040,NaN,-6.853928,5.842921,2.243014,0.266969,-0.011615,-0.535016,-0.291853,-0.849533,0.254839,-0.312073,0.254258,-0.558188,-0.725527,69.187393,45.834672,165.963352
17041,NaN,-6.639612,5.861099,2.463205,0.134032,0.164944,-0.622545,-0.205827,-0.753294,0.217118,-0.313197,0.251253,-0.556560,-0.727338,68.705260,45.570853,165.444813
17042,NaN,-6.646631,5.825870,2.514573,0.187473,0.163487,-0.626860,-0.141936,-0.608235,0.130031,-0.314306,0.248910,-0.555278,-0.728644,68.325183,45.380632,165.015764
17043,NaN,-6.401885,5.830786,2.543509,0.032187,0.194345,-0.789787,-0.060129,-0.429793,0.057528,-0.315288,0.247293,-0.554476,-0.729381,68.074575,45.265870,164.702079
17044,NaN,-6.319496,6.001554,2.389740,-0.139301,0.006008,-0.776866,-0.005879,-0.239147,0.027954,-0.315911,0.246363,-0.554137,-0.729683,67.952331,45.206428,164.524596
17045,NaN,-6.800053,5.959068,2.421455,0.222474,-0.056083,-0.455230,0.040339,-0.117541,0.023816,-0.316273,0.245818,-0.554151,-0.729700,67.920429,45.175737,164.437353
17046,NaN,-7.054512,6.174288,2.569106,0.240825,-0.007272,-0.095166,0.050628,-0.133355,0.034407,-0.316649,0.245166,-0.554193,-0.729724,67.888896,45.135432,164.341897
17047,NaN,-7.298536,6.379513,2.768913,0.260879,0.090343,0.264884,0.024823,-0.232369,0.033551,-0.317274,0.244200,-0.553979,-0.729939,67.789296,45.074697,164.171506
17048,NaN,-7.399588,6.527839,2.968401,0.227315,0.214501,0.486839,-0.020599,-0.343447,0.024695,-0.318179,0.242920,-0.553414,-0.730400,67.603770,44.993612,163.915879
17049,NaN,-7.331440,6.650841,3.373016,0.097410,0.562253,0.629305,-0.076209,-0.428287,0.007523,-0.319317,0.241470,-0.552485,-0.731088,67.338071,44.902888,163.591900
17050,NaN,-7.307683,6.608654,3.480347,0.120184,0.635339,0.616649,-0.136791,-0.503659,0.008374,-0.320581,0.239834,-0.551215,-0.732031,67.000129,44.793144,163.213716
17051,NaN,-7.255658,6.616944,3.551573,0.086571,0.661691,0.608282,-0.161241,-0.569473,-0.010898,-0.322069,0.238050,-0.549719,-0.733084,66.610498,44.677566,162.781803
17052,NaN,-6.858277,6.763278,3.670731,-0.283093,0.774523,0.462127,-0.218126,-0.622706,-0.016623,-0.323650,0.236173,-0.547921,-0.734341,66.162309,44.549970,162.311434
17053,NaN,-6.466955,6.813564,3.621123,-0.579207,0.737796,0.211208,-0.304526,-0.669740,0.003632,-0.325183,0.234207,-0.545741,-0.735914,65.646860,44.398487,161.815208
17054,NaN,-6.254367,6.649980,3.433411,-0.599715,0.568119,-0.094416,-0.373040,-0.670409,-0.007078,-0.326669,0.232374,-0.543293,-0.737647,65.093464,44.248610,161.318866
17055,NaN,-6.021237,6.613116,3.345623,-0.730262,0.476032,-0.303665,-0.406424,-0.614678,-0.031113,-0.328052,0.230865,-0.540772,-0.739358,64.545283,44.121741,160.857071
17056,NaN,-5.577801,6.515550,3.037392,-0.962960,0.241320,-0.768124,-0.433844,-0.575956,0.010624,-0.329136,0.229425,-0.538259,-0.741155,64.014584,43.979485,160.441039
17057,NaN,-5.409440,6.235268,2.705705,-0.874467,-0.030701,-1.170024,-0.369111,-0.398789,0.036348,-0.329723,0.228465,-0.536297,-0.742612,63.616256,43.866499,160.162255
17058,NaN,-5.714220,6.661193,3.158456,-0.970615,0.194373,-0.538009,-0.318508,-0.218179,0.111580,-0.329598,0.227889,-0.534908,-0.743845,63.356707,43.759865,160.040636
17059,NaN,-6.738616,6.662567,3.432488,-0.263956,0.167437,0.261185,-0.305690,-0.138254,0.180568,-0.329020,0.227403,-0.533771,-0.745065,63.160335,43.638187,160.000298
17060,NaN,-7.156290,6.554325,3.276431,0.110277,-0.091094,0.428704,-0.300668,-0.136807,0.202187,-0.328359,0.226855,-0.532683,-0.746302,62.974373,43.505749,159.970075
17061,NaN,-7.119510,6.435920,3.269371,0.188735,-0.093841,0.324014,-0.267850,-0.178068,0.245098,-0.327686,0.225985,-0.531691,-0.747568,62.797361,43.340499,159.926259
17062,NaN,-7.262135,6.551651,3.369215,0.225519,-0.094421,0.529189,-0.256736,-0.250030,0.282779,-0.327072,0.224726,-0.530668,-0.748942,62.603317,43.137137,159.847307
17063,NaN,-7.034345,6.285565,3.388579,0.291175,0.000778,0.206683,-0.269063,-0.338406,0.316016,-0.326555,0.223067,-0.529483,-0.750500,62.368624,42.893239,159.719611
17064,NaN,-6.962793,6.218938,3.268884,0.318725,-0.122051,0.072885,-0.260577,-0.377943,0.307056,-0.326181,0.221269,-0.528258,-0.752057,62.120762,42.642987,159.563944
17065,NaN,-6.742637,6.128939,3.316107,0.262197,-0.046167,-0.119779,-0.274064,-0.408954,0.308625,-0.325868,0.219369,-0.526923,-0.753684,61.852206,42.383109,159.389091
17066,NaN,-6.574269,6.073971,3.255156,0.213303,-0.092634,-0.291351,-0.265271,-0.407535,0.292340,-0.325617,0.217502,-0.525607,-0.755251,61.588419,42.131213,159.212222
17067,NaN,-6.451335,6.073391,3.349489,0.156855,-0.016541,-0.341690,-0.266788,-0.392405,0.285760,-0.325350,0.215711,-0.524294,-0.756791,61.330103,41.886270,159.044769
17068,NaN,-6.292655,6.090775,3.543105,0.062710,0.159017,-0.367096,-0.276005,-0.367947,0.279219,-0.325028,0.214043,-0.522980,-0.758310,61.078738,41.650719,158.894097
17069,NaN,-6.091020,6.199310,3.725023,-0.128670,0.314170,-0.363227,-0.297714,-0.333113,0.276902,-0.324602,0.212546,-0.521629,-0.759842,60.830661,41.425644,158.767157
17070,NaN,-6.102577,6.206953,3.800223,-0.103340,0.338315,-0.321422,-0.318329,-0.277227,0.256157,-0.324082,0.211348,-0.520270,-0.761329,60.592560,41.226089,158.671976
17071,NaN,-6.120183,6.175335,3.809760,-0.050791,0.312248,-0.325567,-0.323400,-0.219061,0.225786,-0.323522,0.210458,-0.518946,-0.762716,60.369512,41.057818,158.604592
17072,NaN,-6.161297,6.264995,3.990887,-0.068455,0.411712,-0.170871,-0.317307,-0.177149,0.217202,-0.322888,0.209739,-0.517707,-0.764024,60.167736,40.905535,158.563250
17073,NaN,-6.569982,6.473457,4.016312,0.086400,0.235494,0.244052,-0.309840,-0.172460,0.234571,-0.322185,0.208980,-0.516515,-0.765334,59.976073,40.745881,158.531614
17074,NaN,-7.158289,6.584845,4.038567,0.440915,0.026623,0.709480,-0.302021,-0.266207,0.234266,-0.321729,0.207849,-0.515204,-0.766716,59.750615,40.559307,158.440202
17075,NaN,-7.292120,6.537952,3.950908,0.588520,-0.125667,0.730893,-0.286357,-0.401870,0.204786,-0.321753,0.206247,-0.513696,-0.768149,59.469761,40.347666,158.250094
17076,NaN,-7.289154,6.582930,3.971717,0.577141,-0.173305,0.764542,-0.265783,-0.542027,0.169331,-0.322289,0.204164,-0.512006,-0.769608,59.136472,40.111738,157.958780
17077,NaN,-7.109809,6.563112,3.932110,0.486355,-0.218044,0.618073,-0.254065,-0.679477,0.141027,-0.323297,0.201605,-0.510100,-0.771124,58.748216,39.847929,157.570794
17078,NaN,-6.781666,6.466132,3.910427,0.344599,-0.187467,0.333193,-0.253192,-0.779016,0.112962,-0.324660,0.198727,-0.508005,-0.772680,58.318068,39.565701,157.113389
17079,NaN,-6.408604,6.357323,3.871029,0.177755,-0.156009,0.006385,-0.238926,-0.821816,0.095093,-0.326213,0.195705,-0.505864,-0.774201,57.878216,39.276865,156.625991
17080,NaN,-6.104954,6.335836,3.876136,-0.001607,-0.123599,-0.199052,-0.225758,-0.805048,0.076812,-0.327797,0.192767,-0.503779,-0.775626,57.453880,38.998867,156.147331
17081,NaN,-5.826637,6.258117,3.916397,-0.124520,-0.044871,-0.408753,-0.222017,-0.761621,0.067183,-0.329311,0.190015,-0.501756,-0.776974,57.049479,38.736597,155.695416
17082,NaN,-5.676055,6.245929,4.066442,-0.199360,0.081210,-0.446871,-0.196317,-0.710615,0.074828,-0.330684,0.187394,-0.499924,-0.778208,56.686461,38.483980,155.282488
17083,NaN,-5.577012,6.221769,4.223203,-0.228286,0.205255,-0.455637,-0.185261,-0.654685,0.083455,-0.331892,0.184951,-0.498221,-0.779369,56.355334,38.243252,154.909791
17084,NaN,-5.646497,6.249032,4.396570,-0.171581,0.277206,-0.317604,-0.174004,-0.616221,0.099545,-0.332945,0.182594,-0.496643,-0.780482,56.053320,38.005229,154.570519
17085,NaN,-5.803279,6.285467,4.547452,-0.058632,0.297840,-0.129090,-0.165052,-0.579349,0.115800,-0.333852,0.180327,-0.495165,-0.781561,55.775747,37.770231,154.261955
17086,NaN,-5.865531,6.282901,4.622355,0.011700,0.295704,-0.057808,-0.153472,-0.530136,0.124370,-0.334608,0.178207,-0.493823,-0.782572,55.528385,37.545732,153.989315
17087,NaN,-5.892869,6.310057,4.636704,0.033816,0.246561,-0.015768,-0.130843,-0.482029,0.144069,-0.335188,0.176190,-0.492657,-0.783515,55.316841,37.326779,153.754515
17088,NaN,-5.883480,6.318806,4.680914,0.045673,0.246867,0.005174,-0.104705,-0.436899,0.165962,-0.335589,0.174249,-0.491693,-0.784382,55.144955,37.111589,153.557720
17089,NaN,-5.765764,6.375895,4.697229,-0.055412,0.251911,-0.020171,-0.089619,-0.368612,0.159724,-0.335862,0.172567,-0.490887,-0.785142,55.004319,36.921411,153.399067
17090,NaN,-5.720349,6.363599,4.654073,-0.062303,0.203968,-0.074485,-0.089091,-0.315758,0.147323,-0.336049,0.171119,-0.490167,-0.785828,54.881795,36.754046,153.267938
17091,NaN,-5.713060,6.383459,4.634249,-0.065229,0.155883,-0.074350,-0.096754,-0.296619,0.140548,-0.336213,0.169778,-0.489435,-0.786505,54.759443,36.596136,153.145175
17092,NaN,-5.709926,6.329390,4.587925,-0.017743,0.105474,-0.132710,-0.111369,-0.277660,0.116059,-0.336409,0.168593,-0.488663,-0.787156,54.631107,36.455552,153.024764
17093,NaN,-5.607480,6.297566,4.511238,-0.062196,0.058872,-0.249892,-0.124895,-0.249692,0.096070,-0.336607,0.167589,-0.487860,-0.787783,54.499309,36.333275,152.912211
17094,NaN,-5.454001,6.318578,4.460382,-0.180816,0.040256,-0.350595,-0.131360,-0.216087,0.090108,-0.336737,0.166743,-0.487089,-0.788384,54.375345,36.224871,152.817840
17095,NaN,-5.308056,6.328008,4.460051,-0.284768,0.069832,-0.430513,-0.139017,-0.154289,0.090887,-0.336710,0.166151,-0.486385,-0.788955,54.267629,36.136624,152.759154
17096,NaN,-5.366402,6.331222,4.559363,-0.233166,0.117461,-0.346841,-0.146963,-0.079453,0.097103,-0.336466,0.165853,-0.485787,-0.789490,54.183406,36.070453,152.747004
17097,NaN,-5.633380,6.439462,4.749716,-0.099751,0.137639,-0.028388,-0.171497,-0.056474,0.109071,-0.336103,0.165661,-0.485133,-0.790087,54.094743,36.006848,152.752377
17098,NaN,-6.057486,6.458457,4.774346,0.197524,-0.020833,0.245131,-0.199968,-0.065985,0.109054,-0.335734,0.165475,-0.484357,-0.790758,53.987791,35.939635,152.753195
17099,NaN,-6.470308,6.437666,4.729323,0.509302,-0.229323,0.451955,-0.216127,-0.145504,0.077709,-0.335671,0.165078,-0.483350,-0.791484,53.836119,35.860046,152.694977
17100,NaN,-6.710993,6.403175,4.705093,0.707615,-0.359528,0.557746,-0.210027,-0.267677,0.032800,-0.336083,0.164296,-0.482131,-0.792215,53.637787,35.759712,152.549470
17101,NaN,-6.855580,6.367086,4.765911,0.843523,-0.389313,0.646252,-0.191779,-0.418634,-0.013601,-0.337058,0.162994,-0.480686,-0.792948,53.388485,35.628588,152.299005
17102,NaN,-6.655165,6.366585,4.828887,0.708429,-0.309330,0.557700,-0.180821,-0.583929,-0.046105,-0.338563,0.161097,-0.478980,-0.793726,53.085319,35.454996,151.943416
17103,NaN,-6.304427,6.377043,4.957368,0.465063,-0.126771,0.422315,-0.189583,-0.698990,-0.057442,-0.340382,0.158785,-0.477026,-0.794590,52.738480,35.245387,151.520010
17104,NaN,-5.990249,6.367492,5.014327,0.260335,-0.019307,0.262179,-0.216673,-0.786610,-0.046785,-0.342337,0.156142,-0.474821,-0.795594,52.354435,34.998010,151.055849
17105,NaN,-5.626763,6.327475,5.012172,0.037919,0.064175,0.026685,-0.259013,-0.805092,-0.054400,-0.344331,0.153515,-0.472396,-0.796688,51.941176,34.745237,150.581131
17106,NaN,-5.283070,6.181693,4.913218,-0.106828,0.094796,-0.313051,-0.276641,-0.750528,-0.066079,-0.346219,0.151159,-0.469983,-0.797746,51.536534,34.514016,150.135432
17107,NaN,-5.021049,6.157448,4.976050,-0.265618,0.200226,-0.443845,-0.277901,-0.669594,-0.034274,-0.347790,0.149057,-0.467716,-0.798790,51.165810,34.295715,149.749818
17108,NaN,-4.886329,6.164788,5.100531,-0.349302,0.302773,-0.448804,-0.281918,-0.561146,0.010560,-0.348916,0.147282,-0.465657,-0.799831,50.840347,34.093958,149.445418
17109,NaN,-4.865843,6.098895,5.151683,-0.306703,0.325887,-0.473933,-0.274110,-0.443472,0.055254,-0.349595,0.145857,-0.463861,-0.800838,50.567225,33.913646,149.224987
17110,NaN,-4.984604,5.984136,5.179756,-0.132704,0.294014,-0.464861,-0.256531,-0.332411,0.096568,-0.349859,0.144751,-0.462359,-0.801792,50.348684,33.754938,149.083640
17111,NaN,-5.284378,6.047488,5.419623,0.067434,0.311167,-0.129320,-0.218227,-0.268974,0.135284,-0.349852,0.143749,-0.461141,-0.802676,50.179827,33.602628,148.993130
17112,NaN,-5.648825,6.145881,5.529380,0.281633,0.181021,0.194456,-0.184391,-0.286581,0.159413,-0.349807,0.142555,-0.460051,-0.803534,50.032841,33.432417,148.905338
17113,NaN,-5.816430,6.211706,5.592424,0.377356,0.104542,0.362670,-0.151551,-0.350961,0.144085,-0.349996,0.141077,-0.458960,-0.804335,49.881965,33.244662,148.777069
17114,NaN,-5.735618,6.192755,5.619413,0.353081,0.130765,0.320594,-0.118961,-0.420523,0.117615,-0.350471,0.139325,-0.457865,-0.805058,49.725370,33.042829,148.602258
17115,NaN,-5.647647,6.289262,5.609387,0.241370,0.088042,0.328799,-0.094465,-0.489598,0.086344,-0.351248,0.137323,-0.456717,-0.805715,49.555952,32.828650,148.378114
17116,NaN,-5.437221,6.203433,5.488938,0.156910,0.067353,0.094131,-0.072819,-0.541249,0.042705,-0.352328,0.135173,-0.455538,-0.806274,49.376392,32.613625,148.109910
17117,NaN,-5.234558,6.215253,5.413782,0.013426,0.049846,-0.048664,-0.048949,-0.553550,0.015325,-0.353564,0.132997,-0.454402,-0.806736,49.200657,32.405478,147.823894
17118,NaN,-5.037369,6.275950,5.358904,-0.159330,0.034209,-0.145537,-0.036795,-0.533886,-0.005995,-0.354842,0.130922,-0.453342,-0.807110,49.035315,32.212943,147.540633
17119,NaN,-4.781709,6.276870,5.329024,-0.332543,0.091666,-0.297266,-0.031973,-0.463690,-0.020399,-0.356026,0.129156,-0.452413,-0.807395,48.889346,32.052861,147.287320
17120,NaN,-4.566118,6.376845,5.385857,-0.538396,0.175944,-0.315311,-0.032802,-0.372636,-0.012729,-0.356965,0.127739,-0.451646,-0.807635,48.770623,31.922849,147.085203
17121,NaN,-4.529506,6.391727,5.520295,-0.551008,0.275586,-0.248972,-0.054427,-0.281984,0.002669,-0.357626,0.126691,-0.450960,-0.807891,48.667612,31.820146,146.935907
17122,NaN,-4.621625,6.328968,5.623262,-0.423798,0.319472,-0.181767,-0.071829,-0.199897,0.025798,-0.357993,0.125954,-0.450367,-0.808175,48.582733,31.738377,146.839326
17123,NaN,-4.736897,6.266751,5.645576,-0.291859,0.289379,-0.147598,-0.082083,-0.130533,0.040291,-0.358142,0.125485,-0.449855,-0.808467,48.512360,31.676665,146.783731
17124,NaN,-5.067450,6.273047,5.630632,-0.058923,0.108514,0.021890,-0.068788,-0.094363,0.055417,-0.358154,0.125102,-0.449481,-0.808729,48.464444,31.622067,146.753917
17125,NaN,-5.449468,6.317798,5.659309,0.190119,-0.072982,0.266874,-0.051463,-0.113209,0.054408,-0.358227,0.124621,-0.449129,-0.808966,48.419261,31.561192,146.713412
17126,NaN,-5.726100,6.293551,5.693296,0.414130,-0.180275,0.415049,-0.046155,-0.186451,0.037123,-0.358533,0.123866,-0.448670,-0.809201,48.355988,31.479348,146.629310
17127,NaN,-5.751255,6.302632,5.735216,0.438424,-0.180442,0.457073,-0.037198,-0.276719,0.018245,-0.359129,0.122775,-0.448070,-0.809436,48.269418,31.371617,146.491086
17128,NaN,-5.630642,6.262992,5.743259,0.390593,-0.128797,0.372841,-0.039105,-0.358647,0.009523,-0.359935,0.121372,-0.447311,-0.809709,48.159565,31.235605,146.309036
17129,NaN,-5.457160,6.199712,5.656744,0.311311,-0.125146,0.192466,-0.040638,-0.415340,0.008473,-0.360876,0.119748,-0.446435,-0.810015,48.033560,31.078457,146.098191
17130,NaN,-5.210009,6.134301,5.680335,0.196487,0.002798,0.036238,-0.028054,-0.437794,0.001295,-0.361896,0.118022,-0.445570,-0.810289,47.909390,30.914928,145.874425
17131,NaN,-4.964316,6.100582,5.687362,0.059465,0.107375,-0.107407,-0.020743,-0.435569,0.002068,-0.362914,0.116289,-0.444731,-0.810546,47.790095,30.751285,145.652268
17132,NaN,-4.831338,6.132346,5.724523,-0.038665,0.161995,-0.133336,-0.020719,-0.410008,0.004243,-0.363862,0.114654,-0.443943,-0.810786,47.679656,30.596423,145.445060
17133,NaN,-4.642048,6.198300,5.742927,-0.203675,0.219850,-0.176357,-0.028819,-0.371734,0.010873,-0.364695,0.113175,-0.443189,-0.811032,47.575486,30.453205,145.259703
17134,NaN,-4.493315,6.206728,5.723806,-0.306940,0.249997,-0.256614,-0.053450,-0.325721,0.015508,-0.365389,0.111916,-0.442426,-0.811311,47.471268,30.325538,145.100108
17135,NaN,-4.424490,6.184994,5.733199,-0.330864,0.276191,-0.298801,-0.066086,-0.272216,0.021410,-0.365933,0.110879,-0.441707,-0.811600,47.374257,30.215178,144.969313
17136,NaN,-4.560425,6.239964,5.771434,-0.260302,0.200975,-0.172361,-0.068512,-0.203688,0.041872,-0.366240,0.110084,-0.441118,-0.811889,47.298198,30.123338,144.881871
17137,NaN,-4.786350,6.293313,5.857206,-0.119183,0.122372,0.025636,-0.071782,-0.140377,0.058241,-0.366343,0.109520,-0.440630,-0.812184,47.237849,30.049205,144.832069
17138,NaN,-4.888293,6.322714,5.825422,-0.066322,0.023105,0.076838,-0.069360,-0.096458,0.081182,-0.366254,0.109075,-0.440255,-0.812488,47.196575,29.982408,144.814726
17139,NaN,-4.958348,6.307723,5.811713,-0.002576,-0.028156,0.094269,-0.058755,-0.070663,0.087103,-0.366094,0.108706,-0.439969,-0.812764,47.168026,29.923657,144.811877
17140,NaN,-4.987849,6.318991,5.845920,0.021930,-0.028228,0.136271,-0.047967,-0.060984,0.094828,-0.365883,0.108336,-0.439754,-0.813025,47.150714,29.864932,144.817956
17141,NaN,-4.938763,6.262184,5.799627,0.026087,-0.028351,0.048373,-0.039643,-0.052391,0.086937,-0.365691,0.108003,-0.439575,-0.813252,47.137190,29.812623,144.824038
17142,NaN,-4.829210,6.176470,5.763600,0.008018,0.021459,-0.081880,-0.032131,-0.045360,0.073243,-0.365541,0.107715,-0.439440,-0.813430,47.127894,29.769055,144.828008
17143,NaN,-4.720364,6.222872,5.852554,-0.083719,0.124989,-0.053808,-0.034083,-0.039440,0.063301,-0.365422,0.107483,-0.439290,-0.813596,47.114656,29.732329,144.829660
17144,NaN,-4.673990,6.181774,5.843086,-0.086679,0.150106,-0.108456,-0.049533,-0.021063,0.051413,-0.365298,0.107374,-0.439118,-0.813759,47.096357,29.707401,144.835592
17145,NaN,-4.576077,6.106091,5.877553,-0.098246,0.248751,-0.184659,-0.057742,0.009655,0.045296,-0.365131,0.107418,-0.438959,-0.813914,47.078479,29.697026,144.852941
17146,NaN,-4.691636,6.068637,5.900136,0.012785,0.219643,-0.137823,-0.051381,0.027591,0.048837,-0.364910,0.107516,-0.438867,-0.814050,47.070193,29.692167,144.881228
17147,NaN,-4.765331,6.073990,6.009475,0.077114,0.266689,-0.033196,-0.044363,0.038229,0.050925,-0.364666,0.107642,-0.438817,-0.814170,47.067849,29.690855,144.914802
17148,NaN,-4.807634,6.147007,6.009250,0.057102,0.220282,0.034056,-0.038202,0.052631,0.059700,-0.364352,0.107793,-0.438829,-0.814283,47.075519,29.691212,144.960060
17149,NaN,-4.885650,6.150255,6.026249,0.113666,0.193904,0.084806,-0.037456,0.032823,0.061809,-0.364077,0.107857,-0.438801,-0.814413,47.078113,29.682627,144.996048
17150,NaN,-4.796391,6.086879,5.914336,0.079356,0.171007,-0.065929,-0.031848,0.011747,0.057637,-0.363865,0.107835,-0.438764,-0.814531,47.079176,29.667892,145.020630
17151,NaN,-4.748299,6.180235,5.903077,-0.018735,0.152766,-0.036989,-0.017249,0.023962,0.053163,-0.363655,0.107848,-0.438794,-0.814606,47.088866,29.659640,145.048334
17152,NaN,-4.749255,6.213175,5.888209,-0.041373,0.130555,-0.024367,-0.017222,0.054310,0.051540,-0.363383,0.107986,-0.438891,-0.814658,47.107119,29.664058,145.090727
17153,NaN,-4.868491,6.161571,5.867136,0.076714,0.076115,-0.010710,-0.014203,0.080268,0.058671,-0.363030,0.108209,-0.439044,-0.814703,47.133861,29.675562,145.148152
17154,NaN,-4.979978,6.115180,5.811731,0.181107,-0.002102,-0.017841,-0.005542,0.077989,0.058045,-0.362685,0.108408,-0.439234,-0.814728,47.165938,29.686441,145.204924
17155,NaN,-5.051108,6.142185,5.830038,0.216574,-0.027340,0.045397,-0.001700,0.073488,0.042276,-0.362418,0.108617,-0.439411,-0.814723,47.193884,29.701878,145.251759
17156,NaN,-5.046224,6.180184,5.779269,0.180121,-0.073433,0.037245,0.006940,0.058752,0.029078,-0.362240,0.108779,-0.439601,-0.814678,47.222103,29.717399,145.286266
17157,NaN,-5.046448,6.199659,5.814370,0.172290,-0.047481,0.070498,0.019214,0.046558,0.026811,-0.362112,0.108882,-0.439810,-0.814608,47.252574,29.729978,145.313051
17158,NaN,-5.047543,6.251445,5.835279,0.142383,-0.044549,0.116385,0.031474,0.032536,0.033467,-0.361987,0.108883,-0.440056,-0.814531,47.289549,29.733426,145.336845
17159,NaN,-5.026375,6.267605,5.856403,0.122254,-0.018245,0.128615,0.039188,0.026882,0.039461,-0.361856,0.108834,-0.440312,-0.814457,47.329060,29.731854,145.359902
17160,NaN,-4.983637,6.296788,5.902357,0.082628,0.033975,0.153054,0.046102,0.014288,0.046781,-0.361725,0.108705,-0.440591,-0.814382,47.372976,29.722579,145.380795
17161,NaN,-4.823069,6.410826,5.953513,-0.097831,0.118380,0.176377,0.048730,0.010023,0.046425,-0.361610,0.108554,-0.440867,-0.814303,47.416418,29.711751,145.398772
17162,NaN,-4.732204,6.434379,5.939133,-0.176047,0.147796,0.137963,0.036489,0.018676,0.046896,-0.361464,0.108460,-0.441115,-0.814247,47.455892,29.704101,145.421829
17163,NaN,-4.590168,6.356863,5.906477,-0.226019,0.223479,-0.001226,0.027152,0.046249,0.038285,-0.361291,0.108518,-0.441360,-0.814183,47.493262,29.711021,145.453666
17164,NaN,-4.543750,6.354538,5.841274,-0.264987,0.201586,-0.064075,0.027696,0.080082,0.044054,-0.361016,0.108696,-0.441682,-0.814107,47.541881,29.728305,145.505324
17165,NaN,-4.526112,6.303968,5.797559,-0.248340,0.200815,-0.130984,0.023362,0.099169,0.041737,-0.360709,0.108966,-0.442009,-0.814029,47.590793,29.753989,145.564555
17166,NaN,-4.591950,6.385381,5.803755,-0.256143,0.154104,-0.042666,0.022249,0.119210,0.034038,-0.360385,0.109335,-0.442373,-0.813925,47.643623,29.790546,145.630896
17167,NaN,-4.708665,6.388276,5.768151,-0.181462,0.077523,-0.003803,0.011669,0.143615,0.022923,-0.360046,0.109844,-0.442719,-0.813819,47.692196,29.840280,145.703694
17168,NaN,-4.986809,6.428385,5.749582,-0.015479,-0.076240,0.149442,0.006235,0.146941,0.018170,-0.359716,0.110389,-0.443058,-0.813706,47.739251,29.894154,145.776671
17169,NaN,-5.200619,6.375392,5.771516,0.172982,-0.134266,0.234925,-0.005392,0.130437,0.011719,-0.359447,0.110906,-0.443310,-0.813618,47.773122,29.944611,145.838030
17170,NaN,-5.257286,6.329332,5.710182,0.232712,-0.186039,0.198152,0.006062,0.098750,-0.001724,-0.359304,0.111300,-0.443551,-0.813496,47.804057,29.988296,145.878713
17171,NaN,-5.233518,6.346954,5.696050,0.198688,-0.183464,0.189581,0.031222,0.084824,-0.002140,-0.359214,0.111598,-0.443858,-0.813327,47.844298,30.027231,145.911609
17172,NaN,-5.128496,6.331278,5.679398,0.130436,-0.130454,0.117473,0.061358,0.080328,-0.006925,-0.359164,0.111829,-0.444288,-0.813083,47.901333,30.065994,145.941046
17173,NaN,-5.052414,6.366872,5.732270,0.058861,-0.052220,0.132998,0.086812,0.075288,-0.003535,-0.359125,0.111983,-0.444801,-0.812798,47.970825,30.100474,145.969040
17174,NaN,-4.964917,6.328237,5.740757,0.025442,0.023347,0.069219,0.106720,0.078914,0.007574,-0.359044,0.112095,-0.445420,-0.812480,48.056822,30.132457,146.004336
17175,NaN,-4.936287,6.306684,5.788501,0.029117,0.097358,0.068486,0.124357,0.079606,0.008457,-0.358976,0.112179,-0.446109,-0.812120,48.152575,30.164911,146.039488
17176,NaN,-4.830094,6.313648,5.806006,-0.046210,0.175606,0.029502,0.121253,0.091274,0.006773,-0.358878,0.112317,-0.446808,-0.811760,48.249899,30.201856,146.080682
17177,NaN,-4.846000,6.348067,5.812093,-0.055186,0.177174,0.062921,0.122410,0.112581,0.002089,-0.358754,0.112546,-0.447538,-0.811380,48.350975,30.248295,146.129843
17178,NaN,-4.634926,6.332155,5.728576,-0.206321,0.234123,-0.101977,0.107770,0.136343,0.001132,-0.358571,0.112903,-0.448260,-0.811013,48.450748,30.304677,146.191101
17179,NaN,-4.704698,6.385140,5.740281,-0.191963,0.210348,-0.026273,0.097265,0.178782,-0.004701,-0.358313,0.113464,-0.449002,-0.810639,48.552661,30.379336,146.270401
17180,NaN,-4.817372,6.412226,5.700554,-0.138441,0.135309,0.025123,0.086392,0.205188,-0.014346,-0.358025,0.114173,-0.449751,-0.810251,48.654418,30.468267,146.359496
17181,NaN,-4.901488,6.473100,5.690428,-0.125431,0.087078,0.101102,0.076348,0.220614,-0.001953,-0.357644,0.114928,-0.450482,-0.809906,48.755960,30.556418,146.461559
17182,NaN,-4.997603,6.525094,5.621182,-0.106784,-0.010465,0.144171,0.063957,0.254695,-0.005280,-0.357194,0.115857,-0.451233,-0.809555,48.860034,30.659847,146.579966
17183,NaN,-5.121904,6.479199,5.549575,-0.002787,-0.089406,0.137371,0.056077,0.266009,-0.011453,-0.356738,0.116854,-0.451955,-0.809209,48.959970,30.769019,146.701198
17184,NaN,-5.136676,6.499412,5.571475,-0.010377,-0.063232,0.170548,0.049420,0.240951,-0.011540,-0.356335,0.117767,-0.452617,-0.808885,49.051486,30.869636,146.810620
17185,NaN,-5.241299,6.513715,5.550259,0.044453,-0.114109,0.221755,0.046315,0.223911,-0.033070,-0.356056,0.118662,-0.453216,-0.808541,49.131317,30.972500,146.901804
17186,NaN,-5.281824,6.385213,5.549636,0.151804,-0.071357,0.159218,0.042507,0.192596,-0.069469,-0.355992,0.119523,-0.453728,-0.808156,49.193837,31.079854,146.961996
17187,NaN,-5.166215,6.342198,5.479814,0.078414,-0.043256,0.032797,0.048342,0.156862,-0.093165,-0.356108,0.120279,-0.454176,-0.807740,49.243821,31.183431,146.993278
17188,NaN,-4.840523,6.259034,5.430487,-0.116378,0.113260,-0.217378,0.076767,0.165681,-0.129155,-0.356366,0.121105,-0.454741,-0.807185,49.305740,31.306540,147.014088
17189,NaN,-4.679930,6.214189,5.390089,-0.220142,0.192119,-0.353009,0.126394,0.225001,-0.181751,-0.356733,0.122198,-0.455576,-0.806387,49.399340,31.474231,147.041692
17190,NaN,-4.745281,6.228687,5.485996,-0.187568,0.265505,-0.257343,0.170921,0.273219,-0.199237,-0.357084,0.123449,-0.456668,-0.805423,49.528332,31.667842,147.087382
17191,NaN,-4.876587,6.309379,5.639488,-0.147484,0.339633,-0.052771,0.179309,0.311238,-0.199560,-0.357358,0.124839,-0.457857,-0.804411,49.672210,31.875955,147.152349
17192,NaN,-4.959641,6.370734,5.785728,-0.130616,0.439208,0.109451,0.162934,0.328665,-0.185307,-0.357518,0.126294,-0.459021,-0.803449,49.815959,32.083811,147.234020
17193,NaN,-5.040080,6.371761,5.726316,-0.100602,0.389235,0.118611,0.138953,0.339008,-0.173708,-0.357592,0.127803,-0.460103,-0.802558,49.950742,32.289469,147.326274
17194,NaN,-5.067173,6.302858,5.639249,-0.064315,0.362558,0.039605,0.120037,0.355270,-0.168229,-0.357592,0.129402,-0.461149,-0.801701,50.082640,32.499290,147.430766
17195,NaN,-5.085204,6.267985,5.504590,-0.064305,0.289002,-0.047461,0.112805,0.368529,-0.168603,-0.357560,0.131060,-0.462188,-0.800848,50.214768,32.713459,147.542198
17196,NaN,-5.181424,6.216588,5.342889,-0.000619,0.162868,-0.116662,0.106609,0.386974,-0.159277,-0.357439,0.132788,-0.463239,-0.800009,50.351656,32.930530,147.668878
17197,NaN,-5.362355,6.222017,5.305055,0.098247,0.085050,-0.035422,0.103555,0.408311,-0.157145,-0.357261,0.134600,-0.464305,-0.799167,50.492873,33.154071,147.807678
17198,NaN,-5.529969,6.307858,5.352397,0.140975,0.060857,0.136888,0.096253,0.407144,-0.157603,-0.357076,0.136422,-0.465347,-0.798335,50.631948,33.377221,147.947664
17199,NaN,-5.646863,6.417292,5.327935,0.122519,-0.009149,0.259073,0.073568,0.387982,-0.149164,-0.356889,0.138184,-0.466266,-0.797579,50.754970,33.589318,148.081265
17200,NaN,-5.665115,6.416184,5.270199,0.108113,-0.032120,0.238338,0.043129,0.368817,-0.130886,-0.356647,0.139884,-0.467041,-0.796936,50.860586,33.786223,148.214253
17201,NaN,-5.774298,6.334747,5.137661,0.206387,-0.136199,0.177600,0.028140,0.362117,-0.127005,-0.356398,0.141575,-0.467734,-0.796343,50.955433,33.978570,148.345037
17202,NaN,-5.933909,6.259472,5.061705,0.343386,-0.217233,0.179705,0.049139,0.328027,-0.130735,-0.356252,0.143100,-0.468458,-0.795710,51.053773,34.160320,148.457576
17203,NaN,-6.087447,6.244026,5.067786,0.445165,-0.246297,0.260466,0.070867,0.262575,-0.130589,-0.356280,0.144321,-0.469148,-0.795070,51.144998,34.318117,148.534478
17204,NaN,-6.077043,6.226048,5.057922,0.433727,-0.220601,0.239171,0.087164,0.192962,-0.141128,-0.356518,0.145266,-0.469773,-0.794422,51.222448,34.455708,148.570542
17205,NaN,-5.933691,6.218987,5.024344,0.319904,-0.165205,0.137129,0.095224,0.136357,-0.156640,-0.356961,0.146005,-0.470310,-0.793770,51.282426,34.579752,148.568351
17206,NaN,-5.664199,6.260275,5.042541,0.089664,-0.029137,0.020547,0.091778,0.108144,-0.162546,-0.357486,0.146654,-0.470784,-0.793132,51.331413,34.696475,148.549458
17207,NaN,-5.513813,6.294133,5.056655,-0.052212,0.053089,-0.036061,0.077816,0.115431,-0.163672,-0.357992,0.147359,-0.471207,-0.792522,51.373010,34.816299,148.533048
17208,NaN,-5.435108,6.319925,5.101128,-0.135857,0.132502,-0.041950,0.048171,0.135691,-0.157863,-0.358400,0.148184,-0.471560,-0.791973,51.406797,34.940797,148.531381
17209,NaN,-5.426418,6.349472,5.122544,-0.176956,0.160415,-0.017527,0.024199,0.156358,-0.152236,-0.358722,0.149122,-0.471844,-0.791483,51.432547,35.069932,148.542687
17210,NaN,-5.486232,6.437314,4.998189,-0.228707,0.018087,0.009072,0.001250,0.195274,-0.167787,-0.358993,0.150289,-0.472110,-0.790980,51.455823,35.220156,148.569472
17211,NaN,-5.530153,6.341206,4.931965,-0.159187,-0.010954,-0.061163,0.002021,0.239696,-0.210752,-0.359332,0.151729,-0.472420,-0.790366,51.482210,35.405138,148.601178
17212,NaN,-5.554892,6.160164,4.731637,-0.059798,-0.116936,-0.264103,0.051253,0.272631,-0.271450,-0.359866,0.153357,-0.472941,-0.789496,51.532843,35.629412,148.625494
17213,NaN,-5.541964,6.017120,4.637235,-0.004919,-0.121657,-0.410131,0.150153,0.277328,-0.334542,-0.360718,0.154973,-0.473805,-0.788273,51.624798,35.883758,148.624158
17214,NaN,-5.547277,6.041490,4.754278,-0.035952,0.004442,-0.332521,0.237507,0.261024,-0.366352,-0.361794,0.156443,-0.474962,-0.786792,51.754628,36.146511,148.601382
17215,NaN,-5.482078,6.180241,4.851661,-0.198346,0.114544,-0.234873,0.273473,0.256905,-0.363845,-0.362899,0.157825,-0.476239,-0.785233,51.902807,36.406669,148.577065
17216,NaN,-5.461889,6.258472,4.942948,-0.285248,0.219878,-0.153311,0.262234,0.263732,-0.337442,-0.363869,0.159189,-0.477514,-0.783733,52.055998,36.657419,148.570010
17217,NaN,-5.379388,6.282002,5.069835,-0.371205,0.397689,-0.127211,0.223882,0.307941,-0.303748,-0.364573,0.160713,-0.478736,-0.782349,52.210265,36.908289,148.602563
17218,NaN,-5.340790,6.356725,5.150363,-0.470414,0.503606,-0.066759,0.153693,0.385309,-0.280535,-0.364937,0.162613,-0.479847,-0.781105,52.358836,37.175885,148.691159
17219,NaN,-5.282628,6.292653,5.113276,-0.496183,0.553621,-0.164043,0.097142,0.450220,-0.248929,-0.364979,0.164788,-0.480873,-0.779997,52.506082,37.451213,148.830828
17220,NaN,-5.330396,6.262271,4.964795,-0.485703,0.455031,-0.229621,0.062486,0.539562,-0.208603,-0.364613,0.167281,-0.481962,-0.778966,52.677913,37.739379,149.042092
17221,NaN,-5.409528,6.244395,4.913526,-0.454382,0.429371,-0.220654,0.048428,0.650440,-0.173091,-0.363828,0.170137,-0.483219,-0.777934,52.892235,38.048516,149.334269
17222,NaN,-5.467557,6.265823,4.775882,-0.473606,0.333303,-0.240435,0.055530,0.766300,-0.134685,-0.362613,0.173343,-0.484745,-0.776844,53.166484,38.379690,149.714627
17223,NaN,-5.597615,6.249463,4.671926,-0.412296,0.256824,-0.222088,0.074738,0.887584,-0.093462,-0.360962,0.176879,-0.486586,-0.775664,53.510529,38.731735,150.186879
17224,NaN,-5.680906,6.218994,4.670557,-0.363986,0.303801,-0.193055,0.095424,1.028519,-0.070767,-0.358881,0.180868,-0.488776,-0.774332,53.932237,39.118653,150.759672
17225,NaN,-5.904798,6.235258,4.643013,-0.258750,0.274961,-0.057724,0.122535,1.175427,-0.067271,-0.356448,0.185358,-0.491318,-0.772783,54.433236,39.549276,151.428201
17226,NaN,-6.108058,6.289526,4.523000,-0.204051,0.175747,0.048881,0.125555,1.301534,-0.068455,-0.353692,0.190330,-0.494081,-0.771077,54.995867,40.017695,152.183869
17227,NaN,-6.222990,6.265301,4.387724,-0.153578,0.124054,0.045898,0.100227,1.384403,-0.048078,-0.350618,0.195603,-0.496885,-0.769358,55.593868,40.497288,153.009655
17228,NaN,-6.297878,6.192025,4.298958,-0.089648,0.144507,0.008489,0.087636,1.415525,0.004646,-0.347229,0.200882,-0.499727,-0.767692,56.226268,40.955412,153.891006
17229,NaN,-6.460493,6.111404,4.046281,0.038389,-0.010826,-0.042476,0.069534,1.402610,0.058382,-0.343638,0.205991,-0.502509,-0.766137,56.871188,41.375912,154.798125
17230,NaN,-6.596501,6.021577,3.916414,0.165723,-0.043354,-0.061729,0.076375,1.386359,0.086045,-0.339964,0.210954,-0.505291,-0.764594,57.533511,41.770600,155.719511
17231,NaN,-6.875864,5.974894,3.790589,0.363772,-0.127993,0.046106,0.062729,1.317030,0.109070,-0.336354,0.215603,-0.507895,-0.763167,58.174479,42.124778,156.614955
17232,NaN,-6.846281,6.005988,3.740555,0.299526,-0.074417,0.028003,0.035743,1.244354,0.120060,-0.332838,0.219988,-0.510273,-0.761870,58.783016,42.444860,157.478352
17233,NaN,-6.818947,6.047815,3.755874,0.230015,0.028864,0.042579,0.012875,1.195598,0.109277,-0.329453,0.224232,-0.512454,-0.760639,59.362804,42.748273,158.312462
17234,NaN,-6.834013,6.016772,3.603210,0.243269,-0.021318,-0.023502,0.001406,1.156747,0.114766,-0.326119,0.228338,-0.514514,-0.759463,59.928391,43.032531,159.131791
17235,NaN,-6.815768,6.038931,3.516024,0.196743,-0.018127,-0.053274,0.012109,1.153277,0.122444,-0.322773,0.232380,-0.516599,-0.758250,60.507953,43.305838,159.957947
17236,NaN,-7.019638,6.060163,3.373168,0.305302,-0.121236,0.049898,0.036383,1.143155,0.113006,-0.319499,0.236367,-0.518733,-0.756946,61.102842,43.574969,160.782401
17237,NaN,-7.121156,5.888521,3.164232,0.488613,-0.208127,-0.059986,0.100810,1.109592,0.100694,-0.316431,0.240140,-0.521028,-0.755470,61.723060,43.834283,161.585186
17238,NaN,-7.171257,5.869278,3.019877,0.526413,-0.259463,-0.083871,0.186169,1.065002,0.079035,-0.313648,0.243666,-0.523531,-0.753769,62.372713,44.086574,162.357107
17239,NaN,-7.258992,6.043163,2.970908,0.446870,-0.275901,0.074805,0.257868,1.035277,0.057202,-0.311112,0.247020,-0.526207,-0.751862,63.048772,44.336287,163.105417
17240,NaN,-7.317022,6.165139,3.079908,0.379026,-0.121621,0.230938,0.276228,0.981086,0.067586,-0.308685,0.250105,-0.528876,-0.749967,63.719802,44.559873,163.827455
17241,NaN,-7.317495,6.134329,3.131722,0.387957,0.024837,0.228809,0.261846,0.903430,0.096608,-0.306335,0.252836,-0.531384,-0.748241,64.354215,44.742920,164.507811
17242,NaN,-7.301882,6.275682,3.217780,0.260501,0.158003,0.334352,0.231336,0.839963,0.090600,-0.304125,0.255390,-0.533672,-0.746645,64.943996,44.908536,165.146280
17243,NaN,-7.351885,6.365151,3.175646,0.221000,0.162297,0.413479,0.155475,0.783324,0.060980,-0.302084,0.257920,-0.535540,-0.745265,65.456768,45.071909,165.735422
17244,NaN,-7.285881,6.272066,3.016168,0.239164,0.110338,0.259574,0.083218,0.731380,0.025884,-0.300206,0.260459,-0.537010,-0.744082,65.897440,45.237538,166.279627
17245,NaN,-7.252346,6.297036,2.829509,0.192889,-0.009492,0.198193,0.056739,0.719058,-0.018545,-0.298492,0.263101,-0.538291,-0.742915,66.307723,45.420230,166.801796
17246,NaN,-7.020683,6.338578,2.860588,-0.017287,0.101444,0.068593,0.005513,0.696845,-0.017390,-0.296758,0.265736,-0.539351,-0.741902,66.682490,45.595209,167.312720
17247,NaN,-6.979206,6.220565,2.718683,0.034143,0.046948,-0.076546,-0.051838,0.639204,0.040411,-0.294892,0.268082,-0.540170,-0.741206,67.006823,45.724580,167.799690
17248,NaN,-7.036807,6.166212,2.639031,0.106807,0.017728,-0.092016,-0.071328,0.640922,0.061055,-0.292909,0.270407,-0.540955,-0.740575,67.330745,45.841479,168.298708
17249,NaN,-7.076085,6.423376,2.734560,-0.072992,0.082796,0.126942,-0.097397,0.650871,0.070135,-0.290836,0.272778,-0.541658,-0.740008,67.647829,45.954192,168.808521
17250,NaN,-7.060797,6.304908,2.552064,0.008443,-0.022305,-0.008654,-0.137776,0.630793,0.096504,-0.288653,0.275061,-0.542220,-0.739607,67.940087,46.046288,169.314616
17251,NaN,-6.981697,6.119460,2.368446,0.096557,-0.104941,-0.232450,-0.133027,0.665193,0.081847,-0.286446,0.277502,-0.542816,-0.739116,68.251150,46.152537,169.842455
17252,NaN,-7.047919,6.065677,2.210129,0.185106,-0.208961,-0.259041,-0.083284,0.722206,0.060256,-0.284218,0.280136,-0.543647,-0.738371,68.621295,46.279252,170.411359
17253,NaN,-7.089175,6.051073,2.158889,0.217337,-0.210843,-0.250220,-0.044510,0.741462,0.073365,-0.281944,0.282743,-0.544652,-0.737508,69.028152,46.400132,171.000055
17254,NaN,-7.159258,5.888945,1.927945,0.396980,-0.347047,-0.358941,0.015369,0.760336,0.072250,-0.279700,0.285338,-0.545903,-0.736437,69.484287,46.522512,171.607284
17255,NaN,-7.194345,5.899368,1.870845,0.408023,-0.347347,-0.337789,0.114067,0.812549,0.049306,-0.277542,0.288046,-0.547539,-0.734984,70.022765,46.664583,172.249925
17256,NaN,-7.029856,6.347279,2.525257,-0.121545,0.258242,-0.014635,0.133632,0.895047,0.050527,-0.275168,0.291021,-0.549363,-0.733341,70.626111,46.816853,172.963455
17257,NaN,-6.930222,6.601173,2.837140,-0.429827,0.576434,0.143988,0.078168,0.897067,0.074461,-0.272622,0.294004,-0.551004,-0.731870,71.206307,46.951554,173.687591
17258,NaN,-7.312150,6.593347,2.679397,-0.160732,0.463711,0.379355,0.019194,0.835952,0.102806,-0.270042,0.296764,-0.552383,-0.730672,71.727810,47.054879,174.375815
17259,NaN,-7.660174,6.529224,2.429060,0.141533,0.273761,0.536907,-0.017377,0.734400,0.077694,-0.267784,0.299266,-0.553440,-0.729682,72.165305,47.150526,174.977165
17260,NaN,-7.842630,6.397852,2.185380,0.380679,0.110339,0.534194,-0.031793,0.616034,0.038082,-0.265965,0.301463,-0.554226,-0.728846,72.520873,47.243781,175.476884
17261,NaN,-7.804678,6.338483,1.969292,0.416342,-0.040633,0.424127,-0.045380,0.516693,0.025390,-0.264453,0.303347,-0.554799,-0.728179,72.807230,47.325570,175.893074
17262,NaN,-7.478602,6.225957,1.714086,0.303159,-0.209256,0.061234,-0.056413,0.491527,0.007586,-0.263048,0.305203,-0.555275,-0.727548,73.072278,47.411058,176.287556
17263,NaN,-7.234985,6.118181,1.668950,0.210728,-0.182218,-0.195784,-0.032901,0.519341,-0.000498,-0.261640,0.307150,-0.555844,-0.726802,73.364276,47.504996,176.701659
17264,NaN,-7.129929,6.262938,1.755795,0.009660,-0.093533,-0.162084,-0.026972,0.541728,0.023925,-0.260079,0.309100,-0.556511,-0.726025,73.681993,47.586941,177.143542
17265,NaN,-7.137108,6.279524,1.672897,0.004912,-0.141922,-0.161312,-0.069525,0.564120,0.044741,-0.258321,0.311124,-0.557076,-0.725354,73.992406,47.659833,177.608129
17266,NaN,-7.062353,6.216474,1.540206,0.012596,-0.217431,-0.281367,-0.098739,0.579116,0.060836,-0.256406,0.313195,-0.557580,-0.724754,74.300624,47.724035,178.091742
17267,NaN,-7.169704,6.320904,1.511910,0.007806,-0.239406,-0.138656,-0.116585,0.555348,0.096971,-0.254399,0.315097,-0.558022,-0.724298,74.587193,47.762759,178.562773
17268,NaN,-7.299568,6.321636,1.423992,0.106426,-0.293800,-0.056827,-0.131442,0.551019,0.119634,-0.252294,0.316939,-0.558454,-0.723897,74.871080,47.786908,179.038197
17269,NaN,-7.530447,6.394209,1.510784,0.192676,-0.198401,0.177280,-0.136266,0.518266,0.131053,-0.250230,0.318628,-0.558828,-0.723583,75.131198,47.797787,179.487468
17270,NaN,-7.651706,6.396999,1.580288,0.259665,-0.103323,0.281338,-0.155162,0.456999,0.137826,-0.248281,0.320104,-0.559078,-0.723410,75.347471,47.795286,179.889801
17271,NaN,-7.670599,6.410149,1.636747,0.254891,-0.028999,0.313576,-0.172660,0.378124,0.149299,-0.246485,0.321279,-0.559170,-0.723432,75.504604,47.774047,-179.772437
17272,NaN,-7.611554,6.320820,1.643624,0.283584,0.016605,0.212745,-0.186543,0.292398,0.168314,-0.244832,0.322110,-0.559146,-0.723642,75.606656,47.729612,-179.499833
17273,NaN,-7.536651,6.307881,1.579591,0.263342,-0.032332,0.137950,-0.181656,0.227121,0.165351,-0.243377,0.322697,-0.559032,-0.723959,75.665782,47.676155,-179.284695
17274,NaN,-7.448866,6.339205,1.612163,0.185048,-0.002474,0.098717,-0.180806,0.195617,0.166791,-0.242009,0.323174,-0.558905,-0.724303,75.711092,47.618435,-179.092866
17275,NaN,-7.399381,6.410856,1.711868,0.092653,0.077833,0.125409,-0.193804,0.139789,0.190456,-0.240693,0.323396,-0.558675,-0.724820,75.713119,47.539774,-178.945121
17276,NaN,-7.429549,6.454019,1.802910,0.079083,0.153642,0.190970,-0.225633,0.093073,0.208852,-0.239385,0.323436,-0.558328,-0.725502,75.676353,47.444171,-178.829313
17277,NaN,-7.496865,6.554123,1.839011,0.063724,0.156477,0.312178,-0.262215,0.062663,0.214498,-0.238081,0.323386,-0.557798,-0.726361,75.596188,47.340393,-178.739872
17278,NaN,-7.508906,6.562157,1.877837,0.076472,0.180694,0.332917,-0.308929,0.030121,0.209745,-0.236810,0.323293,-0.557071,-0.727375,75.473683,47.235503,-178.675420
17279,NaN,-7.557269,6.429598,1.740424,0.248924,0.068820,0.257783,-0.312137,0.001331,0.185007,-0.235702,0.323160,-0.556240,-0.728429,75.324539,47.139499,-178.641570
17280,NaN,-7.528554,6.411902,1.674810,0.272206,-0.006738,0.213399,-0.289999,-0.026622,0.170481,-0.234760,0.322946,-0.555449,-0.729431,75.173134,47.048305,-178.631178
17281,NaN,-7.302815,6.473914,1.703297,0.087333,-0.019631,0.093664,-0.291341,-0.092606,0.192054,-0.233920,0.322424,-0.554594,-0.730582,74.982019,46.934615,-178.671319
17282,NaN,-7.156723,6.405143,1.709243,0.054932,-0.019342,-0.057557,-0.275797,-0.128161,0.194788,-0.233193,0.321753,-0.553771,-0.731733,74.783227,46.814850,-178.736965
17283,NaN,-7.190831,6.424776,1.734912,0.078366,-0.020766,-0.015285,-0.238195,-0.091173,0.164189,-0.232531,0.321248,-0.553050,-0.732710,74.617247,46.716148,-178.781707
17284,NaN,-7.213404,6.485561,1.851564,0.043753,0.056808,0.062473,-0.221459,-0.088917,0.165859,-0.231888,0.320736,-0.552423,-0.733611,74.468977,46.618088,-178.820921
17285,NaN,-7.278283,6.468776,1.989275,0.088036,0.176405,0.123950,-0.208384,-0.107776,0.171420,-0.231301,0.320128,-0.551792,-0.734536,74.311349,46.514723,-178.876758
17286,NaN,-7.426897,6.530350,2.048567,0.152973,0.198957,0.283740,-0.204623,-0.140551,0.155607,-0.230864,0.319434,-0.551148,-0.735458,74.141853,46.414127,-178.958690
17287,NaN,-7.382735,6.479387,1.924757,0.202509,0.071271,0.194597,-0.213138,-0.200951,0.141293,-0.230639,0.318566,-0.550360,-0.736495,73.926811,46.312165,-179.093906
17288,NaN,-7.265988,6.406899,1.879066,0.199879,0.020551,0.053079,-0.210068,-0.247362,0.126233,-0.230595,0.317565,-0.549524,-0.737565,73.689064,46.210256,-179.266262
17289,NaN,-7.253073,6.412090,1.910985,0.198511,0.020524,0.053107,-0.194761,-0.274560,0.122443,-0.230671,0.316458,-0.548686,-0.738640,73.441159,46.106397,-179.462318
17290,NaN,-7.329143,6.462139,1.956746,0.224986,0.020416,0.149907,-0.180493,-0.301115,0.104359,-0.230900,0.315282,-0.547859,-0.739684,73.187815,46.006628,-179.680461
17291,NaN,-7.253779,6.502937,2.060231,0.139748,0.075583,0.143451,-0.178164,-0.316699,0.092701,-0.231221,0.314078,-0.546985,-0.740742,72.922729,45.910249,-179.914265
17292,NaN,-7.029903,6.380108,1.924065,0.112943,-0.048845,-0.127022,-0.149892,-0.310580,0.075071,-0.231632,0.312910,-0.546211,-0.741679,72.678430,45.823553,179.855066
17293,NaN,-6.957820,6.316412,2.008247,0.101693,0.024121,-0.203817,-0.092835,-0.278204,0.054455,-0.232122,0.311853,-0.545632,-0.742396,72.478528,45.753429,179.643686
17294,NaN,-6.953676,6.407524,2.012646,0.045810,-0.019378,-0.145309,-0.037655,-0.251945,0.031502,-0.232708,0.310890,-0.545272,-0.742881,72.325073,45.699569,179.449528
17295,NaN,-6.833954,6.459975,2.027553,-0.069171,-0.035864,-0.192964,0.004214,-0.217686,0.015581,-0.233329,0.310047,-0.545072,-0.743186,72.210295,45.660145,179.277127
17296,NaN,-6.731346,6.518442,2.169311,-0.204936,0.072614,-0.197089,0.029376,-0.158953,0.006517,-0.233858,0.309419,-0.545029,-0.743313,72.143246,45.635690,179.149836
17297,NaN,-6.663811,6.556380,2.245262,-0.290085,0.127916,-0.203672,0.031866,-0.122444,0.008919,-0.234288,0.308917,-0.545025,-0.743389,72.095311,45.616679,179.049746
17298,NaN,-6.577990,6.575740,2.285787,-0.368067,0.158061,-0.243222,0.019764,-0.080194,0.027994,-0.234508,0.308534,-0.545071,-0.743445,72.070652,45.594252,178.989395
17299,NaN,-6.671075,6.575757,2.363414,-0.315117,0.228749,-0.159816,0.011101,-0.045055,0.036852,-0.234589,0.308271,-0.545116,-0.743496,72.057923,45.573805,178.956762
17300,NaN,-6.796160,6.590309,2.286811,-0.218801,0.149716,-0.077228,0.006689,-0.010877,0.038850,-0.234559,0.308132,-0.545211,-0.743493,72.066333,45.557677,178.953174
17301,NaN,-6.976934,6.568769,2.272210,-0.071539,0.140166,0.034369,-0.001536,-0.006398,0.044188,-0.234485,0.308002,-0.545265,-0.743530,72.068858,45.539233,178.952244
17302,NaN,-7.191724,6.612053,2.256159,0.055958,0.109243,0.213046,-0.009316,-0.023694,0.044350,-0.234445,0.307818,-0.545295,-0.743598,72.061972,45.517845,178.940069
17303,NaN,-7.293348,6.611923,2.203935,0.141789,0.054715,0.274169,-0.015915,-0.073713,0.035072,-0.234571,0.307481,-0.545212,-0.743758,72.018968,45.493004,178.884833
17304,NaN,-7.352750,6.585776,2.121718,0.222581,-0.024450,0.281218,-0.012767,-0.141827,0.021222,-0.234933,0.306926,-0.545054,-0.743989,71.940535,45.463266,178.775072
17305,NaN,-7.265834,6.518761,2.111735,0.214919,-0.025722,0.172258,-0.016799,-0.205600,0.011586,-0.235500,0.306164,-0.544771,-0.744330,71.819346,45.427359,178.611942
17306,NaN,-7.111919,6.522424,2.081255,0.115996,-0.068621,0.058221,-0.018781,-0.219448,0.000199,-0.236142,0.305383,-0.544467,-0.744670,71.691095,45.394836,178.436941
17307,NaN,-6.852676,6.596211,2.211591,-0.136615,0.022513,-0.048410,-0.034727,-0.223524,0.010735,-0.236735,0.304577,-0.544097,-0.745082,71.550664,45.355746,178.260189
17308,NaN,-6.745571,6.595207,2.230207,-0.207452,0.027172,-0.120964,-0.063331,-0.183623,0.048484,-0.237032,0.303850,-0.543741,-0.745544,71.425973,45.302934,178.125837
17309,NaN,-6.749919,6.554195,2.228911,-0.166279,0.023611,-0.145283,-0.095783,-0.131952,0.091843,-0.236971,0.303233,-0.543374,-0.746083,71.316006,45.234982,178.041852
17310,NaN,-6.860478,6.477938,2.262192,-0.030722,0.063104,-0.109987,-0.115290,-0.099295,0.129278,-0.236658,0.302662,-0.543046,-0.746653,71.223233,45.153484,177.994132
17311,NaN,-7.050867,6.488843,2.274702,0.107494,0.054723,0.035129,-0.138032,-0.088145,0.140613,-0.236234,0.302126,-0.542642,-0.747297,71.122033,45.067288,177.956806
17312,NaN,-7.288670,6.503248,2.315479,0.271749,0.069934,0.222232,-0.158124,-0.096427,0.133865,-0.235831,0.301603,-0.542164,-0.747983,71.007618,44.983718,177.913046
17313,NaN,-7.353494,6.531642,2.264150,0.322175,-0.006675,0.274865,-0.178060,-0.143467,0.118674,-0.235591,0.300974,-0.541512,-0.748783,70.850269,44.900665,177.827469
17314,NaN,-7.306702,6.515341,2.176053,0.331367,-0.106067,0.209870,-0.171327,-0.205169,0.098006,-0.235596,0.300156,-0.540800,-0.749624,70.663645,44.815795,177.691934
17315,NaN,-7.155160,6.481195,2.189896,0.257371,-0.102407,0.082820,-0.150514,-0.227566,0.073453,-0.235787,0.299297,-0.540085,-0.750422,70.469913,44.739787,177.531957
17316,NaN,-7.044825,6.497799,2.170213,0.182799,-0.146401,0.011053,-0.113751,-0.246316,0.047030,-0.236179,0.298394,-0.539462,-0.751106,70.285650,44.673876,177.352523
17317,NaN,-6.922903,6.548361,2.188592,0.067919,-0.162782,-0.036881,-0.080662,-0.245049,0.033336,-0.236667,0.297493,-0.538924,-0.751696,70.115276,44.615102,177.169540
17318,NaN,-6.746208,6.656441,2.359578,-0.155097,-0.047166,-0.047401,-0.064757,-0.240862,0.027185,-0.237192,0.296605,-0.538460,-0.752214,69.959066,44.560188,176.989701
17319,NaN,-6.840562,6.945042,2.627256,-0.324254,0.093957,0.277671,-0.083027,-0.264012,0.049816,-0.237666,0.295591,-0.537916,-0.752853,69.781983,44.488158,176.797985
17320,NaN,-6.747987,6.896406,2.581017,-0.335462,0.044517,0.169437,-0.152973,-0.262441,0.087383,-0.237890,0.294564,-0.537181,-0.753709,69.576584,44.395807,176.619617
17321,NaN,-6.660854,6.652454,2.484351,-0.200109,0.005467,-0.078523,-0.200439,-0.223817,0.107241,-0.237870,0.293684,-0.536331,-0.754664,69.366736,44.300302,176.475326
17322,NaN,-6.822531,6.546643,2.573995,-0.015363,0.090402,-0.013584,-0.230693,-0.188303,0.121688,-0.237651,0.292935,-0.535439,-0.755656,69.163769,44.203690,176.363649
17323,NaN,-6.893634,6.524122,2.592297,0.061950,0.085061,0.025769,-0.249493,-0.179609,0.123987,-0.237376,0.292237,-0.534475,-0.756694,68.953111,44.107864,176.258469
17324,NaN,-6.895013,6.491598,2.580467,0.101138,0.057478,0.001957,-0.253426,-0.172855,0.112178,-0.237117,0.291597,-0.533500,-0.757710,68.744397,44.018949,176.156881
17325,NaN,-6.910737,6.396669,2.595373,0.186331,0.074364,-0.046865,-0.239068,-0.178829,0.103975,-0.236928,0.290941,-0.532537,-0.758698,68.536048,43.933191,176.047558
17326,NaN,-6.796041,6.323112,2.590577,0.166978,0.074109,-0.177047,-0.205213,-0.189457,0.100886,-0.236825,0.290210,-0.531706,-0.759592,68.345200,43.846280,175.931573
17327,NaN,-6.653942,6.327455,2.640517,0.064963,0.105521,-0.259229,-0.159996,-0.161243,0.104036,-0.236708,0.289528,-0.531075,-0.760331,68.194235,43.764227,175.836740
17328,NaN,-6.715624,6.392631,2.764849,0.054694,0.182225,-0.139348,-0.115225,-0.128743,0.106916,-0.236550,0.288904,-0.530665,-0.760903,68.087952,43.686625,175.768160
17329,NaN,-6.763220,6.511515,2.881898,0.000070,0.238119,0.005132,-0.099756,-0.123434,0.115286,-0.236376,0.288264,-0.530318,-0.761441,67.992967,43.606478,175.704982
17330,NaN,-6.882179,6.495834,2.917345,0.103605,0.256141,0.086543,-0.092162,-0.177311,0.113091,-0.236357,0.287412,-0.529946,-0.762028,67.877176,43.514966,175.603220
17331,NaN,-6.792301,6.541632,2.847685,0.037280,0.162683,0.036663,-0.083766,-0.242564,0.119684,-0.236501,0.286284,-0.529522,-0.762703,67.732394,43.405979,175.454803
17332,NaN,-6.746119,6.529680,2.755682,0.046487,0.063288,-0.028292,-0.076522,-0.253218,0.119554,-0.236679,0.285105,-0.529127,-0.763362,67.589845,43.294160,175.300613
17333,NaN,-6.648136,6.578273,2.740520,-0.037026,0.020319,-0.066919,-0.067760,-0.229772,0.114022,-0.236828,0.284021,-0.528764,-0.763972,67.459966,43.190072,175.161326
17334,NaN,-6.650382,6.622259,2.749287,-0.049126,-0.002204,-0.033219,-0.060578,-0.215672,0.132250,-0.236881,0.282933,-0.528491,-0.764548,67.349044,43.079302,175.039414
17335,NaN,-6.705169,6.659806,2.753804,-0.015994,-0.028333,0.030820,-0.047794,-0.197768,0.164395,-0.236779,0.281814,-0.528310,-0.765118,67.257554,42.955284,174.939565
17336,NaN,-6.812852,6.700741,2.732320,0.060463,-0.081441,0.125628,-0.036460,-0.199903,0.179155,-0.236644,0.280632,-0.528212,-0.765661,67.178903,42.822945,174.844205
17337,NaN,-6.726630,6.711384,2.692996,0.019075,-0.128025,0.062820,-0.021895,-0.197955,0.175670,-0.236544,0.279452,-0.528153,-0.766164,67.106920,42.693415,174.748189
17338,NaN,-6.731993,6.700310,2.776909,0.035922,-0.055114,0.082803,-0.002773,-0.171592,0.164686,-0.236436,0.278376,-0.528196,-0.766560,67.059217,42.574864,174.669565
17339,NaN,-6.749244,6.776375,2.790291,0.014571,-0.076695,0.149799,-0.017998,-0.135427,0.148206,-0.236279,0.277503,-0.528182,-0.766934,67.014087,42.473574,174.610645
17340,NaN,-6.633254,6.669908,2.855430,0.003316,0.020413,0.017916,-0.040779,-0.117849,0.126036,-0.236124,0.276780,-0.528088,-0.767308,66.963160,42.387348,174.559213
17341,NaN,-6.659789,6.640819,2.851965,0.056493,0.016130,0.015003,-0.053738,-0.121721,0.124720,-0.235964,0.276064,-0.527919,-0.767731,66.899971,42.301077,174.504250
17342,NaN,-6.656598,6.706366,2.863594,0.023205,-0.004429,0.060773,-0.065313,-0.136475,0.117787,-0.235856,0.275320,-0.527697,-0.768184,66.824766,42.214920,174.437447
17343,NaN,-6.676619,6.838671,2.933668,-0.047462,0.003511,0.184751,-0.091041,-0.139533,0.102724,-0.235777,0.274635,-0.527332,-0.768704,66.727431,42.135917,174.363109
17344,NaN,-6.741845,6.902728,3.005704,-0.040660,0.029793,0.293341,-0.119410,-0.163669,0.103566,-0.235721,0.273886,-0.526849,-0.769319,66.605915,42.050902,174.273247
17345,NaN,-6.714525,6.897481,2.969626,-0.036738,-0.020075,0.260889,-0.122955,-0.222098,0.108531,-0.235793,0.272908,-0.526268,-0.770042,66.452528,41.949976,174.142919
17346,NaN,-6.628599,6.931880,3.059436,-0.121383,0.036211,0.253757,-0.123165,-0.279243,0.110254,-0.236009,0.271700,-0.525642,-0.770830,66.276650,41.834552,173.974515
17347,NaN,-6.583919,6.978630,3.025188,-0.161721,-0.034040,0.245823,-0.125997,-0.292078,0.096668,-0.236303,0.270487,-0.524950,-0.771638,66.087940,41.723009,173.793092
17348,NaN,-6.430374,6.939386,3.029608,-0.235068,-0.029712,0.118430,-0.129890,-0.270630,0.085744,-0.236580,0.269384,-0.524272,-0.772400,65.908662,41.621622,173.624644
17349,NaN,-6.516528,6.866534,3.053716,-0.113574,-0.014873,0.133489,-0.138328,-0.258533,0.080941,-0.236832,0.268355,-0.523547,-0.773172,65.726478,41.525580,173.463048
17350,NaN,-6.494659,6.797801,3.102714,-0.080389,0.031091,0.087314,-0.143659,-0.257627,0.063608,-0.237141,0.267375,-0.522799,-0.773923,65.542003,41.438022,173.298033
17351,NaN,-6.567690,6.775010,3.124301,-0.003142,0.025561,0.126921,-0.149545,-0.286017,0.042447,-0.237598,0.266351,-0.521949,-0.774709,65.334665,41.354540,173.106373
17352,NaN,-6.474636,6.742859,3.083621,-0.035204,-0.021974,0.030786,-0.159367,-0.293399,0.010238,-0.238185,0.265389,-0.521024,-0.775481,65.114738,41.285276,172.900766
17353,NaN,-6.409843,6.805244,3.167961,-0.130834,0.011123,0.057271,-0.177722,-0.278864,-0.018005,-0.238811,0.264580,-0.519993,-0.776256,64.883400,41.233145,172.696887
17354,NaN,-6.458157,6.719743,3.166087,-0.035258,0.003237,0.030356,-0.204978,-0.261749,-0.032848,-0.239421,0.263907,-0.518869,-0.777050,64.643491,41.192702,172.500178
17355,NaN,-6.567358,6.745016,3.219081,0.023665,0.000396,0.136547,-0.219439,-0.264184,-0.041345,-0.240055,0.263267,-0.517658,-0.777878,64.390359,41.156043,172.298423
17356,NaN,-6.564319,6.673366,3.331993,0.051859,0.096311,0.122814,-0.227783,-0.292084,-0.045516,-0.240761,0.262534,-0.516390,-0.778750,64.121631,41.113280,172.077460
17357,NaN,-6.709870,6.652836,3.264818,0.187403,-0.011730,0.182623,-0.228138,-0.330917,-0.053636,-0.241593,0.261674,-0.515046,-0.779672,63.831750,41.064040,171.827649
17358,NaN,-6.531207,6.504895,3.200909,0.160799,-0.037742,-0.056215,-0.202831,-0.332628,-0.104796,-0.242666,0.260903,-0.513744,-0.780455,63.546872,41.039783,171.559959
17359,NaN,-6.535667,6.309656,3.205255,0.287815,-0.001343,-0.183699,-0.136975,-0.372452,-0.141167,-0.244073,0.259991,-0.512591,-0.781078,63.272405,41.023337,171.252075
17360,NaN,-6.403130,6.403858,3.331791,0.106757,0.063613,-0.164125,-0.073565,-0.412724,-0.146241,-0.245679,0.258855,-0.511637,-0.781577,63.017123,40.997616,170.916397
17361,NaN,-6.102065,6.564899,3.419062,-0.235112,0.091478,-0.223143,-0.052414,-0.407829,-0.125267,-0.247215,0.257661,-0.510785,-0.782045,62.779367,40.961542,170.591318
17362,NaN,-6.096112,6.556433,3.445821,-0.236079,0.092084,-0.223172,-0.058485,-0.350354,-0.089928,-0.248459,0.256603,-0.510036,-0.782487,62.573839,40.921490,170.317917
17363,NaN,-5.942650,6.538836,3.560346,-0.352475,0.198908,-0.295142,-0.074071,-0.300614,-0.046585,-0.249390,0.255652,-0.509330,-0.782962,62.389722,40.872349,170.092576
17364,NaN,-6.084772,6.591982,3.648842,-0.288508,0.221426,-0.134856,-0.091064,-0.236403,0.004470,-0.249932,0.254840,-0.508713,-0.783455,62.238077,40.813432,169.929564
17365,NaN,-6.307563,6.578657,3.576529,-0.095887,0.109443,-0.023182,-0.122127,-0.191814,0.044595,-0.250159,0.254141,-0.508068,-0.784028,62.095859,40.745710,169.810838
17366,NaN,-6.520928,6.526107,3.592673,0.104941,0.094960,0.086798,-0.137003,-0.173916,0.088937,-0.250151,0.253416,-0.507455,-0.784662,61.965395,40.660233,169.720205
17367,NaN,-6.721947,6.549222,3.561912,0.257193,0.011299,0.222140,-0.139744,-0.176039,0.115668,-0.250040,0.252619,-0.506853,-0.785343,61.837551,40.560582,169.637695
17368,NaN,-6.868205,6.580981,3.531209,0.364291,-0.068925,0.327010,-0.142065,-0.191018,0.104806,-0.250006,0.251791,-0.506218,-0.786029,61.701218,40.462147,169.542137
17369,NaN,-7.008530,6.579808,3.570070,0.477478,-0.076351,0.430597,-0.148357,-0.254902,0.063422,-0.250289,0.250827,-0.505418,-0.786762,61.523473,40.367199,169.389525
17370,NaN,-6.856856,6.428998,3.488822,0.484309,-0.105119,0.201036,-0.145412,-0.344071,0.010115,-0.251010,0.249640,-0.504457,-0.787526,61.298779,40.273987,169.160002
17371,NaN,-6.727516,6.459570,3.529562,0.371750,-0.096102,0.152039,-0.130236,-0.431524,-0.032652,-0.252139,0.248201,-0.503382,-0.788308,61.035249,40.177786,168.857963
17372,NaN,-6.450030,6.538463,3.582225,0.114723,-0.075625,0.044680,-0.128372,-0.495752,-0.064676,-0.253554,0.246581,-0.502199,-0.789116,60.740478,40.078136,168.503645
17373,NaN,-6.240964,6.555913,3.640820,-0.052796,-0.038299,-0.056623,-0.130479,-0.505563,-0.078770,-0.255044,0.244964,-0.500965,-0.789924,60.436870,39.981603,168.138899
17374,NaN,-6.175427,6.608018,3.813802,-0.151263,0.069769,0.001536,-0.146446,-0.479837,-0.088254,-0.256488,0.243485,-0.499695,-0.790717,60.135185,39.895366,167.788544
17375,NaN,-6.386771,6.623104,3.675065,0.020631,-0.138995,0.094005,-0.161471,-0.458986,-0.090999,-0.257877,0.242119,-0.498376,-0.791517,59.832215,39.815816,167.450626
17376,NaN,-5.624905,6.451658,3.839966,-0.452806,0.161965,-0.443729,-0.170325,-0.457655,-0.032261,-0.259011,0.240617,-0.497102,-0.792406,59.541627,39.705494,167.137706
17377,NaN,-6.575005,6.773844,4.222573,0.013649,0.189142,0.527026,-0.164555,-0.414874,-0.010824,-0.259964,0.239226,-0.495922,-0.793254,59.277082,39.596548,166.860858
17378,NaN,-6.087371,6.637509,3.915462,-0.215864,0.003822,0.005494,-0.231934,-0.424735,-0.012593,-0.260862,0.237883,-0.494464,-0.794272,58.971797,39.483877,166.578845
17379,NaN,-6.394724,6.592380,4.149614,0.026800,0.135143,0.264619,-0.227237,-0.412531,0.014595,-0.261628,0.236517,-0.493063,-0.795298,58.680773,39.360810,166.315788
17380,NaN,-6.404527,6.615958,3.884234,0.061407,-0.162974,0.179589,-0.286774,-0.440541,0.000352,-0.262446,0.235148,-0.491376,-0.796478,58.343454,39.234767,166.031353
17381,NaN,-6.276784,6.353461,4.010289,0.132560,0.023505,-0.023483,-0.305967,-0.481989,0.015973,-0.263275,0.233603,-0.489562,-0.797775,57.982434,39.087288,165.728598
17382,NaN,-6.349408,6.314657,3.953589,0.231867,-0.082680,-0.026992,-0.331713,-0.551432,-0.003244,-0.264321,0.231855,-0.487538,-0.799177,57.578116,38.926311,165.376846
17383,NaN,-6.351047,6.146638,3.992210,0.350180,-0.045240,-0.120955,-0.336222,-0.620888,-0.041818,-0.265691,0.229931,-0.485351,-0.800609,57.136252,38.761206,164.968271
17384,NaN,-6.297345,6.027017,3.994730,0.398163,-0.051004,-0.232612,-0.317138,-0.675553,-0.091170,-0.267401,0.227876,-0.483108,-0.801983,56.675124,38.599450,164.509760
17385,NaN,-6.196836,6.035758,4.111124,0.313997,0.005535,-0.240148,-0.279539,-0.681744,-0.111472,-0.269248,0.225796,-0.480966,-0.803239,56.229118,38.442963,164.041513
17386,NaN,-5.952246,6.107512,4.202360,0.083359,0.049495,-0.305793,-0.261905,-0.660293,-0.103797,-0.271029,0.223753,-0.478937,-0.804424,55.807412,38.286568,163.592347
17387,NaN,-5.775514,6.113697,4.377323,-0.060521,0.184585,-0.333405,-0.242800,-0.613141,-0.067825,-0.272563,0.221787,-0.477077,-0.805554,55.425023,38.125838,163.189322
17388,NaN,-5.636633,6.209928,4.516740,-0.229200,0.249753,-0.293200,-0.241631,-0.536302,-0.028283,-0.273760,0.220030,-0.475372,-0.806637,55.084730,37.969703,162.850233
17389,NaN,-5.514434,6.303364,4.680414,-0.383907,0.338387,-0.232209,-0.257421,-0.455736,0.046211,-0.274444,0.218447,-0.473778,-0.807772,54.783597,37.803944,162.591666
17390,NaN,-5.533261,6.351542,4.703733,-0.386214,0.291271,-0.176818,-0.288223,-0.376849,0.135016,-0.274548,0.217007,-0.472275,-0.809004,54.519874,37.621547,162.418835
17391,NaN,-5.535328,6.205976,4.697669,-0.269763,0.304217,-0.270329,-0.301235,-0.282259,0.216097,-0.274087,0.215779,-0.470927,-0.810274,54.303200,37.432734,162.336583
17392,NaN,-5.788358,6.315670,4.764281,-0.133628,0.224216,-0.013560,-0.275014,-0.188162,0.260920,-0.273248,0.214785,-0.469869,-0.811435,54.148584,37.253999,162.329687
17393,NaN,-5.976188,6.287506,4.820512,0.045826,0.211080,0.108910,-0.267333,-0.170600,0.301666,-0.272206,0.213759,-0.468894,-0.812619,54.013471,37.062112,162.350756
17394,NaN,-5.992261,6.144243,4.772875,0.181438,0.197660,0.003989,-0.239168,-0.188899,0.316076,-0.271181,0.212582,-0.468036,-0.813764,53.893826,36.857553,162.367803
17395,NaN,-5.919520,6.095703,4.814251,0.182252,0.245907,-0.051463,-0.197150,-0.227170,0.309929,-0.270310,0.211209,-0.467276,-0.814848,53.781993,36.642870,162.360726
17396,NaN,-5.799918,6.114477,4.853400,0.105498,0.277053,-0.091918,-0.145162,-0.258411,0.285698,-0.269668,0.209691,-0.466670,-0.815799,53.685213,36.428838,162.325877
17397,NaN,-5.714741,6.166742,4.916942,0.031328,0.308807,-0.077862,-0.097343,-0.276049,0.255039,-0.269239,0.208113,-0.466188,-0.816620,53.600723,36.223083,162.268464
17398,NaN,-5.644383,6.298592,4.882905,-0.074751,0.221380,-0.049522,-0.061897,-0.253410,0.221151,-0.268935,0.206652,-0.465858,-0.817279,53.538052,36.040429,162.210218
17399,NaN,-5.699517,6.363900,4.861939,-0.046365,0.146987,0.015759,-0.022746,-0.201180,0.197281,-0.268648,0.205413,-0.465720,-0.817764,53.507864,35.886989,162.171363
17400,NaN,-5.738507,6.426196,4.888104,-0.034695,0.123569,0.092034,0.003323,-0.180084,0.177997,-0.268415,0.204264,-0.465709,-0.818135,53.496869,35.749145,162.137125
17401,NaN,-5.783704,6.500707,4.891415,-0.025258,0.075577,0.168794,0.019208,-0.169377,0.164543,-0.268223,0.203172,-0.465748,-0.818448,53.493423,35.620850,162.103567
17402,NaN,-5.818181,6.547970,4.875929,-0.006539,0.026382,0.212333,0.020551,-0.170798,0.145769,-0.268117,0.202112,-0.465786,-0.818723,53.487712,35.501008,162.061225
