// General information: 
//  MT Manager version: 2019.0.1 
//  XDA version: 2019.0.1 build 2740 rev 84096 built on 2019-01-30
// Device information: 
//  DeviceId: 00B43876
//  ProductCode: MTW2-3A7G6
//  Firmware Version: 4.3.4
//  Hardware Version: 1.1.0
// Device settings: 
//  Filter Profile: human(46.1)
//  Option Flags: Orientation Smoother Disabled, AHS Disabled, ICC Disabled
// Coordinate system: ENU
PacketCounter,SampleTimeFine,Acc_X,Acc_Y,Acc_Z,FreeAcc_E,FreeAcc_N,FreeAcc_U,Gyr_X,Gyr_Y,Gyr_Z,Quat_q0,Quat_q1,Quat_q2,Quat_q3,Roll,Pitch,Yaw
03698,NaN,-0.412849,9.891241,0.423831,0.026562,-0.037620,0.096127,0.006649,-0.006658,0.014510,0.295269,0.308376,-0.617502,-0.660615,87.292604,2.451735,-129.495970
03699,NaN,-0.416360,9.870168,0.434111,0.021310,-0.024828,0.075737,0.006354,0.007848,0.022023,0.295343,0.308317,-0.617569,-0.660546,87.298055,2.437360,-129.494323
03700,NaN,-0.485761,9.883787,0.424817,0.073555,0.024397,0.091840,0.006370,0.007483,0.020533,0.295412,0.308261,-0.617634,-0.660481,87.303349,2.423680,-129.492912
03701,NaN,-0.470640,9.837059,0.448904,0.045652,0.033276,0.045687,0.006601,-0.005562,0.018984,0.295434,0.308168,-0.617717,-0.660436,87.308614,2.410683,-129.499032
03702,NaN,-0.391535,9.833535,0.424117,0.015037,-0.040801,0.037678,0.011685,-0.017569,0.017361,0.295407,0.308047,-0.617832,-0.660398,87.316346,2.398146,-129.512059
03703,NaN,-0.409139,9.881959,0.451776,0.005104,-0.009688,0.088044,0.025470,0.008317,0.019450,0.295444,0.308026,-0.617958,-0.660273,87.332757,2.385254,-129.510221
03704,NaN,-0.502266,9.900238,0.437656,0.074766,0.055787,0.109501,0.026641,0.006317,0.024724,0.295493,0.307983,-0.618098,-0.660140,87.349640,2.369144,-129.509375
03705,NaN,-0.475673,9.884618,0.416818,0.073662,0.026578,0.091834,0.015608,-0.009020,0.021745,0.295499,0.307884,-0.618221,-0.660069,87.359992,2.354481,-129.517414
03706,NaN,-0.366975,9.897681,0.383392,0.030871,-0.076099,0.098871,0.013860,-0.009983,0.023497,0.295513,0.307772,-0.618341,-0.660003,87.369167,2.338643,-129.525945
03707,NaN,-0.418285,9.897032,0.408915,0.044145,-0.017410,0.101503,0.013022,-0.004668,0.019005,0.295528,0.307691,-0.618444,-0.659937,87.378141,2.325665,-129.531567
03708,NaN,-0.393140,9.903931,0.432328,0.010485,-0.019833,0.108443,0.009583,-0.008057,0.016547,0.295531,0.307601,-0.618536,-0.659891,87.384907,2.313858,-129.539181
03709,NaN,-0.414811,9.897261,0.406915,0.044189,-0.016532,0.101504,0.009033,0.001673,0.017308,0.295566,0.307541,-0.618614,-0.659830,87.391742,2.302017,-129.541219
03710,NaN,-0.436301,9.890601,0.381523,0.077930,-0.013234,0.094566,0.008830,0.000931,0.020644,0.295611,0.307466,-0.618697,-0.659767,87.398291,2.288101,-129.543580
03711,NaN,-0.410677,9.886168,0.383476,0.060521,-0.029051,0.089207,0.009554,0.006098,0.016244,0.295656,0.307424,-0.618769,-0.659699,87.405526,2.276985,-129.543113
03712,NaN,-0.390321,9.860591,0.396246,0.037902,-0.032518,0.063452,0.011391,0.010733,0.023080,0.295735,0.307378,-0.618849,-0.659609,87.413767,2.261929,-129.539800
03713,NaN,-0.412705,9.887952,0.435174,0.022742,0.010968,0.093405,0.016195,0.026654,0.025680,0.295864,0.307385,-0.618927,-0.659476,87.425281,2.245941,-129.527317
03714,NaN,-0.416995,9.900950,0.509906,-0.031321,0.063957,0.109894,0.003693,0.028202,0.026424,0.296021,0.307375,-0.618961,-0.659378,87.429504,2.229420,-129.513917
03715,NaN,-0.400341,9.820239,0.469307,-0.010360,0.032631,0.026847,0.005300,0.026954,0.022047,0.296156,0.307378,-0.618997,-0.659282,87.434769,2.215517,-129.501360
03716,NaN,-0.362297,9.824092,0.383859,0.031606,-0.048076,0.025406,0.024386,0.028127,0.022465,0.296268,0.307410,-0.619094,-0.659126,87.450836,2.201256,-129.488108
03717,NaN,-0.361232,9.846983,0.423585,-0.000963,-0.020830,0.049998,0.044524,0.038147,0.020757,0.296372,0.307512,-0.619240,-0.658894,87.478813,2.188367,-129.469180
03718,NaN,-0.390178,9.908427,0.358854,0.065922,-0.038330,0.109617,0.040515,0.045226,0.022035,0.296511,0.307626,-0.619364,-0.658663,87.504486,2.174770,-129.446157
03719,NaN,-0.535093,9.892338,0.305487,0.197766,0.045107,0.096745,0.026392,0.048402,0.028634,0.296701,0.307710,-0.619447,-0.658459,87.522295,2.157611,-129.421170
03720,NaN,-0.284282,9.867955,0.487479,-0.101995,-0.028015,0.070824,0.010945,0.023789,0.030938,0.296848,0.307682,-0.619519,-0.658339,87.530560,2.138373,-129.410215
03721,NaN,-0.151577,9.875986,0.456561,-0.162347,-0.146885,0.072584,0.030491,0.039480,0.019915,0.296975,0.307770,-0.619615,-0.658149,87.550504,2.125974,-129.390562
03722,NaN,-0.388357,9.933537,0.445872,-0.004366,0.029415,0.138387,0.019380,0.081515,0.018647,0.297247,0.307983,-0.619610,-0.657932,87.564809,2.115175,-129.346851
03723,NaN,-0.426573,9.863564,0.453038,0.013625,0.069704,0.070231,0.000332,0.037155,0.016178,0.297402,0.308030,-0.619605,-0.657845,87.567412,2.104847,-129.328626
03724,NaN,-0.406419,9.837948,0.466580,-0.008996,0.066242,0.044473,0.005627,0.030660,0.024307,0.297556,0.308037,-0.619639,-0.657740,87.572758,2.089564,-129.313911
03725,NaN,-0.355581,9.806141,0.427405,-0.011290,0.007362,0.009193,0.031661,0.051638,0.024900,0.297736,0.308151,-0.619728,-0.657520,87.593610,2.074588,-129.287184
03726,NaN,-0.379102,9.900016,0.373347,0.044545,-0.009069,0.101512,0.047680,0.037829,0.021016,0.297837,0.308254,-0.619885,-0.657279,87.623189,2.061350,-129.268451
03727,NaN,-0.371062,9.909939,0.336693,0.066055,-0.034389,0.109630,0.031698,0.036749,0.022241,0.297961,0.308328,-0.619992,-0.657086,87.643740,2.047520,-129.250330
03728,NaN,-0.346317,9.928240,0.381240,0.016109,-0.023344,0.128863,-0.001104,0.040267,0.021668,0.298147,0.308365,-0.619986,-0.656991,87.645409,2.033955,-129.230194
03729,NaN,-0.330527,9.858687,0.363550,0.020757,-0.041317,0.058127,-0.010469,0.041168,0.021077,0.298347,0.308393,-0.619947,-0.656924,87.641881,2.020892,-129.209571
03730,NaN,-0.363332,9.809804,0.360948,0.044027,-0.013396,0.010369,0.006831,0.036931,0.011735,0.298477,0.308462,-0.619955,-0.656824,87.648012,2.012934,-129.191581
03731,NaN,-0.375176,9.856704,0.334254,0.072044,-0.021379,0.056530,0.024744,0.011753,0.007581,0.298486,0.308479,-0.620056,-0.656717,87.663562,2.006374,-129.189096
03732,NaN,-0.389379,9.949218,0.393749,0.034890,0.024340,0.151839,0.010498,-0.002523,0.007369,0.298474,0.308437,-0.620129,-0.656673,87.670996,1.999988,-129.193812
03733,NaN,-0.341396,9.939947,0.399885,0.000120,-0.007682,0.141154,-0.010606,0.004740,0.001572,0.298496,0.308399,-0.620114,-0.656695,87.666205,1.996843,-129.195132
03734,NaN,-0.374166,9.856759,0.333773,0.072206,-0.020068,0.056532,-0.015055,-0.008968,-0.004717,0.298464,0.308335,-0.620095,-0.656758,87.658860,1.997225,-129.203822
03735,NaN,-0.369834,9.889169,0.345809,0.061243,-0.018527,0.089228,-0.012756,-0.032642,-0.009863,0.298337,0.308208,-0.620111,-0.656860,87.652180,1.999825,-129.226726
03736,NaN,-0.375689,9.856604,0.336632,0.072314,-0.019192,0.056533,-0.013617,-0.026226,-0.009896,0.298232,0.308106,-0.620113,-0.656954,87.645309,2.002764,-129.245424
03737,NaN,-0.366341,9.910083,0.337610,0.066567,-0.029979,0.109641,-0.011818,-0.040534,-0.015790,0.298059,0.307974,-0.620135,-0.657074,87.639052,2.008617,-129.272894
03738,NaN,-0.361903,9.864846,0.418230,0.000947,0.018101,0.067634,-0.013480,-0.057859,-0.022658,0.297814,0.307807,-0.620165,-0.657234,87.631608,2.018110,-129.310015
03739,NaN,-0.382462,9.890422,0.405681,0.023666,0.022437,0.093383,-0.011845,-0.059484,-0.028519,0.297541,0.307654,-0.620195,-0.657401,87.624980,2.030875,-129.348457
03740,NaN,-0.344364,9.882680,0.467330,-0.048934,0.029636,0.086862,-0.012439,-0.082117,-0.037200,0.297171,0.307454,-0.620243,-0.657617,87.617608,2.048107,-129.399822
03741,NaN,-0.292860,9.860227,0.399052,-0.029766,-0.055032,0.059758,-0.013186,-0.072751,-0.031623,0.296848,0.307265,-0.620283,-0.657813,87.609980,2.062350,-129.445946
03742,NaN,-0.354848,9.849903,0.458844,-0.037817,0.029410,0.054163,0.005652,-0.042914,-0.024014,0.296615,0.307180,-0.620352,-0.657893,87.613770,2.072961,-129.474544
03743,NaN,-0.398809,9.868770,0.419658,0.018587,0.036540,0.072964,0.011418,-0.049039,-0.027030,0.296342,0.307091,-0.620445,-0.657969,87.620820,2.085147,-129.507093
03744,NaN,-0.366345,9.894908,0.378588,0.027887,-0.017348,0.096180,0.001954,-0.079403,-0.032557,0.295974,0.306907,-0.620543,-0.658129,87.621708,2.099786,-129.556796
03745,NaN,-0.343978,9.867442,0.338971,0.043001,-0.060011,0.066289,-0.010352,-0.043268,-0.019775,0.295775,0.306780,-0.620568,-0.658254,87.616345,2.107849,-129.586123
03746,NaN,-0.476990,9.882192,0.412028,0.071062,0.086546,0.088952,-0.004655,-0.019976,-0.018974,0.295646,0.306739,-0.620577,-0.658323,87.614697,2.116123,-129.601460
03747,NaN,-0.477646,9.859322,0.369654,0.103616,0.060087,0.064391,-0.008828,-0.042311,-0.015209,0.295464,0.306605,-0.620612,-0.658434,87.610244,2.121675,-129.629907
03748,NaN,-0.425355,9.859825,0.343378,0.090234,0.002300,0.061868,0.001710,-0.031405,-0.011179,0.295315,0.306512,-0.620670,-0.658489,87.612003,2.125213,-129.651606
03749,NaN,-0.426209,9.859798,0.343101,0.090281,0.002739,0.061867,0.006543,-0.029638,-0.008274,0.295172,0.306421,-0.620747,-0.658523,87.616550,2.127081,-129.672579
03750,NaN,-0.397552,9.876329,0.334507,0.078087,-0.025369,0.076958,0.005289,-0.025435,-0.004610,0.295058,0.306332,-0.620819,-0.658548,87.620491,2.127003,-129.690701
03751,NaN,-0.387502,9.929946,0.333238,0.072314,-0.036133,0.130074,0.012890,-0.013127,-0.002621,0.294976,0.306289,-0.620899,-0.658529,87.628978,2.126113,-129.701765
03752,NaN,-0.364824,9.948165,0.378485,0.022391,-0.024990,0.149301,0.004747,-0.015704,-0.003864,0.294896,0.306230,-0.620956,-0.658539,87.632816,2.125842,-129.714295
03753,NaN,-0.346896,9.922443,0.393077,-0.000267,-0.028443,0.123555,-0.017438,-0.017319,-0.007435,0.294831,0.306144,-0.620936,-0.658627,87.624004,2.127672,-129.727917
03754,NaN,-0.352415,9.878463,0.362762,0.027057,-0.042607,0.078586,-0.018770,-0.017171,-0.013845,0.294749,0.306075,-0.620902,-0.658727,87.614328,2.133077,-129.741525
03755,NaN,-0.378321,9.894288,0.382968,0.028280,-0.012484,0.096186,-0.009665,-0.023217,-0.021513,0.294607,0.306024,-0.620896,-0.658820,87.609843,2.142791,-129.758967
03756,NaN,-0.410587,9.900337,0.435689,0.008065,0.043425,0.105636,-0.015671,-0.036411,-0.026386,0.294419,0.305936,-0.620881,-0.658959,87.601513,2.154912,-129.783899
03757,NaN,-0.412692,9.888793,0.415636,0.024343,0.030405,0.093360,-0.012531,-0.037074,-0.027690,0.294217,0.305854,-0.620876,-0.659092,87.595048,2.167779,-129.809527
03758,NaN,-0.433356,9.902936,0.381286,0.063308,0.021267,0.106831,-0.006614,-0.040979,-0.028097,0.293996,0.305769,-0.620895,-0.659212,87.591795,2.180764,-129.837120
03759,NaN,-0.364437,9.889168,0.390854,0.010957,-0.026910,0.090867,-0.011103,-0.052849,-0.026915,0.293745,0.305632,-0.620921,-0.659363,87.585805,2.192723,-129.872024
03760,NaN,-0.366224,9.866269,0.349624,0.043488,-0.053416,0.066325,-0.025904,-0.029486,-0.028443,0.293587,0.305559,-0.620859,-0.659526,87.571739,2.206177,-129.893045
03761,NaN,-0.450963,9.837398,0.365638,0.085479,0.020286,0.041436,-0.021056,-0.028083,-0.027035,0.293429,0.305492,-0.620813,-0.659670,87.560567,2.218912,-129.913406
03762,NaN,-0.405272,9.816824,0.351552,0.066836,-0.025174,0.018527,-0.014791,-0.042087,-0.023371,0.293232,0.305377,-0.620814,-0.659810,87.552584,2.229147,-129.941527
03763,NaN,-0.408470,9.850745,0.417700,0.018132,0.015697,0.055338,-0.008940,-0.031100,-0.021123,0.293066,0.305299,-0.620822,-0.659913,87.548278,2.238414,-129.963479
03764,NaN,-0.452462,9.880808,0.401870,0.058319,0.036233,0.086397,-0.004359,-0.015547,-0.013720,0.292967,0.305257,-0.620833,-0.659966,87.546868,2.243770,-129.976162
03765,NaN,-0.513522,9.902478,0.307601,0.169898,0.020225,0.106392,-0.012292,-0.030445,-0.013496,0.292833,0.305152,-0.620841,-0.660066,87.540675,2.248628,-129.997740
03766,NaN,-0.454100,9.857899,0.361409,0.090878,0.010153,0.061857,-0.021626,-0.043355,-0.012227,0.292679,0.304988,-0.620838,-0.660213,87.528746,2.252442,-130.026318
03767,NaN,-0.389447,9.845819,0.425643,0.000801,0.001257,0.050020,-0.009152,-0.043787,-0.008530,0.292515,0.304830,-0.620883,-0.660317,87.524066,2.254215,-130.055164
03768,NaN,-0.455652,9.857721,0.364296,0.090942,0.011021,0.061855,-0.011103,-0.032438,-0.008221,0.292392,0.304705,-0.620904,-0.660408,87.518413,2.256000,-130.077389
03769,NaN,-0.403775,9.869761,0.360420,0.061220,-0.033253,0.071657,-0.018238,-0.057425,-0.016553,0.292173,0.304513,-0.620928,-0.660572,87.508254,2.261988,-130.114404
03770,NaN,-0.284798,9.813158,0.311273,0.022604,-0.154293,0.008298,-0.020053,-0.043501,-0.012128,0.292016,0.304351,-0.620930,-0.660714,87.497216,2.265725,-130.143065
03771,NaN,-0.416645,9.838566,0.407573,0.034645,0.005735,0.043065,-0.006873,-0.007151,-0.006378,0.291970,0.304309,-0.620932,-0.660752,87.494634,2.267133,-130.150924
03772,NaN,-0.493981,9.842186,0.432635,0.065679,0.080575,0.050832,-0.004301,-0.010400,0.000826,0.291935,0.304239,-0.620957,-0.660775,87.493383,2.264280,-130.160299
03773,NaN,-0.445973,9.833197,0.438407,0.030748,0.048611,0.040208,-0.001537,-0.012908,0.004695,0.291900,0.304153,-0.621002,-0.660789,87.493782,2.259258,-130.171084
03774,NaN,-0.469163,9.849077,0.457063,0.032041,0.078742,0.057779,0.007376,-0.000378,0.014562,0.291923,0.304091,-0.621073,-0.660741,87.499462,2.248794,-130.174373
03775,NaN,-0.438732,9.877162,0.469836,0.003565,0.064172,0.085162,0.004051,-0.000462,0.019213,0.291966,0.304008,-0.621140,-0.660697,87.503321,2.235721,-130.177774
03776,NaN,-0.383861,9.889421,0.463562,-0.026145,0.019911,0.094977,0.010130,-0.002520,0.019921,0.291996,0.303926,-0.621231,-0.660636,87.510537,2.222137,-130.182159
03777,NaN,-0.408022,9.960486,0.370093,0.062096,-0.023485,0.162798,0.005625,-0.000974,0.017811,0.292030,0.303848,-0.621302,-0.660589,87.515333,2.209889,-130.185853
03778,NaN,-0.412506,9.962022,0.425150,0.024482,0.016267,0.166889,-0.020602,-0.027156,0.009141,0.291995,0.303673,-0.621311,-0.660677,87.504389,2.201863,-130.204619
03779,NaN,-0.310143,9.919704,0.341734,0.024680,-0.114376,0.117056,-0.042684,-0.044778,-0.001490,0.291902,0.303440,-0.621258,-0.660875,87.480565,2.199537,-130.234021
03780,NaN,-0.215794,9.924094,0.400434,-0.077673,-0.151697,0.120364,-0.049038,-0.047866,-0.010422,0.291781,0.303216,-0.621173,-0.661111,87.452856,2.202169,-130.265140
03781,NaN,-0.241925,9.973551,0.490089,-0.125090,-0.081020,0.174715,-0.065344,-0.039615,-0.016131,0.291689,0.303012,-0.621015,-0.661393,87.416151,2.208330,-130.291941
03782,NaN,-0.348995,9.914985,0.443508,-0.016819,-0.031715,0.118281,-0.074293,-0.038711,-0.029279,0.291573,0.302839,-0.620805,-0.661721,87.374148,2.221955,-130.318311
03783,NaN,-0.357993,9.915889,0.505236,-0.054469,0.008055,0.122364,-0.072362,-0.068605,-0.040871,0.291321,0.302608,-0.620628,-0.662104,87.332786,2.241579,-130.362128
03784,NaN,-0.343134,9.889658,0.526657,-0.077104,0.004616,0.096625,-0.081211,-0.063303,-0.042439,0.291095,0.302385,-0.620410,-0.662509,87.286235,2.262035,-130.402959
03785,NaN,-0.442004,9.862067,0.437697,0.057755,0.015774,0.068797,-0.079802,-0.053679,-0.054208,0.290856,0.302233,-0.620166,-0.662912,87.240872,2.289580,-130.438738
03786,NaN,-0.460487,9.908385,0.421514,0.085682,0.007795,0.114972,-0.081211,-0.081474,-0.052229,0.290541,0.301979,-0.619960,-0.663359,87.193854,2.315067,-130.490283
03787,NaN,-0.393885,9.894379,0.438016,0.033229,-0.040314,0.099074,-0.088570,-0.092675,-0.056046,0.290187,0.301689,-0.619741,-0.663850,87.142517,2.342425,-130.548705
03788,NaN,-0.370002,9.910547,0.438968,0.020977,-0.068360,0.114216,-0.092831,-0.072935,-0.054630,0.289907,0.301454,-0.619479,-0.664323,87.088989,2.369441,-130.595476
03789,NaN,-0.457243,9.903034,0.506829,0.030650,0.032279,0.113744,-0.108433,-0.070772,-0.052456,0.289664,0.301198,-0.619166,-0.664836,87.026692,2.395353,-130.641016
03790,NaN,-0.400481,9.835227,0.525945,-0.015941,-0.004753,0.044716,-0.120567,-0.066668,-0.053796,0.289449,0.300941,-0.618804,-0.665383,86.957380,2.421979,-130.684233
03791,NaN,-0.386657,9.830913,0.594362,-0.071039,0.018857,0.043489,-0.110292,-0.072496,-0.047347,0.289219,0.300660,-0.618495,-0.665898,86.893958,2.444768,-130.730811
03792,NaN,-0.414625,9.823418,0.580942,-0.037271,0.021963,0.036529,-0.103537,-0.068634,-0.048068,0.288991,0.300403,-0.618201,-0.666386,86.834324,2.467959,-130.775035
03793,NaN,-0.546383,9.868800,0.456389,0.148187,0.028496,0.080606,-0.085019,-0.041322,-0.044602,0.288830,0.300254,-0.617933,-0.666771,86.785997,2.490082,-130.803542
03794,NaN,-0.675006,9.879877,0.485755,0.214333,0.135662,0.098882,-0.090073,-0.058763,-0.040572,0.288636,0.300026,-0.617680,-0.667192,86.734298,2.509225,-130.841915
03795,NaN,-0.492189,9.833725,0.547178,0.052995,0.032480,0.048343,-0.096261,-0.085837,-0.031127,0.288398,0.299669,-0.617460,-0.667659,86.678421,2.522051,-130.895737
03796,NaN,-0.394625,9.869924,0.619947,-0.060401,-0.003505,0.084373,-0.071841,-0.062755,-0.029629,0.288202,0.299420,-0.617289,-0.668013,86.637064,2.534733,-130.936064
03797,NaN,-0.355137,9.883212,0.729613,-0.165405,0.031010,0.102353,-0.065697,-0.050233,-0.034009,0.288018,0.299235,-0.617115,-0.668336,86.599633,2.550393,-130.969523
03798,NaN,-0.395626,9.879180,0.601408,-0.038909,-0.028434,0.092568,-0.072200,-0.038056,-0.038648,0.287868,0.299096,-0.616894,-0.668667,86.558665,2.569022,-130.996038
03799,NaN,-0.542455,9.871917,0.528938,0.114779,0.028484,0.087555,-0.066547,-0.029964,-0.041986,0.287720,0.299001,-0.616677,-0.668973,86.521275,2.589859,-131.018363
03800,NaN,-0.660633,9.892637,0.469485,0.239968,0.070437,0.109942,-0.061417,-0.040874,-0.039263,0.287543,0.298870,-0.616495,-0.669276,86.486392,2.608707,-131.046537
03801,NaN,-0.711329,9.868035,0.405408,0.323649,0.062607,0.083766,-0.055194,-0.039317,-0.030005,0.287391,0.298724,-0.616346,-0.669543,86.455227,2.622378,-131.073647
03802,NaN,-0.665828,9.837069,0.372331,0.321117,0.003606,0.048689,-0.059739,-0.051989,-0.025556,0.287223,0.298516,-0.616205,-0.669837,86.421021,2.632960,-131.107718
03803,NaN,-0.538446,9.890567,0.433507,0.195348,-0.060798,0.099896,-0.046812,-0.045504,-0.012561,0.287097,0.298308,-0.616119,-0.670063,86.394570,2.636453,-131.137705
03804,NaN,-0.425189,9.923488,0.613287,-0.010762,-0.034138,0.138757,-0.046808,-0.028113,-0.005624,0.287050,0.298137,-0.616018,-0.670253,86.368429,2.636467,-131.157399
03805,NaN,-0.340750,9.960964,0.845136,-0.236988,0.048121,0.186947,-0.048502,-0.014524,-0.008864,0.287033,0.298018,-0.615888,-0.670432,86.341904,2.638882,-131.169817
03806,NaN,-0.232731,9.917763,0.925818,-0.367244,0.019404,0.144123,-0.038782,-0.000287,-0.024562,0.286996,0.298009,-0.615745,-0.670583,86.321061,2.650727,-131.174278
03807,NaN,-0.106835,9.927727,0.897037,-0.428196,-0.099093,0.146362,-0.022508,-0.001033,-0.047598,0.286853,0.298092,-0.615625,-0.670718,86.309600,2.675758,-131.180290
03808,NaN,-0.246391,9.963682,0.798016,-0.264095,-0.066827,0.182225,-0.006520,0.042163,-0.071497,0.286741,0.298417,-0.615459,-0.670774,86.308299,2.716003,-131.162190
03809,NaN,-0.517233,9.967185,0.686773,-0.006581,0.057283,0.191343,-0.020354,0.041738,-0.085931,0.286600,0.298765,-0.615225,-0.670893,86.299040,2.764555,-131.144869
03810,NaN,-0.458146,9.856216,0.554367,0.049171,-0.073343,0.069337,-0.046214,0.002764,-0.088497,0.286369,0.298953,-0.614957,-0.671154,86.273897,2.813065,-131.149969
03811,NaN,-0.523567,9.745260,0.421275,0.187276,-0.110876,-0.046710,-0.023605,0.039147,-0.091689,0.286205,0.299308,-0.614708,-0.671294,86.262829,2.864934,-131.134203
03812,NaN,-0.675894,9.791880,0.452219,0.260037,0.013658,0.009453,-0.000889,0.049957,-0.076283,0.286093,0.299681,-0.614542,-0.671327,86.265029,2.908221,-131.111849
03813,NaN,-0.759325,9.782579,0.456516,0.307455,0.074867,0.004832,-0.016500,0.023907,-0.059584,0.285978,0.299894,-0.614387,-0.671423,86.257685,2.941085,-131.103873
03814,NaN,-0.649271,9.717932,0.435868,0.247150,-0.020362,-0.066496,-0.007840,0.035952,-0.044840,0.285938,0.300114,-0.614266,-0.671453,86.255576,2.965874,-131.088363
03815,NaN,-0.663400,9.718160,0.543837,0.172058,0.058862,-0.058436,0.016704,0.050303,-0.027047,0.285965,0.300364,-0.614232,-0.671360,86.268058,2.981139,-131.063934
03816,NaN,-0.666946,9.783262,0.672287,0.074953,0.140656,0.015008,0.033487,0.049003,-0.012103,0.286013,0.300586,-0.614280,-0.671197,86.290089,2.987690,-131.039724
03817,NaN,-0.486909,9.739532,0.774396,-0.124108,0.077056,-0.031383,0.030826,0.039831,-0.005305,0.286058,0.300753,-0.614342,-0.671046,86.310478,2.990105,-131.020648
03818,NaN,-0.386774,9.733726,0.746357,-0.172765,-0.012989,-0.044266,0.066467,0.067558,0.000238,0.286154,0.301047,-0.614492,-0.670735,86.351985,2.990258,-130.985354
03819,NaN,-0.574384,9.922586,0.695209,-0.016368,0.086323,0.150406,0.124905,0.101573,0.001821,0.286273,0.301535,-0.614791,-0.670191,86.428063,2.990859,-130.930364
03820,NaN,-0.619666,10.130000,0.743415,-0.029849,0.142959,0.362390,0.101307,0.067973,-0.003563,0.286305,0.301892,-0.615051,-0.669778,86.489539,2.993121,-130.894967
03821,NaN,-0.629582,10.054788,0.692441,0.008441,0.127277,0.284755,0.025726,0.050016,-0.011020,0.286370,0.302102,-0.615073,-0.669635,86.507247,2.999044,-130.870330
03822,NaN,-0.557130,9.854449,0.601209,0.025887,0.029512,0.075714,-0.002190,0.038997,-0.009256,0.286451,0.302231,-0.615019,-0.669592,86.508550,3.003520,-130.851723
03823,NaN,-0.597611,9.816242,0.672560,-0.004444,0.110100,0.044084,0.036592,0.014569,-0.016511,0.286371,0.302356,-0.615120,-0.669477,86.531514,3.011411,-130.847524
03824,NaN,-0.603132,9.862511,0.535551,0.098582,0.023285,0.082233,0.056034,0.000768,-0.026847,0.286187,0.302494,-0.615289,-0.669338,86.564998,3.024616,-130.851417
03825,NaN,-0.485309,9.931126,0.444012,0.086728,-0.129446,0.138979,0.032543,-0.030310,-0.028097,0.285938,0.302498,-0.615423,-0.669320,86.584130,3.037525,-130.873320
03826,NaN,-0.446089,9.945171,0.545194,-0.018193,-0.094731,0.156935,0.003182,-0.023742,-0.025807,0.285762,0.302475,-0.615452,-0.669379,86.586587,3.049301,-130.891207
03827,NaN,-0.576942,9.890066,0.489436,0.107724,-0.029719,0.105645,-0.011996,-0.001981,-0.026679,0.285674,0.302509,-0.615396,-0.669452,86.581020,3.062525,-130.896287
03828,NaN,-0.664437,9.805171,0.450077,0.193441,0.015270,0.023357,-0.015167,0.000054,-0.019377,0.285621,0.302520,-0.615339,-0.669522,86.573698,3.071435,-130.900326
03829,NaN,-0.800319,9.783343,0.515191,0.233303,0.160445,0.012767,-0.017440,-0.002548,-0.004650,0.285611,0.302474,-0.615301,-0.669583,86.565037,3.071880,-130.905475
03830,NaN,-0.689450,9.686869,0.484471,0.183920,0.063920,-0.091187,-0.004898,-0.034526,-0.001449,0.285496,0.302328,-0.615355,-0.669648,86.562570,3.069349,-130.928706
03831,NaN,-0.434850,9.687921,0.431807,0.056484,-0.161162,-0.106905,0.034897,-0.045395,0.002309,0.285299,0.302191,-0.615563,-0.669602,86.582541,3.064326,-130.958152
03832,NaN,-0.535945,9.849363,0.481162,0.083970,-0.061158,0.062428,0.067813,-0.010798,0.015597,0.285204,0.302176,-0.615852,-0.669384,86.622495,3.052866,-130.967213
03833,NaN,-0.618074,9.996295,0.565352,0.072563,0.048571,0.218261,0.033438,-0.027445,0.004336,0.285070,0.302092,-0.616034,-0.669312,86.642337,3.047385,-130.986325
03834,NaN,-0.525206,9.914479,0.498195,0.062029,-0.057657,0.127823,-0.024288,-0.037067,0.006485,0.285002,0.301886,-0.616038,-0.669429,86.628707,3.040259,-131.010745
03835,NaN,-0.481698,9.873682,0.494541,0.038018,-0.090839,0.084610,-0.025954,-0.025967,-0.007220,0.284925,0.301758,-0.616000,-0.669555,86.614434,3.041420,-131.029264
03836,NaN,-0.428270,9.842828,0.403746,0.072865,-0.189331,0.045636,-0.019738,-0.025440,-0.002436,0.284857,0.301625,-0.615990,-0.669653,86.603750,3.039779,-131.047325
03837,NaN,-0.405921,9.893393,0.517015,-0.025534,-0.137083,0.101538,-0.014893,-0.024716,-0.004041,0.284778,0.301507,-0.615992,-0.669738,86.595937,3.039208,-131.064972
03838,NaN,-0.454713,9.923443,0.558295,-0.022743,-0.077160,0.136519,-0.032248,-0.009094,-0.005086,0.284770,0.301419,-0.615913,-0.669854,86.578577,3.039634,-131.073760
03839,NaN,-0.522876,9.957024,0.544330,0.035109,-0.040558,0.172759,-0.045006,0.001822,-0.017486,0.284772,0.301387,-0.615757,-0.670011,86.554206,3.047531,-131.076905
03840,NaN,-0.509770,9.898671,0.552256,0.023483,-0.045313,0.114343,-0.075884,-0.007120,-0.014690,0.284803,0.301273,-0.615514,-0.670272,86.511886,3.053509,-131.084897
03841,NaN,-0.410902,9.802655,0.635719,-0.100996,-0.062912,0.018430,-0.067403,-0.018206,-0.018132,0.284776,0.301145,-0.615309,-0.670529,86.474064,3.061126,-131.099356
03842,NaN,-0.402882,9.845146,0.619724,-0.090620,-0.087004,0.059368,-0.040191,0.003963,-0.013113,0.284793,0.301114,-0.615172,-0.670661,86.452534,3.066584,-131.100953
03843,NaN,-0.554409,9.992271,0.629302,0.004386,0.018159,0.214701,-0.024546,0.014746,-0.027797,0.284769,0.301185,-0.615051,-0.670750,86.440300,3.080831,-131.097129
03844,NaN,-0.494340,9.993452,0.498249,0.065674,-0.118495,0.204465,-0.083200,-0.009480,-0.041121,0.284716,0.301134,-0.614747,-0.671075,86.393658,3.101822,-131.107432
03845,NaN,-0.496571,9.826931,0.454869,0.103242,-0.140880,0.035741,-0.127038,-0.006186,-0.038425,0.284747,0.301023,-0.614295,-0.671525,86.322050,3.121426,-131.115921
03846,NaN,-0.552366,9.791278,0.428063,0.165585,-0.123117,0.001328,-0.097891,0.002139,-0.037952,0.284761,0.300980,-0.613929,-0.671872,86.267350,3.141013,-131.119499
03847,NaN,-0.552499,9.844634,0.491580,0.122278,-0.094138,0.058478,-0.073787,-0.010953,-0.043646,0.284681,0.300946,-0.613654,-0.672173,86.226071,3.163477,-131.130695
03848,NaN,-0.505081,9.878889,0.537688,0.060053,-0.111021,0.092904,-0.091185,-0.014202,-0.051256,0.284590,0.300899,-0.613314,-0.672543,86.174662,3.190044,-131.144168
03849,NaN,-0.539046,9.882203,0.599856,0.040176,-0.054964,0.102134,-0.114375,0.008456,-0.044588,0.284627,0.300874,-0.612873,-0.672940,86.110710,3.213724,-131.144435
03850,NaN,-0.604676,9.792495,0.573035,0.108391,-0.026299,0.014545,-0.131494,0.009557,-0.046900,0.284684,0.300836,-0.612370,-0.673391,86.036966,3.238704,-131.144193
03851,NaN,-0.722831,9.700159,0.573297,0.190383,0.060497,-0.070802,-0.105992,0.015461,-0.038083,0.284750,0.300826,-0.611957,-0.673743,85.978149,3.258963,-131.140336
03852,NaN,-0.885149,9.781671,0.565919,0.307498,0.162941,0.019084,-0.059083,0.013361,-0.034670,0.284752,0.300866,-0.611710,-0.673948,85.946043,3.277107,-131.137472
03853,NaN,-0.750901,9.889849,0.629363,0.175719,0.088131,0.123631,-0.057634,-0.035254,-0.026584,0.284628,0.300719,-0.611551,-0.674212,85.913294,3.288702,-131.162332
03854,NaN,-0.496365,9.897794,0.826642,-0.135638,0.018726,0.131018,-0.093510,-0.030874,-0.022325,0.284587,0.300522,-0.611269,-0.674572,85.860038,3.297976,-131.184305
03855,NaN,-0.454415,9.755092,0.906797,-0.219164,0.044344,-0.007557,-0.123964,0.013267,-0.020730,0.284733,0.300429,-0.610823,-0.674955,85.790827,3.308307,-131.180739
03856,NaN,-0.598325,9.623682,0.869971,-0.092387,0.132260,-0.132601,-0.097693,0.025206,-0.019559,0.284880,0.300407,-0.610451,-0.675240,85.737027,3.318327,-131.170518
03857,NaN,-0.736406,9.583986,0.676040,0.147455,0.108227,-0.178443,-0.032895,0.015177,-0.009122,0.284931,0.300412,-0.610329,-0.675326,85.720204,3.322059,-131.165755
03858,NaN,-0.719580,9.793021,0.603627,0.195263,0.028070,0.023293,0.008353,-0.012864,-0.004689,0.284852,0.300368,-0.610392,-0.675322,85.725940,3.321964,-131.176693
03859,NaN,-0.682676,9.965872,0.521426,0.236484,-0.069566,0.187101,-0.020307,-0.015766,-0.001703,0.284816,0.300263,-0.610367,-0.675406,85.715291,3.320122,-131.189324
03860,NaN,-0.677536,9.976615,0.494607,0.257856,-0.095016,0.195360,-0.088909,-0.007991,0.003999,0.284927,0.300070,-0.610108,-0.675680,85.665483,3.315266,-131.197097
03861,NaN,-0.611805,9.755643,0.477142,0.232385,-0.141426,-0.030023,-0.131357,-0.023191,0.009398,0.285072,0.299749,-0.609735,-0.676097,85.590995,3.306765,-131.213400
03862,NaN,-0.466445,9.639648,0.600693,0.051444,-0.165318,-0.144635,-0.112019,-0.032758,0.016838,0.285186,0.299400,-0.609451,-0.676460,85.527167,3.293459,-131.234764
03863,NaN,-0.431875,9.639827,0.799239,-0.112192,-0.064929,-0.131017,-0.072252,-0.005261,0.036884,0.285390,0.299142,-0.609293,-0.676630,85.487335,3.270135,-131.239398
03864,NaN,-0.620691,9.703708,0.852088,-0.020023,0.105401,-0.052475,-0.032052,0.039935,0.045090,0.285701,0.299066,-0.609219,-0.676599,85.471777,3.243945,-131.217877
03865,NaN,-0.764047,9.755925,0.664722,0.220487,0.087866,-0.007212,-0.011626,0.038697,0.041230,0.285963,0.299029,-0.609210,-0.676513,85.468083,3.220054,-131.197333
03866,NaN,-0.806674,9.834775,0.518668,0.363594,0.020837,0.062023,0.001771,0.018991,0.057057,0.286200,0.298894,-0.609298,-0.676394,85.471244,3.186085,-131.187247
03867,NaN,-0.778831,9.995984,0.578717,0.308582,0.028197,0.225498,-0.026976,-0.000327,0.063748,0.286441,0.298633,-0.609327,-0.676380,85.457571,3.147556,-131.188072
03868,NaN,-0.654150,10.038513,0.728003,0.123897,0.029884,0.272618,-0.083745,-0.017251,0.069113,0.286736,0.298217,-0.609195,-0.676558,85.410622,3.105055,-131.198145
03869,NaN,-0.618620,9.964252,0.827620,0.035928,0.074401,0.204654,-0.115241,-0.001242,0.070922,0.287130,0.297805,-0.608937,-0.676805,85.346330,3.062368,-131.199104
03870,NaN,-0.516884,9.876319,0.989899,-0.142158,0.110104,0.124938,-0.117126,-0.023210,0.063239,0.287437,0.297338,-0.608691,-0.677101,85.280080,3.022920,-131.212769
03871,NaN,-0.295710,9.858698,1.065857,-0.332605,-0.007186,0.102287,-0.111383,-0.047663,0.054741,0.287629,0.296823,-0.608488,-0.677427,85.216601,2.987289,-131.240928
03872,NaN,-0.361684,9.839137,1.002952,-0.231363,0.000694,0.081341,-0.092671,0.012739,0.044908,0.287946,0.296569,-0.608246,-0.677621,85.165404,2.960006,-131.234838
03873,NaN,-0.659371,9.834215,1.036988,-0.051954,0.244955,0.094845,-0.081100,0.001422,0.041466,0.288197,0.296304,-0.608056,-0.677801,85.120781,2.934291,-131.235592
03874,NaN,-0.750986,9.850531,1.035953,0.018454,0.309869,0.115745,-0.076739,-0.051677,0.037693,0.288270,0.295876,-0.607949,-0.678052,85.076814,2.907982,-131.266632
03875,NaN,-0.650400,9.812531,1.007384,-0.019548,0.218573,0.070402,-0.051499,-0.066519,0.038529,0.288262,0.295434,-0.607952,-0.678247,85.047167,2.880640,-131.306166
03876,NaN,-0.469193,9.836432,1.029173,-0.148403,0.095396,0.086990,-0.029994,-0.072723,0.034193,0.288190,0.295013,-0.608029,-0.678392,85.029403,2.855254,-131.349378
03877,NaN,-0.336022,9.858483,1.022870,-0.226045,-0.009172,0.101831,-0.023938,-0.059781,0.031484,0.288135,0.294653,-0.608106,-0.678502,85.015903,2.832257,-131.385606
03878,NaN,-0.357179,9.893627,1.089127,-0.256806,0.048377,0.143684,-0.014949,-0.033625,0.025918,0.288131,0.294411,-0.608165,-0.678555,85.007874,2.813522,-131.406874
03879,NaN,-0.354290,9.862591,1.024006,-0.208387,0.007899,0.107057,-0.007925,-0.028748,0.015593,0.288093,0.294228,-0.608229,-0.678594,85.004397,2.801122,-131.426185
03880,NaN,-0.352758,9.852309,1.001913,-0.192173,-0.005291,0.094851,0.009033,-0.018097,0.007379,0.288039,0.294130,-0.608320,-0.678578,85.010507,2.793741,-131.439503
03881,NaN,-0.337946,9.907261,0.947947,-0.160627,-0.055209,0.144108,0.022548,0.005165,-0.002148,0.288000,0.294160,-0.608411,-0.678500,85.025297,2.793154,-131.440156
03882,NaN,-0.367258,9.889977,0.954030,-0.148098,-0.026389,0.128845,0.014302,0.015707,-0.007835,0.287989,0.294231,-0.608448,-0.678440,85.035331,2.796141,-131.434914
03883,NaN,-0.464394,9.907078,0.944123,-0.077709,0.038516,0.149727,0.009025,0.023825,-0.016051,0.287980,0.294345,-0.608446,-0.678396,85.042773,2.804326,-131.425734
03884,NaN,-0.533229,9.808138,0.934419,-0.030704,0.092832,0.053795,0.020893,0.014469,-0.024667,0.287899,0.294472,-0.608483,-0.678343,85.056509,2.816858,-131.422033
03885,NaN,-0.536337,9.808259,0.931363,-0.030664,0.093300,0.053791,0.041050,-0.007755,-0.038066,0.287671,0.294593,-0.608602,-0.678280,85.081360,2.836046,-131.431999
03886,NaN,-0.425274,9.868007,0.872488,-0.064303,-0.033298,0.102675,0.061647,-0.023862,-0.044954,0.287344,0.294710,-0.608803,-0.678187,85.117312,2.858280,-131.451190
03887,NaN,-0.372796,9.913647,0.872679,-0.105340,-0.075855,0.145429,0.061044,-0.016493,-0.054459,0.287006,0.294882,-0.608977,-0.678099,85.153320,2.886490,-131.466659
03888,NaN,-0.439664,9.917940,0.730671,0.038423,-0.119926,0.141049,0.034406,-0.000035,-0.055661,0.286756,0.295073,-0.609035,-0.678070,85.174310,2.916009,-131.472722
03889,NaN,-0.621831,9.872714,0.666341,0.199753,-0.023306,0.099968,0.028795,0.006438,-0.057246,0.286527,0.295285,-0.609063,-0.678050,85.192417,2.946919,-131.475081
03890,NaN,-0.574341,9.865103,0.613418,0.202020,-0.094655,0.085627,0.031205,-0.016882,-0.055121,0.286231,0.295413,-0.609134,-0.678055,85.211072,2.975327,-131.490731
03891,NaN,-0.426833,9.904190,0.647151,0.074438,-0.187923,0.119740,0.033655,-0.007113,-0.052525,0.285967,0.295570,-0.609206,-0.678033,85.231759,3.002903,-131.500903
03892,NaN,-0.442228,9.994181,0.655975,0.075222,-0.180733,0.210845,0.018251,0.029802,-0.048601,0.285855,0.295818,-0.609177,-0.677998,85.244399,3.029818,-131.489532
03893,NaN,-0.567297,9.943726,0.786138,0.055517,0.000028,0.178030,-0.015105,0.042976,-0.046125,0.285838,0.296055,-0.609021,-0.678042,85.238537,3.056063,-131.470694
03894,NaN,-0.494534,9.819142,0.793835,-0.003052,-0.042324,0.050805,-0.037121,0.026237,-0.046103,0.285806,0.296204,-0.608812,-0.678178,85.219358,3.081384,-131.461247
03895,NaN,-0.480083,9.792855,0.808919,-0.025735,-0.045728,0.025101,-0.021617,0.040212,-0.047240,0.285787,0.296426,-0.608636,-0.678247,85.209652,3.108120,-131.444053
03896,NaN,-0.572163,9.873195,0.824492,0.022746,0.022004,0.111331,0.005220,0.058048,-0.047360,0.285784,0.296747,-0.608524,-0.678209,85.215728,3.135682,-131.416483
03897,NaN,-0.706997,9.962622,0.780525,0.143765,0.082325,0.204071,-0.008422,0.047237,-0.045314,0.285773,0.297007,-0.608385,-0.678224,85.213875,3.161701,-131.395106
03898,NaN,-0.812152,9.946344,0.761857,0.225265,0.145697,0.192202,-0.040632,0.021363,-0.048274,0.285724,0.297141,-0.608168,-0.678381,85.192541,3.188032,-131.388560
03899,NaN,-0.666837,9.890957,0.659518,0.205413,-0.031106,0.120464,-0.059025,-0.005513,-0.042790,0.285638,0.297142,-0.607936,-0.678625,85.159937,3.210092,-131.397041
03900,NaN,-0.484257,9.846375,0.715381,0.043399,-0.133481,0.070514,-0.058135,0.003724,-0.043247,0.285577,0.297176,-0.607692,-0.678854,85.128026,3.232704,-131.400365
03901,NaN,-0.565413,9.856932,0.768447,0.058899,-0.045136,0.090030,-0.053982,0.033302,-0.035567,0.285625,0.297292,-0.607433,-0.679015,85.099628,3.252479,-131.386575
03902,NaN,-0.593258,9.860319,0.771871,0.076583,-0.028597,0.095236,-0.064173,0.024183,-0.038534,0.285652,0.297372,-0.607146,-0.679225,85.064932,3.273402,-131.377992
03903,NaN,-0.572786,9.855527,0.780906,0.059016,-0.044232,0.090033,-0.076145,0.016367,-0.029282,0.285702,0.297381,-0.606845,-0.679469,85.023324,3.288760,-131.373650
03904,NaN,-0.619116,9.874330,0.750925,0.115546,-0.037532,0.108745,-0.062339,0.028024,-0.034611,0.285751,0.297464,-0.606565,-0.679662,84.989821,3.307647,-131.362703
03905,NaN,-0.718484,9.889740,0.748563,0.186031,0.027264,0.129554,-0.075093,0.026756,-0.031545,0.285825,0.297518,-0.606248,-0.679890,84.949122,3.324881,-131.352291
03906,NaN,-0.649668,9.876764,0.764042,0.133276,-0.020555,0.113948,-0.103337,-0.006307,-0.029761,0.285847,0.297412,-0.605885,-0.680251,84.891006,3.339275,-131.360753
03907,NaN,-0.546394,9.790301,0.815416,0.029914,-0.063868,0.026442,-0.101633,-0.004621,-0.028509,0.285876,0.297312,-0.605526,-0.680602,84.833996,3.353187,-131.368020
03908,NaN,-0.573112,9.793399,0.822349,0.047603,-0.047333,0.031644,-0.086039,0.011540,-0.026902,0.285936,0.297282,-0.605200,-0.680879,84.786392,3.366858,-131.366160
03909,NaN,-0.614353,9.844174,0.806611,0.093109,-0.039165,0.083049,-0.091748,0.002189,-0.021875,0.285992,0.297197,-0.604877,-0.681181,84.735370,3.377271,-131.369556
03910,NaN,-0.645355,9.835630,0.846123,0.089579,0.003300,0.079935,-0.103356,-0.004334,-0.020772,0.286050,0.297070,-0.604523,-0.681525,84.677328,3.386610,-131.376467
03911,NaN,-0.619041,9.852395,0.848960,0.077112,-0.024570,0.095242,-0.110652,0.000115,-0.025076,0.286118,0.296963,-0.604132,-0.681890,84.615403,3.398844,-131.380859
03912,NaN,-0.590803,9.745724,0.882584,0.037613,-0.021091,-0.009358,-0.129259,0.006408,-0.011271,0.286280,0.296807,-0.603688,-0.682283,84.542911,3.403329,-131.381139
03913,NaN,-0.696234,9.696685,0.860678,0.130133,0.040710,-0.053968,-0.110592,0.004866,-0.010410,0.286412,0.296670,-0.603312,-0.682620,84.481174,3.407366,-131.382234
03914,NaN,-0.684309,9.781611,0.884356,0.113338,0.031902,0.031925,-0.069895,-0.013279,-0.011627,0.286425,0.296532,-0.603099,-0.682863,84.442024,3.410965,-131.393789
03915,NaN,-0.652277,9.830646,0.897195,0.089865,0.005540,0.079932,-0.092702,-0.020909,-0.005910,0.286466,0.296320,-0.602828,-0.683177,84.389814,3.411042,-131.409462
03916,NaN,-0.700844,9.847778,0.925044,0.109088,0.051864,0.102504,-0.107418,-0.026859,-0.003466,0.286521,0.296057,-0.602517,-0.683541,84.328730,3.409202,-131.428320
03917,NaN,-0.696779,9.868634,0.925892,0.114243,0.040098,0.123008,-0.103123,-0.051405,-0.013753,0.286459,0.295748,-0.602243,-0.683943,84.269442,3.411945,-131.461918
03918,NaN,-0.602460,9.871435,0.990834,0.011626,0.003675,0.126618,-0.127261,-0.059036,-0.015904,0.286404,0.295385,-0.601892,-0.684432,84.195852,3.415301,-131.499865
03919,NaN,-0.740258,9.772469,0.965616,0.127666,0.092241,0.033973,-0.137303,-0.047289,-0.009267,0.286421,0.295029,-0.601499,-0.684923,84.117110,3.415700,-131.530624
03920,NaN,-0.783881,9.791155,0.942218,0.184219,0.098900,0.052668,-0.116527,-0.078219,-0.013099,0.286302,0.294606,-0.601216,-0.685403,84.049025,3.416225,-131.579365
03921,NaN,-0.655069,9.813919,0.944499,0.106351,-0.005459,0.067741,-0.097923,-0.095928,-0.007284,0.286119,0.294131,-0.601032,-0.685845,83.991240,3.412433,-131.638158
03922,NaN,-0.570564,9.896416,0.999301,0.020574,-0.048716,0.150264,-0.107598,-0.083763,-0.013229,0.285969,0.293702,-0.600787,-0.686306,83.928086,3.412593,-131.690072
03923,NaN,-0.584021,9.819366,1.018375,0.021402,-0.025330,0.076550,-0.134711,-0.070620,-0.007276,0.285918,0.293263,-0.600438,-0.686820,83.850015,3.410271,-131.734055
03924,NaN,-0.660445,9.798200,1.012527,0.085372,0.021838,0.059412,-0.120547,-0.071234,-0.011485,0.285831,0.292853,-0.600132,-0.687298,83.779874,3.410080,-131.778713
03925,NaN,-0.502239,9.734735,1.079870,-0.064324,-0.052050,-0.005722,-0.108081,-0.090961,-0.017996,0.285642,0.292415,-0.599888,-0.687776,83.716447,3.412560,-131.834918
03926,NaN,-0.397538,9.741971,1.034081,-0.092362,-0.167769,-0.009796,-0.092831,-0.077464,-0.014186,0.285486,0.292031,-0.599682,-0.688184,83.661962,3.413417,-131.883300
03927,NaN,-0.479209,9.718824,1.077991,-0.065726,-0.080926,-0.023082,-0.072793,-0.027987,-0.008385,0.285467,0.291829,-0.599484,-0.688450,83.620857,3.414204,-131.903221
03928,NaN,-0.584753,9.699750,1.118698,-0.021406,0.021976,-0.031193,-0.069267,-0.023152,-0.006177,0.285467,0.291641,-0.599293,-0.688696,83.581748,3.413896,-131.920112
03929,NaN,-0.636921,9.675332,1.107670,0.024889,0.053038,-0.053527,-0.045026,-0.029907,0.002050,0.285439,0.291445,-0.599206,-0.688866,83.556538,3.408750,-131.939931
03930,NaN,-0.594779,9.768880,1.096684,0.011664,0.002305,0.035528,-0.011164,-0.018580,0.003605,0.285402,0.291326,-0.599223,-0.688917,83.550915,3.403153,-131.953585
03931,NaN,-0.553093,9.891832,1.151216,-0.049882,-0.007207,0.161129,-0.013296,0.010782,0.008412,0.285471,0.291293,-0.599198,-0.688925,83.545254,3.396869,-131.950168
03932,NaN,-0.613110,9.804252,1.111872,0.018457,0.020815,0.073401,-0.050694,0.013000,0.010227,0.285608,0.291208,-0.599043,-0.689039,83.518076,3.389535,-131.945380
03933,NaN,-0.657694,9.668515,1.094707,0.058911,0.057183,-0.060539,-0.039567,0.016324,0.016053,0.285757,0.291133,-0.598931,-0.689106,83.497630,3.379267,-131.938378
03934,NaN,-0.699597,9.698513,1.082901,0.099386,0.077554,-0.029673,0.004150,0.016634,0.021687,0.285865,0.291104,-0.598976,-0.689034,83.502040,3.365647,-131.930769
03935,NaN,-0.679332,9.786943,1.043661,0.119854,0.029169,0.052391,0.018220,0.001393,0.029864,0.285933,0.291017,-0.599105,-0.688930,83.514172,3.346465,-131.931542
03936,NaN,-0.615182,9.845250,1.018181,0.099961,-0.039134,0.103590,-0.001379,-0.008724,0.025251,0.285985,0.290882,-0.599173,-0.688907,83.514581,3.329173,-131.938167
03937,NaN,-0.636619,9.859090,1.039458,0.101538,-0.008858,0.120943,-0.015496,0.009323,0.030577,0.286128,0.290775,-0.599175,-0.688890,83.507856,3.310250,-131.934200
03938,NaN,-0.733682,9.843543,1.020582,0.183194,0.054308,0.108941,-0.021310,-0.001574,0.035832,0.286267,0.290604,-0.599179,-0.688901,83.497124,3.287397,-131.936056
03939,NaN,-0.590462,9.787548,1.021283,0.088334,-0.043138,0.045208,-0.015123,-0.037279,0.032415,0.286276,0.290332,-0.599252,-0.688949,83.489117,3.264428,-131.958492
03940,NaN,-0.463212,9.828198,1.112126,-0.059046,-0.080184,0.088573,-0.003252,-0.027769,0.030716,0.286293,0.290112,-0.599349,-0.688950,83.487867,3.242785,-131.975611
03941,NaN,-0.552146,9.876268,1.117842,0.000589,-0.013920,0.141955,-0.007262,0.011584,0.022478,0.286402,0.290047,-0.599365,-0.688918,83.485840,3.228534,-131.971070
03942,NaN,-0.630975,9.834578,1.110939,0.059517,0.045379,0.104250,-0.038879,-0.009821,0.018373,0.286481,0.289875,-0.599295,-0.689018,83.464716,3.215081,-131.978756
03943,NaN,-0.565403,9.739235,1.049590,0.060732,-0.032943,-0.000998,-0.029735,-0.029530,0.017961,0.286485,0.289652,-0.599285,-0.689119,83.448519,3.200831,-131.997624
03944,NaN,-0.587588,9.753010,1.071126,0.062391,-0.002672,0.016344,0.010781,-0.014625,0.017347,0.286475,0.289537,-0.599392,-0.689079,83.455696,3.187646,-132.008111
03945,NaN,-0.673693,9.881519,1.200118,0.030635,0.133935,0.163268,0.015296,-0.016817,0.016335,0.286445,0.289426,-0.599518,-0.689028,83.465812,3.175124,-132.020128
03946,NaN,-0.623589,9.834694,1.114081,0.059748,0.047248,0.104239,-0.006866,-0.038129,0.009301,0.286362,0.289229,-0.599586,-0.689087,83.462113,3.164988,-132.044542
03947,NaN,-0.536615,9.849744,1.002046,0.086385,-0.092100,0.101624,0.003039,-0.034204,0.002446,0.286250,0.289084,-0.599674,-0.689117,83.464609,3.159308,-132.067146
03948,NaN,-0.608358,9.871791,1.018191,0.123357,-0.029716,0.129293,0.011264,-0.013578,-0.000077,0.286182,0.289026,-0.599755,-0.689099,83.472040,3.156112,-132.078176
03949,NaN,-0.665010,9.816528,0.988604,0.180648,-0.000263,0.074232,-0.008502,-0.024535,-0.001367,0.286102,0.288907,-0.599784,-0.689156,83.468204,3.153176,-132.095689
03950,NaN,-0.668811,9.784780,0.976340,0.191725,-0.001376,0.041535,-0.002294,-0.005447,0.010467,0.286115,0.288826,-0.599823,-0.689152,83.468161,3.144509,-132.101395
03951,NaN,-0.777025,9.744959,1.018833,0.230997,0.113674,0.012776,0.019178,0.025857,0.020101,0.286219,0.288857,-0.599907,-0.689022,83.481995,3.132681,-132.088902
03952,NaN,-0.597955,9.760791,1.010012,0.117670,-0.022629,0.017692,0.040713,0.006337,0.026172,0.286258,0.288831,-0.600100,-0.688849,83.507018,3.115841,-132.086873
03953,NaN,-0.418690,9.825353,1.111241,-0.076140,-0.090037,0.083464,0.060184,0.015557,0.034075,0.286321,0.288843,-0.600360,-0.688591,83.544053,3.095392,-132.079305
03954,NaN,-0.407227,9.918829,1.198085,-0.146236,-0.045099,0.185362,0.059433,0.058005,0.034644,0.286517,0.288996,-0.600555,-0.688275,83.581414,3.077044,-132.047290
03955,NaN,-0.357013,9.920944,1.220018,-0.197646,-0.062915,0.187213,0.022900,0.050240,0.026067,0.286710,0.289098,-0.600626,-0.688090,83.598128,3.063369,-132.020483
03956,NaN,-0.517460,9.867695,1.267338,-0.128003,0.096410,0.148218,0.005052,0.077018,0.026367,0.287014,0.289263,-0.600594,-0.687922,83.604865,3.050926,-131.978170
03957,NaN,-0.668462,9.763752,1.390681,-0.123485,0.303859,0.066792,0.005719,0.048332,0.016694,0.287192,0.289360,-0.600596,-0.687805,83.611599,3.042332,-131.953415
03958,NaN,-0.346650,9.754139,1.396633,-0.342836,0.071350,0.040807,0.002911,-0.069394,-0.001160,0.286964,0.289101,-0.600727,-0.687894,83.612576,3.036223,-131.996347
03959,NaN,-0.154627,9.776977,1.226474,-0.344651,-0.184099,0.034381,0.034965,-0.011112,-0.000035,0.286864,0.289085,-0.600891,-0.687800,83.634162,3.033346,-132.006549
03960,NaN,-0.496438,9.917732,1.131895,-0.043184,-0.005522,0.181668,0.058786,0.075507,-0.001873,0.286989,0.289407,-0.601005,-0.687513,83.671528,3.036851,-131.966902
03961,NaN,-0.722282,9.930789,1.174893,0.073512,0.191320,0.211315,0.001845,0.002843,-0.000551,0.286977,0.289394,-0.601033,-0.687498,83.674632,3.035249,-131.968981
03962,NaN,-0.538151,9.785238,1.054846,0.034557,-0.008665,0.043880,-0.035664,-0.028465,0.005119,0.286950,0.289202,-0.600982,-0.687635,83.654768,3.028191,-131.988181
03963,NaN,-0.378457,9.692648,1.044706,-0.067169,-0.123654,-0.057573,-0.000119,0.017202,0.007374,0.287012,0.289213,-0.600995,-0.687594,83.657183,3.022982,-131.981552
03964,NaN,-0.484488,9.808793,1.071591,-0.011683,-0.038199,0.066273,0.033920,0.030237,0.010131,0.287078,0.289307,-0.601106,-0.687430,83.678973,3.016781,-131.966960
03965,NaN,-0.642085,9.862603,0.990434,0.154306,0.022612,0.119072,0.033624,0.027575,0.012245,0.287138,0.289385,-0.601227,-0.687266,83.700994,3.009359,-131.954308
03966,NaN,-0.665054,9.896340,1.053777,0.123887,0.080483,0.160700,0.000365,0.009164,0.021583,0.287229,0.289325,-0.601269,-0.687216,83.702961,2.995303,-131.951017
03967,NaN,-0.652763,9.826241,1.085724,0.090979,0.101506,0.093943,-0.026071,-0.005703,0.020943,0.287305,0.289178,-0.601245,-0.687267,83.689869,2.980891,-131.956703
03968,NaN,-0.602061,9.788596,1.024309,0.103902,0.028505,0.047165,-0.009542,0.004635,0.025431,0.287410,0.289076,-0.601266,-0.687248,83.686038,2.964358,-131.955749
03969,NaN,-0.675763,9.779359,1.026991,0.151866,0.089266,0.042068,0.027441,0.017153,0.034633,0.287527,0.289045,-0.601410,-0.687086,83.704150,2.943620,-131.947123
03970,NaN,-0.611088,9.866775,1.066942,0.083667,0.062483,0.129854,0.021551,-0.012101,0.034336,0.287567,0.288903,-0.601575,-0.686985,83.717673,2.920965,-131.955160
03971,NaN,-0.502352,9.884631,1.031845,0.039190,-0.039343,0.138187,0.010400,-0.014454,0.033006,0.287607,0.288742,-0.601705,-0.686922,83.725124,2.899100,-131.964976
03972,NaN,-0.508696,9.870243,1.117562,-0.019041,0.026897,0.133584,0.000632,0.014965,0.034472,0.287759,0.288663,-0.601759,-0.686844,83.727446,2.878065,-131.957575
03973,NaN,-0.582101,9.851235,1.098624,0.044997,0.073868,0.116319,0.002576,0.000914,0.028055,0.287839,0.288558,-0.601833,-0.686790,83.730845,2.859968,-131.958991
03974,NaN,-0.487854,9.793132,1.070904,0.001401,-0.005220,0.050895,0.008945,-0.031841,0.024077,0.287802,0.288362,-0.601967,-0.686770,83.736565,2.841925,-131.978935
03975,NaN,-0.433450,9.846118,1.153248,-0.093083,0.006248,0.109771,0.024115,-0.022093,0.017689,0.287747,0.288240,-0.602134,-0.686698,83.751649,2.828312,-131.994120
03976,NaN,-0.465331,9.881621,1.028637,0.021795,-0.053002,0.133054,0.026348,0.000220,0.013077,0.287744,0.288211,-0.602266,-0.686595,83.768216,2.818539,-131.996474
03977,NaN,-0.564575,9.866942,1.006039,0.103527,0.009977,0.120922,0.013868,-0.016769,0.008518,0.287687,0.288120,-0.602376,-0.686561,83.777512,2.810448,-132.009258
03978,NaN,-0.472261,9.838097,1.045038,0.011756,-0.027683,0.091977,0.005213,-0.024705,0.011550,0.287634,0.287981,-0.602470,-0.686560,83.781269,2.799999,-132.025925
03979,NaN,-0.375283,9.821392,1.052109,-0.058953,-0.091317,0.071426,0.012470,-0.015461,0.006646,0.287579,0.287898,-0.602569,-0.686530,83.789711,2.793078,-132.037852
03980,NaN,-0.422896,9.849572,1.091652,-0.055594,-0.031168,0.106010,0.013814,-0.002389,0.002374,0.287549,0.287875,-0.602647,-0.686484,83.798992,2.789242,-132.042364
03981,NaN,-0.470622,9.848318,1.064252,-0.004126,-0.012447,0.104133,0.009165,-0.002612,-0.000815,0.287511,0.287853,-0.602706,-0.686457,83.805823,2.787289,-132.047608
03982,NaN,-0.499533,9.830636,1.071154,0.008580,0.016222,0.088726,0.006221,-0.001798,-0.005749,0.287466,0.287846,-0.602745,-0.686444,83.810747,2.788119,-132.052287
03983,NaN,-0.542826,9.841511,1.011743,0.081154,0.008935,0.095236,0.018030,-0.007884,0.000487,0.287404,0.287816,-0.602845,-0.686396,83.822582,2.785146,-132.060417
03984,NaN,-0.518904,9.837467,1.012070,0.063551,-0.006628,0.090102,0.016191,-0.011668,-0.003459,0.287323,0.287782,-0.602936,-0.686364,83.832952,2.784064,-132.070583
03985,NaN,-0.466397,9.841352,0.982344,0.049294,-0.064192,0.088231,0.018998,-0.014912,-0.002717,0.287227,0.287739,-0.603044,-0.686327,83.845224,2.782554,-132.082844
03986,NaN,-0.457164,9.865767,0.916776,0.091596,-0.115730,0.105026,0.014420,0.002618,-0.003362,0.287191,0.287751,-0.603108,-0.686280,83.854976,2.782298,-132.084857
03987,NaN,-0.514604,9.840233,0.952966,0.100823,-0.045037,0.086351,0.015297,0.013117,0.002286,0.287203,0.287785,-0.603171,-0.686207,83.865886,2.779656,-132.080772
03988,NaN,-0.485706,9.858097,0.944212,0.088279,-0.072774,0.101768,0.005532,0.010095,0.005836,0.287234,0.287782,-0.603207,-0.686163,83.870779,2.774618,-132.077957
03989,NaN,-0.542166,9.812931,0.936037,0.129608,-0.029742,0.058789,0.016834,0.014557,0.009850,0.287274,0.287799,-0.603283,-0.686072,83.882573,2.767712,-132.072627
03990,NaN,-0.589401,9.851104,0.997084,0.116970,0.044239,0.105486,0.022666,0.027627,0.015068,0.287366,0.287854,-0.603366,-0.685938,83.897792,2.758483,-132.059250
03991,NaN,-0.554989,9.910755,1.022276,0.077363,0.032014,0.165745,0.018963,0.022264,0.017678,0.287452,0.287876,-0.603450,-0.685818,83.911036,2.747561,-132.049134
03992,NaN,-0.481392,9.888525,1.004149,0.040393,-0.029405,0.138217,0.013197,0.027898,0.019497,0.287573,0.287904,-0.603507,-0.685706,83.920845,2.735819,-132.035338
03993,NaN,-0.445521,9.794804,0.990932,0.021918,-0.052117,0.042028,0.012682,0.039391,0.021769,0.287735,0.287965,-0.603550,-0.685575,83.930905,2.723605,-132.015085
03994,NaN,-0.415129,9.802960,0.958747,0.025397,-0.093678,0.045311,0.028149,0.053357,0.020754,0.287916,0.288098,-0.603623,-0.685379,83.949966,2.712681,-131.986696
03995,NaN,-0.437506,9.807636,0.952861,0.043122,-0.077191,0.050439,0.045460,0.071109,0.023688,0.288132,0.288309,-0.603735,-0.685100,83.979720,2.701304,-131.948226
03996,NaN,-0.459985,9.841988,1.013401,0.012806,-0.019200,0.091996,0.037986,0.076346,0.030246,0.288401,0.288506,-0.603822,-0.684827,84.005048,2.686324,-131.906164
03997,NaN,-0.433686,9.838264,1.011446,-0.004873,-0.034736,0.086874,0.036432,0.077116,0.033184,0.288681,0.288696,-0.603909,-0.684553,84.029805,2.669867,-131.863696
03998,NaN,-0.359322,9.816143,0.991326,-0.041874,-0.096148,0.059369,0.038605,0.082611,0.030515,0.288968,0.288915,-0.603989,-0.684268,84.055632,2.655069,-131.818059
03999,NaN,-0.405473,9.844949,1.027515,-0.038498,-0.035958,0.093899,0.041372,0.095005,0.031105,0.289288,0.289178,-0.604063,-0.683956,84.083646,2.640776,-131.765631
04000,NaN,-0.427814,9.859653,1.043257,-0.036740,-0.005636,0.111162,0.041258,0.092249,0.025422,0.289583,0.289449,-0.604131,-0.683657,84.111209,2.629405,-131.714810
04001,NaN,-0.454973,9.832669,1.023729,-0.008025,0.009170,0.083587,0.047201,0.087457,0.020324,0.289834,0.289727,-0.604220,-0.683354,84.142268,2.620761,-131.667250
04002,NaN,-0.401609,9.856456,1.036146,-0.054332,-0.020699,0.106044,0.037955,0.071687,0.015590,0.290038,0.289953,-0.604292,-0.683108,84.167360,2.613743,-131.628748
04003,NaN,-0.353164,9.848337,1.036650,-0.089727,-0.052235,0.095811,0.034882,0.071006,0.010954,0.290226,0.290186,-0.604349,-0.682878,84.190939,2.609481,-131.591053
04004,NaN,-0.381877,9.831058,1.040981,-0.076995,-0.023595,0.080375,0.024059,0.070693,0.004464,0.290409,0.290422,-0.604358,-0.682692,84.208008,2.608718,-131.553769
04005,NaN,-0.453747,9.834165,1.009804,-0.007803,0.011049,0.083585,0.015061,0.074490,0.003418,0.290610,0.290660,-0.604332,-0.682529,84.220265,2.608881,-131.514637
04006,NaN,-0.473658,9.860480,0.995996,0.015044,0.015354,0.109256,0.016369,0.069465,-0.004883,0.290769,0.290908,-0.604303,-0.682381,84.232873,2.613358,-131.478593
04007,NaN,-0.450371,9.846386,0.974238,0.013371,-0.014031,0.092004,0.012330,0.061142,-0.001659,0.290917,0.291114,-0.604279,-0.682252,84.243276,2.615698,-131.447247
04008,NaN,-0.470121,9.872618,0.961202,0.036216,-0.009727,0.117675,0.002966,0.078564,0.002220,0.291146,0.291352,-0.604201,-0.682121,84.248464,2.616637,-131.405601
04009,NaN,-0.523530,9.859324,0.965541,0.066609,0.034909,0.107342,0.004216,0.090456,-0.000265,0.291399,0.291642,-0.604108,-0.681971,84.254979,2.619878,-131.357348
04010,NaN,-0.566675,9.869886,0.905818,0.139214,0.027489,0.113850,0.003314,0.080899,-0.001395,0.291623,0.291900,-0.604023,-0.681841,84.260422,2.623003,-131.314576
04011,NaN,-0.496447,9.876942,0.957165,0.054044,0.007684,0.122786,-0.007082,0.071319,0.000335,0.291836,0.292104,-0.603921,-0.681753,84.259978,2.624745,-131.277425
04012,NaN,-0.477557,9.840761,0.947398,0.047371,-0.009559,0.084982,-0.010193,0.071913,0.001687,0.292063,0.292302,-0.603807,-0.681672,84.257458,2.625597,-131.239604
04013,NaN,-0.449886,9.868207,0.963160,0.018723,-0.023381,0.112567,-0.012653,0.077815,-0.001204,0.292299,0.292525,-0.603673,-0.681593,84.253870,2.628534,-131.198830
04014,NaN,-0.503123,9.844792,0.946705,0.065207,0.007369,0.090090,-0.013386,0.069426,-0.004148,0.292503,0.292727,-0.603543,-0.681534,84.249443,2.632574,-131.162764
04015,NaN,-0.528457,9.858892,0.967271,0.066942,0.037695,0.107329,-0.007345,0.067710,-0.002028,0.292699,0.292928,-0.603440,-0.681455,84.248648,2.635487,-131.127516
04016,NaN,-0.528223,9.838960,0.922843,0.099051,0.010415,0.083063,-0.003014,0.064645,0.000326,0.292888,0.293116,-0.603360,-0.681364,84.250054,2.636703,-131.093921
04017,NaN,-0.495273,9.878422,0.905956,0.091449,-0.029433,0.119082,-0.003760,0.071897,-0.002799,0.293089,0.293338,-0.603262,-0.681269,84.251436,2.640298,-131.056344
04018,NaN,-0.496009,9.878356,0.906268,0.091523,-0.028974,0.119082,-0.009370,0.063709,0.000326,0.293285,0.293513,-0.603160,-0.681199,84.249178,2.641460,-131.023284
04019,NaN,-0.478515,9.871895,0.964479,0.036755,-0.004597,0.117677,-0.027378,0.056299,0.001317,0.293486,0.293634,-0.603011,-0.681192,84.236636,2.641776,-130.994534
04020,NaN,-0.459490,9.835498,0.957140,0.030069,-0.021850,0.079880,-0.036210,0.061583,-0.000085,0.293714,0.293764,-0.602821,-0.681207,84.218944,2.643063,-130.962710
04021,NaN,-0.446974,9.806924,1.026744,-0.029750,0.014686,0.057908,-0.036239,0.062221,0.002917,0.293952,0.293888,-0.602635,-0.681215,84.201520,2.642874,-130.930367
04022,NaN,-0.452380,9.784735,1.038922,-0.034720,0.027303,0.037342,-0.021440,0.052142,-0.000736,0.294127,0.294009,-0.602508,-0.681199,84.192041,2.644002,-130.903970
04023,NaN,-0.447117,9.786650,0.985955,0.002376,-0.012149,0.033651,-0.008813,0.051576,-0.004898,0.294267,0.294161,-0.602418,-0.681152,84.189948,2.647638,-130.878078
04024,NaN,-0.510107,9.843175,0.959692,0.065726,0.011980,0.090082,-0.006607,0.057069,-0.007548,0.294412,0.294341,-0.602324,-0.681095,84.189082,2.652939,-130.849264
04025,NaN,-0.557743,9.831793,0.910729,0.133225,0.016658,0.076025,-0.013797,0.049333,-0.003024,0.294557,0.294472,-0.602225,-0.681063,84.184165,2.655381,-130.824697
04026,NaN,-0.510539,9.823033,0.917735,0.097835,-0.014863,0.065828,-0.029639,0.032406,-0.001565,0.294682,0.294516,-0.602098,-0.681103,84.169470,2.655844,-130.809609
04027,NaN,-0.468671,9.802197,0.957404,0.041345,-0.020339,0.047192,-0.028105,0.032587,0.000018,0.294809,0.294560,-0.601979,-0.681134,84.155901,2.655585,-130.794388
04028,NaN,-0.460244,9.865584,0.984887,0.019490,-0.016399,0.112580,-0.016195,0.042989,0.002944,0.294961,0.294646,-0.601888,-0.681111,84.149201,2.654102,-130.772999
04029,NaN,-0.507885,9.864084,0.958911,0.070989,0.002147,0.110647,-0.017801,0.040052,-0.004331,0.295081,0.294744,-0.601786,-0.681107,84.141691,2.656780,-130.753645
04030,NaN,-0.487830,9.899004,1.053303,-0.010683,0.042190,0.154047,-0.036242,0.007876,-0.017021,0.295089,0.294741,-0.601650,-0.681225,84.122523,2.664627,-130.753460
04031,NaN,-0.393374,9.871447,1.046114,-0.065602,-0.035175,0.121547,-0.061347,-0.008864,-0.019082,0.295076,0.294653,-0.601449,-0.681446,84.088719,2.672861,-130.762811
04032,NaN,-0.462263,9.781759,1.062330,-0.034206,0.031950,0.037330,-0.051889,0.023089,-0.019179,0.295146,0.294686,-0.601234,-0.681592,84.060984,2.682837,-130.754082
04033,NaN,-0.586971,9.751127,0.995513,0.097489,0.082783,0.005851,-0.022519,0.018051,-0.021801,0.295147,0.294754,-0.601122,-0.681660,84.050098,2.694164,-130.748353
04034,NaN,-0.526824,9.808086,0.973803,0.077199,0.014842,0.057379,-0.012639,-0.010857,-0.027947,0.295027,0.294755,-0.601078,-0.681751,84.043918,2.707124,-130.759517
04035,NaN,-0.423877,9.834700,0.966159,0.016340,-0.072914,0.078161,-0.008809,-0.002745,-0.024807,0.294936,0.294782,-0.601039,-0.681813,84.040334,2.718959,-130.765747
04036,NaN,-0.469989,9.874736,0.975063,0.040933,-0.038732,0.121037,-0.016710,0.011777,-0.026551,0.294894,0.294850,-0.600949,-0.681880,84.032435,2.732469,-130.763917
04037,NaN,-0.454502,9.858053,1.011464,0.002181,-0.028200,0.107496,-0.024441,0.012143,-0.028464,0.294857,0.294915,-0.600830,-0.681973,84.020342,2.747262,-130.762028
04038,NaN,-0.511118,9.854012,1.040492,0.016712,0.030269,0.109219,-0.023706,0.001189,-0.035553,0.294764,0.294964,-0.600719,-0.682090,84.008119,2.765270,-130.766783
04039,NaN,-0.418995,9.836666,1.053243,-0.054240,-0.033184,0.088870,-0.025215,-0.014634,-0.037004,0.294619,0.294964,-0.600623,-0.682237,83.994788,2.783375,-130.780421
04040,NaN,-0.493647,9.839150,1.025053,0.015064,0.001309,0.092011,-0.013009,0.014082,-0.036296,0.294546,0.295075,-0.600528,-0.682304,83.989047,2.802578,-130.777872
04041,NaN,-0.635321,9.876273,0.978563,0.142599,0.071576,0.130980,-0.005075,0.014579,-0.037686,0.294458,0.295206,-0.600457,-0.682348,83.988037,2.822814,-130.774866
04042,NaN,-0.569432,9.892702,1.054855,0.041460,0.065836,0.152074,-0.025468,-0.018245,-0.039398,0.294295,0.295197,-0.600363,-0.682505,83.974238,2.841842,-130.790950
04043,NaN,-0.408601,9.811490,1.017942,-0.039807,-0.075124,0.059560,-0.026256,-0.010355,-0.039501,0.294157,0.295218,-0.600253,-0.682652,83.960400,2.861623,-130.802288
04044,NaN,-0.437201,9.825110,1.039584,-0.037976,-0.044772,0.076763,-0.012188,0.020897,-0.040809,0.294088,0.295366,-0.600144,-0.682713,83.955314,2.883810,-130.796135
04045,NaN,-0.536975,9.841497,1.030443,0.033058,0.019579,0.097092,-0.013625,0.023148,-0.038194,0.294036,0.295515,-0.600031,-0.682771,83.949625,2.904837,-130.788294
04046,NaN,-0.544907,9.809345,1.019278,0.044095,0.018262,0.064398,-0.023594,0.018627,-0.034473,0.293998,0.295621,-0.599895,-0.682861,83.937961,2.923278,-130.783057
04047,NaN,-0.571634,9.803316,0.996303,0.077871,0.020770,0.057363,-0.019315,0.031208,-0.032235,0.294000,0.295771,-0.599759,-0.682915,83.929275,2.941404,-130.770258
04048,NaN,-0.574102,9.793190,0.975498,0.093936,0.007310,0.045248,-0.016149,0.033686,-0.026369,0.294024,0.295914,-0.599639,-0.682948,83.922347,2.956142,-130.755945
04049,NaN,-0.582930,9.790507,1.030763,0.056977,0.047736,0.048894,-0.009552,0.023543,-0.019327,0.294031,0.296013,-0.599567,-0.682965,83.919066,2.966411,-130.746894
04050,NaN,-0.604670,9.826215,1.041827,0.063854,0.065952,0.086661,-0.009181,0.029263,-0.014235,0.294073,0.296115,-0.599495,-0.682966,83.916043,2.973970,-130.734368
04051,NaN,-0.627925,9.800844,0.972999,0.129607,0.040611,0.055399,-0.012173,0.031645,-0.011704,0.294134,0.296214,-0.599414,-0.682968,83.911542,2.980385,-130.720290
04052,NaN,-0.629800,9.810430,0.996501,0.113703,0.054990,0.067507,-0.014059,0.014097,-0.006567,0.294164,0.296234,-0.599359,-0.682995,83.905301,2.982655,-130.715950
04053,NaN,-0.588266,9.789782,1.034606,0.057213,0.049567,0.048883,-0.008764,0.004322,-0.005914,0.294158,0.296229,-0.599338,-0.683018,83.901996,2.984148,-130.717031
04054,NaN,-0.542710,9.800970,1.084864,-0.010189,0.045949,0.062953,0.002293,0.004255,-0.008629,0.294127,0.296245,-0.599350,-0.683013,83.904825,2.986995,-130.718432
04055,NaN,-0.533848,9.844915,1.065900,-0.000105,0.022149,0.104117,-0.000987,0.003345,-0.006994,0.294103,0.296251,-0.599355,-0.683017,83.905943,2.989039,-130.720158
04056,NaN,-0.556902,9.829444,1.018860,0.049694,0.010718,0.084969,-0.005663,0.004056,-0.005746,0.294093,0.296247,-0.599345,-0.683032,83.904217,2.990231,-130.721497
04057,NaN,-0.528712,9.847216,1.012603,0.036982,-0.016914,0.100481,-0.005973,0.001079,-0.005141,0.294075,0.296232,-0.599340,-0.683051,83.902453,2.991096,-130.724424
04058,NaN,-0.485253,9.807140,1.005343,0.012488,-0.050182,0.057647,-0.002791,0.003242,-0.000774,0.294076,0.296214,-0.599348,-0.683051,83.902364,2.989406,-130.725923
04059,NaN,-0.482079,9.848630,1.040858,-0.014412,-0.033980,0.102450,-0.002865,0.019200,0.000617,0.294128,0.296248,-0.599335,-0.683025,83.902887,2.988059,-130.718189
04060,NaN,-0.462385,9.812713,1.030780,-0.021146,-0.051285,0.064689,-0.003819,0.025600,0.000823,0.294202,0.296300,-0.599309,-0.682993,83.902879,2.986820,-130.706837
04061,NaN,-0.509644,9.811173,1.003428,0.030399,-0.032847,0.062722,-0.004773,0.032000,0.001029,0.294298,0.296375,-0.599270,-0.682954,83.902631,2.986035,-130.691562
04062,NaN,-0.562514,9.797435,1.007534,0.060986,0.011659,0.052272,0.001870,0.036249,0.001962,0.294400,0.296468,-0.599250,-0.682887,83.906202,2.984795,-130.674065
04063,NaN,-0.587209,9.811375,1.026799,0.062820,0.042017,0.069443,0.003729,0.024075,0.004552,0.294470,0.296516,-0.599258,-0.682829,83.910646,2.981485,-130.663345
04064,NaN,-0.576625,9.845669,0.984933,0.088911,0.004286,0.098511,0.006726,0.021695,0.002024,0.294521,0.296567,-0.599276,-0.682769,83.916566,2.979323,-130.654148
04065,NaN,-0.528732,9.837466,0.989673,0.053409,-0.027171,0.088381,0.003003,0.016006,0.003063,0.294563,0.296591,-0.599291,-0.682727,83.920352,2.976379,-130.648093
04066,NaN,-0.506300,9.852887,1.036878,0.003772,-0.014776,0.107525,-0.001206,0.021183,0.003400,0.294629,0.296624,-0.599284,-0.682690,83.921716,2.973400,-130.639104
04067,NaN,-0.492822,9.814492,1.081199,-0.039971,0.007924,0.073387,-0.010066,0.026758,0.003479,0.294724,0.296665,-0.599240,-0.682671,83.918349,2.970871,-130.626923
04068,NaN,-0.561334,9.787782,0.984313,0.077300,0.000462,0.040163,-0.005076,0.029024,0.001632,0.294813,0.296724,-0.599206,-0.682636,83.917721,2.969376,-130.613569
04069,NaN,-0.609143,9.796064,0.978842,0.112877,0.032828,0.050286,0.004554,0.015873,0.003152,0.294853,0.296750,-0.599227,-0.682590,83.922426,2.966390,-130.607582
04070,NaN,-0.576259,9.845769,0.984146,0.089245,0.007042,0.098507,0.012713,0.001916,0.000085,0.294829,0.296748,-0.599291,-0.682544,83.931185,2.964131,-130.609787
04071,NaN,-0.523598,9.859562,0.979339,0.058741,-0.036521,0.108978,0.002815,-0.003556,-0.000723,0.294799,0.296716,-0.599329,-0.682537,83.934313,2.962158,-130.615216
04072,NaN,-0.474959,9.841479,0.962821,0.039228,-0.081917,0.086761,-0.012272,0.002863,0.000508,0.294817,0.296679,-0.599308,-0.682565,83.928786,2.959715,-130.616855
04073,NaN,-0.552065,9.841542,0.987900,0.071608,-0.007529,0.093446,-0.016812,0.023763,0.008541,0.294930,0.296684,-0.599252,-0.682562,83.921489,2.954135,-130.606030
04074,NaN,-0.613886,9.783735,1.012159,0.092200,0.061184,0.041781,-0.013486,0.009028,0.007017,0.294990,0.296647,-0.599227,-0.682575,83.915468,2.948358,-130.603756
04075,NaN,-0.560360,9.797461,1.008473,0.061685,0.017627,0.052258,0.006524,-0.009520,0.010049,0.294974,0.296569,-0.599302,-0.682550,83.920598,2.939906,-130.611864
04076,NaN,-0.504345,9.862582,1.061211,-0.011661,0.003838,0.119629,0.012934,-0.009189,0.007091,0.294941,0.296508,-0.599394,-0.682510,83.929181,2.932982,-130.619979
04077,NaN,-0.480588,9.868273,1.085881,-0.045365,0.002318,0.126671,-0.004756,0.001651,0.005743,0.294960,0.296464,-0.599408,-0.682508,83.928103,2.927630,-130.621988
04078,NaN,-0.549285,9.851346,1.011810,0.055939,0.008738,0.105542,-0.017470,-0.000262,0.005657,0.294994,0.296393,-0.599381,-0.682549,83.919524,2.922064,-130.625097
04079,NaN,-0.560952,9.756032,0.973889,0.088824,0.003641,0.007465,-0.000965,-0.008619,0.003312,0.294970,0.296327,-0.599419,-0.682554,83.920293,2.917507,-130.632915
04080,NaN,-0.527548,9.805703,0.979640,0.065176,-0.022109,0.055701,0.011540,-0.007569,0.006702,0.294942,0.296271,-0.599503,-0.682517,83.928127,2.910903,-130.640128
04081,NaN,-0.490802,9.896927,1.020267,0.014592,-0.032032,0.148726,0.007867,-0.013883,0.004737,0.294893,0.296195,-0.599581,-0.682502,83.933779,2.905156,-130.651071
04082,NaN,-0.459746,9.895264,0.968954,0.033803,-0.087560,0.140085,-0.010539,0.007276,0.007494,0.294945,0.296155,-0.599569,-0.682508,83.929395,2.899000,-130.649769
04083,NaN,-0.517461,9.869243,1.006146,0.043438,-0.017013,0.121087,-0.018002,0.011233,0.007960,0.295020,0.296116,-0.599527,-0.682529,83.921021,2.892949,-130.646269
04084,NaN,-0.502630,9.820990,1.029103,0.015711,-0.008270,0.074841,-0.012245,0.005921,0.007710,0.295071,0.296068,-0.599512,-0.682541,83.915621,2.886588,-130.645726
04085,NaN,-0.477262,9.807051,1.010022,0.013910,-0.037728,0.057701,-0.000768,0.010942,0.007107,0.295119,0.296058,-0.599527,-0.682511,83.917094,2.881060,-130.642154
04086,NaN,-0.425842,9.840267,1.050526,-0.048496,-0.053305,0.092393,0.003456,0.020783,0.003666,0.295177,0.296096,-0.599537,-0.682461,83.921103,2.877906,-130.633378
04087,NaN,-0.472486,9.838860,1.022683,0.003072,-0.034935,0.090396,-0.003929,0.027167,0.008331,0.295281,0.296132,-0.599520,-0.682415,83.921241,2.872627,-130.620663
04088,NaN,-0.492923,9.884518,1.055398,-0.005961,-0.002683,0.140226,-0.000565,0.027138,0.002201,0.295360,0.296190,-0.599505,-0.682369,83.923123,2.870692,-130.608351
04089,NaN,-0.449177,9.844333,1.048955,-0.030563,-0.035963,0.097445,-0.024311,0.024988,0.003304,0.295470,0.296203,-0.599415,-0.682395,83.911511,2.868145,-130.597200
04090,NaN,-0.486203,9.762782,1.031925,0.004192,-0.011201,0.016505,-0.024819,0.051501,0.002508,0.295659,0.296308,-0.599281,-0.682385,83.900191,2.867521,-130.570972
04091,NaN,-0.514435,9.735091,1.017213,0.032961,0.003319,-0.011143,-0.000436,0.044272,0.001810,0.295786,0.296428,-0.599241,-0.682313,83.902829,2.867031,-130.548833
04092,NaN,-0.536268,9.790581,1.071080,0.007990,0.049561,0.050768,0.019642,0.024776,0.000348,0.295822,0.296513,-0.599295,-0.682213,83.916214,2.866011,-130.537980
04093,NaN,-0.497046,9.842882,1.021005,0.021186,-0.016217,0.095447,0.023660,0.033754,0.000218,0.295878,0.296638,-0.599350,-0.682087,83.932300,2.865782,-130.521810
04094,NaN,-0.522998,9.866759,1.060817,0.007164,0.028156,0.124663,0.016487,0.041003,0.001574,0.295971,0.296770,-0.599372,-0.681970,83.944344,2.865040,-130.501627
04095,NaN,-0.492747,9.865152,1.008609,0.026302,-0.027394,0.116052,-0.003659,0.042740,0.000423,0.296094,0.296883,-0.599321,-0.681912,83.945027,2.865186,-130.480515
04096,NaN,-0.496374,9.823626,0.973325,0.053263,-0.042807,0.071275,-0.001763,0.045271,-0.001591,0.296216,0.297012,-0.599269,-0.681848,83.946727,2.866503,-130.458089
04097,NaN,-0.483753,9.785202,1.017290,0.009558,-0.020088,0.037114,-0.003497,0.044229,0.000123,0.296343,0.297133,-0.599215,-0.681788,83.947526,2.866932,-130.435988
04098,NaN,-0.480369,9.816940,1.030014,-0.001313,-0.017734,0.069806,0.004341,0.042623,-0.003930,0.296440,0.297269,-0.599184,-0.681713,83.952642,2.869420,-130.415213
04099,NaN,-0.504230,9.811404,1.003897,0.032461,-0.015336,0.062758,0.010730,0.043265,-0.005371,0.296523,0.297423,-0.599173,-0.681619,83.961613,2.872932,-130.394070
04100,NaN,-0.500154,9.833482,0.993218,0.037532,-0.026974,0.083366,0.010989,0.046869,-0.002971,0.296627,0.297581,-0.599160,-0.681517,83.970665,2.875123,-130.370815
04101,NaN,-0.529730,9.815728,0.998662,0.050380,0.001514,0.067794,0.006629,0.050560,-0.002344,0.296748,0.297744,-0.599128,-0.681421,83.977448,2.877298,-130.345395
04102,NaN,-0.506363,9.811588,1.001021,0.032648,-0.013953,0.062760,-0.002471,0.055592,0.002512,0.296916,0.297895,-0.599065,-0.681337,83.979055,2.876885,-130.316832
04103,NaN,-0.507656,9.821350,1.023185,0.016741,0.000509,0.074843,0.000132,0.066506,0.003499,0.297115,0.298086,-0.598996,-0.681228,83.982644,2.876715,-130.281952
04104,NaN,-0.502900,9.843377,1.013336,0.021809,-0.011124,0.095452,0.002228,0.073268,0.006892,0.297344,0.298291,-0.598929,-0.681097,83.987461,2.874864,-130.243042
04105,NaN,-0.560656,9.807794,1.025640,0.047456,0.045380,0.064295,0.003126,0.082829,0.008091,0.297603,0.298529,-0.598852,-0.680947,83.993280,2.873100,-130.198418
04106,NaN,-0.488997,9.795390,1.033495,-0.005896,-0.001932,0.049202,0.005753,0.078096,0.009183,0.297849,0.298749,-0.598793,-0.680795,84.000259,2.870225,-130.156615
04107,NaN,-0.455069,9.835331,1.016429,-0.013691,-0.041583,0.085395,0.011622,0.090234,0.010064,0.298124,0.299018,-0.598737,-0.680606,84.011141,2.867732,-130.107779
04108,NaN,-0.432184,9.841108,1.040010,-0.047368,-0.043031,0.092448,0.014029,0.115624,0.012763,0.298482,0.299367,-0.598655,-0.680368,84.023939,2.865043,-130.044353
04109,NaN,-0.502573,9.844054,1.006902,0.022028,-0.008807,0.095454,0.011806,0.125768,0.015278,0.298881,0.299741,-0.598555,-0.680116,84.035935,2.861661,-129.974954
04110,NaN,-0.503267,9.853978,1.027953,0.006165,0.005668,0.107533,0.001320,0.132430,0.019713,0.299331,0.300107,-0.598415,-0.679880,84.041943,2.855988,-129.901526
04111,NaN,-0.546877,9.833166,0.953834,0.089613,-0.004069,0.081351,0.004851,0.137260,0.022017,0.299798,0.300491,-0.598282,-0.679621,84.050281,2.849462,-129.824997
04112,NaN,-0.546982,9.843105,0.975067,0.073750,0.010405,0.093428,0.002111,0.143254,0.026933,0.300304,0.300873,-0.598139,-0.679355,84.057052,2.840298,-129.744966
04113,NaN,-0.528136,9.826932,1.008339,0.035035,0.021055,0.079865,0.013623,0.132622,0.026537,0.300758,0.301240,-0.598050,-0.679070,84.070320,2.830893,-129.670946
04114,NaN,-0.535332,9.897289,0.975568,0.067888,0.001164,0.146732,0.005242,0.127344,0.027242,0.301213,0.301571,-0.597941,-0.678817,84.078411,2.820583,-129.599980
04115,NaN,-0.461300,9.875021,0.962182,0.030398,-0.060147,0.119588,-0.007052,0.127800,0.023436,0.301673,0.301899,-0.597784,-0.678605,84.079574,2.812600,-129.528881
04116,NaN,-0.524669,9.827281,1.006747,0.035204,0.022439,0.079862,-0.019094,0.131863,0.022026,0.302160,0.302225,-0.597577,-0.678425,84.073812,2.805527,-129.455647
04117,NaN,-0.548906,9.780155,0.946824,0.095848,0.008837,0.028041,-0.015174,0.123389,0.020839,0.302611,0.302533,-0.597395,-0.678248,84.070176,2.798772,-129.387222
04118,NaN,-0.577017,9.762379,0.953631,0.108745,0.037297,0.012443,-0.013593,0.107290,0.019540,0.303007,0.302791,-0.597240,-0.678092,84.066857,2.791671,-129.328156
04119,NaN,-0.548431,9.789981,0.969602,0.080018,0.023765,0.040113,0.008900,0.097185,0.019616,0.303340,0.303051,-0.597175,-0.677884,84.076241,2.784103,-129.274517
04120,NaN,-0.575318,9.823720,1.031876,0.050134,0.082215,0.081349,0.009502,0.087803,0.020016,0.303645,0.303277,-0.597129,-0.677688,84.085601,2.775566,-129.226543
04121,NaN,-0.541280,9.812318,0.957689,0.085097,0.012594,0.060729,0.005922,0.080866,0.014996,0.303916,0.303489,-0.597073,-0.677520,84.092843,2.769616,-129.182762
04122,NaN,-0.488745,9.835684,0.976965,0.038574,-0.016825,0.083384,-0.004713,0.072515,0.022445,0.304205,0.303634,-0.597005,-0.677386,84.093632,2.758783,-129.143370
04123,NaN,-0.487291,9.835752,0.977009,0.038586,-0.016361,0.083385,-0.003281,0.070577,0.021353,0.304481,0.303779,-0.596943,-0.677251,84.095402,2.748633,-129.105099
04124,NaN,-0.535875,9.802855,0.934433,0.101154,-0.000057,0.048655,0.004802,0.072875,0.021303,0.304752,0.303943,-0.596905,-0.677089,84.101634,2.738469,-129.065571
04125,NaN,-0.529307,9.825012,0.923888,0.106157,-0.011681,0.069275,0.013560,0.065159,0.018649,0.304977,0.304103,-0.596904,-0.676916,84.112843,2.729501,-129.030608
04126,NaN,-0.460952,9.841765,0.999739,0.004979,-0.016842,0.090443,0.007907,0.056636,0.020109,0.305191,0.304220,-0.596899,-0.676772,84.120397,2.719051,-129.000420
04127,NaN,-0.479699,9.877916,1.008461,0.011901,0.001478,0.128147,0.004452,0.067471,0.017697,0.305434,0.304377,-0.596862,-0.676624,84.126352,2.710753,-128.964014
04128,NaN,-0.460063,9.851757,1.021042,-0.010850,-0.001880,0.102512,-0.007688,0.056204,0.017806,0.305663,0.304476,-0.596801,-0.676530,84.124943,2.701585,-128.934209
04129,NaN,-0.461203,9.810228,0.986356,0.016014,-0.017421,0.057754,-0.011866,0.061398,0.018083,0.305915,0.304588,-0.596718,-0.676439,84.121446,2.692782,-128.901069
04130,NaN,-0.511517,9.787070,0.966603,0.062670,0.012892,0.035085,0.000787,0.061162,0.015678,0.306138,0.304723,-0.596675,-0.676315,84.125010,2.685120,-128.868560
04131,NaN,-0.498477,9.821336,0.924960,0.088557,-0.024857,0.064266,0.009663,0.055243,0.014241,0.306326,0.304858,-0.596668,-0.676175,84.133661,2.678134,-128.839189
04132,NaN,-0.517434,9.857530,0.933214,0.095512,-0.006527,0.101966,0.011737,0.046034,0.016251,0.306489,0.304957,-0.596686,-0.676041,84.143090,2.669251,-128.815281
04133,NaN,-0.494080,9.863180,0.958011,0.061763,-0.007932,0.109023,0.004792,0.038511,0.014286,0.306635,0.305029,-0.596689,-0.675940,84.148567,2.661304,-128.795377
04134,NaN,-0.486249,9.875397,0.926482,0.082710,-0.033592,0.117585,-0.008361,0.015567,0.010451,0.306718,0.305011,-0.596677,-0.675921,84.145652,2.653943,-128.789194
04135,NaN,-0.467211,9.849081,0.940313,0.059908,-0.036959,0.091953,-0.013458,-0.007518,0.002379,0.306713,0.304934,-0.596670,-0.675964,84.139366,2.650020,-128.796457
04136,NaN,-0.451486,9.842248,0.999307,0.005330,-0.012221,0.090449,-0.018150,-0.006791,0.003541,0.306721,0.304845,-0.596649,-0.676019,84.130234,2.645290,-128.803434
04137,NaN,-0.498707,9.850676,0.994003,0.041029,0.020037,0.100459,-0.016382,-0.005753,0.001856,0.306724,0.304771,-0.596629,-0.676069,84.122259,2.641739,-128.809717
04138,NaN,-0.448083,9.822460,0.957256,0.037226,-0.039401,0.066326,-0.000090,-0.018088,-0.004126,0.306646,0.304695,-0.596674,-0.676099,84.123157,2.640714,-128.823589
04139,NaN,-0.444579,9.854150,0.970584,0.026317,-0.036966,0.099017,-0.003307,-0.019615,-0.005555,0.306562,0.304616,-0.596708,-0.676142,84.122278,2.640573,-128.838195
04140,NaN,-0.439724,9.876034,0.961881,0.031346,-0.048573,0.119648,-0.005562,-0.027864,-0.008686,0.306447,0.304512,-0.596743,-0.676210,84.119771,2.641573,-128.857913
04141,NaN,-0.394474,9.877076,0.992321,-0.020229,-0.065852,0.121708,-0.015198,-0.016475,-0.011550,0.306372,0.304444,-0.596723,-0.676293,84.112191,2.645066,-128.871016
04142,NaN,-0.394035,9.867118,0.971516,-0.004270,-0.079440,0.109651,-0.014964,0.000672,-0.011925,0.306345,0.304432,-0.596677,-0.676351,84.105039,2.649587,-128.874643
04143,NaN,-0.402317,9.854759,1.004059,-0.025128,-0.052843,0.101083,-0.005469,0.014563,-0.015832,0.306332,0.304495,-0.596636,-0.676364,84.103837,2.657291,-128.870513
04144,NaN,-0.407930,9.822893,0.991630,-0.014142,-0.054365,0.068396,-0.009879,0.032123,-0.016542,0.306375,0.304611,-0.596553,-0.676366,84.100418,2.666294,-128.856469
04145,NaN,-0.488075,9.823339,1.013574,0.018539,0.019905,0.074820,-0.010803,0.022560,-0.017764,0.306389,0.304700,-0.596478,-0.676386,84.096345,2.675614,-128.847646
04146,NaN,-0.444058,9.824344,1.043907,-0.032996,0.002649,0.076881,-0.011717,0.028969,-0.017561,0.306423,0.304806,-0.596391,-0.676399,84.091790,2.685013,-128.835463
04147,NaN,-0.518110,9.785744,0.976471,0.063285,0.020653,0.035068,-0.008741,0.026892,-0.018539,0.306443,0.304916,-0.596316,-0.676407,84.089075,2.695083,-128.824118
04148,NaN,-0.545561,9.799636,0.995378,0.065293,0.051073,0.052119,0.004939,0.006083,-0.021359,0.306370,0.304981,-0.596314,-0.676412,84.093442,2.705298,-128.825217
04149,NaN,-0.511835,9.829518,0.957449,0.073290,-0.002567,0.076333,0.008710,-0.004204,-0.023745,0.306254,0.305027,-0.596338,-0.676423,84.099881,2.716486,-128.831998
04150,NaN,-0.516999,9.848934,1.001889,0.041552,0.026036,0.100443,-0.003414,-0.013047,-0.019461,0.306143,0.305009,-0.596341,-0.676479,84.098949,2.724493,-128.843898
04151,NaN,-0.518826,9.848766,1.002590,0.041558,0.026494,0.100442,-0.010061,-0.001312,-0.019097,0.306079,0.305023,-0.596303,-0.676535,84.094747,2.733209,-128.848781
04152,NaN,-0.575585,9.793609,0.970406,0.099182,0.054719,0.045047,-0.012167,0.010640,-0.015393,0.306066,0.305059,-0.596246,-0.676574,84.089453,2.740293,-128.846928
04153,NaN,-0.612492,9.836175,0.923055,0.160725,0.048735,0.084247,0.002800,-0.011162,-0.014803,0.305969,0.305048,-0.596273,-0.676600,84.092313,2.746013,-128.856944
04154,NaN,-0.537019,9.845377,0.924247,0.112191,-0.010532,0.089907,0.002363,-0.029486,-0.012638,0.305824,0.304963,-0.596331,-0.676653,84.094255,2.749161,-128.877822
04155,NaN,-0.448049,9.806376,0.947786,0.035806,-0.061558,0.049309,-0.005135,-0.025201,-0.010791,0.305709,0.304879,-0.596360,-0.676717,84.092280,2.751759,-128.895831
04156,NaN,-0.497903,9.824446,0.964224,0.055678,-0.015246,0.071342,-0.016072,-0.007652,-0.007149,0.305675,0.304823,-0.596330,-0.676784,84.084272,2.753065,-128.903927
04157,NaN,-0.520967,9.746082,1.024923,0.019953,0.047539,0.000841,-0.012783,-0.019977,-0.004443,0.305608,0.304724,-0.596335,-0.676854,84.077979,2.752247,-128.918822
04158,NaN,-0.478367,9.788282,0.956457,0.048829,-0.032229,0.033666,0.007919,-0.031130,-0.002596,0.305484,0.304611,-0.596429,-0.676878,84.083087,2.749570,-128.940045
04159,NaN,-0.523415,9.838358,0.983607,0.057738,0.016098,0.088381,0.021355,-0.018424,0.004938,0.305402,0.304543,-0.596561,-0.676829,84.096444,2.743554,-128.953304
04160,NaN,-0.566799,9.878679,0.988696,0.082588,0.050351,0.131041,0.001624,-0.013991,0.001390,0.305351,0.304467,-0.596614,-0.676839,84.098428,2.739622,-128.964513
04161,NaN,-0.544740,9.832907,0.957718,0.091572,0.018812,0.081316,-0.018975,-0.030234,0.003604,0.305291,0.304301,-0.596625,-0.676932,84.088307,2.733629,-128.984680
04162,NaN,-0.475962,9.788364,0.956817,0.048978,-0.030398,0.033672,-0.013872,-0.036662,0.013036,0.305236,0.304090,-0.596678,-0.677005,84.080832,2.721718,-129.008135
04163,NaN,-0.492282,9.865806,1.002424,0.029113,0.004100,0.116081,0.006853,-0.034587,0.010593,0.305146,0.303926,-0.596795,-0.677016,84.085493,2.711460,-129.030618
04164,NaN,-0.478889,9.900111,0.961510,0.054978,-0.033637,0.145319,-0.001516,-0.024208,0.011152,0.305102,0.303781,-0.596868,-0.677036,84.085436,2.701359,-129.047078
04165,NaN,-0.555691,9.900577,0.983634,0.087734,0.040613,0.151670,-0.014866,-0.016398,0.011971,0.305104,0.303642,-0.596886,-0.677082,84.078173,2.691422,-129.059000
04166,NaN,-0.488114,9.865712,1.005375,0.029245,0.005501,0.116080,-0.026881,-0.025870,0.013271,0.305102,0.303447,-0.596878,-0.677177,84.063551,2.680011,-129.076280
04167,NaN,-0.457612,9.810490,1.087499,-0.053111,0.038570,0.068277,-0.028640,-0.042879,0.013527,0.305051,0.303193,-0.596892,-0.677302,84.047686,2.667602,-129.103223
04168,NaN,-0.398967,9.794620,1.020274,-0.036177,-0.047056,0.042828,-0.012541,-0.027170,0.006464,0.305000,0.303036,-0.596925,-0.677367,84.041233,2.659985,-129.121644
04169,NaN,-0.470775,9.817129,1.032642,0.001560,0.015135,0.069811,0.008618,-0.017583,0.010324,0.304957,0.302933,-0.597021,-0.677347,84.047363,2.650885,-129.134354
04170,NaN,-0.544083,9.849470,1.066454,0.023464,0.091422,0.108830,0.006416,-0.026142,0.005690,0.304878,0.302810,-0.597115,-0.677355,84.051802,2.643771,-129.152235
04171,NaN,-0.509708,9.838078,0.993563,0.058220,0.021647,0.088367,-0.002334,-0.034395,0.006920,0.304792,0.302646,-0.597193,-0.677398,84.051125,2.635662,-129.174381
04172,NaN,-0.413610,9.821068,1.007228,-0.013199,-0.041379,0.068460,0.004410,-0.030786,0.004968,0.304699,0.302507,-0.597286,-0.677419,84.054297,2.628685,-129.194954
04173,NaN,-0.455353,9.851650,0.990760,0.027491,-0.021220,0.099061,0.007018,-0.022298,0.001799,0.304616,0.302413,-0.597371,-0.677424,84.059467,2.624259,-129.210673
04174,NaN,-0.509401,9.847975,1.015117,0.042464,0.037143,0.100404,0.004015,-0.022648,-0.001421,0.304527,0.302320,-0.597441,-0.677444,84.062610,2.621408,-129.226985
04175,NaN,-0.462450,9.788285,0.964221,0.049414,-0.024409,0.033686,-0.003400,-0.048182,0.000290,0.304377,0.302126,-0.597527,-0.677521,84.061031,2.616258,-129.257572
04176,NaN,-0.463543,9.797969,0.987151,0.033597,-0.009838,0.045726,-0.004226,-0.042400,-0.002504,0.304238,0.301957,-0.597598,-0.677597,84.058938,2.612854,-129.285215
04177,NaN,-0.491063,9.770500,0.970940,0.062419,0.004425,0.018011,0.002640,-0.036989,-0.003257,0.304101,0.301821,-0.597682,-0.677645,84.061066,2.610363,-129.309654
04178,NaN,-0.458006,9.820025,0.977335,0.038631,-0.020965,0.066377,0.018536,-0.049231,-0.001497,0.303910,0.301660,-0.597841,-0.677662,84.071843,2.605983,-129.341134
04179,NaN,-0.428776,9.837941,0.969557,0.025720,-0.048407,0.082057,0.023900,-0.043996,-0.003861,0.303716,0.301532,-0.598008,-0.677658,84.086051,2.603400,-129.369899
04180,NaN,-0.397292,9.897248,0.997724,-0.013946,-0.059669,0.142465,0.006703,-0.028013,-0.003315,0.303600,0.301431,-0.598093,-0.677681,84.090596,2.601320,-129.389384
04181,NaN,-0.430275,9.847779,0.990814,0.009906,-0.033363,0.094098,-0.009866,-0.021729,-0.003880,0.303525,0.301330,-0.598110,-0.677744,84.086073,2.600167,-129.405089
04182,NaN,-0.435622,9.825703,1.000959,0.005018,-0.020852,0.073447,-0.006478,-0.018711,-0.002760,0.303459,0.301238,-0.598137,-0.677791,84.083309,2.598318,-129.419234
04183,NaN,-0.439614,9.793971,0.987963,0.015960,-0.022473,0.040761,0.005654,-0.007441,-0.002889,0.303408,0.301207,-0.598186,-0.677785,84.087931,2.597414,-129.426598
04184,NaN,-0.455874,9.861766,1.009712,0.012057,-0.001991,0.111103,0.017871,-0.010023,-0.001740,0.303334,0.301178,-0.598283,-0.677745,84.099346,2.595499,-129.435726
04185,NaN,-0.423264,9.911312,1.015741,-0.011772,-0.027351,0.159479,0.005575,-0.009556,-0.005593,0.303266,0.301146,-0.598332,-0.677746,84.103853,2.595945,-129.444734
04186,NaN,-0.402333,9.865540,0.984062,-0.002805,-0.058947,0.109794,-0.014012,-0.000886,-0.003662,0.303262,0.301105,-0.598304,-0.677791,84.097232,2.595665,-129.448762
04187,NaN,-0.489873,9.812165,1.003575,0.036036,0.025222,0.062726,-0.020624,0.010534,-0.004773,0.303296,0.301099,-0.598235,-0.677839,84.087264,2.596834,-129.446255
04188,NaN,-0.516652,9.774825,0.965996,0.080772,0.025332,0.022968,-0.003589,-0.006934,-0.005029,0.303253,0.301058,-0.598250,-0.677863,84.086454,2.596975,-129.453815
04189,NaN,-0.429987,9.828051,0.947663,0.041961,-0.057909,0.070046,0.014864,-0.010373,-0.004957,0.303172,0.301036,-0.598332,-0.677836,84.096321,2.597074,-129.463080
04190,NaN,-0.434656,9.857355,1.013435,-0.005572,-0.015057,0.106142,0.011391,0.000461,-0.007355,0.303120,0.301050,-0.598383,-0.677809,84.104279,2.598978,-129.466558
04191,NaN,-0.506667,9.870077,1.003456,0.048108,0.032980,0.121025,-0.010581,0.001819,-0.004043,0.303116,0.301028,-0.598363,-0.677838,84.099888,2.599256,-129.468909
04192,NaN,-0.484286,9.814531,0.949939,0.072928,-0.012771,0.059316,-0.009077,0.001995,-0.002436,0.303117,0.301001,-0.598349,-0.677862,84.096172,2.598447,-129.471223
04193,NaN,-0.487510,9.833909,0.995274,0.041234,0.015966,0.083375,-0.004134,0.002138,-0.006917,0.303093,0.300996,-0.598347,-0.677877,84.095458,2.600287,-129.473940
04194,NaN,-0.472181,9.827116,1.052548,-0.013255,0.040882,0.081814,0.004152,-0.007616,-0.004497,0.303037,0.300963,-0.598389,-0.677879,84.099067,2.600086,-129.481857
04195,NaN,-0.388050,9.838929,0.998691,-0.025326,-0.058552,0.084202,0.008083,-0.000441,-0.005770,0.302992,0.300966,-0.598434,-0.677859,84.105395,2.601227,-129.485733
04196,NaN,-0.408805,9.874909,1.007968,-0.018293,-0.040127,0.121848,0.001679,0.012154,-0.008678,0.302985,0.301009,-0.598432,-0.677844,84.108089,2.604574,-129.482617
04197,NaN,-0.469224,9.849063,1.042633,-0.008239,0.030255,0.102469,-0.011328,0.006973,-0.009841,0.302978,0.301021,-0.598392,-0.677877,84.103451,2.608490,-129.482365
04198,NaN,-0.439787,9.856942,1.015238,-0.005274,-0.011303,0.106147,-0.007185,0.002097,-0.008631,0.302955,0.301016,-0.598376,-0.677904,84.100805,2.611217,-129.484984
04199,NaN,-0.438145,9.837411,0.970744,0.026475,-0.039119,0.082096,0.002737,0.004813,-0.013386,0.302907,0.301050,-0.598382,-0.677905,84.104021,2.616900,-129.486445
04200,NaN,-0.464954,9.851292,0.989861,0.028577,-0.008660,0.099076,-0.004870,0.004555,-0.018421,0.302855,0.301086,-0.598355,-0.677936,84.102738,2.625352,-129.488240
04201,NaN,-0.460013,9.863402,0.959007,0.049379,-0.034371,0.107715,-0.010906,0.009326,-0.013437,0.302842,0.301117,-0.598308,-0.677970,84.098363,2.631427,-129.486918
04202,NaN,-0.490358,9.845452,0.966166,0.062403,-0.006028,0.092005,-0.014668,0.003640,-0.012462,0.302821,0.301117,-0.598258,-0.678023,84.091458,2.636429,-129.488884
04203,NaN,-0.496947,9.823261,0.976714,0.057482,0.006471,0.071342,-0.011938,-0.002036,-0.015862,0.302767,0.301114,-0.598222,-0.678081,84.086199,2.643183,-129.494359
04204,NaN,-0.473140,9.809146,0.958743,0.055496,-0.023063,0.054368,-0.009858,0.004723,-0.012439,0.302742,0.301125,-0.598186,-0.678118,84.082078,2.648235,-129.495707
04205,NaN,-0.552253,9.809412,0.980912,0.088420,0.051124,0.060575,-0.001753,0.009450,-0.008293,0.302732,0.301154,-0.598179,-0.678116,84.083024,2.651379,-129.494162
04206,NaN,-0.566505,9.857593,0.958940,0.116255,0.043374,0.106851,0.004868,-0.001965,-0.007185,0.302684,0.301149,-0.598211,-0.678111,84.087178,2.653043,-129.499015
04207,NaN,-0.470106,9.830988,0.950030,0.060509,-0.033694,0.075037,-0.007477,-0.011687,0.000445,0.302649,0.301072,-0.598229,-0.678145,84.084248,2.649946,-129.508948
04208,NaN,-0.454287,9.824086,1.008498,0.006038,-0.008736,0.073465,-0.016695,0.004467,-0.001764,0.302671,0.301040,-0.598187,-0.678187,84.076233,2.648900,-129.509811
04209,NaN,-0.458241,9.792255,0.996475,0.016961,-0.010399,0.040779,-0.006500,0.013216,0.000099,0.302708,0.301050,-0.598170,-0.678181,84.074556,2.647496,-129.505516
04210,NaN,-0.481963,9.796451,0.993378,0.034929,0.005906,0.045725,0.000818,0.010184,0.004226,0.302741,0.301046,-0.598187,-0.678153,84.076742,2.643374,-129.502763
04211,NaN,-0.500399,9.822731,0.980270,0.057787,0.010184,0.071337,0.009742,0.003969,0.001252,0.302731,0.301046,-0.598240,-0.678111,84.084057,2.640743,-129.503625
04212,NaN,-0.422784,9.883286,1.038209,-0.033549,-0.018434,0.133895,0.002975,-0.002072,-0.000991,0.302706,0.301019,-0.598276,-0.678102,84.087141,2.638870,-129.508173
04213,NaN,-0.421540,9.873541,1.016091,-0.017688,-0.032127,0.121879,-0.008168,0.011551,-0.001214,0.302736,0.301025,-0.598253,-0.678106,84.084403,2.638094,-129.504883
04214,NaN,-0.451062,9.855627,1.023028,-0.004645,-0.003797,0.106153,-0.013892,0.014136,-0.006736,0.302766,0.301045,-0.598199,-0.678132,84.078234,2.640452,-129.500524
04215,NaN,-0.500379,9.812758,0.959868,0.073788,-0.002135,0.059318,-0.013917,-0.001519,-0.006670,0.302748,0.301014,-0.598168,-0.678181,84.071856,2.642044,-129.504902
04216,NaN,-0.433765,9.902005,0.952220,0.041894,-0.067263,0.144134,0.009166,-0.002612,-0.000564,0.302714,0.300994,-0.598226,-0.678154,84.078476,2.639895,-129.509732
04217,NaN,-0.361890,9.940340,1.021312,-0.054425,-0.083813,0.186034,-0.034755,0.007822,-0.009645,0.302744,0.300972,-0.598106,-0.678256,84.060391,2.643696,-129.509117
04218,NaN,-0.485890,9.744450,0.943034,0.077844,-0.020889,-0.010993,-0.062151,0.033426,-0.005308,0.302909,0.300980,-0.597861,-0.678395,84.027084,2.646390,-129.493669
04219,NaN,-0.627701,9.686750,0.989325,0.131892,0.120992,-0.056978,-0.018382,0.018767,-0.001637,0.302975,0.300995,-0.597792,-0.678419,84.018711,2.646288,-129.486334
04220,NaN,-0.545223,9.769265,1.038092,0.045475,0.080412,0.026261,0.033755,-0.024652,-0.004207,0.302825,0.300949,-0.597962,-0.678357,84.038828,2.644897,-129.503952
04221,NaN,-0.369169,9.917754,1.035385,-0.059201,-0.069893,0.165377,0.028684,-0.013371,-0.005202,0.302713,0.300937,-0.598096,-0.678295,84.056507,2.644895,-129.515141
04222,NaN,-0.439551,9.920750,1.002273,0.010446,-0.036101,0.168175,-0.013741,0.018360,-0.001320,0.302773,0.300955,-0.598043,-0.678306,84.050551,2.644420,-129.508051
04223,NaN,-0.522615,9.837983,0.955571,0.096956,0.005374,0.084925,-0.043812,0.014967,-0.002170,0.302864,0.300921,-0.597893,-0.678413,84.027470,2.644394,-129.502846
04224,NaN,-0.542147,9.739904,0.973381,0.093165,0.039716,-0.009786,-0.025548,-0.005599,-0.001738,0.302869,0.300842,-0.597836,-0.678496,84.014117,2.642731,-129.509448
04225,NaN,-0.507766,9.779699,0.958673,0.085108,0.000314,0.026630,0.018602,0.000801,0.005493,0.302850,0.300832,-0.597930,-0.678426,84.026449,2.637498,-129.511866
04226,NaN,-0.441039,9.930000,1.028893,-0.005228,-0.020038,0.180191,0.027905,-0.002743,0.000425,0.302791,0.300836,-0.598054,-0.678341,84.043804,2.634774,-129.516710
04227,NaN,-0.431357,9.922983,0.952456,0.047200,-0.074136,0.164843,-0.025587,0.013101,0.005415,0.302875,0.300802,-0.597979,-0.678385,84.031150,2.630340,-129.512034
04228,NaN,-0.505894,9.830653,1.018011,0.042677,0.032235,0.083329,-0.055104,0.032256,0.007828,0.303070,0.300777,-0.597779,-0.678485,84.001881,2.625486,-129.496470
04229,NaN,-0.526182,9.742200,1.058615,0.023031,0.080742,0.000617,-0.025918,0.010121,0.006005,0.303149,0.300730,-0.597709,-0.678533,83.988888,2.620503,-129.493464
04230,NaN,-0.488554,9.762682,0.999180,0.046668,0.012978,0.013027,0.018553,0.001106,0.006999,0.303137,0.300714,-0.597804,-0.678461,84.001005,2.614261,-129.495716
04231,NaN,-0.449007,9.885441,1.053356,-0.014885,0.006340,0.138838,0.019915,0.015447,0.008851,0.303171,0.300744,-0.597887,-0.678360,84.014526,2.607981,-129.489716
04232,NaN,-0.514430,9.920217,1.033570,0.043877,0.042273,0.174299,-0.010719,0.023867,0.011822,0.303287,0.300747,-0.597856,-0.678334,84.010475,2.600351,-129.478699
04233,NaN,-0.490676,9.864804,0.981026,0.068530,-0.003661,0.112675,-0.032199,0.011288,0.008571,0.303388,0.300687,-0.597766,-0.678394,83.993960,2.594030,-129.474712
04234,NaN,-0.451056,9.802412,0.986565,0.038729,-0.025019,0.049459,-0.026601,0.006897,0.012889,0.303481,0.300605,-0.597709,-0.678440,83.980372,2.584779,-129.473307
04235,NaN,-0.434220,9.795395,1.045164,-0.015752,0.000019,0.047862,-0.001598,0.021560,0.012770,0.303580,0.300613,-0.597713,-0.678387,83.981689,2.576680,-129.463285
04236,NaN,-0.470491,9.848021,1.019348,0.030001,0.008113,0.099073,0.015228,0.016157,0.010041,0.303629,0.300634,-0.597780,-0.678298,83.992297,2.569608,-129.456769
04237,NaN,-0.442101,9.875597,1.035008,0.001173,-0.005047,0.126834,0.002059,0.009484,0.009147,0.303673,0.300618,-0.597810,-0.678258,83.995413,2.562832,-129.453984
04238,NaN,-0.426316,9.817660,1.034785,-0.010702,-0.010587,0.068544,-0.012006,0.011638,0.012678,0.303758,0.300574,-0.597795,-0.678253,83.990307,2.553985,-129.449888
04239,NaN,-0.476990,9.794399,1.015765,0.036104,0.019317,0.045703,-0.008176,0.014286,0.004505,0.303817,0.300571,-0.597776,-0.678244,83.987564,2.550079,-129.444699
04240,NaN,-0.457887,9.768169,1.028257,0.013321,0.015968,0.020098,0.008128,0.007139,0.008374,0.303844,0.300556,-0.597829,-0.678192,83.993867,2.543415,-129.443427
04241,NaN,-0.470369,9.816611,1.005355,0.041096,0.008243,0.066386,0.015650,0.005278,0.010711,0.303860,0.300541,-0.597915,-0.678116,84.004655,2.535472,-129.443022
04242,NaN,-0.465684,9.848474,1.017180,0.030251,0.010912,0.099069,0.012146,0.000460,0.008375,0.303861,0.300509,-0.597992,-0.678062,84.013092,2.528408,-129.445561
04243,NaN,-0.434208,9.856711,0.988113,0.033063,-0.030648,0.102837,0.005985,0.003426,0.012151,0.303891,0.300468,-0.598050,-0.678016,84.018271,2.519526,-129.446108
04244,NaN,-0.470321,9.836372,1.047313,0.009608,0.038056,0.090380,0.004195,-0.000038,0.009628,0.303907,0.300419,-0.598103,-0.677984,84.022144,2.511718,-129.448858
04245,NaN,-0.540474,9.849233,1.036814,0.063446,0.085970,0.105128,0.003384,-0.005066,0.015310,0.303925,0.300335,-0.598170,-0.677954,84.025659,2.500504,-129.454249
04246,NaN,-0.461741,9.797941,0.956718,0.072953,-0.017854,0.042388,0.012546,-0.007686,0.014754,0.303923,0.300257,-0.598270,-0.677901,84.034142,2.489320,-129.461057
04247,NaN,-0.503728,9.838438,0.961020,0.097923,0.016441,0.084903,0.031435,-0.003615,0.021178,0.303926,0.300206,-0.598438,-0.677774,84.053838,2.474984,-129.464769
04248,NaN,-0.539892,9.901021,0.955764,0.127871,0.038744,0.148102,0.019792,-0.007684,0.026103,0.303950,0.300105,-0.598579,-0.677683,84.066505,2.457337,-129.470908
04249,NaN,-0.494650,9.870772,0.970281,0.087113,0.019585,0.117584,0.010494,-0.020095,0.029717,0.303963,0.299938,-0.598715,-0.677631,84.073688,2.437006,-129.483952
04250,NaN,-0.417127,9.838809,0.934775,0.064967,-0.055817,0.078856,0.009316,-0.014555,0.033229,0.304007,0.299777,-0.598842,-0.677571,84.080208,2.414893,-129.493594
04251,NaN,-0.423993,9.795088,0.951994,0.055162,-0.031364,0.037479,0.015206,0.000305,0.039906,0.304109,0.299658,-0.598977,-0.677458,84.090696,2.390064,-129.494124
04252,NaN,-0.470442,9.823444,0.987931,0.059493,0.029158,0.071289,0.026333,0.002632,0.041575,0.304207,0.299555,-0.599148,-0.677308,84.107401,2.364210,-129.493478
04253,NaN,-0.456799,9.816747,0.909358,0.111864,-0.025052,0.056000,0.020552,-0.007691,0.041819,0.304285,0.299410,-0.599315,-0.677189,84.120614,2.337732,-129.498528
04254,NaN,-0.411639,9.796232,0.945623,0.055317,-0.029986,0.037482,0.021887,-0.009007,0.043725,0.304362,0.299255,-0.599493,-0.677067,84.134506,2.309971,-129.504408
04255,NaN,-0.350725,9.841660,0.953843,0.013430,-0.070894,0.081042,0.028555,-0.007518,0.039063,0.304417,0.299131,-0.599684,-0.676927,84.152463,2.285123,-129.509665
04256,NaN,-0.325856,9.857143,0.999470,-0.036076,-0.057776,0.100120,0.021456,-0.000553,0.038841,0.304503,0.299018,-0.599839,-0.676800,84.166293,2.260641,-129.511023
04257,NaN,-0.301279,9.811664,0.965680,-0.027309,-0.089567,0.050542,0.012782,0.001388,0.028592,0.304572,0.298931,-0.599948,-0.676712,84.175417,2.242255,-129.512005
04258,NaN,-0.277687,9.826985,1.012427,-0.076815,-0.076440,0.069620,0.013852,0.010011,0.025313,0.304656,0.298883,-0.600041,-0.676612,84.185095,2.226099,-129.508132
04259,NaN,-0.328509,9.813921,1.013546,-0.045808,-0.032373,0.058740,0.013123,0.015170,0.019515,0.304736,0.298871,-0.600116,-0.676515,84.194681,2.213734,-129.501503
04260,NaN,-0.344418,9.830724,0.976777,-0.007095,-0.042326,0.072352,0.022812,0.011519,0.006654,0.304748,0.298898,-0.600210,-0.676415,84.209482,2.208299,-129.497857
04261,NaN,-0.316357,9.858361,0.990464,-0.035920,-0.055406,0.100134,0.033482,0.006312,0.002002,0.304711,0.298937,-0.600341,-0.676297,84.230407,2.205277,-129.497687
04262,NaN,-0.312589,9.890343,1.000741,-0.046767,-0.052688,0.132820,0.023127,0.009329,-0.003856,0.304680,0.298989,-0.600423,-0.676216,84.245317,2.205706,-129.495899
04263,NaN,-0.288157,9.876361,0.980373,-0.048907,-0.082237,0.115934,0.004550,0.024546,-0.007943,0.304706,0.299075,-0.600415,-0.676173,84.250137,2.209419,-129.486009
04264,NaN,-0.342217,9.863099,0.982512,-0.017837,-0.038181,0.105043,0.000295,0.027630,-0.010365,0.304742,0.299173,-0.600383,-0.676142,84.252354,2.214608,-129.474154
04265,NaN,-0.334515,9.783145,0.990697,-0.034689,-0.031782,0.026067,0.010358,0.032123,-0.013899,0.304764,0.299314,-0.600373,-0.676079,84.260714,2.222253,-129.459918
04266,NaN,-0.349539,9.831567,0.966423,-0.006881,-0.039491,0.072364,0.035648,0.031617,-0.018745,0.304731,0.299505,-0.600441,-0.675949,84.283260,2.232444,-129.446266
04267,NaN,-0.398385,9.891757,1.013679,-0.013432,0.023323,0.138815,0.035914,0.032480,-0.022043,0.304687,0.299708,-0.600505,-0.675821,84.306149,2.244635,-129.432546
04268,NaN,-0.342901,9.927157,0.999447,-0.039504,-0.031765,0.170416,0.013260,0.038720,-0.026086,0.304684,0.299911,-0.600476,-0.675759,84.316017,2.259405,-129.415252
04269,NaN,-0.406756,9.850347,0.975102,0.013346,0.007763,0.094147,-0.003965,0.036329,-0.031208,0.304680,0.300094,-0.600386,-0.675759,84.316146,2.277052,-129.399793
04270,NaN,-0.391730,9.823881,0.988366,-0.009452,0.004420,0.068550,-0.010325,0.035395,-0.031352,0.304685,0.300265,-0.600274,-0.675780,84.312424,2.294634,-129.384693
04271,NaN,-0.414624,9.798749,0.917828,0.055909,-0.022073,0.037500,0.009769,0.031166,-0.034114,0.304637,0.300463,-0.600232,-0.675751,84.320286,2.313701,-129.372024
04272,NaN,-0.451968,9.810366,0.989253,0.021662,0.048917,0.057638,0.015298,0.021914,-0.038186,0.304540,0.300648,-0.600217,-0.675726,84.330927,2.334413,-129.365001
04273,NaN,-0.445208,9.854240,0.969382,0.031477,0.025416,0.099039,0.011337,-0.001227,-0.038340,0.304378,0.300751,-0.600223,-0.675747,84.338881,2.354018,-129.371108
04274,NaN,-0.449050,9.854148,0.968542,0.031537,0.025881,0.099037,0.006110,-0.007398,-0.040485,0.304199,0.300830,-0.600218,-0.675798,84.343567,2.374383,-129.380935
04275,NaN,-0.444850,9.856414,0.914207,0.068031,-0.014151,0.095780,0.003737,-0.017451,-0.044814,0.303978,0.300887,-0.600214,-0.675876,84.346778,2.396799,-129.396541
04276,NaN,-0.446010,9.836700,0.869290,0.099665,-0.042203,0.071823,0.003979,-0.029815,-0.043823,0.303724,0.300897,-0.600231,-0.675971,84.349691,2.417803,-129.419347
04277,NaN,-0.453118,9.856065,0.913913,0.068127,-0.013221,0.095781,-0.000783,-0.031208,-0.045357,0.303465,0.300899,-0.600232,-0.676085,84.349932,2.439656,-129.443232
04278,NaN,-0.455828,9.846051,0.892080,0.083972,-0.027020,0.083804,-0.006514,-0.025880,-0.045191,0.303234,0.300910,-0.600205,-0.676207,84.346908,2.461662,-129.463871
04279,NaN,-0.469572,9.853120,0.969265,0.031757,0.028198,0.099030,-0.010673,-0.018260,-0.040708,0.303046,0.300930,-0.600159,-0.676324,84.341787,2.481675,-129.479686
04280,NaN,-0.474679,9.862551,0.993246,0.016034,0.042926,0.111005,-0.020895,-0.024266,-0.036881,0.302869,0.300900,-0.600093,-0.676474,84.330569,2.499030,-129.498938
04281,NaN,-0.538244,9.857785,0.885932,0.138001,0.021708,0.098468,-0.008691,-0.010867,-0.034283,0.302722,0.300927,-0.600053,-0.676564,84.326849,2.515792,-129.510363
04282,NaN,-0.622170,9.877476,0.952597,0.139750,0.124290,0.128343,-0.004333,-0.009391,-0.024949,0.302605,0.300937,-0.600039,-0.676624,84.325514,2.527184,-129.520453
04283,NaN,-0.624131,9.877244,0.953723,0.139791,0.124748,0.128337,-0.016057,-0.028808,-0.018444,0.302468,0.300845,-0.600025,-0.676739,84.317104,2.533869,-129.541243
04284,NaN,-0.471486,9.834768,0.877662,0.100013,-0.038533,0.071834,-0.021463,-0.033735,-0.014582,0.302339,0.300715,-0.600005,-0.676872,84.305362,2.537965,-129.564640
04285,NaN,-0.429923,9.804193,0.895566,0.059194,-0.057652,0.041360,-0.013600,-0.014207,-0.007205,0.302279,0.300641,-0.599995,-0.676941,84.298853,2.539059,-129.576740
04286,NaN,-0.553763,9.854294,0.946445,0.101803,0.064524,0.101696,-0.003668,-0.006315,-0.002032,0.302247,0.300593,-0.600013,-0.676960,84.298030,2.537555,-129.583775
04287,NaN,-0.577859,9.858418,0.943558,0.119817,0.080755,0.106574,-0.005097,-0.022775,-0.006565,0.302154,0.300504,-0.600044,-0.677014,84.296066,2.537850,-129.600188
04288,NaN,-0.484398,9.851285,0.980558,0.032186,0.032377,0.099016,-0.013359,-0.042227,-0.006140,0.302015,0.300332,-0.600077,-0.677123,84.288774,2.536642,-129.627951
04289,NaN,-0.427496,9.835523,0.912440,0.048479,-0.053514,0.074051,-0.010500,-0.046100,-0.008329,0.301852,0.300158,-0.600123,-0.677232,84.283115,2.536534,-129.658142
04290,NaN,-0.410590,9.818989,0.948310,0.009899,-0.042580,0.060433,-0.004545,-0.031846,-0.004673,0.301737,0.300031,-0.600172,-0.677296,84.281139,2.535076,-129.679896
04291,NaN,-0.424468,9.867085,0.927033,0.037679,-0.050291,0.106737,-0.004690,-0.036075,-0.010082,0.301591,0.299907,-0.600219,-0.677374,84.279022,2.536605,-129.704047
04292,NaN,-0.405037,9.831066,0.918110,0.030649,-0.067915,0.069180,-0.008401,-0.042077,-0.010609,0.301431,0.299757,-0.600261,-0.677474,84.274563,2.537945,-129.731979
04293,NaN,-0.330775,9.850130,0.942202,-0.034182,-0.112448,0.087232,-0.008411,-0.028849,-0.014890,0.301293,0.299665,-0.600279,-0.677561,84.270642,2.542587,-129.752835
04294,NaN,-0.308285,9.845834,0.946331,-0.052111,-0.127754,0.082361,-0.006351,-0.008859,-0.015749,0.301211,0.299645,-0.600272,-0.677612,84.268183,2.548755,-129.762107
04295,NaN,-0.336455,9.869364,0.988301,-0.065630,-0.082947,0.111178,-0.006217,0.008598,-0.014620,0.301186,0.299683,-0.600239,-0.677635,84.266306,2.555372,-129.761246
04296,NaN,-0.398984,9.853066,1.045206,-0.070893,0.001572,0.103437,-0.002533,0.012175,-0.018298,0.301153,0.299749,-0.600209,-0.677648,84.266561,2.564196,-129.758661
04297,NaN,-0.401162,9.852936,1.045600,-0.070860,0.002036,0.103437,-0.007073,0.027606,-0.021696,0.301162,0.299872,-0.600134,-0.677656,84.264710,2.575978,-129.747250
04298,NaN,-0.466684,9.867836,0.981991,0.019586,0.009271,0.114841,-0.003428,0.036662,-0.013959,0.301219,0.300006,-0.600070,-0.677628,84.265093,2.583731,-129.730442
04299,NaN,-0.507058,9.857039,1.064509,-0.019452,0.092318,0.114176,-0.007528,0.041219,-0.016673,0.301284,0.300157,-0.599983,-0.677609,84.263436,2.593384,-129.711399
04300,NaN,-0.506045,9.837424,1.020441,0.012151,0.064198,0.090243,-0.009333,0.040488,-0.013482,0.301363,0.300294,-0.599894,-0.677592,84.260541,2.601084,-129.692380
04301,NaN,-0.471392,9.806545,0.903160,0.077896,-0.034533,0.046267,-0.001143,0.044604,-0.012327,0.301444,0.300453,-0.599829,-0.677543,84.262634,2.608450,-129.671163
04302,NaN,-0.451557,9.872947,1.008944,-0.013987,0.009680,0.121932,-0.001093,0.044292,-0.013827,0.301520,0.300616,-0.599762,-0.677496,84.264563,2.616565,-129.649993
04303,NaN,-0.450259,9.853389,0.964621,0.017577,-0.018457,0.098006,-0.010475,0.045715,-0.011479,0.301624,0.300765,-0.599663,-0.677471,84.261254,2.623567,-129.627587
04304,NaN,-0.501456,9.820095,0.922995,0.080282,-0.003102,0.063100,-0.007308,0.047564,-0.008554,0.301738,0.300914,-0.599578,-0.677430,84.259727,2.628864,-129.604248
04305,NaN,-0.481924,9.835282,0.971569,0.030796,0.010188,0.082156,-0.006536,0.039670,-0.008464,0.301827,0.301039,-0.599507,-0.677398,84.258533,2.633788,-129.585197
04306,NaN,-0.428888,9.839212,0.947126,0.015499,-0.047136,0.081181,-0.002289,0.034178,-0.010247,0.301887,0.301155,-0.599456,-0.677364,84.259530,2.639283,-129.569594
04307,NaN,-0.435231,9.817155,0.956272,0.010656,-0.034729,0.060463,0.000222,0.045723,-0.006203,0.301994,0.301306,-0.599401,-0.677299,84.262365,2.643321,-129.546655
04308,NaN,-0.505892,9.870918,0.981673,0.038063,0.029672,0.119699,-0.010181,0.049009,-0.010569,0.302109,0.301462,-0.599300,-0.677267,84.259233,2.649850,-129.522606
04309,NaN,-0.533248,9.833428,0.943805,0.082736,0.029231,0.079922,-0.016046,0.036864,-0.011538,0.302195,0.301573,-0.599196,-0.677271,84.252556,2.656424,-129.505140
04310,NaN,-0.483725,9.805563,0.907292,0.078315,-0.030446,0.046277,-0.012611,0.026347,-0.007635,0.302256,0.301640,-0.599125,-0.677277,84.247444,2.659984,-129.493856
04311,NaN,-0.489387,9.834566,0.975082,0.031065,0.012934,0.082152,-0.005692,0.033891,-0.005664,0.302336,0.301739,-0.599070,-0.677246,84.246643,2.663028,-129.477829
04312,NaN,-0.566919,9.824869,0.973991,0.080266,0.072627,0.076013,-0.000997,0.033182,-0.006829,0.302403,0.301843,-0.599030,-0.677205,84.248371,2.666521,-129.462598
04313,NaN,-0.521729,9.826251,1.003519,0.028521,0.055873,0.078244,-0.006519,0.026440,-0.004188,0.302468,0.301913,-0.598984,-0.677185,84.246941,2.668351,-129.450552
04314,NaN,-0.538998,9.842630,0.969003,0.067212,0.045826,0.091869,-0.006336,0.017122,0.003993,0.302531,0.301923,-0.598967,-0.677168,84.245212,2.664753,-129.443864
04315,NaN,-0.496402,9.812330,0.985525,0.026369,0.026724,0.061424,-0.002577,0.022818,0.003038,0.302603,0.301962,-0.598952,-0.677131,84.245907,2.662159,-129.433834
04316,NaN,-0.571106,9.793021,0.961751,0.091336,0.072087,0.043318,0.002732,0.015148,0.006463,0.302655,0.301971,-0.598972,-0.677086,84.249328,2.657039,-129.428130
04317,NaN,-0.502437,9.821828,0.873303,0.117206,-0.037777,0.059913,0.013785,0.002166,0.009722,0.302662,0.301946,-0.599054,-0.677022,84.258885,2.649466,-129.429450
04318,NaN,-0.432935,9.880162,0.984880,-0.010650,-0.024933,0.125838,0.015779,0.006815,0.010451,0.302683,0.301934,-0.599137,-0.676944,84.269571,2.641594,-129.428275
04319,NaN,-0.481247,9.898251,0.999501,0.009647,0.021345,0.147505,-0.002998,0.022887,0.010833,0.302784,0.301952,-0.599131,-0.676897,84.269992,2.634607,-129.417383
04320,NaN,-0.526952,9.845633,0.913064,0.103864,0.007976,0.088676,-0.015108,0.024816,0.006634,0.302893,0.301966,-0.599076,-0.676890,84.263442,2.629941,-129.406154
04321,NaN,-0.502406,9.841464,0.917330,0.085911,-0.007338,0.083821,-0.001630,0.005605,0.011303,0.302942,0.301925,-0.599101,-0.676865,84.264059,2.621628,-129.405114
04322,NaN,-0.489442,9.854142,1.019684,0.000106,0.046620,0.106045,-0.003917,-0.004761,0.005456,0.302941,0.301860,-0.599127,-0.676871,84.263144,2.615941,-129.410831
04323,NaN,-0.448433,9.855179,0.915986,0.054835,-0.049872,0.094844,-0.007545,0.020238,0.003288,0.303013,0.301883,-0.599099,-0.676853,84.260922,2.613084,-129.402129
04324,NaN,-0.543411,9.871655,0.903094,0.126945,0.013587,0.114253,-0.018278,0.007313,0.003761,0.303064,0.301842,-0.599055,-0.676887,84.252089,2.609054,-129.401053
04325,NaN,-0.488675,9.802673,0.965841,0.042626,0.016946,0.049460,-0.027531,-0.021093,0.005905,0.303054,0.301688,-0.599025,-0.676987,84.237190,2.602305,-129.415523
04326,NaN,-0.501352,9.850723,0.945765,0.070424,0.009266,0.095769,-0.007512,-0.008966,0.006112,0.303049,0.301601,-0.599046,-0.677010,84.234110,2.596000,-129.423600
04327,NaN,-0.545104,9.839602,0.894779,0.137968,0.012553,0.081570,-0.007012,-0.004495,0.005229,0.303052,0.301535,-0.599061,-0.677024,84.231575,2.590604,-129.429006
04328,NaN,-0.515291,9.857387,0.890543,0.124873,-0.014680,0.097452,-0.019694,-0.035614,0.007732,0.302990,0.301334,-0.599084,-0.677121,84.220835,2.581837,-129.452194
04329,NaN,-0.429052,9.847644,0.983038,0.000754,-0.022253,0.093171,-0.022453,-0.032366,0.006919,0.302939,0.301144,-0.599092,-0.677222,84.208708,2.573804,-129.473627
04330,NaN,-0.406104,9.852928,1.011570,-0.032945,-0.023194,0.100272,-0.029420,-0.026359,0.002180,0.302900,0.300976,-0.599059,-0.677342,84.192625,2.568727,-129.491852
04331,NaN,-0.453648,9.809931,0.949526,0.045502,-0.022306,0.053394,-0.026324,-0.026626,0.002405,0.302855,0.300811,-0.599039,-0.677454,84.178396,2.563529,-129.510509
04332,NaN,-0.485762,9.760133,0.944612,0.069608,0.003440,0.004828,-0.024125,-0.036455,0.001390,0.302776,0.300620,-0.599038,-0.677575,84.165091,2.558306,-129.534537
04333,NaN,-0.452523,9.809540,0.954085,0.045611,-0.021392,0.053396,-0.011477,-0.049889,0.003243,0.302644,0.300398,-0.599103,-0.677674,84.158712,2.551325,-129.565955
04334,NaN,-0.402152,9.842477,0.997842,-0.016992,-0.035666,0.088333,-0.010195,-0.037655,0.002396,0.302544,0.300221,-0.599153,-0.677754,84.153365,2.545453,-129.590608
04335,NaN,-0.417200,9.849233,0.941949,0.037414,-0.060101,0.090024,-0.016651,-0.024754,0.000994,0.302489,0.300084,-0.599158,-0.677834,84.144613,2.541224,-129.607655
04336,NaN,-0.439056,9.843539,0.918477,0.071232,-0.058243,0.082926,-0.028962,-0.021575,0.002819,0.302466,0.299932,-0.599121,-0.677945,84.128925,2.536043,-129.623107
04337,NaN,-0.402626,9.800565,0.968616,0.009788,-0.051042,0.043717,-0.022305,-0.014909,0.008092,0.302471,0.299797,-0.599103,-0.678018,84.117259,2.528309,-129.634395
04338,NaN,-0.398344,9.832129,0.983301,-0.001033,-0.048166,0.076398,-0.006136,-0.013013,0.002309,0.302438,0.299710,-0.599130,-0.678048,84.114867,2.523916,-129.644990
04339,NaN,-0.395922,9.873408,1.019472,-0.027587,-0.030935,0.121020,-0.004257,-0.010166,0.001833,0.302408,0.299636,-0.599158,-0.678069,84.113629,2.519968,-129.654186
04340,NaN,-0.354759,9.852549,1.059090,-0.084166,-0.035650,0.102548,-0.020545,-0.000623,0.002159,0.302433,0.299569,-0.599116,-0.678124,84.103293,2.516388,-129.657721
04341,NaN,-0.411209,9.806894,1.050696,-0.042057,0.005811,0.058808,-0.032042,0.007590,-0.001687,0.302486,0.299526,-0.599018,-0.678206,84.086742,2.515613,-129.656780
04342,NaN,-0.478459,9.790271,0.975437,0.059286,0.010418,0.037500,-0.012996,0.008039,-0.005457,0.302500,0.299523,-0.598977,-0.678237,84.080928,2.516883,-129.655822
04343,NaN,-0.498988,9.826072,0.985495,0.066477,0.029034,0.075013,0.008435,-0.010672,-0.002087,0.302437,0.299480,-0.599043,-0.678226,84.087036,2.515229,-129.665285
04344,NaN,-0.439179,9.903152,1.009330,0.013572,-0.009051,0.151438,0.001282,-0.021807,-0.006483,0.302337,0.299401,-0.599094,-0.678261,84.088653,2.515322,-129.681414
04345,NaN,-0.385687,9.907112,0.985557,-0.001863,-0.066341,0.150572,-0.017854,-0.013542,-0.013878,0.302265,0.299343,-0.599057,-0.678351,84.079516,2.520171,-129.693257
04346,NaN,-0.446983,9.829758,0.963785,0.051171,-0.027337,0.074144,-0.031213,-0.005760,-0.013033,0.302239,0.299288,-0.598964,-0.678469,84.062898,2.524942,-129.700620
04347,NaN,-0.503114,9.774435,0.933020,0.109055,-0.000279,0.018454,-0.020947,-0.013274,-0.014098,0.302171,0.299226,-0.598916,-0.678569,84.051972,2.529891,-129.712455
04348,NaN,-0.477463,9.750849,0.893152,0.122531,-0.044278,-0.010251,-0.007916,-0.024035,-0.014361,0.302051,0.299149,-0.598928,-0.678646,84.048237,2.534331,-129.730324
04349,NaN,-0.460725,9.785071,0.986291,0.041626,-0.002098,0.032662,0.007011,-0.029532,-0.010890,0.301905,0.299068,-0.599004,-0.678680,84.053052,2.536633,-129.750790
04350,NaN,-0.481665,9.820905,0.995671,0.048851,0.016530,0.070170,0.005746,-0.026109,-0.010082,0.301773,0.298991,-0.599071,-0.678713,84.057102,2.538513,-129.769587
04351,NaN,-0.504457,9.815465,0.969435,0.082664,0.018346,0.063064,0.005883,-0.021894,-0.004661,0.301672,0.298914,-0.599141,-0.678730,84.061381,2.537629,-129.785555
04352,NaN,-0.530146,9.829215,0.988379,0.085048,0.048902,0.079825,-0.001595,-0.036011,-0.008467,0.301527,0.298788,-0.599201,-0.678797,84.060979,2.538004,-129.809904
04353,NaN,-0.467335,9.813825,1.053279,-0.005319,0.042855,0.068461,-0.011769,-0.044772,-0.010363,0.301364,0.298623,-0.599237,-0.678910,84.054648,2.539050,-129.839315
04354,NaN,-0.488494,9.798667,1.005761,0.044228,0.030301,0.049421,0.002789,-0.037283,-0.004848,0.301221,0.298489,-0.599319,-0.678960,84.056735,2.537284,-129.864175
04355,NaN,-0.510493,9.844197,1.036887,0.035721,0.063317,0.098855,0.025465,-0.048579,-0.010775,0.300987,0.298367,-0.599488,-0.678969,84.071641,2.538287,-129.896076
04356,NaN,-0.398817,9.884332,0.998806,-0.006137,-0.049257,0.129859,0.013488,-0.058082,-0.009474,0.300750,0.298191,-0.599631,-0.679025,84.079320,2.537936,-129.933076
04357,NaN,-0.341709,9.920179,0.986762,-0.032508,-0.104077,0.161706,-0.001567,-0.023080,-0.014205,0.300623,0.298127,-0.599663,-0.679081,84.079382,2.542450,-129.950451
04358,NaN,-0.407599,9.871741,1.030948,-0.026598,-0.022016,0.121046,-0.017345,-0.027459,-0.020398,0.300486,0.298042,-0.599639,-0.679200,84.070138,2.550136,-129.970628
04359,NaN,-0.437136,9.843848,1.016904,0.002373,-0.008281,0.093193,-0.031030,-0.043462,-0.028827,0.300292,0.297906,-0.599580,-0.679397,84.052690,2.561711,-130.000619
04360,NaN,-0.419362,9.807656,1.009788,-0.004735,-0.025993,0.055694,-0.023462,-0.029959,-0.028035,0.300131,0.297826,-0.599528,-0.679550,84.039849,2.573590,-130.022681
04361,NaN,-0.369204,9.821217,1.008826,-0.035957,-0.068891,0.066802,-0.005135,-0.053210,-0.033360,0.299855,0.297713,-0.599564,-0.679689,84.037010,2.587253,-130.058132
04362,NaN,-0.290558,9.852754,1.002048,-0.080362,-0.139416,0.093845,-0.024390,-0.044349,-0.037695,0.299619,0.297612,-0.599515,-0.679880,84.023228,2.603773,-130.088983
04363,NaN,-0.421724,9.819109,0.984540,0.015938,-0.050918,0.064520,-0.036403,0.011169,-0.032288,0.299587,0.297669,-0.599349,-0.680015,84.004165,2.620728,-130.087357
04364,NaN,-0.599056,9.783942,0.938641,0.164102,0.054623,0.032896,-0.037927,-0.004354,-0.032365,0.299510,0.297667,-0.599202,-0.680180,83.983670,2.636590,-130.095085
04365,NaN,-0.490355,9.760036,1.012721,0.037630,0.017200,0.011907,-0.036329,-0.048728,-0.026472,0.299315,0.297500,-0.599137,-0.680396,83.963077,2.646508,-130.127876
04366,NaN,-0.484586,9.762583,0.961710,0.073953,-0.023037,0.008806,-0.020512,-0.013642,-0.023341,0.299215,0.297466,-0.599077,-0.680509,83.952337,2.656663,-130.140368
04367,NaN,-0.647162,9.803409,0.908856,0.220924,0.061089,0.051345,-0.009477,0.004692,-0.020209,0.299166,0.297505,-0.599029,-0.680555,83.948396,2.666292,-130.141576
04368,NaN,-0.650070,9.812764,0.932418,0.205290,0.075934,0.063265,-0.012626,-0.023025,-0.011662,0.299065,0.297416,-0.599027,-0.680640,83.941954,2.669222,-130.158715
04369,NaN,-0.553147,9.837448,0.983109,0.106557,0.030408,0.088604,-0.023287,-0.033557,-0.006951,0.298965,0.297261,-0.599011,-0.680766,83.929155,2.668880,-130.181560
04370,NaN,-0.429430,9.838945,0.992314,0.021182,-0.059603,0.085289,-0.015926,-0.023947,-0.010077,0.298871,0.297159,-0.599001,-0.680860,83.920802,2.670846,-130.199130
04371,NaN,-0.451945,9.883949,1.027018,0.012693,-0.026553,0.134704,-0.026436,-0.020051,-0.011386,0.298802,0.297061,-0.598948,-0.680980,83.906673,2.673968,-130.214228
04372,NaN,-0.465896,9.858369,1.093845,-0.028312,0.026539,0.117040,-0.047926,-0.034796,-0.017327,0.298699,0.296896,-0.598834,-0.681197,83.879673,2.679393,-130.238429
04373,NaN,-0.395770,9.845506,1.108887,-0.082429,-0.020140,0.102606,-0.057354,-0.053565,-0.021857,0.298541,0.296670,-0.598708,-0.681475,83.846729,2.686371,-130.273067
04374,NaN,-0.455495,9.808770,1.125437,-0.055905,0.035573,0.070716,-0.037363,-0.028763,-0.028960,0.298401,0.296576,-0.598605,-0.681669,83.825902,2.698770,-130.294549
04375,NaN,-0.568140,9.822127,1.036567,0.086363,0.059460,0.079756,-0.030650,-0.040462,-0.029416,0.298213,0.296455,-0.598541,-0.681859,83.808789,2.710858,-130.322611
04376,NaN,-0.484267,9.875829,1.022485,0.046748,-0.022929,0.127598,-0.034497,-0.083774,-0.036593,0.297878,0.296200,-0.598518,-0.682137,83.788085,2.724185,-130.375945
04377,NaN,-0.415679,9.863120,1.036222,-0.007391,-0.069570,0.113177,-0.044164,-0.072729,-0.040832,0.297573,0.295980,-0.598440,-0.682433,83.762250,2.740627,-130.423621
04378,NaN,-0.471806,9.848373,1.043993,0.023975,-0.025783,0.102035,-0.051902,-0.056732,-0.042831,0.297323,0.295811,-0.598308,-0.682732,83.732264,2.759147,-130.461938
04379,NaN,-0.547166,9.859603,1.040800,0.078236,0.021768,0.116453,-0.066690,-0.082875,-0.047717,0.297004,0.295549,-0.598153,-0.683120,83.692969,2.778930,-130.514716
04380,NaN,-0.580601,9.789980,0.995721,0.133807,0.018520,0.043986,-0.073650,-0.089816,-0.046662,0.296674,0.295245,-0.597990,-0.683537,83.649566,2.797491,-130.572164
04381,NaN,-0.596704,9.763566,1.065893,0.092822,0.071600,0.026299,-0.061911,-0.099206,-0.048926,0.296292,0.294936,-0.597875,-0.683936,83.612595,2.816819,-130.634728
04382,NaN,-0.469914,9.777622,1.046728,0.027916,-0.044676,0.031883,-0.049827,-0.120957,-0.050293,0.295821,0.294571,-0.597833,-0.684334,83.581915,2.835384,-130.710187
04383,NaN,-0.421097,9.850879,1.130109,-0.061289,-0.041766,0.111465,-0.049002,-0.111096,-0.047508,0.295387,0.294234,-0.597784,-0.684709,83.552088,2.853047,-130.779910
04384,NaN,-0.451272,9.872796,1.178037,-0.074529,0.003239,0.140099,-0.062451,-0.090421,-0.052207,0.295019,0.293961,-0.597651,-0.685102,83.514988,2.874588,-130.838110
04385,NaN,-0.461340,9.799210,1.135852,-0.037046,-0.015722,0.062832,-0.078443,-0.095717,-0.055005,0.294647,0.293653,-0.597467,-0.685554,83.468653,2.897360,-130.899880
04386,NaN,-0.476207,9.763146,1.183460,-0.062310,0.022973,0.033223,-0.058946,-0.085588,-0.049866,0.294296,0.293395,-0.597342,-0.685925,83.433662,2.917801,-130.955204
04387,NaN,-0.574545,9.768779,1.154143,0.025736,0.071807,0.040504,-0.033000,-0.075368,-0.049155,0.293940,0.293208,-0.597291,-0.686202,83.413859,2.938550,-131.004625
04388,NaN,-0.442263,9.796459,1.099956,-0.018692,-0.070763,0.054975,-0.023827,-0.095354,-0.051066,0.293504,0.292971,-0.597298,-0.686483,83.398659,2.958988,-131.065613
04389,NaN,-0.373166,9.834452,1.169865,-0.115092,-0.086040,0.097087,-0.022607,-0.080723,-0.047633,0.293125,0.292781,-0.597290,-0.686733,83.384566,2.978603,-131.117301
04390,NaN,-0.388233,9.913891,1.165213,-0.098154,-0.091147,0.176093,-0.024304,-0.049897,-0.050635,0.292827,0.292698,-0.597229,-0.686948,83.370402,3.001769,-131.152367
04391,NaN,-0.477496,9.849014,1.164301,-0.042679,-0.022297,0.116278,-0.038758,-0.037900,-0.052049,0.292578,0.292638,-0.597101,-0.687191,83.348553,3.026628,-131.181016
04392,NaN,-0.516666,9.817075,1.205668,-0.049850,0.032095,0.091454,-0.034073,-0.038571,-0.053276,0.292319,0.292588,-0.596985,-0.687423,83.329093,3.052027,-131.209819
04393,NaN,-0.515793,9.829348,1.177403,-0.029281,0.006250,0.100309,-0.027507,-0.036677,-0.056489,0.292042,0.292561,-0.596887,-0.687637,83.313580,3.079409,-131.238139
04394,NaN,-0.455051,9.804232,1.219976,-0.103937,-0.014027,0.077074,-0.021437,-0.058785,-0.062834,0.291671,0.292488,-0.596831,-0.687875,83.300675,3.108880,-131.279116
04395,NaN,-0.375060,9.858900,1.203734,-0.143656,-0.096338,0.125000,-0.017196,-0.066612,-0.068930,0.291253,0.292417,-0.596790,-0.688118,83.289968,3.141476,-131.324359
04396,NaN,-0.396675,9.860256,1.337018,-0.231622,0.000101,0.143013,-0.031890,-0.063579,-0.084198,0.290809,0.292376,-0.596673,-0.688424,83.270795,3.182763,-131.369520
04397,NaN,-0.463893,9.828121,1.165899,-0.062720,-0.065332,0.094798,-0.043224,-0.071969,-0.092399,0.290335,0.292320,-0.596513,-0.688787,83.244698,3.228359,-131.418849
04398,NaN,-0.569657,9.792393,1.099238,0.051912,-0.033520,0.057468,-0.012572,-0.065601,-0.101733,0.289797,0.292352,-0.596439,-0.689063,83.236387,3.279456,-131.466379
04399,NaN,-0.643885,9.806757,1.038046,0.142414,-0.026789,0.068790,-0.000648,-0.070746,-0.098667,0.289240,0.292379,-0.596416,-0.689306,83.234645,3.328618,-131.515845
04400,NaN,-0.651676,9.856160,1.097577,0.100287,0.005091,0.125278,-0.004302,-0.095998,-0.101688,0.288599,0.292318,-0.596415,-0.689602,83.229976,3.377631,-131.580709
04401,NaN,-0.521409,9.810896,1.123583,-0.012957,-0.076693,0.075787,-0.001247,-0.117839,-0.108222,0.287868,0.292208,-0.596444,-0.689929,83.226205,3.428988,-131.658010
04402,NaN,-0.480784,9.843780,1.165491,-0.075576,-0.090608,0.110800,0.003619,-0.081222,-0.110481,0.287229,0.292235,-0.596435,-0.690191,83.226428,3.483995,-131.715059
04403,NaN,-0.458157,9.884191,1.150340,-0.083931,-0.129630,0.147562,0.000647,-0.043425,-0.110165,0.286710,0.292390,-0.596360,-0.690406,83.226092,3.541449,-131.750014
04404,NaN,-0.491627,9.840571,1.300898,-0.181486,-0.009371,0.124004,-0.037061,-0.030053,-0.114270,0.286270,0.292546,-0.596131,-0.690720,83.204693,3.602065,-131.778168
04405,NaN,-0.630974,9.722564,0.948384,0.162222,-0.131498,-0.025850,0.000981,0.027563,-0.122427,0.285919,0.292983,-0.595938,-0.690847,83.207136,3.671350,-131.773623
04406,NaN,-0.940603,9.788841,1.036673,0.296198,0.141274,0.070284,0.034531,0.002520,-0.116195,0.285464,0.293360,-0.595907,-0.690902,83.227883,3.735266,-131.783339
04407,NaN,-0.766992,9.830414,0.759985,0.378186,-0.180112,0.067971,0.056628,-0.053753,-0.123054,0.284790,0.293600,-0.596018,-0.690982,83.259038,3.799451,-131.824705
04408,NaN,-0.636063,10.024262,0.838662,0.227499,-0.254595,0.260900,0.094663,-0.071780,-0.135170,0.283959,0.293862,-0.596272,-0.690993,83.311301,3.869197,-131.877994
04409,NaN,-0.808388,10.174762,1.134190,0.116775,0.042223,0.456209,0.003039,-0.044176,-0.128605,0.283375,0.294075,-0.596175,-0.691226,83.311834,3.937194,-131.913936
04410,NaN,-0.848975,9.860870,1.214977,0.067532,0.152634,0.157559,-0.125838,-0.055708,-0.129895,0.282934,0.294064,-0.595651,-0.691863,83.238291,4.005009,-131.957723
04411,NaN,-0.677783,9.508406,0.901614,0.171221,-0.149342,-0.240307,-0.056582,-0.067212,-0.128021,0.282368,0.294109,-0.595382,-0.692306,83.203818,4.071062,-132.007294
04412,NaN,-0.792327,9.723387,0.992560,0.180991,-0.040636,-0.008465,0.072546,-0.028834,-0.117935,0.281756,0.294435,-0.595524,-0.692295,83.244990,4.133850,-132.035009
04413,NaN,-1.002893,9.952174,1.068198,0.263145,0.130733,0.242473,0.044725,-0.042840,-0.113164,0.281173,0.294672,-0.595587,-0.692377,83.269374,4.193368,-132.068147
04414,NaN,-0.953139,9.874101,1.102845,0.194528,0.119802,0.165810,-0.034508,-0.074061,-0.105479,0.280627,0.294654,-0.595440,-0.692733,83.247317,4.246042,-132.120792
04415,NaN,-0.868398,9.740507,1.219443,0.043917,0.142039,0.041069,-0.053160,-0.069513,-0.097723,0.280157,0.294611,-0.595227,-0.693124,83.214682,4.294889,-132.168916
04416,NaN,-0.750002,9.589200,1.238677,-0.057289,0.078925,-0.115262,-0.027746,-0.058372,-0.086425,0.279714,0.294599,-0.595109,-0.693410,83.197178,4.337738,-132.211369
04417,NaN,-0.771387,9.677478,1.254429,-0.055983,0.088260,-0.024363,0.032996,-0.011490,-0.069821,0.279389,0.294797,-0.595152,-0.693419,83.216307,4.374630,-132.224076
04418,NaN,-1.024538,9.765468,1.361748,0.031132,0.332246,0.094736,0.028872,0.025336,-0.050637,0.279235,0.295048,-0.595166,-0.693363,83.235031,4.402790,-132.216326
04419,NaN,-1.059613,9.714383,1.354045,0.055375,0.357629,0.046039,-0.020260,0.004803,-0.031364,0.279167,0.295109,-0.595061,-0.693454,83.224678,4.418837,-132.217768
04420,NaN,-0.931724,9.536533,1.301845,0.001149,0.251109,-0.145976,0.005899,-0.013224,-0.017475,0.279048,0.295096,-0.595097,-0.693477,83.228720,4.425523,-132.229774
04421,NaN,-0.935154,9.692791,1.287377,0.016894,0.224835,0.007252,0.060814,0.020572,0.001457,0.279021,0.295228,-0.595300,-0.693257,83.265653,4.423988,-132.219852
04422,NaN,-0.822765,9.769989,1.256135,-0.036154,0.115082,0.071287,0.046805,0.004355,0.008765,0.278985,0.295255,-0.595492,-0.693095,83.294043,4.416933,-132.220055
04423,NaN,-0.582052,9.765964,1.079898,-0.070084,-0.174341,0.028232,0.053312,0.026757,0.006196,0.279001,0.295379,-0.595668,-0.692884,83.326856,4.412887,-132.206963
04424,NaN,-0.868386,9.896586,1.138791,0.078580,0.062770,0.186474,0.050484,0.093303,0.010218,0.279229,0.295715,-0.595751,-0.692578,83.361266,4.410912,-132.156306
04425,NaN,-1.197800,9.808840,1.102894,0.321292,0.297335,0.120731,-0.011278,0.070325,0.027899,0.279548,0.295840,-0.595673,-0.692463,83.359222,4.397613,-132.116272
04426,NaN,-1.051386,9.551884,1.058191,0.250143,0.196253,-0.150256,-0.010195,0.010436,0.041245,0.279727,0.295711,-0.595708,-0.692416,83.355383,4.372477,-132.110854
04427,NaN,-0.801937,9.592633,1.130572,0.031818,0.059598,-0.120663,0.068803,0.007810,0.051144,0.279824,0.295666,-0.596027,-0.692121,83.396575,4.341923,-132.104462
