// General information: 
//  MT Manager version: 2019.0.1 
//  XDA version: 2019.0.1 build 2740 rev 84096 built on 2019-01-30
// Device information: 
//  DeviceId: 00B43876
//  ProductCode: MTW2-3A7G6
//  Firmware Version: 4.3.4
//  Hardware Version: 1.1.0
// Device settings: 
//  Filter Profile: human(46.1)
//  Option Flags: Orientation Smoother Disabled, AHS Disabled, ICC Disabled
// Coordinate system: ENU
PacketCounter,SampleTimeFine,Acc_X,Acc_Y,Acc_Z,FreeAcc_E,FreeAcc_N,FreeAcc_U,Gyr_X,Gyr_Y,Gyr_Z,Quat_q0,Quat_q1,Quat_q2,Quat_q3,Roll,Pitch,Yaw
44739,NaN,0.733580,9.537448,-2.283167,0.076472,-0.041861,0.021249,-0.009211,-0.008623,0.017980,0.297193,0.435196,0.655035,0.541488,103.752819,-4.701434,116.491265
44740,NaN,0.760835,9.557257,-2.326110,0.032451,-0.037949,0.052824,-0.010205,-0.011199,0.013933,0.297215,0.435287,0.654948,0.541509,103.748849,-4.709471,116.479815
44741,NaN,0.751246,9.553118,-2.292687,0.064601,-0.033232,0.040108,-0.010446,-0.011852,0.016507,0.297233,0.435396,0.654852,0.541527,103.745370,-4.719058,116.466587
44742,NaN,0.771214,9.537966,-2.287654,0.056460,-0.015506,0.025884,-0.009779,-0.013247,0.018093,0.297246,0.435505,0.654755,0.541550,103.741724,-4.729313,116.453897
44743,NaN,0.772803,9.538016,-2.286907,0.056886,-0.015684,0.025882,-0.007872,-0.011410,0.021154,0.297245,0.435632,0.654656,0.541568,103.739756,-4.741548,116.440281
44744,NaN,0.809467,9.580091,-2.287447,0.051129,0.015996,0.069768,-0.009684,-0.009919,0.023129,0.297238,0.435754,0.654550,0.541601,103.736244,-4.755038,116.427685
44745,NaN,0.796322,9.564723,-2.275168,0.064168,0.006817,0.050896,-0.012900,-0.008971,0.024069,0.297232,0.435876,0.654435,0.541645,103.731321,-4.769230,116.415035
44746,NaN,0.812525,9.538381,-2.291160,0.036930,0.010692,0.030526,-0.011991,-0.009712,0.023082,0.297230,0.435994,0.654324,0.541686,103.726465,-4.782619,116.402597
44747,NaN,0.829691,9.553805,-2.301756,0.024751,0.019516,0.049395,-0.003571,-0.006425,0.022127,0.297200,0.436117,0.654242,0.541702,103.726752,-4.796077,116.391635
44748,NaN,0.827103,9.542552,-2.322733,0.005988,0.005484,0.043245,-0.003329,-0.005769,0.019554,0.297181,0.436230,0.654165,0.541715,103.726804,-4.807866,116.380919
44749,NaN,0.839647,9.546788,-2.354751,-0.025308,0.000431,0.055969,-0.008117,-0.002678,0.019897,0.297155,0.436329,0.654081,0.541750,103.724291,-4.820593,116.372353
44750,NaN,0.884038,9.569264,-2.318626,-0.007769,0.054981,0.072923,-0.007875,-0.002023,0.017323,0.297137,0.436417,0.654003,0.541784,103.721512,-4.831752,116.364280
44751,NaN,0.869186,9.511990,-2.312603,-0.009717,0.040878,0.014816,-0.004506,0.003710,0.012113,0.297104,0.436479,0.653955,0.541810,103.720680,-4.841015,116.360345
44752,NaN,0.851675,9.527279,-2.316363,-0.000885,0.022770,0.029031,-0.002619,0.005560,0.008002,0.297079,0.436529,0.653920,0.541825,103.720554,-4.847974,116.356921
44753,NaN,0.872105,9.553824,-2.306196,0.006072,0.045474,0.054052,-0.000067,0.006011,0.005476,0.297047,0.436569,0.653903,0.541832,103.722081,-4.853855,116.355177
44754,NaN,0.832282,9.560640,-2.244938,0.078344,0.037070,0.042807,-0.006772,-0.002081,-0.000583,0.297075,0.436601,0.653866,0.541835,103.719733,-4.855102,116.349449
44755,NaN,0.841969,9.523155,-2.282845,0.032061,0.027109,0.016301,-0.003217,0.000948,0.000940,0.297079,0.436635,0.653842,0.541835,103.719642,-4.857770,116.345495
44756,NaN,0.789721,9.538308,-2.279902,0.061922,-0.017995,0.025847,0.004460,0.002283,0.000535,0.297064,0.436673,0.653841,0.541813,103.723497,-4.860200,116.342421
44757,NaN,0.759224,9.561910,-2.342303,0.028405,-0.072824,0.060854,0.003151,0.005063,0.004536,0.297030,0.436717,0.653833,0.541806,103.726902,-4.865429,116.340275
44758,NaN,0.750316,9.599375,-2.304228,0.075481,-0.063248,0.087350,0.004154,0.007642,0.008585,0.296977,0.436768,0.653821,0.541809,103.730418,-4.873173,116.339023
44759,NaN,0.736214,9.583759,-2.293434,0.088496,-0.072438,0.068467,0.006968,0.008731,0.010658,0.296906,0.436828,0.653815,0.541807,103.735908,-4.882307,116.338089
44760,NaN,0.726901,9.579287,-2.261326,0.120569,-0.067757,0.055726,0.002693,0.003747,0.016856,0.296847,0.436914,0.653775,0.541817,103.738899,-4.893974,116.333371
44761,NaN,0.762621,9.579174,-2.268740,0.099954,-0.040966,0.060392,0.003784,0.000301,0.022601,0.296778,0.437031,0.653722,0.541824,103.743107,-4.908609,116.326095
44762,NaN,0.789813,9.556700,-2.318727,0.040994,-0.041867,0.052776,0.002890,-0.008316,0.027421,0.296732,0.437186,0.653641,0.541823,103.746939,-4.924433,116.312961
44763,NaN,0.795896,9.525647,-2.303765,0.045553,-0.033090,0.019686,0.005885,-0.000558,0.032396,0.296635,0.437340,0.653571,0.541836,103.752511,-4.944401,116.303864
44764,NaN,0.866422,9.525409,-2.318583,0.003846,0.020686,0.029035,0.006128,0.000098,0.029823,0.296545,0.437484,0.653506,0.541847,103.757789,-4.962880,116.295285
44765,NaN,0.840167,9.536100,-2.290687,0.044447,0.007385,0.030498,0.004083,0.000947,0.034374,0.296442,0.437639,0.653429,0.541872,103.762286,-4.984152,116.286754
44766,NaN,0.819240,9.498000,-2.322465,0.019100,-0.029514,-0.000666,0.007303,0.000002,0.033434,0.296340,0.437796,0.653360,0.541884,103.768290,-5.004604,116.277779
44767,NaN,0.861740,9.550605,-2.303261,0.032657,0.016042,0.049379,0.008372,-0.003428,0.032008,0.296248,0.437960,0.653293,0.541882,103.775436,-5.023961,116.267123
44768,NaN,0.872580,9.530558,-2.267429,0.056271,0.038706,0.022428,0.008880,-0.002131,0.034034,0.296148,0.438125,0.653225,0.541885,103.782438,-5.044209,116.257010
44769,NaN,0.852546,9.534253,-2.293800,0.046002,0.006707,0.030491,0.010930,-0.002974,0.029484,0.296056,0.438284,0.653171,0.541872,103.791005,-5.062220,116.246948
44770,NaN,0.852197,9.564482,-2.310161,0.042229,-0.002407,0.063578,0.008223,-0.000723,0.032448,0.295960,0.438444,0.653104,0.541876,103.797613,-5.081892,116.237180
44771,NaN,0.854046,9.522143,-2.316796,0.027639,-0.007472,0.024351,0.008971,0.001222,0.031899,0.295851,0.438596,0.653046,0.541882,103.804886,-5.101818,116.229125
44772,NaN,0.858827,9.503541,-2.392735,-0.042028,-0.040196,0.024827,0.009370,-0.010173,0.032723,0.295776,0.438778,0.652970,0.541867,103.812488,-5.120620,116.215166
44773,NaN,0.695543,9.466811,-2.508844,-0.076587,-0.240351,0.002350,0.022406,-0.041413,0.023551,0.295800,0.439039,0.652903,0.541723,103.829489,-5.130063,116.184436
44774,NaN,0.665290,9.440687,-2.324579,0.093054,-0.184603,-0.069479,0.050421,-0.067946,0.016579,0.295868,0.439384,0.652889,0.541424,103.863275,-5.131860,116.140551
44775,NaN,0.784617,9.483851,-2.266848,0.107055,-0.048435,-0.030876,0.058610,-0.083990,0.018704,0.295964,0.439797,0.652868,0.541061,103.903092,-5.132721,116.086702
44776,NaN,0.790525,9.535514,-2.245692,0.141603,-0.029891,0.014477,0.049164,-0.093103,0.024943,0.296099,0.440243,0.652791,0.540717,103.937732,-5.135562,116.026350
44777,NaN,0.809500,9.518844,-2.246883,0.133589,-0.012095,0.000272,0.046582,-0.096807,0.029620,0.296234,0.440709,0.652694,0.540381,103.971439,-5.140654,115.963829
44778,NaN,0.858205,9.490896,-2.276280,0.085335,0.018894,-0.015370,0.042713,-0.097712,0.038298,0.296360,0.441197,0.652565,0.540069,104.002729,-5.150062,115.899603
44779,NaN,0.843038,9.546994,-2.278830,0.109238,0.005609,0.038044,0.026886,-0.095551,0.049773,0.296480,0.441695,0.652372,0.539830,104.025362,-5.166467,115.834968
44780,NaN,0.779866,9.527839,-2.342419,0.081551,-0.081041,0.029142,0.025833,-0.086040,0.056666,0.296556,0.442188,0.652172,0.539625,104.046684,-5.187763,115.774403
44781,NaN,0.719572,9.496436,-2.315030,0.128084,-0.126269,-0.013346,0.019527,-0.093362,0.069598,0.296632,0.442734,0.651918,0.539443,104.065292,-5.215444,115.708204
44782,NaN,0.690711,9.495586,-2.310309,0.149418,-0.153438,-0.018051,0.021986,-0.102773,0.080676,0.296706,0.443344,0.651630,0.539249,104.085616,-5.247652,115.635005
44783,NaN,0.680864,9.533479,-2.386067,0.103264,-0.199197,0.035854,0.012802,-0.108420,0.099169,0.296765,0.444017,0.651269,0.539099,104.101602,-5.289622,115.556233
44784,NaN,0.619633,9.491069,-2.378590,0.130536,-0.258252,-0.012774,0.009698,-0.113893,0.118775,0.296800,0.444762,0.650846,0.538977,104.116058,-5.341469,115.471351
44785,NaN,0.620353,9.527935,-2.341867,0.177710,-0.248772,0.013668,0.007990,-0.122078,0.141562,0.296799,0.445602,0.650356,0.538874,104.130705,-5.405044,115.378969
44786,NaN,0.579697,9.542785,-2.339285,0.207483,-0.293952,0.023144,-0.004040,-0.135259,0.162325,0.296818,0.446529,0.649765,0.538811,104.139303,-5.478129,115.275546
44787,NaN,0.872656,9.464081,-2.588102,-0.146845,-0.152561,0.035347,-0.018313,-0.136100,0.193993,0.296780,0.447537,0.649065,0.538839,104.140588,-5.568846,115.167922
44788,NaN,0.393085,9.509959,-2.357671,0.276596,-0.497902,-0.023509,0.025725,-0.122406,0.213599,0.296545,0.448632,0.648459,0.538786,104.166392,-5.672305,115.065497
44789,NaN,0.492262,9.559632,-2.236558,0.362611,-0.370181,0.003754,0.002190,-0.139818,0.211856,0.296424,0.449737,0.647767,0.538764,104.180262,-5.772360,114.953189
44790,NaN,0.982046,9.531285,-2.421152,-0.000778,-0.024551,0.070184,0.009145,-0.154263,0.247272,0.296241,0.451002,0.646991,0.538741,104.199253,-5.889823,114.827894
44791,NaN,0.731136,9.601466,-2.227866,0.303455,-0.185009,0.064546,0.031858,-0.149680,0.270989,0.295924,0.452366,0.646228,0.538686,104.232029,-6.021252,114.701593
44792,NaN,0.667367,9.447775,-2.130141,0.387267,-0.221420,-0.115044,0.013381,-0.166550,0.273975,0.295697,0.453752,0.645384,0.538658,104.255136,-6.151515,114.565895
44793,NaN,1.155990,9.349023,-2.255645,0.063990,0.146990,-0.127506,0.041165,-0.179618,0.293120,0.295394,0.455280,0.644548,0.538535,104.296002,-6.290871,114.419525
44794,NaN,0.938512,9.498865,-2.029477,0.408996,0.027984,-0.062821,0.082266,-0.168200,0.308510,0.294923,0.456884,0.643802,0.538328,104.359951,-6.439963,114.277097
44795,NaN,1.106464,9.524571,-2.117350,0.289743,0.122139,0.001891,0.038486,-0.188632,0.322850,0.294574,0.458525,0.642874,0.538233,104.401126,-6.594270,114.121093
44796,NaN,0.945812,9.418222,-2.446468,0.057051,-0.184175,-0.037953,0.056789,-0.204525,0.339453,0.294188,0.460280,0.641933,0.538069,104.454040,-6.755139,113.954420
44797,NaN,0.776473,9.359968,-2.374834,0.191456,-0.328588,-0.132447,0.078159,-0.226950,0.339850,0.293823,0.462133,0.641011,0.537779,104.521690,-6.913094,113.774161
44798,NaN,0.955597,9.478505,-2.433840,0.121453,-0.210903,0.016835,0.085080,-0.224531,0.326035,0.293473,0.463942,0.640138,0.537451,104.592996,-7.063300,113.596904
44799,NaN,1.669406,9.561903,-2.339087,-0.033546,0.459104,0.161092,0.101698,-0.233774,0.310552,0.293152,0.465751,0.639332,0.537023,104.675075,-7.203569,113.416585
44800,NaN,1.766798,9.638951,-2.502281,-0.170017,0.462800,0.289254,0.083966,-0.220881,0.301483,0.292857,0.467464,0.638515,0.536667,104.745946,-7.340016,113.244707
44801,NaN,1.870032,9.394742,-2.495180,-0.252768,0.547092,0.067640,0.065378,-0.175453,0.264557,0.292555,0.468912,0.637799,0.536419,104.803040,-7.462884,113.103294
44802,NaN,2.081557,9.343056,-2.507868,-0.342207,0.722873,0.050136,0.094792,-0.129512,0.208985,0.292191,0.470104,0.637355,0.536103,104.872533,-7.561470,112.995012
44803,NaN,2.094799,9.466594,-2.416934,-0.213842,0.760541,0.148335,0.104347,-0.086217,0.174047,0.291754,0.471080,0.637084,0.535806,104.944121,-7.647052,112.916549
44804,NaN,1.926596,9.479501,-2.442025,-0.151204,0.588618,0.145568,0.084225,-0.049898,0.134766,0.291353,0.471796,0.636906,0.535606,105.000264,-7.716045,112.865085
44805,NaN,1.807924,9.422017,-2.385031,-0.058730,0.498234,0.060492,0.085926,-0.020227,0.106436,0.290931,0.472352,0.636840,0.535423,105.055183,-7.773854,112.833406
44806,NaN,1.377151,9.460120,-2.517533,0.014595,0.045406,0.072964,0.095981,-0.018450,0.093495,0.290517,0.472874,0.636833,0.535195,105.115186,-7.824392,112.804472
44807,NaN,1.220921,9.409401,-2.596052,0.002830,-0.131891,0.023447,0.079317,-0.022431,0.078275,0.290193,0.473336,0.636812,0.534987,105.165977,-7.866235,112.775695
44808,NaN,1.353623,9.260906,-2.563148,-0.051621,0.002949,-0.108888,0.092010,-0.020692,0.072521,0.289852,0.473794,0.636839,0.534735,105.223444,-7.904956,112.748385
44809,NaN,1.367486,9.265399,-2.407880,0.093136,0.076407,-0.143096,0.118460,-0.010106,0.078216,0.289395,0.474279,0.636940,0.534431,105.295766,-7.948566,112.726402
44810,NaN,1.324487,9.380249,-2.296699,0.254876,0.077882,-0.068606,0.121748,-0.007870,0.075047,0.288935,0.474752,0.637059,0.534119,105.369365,-7.990621,112.706013
44811,NaN,1.309968,9.454040,-2.343389,0.255535,0.041754,0.011737,0.114373,-0.002777,0.081057,0.288456,0.475220,0.637153,0.533849,105.438886,-8.036861,112.687565
44812,NaN,1.177498,9.450870,-2.484307,0.195282,-0.140244,0.026998,0.096580,-0.005947,0.097205,0.287988,0.475718,0.637155,0.533655,105.498326,-8.091477,112.665254
44813,NaN,1.021984,9.481405,-2.519211,0.245331,-0.303169,0.043062,0.070895,-0.001736,0.112564,0.287525,0.476221,0.637059,0.533572,105.543593,-8.155233,112.642407
44814,NaN,1.083907,9.381727,-2.715262,0.029264,-0.332429,0.008358,0.014998,-0.023165,0.127007,0.287227,0.476742,0.636748,0.533638,105.558377,-8.223359,112.605721
44815,NaN,1.072825,9.225844,-2.970577,-0.230096,-0.452885,-0.074443,0.005811,-0.034963,0.145552,0.286937,0.477344,0.636351,0.533729,105.569815,-8.300196,112.559161
44816,NaN,1.374616,9.176472,-2.947019,-0.331328,-0.177321,-0.084332,0.029388,-0.028600,0.151405,0.286556,0.477977,0.636012,0.533772,105.593915,-8.381017,112.515758
44817,NaN,1.510615,9.321861,-2.867424,-0.258990,-0.035805,0.053051,0.054916,-0.006060,0.157096,0.286025,0.478609,0.635759,0.533792,105.631532,-8.468642,112.483436
44818,NaN,1.382220,9.537497,-2.662441,0.046663,-0.087461,0.184969,0.072619,0.007115,0.154962,0.285418,0.479221,0.635576,0.533786,105.677784,-8.556992,112.458852
44819,NaN,1.555236,9.620523,-2.705714,-0.018818,0.039259,0.301273,0.052102,-0.001060,0.153338,0.284888,0.479823,0.635331,0.533820,105.713403,-8.643274,112.429766
44820,NaN,1.546699,9.488826,-2.691320,-0.032052,0.029457,0.170868,0.044353,-0.008332,0.158328,0.284394,0.480451,0.635038,0.533866,105.745108,-8.730807,112.394919
44821,NaN,1.600669,9.412518,-2.726943,-0.095239,0.055804,0.116142,0.065381,-0.018343,0.147368,0.283902,0.481099,0.634817,0.533808,105.789767,-8.811070,112.357008
44822,NaN,1.697146,9.386114,-2.747191,-0.145042,0.127803,0.111480,0.070500,-0.030872,0.130390,0.283489,0.481736,0.634628,0.533678,105.837858,-8.879858,112.313897
44823,NaN,1.750067,9.410524,-2.668066,-0.076126,0.200740,0.121756,0.076580,-0.034785,0.105821,0.283133,0.482310,0.634513,0.533484,105.889447,-8.934584,112.273250
44824,NaN,1.696495,9.454322,-2.654243,-0.018775,0.151207,0.151452,0.080603,-0.029657,0.087044,0.282802,0.482817,0.634459,0.533266,105.942128,-8.979841,112.238339
44825,NaN,1.784000,9.518237,-2.579832,0.044383,0.255986,0.205672,0.079276,-0.019592,0.064456,0.282502,0.483223,0.634471,0.533042,105.992984,-9.014104,112.212655
44826,NaN,1.859417,9.581403,-2.616527,0.014009,0.305730,0.287474,0.078646,-0.000355,0.054850,0.282165,0.483539,0.634534,0.532859,106.040974,-9.046168,112.200258
44827,NaN,1.792558,9.513734,-2.738464,-0.079923,0.195928,0.246081,0.059839,0.008165,0.040631,0.281887,0.483768,0.634592,0.532730,106.077691,-9.071671,112.193815
44828,NaN,1.689867,9.479873,-2.867020,-0.157149,0.050062,0.233020,0.063405,0.023323,0.026021,0.281592,0.483912,0.634714,0.532609,106.114256,-9.091540,112.198476
44829,NaN,1.658254,9.562938,-2.966618,-0.198987,-0.022545,0.334248,0.067558,0.042494,0.013798,0.281257,0.483976,0.634905,0.532501,106.151696,-9.107732,112.215460
44830,NaN,1.782982,9.606297,-2.861112,-0.133438,0.132017,0.366246,0.057412,0.064914,0.007143,0.280897,0.483942,0.635115,0.532471,106.180761,-9.123745,112.245957
44831,NaN,1.868106,9.641989,-2.765554,-0.066127,0.245747,0.387377,0.035406,0.096614,0.001635,0.280501,0.483777,0.635326,0.532578,106.194672,-9.141905,112.295056
44832,NaN,1.770284,9.517356,-2.696186,-0.005977,0.186465,0.234630,0.025984,0.135190,-0.008871,0.280030,0.483455,0.635593,0.532800,106.198853,-9.160414,112.368565
44833,NaN,1.757798,9.421065,-2.581140,0.070173,0.222632,0.109717,0.030694,0.163810,-0.017913,0.279484,0.483042,0.635932,0.533057,106.203560,-9.178572,112.458281
44834,NaN,1.634353,9.494846,-2.469504,0.239426,0.151156,0.129218,0.048881,0.181103,-0.027468,0.278870,0.482580,0.636363,0.533283,106.216637,-9.193979,112.558427
44835,NaN,1.493876,9.474285,-2.532729,0.234013,-0.003288,0.104655,0.043681,0.162962,-0.024025,0.278311,0.482167,0.636750,0.533487,106.228653,-9.208672,112.648663
44836,NaN,1.524050,9.428688,-2.547311,0.198378,0.018868,0.070226,0.047146,0.148201,-0.024348,0.277795,0.481796,0.637123,0.533644,106.243609,-9.220606,112.730499
44837,NaN,1.570112,9.316062,-2.760214,-0.036870,-0.023762,0.029625,0.041389,0.134924,-0.027330,0.277339,0.481444,0.637472,0.533783,106.256694,-9.229028,112.805645
44838,NaN,1.580548,9.184495,-2.750644,-0.071095,-0.006430,-0.095999,0.056714,0.144732,-0.024642,0.276813,0.481096,0.637866,0.533900,106.277449,-9.240315,112.885402
44839,NaN,1.365351,9.218283,-2.853639,-0.062234,-0.246711,-0.070027,0.066382,0.149578,-0.016571,0.276221,0.480773,0.638274,0.534008,106.303793,-9.257062,112.966960
44840,NaN,1.331059,9.228751,-2.796266,0.009947,-0.255497,-0.081537,0.072994,0.150162,-0.008304,0.275592,0.480482,0.638681,0.534109,106.333754,-9.278254,113.047428
44841,NaN,1.289823,9.420605,-2.694055,0.182925,-0.258598,0.065016,0.081032,0.156109,0.014156,0.274862,0.480260,0.639063,0.534228,106.368651,-9.313032,113.127596
44842,NaN,1.209695,9.501487,-2.575553,0.350497,-0.289396,0.095314,0.062215,0.166844,0.055322,0.274037,0.480117,0.639306,0.534489,106.392592,-9.372244,113.206242
44843,NaN,1.085313,9.490410,-2.621870,0.364191,-0.430095,0.076820,0.059525,0.170083,0.088688,0.273114,0.480065,0.639470,0.534812,106.415733,-9.450322,113.281965
44844,NaN,1.009045,9.529065,-2.652446,0.391328,-0.525205,0.108387,0.078771,0.161207,0.135172,0.272051,0.480208,0.639561,0.535118,106.451396,-9.552371,113.345367
44845,NaN,0.988559,9.598416,-2.630577,0.455408,-0.552016,0.163014,0.088485,0.147114,0.185989,0.270871,0.480566,0.639536,0.535424,106.495688,-9.680268,113.392205
44846,NaN,1.032073,9.658401,-2.736583,0.384201,-0.579482,0.254849,0.089801,0.149937,0.245232,0.269523,0.481106,0.639373,0.535813,106.541671,-9.841025,113.430703
44847,NaN,1.140868,9.699710,-2.734166,0.377343,-0.506964,0.309670,0.088162,0.168491,0.302172,0.267963,0.481776,0.639094,0.536327,106.586815,-10.036293,113.470033
44848,NaN,1.122071,9.590765,-2.780997,0.329716,-0.571238,0.214307,0.057824,0.191320,0.359674,0.266248,0.482523,0.638622,0.537071,106.613348,-10.266920,113.512906
44849,NaN,1.000447,9.490177,-2.914764,0.251178,-0.771599,0.132239,0.052817,0.207543,0.415235,0.264343,0.483398,0.638022,0.537938,106.637424,-10.530703,113.555033
44850,NaN,0.925602,9.552264,-2.863220,0.369321,-0.861677,0.158342,0.059522,0.206093,0.461542,0.262303,0.484428,0.637322,0.538839,106.666321,-10.819434,113.588659
44851,NaN,1.097722,9.620095,-2.769570,0.431089,-0.716205,0.223382,0.057686,0.198540,0.523605,0.260119,0.485672,0.636453,0.539804,106.697218,-11.141255,113.607414
44852,NaN,1.130207,9.730772,-2.630777,0.603786,-0.683472,0.289504,0.075187,0.185434,0.565107,0.257822,0.487098,0.635508,0.540734,106.740321,-11.483411,113.612234
44853,NaN,1.251404,9.875173,-2.537356,0.718399,-0.596472,0.417220,0.090729,0.159479,0.614549,0.255432,0.488771,0.634444,0.541606,106.797551,-11.848694,113.593303
44854,NaN,1.521884,9.910695,-2.455757,0.730106,-0.378751,0.477688,0.079319,0.147396,0.664002,0.252974,0.490610,0.633207,0.542545,106.851207,-12.238790,113.559178
44855,NaN,1.558820,9.881072,-2.529271,0.681210,-0.438134,0.473528,0.099980,0.148622,0.707703,0.250337,0.492608,0.631912,0.543467,106.918900,-12.653300,113.517462
44856,NaN,1.658690,9.929329,-2.636477,0.610040,-0.465531,0.565387,0.116897,0.170756,0.748829,0.247476,0.494685,0.630580,0.544436,106.995018,-13.093588,113.480854
44857,NaN,1.611169,10.062679,-2.776776,0.603309,-0.651124,0.712295,0.154806,0.221184,0.785874,0.244255,0.496786,0.629311,0.545445,107.088746,-13.562992,113.465185
44858,NaN,1.469571,10.391529,-2.968409,0.666287,-0.967297,1.030494,0.187699,0.291371,0.824526,0.240624,0.498846,0.628108,0.546564,107.193355,-14.065270,113.481380
44859,NaN,1.403461,10.524519,-2.873022,0.879905,-1.079545,1.098263,0.204114,0.371606,0.893133,0.236504,0.500912,0.626864,0.547900,107.299663,-14.618860,113.530064
44860,NaN,0.887314,10.720237,-2.903984,1.189485,-1.662937,1.140053,0.216481,0.421702,0.964556,0.231996,0.503061,0.625517,0.549396,107.408198,-15.219928,113.594074
44861,NaN,-0.002721,11.317377,-2.836212,1.884579,-2.583831,1.407734,0.227406,0.364205,1.044698,0.227411,0.505621,0.623913,0.550786,107.535776,-15.855260,113.609509
44862,NaN,1.024336,10.903619,-3.001819,1.268456,-1.811871,1.325339,0.243874,0.362602,1.132655,0.222548,0.508459,0.622107,0.552200,107.677330,-16.537664,113.606297
44863,NaN,1.152024,11.547108,-2.262846,2.174855,-1.557316,1.703649,0.324617,0.416003,1.248473,0.216976,0.511580,0.620264,0.553606,107.863468,-17.293307,113.610676
44864,NaN,1.018973,11.735751,-2.200686,2.448296,-1.800710,1.779118,0.284881,0.452219,1.363941,0.211075,0.514891,0.618024,0.555320,108.027729,-18.117053,113.611006
44865,NaN,0.610033,12.407007,-2.741478,2.530637,-2.655539,2.367717,0.352993,0.460547,1.483538,0.204617,0.518590,0.615638,0.556944,108.237529,-19.008644,113.591756
44866,NaN,-0.477305,14.093211,-4.194130,2.564099,-4.722484,3.882391,0.448803,0.458676,1.627238,0.197512,0.522802,0.613098,0.558371,108.513442,-19.977212,113.538524
44867,NaN,-0.956610,15.081829,-4.413624,3.137860,-5.611208,4.558026,0.417544,0.481762,1.798585,0.189912,0.527395,0.609997,0.560082,108.781208,-21.043522,113.461164
44868,NaN,-0.635212,15.178689,-4.105312,3.480928,-5.432951,4.540270,0.388281,0.549008,1.911369,0.181870,0.532072,0.606521,0.562100,109.030143,-22.181332,113.392601
44869,NaN,-1.079820,15.158464,-3.678376,4.162740,-5.839977,4.080899,0.476233,0.656141,2.065671,0.172795,0.536928,0.602910,0.564225,109.320484,-23.424284,113.351190
44870,NaN,-2.298913,15.126291,-3.070040,5.280461,-6.804020,3.199802,0.580269,0.745029,2.245794,0.162666,0.542106,0.599103,0.566336,109.669720,-24.779083,113.313310
44871,NaN,-2.943139,15.227290,-2.411798,6.302873,-7.273896,2.584873,0.740671,0.794134,2.381993,0.151519,0.547584,0.595326,0.568137,110.115114,-26.218785,113.267832
44872,NaN,-2.461111,15.584199,-1.446622,7.310805,-6.712663,2.536110,0.842854,0.934230,2.572304,0.139143,0.553232,0.591311,0.570022,110.610550,-27.785091,113.244123
44873,NaN,-1.482120,15.543880,-1.426110,7.211375,-6.155378,2.674604,0.768667,1.308533,2.695107,0.125448,0.557975,0.586874,0.573154,110.971454,-29.496308,113.413015
44874,NaN,-0.507162,14.751349,-1.602098,6.572405,-5.523860,2.299294,0.699444,1.869338,2.723177,0.110227,0.561012,0.582373,0.577890,111.121037,-31.333594,113.913122
44875,NaN,0.766358,14.093505,-0.765835,6.661121,-4.142365,1.945624,0.747137,2.339114,2.609555,0.093760,0.562209,0.578397,0.583599,111.103968,-33.212616,114.749416
44876,NaN,5.046395,15.108394,-1.254816,5.523853,-1.789960,5.072673,0.546193,2.742753,2.270138,0.077704,0.560979,0.574823,0.590630,110.746796,-34.982780,115.950345
44877,NaN,6.779736,13.708865,-2.246467,3.496699,-1.039531,5.207968,0.046137,3.064879,2.209683,0.062223,0.558232,0.569840,0.599823,109.904730,-36.781598,117.434313
44878,NaN,7.478994,13.822699,-2.284292,3.348957,-1.037778,5.676407,0.182966,2.958894,2.078908,0.047058,0.555267,0.565415,0.608087,109.087399,-38.468634,118.945355
44879,NaN,7.531525,15.364060,-1.856343,4.625377,-1.709907,6.676357,0.128826,2.489303,2.261166,0.032778,0.554078,0.560027,0.615055,108.401202,-40.155499,120.147065
44880,NaN,4.996715,13.173424,-3.212495,3.487780,-3.868707,3.666150,-0.222830,1.806603,2.600826,0.020355,0.555718,0.552366,0.621011,107.824275,-41.891836,120.832140
44881,NaN,-0.327665,9.053231,-5.645353,1.469397,-7.561319,-2.423518,-0.216489,1.100829,2.235439,0.010969,0.558443,0.545544,0.624822,107.510571,-43.305373,121.114419
44882,NaN,-5.563529,6.477693,-5.564926,2.011714,-9.824592,-7.993355,-0.012035,0.629199,1.519874,0.004560,0.560622,0.541286,0.626651,107.428783,-44.242155,121.223510
44883,NaN,-8.597147,4.665840,-2.442317,4.275516,-8.826883,-12.147444,0.003166,0.590608,0.862220,0.000245,0.561132,0.538878,0.628284,107.263551,-44.816331,121.463735
44884,NaN,-6.077210,2.318664,-0.698713,3.167224,-5.109520,-12.393041,-0.423444,0.740658,0.301491,-0.001485,0.559629,0.536708,0.631472,106.670427,-45.102809,121.960778
44885,NaN,-3.807106,-0.264536,-3.230133,-0.995265,-4.359562,-12.049037,-0.213770,0.970219,-0.211171,-0.002830,0.556028,0.536604,0.634730,105.983858,-45.144786,122.758796
44886,NaN,-3.462018,0.820868,-2.864142,-0.161137,-4.362652,-11.155641,0.496958,1.390736,-0.845115,-0.005235,0.549337,0.540504,0.637226,105.374735,-44.891181,124.023716
44887,NaN,-4.670981,3.838275,-1.010530,3.508005,-5.005423,-10.270553,0.786488,1.747454,-1.384744,-0.007711,0.540004,0.546724,0.639867,104.673099,-44.386313,125.665604
44888,NaN,-5.428677,6.336211,1.037044,6.819026,-4.896769,-9.351770,0.614766,1.786324,-1.776486,-0.008542,0.529381,0.553387,0.642997,103.829666,-43.648771,127.387799
44889,NaN,-5.350827,7.274772,2.524578,8.407630,-4.010312,-8.739387,0.181348,1.406556,-2.026720,-0.006403,0.519239,0.559227,0.646232,102.951001,-42.707726,128.825731
44890,NaN,-4.976160,6.487296,2.280407,7.633222,-3.577926,-8.824506,-0.107559,0.755873,-2.216498,-0.001045,0.510582,0.564588,0.648495,102.261111,-41.559637,129.763870
44891,NaN,-4.464581,5.708873,1.552029,6.460067,-3.477032,-8.760244,-0.002051,0.060538,-2.455155,0.006746,0.503453,0.570801,0.648595,101.980054,-40.193706,130.193677
44892,NaN,-3.492259,6.305815,1.061336,5.976283,-3.423061,-7.435839,0.238228,-0.464662,-2.669196,0.016161,0.497317,0.578241,0.646570,102.073041,-38.638896,130.263885
44893,NaN,-2.427988,7.319466,1.026247,5.927461,-3.067395,-5.815779,0.225577,-0.772170,-2.915380,0.027251,0.491382,0.586085,0.643665,102.269281,-36.914908,130.156869
44894,NaN,-1.572412,7.688126,0.659946,5.356871,-2.810432,-4.771289,0.129072,-0.915931,-3.200277,0.039950,0.484913,0.594174,0.640485,102.434419,-35.007555,130.003209
44895,NaN,-1.116572,7.863709,0.163451,4.762848,-2.791144,-4.100418,0.065466,-0.998391,-3.439202,0.053761,0.477865,0.602421,0.637059,102.565233,-32.962041,129.838862
44896,NaN,-1.110490,7.884237,-0.431282,4.232973,-3.053822,-3.785314,0.028883,-1.097001,-3.645738,0.068638,0.470309,0.610834,0.633229,102.682537,-30.782118,129.649566
44897,NaN,-1.073125,8.264719,-0.910313,3.916874,-3.274157,-3.163263,0.050466,-1.251389,-3.802762,0.084364,0.462618,0.619378,0.628680,102.839403,-28.500824,129.393785
44898,NaN,-0.884625,8.813531,-1.485840,3.489053,-3.447695,-2.289595,0.010134,-1.419997,-3.974996,0.101256,0.454682,0.627880,0.623521,102.994444,-26.094615,129.069879
44899,NaN,-0.488055,9.033143,-2.198741,2.649705,-3.446682,-1.581305,-0.062197,-1.544652,-4.175522,0.119236,0.446283,0.636233,0.617917,103.111159,-23.566206,128.710535
44900,NaN,-0.104526,9.461797,-2.600110,2.078472,-3.212541,-0.777229,-0.024476,-1.617891,-4.346524,0.137878,0.437328,0.644731,0.611601,103.236368,-20.925402,128.344286
44901,NaN,0.263811,10.688113,-2.646937,2.033862,-2.775390,0.649125,0.025392,-1.669639,-4.471816,0.156838,0.427950,0.653243,0.604594,103.375220,-18.213889,127.977530
44902,NaN,0.719846,12.144644,-2.568748,2.033985,-2.095927,2.272397,0.008332,-1.737825,-4.542112,0.176226,0.418254,0.661440,0.597081,103.491764,-15.446460,127.593157
44903,NaN,1.279363,13.100077,-2.739310,1.534279,-1.352493,3.473917,-0.106319,-1.801786,-4.581817,0.196031,0.408300,0.668906,0.589430,103.531071,-12.654750,127.186259
44904,NaN,1.627421,13.655960,-3.143422,0.795285,-0.823461,4.246638,-0.134899,-1.840122,-4.593236,0.215984,0.398109,0.675882,0.581415,103.536307,-9.844398,126.764884
44905,NaN,2.700969,14.533021,-3.884186,-0.579531,0.149568,5.457718,-0.123759,-1.757980,-4.633552,0.235575,0.387346,0.682629,0.573137,103.520598,-7.029625,126.398358
44906,NaN,4.646817,16.118256,-4.707438,-2.420227,1.924380,7.331665,-0.080525,-1.526341,-4.690804,0.254359,0.375502,0.689479,0.564729,103.496995,-4.207133,126.170513
44907,NaN,7.603735,17.961716,-5.171756,-4.634063,4.880641,9.208676,-0.224720,-1.060951,-4.724725,0.271706,0.361854,0.696152,0.557324,103.367995,-1.434945,126.203818
44908,NaN,10.264133,17.660436,-5.514472,-7.163542,7.436299,8.652221,-0.741793,-0.384864,-4.736375,0.287554,0.345335,0.701929,0.552587,102.942594,1.262370,126.602324
44909,NaN,11.603619,15.374443,-7.047738,-10.217342,7.731732,6.201061,-1.016521,0.383927,-4.660045,0.300759,0.326400,0.707506,0.549947,102.396794,3.817056,127.398965
44910,NaN,11.701789,13.651583,-8.894948,-12.557535,6.672768,4.334610,-0.645721,1.044587,-4.473261,0.310379,0.306655,0.714408,0.547036,102.125940,6.198444,128.527956
44911,NaN,12.882503,13.156462,-9.261002,-14.132799,7.372706,3.251848,-0.269141,1.534498,-4.075438,0.316389,0.287452,0.722121,0.543885,102.144323,8.294461,129.884861
44912,NaN,15.917788,12.301472,-7.583058,-15.293483,10.440142,1.108690,-0.108022,1.907334,-3.473599,0.319079,0.269510,0.729692,0.541389,102.322980,10.011134,131.389337
44913,NaN,17.197034,11.305991,-4.587521,-14.345249,12.815745,-1.178716,0.011865,1.997796,-2.830182,0.319394,0.253797,0.736605,0.539432,102.607160,11.345386,132.878474
44914,NaN,15.336435,9.760924,-2.615244,-12.051640,12.117148,-3.086918,0.008660,1.693646,-2.255264,0.319228,0.240931,0.742119,0.537871,102.871674,12.393889,134.132418
44915,NaN,14.214875,10.462380,-1.995933,-11.068730,11.854392,-2.569877,0.717275,1.265937,-1.562488,0.317858,0.232901,0.747899,0.534201,103.489028,13.098118,135.061329
44916,NaN,15.517624,11.840273,2.830347,-8.613733,16.313756,-2.836946,0.542276,0.847612,-0.867856,0.316394,0.228273,0.751684,0.531749,103.939646,13.467251,135.662809
44917,NaN,18.134912,11.149460,3.228871,-10.238907,18.109587,-4.261242,0.105510,0.331267,0.050111,0.314903,0.227788,0.752421,0.531800,104.042798,13.391509,135.840546
44918,NaN,19.084960,10.154886,2.617055,-11.330405,18.009407,-5.177344,-0.112528,-0.092840,0.880025,0.313058,0.231196,0.750959,0.533483,103.938174,12.915260,135.657875
44919,NaN,18.250678,9.415517,-2.215642,-14.087600,14.071959,-4.321147,-0.238349,-0.844759,1.688453,0.311995,0.239446,0.747005,0.536011,103.646689,12.089114,134.935721
44920,NaN,11.614903,9.246608,-18.725686,-21.319674,-1.099718,0.925386,-0.126229,-2.186564,2.245338,0.314271,0.253501,0.740466,0.537290,103.262887,11.128338,133.381820
44921,NaN,-7.949363,12.399399,-44.757599,-27.595791,-30.082259,13.715938,1.264414,-3.211846,2.644980,0.317386,0.273888,0.735278,0.532558,103.587021,10.079382,131.198428
44922,NaN,-24.171019,14.793355,-13.854066,6.532219,-22.019937,11.806901,4.428685,0.509528,1.712525,0.304806,0.285815,0.745320,0.519520,106.131770,9.055008,131.225160
44923,NaN,7.406752,32.525432,42.378775,30.776011,40.783598,7.450610,3.439354,1.777878,1.499216,0.289313,0.292003,0.754649,0.511407,108.210685,7.931866,131.948236
44924,NaN,22.847040,34.886444,16.058594,1.568234,36.610624,15.755938,-4.851374,-0.968122,2.097801,0.294594,0.295306,0.737503,0.531130,105.317451,6.940304,131.058628
44925,NaN,15.450107,8.078863,-12.012126,-18.141469,6.064923,-0.738664,-4.102816,1.039524,2.855068,0.289147,0.296974,0.723673,0.551813,102.986380,5.206635,131.232806
44926,NaN,0.908918,-4.329424,7.203798,4.244981,4.352396,-15.686186,-0.688800,1.597576,1.845459,0.279280,0.298265,0.721272,0.559292,102.645384,3.970278,131.888569
44927,NaN,-6.486055,1.097450,3.952063,7.371806,-2.052524,-9.235101,2.065456,0.811915,0.880950,0.270793,0.302075,0.726806,0.554233,103.851585,3.370314,132.222058
44928,NaN,-8.682959,20.236862,0.714263,9.319347,-1.835147,10.067097,1.556100,-0.270540,0.921851,0.266867,0.308308,0.729317,0.549386,104.728503,2.894748,131.936673
44929,NaN,-0.996527,13.003012,-5.532543,-1.360941,-1.668011,4.188852,-1.048936,-1.476739,1.273540,0.270360,0.315630,0.722447,0.552587,104.082448,2.396530,130.930202
44930,NaN,4.482616,2.871320,-5.588467,-6.607187,0.453542,-5.849322,-0.550387,-1.415810,1.430221,0.272384,0.323985,0.716703,0.554235,103.731735,1.794239,129.940811
44931,NaN,3.083964,5.843418,-4.268456,-4.197805,0.766325,-3.204605,0.448894,-0.941648,1.022570,0.272196,0.330901,0.714979,0.552467,103.971995,1.352549,129.272111
44932,NaN,3.394868,11.172186,-5.363004,-4.219226,1.273642,2.257095,0.636380,-0.350582,0.596091,0.270752,0.334902,0.715253,0.550407,104.331678,1.068462,128.989416
44933,NaN,6.679132,12.159980,-4.399842,-5.299107,4.555087,2.954629,0.190611,0.515764,0.533446,0.267123,0.335686,0.715566,0.551294,104.445483,0.697010,129.195366
44934,NaN,4.857666,10.166413,-3.931611,-4.142501,3.004049,0.968063,-0.239568,1.275549,0.350251,0.261994,0.333137,0.715993,0.554737,104.315153,0.318798,129.849128
44935,NaN,0.088394,8.385939,-2.637421,-0.443455,-0.225098,-1.035431,-0.048442,1.499523,0.145704,0.256299,0.329466,0.717549,0.557571,104.291231,0.023671,130.656675
44936,NaN,-2.932934,9.528725,-1.431985,2.672724,-1.591462,-0.232881,0.237216,1.106683,0.247564,0.251246,0.327610,0.719197,0.558841,104.427072,-0.273442,131.231417
44937,NaN,-2.411721,10.540491,-2.024146,2.146023,-1.423009,0.882402,0.109478,0.453096,0.327692,0.248526,0.327698,0.719523,0.559586,104.489829,-0.522025,131.431559
44938,NaN,0.199312,9.967466,-2.276175,0.155395,0.257259,0.408891,-0.064660,0.149601,0.288447,0.247290,0.328278,0.719042,0.560411,104.453511,-0.705748,131.468899
44939,NaN,1.438550,9.188060,-2.707559,-1.113154,0.762589,-0.221022,0.002703,0.150584,0.215512,0.246145,0.328674,0.718872,0.560901,104.455823,-0.848813,131.517261
44940,NaN,1.183465,9.490879,-2.883809,-0.992857,0.487489,0.115568,0.088940,0.290112,0.192475,0.244419,0.328702,0.719149,0.561284,104.505832,-0.999471,131.646288
44941,NaN,0.593182,9.796254,-3.272357,-0.798137,-0.177270,0.500326,0.020684,0.399247,0.181673,0.242443,0.328299,0.719385,0.562073,104.515503,-1.159511,131.837326
44942,NaN,0.205167,9.593109,-3.404918,-0.656582,-0.608984,0.329366,-0.062120,0.458607,0.162893,0.240440,0.327562,0.719485,0.563234,104.476171,-1.317996,132.064060
44943,NaN,-0.117149,9.279979,-3.186202,-0.330775,-0.778752,-0.036815,-0.046920,0.457017,0.154130,0.238443,0.326812,0.719639,0.564322,104.445178,-1.470854,132.291263
44944,NaN,-0.090970,9.550577,-2.884097,-0.061702,-0.542491,0.149323,-0.006430,0.388634,0.153103,0.236626,0.326299,0.719821,0.565150,104.437602,-1.613679,132.480736
44945,NaN,0.277600,9.690881,-2.798968,-0.206752,-0.215411,0.273702,-0.062389,0.362419,0.159318,0.234977,0.325814,0.719803,0.566140,104.398156,-1.755751,132.654827
44946,NaN,0.402813,9.426928,-2.712912,-0.273609,-0.130606,0.000423,-0.110961,0.373660,0.163684,0.233352,0.325256,0.719649,0.567328,104.330066,-1.902051,132.834699
44947,NaN,0.255906,9.258103,-2.660636,-0.160947,-0.254034,-0.181153,-0.081377,0.392288,0.168980,0.231598,0.324696,0.719590,0.568441,104.278315,-2.053370,133.024325
44948,NaN,-0.129553,9.606455,-2.400181,0.370393,-0.335189,0.077309,-0.027022,0.378757,0.185738,0.229753,0.324297,0.719638,0.569356,104.257380,-2.212333,133.204191
44949,NaN,-0.052598,9.970767,-2.253353,0.513171,-0.152634,0.395635,-0.042151,0.343894,0.234388,0.227921,0.324152,0.719523,0.570320,104.228473,-2.392950,133.357894
44950,NaN,0.003478,10.050705,-2.428719,0.388448,-0.247275,0.517037,-0.066766,0.332236,0.282058,0.226032,0.324184,0.719241,0.571407,104.185325,-2.598649,133.498555
44951,NaN,-0.249694,10.033298,-2.453015,0.562313,-0.483473,0.492487,-0.111185,0.327416,0.320237,0.224124,0.324314,0.718764,0.572684,104.116756,-2.824408,133.631392
44952,NaN,-0.448313,9.809360,-2.182265,0.859457,-0.512650,0.196566,-0.163324,0.290330,0.370567,0.222286,0.324672,0.718008,0.574144,104.018973,-3.073083,133.736943
44953,NaN,-0.109751,9.213063,-2.353801,0.400754,-0.505386,-0.324972,-0.169332,0.269521,0.428290,0.220368,0.325286,0.717115,0.575650,103.918531,-3.350490,133.823349
44954,NaN,-0.203270,9.367242,-2.306836,0.556196,-0.564116,-0.196023,-0.073863,0.262844,0.478146,0.218172,0.326203,0.716402,0.576855,103.872773,-3.654852,133.899560
44955,NaN,-0.152299,9.725802,-2.300858,0.635529,-0.521949,0.148828,-0.045377,0.251175,0.512279,0.215872,0.327302,0.715698,0.577970,103.843854,-3.976296,133.964778
44956,NaN,-0.068849,10.043568,-2.155688,0.783771,-0.371488,0.423150,-0.075723,0.230480,0.565039,0.213540,0.328616,0.714790,0.579213,103.798304,-4.324426,134.011468
44957,NaN,0.146097,9.827658,-2.227936,0.575043,-0.344822,0.243054,-0.124534,0.221245,0.632547,0.211125,0.330141,0.713614,0.580679,103.725798,-4.708611,134.044134
44958,NaN,0.112914,9.719768,-2.480577,0.440847,-0.612413,0.190815,-0.106456,0.220005,0.682154,0.208538,0.331862,0.712396,0.582126,103.663804,-5.120367,134.069848
44959,NaN,-0.006525,9.684643,-2.423933,0.599438,-0.721902,0.126470,-0.076893,0.213569,0.737464,0.205761,0.333825,0.711158,0.583505,103.619772,-5.561863,134.084832
44960,NaN,0.050949,10.023546,-2.269651,0.796070,-0.603230,0.416056,-0.044947,0.192630,0.795533,0.202831,0.336083,0.709882,0.584787,103.595663,-6.032978,134.080529
44961,NaN,0.133318,10.022022,-2.374250,0.723311,-0.684658,0.439295,-0.094588,0.142221,0.870947,0.199941,0.338699,0.708270,0.586225,103.547539,-6.539207,134.038049
44962,NaN,0.202913,9.943935,-2.436757,0.670827,-0.757473,0.377322,-0.093742,0.097410,0.915451,0.197073,0.341598,0.706526,0.587618,103.503707,-7.064313,133.964819
44963,NaN,0.490147,9.796894,-2.544914,0.421150,-0.712040,0.287355,-0.090586,0.085935,0.932414,0.194186,0.344586,0.704736,0.588982,103.463647,-7.597334,133.883132
44964,NaN,0.959105,10.030554,-2.228657,0.437615,-0.212504,0.495627,-0.010275,0.076563,0.954633,0.191124,0.347750,0.703118,0.590056,103.471278,-8.141512,133.793262
44965,NaN,1.356984,10.433138,-1.882978,0.576360,0.264788,0.856622,-0.016420,0.100878,0.971669,0.187932,0.350888,0.701460,0.591196,103.474811,-8.698415,133.714579
44966,NaN,0.964604,11.176222,-1.914401,1.099650,-0.069108,1.513760,0.071906,0.113318,0.915117,0.184705,0.353866,0.700157,0.591982,103.527229,-9.225424,133.650221
44967,NaN,1.363499,11.528048,-2.195151,0.814254,-0.039159,1.973240,-0.009826,0.156250,0.954078,0.181353,0.356770,0.698568,0.593152,103.530580,-9.779873,133.604418
44968,NaN,1.098013,11.780735,-2.187283,1.153186,-0.297715,2.160443,0.000849,0.231447,0.982852,0.177629,0.359552,0.697009,0.594431,103.533488,-10.360375,133.597183
44969,NaN,0.737282,11.733468,-2.357457,1.353532,-0.765683,2.076628,-0.023134,0.295309,1.010011,0.173640,0.362208,0.695369,0.595916,103.516978,-10.964620,133.622450
44970,NaN,0.309848,11.941846,-2.451939,1.730116,-1.224197,2.196568,0.013617,0.331390,1.062767,0.169298,0.364960,0.693753,0.597368,103.518325,-11.602955,133.661207
44971,NaN,0.148686,12.271211,-2.588730,1.946603,-1.527371,2.482933,0.037331,0.374778,1.135426,0.164538,0.367844,0.692090,0.598857,103.530067,-12.287712,133.714672
44972,NaN,-0.242818,12.854344,-2.728932,2.411867,-2.002756,2.950921,0.075801,0.414944,1.217000,0.159320,0.370905,0.690398,0.600331,103.560337,-13.023057,133.779810
44973,NaN,-0.591944,13.284256,-2.808883,2.857158,-2.419948,3.252126,0.058789,0.434906,1.297279,0.153815,0.374155,0.688491,0.601938,103.580299,-13.806086,133.845076
44974,NaN,-0.566995,13.479835,-2.520137,3.230855,-2.325697,3.322297,0.048047,0.470885,1.409158,0.147864,0.377652,0.686335,0.603705,103.591589,-14.655822,133.915576
44975,NaN,-1.061014,14.169910,-2.093354,4.231958,-2.508710,3.681267,0.174653,0.524140,1.518424,0.141150,0.381437,0.684353,0.605181,103.670801,-15.574105,134.001011
44976,NaN,-2.553523,15.690852,-1.523048,6.323565,-3.300799,4.475567,0.334825,0.484888,1.601570,0.134008,0.385707,0.682622,0.606052,103.850064,-16.532779,134.050274
44977,NaN,-4.625975,18.394686,-1.520912,8.917702,-4.938122,6.254607,0.581124,0.239488,1.595467,0.127232,0.390841,0.681434,0.605560,104.212831,-17.454897,133.953169
44978,NaN,-4.638845,19.439376,-1.593849,9.493024,-5.195078,7.064339,0.114521,-0.048369,1.573960,0.122414,0.396443,0.678647,0.606041,104.361201,-18.322757,133.686690
44979,NaN,-2.935950,15.065535,-4.439497,4.956760,-6.100502,4.097973,-0.746224,-0.026057,1.721814,0.118760,0.401929,0.672921,0.609530,104.023810,-19.277490,133.411291
44980,NaN,-2.978056,11.687649,-7.389781,1.825184,-8.264122,1.520693,-0.244935,0.487375,1.945309,0.111691,0.406852,0.668516,0.612440,103.884979,-20.426792,133.409256
44981,NaN,-3.120507,12.451511,-5.519784,3.627553,-7.222930,1.584986,0.440156,1.283552,1.925103,0.100604,0.409613,0.666611,0.614594,103.967702,-21.676375,133.884989
44982,NaN,-1.494110,13.062044,-3.828379,4.152185,-5.081901,2.205298,0.298868,1.953925,1.665148,0.088370,0.409303,0.665046,0.618366,103.790274,-22.870987,134.807590
44983,NaN,1.486095,12.533482,-3.478638,2.413436,-2.987860,2.702855,0.188382,2.575502,1.550688,0.074617,0.406572,0.663511,0.623606,103.369073,-24.083191,136.139259
44984,NaN,5.028369,13.681577,-3.894945,0.535377,-1.440949,5.196196,0.238162,2.855446,1.637239,0.059562,0.403161,0.661903,0.629125,102.872949,-25.367832,137.654296
44985,NaN,7.472584,17.360652,-4.022314,0.781066,-0.818457,9.477475,0.542821,2.533834,2.027404,0.043698,0.402046,0.660184,0.632935,102.619442,-26.823286,138.940821
44986,NaN,5.197455,21.980704,-2.916622,5.556280,-2.196794,12.163203,0.540746,1.514879,2.601510,0.029390,0.405937,0.656923,0.634668,102.660017,-28.467207,139.523876
44987,NaN,0.226624,20.934357,-3.950484,8.236491,-6.117330,8.858349,-0.379771,-0.097484,3.129450,0.020547,0.416456,0.649267,0.636077,102.698077,-30.206371,139.004999
44988,NaN,1.152733,14.912169,-6.234583,3.543203,-6.895117,4.416064,-1.060065,-1.028042,3.319310,0.015552,0.430347,0.638777,0.637592,102.692444,-31.931398,137.841340
44989,NaN,8.501588,11.161714,-7.038778,-3.296613,-2.960218,5.245989,-0.828708,-0.739856,3.122475,0.009741,0.442592,0.629268,0.638780,102.741287,-33.585373,136.876234
44990,NaN,11.175518,12.978131,-7.049713,-3.579052,-2.068317,8.240366,0.334725,0.031789,2.906356,-0.000364,0.451627,0.623847,0.637846,103.180869,-35.211139,136.439961
44991,NaN,9.766524,19.626497,-1.755238,4.527862,-0.424420,11.703609,0.510702,0.730451,2.777009,-0.012653,0.457948,0.619133,0.637807,103.448357,-36.857905,136.485109
44992,NaN,5.974733,19.427850,-0.349278,7.800437,-1.756701,8.876888,-0.745012,1.008893,2.639719,-0.022467,0.462924,0.610592,0.642163,102.857266,-38.461014,136.756000
44993,NaN,4.564087,14.922702,-0.787072,5.901979,-2.165162,4.491126,-1.126869,0.761214,2.568499,-0.030430,0.468435,0.600876,0.646986,102.128765,-39.994256,136.889183
44994,NaN,4.963685,12.904450,-0.922128,4.568626,-1.857496,3.136398,-0.772216,0.300352,2.599350,-0.037908,0.475368,0.592199,0.649530,101.812079,-41.485403,136.698272
44995,NaN,4.005655,13.667597,-0.871249,5.796319,-2.815786,2.917976,-0.526214,-0.338285,2.638037,-0.044223,0.484369,0.584226,0.649700,101.970364,-42.926683,136.016011
44996,NaN,2.880689,12.645091,-1.792912,5.399021,-4.045390,1.407352,-0.779400,-0.941704,2.372283,-0.047264,0.494506,0.576117,0.649091,102.301280,-44.140352,134.888796
44997,NaN,2.942654,10.351730,-2.479300,3.630060,-3.982410,-0.172962,-0.871406,-1.294285,2.099089,-0.048194,0.504952,0.568352,0.647825,102.780696,-45.155484,133.498202
44998,NaN,4.105913,7.920630,-2.277871,1.720409,-2.500548,-1.119604,-0.910695,-1.286281,1.809802,-0.048074,0.514462,0.561114,0.646660,103.234566,-45.997808,132.133398
44999,NaN,4.228900,5.922549,-2.445486,0.347548,-1.911692,-2.385393,-0.882654,-1.001634,1.530359,-0.047944,0.522214,0.554532,0.646133,103.533081,-46.720049,131.024056
45000,NaN,3.520281,4.778896,-1.980681,0.260072,-1.537307,-3.752807,-0.860133,-0.694830,1.171383,-0.047530,0.527913,0.548856,0.646379,103.629077,-47.276645,130.220077
45001,NaN,2.148259,3.470823,-1.801280,0.144982,-1.633103,-5.663215,-0.945246,-0.465761,0.787073,-0.046305,0.531826,0.543818,0.647518,103.491656,-47.654490,129.673515
45002,NaN,0.285841,1.738980,-1.667048,-0.086996,-1.813377,-8.203694,-0.959405,-0.404271,0.337948,-0.043724,0.534284,0.539912,0.648941,103.243936,-47.786969,129.266472
45003,NaN,-0.489596,0.370388,-1.527921,-0.551401,-1.547399,-9.698981,-0.820823,-0.422909,-0.073280,-0.040157,0.535667,0.537526,0.650011,103.029001,-47.693069,128.923352
45004,NaN,-0.915331,-0.351689,-0.949593,-0.455781,-1.035829,-10.575945,-0.755985,-0.443929,-0.512710,-0.035249,0.535893,0.536538,0.650925,102.799801,-47.347530,128.647950
45005,NaN,-0.621834,-0.365815,-0.822775,-0.507200,-0.780659,-10.387820,-0.584161,-0.450982,-0.816546,-0.029822,0.535300,0.536891,0.651393,102.631533,-46.836371,128.422660
45006,NaN,-0.102428,-0.083057,-0.461823,-0.315360,-0.357044,-9.873822,-0.541214,-0.432625,-1.070181,-0.023702,0.533922,0.538059,0.651811,102.440983,-46.181679,128.259039
45007,NaN,0.021929,-0.270284,-0.259102,-0.346217,-0.062589,-9.942622,-0.595407,-0.410448,-1.333197,-0.016668,0.531764,0.539706,0.652432,102.174461,-45.387360,128.156899
45008,NaN,-0.264099,-0.657270,0.011421,-0.264753,0.133582,-10.456063,-0.575575,-0.391461,-1.579938,-0.008903,0.528822,0.542053,0.653029,101.879890,-44.452974,128.108204
45009,NaN,-0.694295,-0.741755,0.269924,0.063381,0.102530,-10.856977,-0.490020,-0.445577,-1.839028,-0.000401,0.525325,0.545304,0.653205,101.638540,-43.371534,128.053417
45010,NaN,-0.827048,-0.572739,0.397552,0.322563,0.033288,-10.844620,-0.407981,-0.582233,-2.076991,0.009066,0.521549,0.549407,0.652730,101.490637,-42.136562,127.928129
45011,NaN,-0.970844,-0.548946,0.268808,0.328000,-0.171093,-10.898603,-0.352970,-0.790162,-2.300316,0.019658,0.517789,0.554170,0.651462,101.453897,-40.757044,127.680251
45012,NaN,-0.864014,-0.632229,-0.060016,0.018556,-0.327971,-10.833405,-0.237866,-1.012797,-2.509875,0.031278,0.514079,0.559752,0.649170,101.557885,-39.229916,127.307577
45013,NaN,-0.364738,-0.305982,-0.083697,-0.048323,-0.174678,-10.260798,-0.142892,-1.224131,-2.721163,0.043895,0.510393,0.566023,0.645903,101.775327,-37.563340,126.827996
45014,NaN,0.703769,0.245059,-0.583078,-0.625579,-0.028969,-9.103410,-0.025721,-1.393484,-2.880654,0.057226,0.506687,0.572921,0.641682,102.091621,-35.781172,126.274907
45015,NaN,1.582779,0.584026,-0.832681,-1.070495,0.299983,-8.295000,-0.006514,-1.464031,-3.021544,0.071118,0.502692,0.580048,0.637015,102.407319,-33.913502,125.718428
45016,NaN,2.666850,0.692771,-1.144619,-1.793773,0.852065,-7.586093,0.041445,-1.447770,-3.117585,0.085157,0.498219,0.587421,0.632031,102.707246,-31.987406,125.211837
45017,NaN,4.084532,1.046639,-1.372651,-2.521407,1.673496,-6.571838,0.142265,-1.352260,-3.164389,0.098758,0.493222,0.595082,0.626782,103.004433,-30.049471,124.796135
45018,NaN,5.347882,1.592536,-1.229881,-2.840257,2.637863,-5.615059,0.118169,-1.199346,-3.218100,0.112131,0.487409,0.602712,0.621769,103.214474,-28.095728,124.504446
45019,NaN,6.328670,2.075522,-0.981916,-2.996895,3.531628,-4.927402,0.149647,-1.090032,-3.167950,0.124881,0.481304,0.610193,0.616778,103.401255,-26.187649,124.286120
45020,NaN,7.221074,3.253610,-0.863205,-2.928584,4.169454,-3.688273,0.145986,-1.080599,-3.063894,0.137283,0.475335,0.617263,0.611716,103.578197,-24.334320,124.068835
45021,NaN,8.142992,3.960887,-0.823297,-3.161751,4.937586,-2.863468,0.008680,-1.134042,-2.915096,0.149660,0.469793,0.623354,0.606899,103.689596,-22.560013,123.804969
45022,NaN,8.641360,4.122748,-0.825585,-3.437355,5.489054,-2.713409,-0.078334,-1.277435,-2.725831,0.162103,0.465082,0.628492,0.602013,103.782272,-20.867583,123.434548
45023,NaN,9.363093,4.963906,-0.860645,-3.571594,6.111714,-1.879751,-0.093739,-1.543181,-2.497036,0.174668,0.461792,0.632688,0.596612,103.920069,-19.268807,122.880629
45024,NaN,10.640859,5.663650,-1.075170,-4.164163,7.141155,-0.974404,-0.202632,-1.832799,-2.200230,0.187500,0.460097,0.635493,0.591018,104.045191,-17.790677,122.122934
45025,NaN,11.766326,5.546325,-1.469430,-5.074704,8.094677,-0.863891,-0.260104,-2.088252,-1.840083,0.200153,0.460170,0.636927,0.585240,104.177430,-16.478443,121.173107
45026,NaN,12.741555,5.374658,-2.350537,-6.257983,8.691911,-0.755276,-0.248322,-2.228010,-1.501269,0.212213,0.461642,0.637359,0.579332,104.328831,-15.329915,120.102599
45027,NaN,13.613413,4.850905,-3.368888,-7.583344,9.197139,-0.975234,-0.258589,-2.168341,-1.218786,0.223233,0.463767,0.637061,0.573795,104.456074,-14.346644,119.032766
45028,NaN,14.067760,4.310076,-4.333138,-8.655041,9.392164,-1.320141,-0.206959,-1.946957,-0.956324,0.232659,0.466075,0.636463,0.568823,104.572848,-13.536810,118.057333
45029,NaN,14.251735,3.958931,-4.780566,-9.116380,9.583742,-1.647116,-0.229524,-1.607059,-0.665544,0.240192,0.468280,0.635454,0.564995,104.630777,-12.937605,117.236243
45030,NaN,15.558626,3.396617,-5.211922,-10.144304,10.731355,-1.894393,-0.457673,-1.250989,-0.357601,0.246252,0.470148,0.633467,0.563063,104.515281,-12.559973,116.573591
45031,NaN,43.417320,5.678850,-26.470892,-39.264966,25.136559,11.267055,-0.499842,-1.836473,-0.498500,0.254635,0.473139,0.630927,0.559671,104.437677,-12.022327,115.599484
45032,NaN,50.451141,8.816833,-27.949200,-41.633254,31.305605,16.464280,2.278801,-2.269901,1.762155,0.251426,0.487911,0.630122,0.549248,106.078381,-12.656808,114.038673
45033,NaN,-7.687107,20.926766,-1.734414,8.873308,-9.371800,8.447631,1.918974,-0.528410,1.856177,0.243289,0.497615,0.630127,0.544179,107.319216,-13.590254,113.422579
45034,NaN,-30.350506,20.813682,-3.137777,16.853037,-30.191850,3.172264,-0.059671,1.879297,0.095221,0.237234,0.492753,0.631967,0.549119,107.039884,-13.963988,114.460454
45035,NaN,-9.077107,10.343030,-2.792917,4.991939,-10.213392,-1.570228,-2.132773,1.256791,-1.081735,0.241466,0.483348,0.630197,0.557603,105.608342,-13.573393,115.346739
45036,NaN,17.535366,3.690388,-8.502809,-13.232723,11.069310,-0.026422,-0.073812,0.226978,-0.109808,0.241231,0.482320,0.630517,0.558232,105.534757,-13.549955,115.488329
45037,NaN,8.543577,11.323140,4.826288,4.409181,8.777346,1.501641,2.196119,1.045860,1.064880,0.229645,0.485402,0.635271,0.555049,106.694817,-14.304255,115.902407
45038,NaN,-2.998066,21.282222,9.235347,16.716301,0.009834,6.551114,0.848883,0.577363,0.496768,0.224360,0.486388,0.637058,0.554298,107.123850,-14.675634,116.139094
45039,NaN,3.562498,19.215793,2.911051,7.968319,2.776633,8.053667,-0.839391,-0.569006,0.130698,0.227849,0.487470,0.633754,0.555709,106.732821,-14.654112,115.789566
45040,NaN,6.791928,9.517111,-4.287593,-2.994319,2.942124,1.911914,-1.364827,-0.543484,0.297268,0.232061,0.488394,0.628583,0.559019,106.044078,-14.732273,115.426546
45041,NaN,1.402520,4.057234,-7.028445,-5.047765,-2.537320,-3.820260,-0.558133,-0.150034,0.202280,0.233329,0.488836,0.626339,0.560621,105.757059,-14.822031,115.303639
45042,NaN,-0.526492,4.866760,-5.881742,-3.022072,-3.756992,-3.870509,0.061521,-0.324634,-0.096629,0.234460,0.489556,0.626351,0.559507,105.838077,-14.720904,115.129589
45043,NaN,2.218315,6.541971,-4.117543,-2.068753,-0.665033,-2.069935,0.407245,-0.543752,-0.165353,0.235627,0.491071,0.627240,0.556686,106.145367,-14.545838,114.842468
45044,NaN,5.629928,9.525167,-2.583761,-1.066530,2.797463,1.148006,0.657385,-0.357650,-0.197855,0.235677,0.492258,0.629114,0.553492,106.567257,-14.382036,114.667763
45045,NaN,4.818812,11.968711,-0.872575,1.619374,2.693089,2.731517,0.339108,-0.033175,-0.214068,0.235539,0.492112,0.630525,0.552073,106.759774,-14.260871,114.680685
45046,NaN,2.908461,11.353100,-1.737991,1.440396,0.698813,1.926539,-0.121676,0.062327,-0.292225,0.236442,0.490917,0.630964,0.552250,106.671877,-14.113585,114.761043
45047,NaN,1.675581,9.577163,-2.847430,0.348070,-0.717947,0.286858,-0.070901,0.030789,-0.291104,0.237322,0.489866,0.631505,0.552187,106.617612,-13.960625,114.823134
45048,NaN,1.723994,9.504001,-2.660318,0.452325,-0.556381,0.180373,0.166449,-0.069597,-0.247986,0.237813,0.489514,0.632472,0.551181,106.714908,-13.815849,114.821188
45049,NaN,2.563401,10.072647,-2.385494,0.553235,0.294417,0.832826,0.237056,-0.160887,-0.214924,0.238333,0.489596,0.633445,0.549764,106.866122,-13.673105,114.762382
45050,NaN,2.914617,9.877642,-2.512669,0.242219,0.595220,0.768582,0.133621,-0.154521,-0.231543,0.239126,0.489487,0.634177,0.548671,106.956348,-13.523158,114.710369
45051,NaN,3.106850,9.268400,-3.078322,-0.527935,0.585012,0.405472,0.125725,-0.098441,-0.265892,0.239860,0.489101,0.635041,0.547695,107.033115,-13.362741,114.696117
45052,NaN,2.915034,9.258795,-3.414625,-0.734722,0.291860,0.446810,0.167297,-0.005761,-0.276800,0.240221,0.488480,0.636151,0.546803,107.121195,-13.212928,114.736164
45053,NaN,2.504778,9.418911,-3.530739,-0.606631,-0.107606,0.535079,0.138744,0.043626,-0.279448,0.240508,0.487675,0.637251,0.546114,107.186548,-13.069059,114.804608
45054,NaN,2.341958,8.977842,-3.459229,-0.642563,-0.160137,0.067297,0.061416,0.034042,-0.309868,0.241089,0.486709,0.638197,0.545614,107.207823,-12.907991,114.873030
45055,NaN,2.489810,8.784485,-3.312643,-0.658597,0.079127,-0.122495,0.064663,0.032399,-0.349914,0.241783,0.485619,0.639249,0.545046,107.229771,-12.723730,114.947507
45056,NaN,2.620957,9.159445,-3.076464,-0.391084,0.309873,0.186333,0.080704,0.076588,-0.385420,0.242386,0.484317,0.640479,0.544493,107.254459,-12.528610,115.052960
45057,NaN,2.548410,9.657685,-3.057205,-0.181124,0.256310,0.628250,0.056666,0.148853,-0.421040,0.242919,0.482668,0.641818,0.544143,107.255612,-12.325268,115.205071
45058,NaN,2.408370,10.090130,-2.840015,0.194995,0.241287,0.938140,0.041266,0.202805,-0.431122,0.243335,0.480823,0.643198,0.543960,107.241808,-12.126618,115.388997
45059,NaN,2.825296,10.306599,-2.801615,0.106227,0.646960,1.215792,-0.019218,0.226291,-0.418616,0.243792,0.478875,0.644412,0.544038,107.191638,-11.937636,115.583654
45060,NaN,2.450550,9.761693,-3.053225,-0.167612,0.251474,0.700473,-0.130093,0.241535,-0.423882,0.244471,0.476734,0.645349,0.544503,107.076772,-11.749148,115.787336
45061,NaN,2.399563,8.846158,-3.140486,-0.571564,0.231704,-0.143429,-0.105981,0.249007,-0.474475,0.245212,0.474431,0.646480,0.544839,106.973882,-11.532739,116.003343
45062,NaN,2.116104,9.060683,-3.271335,-0.513643,-0.062662,0.036557,-0.029392,0.242635,-0.500314,0.245854,0.472157,0.647865,0.544881,106.915692,-11.301909,116.219707
45063,NaN,2.118224,9.348829,-3.510845,-0.643071,-0.154972,0.374353,-0.051641,0.234848,-0.527036,0.246651,0.469783,0.649241,0.544935,106.845631,-11.053793,116.435806
45064,NaN,2.238359,9.416703,-3.506435,-0.701237,-0.018233,0.458017,-0.088713,0.254056,-0.549842,0.247526,0.467236,0.650584,0.545126,106.752695,-10.797157,116.665931
45065,NaN,2.148042,9.280349,-3.480236,-0.723260,-0.050707,0.302901,-0.136007,0.294235,-0.569264,0.248438,0.464450,0.651890,0.545531,106.628967,-10.534938,116.921056
45066,NaN,2.271243,9.151259,-3.439531,-0.828734,0.108010,0.189101,-0.146842,0.371695,-0.603786,0.249206,0.461325,0.653333,0.546106,106.491621,-10.266964,117.224328
45067,NaN,2.084177,9.132024,-3.199171,-0.593656,0.087170,0.067198,-0.129804,0.469648,-0.609199,0.249635,0.457926,0.654951,0.546833,106.355657,-10.010046,117.582282
45068,NaN,1.569061,9.437286,-3.112188,-0.224757,-0.300607,0.240620,-0.083046,0.565264,-0.583502,0.249561,0.454405,0.656743,0.547653,106.239811,-9.783013,117.988565
45069,NaN,0.944385,10.155522,-2.770290,0.550368,-0.658333,0.721286,0.004766,0.615278,-0.524656,0.248966,0.451038,0.658698,0.548360,106.172595,-9.594562,118.412605
45070,NaN,0.345074,10.689363,-2.400755,1.285589,-0.971619,1.029282,-0.035988,0.584626,-0.439220,0.248318,0.447984,0.660297,0.549233,106.088572,-9.448823,118.805278
45071,NaN,0.332387,10.346546,-2.088653,1.414429,-0.802895,0.621804,-0.130112,0.513083,-0.380934,0.247962,0.445191,0.661414,0.550319,105.959511,-9.322029,119.148250
45072,NaN,0.626694,9.227491,-2.114172,0.869956,-0.550047,-0.381378,-0.233361,0.440017,-0.296532,0.247837,0.442752,0.661959,0.551687,105.780821,-9.230417,119.436568
45073,NaN,0.905530,8.505100,-2.101804,0.494651,-0.301015,-1.024117,-0.130219,0.369799,-0.220721,0.247511,0.440877,0.662532,0.552646,105.669763,-9.167970,119.673428
45074,NaN,0.973549,8.596032,-1.897093,0.641999,-0.134592,-0.980460,-0.051295,0.314179,-0.176941,0.247068,0.439401,0.663152,0.553275,105.610235,-9.121713,119.872230
45075,NaN,0.921252,9.073256,-2.172772,0.581361,-0.317246,-0.460951,-0.031941,0.254433,-0.144469,0.246695,0.438217,0.663683,0.553745,105.567998,-9.083029,120.032505
45076,NaN,1.133982,9.029329,-2.870391,-0.112086,-0.496136,-0.284040,-0.048941,0.201775,-0.101266,0.246409,0.437304,0.664002,0.554211,105.521817,-9.060924,120.156592
45077,NaN,0.964431,8.869502,-2.723498,0.033042,-0.566730,-0.501761,-0.097630,0.182094,-0.091930,0.246274,0.436412,0.664144,0.554803,105.449743,-9.039898,120.268187
45078,NaN,1.115480,8.784253,-2.880573,-0.205008,-0.524030,-0.518149,-0.079203,0.191303,-0.065642,0.245990,0.435608,0.664287,0.555389,105.388105,-9.035573,120.380856
45079,NaN,1.082352,8.849169,-2.900749,-0.191942,-0.569235,-0.456794,-0.079816,0.220308,-0.023990,0.245500,0.434856,0.664376,0.556088,105.324533,-9.057634,120.503342
45080,NaN,0.885746,8.810993,-2.816436,-0.041872,-0.702799,-0.546903,-0.091070,0.224162,0.016862,0.244903,0.434219,0.664346,0.556885,105.255129,-9.103594,120.621775
45081,NaN,0.682745,8.731785,-2.626599,0.186488,-0.787491,-0.704762,-0.077569,0.180131,0.051613,0.244331,0.433832,0.664226,0.557581,105.198051,-9.161132,120.710321
45082,NaN,0.290054,9.045583,-2.797660,0.341777,-1.222944,-0.425398,-0.045465,0.106757,0.092935,0.243812,0.433830,0.664013,0.558063,105.166897,-9.231273,120.751545
45083,NaN,0.331006,9.361812,-2.827057,0.396696,-1.217389,-0.111867,-0.047983,0.023259,0.156985,0.243403,0.434266,0.663554,0.558448,105.143281,-9.323478,120.736303
45084,NaN,0.877533,9.596055,-2.649160,0.341842,-0.676158,0.152166,-0.035723,-0.034306,0.195322,0.243045,0.435008,0.662974,0.558715,105.133003,-9.429024,120.682995
45085,NaN,1.425300,9.815838,-2.494442,0.267497,-0.148264,0.410366,-0.018173,-0.042595,0.233749,0.242575,0.435918,0.662350,0.558950,105.134528,-9.553841,120.619207
45086,NaN,1.679152,10.093518,-2.226489,0.454796,0.186434,0.647440,-0.003569,0.008346,0.258193,0.241830,0.436787,0.661773,0.559278,105.140501,-9.700505,120.580247
45087,NaN,1.886453,10.295928,-1.912862,0.682298,0.502198,0.794200,0.004461,0.080136,0.280239,0.240773,0.437534,0.661257,0.559761,105.144823,-9.869393,120.578204
45088,NaN,1.957556,10.518011,-1.815232,0.811559,0.583304,0.992712,0.006217,0.151247,0.303436,0.239406,0.438162,0.660777,0.560421,105.143897,-10.062464,120.612561
45089,NaN,1.767596,10.668930,-1.924827,0.884280,0.329246,1.131030,0.010432,0.217221,0.333146,0.237733,0.438704,0.660323,0.561244,105.139472,-10.281130,120.679501
45090,NaN,1.439283,10.714824,-2.017207,1.011031,-0.034981,1.138319,0.031297,0.272759,0.355803,0.235762,0.439191,0.659939,0.562146,105.141684,-10.521340,120.774290
45091,NaN,1.329857,10.802662,-2.468634,0.757208,-0.407964,1.314765,0.075719,0.280914,0.370984,0.233627,0.439752,0.659654,0.562933,105.168555,-10.770487,120.871354
45092,NaN,1.332343,11.359289,-2.052240,1.304011,-0.230315,1.731425,0.194032,0.358609,0.400461,0.230887,0.440329,0.659721,0.563533,105.255308,-11.048365,121.007507
45093,NaN,0.895303,12.236096,-1.877328,1.995038,-0.560483,2.424685,0.226847,0.386537,0.436844,0.227882,0.440979,0.659830,0.564121,105.358360,-11.350136,121.153428
45094,NaN,0.005970,12.925904,-2.164848,2.496933,-1.524462,2.962540,0.187815,0.354733,0.516331,0.224838,0.441934,0.659607,0.564854,105.444200,-11.691787,121.268772
45095,NaN,-0.507087,13.384071,-3.264187,2.098107,-2.623781,3.557367,0.192039,0.315623,0.611637,0.221646,0.443311,0.659137,0.565586,105.539598,-12.079677,121.346705
45096,NaN,-0.043291,14.419143,-4.030895,1.694903,-2.758583,4.805024,0.441145,0.402501,0.768395,0.217165,0.445228,0.659105,0.565854,105.771958,-12.568073,121.447935
45097,NaN,0.150798,16.561585,-3.497443,2.910253,-2.458298,6.680463,0.764378,0.584025,0.974366,0.210778,0.447645,0.659706,0.565663,106.173905,-13.198711,121.615818
45098,NaN,-0.353697,18.773191,-1.773588,5.512125,-2.111887,8.099702,0.652467,0.671102,1.221951,0.203643,0.450490,0.659491,0.566269,106.508393,-13.980691,121.788274
45099,NaN,-0.885915,17.050730,-0.412411,6.363543,-1.869583,5.925428,-0.325537,0.649920,1.236769,0.198728,0.452423,0.656417,0.570033,106.284137,-14.767412,121.945984
45100,NaN,-0.056403,12.032518,-2.193173,2.742533,-2.091723,1.921680,-0.797415,0.859097,1.039953,0.194745,0.452617,0.652612,0.575595,105.745878,-15.477582,122.261356
45101,NaN,0.723184,10.890470,-3.347069,1.062323,-2.190010,1.340854,-0.015852,1.411989,0.997444,0.187297,0.451814,0.651649,0.579774,105.561922,-16.248044,122.906304
45102,NaN,-1.164493,13.963866,-2.014688,4.325077,-3.290529,3.258949,0.414636,1.846118,0.973206,0.177518,0.450031,0.652333,0.583457,105.541460,-17.070322,123.809481
45103,NaN,-3.787713,14.353541,-1.749680,6.203611,-5.336466,2.695996,-0.058025,1.821861,0.881070,0.169127,0.447553,0.651755,0.588479,105.236704,-17.835949,124.719428
45104,NaN,-4.549252,12.059231,-2.547158,5.242890,-6.294233,0.458702,-0.284457,1.607194,0.863944,0.161985,0.445413,0.650306,0.593692,104.825759,-18.553905,125.516037
45105,NaN,-3.633187,11.472842,-3.131016,4.175859,-5.984500,0.255825,-0.064020,1.252433,1.068891,0.154877,0.445142,0.648718,0.597517,104.607191,-19.330482,126.080707
45106,NaN,-0.451721,13.066555,-3.657097,2.763858,-4.192160,2.800653,0.109972,0.825206,1.397783,0.147785,0.447311,0.646546,0.600042,104.580530,-20.225202,126.348074
45107,NaN,3.641398,15.788702,-3.217424,2.063667,-1.327193,6.523383,0.164039,0.370750,1.753586,0.140953,0.452009,0.643355,0.601593,104.695915,-21.252945,126.291664
45108,NaN,5.287966,17.326086,-3.185401,2.034763,-0.527864,8.459462,-0.027277,-0.079708,2.134857,0.134853,0.459100,0.638349,0.602953,104.825330,-22.424430,125.903895
45109,NaN,6.771563,17.797784,-5.092604,0.316619,-1.036163,9.868750,-0.199986,-0.475841,2.502798,0.129274,0.468388,0.631619,0.604118,104.983522,-23.741998,125.211817
45110,NaN,11.144213,16.668928,-7.873583,-4.185093,0.274504,11.316104,-0.375763,-0.532306,2.918420,0.123017,0.478945,0.623229,0.605858,105.103002,-25.277901,124.406655
45111,NaN,15.311818,16.042629,-7.332195,-5.784292,3.400837,12.559437,-0.270028,-0.088821,3.323455,0.113855,0.489375,0.614302,0.608426,105.221009,-27.104427,123.792019
45112,NaN,12.924778,18.453840,-5.272438,-1.499913,1.809391,13.204878,-0.239168,0.578519,3.671851,0.101482,0.498701,0.604808,0.612541,105.211489,-29.221999,123.523812
45113,NaN,7.364637,19.820517,-2.558084,4.188247,-1.613840,11.006121,-1.474792,0.618194,3.875726,0.091396,0.507706,0.590800,0.620352,104.503280,-31.461116,123.255679
45114,NaN,7.488506,13.140959,-3.469937,0.413895,-0.899141,5.672666,-1.290342,0.625037,3.491288,0.081988,0.515429,0.578111,0.627215,103.858233,-33.488796,123.081602
45115,NaN,7.146705,13.720784,-2.129115,2.083739,-0.959635,5.633378,-0.129819,0.498674,3.445807,0.070059,0.523730,0.568932,0.630171,103.923302,-35.475956,122.837821
45116,NaN,7.782985,18.090549,-0.353327,5.663048,-1.419167,8.997889,-0.532098,0.213554,3.717057,0.059128,0.533379,0.557492,0.633414,103.913646,-37.573072,122.343249
45117,NaN,6.872580,16.561582,-1.986131,4.338675,-3.153014,7.410985,-1.392301,-0.275914,3.893023,0.051264,0.544614,0.542492,0.637550,103.668555,-39.703661,121.460454
45118,NaN,6.093172,13.550179,-4.401381,1.463036,-4.546369,4.927448,-1.322631,-0.610881,3.851319,0.044242,0.556577,0.527515,0.640306,103.656385,-41.765479,120.318906
45119,NaN,5.015884,12.859058,-4.290942,1.744367,-5.318838,3.513035,-1.236480,-0.723840,3.672959,0.037819,0.568235,0.513065,0.642217,103.786952,-43.713584,119.084805
45120,NaN,4.769096,12.111932,-4.482725,1.394626,-5.640738,2.667681,-1.360170,-0.556773,3.467818,0.031978,0.578584,0.498648,0.644646,103.785511,-45.567199,117.978814
45121,NaN,4.133026,11.456686,-2.856434,2.586493,-5.099957,1.313064,-1.422903,-0.202001,3.375807,0.025704,0.587361,0.484172,0.648016,103.576671,-47.421183,117.144684
45122,NaN,5.455774,9.876680,-3.367866,0.969231,-4.142527,1.166568,-1.838643,-0.108358,3.365336,0.020467,0.595536,0.468230,0.652440,103.096001,-49.282649,116.379108
45123,NaN,2.708600,7.451480,-4.305064,-0.280449,-5.230491,-2.467507,-1.905320,0.089071,3.084428,0.015858,0.602207,0.452755,0.657349,102.418797,-51.019615,115.841055
45124,NaN,0.384155,7.158045,-3.106107,1.094814,-5.875841,-4.782450,-2.149978,0.227592,2.729106,0.012853,0.607397,0.437425,0.662996,101.440873,-52.575845,115.518921
45125,NaN,-1.937429,5.746868,-2.219381,1.595394,-5.902293,-7.734216,-2.190818,0.305091,2.209124,0.011504,0.611035,0.423412,0.668749,100.282051,-53.854046,115.400238
45126,NaN,-2.144744,4.229522,-1.753200,1.172462,-4.842785,-8.956171,-2.158075,0.331070,1.802710,0.011377,0.613580,0.410672,0.674344,99.032209,-54.903265,115.417743
45127,NaN,-2.812421,3.002092,-0.724380,1.523074,-3.848198,-10.376512,-2.014330,0.160516,1.511600,0.012118,0.616012,0.399211,0.678980,97.938744,-55.775823,115.345694
45128,NaN,-2.758008,2.603141,-0.867697,1.138901,-3.636228,-10.597642,-1.785268,-0.103905,1.091231,0.014129,0.618420,0.389769,0.682229,97.131646,-56.386869,115.086788
45129,NaN,-3.790205,2.716156,-0.685236,1.528229,-4.148862,-11.444781,-1.640502,-0.422224,0.684722,0.017676,0.621086,0.382002,0.684116,96.634310,-56.749881,114.558133
45130,NaN,-4.633603,3.193635,-0.836297,1.729522,-5.001772,-11.900587,-1.540983,-0.787657,0.287451,0.022993,0.624187,0.375763,0.684590,96.471512,-56.860838,113.698695
45131,NaN,-4.891852,3.253258,-0.663204,1.870030,-5.122455,-12.096588,-1.648563,-1.112767,-0.030164,0.030317,0.627751,0.370059,0.684153,96.500307,-56.774186,112.537391
45132,NaN,-4.872948,2.311334,-0.985747,1.084396,-4.621327,-12.556051,-1.662266,-1.365112,-0.379044,0.039368,0.631447,0.365344,0.682824,96.695143,-56.467066,111.164549
45133,NaN,-4.269762,1.370006,-1.771824,-0.210297,-4.006591,-12.486525,-1.581903,-1.518942,-0.757120,0.049706,0.634929,0.362001,0.680699,97.009765,-55.935013,109.696963
45134,NaN,-3.865835,0.770065,-2.055297,-0.853386,-3.495211,-12.423541,-1.515444,-1.592281,-1.104298,0.061168,0.637941,0.359936,0.678039,97.351738,-55.191399,108.230488
45135,NaN,-3.467606,-3.638316,-3.544342,-3.974585,-0.679674,-14.456461,-1.026436,-1.567950,-1.751003,0.073181,0.639771,0.361522,0.674270,97.838733,-54.080613,106.913931
45136,NaN,-3.843267,-4.927131,-3.862733,-4.689268,-0.177911,-15.464640,0.849068,-1.463436,-2.520924,0.081615,0.640401,0.371881,0.667030,99.156823,-52.526232,105.877837
45137,NaN,-4.757774,5.581428,-1.502640,1.477296,-7.337015,-9.981452,1.098768,-1.411340,-2.622772,0.089445,0.640632,0.383309,0.659291,100.478121,-50.909889,104.998556
45138,NaN,-4.202036,8.124444,0.136092,3.777650,-8.115670,-7.930869,-0.918730,-1.740171,-2.533162,0.104079,0.641037,0.387577,0.654235,100.808070,-49.297020,103.883370
45139,NaN,-2.651745,2.357393,-3.462723,-1.967151,-4.550540,-9.829562,-1.604474,-1.954555,-2.688372,0.121772,0.641310,0.389850,0.649546,100.809760,-47.576173,102.654413
45140,NaN,-1.779009,0.408645,-3.763672,-3.112723,-2.743695,-10.341307,-1.096819,-1.942960,-2.968592,0.138717,0.641071,0.394566,0.643509,101.002174,-45.692672,101.526162
45141,NaN,-1.355619,2.301244,-3.092114,-1.974880,-3.410655,-8.735581,-0.844631,-1.938343,-3.260124,0.155699,0.640202,0.400866,0.636558,101.244893,-43.647733,100.494660
45142,NaN,-0.465476,3.604653,-3.249661,-1.891976,-3.547070,-7.054777,-0.936309,-1.948829,-3.476169,0.173655,0.638590,0.407420,0.629330,101.359243,-41.472961,99.533313
45143,NaN,0.379463,4.040040,-3.466681,-2.140611,-3.093798,-6.027731,-0.998164,-1.952169,-3.619602,0.192157,0.636383,0.414035,0.621826,101.376634,-39.221440,98.625339
45144,NaN,1.118711,4.424133,-3.523748,-2.240165,-2.565858,-5.161432,-0.997187,-1.983459,-3.724370,0.210993,0.633747,0.420790,0.613826,101.351787,-36.902414,97.739765
45145,NaN,2.209799,5.047901,-3.655653,-2.378344,-1.831634,-3.921185,-0.973177,-2.056295,-3.793533,0.229983,0.630929,0.427535,0.605186,101.322154,-34.541829,96.837990
45146,NaN,3.223105,5.785464,-3.846317,-2.527837,-1.128380,-2.672575,-0.959384,-2.121178,-3.809200,0.249036,0.627959,0.434109,0.595985,101.278276,-32.160365,95.918853
45147,NaN,4.040659,6.556644,-3.751251,-2.367763,-0.448748,-1.592674,-0.962301,-2.190314,-3.777442,0.267995,0.624966,0.440248,0.586326,101.216376,-29.794990,94.970706
45148,NaN,4.786679,7.177197,-3.962177,-2.521451,0.266489,-0.665022,-0.953052,-2.339918,-3.713311,0.286967,0.622231,0.445815,0.575958,101.165143,-27.444566,93.938609
45149,NaN,5.629073,7.978366,-3.769828,-2.221628,1.125272,0.352626,-0.897840,-2.559287,-3.539373,0.305576,0.620303,0.450439,0.564758,101.171310,-25.173160,92.767295
45150,NaN,6.183887,8.688036,-3.880468,-2.184018,1.783168,1.178760,-0.884940,-2.886457,-3.309725,0.324115,0.619505,0.453683,0.552570,101.226810,-22.988692,91.389601
45151,NaN,6.890611,9.451495,-4.193858,-2.287223,2.596733,2.120603,-0.861860,-3.299257,-3.040645,0.342576,0.620199,0.455235,0.539218,101.345852,-20.912309,89.754046
45152,NaN,8.537646,9.963662,-4.820735,-2.661289,4.426604,3.175799,-0.896051,-3.690737,-2.721517,0.361023,0.622263,0.454811,0.524974,101.474096,-18.962582,87.873143
45153,NaN,10.392121,9.549607,-5.846231,-3.449502,6.813775,3.416428,-0.934603,-3.934691,-2.376916,0.379010,0.625361,0.452504,0.510407,101.573434,-17.179774,85.831337
45154,NaN,11.892202,8.755394,-6.997876,-4.290790,9.022806,3.117564,-0.900799,-3.957770,-2.077340,0.396005,0.628905,0.449077,0.495973,101.640652,-15.555225,83.761800
45155,NaN,12.854101,7.907222,-8.271711,-5.191244,10.754227,2.578089,-0.804538,-3.746235,-1.843457,0.411421,0.632353,0.445336,0.482222,101.682020,-14.088975,81.803789
45156,NaN,13.461790,7.517207,-9.029979,-5.500374,11.972218,2.255702,-0.684535,-3.350656,-1.598193,0.424843,0.635368,0.441756,0.469753,101.696132,-12.801739,80.057473
45157,NaN,13.855412,7.354831,-9.406813,-5.442733,12.835978,2.025488,-0.651651,-2.806079,-1.370813,0.436270,0.637498,0.438539,0.459291,101.632643,-11.709593,78.604343
45158,NaN,13.959901,7.088804,-9.294726,-5.042094,13.304399,1.548466,-0.659795,-2.159433,-1.175387,0.445783,0.638409,0.436009,0.451229,101.470476,-10.801401,77.501659
45159,NaN,14.071043,6.714132,-8.777105,-4.354340,13.644997,0.909082,-0.690518,-1.511313,-0.973355,0.453452,0.638159,0.434144,0.445705,101.213313,-10.086487,76.745552
45160,NaN,13.932796,6.319309,-8.120374,-3.684616,13.636672,0.210184,-0.670690,-0.870306,-0.753679,0.459155,0.636953,0.433053,0.442643,100.901317,-9.567386,76.328651
45161,NaN,13.190639,5.926904,-7.160330,-2.951854,12.914627,-0.599165,-0.662884,-0.308387,-0.539619,0.463119,0.634970,0.432566,0.441838,100.542850,-9.232968,76.206696
45162,NaN,12.197774,5.487114,-5.879969,-2.043206,11.840645,-1.500533,-0.625551,0.115955,-0.314353,0.465544,0.632611,0.432427,0.442809,100.170963,-9.069030,76.301383
45163,NaN,13.350334,5.056816,-4.029565,-0.119891,12.672144,-2.102831,-0.577100,0.402460,-0.112237,0.466739,0.630161,0.432412,0.445052,99.804412,-9.047980,76.538388
45164,NaN,38.226192,6.670520,-15.871011,-5.661169,38.701329,5.279776,0.506428,0.074985,-0.647727,0.466412,0.629804,0.435727,0.442662,100.080515,-8.692041,76.641749
45165,NaN,34.798733,17.131094,-10.999003,0.018358,32.328655,14.274433,2.505591,-0.632257,1.103876,0.457405,0.639420,0.436253,0.437729,101.593148,-9.247343,76.156889
45166,NaN,-6.226565,21.715147,4.592482,6.287915,-11.497030,9.152143,0.163050,-0.274964,2.324148,0.452342,0.645464,0.428487,0.441771,101.763925,-10.524091,75.722149
45167,NaN,-22.017692,12.417916,-1.604949,-5.081437,-23.430664,-1.643488,-1.948115,0.287413,0.726764,0.456378,0.641976,0.422439,0.448477,100.634649,-10.966744,75.799926
45168,NaN,-16.026736,3.584582,0.033796,-3.313640,-16.078847,-9.369822,-0.983988,0.589390,-0.552659,0.459506,0.637268,0.423314,0.451164,99.999551,-10.719102,76.191486
45169,NaN,5.223463,4.382090,0.879116,2.637197,3.852268,-4.766387,0.300537,-0.424494,-0.508848,0.460586,0.637866,0.424609,0.447989,100.209036,-10.391686,75.995670
45170,NaN,13.922244,10.622803,0.103995,4.904253,10.923794,2.966078,1.152707,-0.935361,0.444330,0.457873,0.643578,0.423580,0.443554,100.978556,-10.546336,75.407927
45171,NaN,2.039420,16.704923,3.190259,5.937026,-2.551359,6.050127,0.874701,-0.429173,1.029265,0.453667,0.648727,0.421189,0.442651,101.550019,-11.078864,75.040804
45172,NaN,-1.211543,15.786103,0.237109,2.170125,-4.906841,5.084897,-0.329258,-0.696773,0.343980,0.455424,0.650277,0.417730,0.441849,101.448945,-11.195667,74.597604
45173,NaN,4.598143,10.241794,-5.746714,-2.847972,3.247137,2.036646,-0.531108,-0.943464,-0.084512,0.459295,0.650997,0.414651,0.439677,101.249195,-11.044005,74.062843
45174,NaN,4.775692,6.770095,-6.746987,-4.212173,4.506735,-1.088577,0.009558,-0.368549,-0.038957,0.460100,0.651783,0.413922,0.438356,101.296967,-10.984036,73.851881
45175,NaN,0.580078,7.420050,-3.714074,-2.351612,-0.312121,-1.840211,0.417105,0.036216,-0.087962,0.458851,0.652511,0.415178,0.437393,101.532322,-10.940925,73.878421
45176,NaN,1.107354,9.352413,-1.646081,0.078990,-0.762126,-0.282942,0.638672,-0.046733,-0.082319,0.457027,0.653942,0.416705,0.435710,101.904586,-10.892554,73.856977
45177,NaN,2.796742,12.466892,-0.858223,1.830174,-0.097607,2.860973,0.861180,-0.015634,-0.091839,0.454433,0.655777,0.418815,0.433636,102.399802,-10.841358,73.854975
45178,NaN,2.929938,15.171416,-0.205725,2.994991,-0.779684,5.327339,0.504171,0.057533,-0.006284,0.452657,0.656820,0.420029,0.432741,102.685398,-10.848177,73.884020
45179,NaN,1.722392,12.274494,-1.428790,1.067105,-0.955324,2.581661,-0.181812,0.001909,0.002214,0.453240,0.656439,0.419606,0.433119,102.583320,-10.851748,73.880442
45180,NaN,0.784248,8.541551,-3.328360,-1.588530,-0.515023,-0.764901,0.092626,-0.044788,0.011706,0.452991,0.656807,0.419637,0.432792,102.644345,-10.855837,73.848967
45181,NaN,0.378641,9.682411,-2.509311,-0.710036,-1.367950,0.077379,0.544743,-0.136801,0.043062,0.451388,0.658455,0.420336,0.431281,102.974418,-10.864598,73.761184
45182,NaN,1.464945,10.954770,-1.959308,0.369723,-0.793986,1.377692,0.440760,-0.278343,0.096896,0.450298,0.660288,0.420309,0.429642,103.262160,-10.885484,73.585679
45183,NaN,2.112311,10.290257,-2.524053,-0.056149,0.089803,0.990589,0.252495,-0.305713,0.135582,0.449809,0.661827,0.419688,0.428391,103.445370,-10.922650,73.389440
45184,NaN,2.128378,9.609227,-3.571542,-1.128398,0.502580,0.584293,0.228235,-0.223412,0.124433,0.449242,0.663115,0.419233,0.427439,103.606367,-10.964983,73.241163
45185,NaN,2.274701,9.684693,-3.526554,-1.006477,0.595961,0.677112,0.241514,-0.090457,0.118074,0.448372,0.664128,0.419127,0.426883,103.759897,-11.020469,73.169140
45186,NaN,1.874700,9.878041,-3.068012,-0.633499,0.045576,0.680141,0.202774,0.000062,0.120471,0.447427,0.664871,0.419131,0.426714,103.882338,-11.090450,73.147811
45187,NaN,1.812869,9.739152,-2.758412,-0.370626,-0.068619,0.463709,0.124423,0.025719,0.115975,0.446707,0.665368,0.419041,0.426783,103.956232,-11.160489,73.141664
45188,NaN,1.476689,9.498557,-2.791884,-0.533467,-0.330912,0.177493,0.074829,0.001870,0.111814,0.446201,0.665802,0.418804,0.426868,104.005057,-11.225835,73.122366
45189,NaN,1.670709,9.424157,-2.595327,-0.301783,-0.190143,0.097634,0.070283,-0.022990,0.129667,0.445733,0.666309,0.418445,0.426918,104.053743,-11.296708,73.086534
45190,NaN,1.633502,9.579275,-2.341253,-0.041612,-0.339567,0.177070,0.064440,-0.046821,0.155725,0.445269,0.666915,0.417930,0.426960,104.103366,-11.379608,73.033266
45191,NaN,1.748575,9.466810,-2.444352,-0.122847,-0.193884,0.117074,0.037265,-0.094516,0.157299,0.445001,0.667558,0.417248,0.426901,104.142063,-11.455777,72.952810
45192,NaN,1.994906,9.393996,-2.318449,0.056614,0.011055,0.066517,0.045594,-0.117398,0.156864,0.444744,0.668274,0.416532,0.426749,104.189066,-11.529310,72.859211
45193,NaN,2.159324,9.675557,-2.823502,-0.317067,0.199528,0.488327,0.040813,-0.137126,0.147673,0.444572,0.668994,0.415794,0.426518,104.234592,-11.594016,72.755819
45194,NaN,1.806230,9.594142,-2.806378,-0.415403,-0.126589,0.336066,0.013390,-0.086339,0.139658,0.444395,0.669535,0.415134,0.426497,104.259356,-11.662245,72.682150
45195,NaN,2.650466,9.382779,-2.512902,0.068876,0.635716,0.235561,-0.005009,-0.059799,0.119272,0.444276,0.669929,0.414565,0.426557,104.269164,-11.722004,72.626592
45196,NaN,2.617817,9.381657,-2.368311,0.193027,0.560388,0.193613,-0.018115,-0.013019,0.102400,0.444130,0.670165,0.414126,0.426764,104.266500,-11.779884,72.599819
45197,NaN,2.197272,9.158994,-2.582317,-0.175564,0.270216,-0.051556,-0.059374,0.009867,0.073402,0.444146,0.670194,0.413748,0.427067,104.235830,-11.824008,72.590385
45198,NaN,2.131750,9.059953,-2.654276,-0.286034,0.248386,-0.141660,-0.058386,-0.005534,0.039904,0.444254,0.670195,0.413449,0.427243,104.207418,-11.848283,72.576883
45199,NaN,2.123368,9.317745,-2.692337,-0.284119,0.180839,0.110231,-0.050064,-0.025434,0.015511,0.444435,0.670201,0.413207,0.427281,104.184489,-11.855300,72.555767
45200,NaN,1.966602,9.276987,-2.665887,-0.317651,0.039932,0.032843,-0.086765,-0.035748,0.003492,0.444777,0.670128,0.412902,0.427333,104.142295,-11.855130,72.530348
45201,NaN,1.948484,9.219535,-2.481403,-0.166550,-0.004115,-0.069689,-0.091477,-0.032716,0.001806,0.445141,0.670029,0.412601,0.427401,104.096085,-11.853543,72.507065
45202,NaN,1.533754,9.662307,-2.581774,-0.313080,-0.481728,0.289196,-0.069497,-0.036822,0.016320,0.445400,0.670023,0.412287,0.427443,104.064306,-11.860382,72.479203
45203,NaN,1.018578,10.269061,-2.643441,-0.425664,-1.108924,0.773530,-0.069231,-0.043960,0.072326,0.445562,0.670142,0.411772,0.427584,104.034229,-11.896455,72.439506
45204,NaN,1.415136,10.376989,-2.357692,-0.032523,-0.843628,0.889202,-0.123546,-0.086564,0.125564,0.445871,0.670347,0.410866,0.427812,103.980566,-11.957090,72.367894
45205,NaN,1.669201,9.855265,-2.354119,-0.058352,-0.477857,0.445118,-0.173100,-0.122671,0.167711,0.446338,0.670597,0.409633,0.428115,103.903144,-12.035411,72.270040
45206,NaN,1.987488,9.135489,-2.237186,0.009284,-0.028268,-0.199605,-0.166220,-0.130935,0.173184,0.446778,0.670897,0.408376,0.428387,103.831858,-12.116556,72.166610
45207,NaN,2.136363,8.922903,-2.252938,-0.009346,0.161521,-0.366430,-0.125641,-0.131929,0.168893,0.447101,0.671274,0.407218,0.428563,103.783012,-12.194492,72.063452
45208,NaN,2.134470,8.963735,-2.287362,-0.044307,0.148055,-0.319919,-0.085536,-0.155489,0.147539,0.447373,0.671752,0.406164,0.428529,103.760409,-12.258187,71.949696
45209,NaN,2.352229,9.230270,-1.942858,0.383957,0.181879,-0.100579,-0.035593,-0.137287,0.135877,0.447474,0.672272,0.405297,0.428429,103.763055,-12.317101,71.848104
45210,NaN,2.118284,9.558601,-1.714158,0.576084,-0.193203,0.108155,-0.061840,-0.095048,0.139117,0.447562,0.672656,0.404456,0.428531,103.746654,-12.384388,71.769921
45211,NaN,1.833978,9.524980,-1.751421,0.440810,-0.450093,0.023942,-0.074063,-0.062664,0.162426,0.447583,0.672982,0.403583,0.428818,103.719149,-12.468277,71.707137
45212,NaN,1.870216,9.517008,-1.773319,0.421000,-0.423186,0.029032,-0.061025,-0.063483,0.191766,0.447491,0.673405,0.402637,0.429141,103.701076,-12.569202,71.639638
45213,NaN,1.883958,9.433922,-1.732876,0.440662,-0.415176,-0.056435,-0.064501,-0.074378,0.224275,0.447370,0.673901,0.401550,0.429507,103.682601,-12.685977,71.561589
45214,NaN,1.990486,9.183330,-1.938674,0.231873,-0.213179,-0.223381,-0.058529,-0.087265,0.241150,0.447210,0.674477,0.400387,0.429854,103.670688,-12.811185,71.473662
45215,NaN,2.065471,9.114222,-1.991489,0.187377,-0.131349,-0.260261,-0.021471,-0.079506,0.252424,0.446892,0.675134,0.399285,0.430178,103.678732,-12.942959,71.388731
45216,NaN,2.070730,9.239302,-1.968621,0.224500,-0.191246,-0.146196,0.009018,-0.045900,0.276152,0.446345,0.675839,0.398241,0.430606,103.701705,-13.093230,71.319442
45217,NaN,1.939511,9.373784,-1.878814,0.283120,-0.401105,-0.070082,0.014680,-0.029212,0.309413,0.445680,0.676580,0.397134,0.431153,103.726200,-13.263501,71.255117
45218,NaN,1.955062,9.465093,-1.980066,0.200857,-0.418144,0.042038,0.026653,0.003490,0.348859,0.444816,0.677359,0.395990,0.431874,103.755530,-13.460881,71.203680
45219,NaN,1.717994,9.527418,-2.005341,0.105451,-0.684442,0.049609,0.046455,0.037425,0.397844,0.443718,0.678198,0.394799,0.432777,103.792690,-13.689386,71.164803
45220,NaN,1.593838,9.670420,-1.950353,0.132504,-0.898428,0.139011,0.071779,0.063579,0.466158,0.442325,0.679173,0.393485,0.433869,103.844064,-13.960142,71.130888
45221,NaN,1.307459,9.840887,-1.702480,0.292630,-1.327887,0.167381,0.087002,0.083644,0.541619,0.440682,0.680277,0.391991,0.435162,103.903438,-14.274905,71.097653
45222,NaN,1.387116,9.768914,-1.546139,0.443136,-1.331396,0.075538,0.068205,0.064912,0.612021,0.438975,0.681517,0.390171,0.436580,103.958230,-14.626812,71.043088
45223,NaN,1.730940,9.361175,-1.660777,0.370004,-0.923128,-0.200377,0.048146,0.021865,0.681208,0.437272,0.682929,0.387974,0.438038,104.010123,-15.010567,70.953599
45224,NaN,2.185898,8.882317,-1.960960,0.148391,-0.344486,-0.465067,0.063632,-0.004095,0.733328,0.435441,0.684529,0.385570,0.439485,104.078194,-15.420120,70.840899
45225,NaN,2.393254,8.758744,-2.099732,0.055054,-0.148344,-0.494604,0.101445,-0.005348,0.760869,0.433421,0.686254,0.383148,0.440908,104.169553,-15.844121,70.722825
45226,NaN,2.530753,8.740172,-2.299492,-0.100186,-0.037129,-0.428065,0.112969,-0.007522,0.779484,0.431313,0.688037,0.380675,0.442336,104.270389,-16.278472,70.599606
45227,NaN,2.480325,8.751109,-2.582157,-0.388219,-0.086632,-0.365847,0.120540,-0.004675,0.790089,0.429149,0.689835,0.378184,0.443775,104.376104,-16.718391,70.475549
45228,NaN,2.504327,9.085190,-2.794049,-0.539607,-0.201563,-0.000107,0.149947,0.004792,0.793471,0.426845,0.691675,0.375760,0.445190,104.499151,-17.161795,70.355086
45229,NaN,2.548983,9.619858,-2.859380,-0.518998,-0.414447,0.520431,0.158724,0.014479,0.819062,0.424434,0.693544,0.373281,0.446670,104.627326,-17.620038,70.235265
45230,NaN,2.782207,10.072040,-2.684031,-0.226786,-0.501131,0.961700,0.135408,0.042074,0.847024,0.421977,0.695345,0.370705,0.448339,104.740570,-18.097997,70.125712
45231,NaN,2.860496,10.342711,-2.397156,0.089495,-0.697501,1.160241,0.111364,0.084357,0.877271,0.419454,0.697040,0.368053,0.450256,104.834298,-18.598255,70.035172
45232,NaN,2.826162,10.353284,-2.222393,0.222468,-0.872986,1.109962,0.052876,0.101738,0.908505,0.417020,0.698620,0.365188,0.452397,104.894577,-19.118647,69.948752
45233,NaN,2.965414,10.153761,-2.381083,0.066236,-0.730252,1.005056,0.031115,0.101013,0.941032,0.414585,0.700196,0.362152,0.454633,104.944537,-19.656464,69.856231
45234,NaN,3.015476,10.117286,-2.481267,-0.044062,-0.746960,1.006204,0.036740,0.115328,0.975976,0.412010,0.701802,0.359027,0.456971,104.998510,-20.215997,69.765580
45235,NaN,3.175369,10.180248,-2.450242,0.016023,-0.743897,1.103788,0.048006,0.138041,1.004143,0.409285,0.703408,0.355866,0.459415,105.056296,-20.794073,69.683187
45236,NaN,3.301117,10.247251,-2.404634,0.076637,-0.781777,1.190386,0.028957,0.162941,1.041276,0.406482,0.704969,0.352573,0.462043,105.101750,-21.396607,69.608518
45237,NaN,3.173580,9.905605,-2.354505,0.005207,-0.872246,0.816252,-0.008910,0.178244,1.076123,0.403698,0.706455,0.349090,0.464850,105.124560,-22.020386,69.536885
45238,NaN,3.348736,9.699469,-2.418397,-0.059855,-0.726679,0.704421,0.005379,0.206883,1.101849,0.400737,0.707929,0.345597,0.467769,105.152224,-22.662857,69.477367
45239,NaN,3.433834,9.857102,-2.305447,0.053511,-0.865157,0.841706,0.018670,0.231026,1.141268,0.397586,0.709416,0.342032,0.470817,105.184599,-23.330511,69.425514
45240,NaN,3.325926,9.695046,-2.259457,0.003263,-1.014717,0.633836,-0.009522,0.245656,1.178480,0.394405,0.710853,0.338287,0.474020,105.201125,-24.021057,69.375578
45241,NaN,3.853982,9.114425,-2.284081,0.047083,-0.408858,0.334839,0.016802,0.240554,1.200915,0.391075,0.712363,0.334501,0.477188,105.235737,-24.723079,69.318470
45242,NaN,3.968424,8.662562,-2.293424,-0.011563,-0.213766,-0.014673,-0.018974,0.238320,1.225761,0.387798,0.713825,0.330524,0.480437,105.253697,-25.438558,69.254941
45243,NaN,4.361132,7.973144,-2.445438,-0.138171,0.372611,-0.409944,-0.037608,0.238640,1.222798,0.384583,0.715215,0.326500,0.483695,105.261047,-26.152352,69.191797
45244,NaN,4.320326,7.558409,-2.517753,-0.298539,0.451838,-0.766167,-0.052846,0.239272,1.215169,0.381421,0.716537,0.322456,0.486945,105.260416,-26.862106,69.129632
45245,NaN,4.752186,7.231925,-2.595031,-0.303210,0.891260,-0.827647,-0.067049,0.242640,1.175978,0.378389,0.717730,0.318511,0.490139,105.247860,-27.550625,69.076174
45246,NaN,4.688597,7.671755,-2.564960,-0.296999,0.505606,-0.481400,-0.046279,0.277281,1.152889,0.375266,0.718819,0.314755,0.493360,105.236533,-28.231739,69.047843
45247,NaN,4.310035,8.333057,-2.409961,-0.258733,-0.288754,-0.134219,-0.086053,0.278127,1.137421,0.372314,0.719778,0.310946,0.496603,105.200461,-28.904307,69.023138
45248,NaN,4.475409,8.567259,-2.380350,-0.208439,-0.389760,0.131998,-0.128058,0.254372,1.153955,0.369493,0.720721,0.306919,0.499837,105.149809,-29.582602,68.980625
45249,NaN,4.476736,8.894960,-2.354254,-0.211657,-0.680156,0.394923,-0.161439,0.244814,1.183454,0.366722,0.721643,0.302673,0.503126,105.085106,-30.275692,68.927759
45250,NaN,4.429348,8.832529,-2.524439,-0.448195,-0.757773,0.347482,-0.202894,0.224489,1.219451,0.364024,0.722569,0.298144,0.506449,105.007427,-30.985812,68.855869
45251,NaN,4.768879,8.830749,-2.631857,-0.504300,-0.575649,0.534480,-0.216349,0.216562,1.248918,0.361300,0.723502,0.293447,0.509799,104.927116,-31.711075,68.774696
45252,NaN,4.798660,9.046581,-2.655722,-0.567985,-0.787933,0.721808,-0.229035,0.240544,1.277600,0.358496,0.724366,0.288646,0.513281,104.835138,-32.455859,68.704471
45253,NaN,4.779056,9.322675,-2.588495,-0.563391,-1.101295,0.907384,-0.231078,0.280506,1.305274,0.355557,0.725128,0.283798,0.516940,104.729844,-33.221910,68.657103
45254,NaN,4.699666,9.825717,-2.386679,-0.444940,-1.634530,1.208025,-0.211714,0.313058,1.359650,0.352342,0.725886,0.278848,0.520758,104.629529,-34.022808,68.622725
45255,NaN,4.820844,10.547720,-2.260543,-0.337327,-2.144726,1.801476,-0.168717,0.372601,1.427056,0.348696,0.726616,0.273854,0.524828,104.536772,-34.869807,68.618317
45256,NaN,4.678732,11.150978,-2.094482,-0.284639,-2.817295,2.128853,-0.155221,0.425311,1.515487,0.344674,0.727314,0.268652,0.529189,104.439845,-35.773166,68.635453
45257,NaN,4.634438,12.001059,-2.125989,-0.392535,-3.550077,2.727733,-0.077873,0.474779,1.611928,0.340028,0.728091,0.263369,0.533761,104.375151,-36.737332,68.671797
45258,NaN,4.110612,13.254028,-2.279818,-0.755233,-4.903529,3.345721,-0.004797,0.543539,1.724216,0.334701,0.728904,0.257973,0.538632,104.334631,-37.773036,68.737236
45259,NaN,3.857071,14.328164,-2.636659,-1.244040,-5.941689,3.981037,0.073654,0.630349,1.854363,0.328594,0.729715,0.252432,0.543894,104.312846,-38.893797,68.842685
45260,NaN,3.845731,15.614311,-2.888050,-1.568675,-7.014619,4.859118,0.139503,0.730576,1.988959,0.321724,0.730456,0.246724,0.549595,104.296117,-40.102439,68.997416
45261,NaN,3.670815,16.089884,-2.854538,-1.690992,-7.765623,4.929481,0.035868,0.849136,2.125133,0.314670,0.730783,0.240388,0.556016,104.173465,-41.404273,69.218942
45262,NaN,3.342407,15.625685,-2.807967,-1.866249,-7.989410,4.183484,-0.096762,0.953711,2.199881,0.307730,0.730599,0.233551,0.563010,103.921432,-42.759974,69.514759
45263,NaN,3.027600,14.468964,-2.452689,-1.744408,-7.743446,2.896303,-0.240489,1.042365,2.211042,0.301128,0.729850,0.226361,0.570439,103.524258,-44.134342,69.893967
45264,NaN,2.939412,12.468181,-1.940179,-1.391000,-6.708134,1.183589,-0.351041,1.074502,2.185715,0.294931,0.728704,0.218976,0.577976,103.019541,-45.494228,70.326949
45265,NaN,3.391723,10.209070,-1.414643,-0.864290,-5.059907,-0.253667,-0.442701,1.074713,2.160104,0.289086,0.727283,0.211374,0.585499,102.430103,-46.839208,70.794362
45266,NaN,3.435145,8.423189,-1.111497,-0.632574,-3.931200,-1.558763,-0.545863,1.000534,2.154297,0.283683,0.725816,0.203368,0.592753,101.794724,-48.165578,71.234020
45267,NaN,3.803540,6.423630,-1.161374,-0.634407,-2.321942,-2.651519,-0.705900,0.792919,2.038711,0.279360,0.724518,0.194968,0.599182,101.153511,-49.402884,71.550613
45268,NaN,4.945472,4.962178,-2.000156,-1.238307,-0.473246,-2.648725,-0.759722,0.480224,1.941664,0.275809,0.723897,0.186315,0.604309,100.653921,-50.546382,71.636603
45269,NaN,6.831194,4.249821,-1.886949,-0.780095,1.072404,-1.656324,-0.825495,0.087902,1.954804,0.272775,0.724301,0.176836,0.608039,100.379593,-51.659031,71.383179
45270,NaN,8.869473,4.222054,-1.252017,0.190501,2.023000,-0.120981,-0.973744,-0.256359,2.001506,0.270423,0.725504,0.166265,0.610631,100.280597,-52.759979,70.804486
45271,NaN,12.328048,3.746026,0.159195,2.254026,3.907412,2.257317,-1.177991,-0.321698,1.942550,0.268996,0.726488,0.155156,0.613011,100.120391,-53.825027,70.164205
45272,NaN,12.231784,2.898395,-1.742091,0.447423,4.701300,1.966352,-1.360677,-0.542348,1.917944,0.268456,0.727783,0.143275,0.614602,100.042900,-54.851980,69.301934
45273,NaN,10.829568,2.409511,-2.656480,-0.649154,4.360359,0.708979,-1.300902,-0.917149,1.811310,0.268241,0.730127,0.131425,0.614564,100.317570,-55.782886,68.063249
45274,NaN,11.147529,3.033255,-3.308137,-1.234509,4.009197,1.448363,-1.195158,-1.338146,1.671382,0.268319,0.733707,0.119841,0.612631,101.030560,-56.581738,66.382764
45275,NaN,11.754254,3.854315,-4.015047,-1.806136,3.666251,2.533665,-1.196309,-1.570429,1.474094,0.269092,0.737766,0.108632,0.609499,101.964418,-57.232291,64.451687
45276,NaN,11.703522,4.065595,-4.218204,-1.936240,3.391911,2.678843,-1.244464,-1.535001,1.348257,0.270378,0.741478,0.097786,0.606254,102.870242,-57.797508,62.534518
45277,NaN,10.489775,3.999017,-4.463437,-2.364092,2.837935,1.689735,-1.177972,-1.332827,1.264928,0.271524,0.744525,0.087698,0.603544,103.662982,-58.329770,60.806779
45278,NaN,8.113099,4.374830,-4.121836,-2.672490,1.261983,-0.157846,-1.167508,-1.090224,1.121389,0.272939,0.746716,0.078507,0.601462,104.249035,-58.802555,59.337956
45279,NaN,6.011861,4.313724,-3.525246,-2.645664,0.155228,-2.056762,-1.244523,-0.826746,1.010985,0.274836,0.747895,0.069837,0.600201,104.548998,-59.247796,58.158105
45280,NaN,2.224230,3.946336,-3.090491,-3.199920,-1.323852,-5.560668,-1.212222,-0.517368,0.842569,0.276999,0.748084,0.062327,0.599798,104.556150,-59.640312,57.345312
45281,NaN,-1.394467,6.361251,-1.064580,-2.924046,-5.554741,-7.778532,-0.921446,-0.392924,0.429259,0.279253,0.748133,0.057392,0.599183,104.516293,-59.823832,56.781823
45282,NaN,1.272664,7.920145,0.634467,-1.072241,-6.310998,-4.937043,-1.126722,-0.479008,0.146043,0.283151,0.748054,0.052793,0.597875,104.374201,-59.835702,56.201520
45283,NaN,3.837893,4.912384,0.062184,-0.168167,-2.512408,-4.109694,-1.440147,-0.628686,0.126029,0.288294,0.747929,0.047104,0.596046,104.189049,-59.818788,55.462870
45284,NaN,2.488440,2.901106,-1.265226,-1.249983,-0.888234,-6.090045,-1.178808,-0.659822,-0.074482,0.293064,0.748191,0.042912,0.593703,104.134153,-59.683859,54.746470
45285,NaN,0.002976,4.071563,-0.576519,-1.695178,-3.118111,-7.735769,-0.965164,-0.622508,-0.438385,0.298081,0.748540,0.040753,0.590910,104.073698,-59.355320,54.176591
45286,NaN,-0.983654,4.511720,0.136315,-1.503880,-4.141824,-8.425213,-1.029332,-0.651274,-0.757165,0.304287,0.748786,0.039570,0.587506,103.923041,-58.842835,53.666738
45287,NaN,-0.471024,3.577302,-0.044007,-1.264329,-3.067655,-8.394379,-1.030155,-0.741348,-1.026273,0.311271,0.749193,0.039235,0.583336,103.784673,-58.172219,53.138484
45288,NaN,-0.068378,2.505987,-0.735020,-1.447932,-1.717034,-8.478514,-0.888395,-0.801402,-1.297703,0.318523,0.749892,0.040254,0.578433,103.711363,-57.339257,52.625165
45289,NaN,-0.485081,2.571001,-0.976807,-1.824999,-1.813355,-8.726230,-0.665815,-0.774322,-1.587559,0.325730,0.750742,0.043023,0.573093,103.668264,-56.352506,52.222679
45290,NaN,-0.511026,3.153146,-0.836895,-1.889263,-2.311131,-8.401008,-0.537596,-0.711085,-1.874136,0.333248,0.751489,0.047355,0.567422,103.578758,-55.211132,51.960280
45291,NaN,-0.030832,3.289131,-0.775889,-1.700556,-2.188694,-7.879148,-0.512627,-0.640394,-2.121601,0.341301,0.751925,0.052779,0.561549,103.395598,-53.945522,51.826351
45292,NaN,0.329051,3.208675,-0.819657,-1.566319,-1.892534,-7.567671,-0.465455,-0.571088,-2.368692,0.349823,0.752078,0.059398,0.555404,103.145736,-52.547435,51.807251
45293,NaN,0.176963,3.388156,-0.718072,-1.564161,-2.092268,-7.531975,-0.397605,-0.513265,-2.579558,0.358581,0.752000,0.067067,0.549015,102.866255,-51.043255,51.874789
45294,NaN,-0.234706,3.542744,-0.593475,-1.633549,-2.412576,-7.698817,-0.336710,-0.482168,-2.789316,0.367627,0.751735,0.075759,0.542222,102.581090,-49.421245,51.996781
45295,NaN,-0.633078,4.043174,-0.524540,-1.845644,-2.952533,-7.599536,-0.279219,-0.488866,-2.969419,0.376849,0.751361,0.085231,0.534955,102.321671,-47.701625,52.131288
45296,NaN,-0.875688,4.604569,-0.318672,-1.885872,-3.509756,-7.323969,-0.264825,-0.552584,-3.099021,0.386322,0.750953,0.095114,0.527048,102.105707,-45.896722,52.221499
45297,NaN,-0.472660,5.084722,-0.293499,-1.773093,-3.549489,-6.584849,-0.252763,-0.673401,-3.186949,0.395918,0.750648,0.105074,0.518398,101.963204,-44.032559,52.220207
45298,NaN,0.154645,5.553290,-0.305183,-1.561656,-3.396343,-5.692084,-0.230722,-0.863647,-3.239122,0.405580,0.750647,0.114911,0.508753,101.930048,-42.111597,52.077396
45299,NaN,0.632570,5.855583,-0.775826,-1.738405,-2.954037,-4.961073,-0.291321,-1.097913,-3.257936,0.415512,0.750890,0.124127,0.498102,101.968259,-40.157281,51.767751
45300,NaN,1.081308,5.722382,-1.559578,-2.063791,-2.063456,-4.537628,-0.283666,-1.283046,-3.330273,0.425606,0.751333,0.133241,0.486421,102.072481,-38.134724,51.347503
45301,NaN,2.441718,6.153463,-2.116915,-1.821120,-1.027878,-3.184762,-0.109911,-1.299976,-3.637000,0.435633,0.751722,0.143817,0.473766,102.232611,-35.942897,50.979529
45302,NaN,3.931724,6.733501,-2.474643,-1.287698,-0.016308,-1.734635,-0.171831,-1.216565,-3.820783,0.446122,0.751353,0.155094,0.460857,102.288857,-33.652230,50.710958
45303,NaN,4.777774,6.333771,-2.983620,-0.984324,1.277843,-1.491970,-0.284992,-1.087673,-3.873557,0.456855,0.750092,0.166503,0.448244,102.217617,-31.353265,50.542292
45304,NaN,5.590415,5.811755,-3.687409,-0.829619,2.734712,-1.419284,-0.216880,-0.932002,-3.903188,0.467106,0.748306,0.178494,0.435879,102.126733,-29.051157,50.478886
45305,NaN,6.353370,5.967450,-4.002546,-0.468939,3.614562,-0.941391,-0.014412,-0.785106,-3.921848,0.476299,0.746359,0.191237,0.423694,102.105306,-26.761873,50.510049
45306,NaN,7.139179,6.638554,-4.074188,0.068558,4.164147,-0.102941,0.121730,-0.606273,-3.920202,0.484640,0.744060,0.204642,0.411851,102.115787,-24.489653,50.651059
45307,NaN,7.904602,7.230706,-3.608722,1.065191,4.485857,0.507988,0.152069,-0.426471,-3.854147,0.492342,0.741248,0.218190,0.400679,102.109126,-22.281408,50.890917
45308,NaN,9.132584,7.318222,-3.535245,2.057373,5.611231,0.851423,0.087806,-0.247183,-3.762965,0.499740,0.737745,0.231662,0.390289,102.041862,-20.140615,51.221319
45309,NaN,10.025409,7.233233,-3.657275,2.690370,6.689671,0.873636,0.183718,-0.135244,-3.651173,0.506249,0.734141,0.245081,0.380375,102.025167,-18.080592,51.598141
45310,NaN,11.063693,7.962108,-3.297434,3.768952,7.318028,1.540588,0.379222,0.023637,-3.494415,0.511395,0.730684,0.258644,0.371052,102.113213,-16.123303,52.045226
45311,NaN,10.831659,8.985970,-2.295542,4.631057,6.563133,1.968762,0.434858,0.139892,-3.370270,0.515794,0.727098,0.272052,0.362316,102.233145,-14.254719,52.543876
45312,NaN,9.537742,9.813326,-1.917702,4.381658,5.425064,2.116324,0.387342,0.261883,-3.255429,0.519855,0.723120,0.285216,0.354260,102.329533,-12.462665,53.097680
45313,NaN,8.443008,10.119920,-1.676068,4.125411,4.672780,1.919254,0.277249,0.371289,-3.174726,0.523870,0.718589,0.298082,0.346896,102.368200,-10.733360,53.702540
45314,NaN,7.363596,9.996588,-1.307470,3.949249,3.965211,1.346720,0.224103,0.413336,-3.099831,0.527757,0.713776,0.310639,0.339852,102.393097,-9.048596,54.319327
45315,NaN,7.064959,10.137332,-1.589701,3.714362,4.141853,1.333772,0.240475,0.304023,-3.029177,0.531505,0.709132,0.322593,0.332517,102.454401,-7.393219,54.864119
45316,NaN,8.071135,11.007674,-1.765101,4.403104,5.144857,2.168896,0.364287,0.139515,-2.869483,0.534698,0.705192,0.333691,0.324734,102.615759,-5.805459,55.297420
45317,NaN,9.409786,12.133428,-1.991688,5.293382,6.419127,3.244582,0.303342,0.004607,-2.645023,0.537862,0.701546,0.343461,0.317131,102.761624,-4.329649,55.629862
45318,NaN,10.128148,12.536006,-2.573880,5.442799,7.534351,3.601963,0.120686,0.010550,-2.399566,0.541180,0.697710,0.352051,0.310459,102.813590,-2.990773,55.936312
45319,NaN,9.689398,12.572205,-3.284566,4.751697,7.816291,3.568290,0.076149,0.177877,-2.173417,0.543938,0.693799,0.360179,0.305033,102.843095,-1.801282,56.308181
45320,NaN,8.343511,12.977967,-3.291370,4.171343,6.884649,3.754530,0.118164,0.338395,-1.959333,0.545872,0.690071,0.368032,0.300631,102.903509,-0.751538,56.743082
45321,NaN,7.074439,13.414665,-2.704151,4.119226,5.673814,3.904016,0.026358,0.426147,-1.707310,0.547538,0.686360,0.375079,0.297368,102.917639,0.145328,57.195324
45322,NaN,5.990923,12.895282,-2.323676,3.799866,4.819825,3.222107,-0.174987,0.489674,-1.424165,0.549311,0.682494,0.381006,0.295455,102.823790,0.876092,57.646320
45323,NaN,4.953980,12.065184,-2.315082,3.112608,4.187903,2.362758,-0.195902,0.570531,-1.151922,0.550579,0.678931,0.386175,0.294592,102.722294,1.445410,58.106824
45324,NaN,4.079427,11.728648,-2.127413,2.746567,3.502262,1.973673,-0.162243,0.629487,-0.911826,0.551238,0.675819,0.390725,0.294516,102.645057,1.873086,58.569327
45325,NaN,3.451321,11.676532,-1.746697,2.726652,2.867469,1.834046,-0.122877,0.628789,-0.686463,0.551426,0.673232,0.394561,0.294973,102.591386,2.176106,59.002783
45326,NaN,2.729887,11.616980,-1.312923,2.703677,2.100969,1.694095,-0.117203,0.555357,-0.484158,0.551424,0.671164,0.397511,0.295729,102.541046,2.374374,59.369742
45327,NaN,1.970438,10.715298,-1.299982,2.138151,1.557507,0.835906,-0.128513,0.395313,-0.344908,0.551574,0.669564,0.399535,0.296347,102.479921,2.516134,59.629607
45328,NaN,1.448327,10.283309,-1.442654,1.678009,1.232492,0.463037,0.239679,0.166522,-0.231812,0.550770,0.669548,0.401089,0.295779,102.624644,2.621493,59.747463
45329,NaN,0.976794,12.341344,-1.079075,2.202838,0.498375,2.407231,0.109456,-0.145993,-0.035957,0.550746,0.670020,0.400937,0.294960,102.685024,2.657828,59.665969
45330,NaN,0.770056,12.833273,-1.537588,1.811636,0.509304,2.997799,-0.210894,-0.437798,0.218863,0.551994,0.670556,0.398648,0.294513,102.553523,2.586544,59.389238
45331,NaN,0.883049,12.185140,-2.005853,1.293611,0.884800,2.468363,-0.501108,-0.646821,0.411335,0.554349,0.670965,0.394710,0.294462,102.249553,2.433845,58.971974
45332,NaN,1.153171,10.926747,-2.371914,0.812928,1.387900,1.312159,-0.428384,-0.726299,0.494697,0.556472,0.671849,0.390363,0.294235,101.986814,2.240195,58.500962
45333,NaN,1.696027,11.252751,-2.169268,1.284421,1.697635,1.574793,-0.228275,-0.634379,0.552506,0.557656,0.673246,0.386370,0.294072,101.841685,2.003341,58.075397
45334,NaN,1.761388,11.664208,-1.731376,1.716573,1.449845,1.896490,-0.232569,-0.428099,0.635464,0.558314,0.674483,0.382652,0.294847,101.700084,1.692851,57.756589
45335,NaN,2.130678,11.353015,-1.306187,2.148673,1.512782,1.511223,-0.278569,-0.128648,0.726588,0.558421,0.675306,0.379397,0.296960,101.537711,1.297752,57.596226
45336,NaN,2.787175,10.888290,-1.470933,2.216202,2.137187,1.096347,-0.211677,0.098845,0.767963,0.557790,0.676054,0.376721,0.299837,101.417606,0.850932,57.559925
45337,NaN,9.001927,11.507406,-9.583414,-1.039718,11.539304,3.266267,0.437022,-0.331699,0.556746,0.556095,0.678840,0.374534,0.299430,101.666258,0.574241,57.305611
45338,NaN,7.824319,12.182577,0.564392,6.878499,4.965717,1.933721,1.211467,-0.327146,0.760788,0.551423,0.684142,0.372803,0.298160,102.360748,0.181987,57.027285
45339,NaN,1.557515,16.311863,4.538318,7.488527,-3.086729,5.136825,0.370158,-1.083620,1.155889,0.550431,0.688936,0.366369,0.296928,102.575249,-0.332741,56.273781
45340,NaN,-0.345419,12.466047,-6.800694,-3.601230,1.850225,3.802558,-1.408175,-1.429939,1.358450,0.555827,0.689657,0.355589,0.298304,101.780755,-0.926118,55.304413
45341,NaN,-11.658215,9.560098,-12.702540,-15.416232,-3.766409,1.884131,0.313758,-0.833739,1.599983,0.553813,0.694614,0.348175,0.299293,101.977244,-1.727036,54.643795
45342,NaN,-15.052070,12.736725,-4.453657,-10.375173,-11.650149,3.042321,1.003538,-0.751035,1.178055,0.549832,0.700579,0.343451,0.298188,102.574750,-2.299789,54.075151
45343,NaN,-6.590080,13.338822,-0.369582,-2.185024,-7.288696,2.977460,0.132438,-1.127383,1.162416,0.549547,0.704622,0.336433,0.297184,102.686873,-2.810541,53.294127
45344,NaN,0.257051,10.746075,-1.903970,0.177668,-0.564513,1.087649,-0.445509,-0.968211,1.443851,0.550561,0.707270,0.327974,0.298470,102.474155,-3.500590,52.567068
45345,NaN,3.106401,9.090652,-0.673165,2.569096,1.165552,-0.604947,0.222539,-0.705813,1.406819,0.548809,0.711246,0.321345,0.299459,102.641742,-4.201532,51.991488
45346,NaN,1.497358,12.422362,4.215968,5.796062,-3.782432,1.431261,1.051724,-0.361364,1.261903,0.543723,0.716708,0.317391,0.299929,103.275991,-4.863230,51.622042
45347,NaN,0.390940,15.367167,5.212284,6.237658,-6.039051,3.901864,0.527842,-0.390900,0.996060,0.540942,0.720322,0.313512,0.300380,103.611613,-5.368255,51.265777
45348,NaN,1.543852,14.838539,2.145901,4.449600,-3.376790,4.186118,-0.001725,-0.599521,1.050560,0.540288,0.722880,0.308059,0.301054,103.659540,-5.875693,50.783381
45349,NaN,0.960051,12.377937,0.567251,2.470186,-2.437172,2.121033,-0.400386,-0.714994,0.987558,0.541332,0.724405,0.301916,0.301735,103.488802,-6.331593,50.244973
45350,NaN,-2.455338,9.897833,-5.055976,-4.370380,-1.103757,0.639075,-0.620267,-0.889156,0.719804,0.543813,0.725165,0.295920,0.301388,103.202173,-6.618751,49.645964
45351,NaN,-6.686991,10.553684,-11.658839,-12.076522,-0.335999,2.273153,-0.003125,-1.305939,0.344534,0.545217,0.727642,0.291075,0.297574,103.292224,-6.641486,48.862828
45352,NaN,-3.424003,10.985058,-11.483682,-9.734078,1.970466,3.057227,0.600803,-0.922076,0.488526,0.543624,0.731377,0.287637,0.294662,103.707022,-6.793156,48.275362
45353,NaN,1.509316,17.938041,-2.570620,0.972249,-1.793635,8.256253,1.794338,-0.457001,0.717238,0.536629,0.737946,0.286368,0.292332,104.780393,-7.129013,47.913434
45354,NaN,3.972923,24.014369,2.859826,7.335415,-5.210163,12.984120,0.324406,-0.183244,0.824804,0.534469,0.740286,0.283270,0.293388,104.997774,-7.561156,47.684184
45355,NaN,3.771021,15.768057,1.448519,5.114488,-2.358754,5.458905,-1.582993,-0.191749,0.962685,0.539157,0.737692,0.276827,0.297467,104.126428,-8.069335,47.432460
45356,NaN,2.608854,5.671191,-1.248836,1.284524,1.184625,-3.691067,-1.153671,-0.175046,0.932626,0.542243,0.736138,0.271155,0.300914,103.500395,-8.566922,47.200700
45357,NaN,1.656976,4.599075,-2.598645,-0.471338,1.617261,-4.538959,0.246809,-0.112497,0.699246,0.540423,0.737942,0.268613,0.302046,103.668035,-8.943236,47.037710
45358,NaN,2.173846,9.506778,-2.738456,0.120331,0.683185,0.292837,0.698176,-0.081827,0.608839,0.537020,0.740787,0.267160,0.302439,104.090995,-9.273410,46.902449
45359,NaN,2.553180,11.215101,-3.409479,-0.007377,0.827345,2.155471,0.047147,-0.089096,0.620775,0.536015,0.741898,0.264658,0.303698,104.142809,-9.607878,46.759906
45360,NaN,3.334076,8.770861,-4.139465,-0.226662,2.510072,0.128495,-0.350407,-0.034292,0.583883,0.536458,0.741805,0.261829,0.305588,103.961636,-9.930451,46.653701
45361,NaN,3.355475,7.373694,-3.654319,0.014563,2.600699,-1.314414,-0.205169,0.048090,0.440839,0.536472,0.741779,0.259976,0.307203,103.852297,-10.184249,46.614792
45362,NaN,3.360517,7.827887,-2.811086,0.633884,1.921185,-1.073221,-0.089121,0.081082,0.285736,0.536244,0.741813,0.258959,0.308378,103.802717,-10.357345,46.616397
45363,NaN,3.493242,8.341124,-2.531412,0.932051,1.679725,-0.620578,-0.140353,0.163410,0.189145,0.536252,0.741452,0.258446,0.309659,103.712533,-10.486883,46.678242
45364,NaN,2.616880,8.682277,-2.375713,0.445960,0.851779,-0.488014,-0.169687,0.236313,0.149662,0.536328,0.740851,0.258223,0.311148,103.597241,-10.605407,46.786995
45365,NaN,1.358629,9.095844,-2.116996,-0.216979,-0.334077,-0.383840,-0.190119,0.222257,0.138466,0.536520,0.740197,0.257977,0.312574,103.470738,-10.714366,46.889672
45366,NaN,0.301359,9.532077,-2.234265,-1.015334,-1.149926,-0.138496,-0.061070,0.135137,0.161990,0.536303,0.740058,0.257606,0.313580,103.428209,-10.825920,46.939868
45367,NaN,0.214419,10.639296,-1.578988,-0.556794,-1.964671,0.749689,-0.005707,0.067215,0.250226,0.535836,0.740283,0.256818,0.314493,103.426391,-10.976346,46.939699
45368,NaN,0.431978,10.851363,-1.127542,-0.095468,-2.177496,0.885877,-0.114565,0.001686,0.378953,0.535646,0.740486,0.255201,0.315653,103.373072,-11.190879,46.884903
45369,NaN,0.799592,9.996007,-1.157416,0.054454,-1.665742,0.143278,-0.166417,-0.041805,0.478800,0.535549,0.740738,0.253020,0.316979,103.297345,-11.454331,46.792189
45370,NaN,0.972918,9.432253,-1.231830,0.052857,-1.355497,-0.347436,-0.107972,-0.077454,0.560041,0.535143,0.741303,0.250529,0.318318,103.262040,-11.759383,46.668389
45371,NaN,1.172610,9.346484,-1.522159,-0.071136,-1.039955,-0.327862,-0.044349,-0.108597,0.615719,0.534452,0.742148,0.247852,0.319604,103.268849,-12.090520,46.519335
45372,NaN,1.154324,9.557478,-1.828118,-0.346623,-0.966715,-0.067698,-0.046855,-0.130003,0.697530,0.533656,0.743116,0.244803,0.321032,103.280266,-12.465242,46.346769
45373,NaN,1.324180,9.446701,-2.269299,-0.609416,-0.579519,-0.043570,-0.086452,-0.111648,0.782785,0.532843,0.744040,0.241423,0.322796,103.270297,-12.889116,46.172956
45374,NaN,1.472605,9.313131,-2.444882,-0.697939,-0.373383,-0.104272,-0.100138,-0.028423,0.878982,0.531813,0.744898,0.237877,0.325140,103.246136,-13.378326,46.033606
45375,NaN,1.111287,9.467525,-2.248399,-0.862282,-0.859401,-0.094589,-0.119167,0.032725,0.981909,0.530606,0.745710,0.234077,0.327997,103.207167,-13.932334,45.915472
45376,NaN,0.965851,9.312712,-2.108438,-0.934738,-1.060919,-0.320333,-0.197427,0.026549,1.090290,0.529501,0.746432,0.229720,0.331204,103.129076,-14.546709,45.779438
45377,NaN,0.904561,8.978590,-2.193487,-1.119909,-1.000274,-0.648136,-0.208605,-0.046830,1.182827,0.528355,0.747326,0.224799,0.334381,103.059843,-15.202777,45.589065
45378,NaN,1.271516,9.067090,-2.240937,-0.992455,-0.814636,-0.474536,-0.161119,-0.166128,1.241043,0.527045,0.748582,0.219414,0.337202,103.040741,-15.876475,45.321644
45379,NaN,1.765064,9.827924,-1.943860,-0.545681,-1.012671,0.294614,-0.088445,-0.242250,1.303040,0.525423,0.750194,0.213712,0.339805,103.081189,-16.574444,45.000612
45380,NaN,2.366385,10.495488,-1.568587,0.019194,-1.177393,0.995979,-0.160968,-0.309837,1.340805,0.524054,0.751736,0.207556,0.342317,103.097439,-17.284860,44.633451
45381,NaN,2.896071,10.122005,-1.682148,0.210159,-0.705921,0.823465,-0.272319,-0.303134,1.364796,0.523031,0.752962,0.201129,0.345014,103.054306,-18.009323,44.265736
45382,NaN,3.200975,9.549965,-1.864898,0.213213,-0.259915,0.425058,-0.291849,-0.251884,1.367776,0.521997,0.754013,0.194778,0.347915,102.995392,-18.742606,43.926896
45383,NaN,3.282724,9.546408,-1.859912,0.170001,-0.295781,0.446529,-0.232471,-0.176151,1.386440,0.520608,0.755067,0.188650,0.351074,102.961049,-19.496089,43.629423
45384,NaN,2.969394,9.856501,-2.147757,-0.381723,-0.523385,0.683002,-0.162717,-0.101565,1.387627,0.518856,0.756135,0.182823,0.354435,102.955798,-20.260133,43.374941
45385,NaN,2.891664,10.364805,-2.098944,-0.555181,-0.902772,1.099294,-0.158718,-0.038085,1.419437,0.516950,0.757091,0.177040,0.358096,102.944629,-21.049906,43.152825
45386,NaN,3.140011,10.153827,-2.287927,-0.620045,-0.633627,1.022740,-0.221139,0.010018,1.467408,0.515123,0.757803,0.171077,0.362100,102.892749,-21.872870,42.952227
45387,NaN,3.264566,9.685120,-2.358503,-0.655523,-0.413318,0.647662,-0.207570,0.075012,1.511404,0.513081,0.758425,0.165131,0.366430,102.838909,-22.728746,42.784442
45388,NaN,3.537201,9.715669,-2.268965,-0.535775,-0.413282,0.751124,-0.220880,0.134591,1.556329,0.510926,0.758896,0.159132,0.371091,102.768033,-23.617488,42.646593
45389,NaN,3.604012,9.672705,-2.294986,-0.634797,-0.438328,0.733385,-0.196736,0.203336,1.579103,0.508550,0.759271,0.153258,0.376027,102.696972,-24.527763,42.547937
45390,NaN,3.477833,10.029919,-2.161875,-0.809802,-0.866450,0.955748,-0.125108,0.262431,1.601087,0.505783,0.759684,0.147575,0.381164,102.654196,-25.457796,42.482936
45391,NaN,3.830422,10.077513,-2.356254,-0.856069,-0.663099,1.169348,0.014826,0.280173,1.602636,0.502434,0.760367,0.142188,0.386244,102.687983,-26.390979,42.428335
45392,NaN,3.654597,11.961226,-2.180480,-1.315081,-1.871785,2.675087,-0.106347,0.329451,1.686641,0.499314,0.760657,0.136362,0.391780,102.644741,-27.377140,42.392402
45393,NaN,3.088047,11.794610,-2.520471,-2.082224,-2.044056,2.290341,-0.284824,0.378025,1.813148,0.496551,0.760431,0.129815,0.397908,102.493011,-28.440332,42.370938
45394,NaN,3.054446,12.138131,-2.362995,-2.253642,-2.463002,2.479455,-0.289278,0.427215,1.958283,0.493438,0.760117,0.122820,0.404545,102.332232,-29.590375,42.363601
45395,NaN,3.188376,11.886529,-2.451563,-2.390290,-2.349789,2.279640,-0.305199,0.431977,2.092520,0.490055,0.759753,0.115277,0.411500,102.168566,-30.816639,42.344146
45396,NaN,3.083030,12.185150,-2.380524,-2.693129,-2.759976,2.384540,-0.255683,0.454705,2.217012,0.486158,0.759442,0.107410,0.418762,102.033137,-32.114571,42.325601
45397,NaN,3.242225,12.750638,-2.428810,-3.001152,-3.095485,2.851928,-0.231973,0.489424,2.321754,0.481863,0.759068,0.099260,0.426345,101.905401,-33.476215,42.318658
45398,NaN,3.179808,13.044933,-2.611781,-3.502204,-3.350608,2.977974,-0.231326,0.546287,2.438432,0.477222,0.758519,0.090798,0.434354,101.763641,-34.908673,42.337485
45399,NaN,2.964906,14.045180,-2.523690,-4.113265,-4.258730,3.504915,-0.195435,0.613625,2.578761,0.472025,0.757846,0.082020,0.442871,101.623972,-36.428951,42.387397
45400,NaN,2.059845,14.507012,-3.039653,-5.456377,-4.886769,3.236028,-0.178152,0.699908,2.674703,0.466435,0.756922,0.073116,0.451843,101.460915,-38.010948,42.490428
45401,NaN,1.477230,16.143422,-3.425758,-6.888858,-6.100010,3.965633,-0.046380,0.805693,2.813496,0.459891,0.755963,0.064205,0.461408,101.331251,-39.684582,42.657023
45402,NaN,0.438396,17.736243,-3.136791,-8.094251,-8.009154,4.148546,-0.037257,0.953323,3.007822,0.452722,0.754573,0.054922,0.471854,101.143650,-41.480680,42.914663
45403,NaN,-0.349774,17.389278,-2.738336,-8.431902,-8.740223,2.934502,-0.176480,1.048047,3.192504,0.445485,0.752493,0.044797,0.483002,100.827535,-43.392983,43.235331
45404,NaN,-0.421608,16.447848,-2.192660,-8.029775,-8.815453,1.732883,-0.188233,1.151118,3.334759,0.437810,0.749948,0.034349,0.494693,100.435614,-45.390587,43.643275
45405,NaN,-0.794388,15.292281,-1.232868,-7.334205,-9.118862,0.139023,-0.307689,1.273232,3.402353,0.430236,0.746607,0.023584,0.506871,99.871703,-47.440361,44.180241
45406,NaN,-1.139063,13.106384,-0.595604,-6.391832,-8.485419,-2.031073,-0.521813,1.306256,3.461290,0.423187,0.742477,0.012152,0.519127,99.114317,-49.516609,44.794149
45407,NaN,-1.948871,10.554433,-0.353590,-5.704462,-7.492780,-4.652751,-0.585452,1.126580,3.417857,0.416328,0.738421,0.000300,0.530476,98.371917,-51.552654,45.323000
45408,NaN,-1.812317,8.500994,0.502904,-4.222438,-6.688557,-6.175234,-0.870743,0.634994,3.413328,0.410431,0.734838,-0.013276,0.539799,97.767649,-53.535791,45.457294
45409,NaN,-0.491687,4.724400,1.096954,-1.587198,-4.031120,-7.578084,-1.235895,0.077049,3.421970,0.405650,0.731767,-0.029050,0.546920,97.367437,-55.487635,45.080857
45410,NaN,3.294061,2.998307,0.933495,0.533300,-1.321105,-5.490593,-0.599194,-0.132302,3.233511,0.398938,0.730371,-0.042765,0.552790,97.504941,-57.310056,44.505011
45411,NaN,4.634567,4.818421,0.760929,-0.131266,-2.062027,-3.409381,-0.919236,-0.321012,3.102862,0.393573,0.728687,-0.057296,0.557524,97.658142,-59.050554,43.706593
45412,NaN,2.550716,2.844561,-1.278975,-1.557429,-0.242113,-6.104787,-1.847934,-0.825821,2.899903,0.391937,0.726433,-0.074609,0.559565,97.797581,-60.628473,42.321945
45413,NaN,-3.004973,-1.632088,-2.205137,-1.815852,1.613014,-13.076958,-2.258161,-1.324849,2.374349,0.392915,0.724737,-0.092160,0.558463,98.228547,-61.872353,40.356328
45414,NaN,-10.979888,-5.474333,0.775139,-0.205937,-0.115749,-22.103716,-2.428345,-1.583775,1.372854,0.397114,0.723688,-0.106995,0.554191,98.766152,-62.511275,38.176558
45415,NaN,-10.155852,-8.282090,0.039916,1.284838,2.554756,-22.601679,-2.767184,-2.066430,0.150843,0.405517,0.723751,-0.119319,0.545439,99.458439,-62.411438,35.609372
45416,NaN,-8.930090,-7.266953,-6.720742,-3.537832,7.137610,-20.501945,-2.007810,-2.440596,-0.891883,0.413716,0.726794,-0.126482,0.533490,100.738259,-61.658096,32.858670
45417,NaN,-8.261156,-2.252140,-7.722594,-7.104140,5.038215,-17.369175,-1.327660,-2.417459,-1.681813,0.421417,0.731483,-0.128922,0.520306,102.096421,-60.441313,30.439012
45418,NaN,-5.494092,2.149956,-6.933634,-8.227840,2.576502,-12.735384,-1.054581,-2.054368,-2.236598,0.429723,0.735979,-0.127782,0.507292,102.987623,-58.929595,28.707706
45419,NaN,-2.201862,5.852431,-5.764177,-8.292677,0.414912,-7.974681,-1.005915,-1.636656,-2.662166,0.439047,0.739589,-0.124064,0.494827,103.328166,-57.232862,27.629231
45420,NaN,0.264289,10.620598,-4.952960,-9.441222,-2.197009,-3.223225,-1.081418,-1.461133,-3.020429,0.449554,0.742617,-0.118741,0.481998,103.337523,-55.350016,26.874213
45421,NaN,1.563339,16.100889,-4.786436,-11.812807,-4.786601,1.237271,-1.604481,-1.631641,-3.313140,0.462410,0.744778,-0.113978,0.467432,103.088845,-53.290320,26.050376
45422,NaN,3.605896,13.800014,-5.365199,-9.385081,-2.048952,2.015524,-2.733243,-1.879617,-3.572795,0.479742,0.744695,-0.111351,0.450420,102.301574,-51.049590,25.065289
45423,NaN,5.249350,7.288669,-7.587089,-5.445985,4.024544,-0.202198,-2.616305,-1.581849,-3.773868,0.496935,0.743881,-0.106982,0.433880,101.336435,-48.749711,24.369040
45424,NaN,3.741813,7.298617,-6.767773,-5.541593,3.260870,-1.344253,-1.458509,-1.101977,-4.022603,0.510389,0.744646,-0.097872,0.418840,100.701531,-46.359144,24.098065
45425,NaN,1.459923,11.564987,-4.447563,-7.858810,-1.014593,-0.177160,-1.024778,-1.119696,-4.358130,0.522623,0.746328,-0.086655,0.402928,100.296218,-43.789283,23.843167
45426,NaN,0.192290,14.656076,-3.384189,-9.457054,-3.312678,1.404969,-1.127724,-1.732783,-4.466741,0.534934,0.748609,-0.076734,0.384113,100.133084,-41.086308,23.128981
45427,NaN,-0.722005,14.736570,-3.331534,-9.679826,-3.265526,1.339582,-1.429293,-2.701120,-4.466913,0.547607,0.751430,-0.069988,0.361359,100.208286,-38.296024,21.731342
45428,NaN,-0.492012,12.452972,-4.649047,-8.524022,-0.741132,0.369410,-1.463095,-3.623222,-4.573508,0.559868,0.755254,-0.065305,0.334476,100.548629,-35.334820,19.765955
45429,NaN,0.756848,11.588207,-5.933740,-7.150974,1.423059,0.997168,-1.000767,-4.216403,-4.710025,0.569839,0.760670,-0.060997,0.304867,101.225830,-32.230233,17.520083
45430,NaN,1.849441,13.500195,-6.265173,-6.512092,1.633907,3.595465,-0.542811,-4.537750,-4.746339,0.577463,0.767092,-0.056634,0.273676,102.099528,-29.030657,15.195999
45431,NaN,2.680746,15.685497,-5.869283,-5.664752,0.994240,6.140449,-0.579402,-4.711744,-4.748918,0.584504,0.772792,-0.052821,0.241571,102.833919,-25.792731,12.883726
45432,NaN,3.596540,16.004801,-6.426257,-4.150482,1.836380,7.207521,-0.887606,-4.761196,-4.754793,0.592101,0.776770,-0.049371,0.208821,103.242620,-22.511995,10.641221
45433,NaN,5.421419,15.796028,-7.687439,-1.676027,3.607425,8.133643,-1.007314,-4.501908,-4.734636,0.599504,0.779245,-0.045372,0.176953,103.388362,-19.279804,8.618847
45434,NaN,7.380259,16.361447,-7.390595,1.195055,3.607175,9.219823,-1.048653,-3.945613,-4.694646,0.606576,0.780286,-0.039781,0.147097,103.291566,-16.129820,6.957809
45435,NaN,9.019218,17.193199,-7.563824,3.657958,3.893338,10.324652,-1.173981,-3.169942,-4.665162,0.613690,0.779672,-0.032080,0.120280,102.924744,-13.116580,5.751840
45436,NaN,10.343712,17.432885,-7.122588,6.059711,3.750498,10.453818,-1.513723,-2.222001,-4.762051,0.621883,0.776836,-0.021204,0.096631,102.190533,-10.166226,5.085033
45437,NaN,11.525621,15.351237,-7.333084,8.497443,4.857634,8.252911,-2.038109,-1.193025,-4.949395,0.631817,0.771319,-0.006707,0.076348,101.039715,-7.253097,4.980973
45438,NaN,12.010426,11.517535,-8.916056,9.982300,7.618038,4.281154,-1.963401,-0.125369,-5.010696,0.641078,0.765052,0.011497,0.059860,99.867998,-4.407591,5.429536
45439,NaN,10.564238,10.490674,-9.674219,9.064320,8.767950,2.683643,-1.008629,0.632873,-4.882423,0.646148,0.761118,0.031854,0.046663,99.247677,-1.711496,6.248508
45440,NaN,8.489322,13.974456,-8.195168,7.637153,6.777968,5.359883,-0.005481,0.720795,-4.573817,0.646950,0.760000,0.051595,0.034543,99.238285,0.816703,7.072860
45441,NaN,8.024925,18.019400,-6.351972,8.163824,4.434387,8.709797,0.162426,0.170717,-4.056669,0.646848,0.759304,0.067538,0.022012,99.348746,3.092369,7.540812
45442,NaN,10.416337,17.630241,-5.405962,11.264141,4.015762,7.665799,-0.343482,-0.540617,-3.427315,0.648611,0.756981,0.078764,0.008919,99.153239,5.087188,7.546589
45443,NaN,15.213768,13.866773,-5.622165,16.051518,5.507500,3.123296,-0.509653,-0.830309,-2.714343,0.650913,0.754229,0.086273,-0.002835,98.838808,6.695288,7.314509
45444,NaN,19.144181,12.085604,-5.059559,20.041886,5.724133,0.370546,-0.128857,-0.571091,-2.000875,0.651577,0.752900,0.091957,-0.011503,98.746715,7.883312,7.160978
45445,NaN,19.219563,11.799150,-4.249935,20.326777,4.985563,-0.398243,0.031537,-0.120953,-1.363771,0.651414,0.752361,0.096652,-0.016424,98.772946,8.663755,7.207819
45446,NaN,16.708839,10.397442,-3.710266,17.770623,4.367358,-1.677114,0.016812,0.164142,-0.744046,0.651199,0.752071,0.099970,-0.018279,98.808162,9.073172,7.363648
45447,NaN,14.414835,9.524955,-2.362572,15.536779,2.887438,-2.439414,0.205805,0.072175,-0.096002,0.650375,0.752710,0.100506,-0.018432,98.934736,9.118770,7.409407
45448,NaN,13.193939,9.800472,-0.564228,14.562032,0.881396,-2.222108,0.197105,-0.362240,0.573813,0.649856,0.753610,0.097125,-0.018055,99.008293,8.826772,7.145797
45449,NaN,13.367949,9.758557,-1.926774,14.544474,2.125876,-1.965487,0.149261,-0.837070,1.183556,0.649784,0.754584,0.089888,-0.017445,99.007656,8.229734,6.555241
45450,NaN,14.601729,11.872339,-1.192708,16.067995,1.028343,0.002370,0.835465,-0.881977,1.623721,0.647128,0.757923,0.080783,-0.015887,99.398631,7.390779,5.897391
45451,NaN,15.670164,8.593193,-5.464700,16.218158,5.591933,-2.399721,-0.886825,-1.383064,2.143659,0.651152,0.755750,0.068207,-0.013841,98.774178,6.300731,4.909742
45452,NaN,5.418900,2.946081,-22.868574,4.442411,22.542118,-4.058742,-0.322860,-2.635237,2.289836,0.653319,0.755193,0.050940,-0.016233,98.420181,5.225619,3.208032
45453,NaN,-16.349542,7.966176,-31.621651,-16.502129,29.281128,4.362740,2.688370,-2.357230,2.235281,0.643797,0.764193,0.034530,-0.018521,99.835394,4.172984,1.662075
45454,NaN,-18.495714,18.345549,-1.418024,-17.228534,-2.795857,9.575187,5.168761,1.270900,1.807672,0.623709,0.780985,0.031180,-0.008738,102.834013,3.011833,2.169426
45455,NaN,9.684572,34.684118,31.777687,12.640489,-38.545420,15.896253,2.936192,1.923090,1.085274,0.611878,0.790271,0.032765,0.001690,104.559197,2.144803,3.089256
45456,NaN,24.874901,32.045972,8.970854,26.513249,-14.775742,18.554165,-4.107652,0.096977,1.734550,0.627908,0.777807,0.026124,0.008042,102.203048,1.163042,2.908965
45457,NaN,9.238786,3.892721,-2.065945,9.191219,1.765896,-5.668706,-4.057475,0.816534,2.390504,0.643295,0.765136,0.019181,0.019240,99.881079,-0.272979,3.101557
45458,NaN,-6.347040,-9.878447,-2.374016,-6.469953,3.635674,-19.216088,-0.601361,0.993080,1.004696,0.645374,0.763191,0.018419,0.026334,99.533314,-0.940943,3.561167
45459,NaN,-9.995750,9.181443,0.667131,-10.014544,-2.930040,-1.107782,2.784030,0.137295,0.823219,0.634551,0.772160,0.016045,0.029247,101.130112,-1.421323,3.549745
45460,NaN,-2.683892,17.938255,1.110309,-2.897171,-4.760837,7.483437,0.551442,-1.945347,0.682215,0.632430,0.774216,0.007271,0.023855,101.478708,-1.589586,2.375479
45461,NaN,6.706693,8.054858,-4.073284,6.355120,2.606746,-0.909397,-0.726205,-2.173746,1.200554,0.635113,0.772166,-0.004377,0.019252,101.106917,-2.022457,1.014504
45462,NaN,7.452603,6.214020,-4.058458,7.148299,2.855270,-2.645102,0.253988,-1.138749,0.933993,0.633988,0.773050,-0.011623,0.017827,101.283182,-2.424401,0.265743
45463,NaN,5.698638,10.059551,-4.016937,5.210969,1.947210,1.089511,0.731467,-0.219135,0.527025,0.631083,0.775357,-0.014330,0.018685,101.712090,-2.697456,0.078069
45464,NaN,4.181690,12.262355,-3.014989,3.557845,0.452184,2.996646,0.361551,0.415279,0.286962,0.629667,0.776446,-0.014152,0.021232,101.911698,-2.911497,0.273243
45465,NaN,2.251706,10.458920,-1.949898,1.689336,-0.220431,0.927822,-0.270523,0.778456,0.237584,0.630731,0.775496,-0.012692,0.024974,101.736751,-3.138284,0.678197
45466,NaN,-0.527558,8.420083,-2.223093,-1.026046,0.462842,-1.161033,-0.296049,0.680830,0.232359,0.631873,0.774468,-0.011538,0.028337,101.549216,-3.352156,1.029653
45467,NaN,-1.664497,8.713509,-2.808736,-2.226433,0.959844,-0.829014,0.132740,0.250554,0.269389,0.631323,0.774843,-0.011811,0.030157,101.620352,-3.534361,1.135215
