// General information: 
//  MT Manager version: 2019.0.1 
//  XDA version: 2019.0.1 build 2740 rev 84096 built on 2019-01-30
// Device information: 
//  DeviceId: 00B43876
//  ProductCode: MTW2-3A7G6
//  Firmware Version: 4.3.4
//  Hardware Version: 1.1.0
// Device settings: 
//  Filter Profile: human(46.1)
//  Option Flags: Orientation Smoother Disabled, AHS Disabled, ICC Disabled
// Coordinate system: ENU
PacketCounter,SampleTimeFine,Acc_X,Acc_Y,Acc_Z,FreeAcc_E,FreeAcc_N,FreeAcc_U,Gyr_X,Gyr_Y,Gyr_Z,Quat_q0,Quat_q1,Quat_q2,Quat_q3,Roll,Pitch,Yaw
40890,NaN,-0.262608,9.873300,0.379450,-0.030588,-0.017472,0.071328,-0.003744,0.005221,-0.006774,0.300717,0.308466,-0.621533,-0.654305,87.873382,1.710585,-128.984967
40891,NaN,-0.276148,9.843546,0.391819,-0.032063,0.002085,0.042471,-0.001038,0.007908,-0.009957,0.300713,0.308485,-0.621528,-0.654302,87.874095,1.712308,-128.983610
40892,NaN,-0.297451,9.865133,0.374475,-0.005039,0.006679,0.064027,-0.002786,0.003064,-0.007098,0.300705,0.308471,-0.621532,-0.654309,87.873649,1.711996,-128.985578
40893,NaN,-0.289975,9.890558,0.396639,-0.026629,0.013487,0.090022,-0.004415,0.006274,-0.007696,0.300709,0.308473,-0.621523,-0.654315,87.872400,1.712389,-128.985109
40894,NaN,-0.265818,9.873172,0.380529,-0.029315,-0.014681,0.071336,-0.002785,0.003064,-0.007098,0.300702,0.308460,-0.621525,-0.654322,87.871799,1.712050,-128.986842
40895,NaN,-0.305690,9.888568,0.377646,-0.001689,0.013753,0.087800,-0.004138,0.001720,-0.005506,0.300699,0.308440,-0.621526,-0.654332,87.870632,1.711092,-128.988936
40896,NaN,-0.262629,9.877377,0.347363,-0.005022,-0.038316,0.074209,-0.005480,0.003827,-0.007350,0.300705,0.308434,-0.621514,-0.654344,87.868401,1.711040,-128.988983
40897,NaN,-0.261740,9.849531,0.379651,-0.030784,-0.017643,0.047568,-0.004413,0.006274,-0.007697,0.300709,0.308435,-0.621504,-0.654350,87.867153,1.711434,-128.988514
40898,NaN,-0.249796,9.879229,0.367899,-0.028641,-0.035807,0.076439,-0.003741,0.005220,-0.006775,0.300714,0.308428,-0.621499,-0.654356,87.865918,1.710915,-128.988686
40899,NaN,-0.244410,9.855667,0.365954,-0.030761,-0.040133,0.052670,-0.000758,0.003354,-0.007768,0.300703,0.308426,-0.621506,-0.654356,87.866714,1.711287,-128.989891
40900,NaN,-0.230992,9.857560,0.385836,-0.054789,-0.038273,0.054899,-0.003729,0.008671,-0.010211,0.300700,0.308440,-0.621495,-0.654361,87.866186,1.713093,-128.988907
40901,NaN,-0.231963,9.857523,0.386207,-0.054499,-0.037588,0.054903,-0.004124,0.005171,-0.008943,0.300696,0.308442,-0.621487,-0.654370,87.865084,1.714176,-128.989097
40902,NaN,-0.266147,9.849358,0.381077,-0.029220,-0.014159,0.047579,-0.001416,0.007859,-0.012126,0.300687,0.308465,-0.621477,-0.654372,87.865380,1.716883,-128.987900
40903,NaN,-0.273421,9.872853,0.383422,-0.026514,-0.008457,0.071351,-0.002769,0.006515,-0.010535,0.300680,0.308478,-0.621469,-0.654377,87.865077,1.718907,-128.987354
40904,NaN,-0.274617,9.872812,0.383608,-0.026126,-0.007785,0.071353,-0.001235,0.002153,-0.013349,0.300655,0.308490,-0.621463,-0.654388,87.865099,1.722152,-128.988528
40905,NaN,-0.271401,9.877060,0.349626,-0.002201,-0.032104,0.074232,0.001282,0.007096,-0.011875,0.300639,0.308516,-0.621464,-0.654382,87.867125,1.724955,-128.987677
40906,NaN,-0.272512,9.877019,0.349914,-0.001912,-0.031405,0.074234,-0.007487,0.006985,-0.010120,0.300644,0.308524,-0.621440,-0.654400,87.864194,1.726688,-128.986582
40907,NaN,-0.250944,9.904375,0.391772,-0.047772,-0.023411,0.102466,0.000313,0.005801,-0.008117,0.300638,0.308532,-0.621446,-0.654393,87.865645,1.727312,-128.986393
40908,NaN,-0.272803,9.849131,0.382236,-0.027388,-0.010023,0.047589,-0.004214,0.004017,-0.012358,0.300617,0.308539,-0.621435,-0.654409,87.864612,1.730219,-128.987693
40909,NaN,-0.255211,9.855307,0.368271,-0.027753,-0.033203,0.052704,-0.002477,0.005411,-0.011783,0.300602,0.308553,-0.621427,-0.654417,87.864455,1.732933,-128.987805
40910,NaN,-0.237501,9.861490,0.354334,-0.028039,-0.056391,0.057823,-0.004789,0.006222,-0.009869,0.300605,0.308562,-0.621410,-0.654428,87.862596,1.734314,-128.986750
40911,NaN,-0.244777,9.884975,0.356915,-0.025327,-0.050677,0.081595,-0.004104,0.008620,-0.012383,0.300601,0.308586,-0.621391,-0.654437,87.861563,1.737440,-128.985037
40912,NaN,-0.252579,9.831646,0.367242,-0.029275,-0.036144,0.028947,-0.003814,0.007517,-0.013629,0.300582,0.308607,-0.621377,-0.654449,87.861066,1.741220,-128.984905
40913,NaN,-0.280515,9.876714,0.352213,0.000149,-0.026548,0.074249,-0.003250,0.001861,-0.012683,0.300554,0.308611,-0.621370,-0.654466,87.860404,1.744374,-128.987071
40914,NaN,-0.281584,9.876669,0.352611,0.000499,-0.025873,0.074251,-0.005074,0.007323,-0.008625,0.300566,0.308621,-0.621352,-0.654473,87.858501,1.745150,-128.985142
40915,NaN,-0.268349,9.878556,0.372874,-0.023494,-0.024034,0.076488,-0.006902,0.004777,-0.012615,0.300553,0.308629,-0.621329,-0.654497,87.855797,1.748327,-128.985636
40916,NaN,-0.278589,9.869897,0.441334,-0.070330,0.026682,0.070712,-0.004206,0.004016,-0.012362,0.300539,0.308635,-0.621314,-0.654515,87.854110,1.750931,-128.986368
40917,NaN,-0.270776,9.878454,0.373829,-0.022797,-0.022664,0.076493,-0.004494,0.005118,-0.011117,0.300528,0.308643,-0.621301,-0.654529,87.852793,1.753257,-128.986635
40918,NaN,-0.265566,9.854892,0.372043,-0.024893,-0.027028,0.052731,-0.003442,0.004114,-0.008027,0.300529,0.308644,-0.621294,-0.654534,87.851843,1.753673,-128.986413
40919,NaN,-0.280861,9.852913,0.352629,-0.000318,-0.027503,0.050495,-0.002468,0.005410,-0.011786,0.300514,0.308659,-0.621285,-0.654542,87.851691,1.756389,-128.986526
40920,NaN,-0.267811,9.854813,0.372526,-0.024281,-0.025660,0.052736,-0.002071,0.008911,-0.013055,0.300510,0.308692,-0.621269,-0.654544,87.851694,1.759796,-128.984001
40921,NaN,-0.262824,9.831254,0.370544,-0.026423,-0.030022,0.028976,-0.001902,-0.000246,-0.010841,0.300479,0.308685,-0.621273,-0.654558,87.851768,1.761849,-128.987333
40922,NaN,-0.303140,9.846538,0.367415,0.001264,-0.001593,0.045365,-0.001020,0.007907,-0.009965,0.300479,0.308707,-0.621267,-0.654553,87.852460,1.763515,-128.985396
40923,NaN,-0.263071,9.880158,0.395078,-0.045245,-0.017392,0.078746,-0.006894,0.004774,-0.012620,0.300466,0.308715,-0.621244,-0.654577,87.849760,1.766695,-128.985892
40924,NaN,-0.278544,9.878163,0.375799,-0.020605,-0.017884,0.076507,-0.001794,0.004357,-0.010865,0.300458,0.308728,-0.621237,-0.654582,87.849644,1.768681,-128.985582
40925,NaN,-0.293927,9.876178,0.356268,0.003969,-0.018365,0.074267,-0.001793,0.004357,-0.010866,0.300441,0.308737,-0.621234,-0.654588,87.849861,1.770847,-128.986279
40926,NaN,-0.285278,9.873769,0.410119,-0.043658,0.008504,0.073612,-0.002462,0.005409,-0.011789,0.300432,0.308759,-0.621223,-0.654592,87.849806,1.773690,-128.985108
40927,NaN,-0.296153,9.876092,0.356804,0.004528,-0.017005,0.074269,-0.004776,0.006217,-0.009876,0.300429,0.308766,-0.621209,-0.654603,87.848347,1.775329,-128.984717
40928,NaN,-0.268699,9.879952,0.396442,-0.043812,-0.013951,0.078758,-0.000435,0.005703,-0.012458,0.300408,0.308788,-0.621208,-0.654604,87.849770,1.778550,-128.984729
40929,NaN,-0.284030,9.877966,0.376876,-0.019237,-0.014437,0.076516,-0.002476,0.001957,-0.008353,0.300393,0.308780,-0.621210,-0.654612,87.849555,1.779226,-128.986746
40930,NaN,-0.278755,9.854408,0.375185,-0.021335,-0.018794,0.052758,-0.007469,0.006975,-0.010132,0.300397,0.308784,-0.621186,-0.654631,87.846395,1.780765,-128.986098
40931,NaN,-0.265438,9.856327,0.395075,-0.045326,-0.016935,0.055007,0.003309,0.003942,-0.009111,0.300377,0.308794,-0.621203,-0.654619,87.849529,1.781917,-128.986995
40932,NaN,-0.299394,9.848069,0.389611,-0.020087,0.006450,0.047610,-0.003330,0.008714,-0.008054,0.300385,0.308806,-0.621194,-0.654619,87.849089,1.782517,-128.985147
40933,NaN,-0.267275,9.856276,0.395107,-0.044756,-0.015543,0.055011,0.001972,0.006047,-0.010958,0.300368,0.308827,-0.621201,-0.654610,87.851493,1.784773,-128.984878
40934,NaN,-0.282594,9.854291,0.375393,-0.020181,-0.016024,0.052766,-0.002077,0.005458,-0.009623,0.300361,0.308836,-0.621197,-0.654613,87.851608,1.786182,-128.984675
40935,NaN,-0.289706,9.877772,0.377631,-0.017443,-0.010274,0.076524,0.000326,0.005801,-0.008122,0.300355,0.308845,-0.621203,-0.654606,87.853067,1.786809,-128.984485
40936,NaN,-0.282610,9.903218,0.399374,-0.038912,-0.003332,0.102532,0.001974,0.006046,-0.010959,0.300340,0.308863,-0.621208,-0.654599,87.855176,1.788770,-128.984138
40937,NaN,-0.291469,9.877730,0.377364,-0.016786,-0.008897,0.076527,0.000413,0.006952,-0.004707,0.300349,0.308865,-0.621218,-0.654585,87.856707,1.787466,-128.983215
40938,NaN,-0.285837,9.854199,0.375342,-0.018901,-0.013293,0.052772,-0.003723,0.005212,-0.006787,0.300357,0.308865,-0.621211,-0.654588,87.855612,1.787205,-128.982429
40939,NaN,-0.292890,9.877673,0.377780,-0.016158,-0.007537,0.076529,-0.002074,0.005457,-0.009624,0.300349,0.308873,-0.621207,-0.654591,87.855688,1.788684,-128.982469
40940,NaN,-0.262537,9.836917,0.359414,-0.021428,-0.040853,0.034186,-0.002469,0.001956,-0.008356,0.300339,0.308868,-0.621207,-0.654598,87.855350,1.789263,-128.983847
40941,NaN,-0.288373,9.854095,0.376152,-0.017998,-0.011244,0.052777,-0.004391,0.006263,-0.007712,0.300343,0.308869,-0.621198,-0.654605,87.854115,1.789664,-128.983384
40942,NaN,-0.256008,9.862324,0.381916,-0.042624,-0.033210,0.060201,-0.001988,0.006608,-0.006210,0.300351,0.308869,-0.621198,-0.654601,87.854074,1.788972,-128.982645
40943,NaN,-0.289826,9.854033,0.376643,-0.017363,-0.009866,0.052779,-0.002364,0.006558,-0.008380,0.300350,0.308877,-0.621193,-0.654602,87.854004,1.789762,-128.982026
40944,NaN,-0.276268,9.855966,0.396651,-0.041294,-0.007973,0.055036,-0.004012,0.006312,-0.005543,0.300361,0.308869,-0.621189,-0.654605,87.852792,1.788640,-128.981689
40945,NaN,-0.278638,9.883785,0.364946,-0.014958,-0.027250,0.081708,0.002064,0.007198,-0.007545,0.300359,0.308883,-0.621199,-0.654590,87.855272,1.788965,-128.980686
40946,NaN,-0.277552,9.855923,0.396818,-0.040697,-0.006605,0.055039,-0.004304,0.007414,-0.004298,0.300382,0.308882,-0.621191,-0.654587,87.854050,1.787390,-128.978718
40947,NaN,-0.317454,9.871125,0.393829,-0.012972,0.021817,0.071358,-0.002654,0.007659,-0.007135,0.300389,0.308889,-0.621186,-0.654585,87.853834,1.787490,-128.977442
40948,NaN,-0.280466,9.883716,0.365404,-0.014036,-0.025209,0.081715,0.001377,0.004799,-0.005030,0.300396,0.308891,-0.621198,-0.654570,87.855685,1.786265,-128.976594
40949,NaN,-0.314038,9.875430,0.359815,0.011232,-0.001875,0.074278,0.000417,0.006952,-0.004709,0.300404,0.308893,-0.621208,-0.654556,87.857218,1.784962,-128.975670
40950,NaN,-0.265423,9.857821,0.416808,-0.063743,-0.002685,0.057305,-0.000940,0.005605,-0.003118,0.300421,0.308886,-0.621215,-0.654544,87.857788,1.782615,-128.974708
40951,NaN,-0.275650,9.860183,0.362991,-0.015589,-0.028249,0.057971,0.003696,0.003993,-0.006943,0.300408,0.308890,-0.621237,-0.654528,87.861146,1.782528,-128.975528
40952,NaN,-0.287007,9.879336,0.398956,-0.036395,0.002581,0.078798,-0.000751,-0.000099,-0.004340,0.300401,0.308868,-0.621253,-0.654527,87.861807,1.780766,-128.978142
40953,NaN,-0.276791,9.860157,0.362821,-0.014986,-0.026878,0.057976,0.001003,0.004749,-0.007201,0.300393,0.308871,-0.621264,-0.654518,87.863635,1.780842,-128.978534
40954,NaN,-0.263235,9.862118,0.382342,-0.038917,-0.024962,0.060240,0.002736,0.006146,-0.006622,0.300388,0.308874,-0.621281,-0.654503,87.866315,1.780289,-128.978695
40955,NaN,-0.278195,9.860125,0.362598,-0.014346,-0.025485,0.057981,-0.002651,0.007658,-0.007137,0.300395,0.308881,-0.621276,-0.654501,87.866100,1.780390,-128.977420
40956,NaN,-0.285083,9.883602,0.364941,-0.011479,-0.019699,0.081731,-0.001315,0.005555,-0.005289,0.300404,0.308874,-0.621280,-0.654496,87.866138,1.778978,-128.977233
40957,NaN,-0.293888,9.858096,0.343235,0.010623,-0.025325,0.055721,-0.002732,0.006507,-0.010553,0.300397,0.308888,-0.621271,-0.654502,87.865855,1.781011,-128.976690
40958,NaN,-0.280497,9.860041,0.363128,-0.013402,-0.023407,0.057987,-0.001021,0.004453,-0.006535,0.300393,0.308886,-0.621279,-0.654497,87.866778,1.780729,-128.977246
40959,NaN,-0.262455,9.866335,0.349011,-0.013817,-0.046568,0.063187,-0.001395,0.004403,-0.008705,0.300383,0.308889,-0.621280,-0.654499,87.867224,1.781659,-128.977869
40960,NaN,-0.288339,9.883485,0.365538,-0.010294,-0.016915,0.081737,-0.001688,0.005504,-0.007460,0.300381,0.308887,-0.621282,-0.654499,87.867353,1.781609,-128.978187
40961,NaN,-0.295421,9.830136,0.375622,-0.014238,-0.002600,0.029046,-0.002459,0.001954,-0.008360,0.300366,0.308879,-0.621284,-0.654507,87.867146,1.782289,-128.980206
40962,NaN,-0.269297,9.861896,0.383843,-0.036436,-0.019434,0.060262,-0.008830,0.002166,-0.005115,0.300377,0.308855,-0.621269,-0.654529,87.863195,1.781012,-128.981467
40963,NaN,-0.265381,9.866209,0.350361,-0.012577,-0.043810,0.063201,-0.000726,0.003352,-0.007781,0.300365,0.308853,-0.621276,-0.654528,87.864006,1.781390,-128.982672
40964,NaN,-0.252035,9.868156,0.370301,-0.036502,-0.041891,0.065473,-0.003793,0.004057,-0.010210,0.300355,0.308852,-0.621268,-0.654541,87.862846,1.782876,-128.983697
40965,NaN,-0.271738,9.861787,0.384920,-0.035498,-0.017364,0.060270,-0.004483,0.001657,-0.007695,0.300344,0.308839,-0.621265,-0.654555,87.861474,1.783168,-128.985871
40966,NaN,-0.268054,9.866105,0.351243,-0.011640,-0.041746,0.063211,-0.001098,0.003302,-0.009952,0.300332,0.308847,-0.621264,-0.654557,87.862052,1.784794,-128.986229
40967,NaN,-0.273567,9.861716,0.385433,-0.034912,-0.015998,0.060274,-0.004085,0.005158,-0.008965,0.300327,0.308850,-0.621256,-0.654566,87.860971,1.785888,-128.986425
40968,NaN,-0.274616,9.861669,0.385883,-0.034595,-0.015296,0.060276,-0.005228,0.001557,-0.012037,0.300305,0.308847,-0.621244,-0.654589,87.859117,1.788493,-128.988757
40969,NaN,-0.289840,9.859653,0.366296,-0.010026,-0.015838,0.058006,0.002072,0.007200,-0.007547,0.300302,0.308861,-0.621255,-0.654573,87.861601,1.788820,-128.987753
40970,NaN,-0.282683,9.885099,0.388380,-0.031548,-0.008787,0.084022,-0.006109,0.004860,-0.008300,0.300302,0.308858,-0.621242,-0.654587,87.859510,1.789506,-128.988024
40971,NaN,-0.330878,9.874745,0.363517,0.018018,0.013279,0.074259,-0.002057,0.005454,-0.009632,0.300294,0.308866,-0.621238,-0.654591,87.859595,1.790989,-128.988064
40972,NaN,-0.284348,9.885030,0.388920,-0.030937,-0.007432,0.084025,-0.001311,0.005554,-0.005290,0.300307,0.308869,-0.621239,-0.654582,87.859942,1.789971,-128.986596
40973,NaN,-0.299109,9.883023,0.369356,-0.006367,-0.007978,0.081752,-0.002375,0.003104,-0.004946,0.300307,0.308855,-0.621245,-0.654583,87.859806,1.788720,-128.987881
40974,NaN,-0.279166,9.861495,0.387074,-0.032882,-0.011159,0.060288,-0.001016,0.004453,-0.006537,0.300302,0.308852,-0.621253,-0.654579,87.860780,1.788451,-128.988531
40975,NaN,-0.267354,9.891310,0.375157,-0.030826,-0.029184,0.089254,-0.001683,0.005504,-0.007462,0.300300,0.308854,-0.621254,-0.654578,87.861082,1.788693,-128.988496
40976,NaN,-0.288500,9.835960,0.365648,-0.010453,-0.016156,0.034276,-0.005836,0.000306,-0.006107,0.300298,0.308831,-0.621249,-0.654595,87.858662,1.787848,-128.990845
40977,NaN,-0.267010,9.863397,0.407466,-0.056226,-0.007869,0.062570,0.002075,0.007200,-0.007548,0.300295,0.308844,-0.621260,-0.654580,87.861147,1.788175,-128.989839
40978,NaN,-0.271102,9.842265,0.351679,-0.010546,-0.038626,0.039508,-0.003708,0.005206,-0.006797,0.300301,0.308841,-0.621254,-0.654584,87.860069,1.787832,-128.989561
40979,NaN,-0.262212,9.839847,0.405827,-0.058081,-0.011628,0.038837,-0.006105,0.004858,-0.008302,0.300301,0.308837,-0.621240,-0.654599,87.857825,1.788541,-128.989914
40980,NaN,-0.297745,9.859319,0.368950,-0.006736,-0.008265,0.058018,-0.002745,0.003054,-0.007118,0.300293,0.308827,-0.621243,-0.654604,87.857526,1.788373,-128.991606
40981,NaN,-0.265524,9.867634,0.374766,-0.031449,-0.030174,0.065534,-0.003116,0.003004,-0.009290,0.300280,0.308824,-0.621240,-0.654614,87.856961,1.789608,-128.993042
40982,NaN,-0.318090,9.852889,0.383693,-0.005361,0.016930,0.052783,-0.002372,0.003103,-0.004947,0.300286,0.308812,-0.621243,-0.654615,87.856532,1.788161,-128.993614
40983,NaN,-0.291971,9.884702,0.391606,-0.027579,0.000164,0.084038,-0.001781,0.000902,-0.007440,0.300270,0.308799,-0.621251,-0.654621,87.856695,1.788291,-128.996214
40984,NaN,-0.286486,9.861188,0.389534,-0.029803,-0.004273,0.060303,-0.000422,0.002251,-0.009031,0.300251,0.308799,-0.621259,-0.654622,87.857830,1.789355,-128.997935
40985,NaN,-0.282554,9.865541,0.355692,-0.005968,-0.028670,0.063263,-0.001705,0.002052,-0.004022,0.300250,0.308779,-0.621271,-0.654621,87.858060,1.787552,-128.999803
40986,NaN,-0.268875,9.867508,0.375690,-0.029929,-0.026737,0.065548,-0.003705,0.005205,-0.006798,0.300257,0.308778,-0.621264,-0.654624,87.857101,1.787323,-128.999252
40987,NaN,-0.264958,9.871853,0.342157,-0.006097,-0.051136,0.068512,-0.004768,0.002755,-0.006454,0.300254,0.308764,-0.621261,-0.654635,87.855586,1.786928,-129.000770
40988,NaN,-0.278173,9.841962,0.354616,-0.007571,-0.031753,0.039535,-0.004371,0.006256,-0.007724,0.300260,0.308766,-0.621251,-0.654641,87.854419,1.787276,-129.000065
40989,NaN,-0.271045,9.867400,0.376950,-0.029055,-0.024669,0.065556,-0.004371,0.006256,-0.007724,0.300263,0.308768,-0.621242,-0.654647,87.853194,1.787684,-128.999605
40990,NaN,-0.271857,9.867359,0.377452,-0.028747,-0.023954,0.065559,-0.006100,0.004856,-0.008305,0.300261,0.308760,-0.621230,-0.654663,87.850988,1.788196,-129.000494
40991,NaN,-0.286928,9.865322,0.358251,-0.004180,-0.024526,0.063275,-0.005137,0.002705,-0.008627,0.300252,0.308752,-0.621222,-0.654678,87.849260,1.789044,-129.002087
40992,NaN,-0.298726,9.884366,0.394957,-0.024936,0.006404,0.084043,-0.006866,0.001305,-0.009208,0.300243,0.308742,-0.621208,-0.654700,87.846606,1.790233,-129.003799
40993,NaN,-0.297568,9.856449,0.427419,-0.050678,0.027024,0.057344,-0.007680,0.005756,-0.002050,0.300269,0.308720,-0.621198,-0.654709,87.843480,1.787382,-129.003502
40994,NaN,-0.281107,9.890673,0.381850,-0.025066,-0.016067,0.089300,-0.000121,0.001152,-0.010278,0.300249,0.308725,-0.621202,-0.654712,87.844445,1.789113,-129.004803
40995,NaN,-0.275551,9.867155,0.380102,-0.027278,-0.020540,0.065571,-0.008817,0.002155,-0.005125,0.300256,0.308698,-0.621188,-0.654735,87.840601,1.787944,-129.006636
40996,NaN,-0.280678,9.862718,0.414670,-0.050564,0.005240,0.062602,-0.004098,0.001703,-0.005530,0.300256,0.308685,-0.621188,-0.654741,87.839681,1.787158,-129.007783
40997,NaN,-0.272077,9.871481,0.347274,-0.003213,-0.044261,0.068547,-0.005727,0.004905,-0.006134,0.300263,0.308675,-0.621179,-0.654751,87.837656,1.786627,-129.008062
40998,NaN,-0.281925,9.862643,0.415596,-0.050022,0.006629,0.062604,-0.003701,0.005205,-0.006800,0.300265,0.308674,-0.621175,-0.654754,87.837067,1.786562,-129.007900
40999,NaN,-0.263746,9.869005,0.401773,-0.050475,-0.016513,0.067870,-0.003997,0.006305,-0.005553,0.300276,0.308670,-0.621170,-0.654755,87.836058,1.785728,-129.007364
41000,NaN,-0.278544,9.866984,0.382357,-0.025789,-0.017098,0.065581,-0.003034,0.004154,-0.005874,0.300282,0.308659,-0.621169,-0.654759,87.835010,1.784602,-129.007794
41001,NaN,-0.277614,9.839079,0.414107,-0.051532,0.003516,0.038879,0.002675,0.005004,-0.010041,0.300264,0.308674,-0.621181,-0.654749,87.837798,1.786310,-129.008100
41002,NaN,-0.280176,9.866934,0.382454,-0.025075,-0.015746,0.065585,-0.004762,0.002753,-0.006457,0.300270,0.308660,-0.621172,-0.654761,87.835646,1.785523,-129.008787
41003,NaN,-0.320273,9.881984,0.379279,0.002754,0.012663,0.081749,0.000353,0.005804,-0.008130,0.300264,0.308668,-0.621179,-0.654754,87.837119,1.786153,-129.008593
41004,NaN,-0.267576,9.868878,0.402358,-0.048726,-0.013101,0.067884,0.000551,0.000102,-0.009354,0.300239,0.308664,-0.621190,-0.654756,87.838450,1.787213,-129.011206
41005,NaN,-0.307807,9.883921,0.399111,-0.020892,0.015309,0.084042,-0.003401,0.004103,-0.008048,0.300234,0.308661,-0.621187,-0.654764,87.837741,1.787759,-129.011985
41006,NaN,-0.264554,9.873228,0.368822,-0.024541,-0.036836,0.070869,-0.002069,0.002002,-0.006197,0.300232,0.308648,-0.621191,-0.654767,87.837382,1.786930,-129.013336
41007,NaN,-0.283986,9.866796,0.383201,-0.023495,-0.012326,0.065594,-0.002069,0.002002,-0.006197,0.300223,0.308634,-0.621198,-0.654771,87.837401,1.786371,-129.015279
41008,NaN,-0.284605,9.866770,0.383399,-0.023105,-0.011632,0.065596,-0.002069,0.002002,-0.006197,0.300218,0.308617,-0.621204,-0.654776,87.837015,1.785410,-129.017332
41009,NaN,-0.266407,9.873142,0.369783,-0.023568,-0.034771,0.070879,-0.009477,0.003202,-0.006055,0.300226,0.308595,-0.621185,-0.654800,87.832810,1.784795,-129.018584
41010,NaN,-0.260776,9.849636,0.367995,-0.025754,-0.039271,0.047158,0.001219,-0.000948,-0.008429,0.300201,0.308586,-0.621201,-0.654800,87.834452,1.785306,-129.021555
41011,NaN,-0.253754,9.875075,0.390178,-0.047212,-0.032122,0.073185,-0.006091,0.004853,-0.008310,0.300201,0.308583,-0.621187,-0.654815,87.832215,1.786018,-129.021910
41012,NaN,-0.287562,9.866616,0.385156,-0.021907,-0.008910,0.065601,-0.005425,0.003802,-0.007385,0.300208,0.308582,-0.621174,-0.654825,87.830380,1.786300,-129.021429
41013,NaN,-0.282057,9.843100,0.383504,-0.024138,-0.013412,0.041880,-0.005792,0.003753,-0.009558,0.300200,0.308579,-0.621161,-0.654842,87.828294,1.787703,-129.022441
41014,NaN,-0.270511,9.872945,0.372054,-0.022100,-0.031376,0.070894,-0.005126,0.002702,-0.008632,0.300198,0.308579,-0.621149,-0.654854,87.826616,1.788673,-129.022647
41015,NaN,-0.296438,9.889950,0.388904,-0.018521,-0.001681,0.089327,-0.004758,0.002751,-0.006459,0.300195,0.308565,-0.621146,-0.654865,87.825107,1.788281,-129.024165
41016,NaN,-0.323692,9.858021,0.381553,0.004309,0.016333,0.058010,-0.004092,0.001701,-0.005534,0.300200,0.308551,-0.621143,-0.654872,87.823779,1.787294,-129.024999
41017,NaN,-0.278855,9.896304,0.375682,-0.018666,-0.024145,0.094623,-0.006484,0.001350,-0.007043,0.300193,0.308531,-0.621135,-0.654892,87.821255,1.787205,-129.027332
41018,NaN,-0.273026,9.872798,0.374114,-0.020813,-0.028668,0.070905,-0.006415,0.002499,-0.003623,0.300210,0.308508,-0.621127,-0.654903,87.818343,1.784933,-129.027916
41019,NaN,-0.273562,9.872753,0.374922,-0.020521,-0.027983,0.070907,-0.010138,0.004249,-0.006984,0.300219,0.308492,-0.621103,-0.654930,87.813777,1.784873,-129.028586
41020,NaN,-0.260051,9.874705,0.395363,-0.044553,-0.025989,0.073216,-0.003792,0.000601,-0.006782,0.300208,0.308476,-0.621105,-0.654939,87.813091,1.784740,-129.030946
41021,NaN,-0.268623,9.849208,0.373747,-0.022521,-0.031795,0.047193,-0.003395,0.004103,-0.008050,0.300203,0.308473,-0.621102,-0.654947,87.812385,1.785288,-129.031723
41022,NaN,-0.222286,9.859601,0.399587,-0.071586,-0.052347,0.057112,-0.006751,0.005902,-0.009238,0.300210,0.308484,-0.621080,-0.654959,87.809983,1.786763,-129.030145
41023,NaN,-0.249863,9.827657,0.392251,-0.048789,-0.034340,0.025787,-0.002998,0.007605,-0.009319,0.300211,0.308497,-0.621070,-0.654962,87.809567,1.788113,-129.028944
41024,NaN,-0.291930,9.870543,0.357645,0.005192,-0.025864,0.068611,-0.007713,0.008052,-0.008918,0.300230,0.308506,-0.621041,-0.654976,87.806035,1.789011,-129.026456
41025,NaN,-0.283530,9.868051,0.411601,-0.042285,0.001236,0.067922,0.001952,0.004911,-0.014389,0.300197,0.308534,-0.621044,-0.654975,87.808403,1.793206,-129.026909
41026,NaN,-0.284766,9.868005,0.411853,-0.042014,0.001926,0.067923,-0.007412,0.006951,-0.010167,0.300204,0.308545,-0.621018,-0.654991,87.805570,1.795090,-129.025370
41027,NaN,-0.306291,9.889426,0.394569,-0.014914,0.006516,0.089331,0.001422,0.008258,-0.008474,0.300202,0.308564,-0.621024,-0.654978,87.807699,1.795972,-129.023776
41028,NaN,-0.319494,9.859497,0.406292,-0.016335,0.025809,0.060301,0.002753,0.006158,-0.006622,0.300203,0.308575,-0.621037,-0.654960,87.810332,1.795573,-129.022716
41029,NaN,-0.322006,9.887390,0.374400,0.009994,0.006582,0.087020,0.000362,0.005806,-0.008132,0.300197,0.308583,-0.621043,-0.654953,87.811809,1.796204,-129.022520
41030,NaN,-0.283320,9.872375,0.377603,-0.017232,-0.020465,0.070932,0.003418,0.005108,-0.005696,0.300199,0.308590,-0.621061,-0.654933,87.814706,1.795238,-129.021763
41031,NaN,-0.283857,9.872368,0.377396,-0.016939,-0.019780,0.070934,0.000429,0.006955,-0.004711,0.300207,0.308591,-0.621070,-0.654919,87.816245,1.793936,-129.020834
41032,NaN,-0.265599,9.878818,0.362979,-0.017441,-0.042896,0.076256,0.004481,0.007560,-0.006038,0.300208,0.308607,-0.621091,-0.654892,87.820254,1.793410,-129.019285
41033,NaN,-0.245819,9.857359,0.380233,-0.043961,-0.046118,0.054859,0.001628,0.002557,-0.009701,0.300184,0.308612,-0.621103,-0.654888,87.822397,1.794869,-129.020983
41034,NaN,-0.274845,9.853312,0.340953,0.004908,-0.048068,0.050234,-0.007277,0.009246,-0.003328,0.300224,0.308610,-0.621083,-0.654890,87.819336,1.792734,-129.017569
41035,NaN,-0.265842,9.850853,0.394795,-0.042559,-0.020948,0.049543,0.003817,0.008610,-0.006965,0.300225,0.308630,-0.621098,-0.654867,87.822844,1.792758,-129.015741
41036,NaN,-0.268325,9.878750,0.362817,-0.016226,-0.040169,0.076269,0.001030,0.004756,-0.007207,0.300222,0.308637,-0.621107,-0.654856,87.824663,1.792808,-129.015370
41037,NaN,-0.294261,9.895728,0.379096,-0.012606,-0.010449,0.094657,0.000066,0.006905,-0.006887,0.300223,0.308644,-0.621112,-0.654846,87.825992,1.792751,-129.014516
41038,NaN,-0.269807,9.878714,0.362709,-0.015636,-0.038788,0.076276,0.000367,0.005805,-0.008134,0.300219,0.308654,-0.621118,-0.654838,87.827484,1.793310,-129.013967
41039,NaN,-0.295882,9.895680,0.379090,-0.012012,-0.009066,0.094659,-0.001359,0.004403,-0.008719,0.300210,0.308658,-0.621120,-0.654840,87.827949,1.794247,-129.014586
41040,NaN,-0.277904,9.902119,0.365023,-0.012438,-0.032188,0.099993,-0.000597,0.007954,-0.007814,0.300216,0.308670,-0.621118,-0.654832,87.828642,1.794493,-129.012802
41041,NaN,-0.284725,9.848712,0.374903,-0.016461,-0.018148,0.047239,-0.002420,0.001951,-0.008377,0.300202,0.308663,-0.621121,-0.654840,87.828456,1.795181,-129.014818
41042,NaN,-0.279377,9.902049,0.365798,-0.011797,-0.030834,0.099998,-0.010727,0.006438,-0.004500,0.300235,0.308651,-0.621090,-0.654859,87.823283,1.793628,-129.012862
41043,NaN,-0.267134,9.855099,0.362091,-0.016609,-0.040611,0.052581,-0.003684,0.005199,-0.006809,0.300238,0.308647,-0.621086,-0.654864,87.822432,1.793489,-129.012984
41044,NaN,-0.280663,9.901975,0.366801,-0.011146,-0.029468,0.100003,-0.002719,0.003050,-0.007130,0.300237,0.308642,-0.621084,-0.654868,87.821789,1.793282,-129.013544
41045,NaN,-0.273144,9.850581,0.396588,-0.039441,-0.014117,0.049568,-0.003019,0.004149,-0.005883,0.300238,0.308633,-0.621085,-0.654871,87.821300,1.792589,-129.014246
41046,NaN,-0.287931,9.848532,0.377179,-0.014872,-0.014778,0.047247,-0.004744,0.002746,-0.006468,0.300245,0.308627,-0.621077,-0.654878,87.819689,1.792254,-129.014188
41047,NaN,-0.261986,9.880448,0.385401,-0.037081,-0.031340,0.078626,-0.003018,0.004149,-0.005883,0.300246,0.308618,-0.621078,-0.654881,87.819201,1.791562,-129.014890
41048,NaN,-0.270434,9.854949,0.363719,-0.015040,-0.037223,0.052597,-0.003381,0.004100,-0.008058,0.300246,0.308618,-0.621072,-0.654887,87.818322,1.791980,-129.014946
41049,NaN,-0.296386,9.871873,0.380683,-0.011398,-0.007492,0.070959,-0.009459,0.003188,-0.006071,0.300253,0.308596,-0.621053,-0.654912,87.814126,1.791374,-129.016202
41050,NaN,-0.296942,9.871835,0.381257,-0.011130,-0.006798,0.070960,-0.002354,0.003099,-0.004956,0.300256,0.308586,-0.621058,-0.654910,87.814156,1.790179,-129.016916
41051,NaN,-0.264461,9.880315,0.387131,-0.035897,-0.028589,0.078638,-0.002354,0.003099,-0.004956,0.300256,0.308572,-0.621065,-0.654911,87.814031,1.788933,-129.018199
41052,NaN,-0.279291,9.878270,0.367575,-0.011312,-0.029260,0.076314,-0.002415,0.001951,-0.008379,0.300251,0.308573,-0.621061,-0.654916,87.813650,1.789631,-129.018474
41053,NaN,-0.278324,9.850314,0.399617,-0.037052,-0.008681,0.049584,-0.004440,0.001647,-0.007717,0.300241,0.308559,-0.621059,-0.654930,87.812301,1.789934,-129.020649
41054,NaN,-0.274404,9.854753,0.366046,-0.013267,-0.033143,0.052614,-0.002715,0.003050,-0.007131,0.300240,0.308555,-0.621057,-0.654933,87.811851,1.789866,-129.021100
41055,NaN,-0.262682,9.884668,0.354353,-0.011208,-0.051016,0.081680,-0.002051,0.002000,-0.006204,0.300232,0.308542,-0.621064,-0.654937,87.811878,1.789311,-129.023039
41056,NaN,-0.286691,9.873670,0.402711,-0.033544,-0.001390,0.073293,-0.004379,0.002795,-0.004294,0.300242,0.308525,-0.621062,-0.654942,87.810373,1.787560,-129.023566
41057,NaN,-0.278031,9.882585,0.335471,0.013684,-0.050993,0.079357,-0.007792,0.003441,-0.008910,0.300239,0.308516,-0.621044,-0.654965,87.807135,1.788585,-129.024739
41058,NaN,-0.262797,9.856640,0.387453,-0.036296,-0.029077,0.054955,-0.002352,0.003099,-0.004957,0.300244,0.308505,-0.621048,-0.654964,87.806899,1.787237,-129.025277
41059,NaN,-0.265116,9.884550,0.355829,-0.009972,-0.048283,0.081695,0.000639,0.001256,-0.005939,0.300230,0.308492,-0.621065,-0.654960,87.808454,1.786514,-129.027636
41060,NaN,-0.289090,9.873542,0.404140,-0.032384,0.001339,0.073297,-0.006308,0.007091,-0.003654,0.300260,0.308491,-0.621050,-0.654961,87.806282,1.784819,-129.025044
41061,NaN,-0.282992,9.850064,0.402497,-0.034659,-0.003234,0.049596,-0.005644,0.006041,-0.002727,0.300281,0.308474,-0.621045,-0.654964,87.804325,1.782362,-129.024592
41062,NaN,-0.278724,9.854516,0.369140,-0.010895,-0.027697,0.052634,-0.006005,0.005992,-0.004902,0.300301,0.308468,-0.621033,-0.654970,87.802124,1.781108,-129.023411
41063,NaN,-0.271471,9.879945,0.391691,-0.032296,-0.020406,0.078671,-0.005342,0.004942,-0.003975,0.300314,0.308452,-0.621028,-0.654976,87.800320,1.779340,-129.023615
41064,NaN,-0.290798,9.873407,0.406213,-0.031171,0.004100,0.073300,-0.003013,0.004149,-0.005885,0.300316,0.308442,-0.621029,-0.654978,87.799785,1.778470,-129.024375
41065,NaN,-0.291396,9.873378,0.406498,-0.030877,0.004786,0.073301,-0.003013,0.004149,-0.005885,0.300317,0.308433,-0.621030,-0.654981,87.799299,1.777779,-129.025076
41066,NaN,-0.266678,9.856419,0.390415,-0.033983,-0.023590,0.054978,-0.002350,0.003099,-0.004958,0.300320,0.308422,-0.621035,-0.654980,87.799283,1.776573,-129.025732
41067,NaN,-0.287922,9.877808,0.373300,-0.006851,-0.018990,0.076344,-0.007123,0.002391,-0.007985,0.300315,0.308408,-0.621022,-0.655001,87.796411,1.777046,-129.027485
41068,NaN,-0.263160,9.860845,0.357505,-0.009931,-0.047379,0.058026,-0.004015,0.002843,-0.002121,0.300333,0.308387,-0.621024,-0.655001,87.795264,1.774144,-129.027749
41069,NaN,-0.279416,9.875264,0.427917,-0.053970,0.008883,0.075640,-0.003675,0.005198,-0.006813,0.300335,0.308384,-0.621020,-0.655005,87.794418,1.774007,-129.027869
41070,NaN,-0.262521,9.832847,0.389923,-0.035365,-0.026128,0.031290,-0.003770,0.000597,-0.006793,0.300328,0.308368,-0.621021,-0.655016,87.793383,1.773692,-129.029988
41071,NaN,-0.271430,9.884198,0.360814,-0.006463,-0.040053,0.081734,-0.003674,0.005198,-0.006813,0.300330,0.308364,-0.621017,-0.655020,87.792537,1.773556,-129.030107
41072,NaN,-0.284595,9.854207,0.372896,-0.007946,-0.020829,0.052653,-0.000381,0.002257,-0.009043,0.300312,0.308364,-0.621025,-0.655021,87.793619,1.774586,-129.031776
41073,NaN,-0.271294,9.856193,0.392914,-0.031917,-0.018786,0.054995,-0.004336,0.006247,-0.007741,0.300315,0.308365,-0.621015,-0.655028,87.792412,1.775004,-129.031315
41074,NaN,-0.272153,9.856156,0.393266,-0.031673,-0.018078,0.054997,-0.003068,0.003001,-0.009310,0.300302,0.308365,-0.621014,-0.655036,87.792182,1.776321,-129.032599
41075,NaN,-0.268348,9.860634,0.359477,-0.007933,-0.042554,0.058050,0.000379,0.005809,-0.008136,0.300295,0.308374,-0.621020,-0.655029,87.793669,1.776955,-129.032397
41076,NaN,-0.280263,9.879539,0.395712,-0.028495,-0.011422,0.078697,-0.002707,0.003050,-0.007135,0.300292,0.308368,-0.621020,-0.655033,87.793325,1.776896,-129.033191
41077,NaN,-0.288736,9.854049,0.373879,-0.006524,-0.017385,0.052661,-0.001343,0.004405,-0.008724,0.300282,0.308371,-0.621022,-0.655034,87.793800,1.777835,-129.033807
41078,NaN,-0.263050,9.886006,0.382115,-0.028757,-0.033864,0.084097,-0.005395,0.003793,-0.007402,0.300289,0.308372,-0.621009,-0.655043,87.792024,1.778193,-129.033136
41079,NaN,-0.310822,9.875392,0.357025,0.020881,-0.012117,0.074014,-0.003009,0.004148,-0.005887,0.300290,0.308363,-0.621010,-0.655045,87.791541,1.777504,-129.033836
41080,NaN,-0.290868,9.853948,0.374906,-0.005675,-0.015373,0.052665,-0.003576,0.009797,-0.006835,0.300315,0.308384,-0.620994,-0.655039,87.790760,1.777564,-129.029650
41081,NaN,-0.269842,9.881396,0.417014,-0.051319,-0.006662,0.081050,-0.002402,0.001951,-0.008384,0.300301,0.308377,-0.620997,-0.655047,87.790584,1.778255,-129.031662
41082,NaN,-0.292283,9.853883,0.375499,-0.005067,-0.014011,0.052667,-0.004277,0.007393,-0.004319,0.300324,0.308376,-0.620988,-0.655044,87.789325,1.776671,-129.029607
41083,NaN,-0.292811,9.853848,0.376016,-0.004774,-0.013328,0.052668,-0.006661,0.007037,-0.005835,0.300340,0.308371,-0.620973,-0.655054,87.786801,1.776015,-129.028650
41084,NaN,-0.265147,9.857859,0.416088,-0.052923,-0.009892,0.057364,-0.003007,0.004147,-0.005888,0.300345,0.308360,-0.620973,-0.655057,87.785970,1.774990,-129.029218
41085,NaN,-0.267549,9.885787,0.384639,-0.026599,-0.029079,0.084118,-0.001946,0.006601,-0.006228,0.300351,0.308361,-0.620973,-0.655053,87.786139,1.774550,-129.028519
41086,NaN,-0.287114,9.879213,0.398941,-0.025465,-0.004581,0.078711,-0.002399,0.001951,-0.008385,0.300337,0.308353,-0.620976,-0.655061,87.785967,1.775099,-129.030571
41087,NaN,-0.270143,9.836844,0.360751,-0.006926,-0.039662,0.034394,-0.001284,0.005552,-0.005301,0.300341,0.308349,-0.620982,-0.655055,87.786498,1.774105,-129.030453
41088,NaN,-0.263202,9.862283,0.382761,-0.028362,-0.032272,0.060436,0.001445,0.008263,-0.008478,0.300338,0.308370,-0.620989,-0.655040,87.789026,1.775079,-129.028918
41089,NaN,-0.257516,9.838836,0.380394,-0.030667,-0.036889,0.036750,0.001047,0.004761,-0.007210,0.300330,0.308373,-0.621001,-0.655031,87.790877,1.775160,-129.029295
41090,NaN,-0.264852,9.862243,0.382654,-0.027808,-0.030882,0.060442,-0.001998,0.005454,-0.009654,0.300322,0.308383,-0.620998,-0.655033,87.791207,1.776671,-129.029145
41091,NaN,-0.284719,9.855662,0.396729,-0.026685,-0.006407,0.055027,0.002054,0.006068,-0.010975,0.300305,0.308404,-0.621005,-0.655025,87.793656,1.778937,-129.028857
41092,NaN,-0.285706,9.855641,0.396536,-0.026367,-0.005746,0.055028,0.001447,0.008263,-0.008479,0.300312,0.308431,-0.621005,-0.655008,87.795604,1.779834,-129.025708
41093,NaN,-0.288420,9.883575,0.364677,-0.000045,-0.024930,0.081786,0.001752,0.007165,-0.009728,0.300303,0.308451,-0.621011,-0.654997,87.797900,1.781410,-129.024764
41094,NaN,-0.294144,9.879025,0.398474,-0.023238,0.000943,0.078717,0.000031,0.005760,-0.010316,0.300292,0.308472,-0.621012,-0.654991,87.799497,1.783449,-129.023916
41095,NaN,-0.269858,9.862128,0.382142,-0.026380,-0.027472,0.060456,0.000031,0.005760,-0.010316,0.300279,0.308486,-0.621014,-0.654989,87.800783,1.785331,-129.023789
41096,NaN,-0.303606,9.853506,0.376415,-0.001054,-0.004381,0.052678,-0.000315,0.003404,-0.005623,0.300278,0.308485,-0.621024,-0.654980,87.802137,1.784670,-129.024028
41097,NaN,-0.290227,9.855534,0.395926,-0.025021,-0.002309,0.055033,0.006164,0.007829,-0.008872,0.300266,0.308511,-0.621045,-0.654953,87.806974,1.785770,-129.022683
41098,NaN,-0.286383,9.860034,0.362000,-0.001240,-0.026810,0.058108,-0.006046,0.004836,-0.008337,0.300272,0.308509,-0.621029,-0.654968,87.804448,1.786288,-129.022372
41099,NaN,-0.293553,9.883437,0.364305,0.001658,-0.020811,0.081795,0.004096,0.004069,-0.004766,0.300266,0.308507,-0.621055,-0.654947,87.808035,1.784955,-129.023091
41100,NaN,-0.294056,9.883426,0.364196,0.001935,-0.020138,0.081797,-0.002246,0.007696,-0.004984,0.300287,0.308516,-0.621050,-0.654937,87.808088,1.783938,-129.020319
41101,NaN,-0.294555,9.883402,0.364451,0.002228,-0.019454,0.081798,-0.003306,0.005242,-0.004644,0.300296,0.308507,-0.621051,-0.654937,87.807455,1.782561,-129.020363
41102,NaN,-0.274569,9.861987,0.382410,-0.024384,-0.022702,0.060474,-0.004323,0.006241,-0.007750,0.300306,0.308517,-0.621038,-0.654939,87.806400,1.783156,-129.018534
41103,NaN,-0.267609,9.887421,0.404814,-0.045742,-0.015298,0.086518,-0.003305,0.005242,-0.004644,0.300315,0.308508,-0.621038,-0.654939,87.805768,1.781779,-129.018578
41104,NaN,-0.282314,9.885351,0.385278,-0.021166,-0.016019,0.084161,-0.002695,0.003047,-0.007141,0.300314,0.308504,-0.621037,-0.654942,87.805310,1.781738,-129.018935
41105,NaN,-0.276218,9.861903,0.383380,-0.023484,-0.020659,0.060480,-0.004221,0.008535,-0.000900,0.300347,0.308492,-0.621035,-0.654935,87.804215,1.778290,-129.017010
41106,NaN,-0.295673,9.855294,0.397860,-0.022283,0.003813,0.055039,-0.004371,0.005094,-0.011177,0.300342,0.308502,-0.621020,-0.654947,87.802689,1.780398,-129.016730
41107,NaN,-0.263527,9.863874,0.404018,-0.047093,-0.017885,0.062846,-0.004270,0.007388,-0.004326,0.300360,0.308497,-0.621014,-0.654947,87.801542,1.778886,-129.015537
41108,NaN,-0.278199,9.861808,0.384391,-0.022469,-0.018625,0.060487,-0.000005,0.002307,-0.006872,0.300357,0.308495,-0.621021,-0.654943,87.802345,1.778549,-129.015921
41109,NaN,-0.252466,9.893827,0.392585,-0.044666,-0.034988,0.091981,-0.004625,0.007338,-0.006503,0.300369,0.308496,-0.621011,-0.654946,87.800992,1.778283,-129.014804
41110,NaN,-0.273067,9.838329,0.382671,-0.024500,-0.022585,0.036810,-0.001631,0.005501,-0.007482,0.300371,0.308502,-0.621010,-0.654943,87.801347,1.778509,-129.014079
41111,NaN,-0.272761,9.887177,0.407327,-0.043232,-0.009825,0.086536,-0.006345,0.005932,-0.007093,0.300379,0.308498,-0.620996,-0.654955,87.798984,1.778550,-129.013781
41112,NaN,-0.281025,9.861680,0.385620,-0.021246,-0.015901,0.060494,-0.000970,0.004453,-0.006553,0.300384,0.308501,-0.620997,-0.654950,87.799377,1.778134,-129.012979
41113,NaN,-0.286632,9.857105,0.419679,-0.044361,0.009975,0.057406,-0.002645,0.006500,-0.010590,0.300377,0.308515,-0.620988,-0.654955,87.799141,1.780189,-129.012432
41114,NaN,-0.294069,9.880487,0.422143,-0.041393,0.015998,0.081085,-0.002596,0.007646,-0.007164,0.300389,0.308523,-0.620981,-0.654952,87.798708,1.780109,-129.010507
41115,NaN,-0.297615,9.859551,0.366072,0.003945,-0.015262,0.058132,0.004712,0.001876,-0.007262,0.300367,0.308523,-0.621009,-0.654936,87.802607,1.780157,-129.012535
41116,NaN,-0.303009,9.854988,0.399918,-0.019090,0.010621,0.055041,-0.003962,0.006289,-0.005576,0.300382,0.308518,-0.621002,-0.654938,87.801294,1.779026,-129.011656
41117,NaN,-0.265836,9.868151,0.372047,-0.020504,-0.036255,0.065964,-0.001581,0.006647,-0.004058,0.300394,0.308514,-0.621007,-0.654930,87.801675,1.777344,-129.010881
41118,NaN,-0.310614,9.878359,0.402450,-0.015733,0.017286,0.078717,0.000093,0.006907,-0.006895,0.300413,0.308530,-0.621002,-0.654918,87.802189,1.776971,-129.007731
41119,NaN,-0.252914,9.870169,0.391893,-0.044031,-0.033518,0.068340,0.000447,0.006956,-0.004717,0.300421,0.308532,-0.621012,-0.654904,87.803736,1.775674,-129.006794
41120,NaN,-0.253278,9.870160,0.391869,-0.043744,-0.032843,0.068344,-0.000260,0.004551,-0.002199,0.300439,0.308525,-0.621023,-0.654888,87.804829,1.772948,-129.005801
41121,NaN,-0.300723,9.859446,0.366347,0.005919,-0.011217,0.058137,-0.001933,0.006597,-0.006236,0.300445,0.308526,-0.621024,-0.654885,87.805005,1.772512,-129.005102
41122,NaN,-0.249627,9.874667,0.358330,-0.019806,-0.056644,0.071449,-0.003653,0.005191,-0.006826,0.300445,0.308523,-0.621022,-0.654888,87.804471,1.772433,-129.005375
41123,NaN,-0.287991,9.861446,0.386469,-0.017798,-0.008405,0.060510,0.002781,0.006168,-0.006624,0.300441,0.308532,-0.621037,-0.654871,87.807340,1.772210,-129.004930
41124,NaN,-0.283889,9.865979,0.352516,0.005937,-0.032943,0.063612,-0.001932,0.006597,-0.006237,0.300458,0.308542,-0.621032,-0.654864,87.807238,1.771711,-129.002553
41125,NaN,-0.294052,9.856853,0.420473,-0.040564,0.018141,0.057411,-0.001931,0.006597,-0.006237,0.300464,0.308543,-0.621032,-0.654860,87.807415,1.771276,-129.001854
41126,NaN,-0.271230,9.867983,0.372617,-0.017714,-0.030160,0.065990,-0.000257,0.006857,-0.009074,0.300466,0.308563,-0.621029,-0.654852,87.808431,1.772428,-128.999880
41127,NaN,-0.290923,9.861351,0.386699,-0.016560,-0.005700,0.060514,-0.000657,0.003354,-0.007804,0.300455,0.308561,-0.621036,-0.654852,87.809280,1.772819,-129.001072
41128,NaN,-0.272790,9.867941,0.372586,-0.017105,-0.028810,0.065995,0.001723,0.003713,-0.006285,0.300455,0.308567,-0.621048,-0.654838,87.811327,1.772337,-129.000555
41129,NaN,-0.287620,9.865864,0.352712,0.007444,-0.029554,0.063621,-0.001316,0.004402,-0.008735,0.300445,0.308570,-0.621050,-0.654839,87.811816,1.773284,-129.001167
41130,NaN,-0.266883,9.893366,0.394652,-0.038093,-0.020640,0.092048,0.000405,0.005809,-0.008145,0.300442,0.308579,-0.621055,-0.654832,87.813134,1.773714,-129.000580
41131,NaN,-0.282809,9.842399,0.350581,0.005438,-0.033546,0.039954,-0.001974,0.005449,-0.009665,0.300434,0.308588,-0.621051,-0.654835,87.813263,1.775217,-129.000612
41132,NaN,-0.294932,9.861230,0.386738,-0.015032,-0.002287,0.060518,0.000757,0.005858,-0.005967,0.300437,0.308594,-0.621061,-0.654822,87.815033,1.774622,-128.999748
41133,NaN,-0.253193,9.878998,0.324684,0.006915,-0.074357,0.074605,0.000406,0.005809,-0.008146,0.300431,0.308602,-0.621067,-0.654814,87.816534,1.775263,-128.999541
41134,NaN,-0.277568,9.867801,0.372764,-0.015286,-0.024691,0.066009,-0.003648,0.005188,-0.006829,0.300438,0.308602,-0.621060,-0.654817,87.815585,1.775025,-128.998907
41135,NaN,-0.285867,9.842293,0.351057,0.006621,-0.030815,0.039962,-0.003999,0.005139,-0.009008,0.300434,0.308604,-0.621052,-0.654826,87.814549,1.776145,-128.999103
41136,NaN,-0.285808,9.891136,0.375687,-0.012023,-0.017953,0.089682,-0.003246,0.008691,-0.008100,0.300448,0.308620,-0.621039,-0.654824,87.813834,1.776702,-128.996405
41137,NaN,-0.294136,9.865630,0.353878,0.009883,-0.024081,0.063634,-0.002372,0.001946,-0.008397,0.300433,0.308613,-0.621042,-0.654832,87.813674,1.777401,-128.998416
41138,NaN,-0.306275,9.884444,0.390220,-0.010506,0.007220,0.084188,-0.002586,0.007643,-0.007170,0.300440,0.308615,-0.621038,-0.654831,87.813342,1.777171,-128.997555
41139,NaN,-0.300461,9.861008,0.388140,-0.012856,0.002527,0.060521,-0.000651,0.003354,-0.007807,0.300429,0.308613,-0.621045,-0.654831,87.814194,1.777563,-128.998747
41140,NaN,-0.301167,9.860975,0.388439,-0.012484,0.003210,0.060521,-0.005673,0.004877,-0.006173,0.300442,0.308605,-0.621033,-0.654841,87.811840,1.776766,-128.998407
41141,NaN,-0.308370,9.884347,0.391032,-0.009543,0.009274,0.084188,-0.002019,0.001996,-0.006219,0.300433,0.308591,-0.621040,-0.654844,87.811885,1.776219,-129.000342
41142,NaN,-0.258165,9.850775,0.358652,-0.016257,-0.048341,0.047863,-0.000959,0.004451,-0.006558,0.300434,0.308589,-0.621044,-0.654840,87.812418,1.775764,-129.000428
41143,NaN,-0.277650,9.844120,0.372824,-0.015090,-0.023889,0.042362,-0.002018,0.001996,-0.006219,0.300426,0.308576,-0.621051,-0.654844,87.812463,1.775217,-129.002363
41144,NaN,-0.303778,9.860865,0.389206,-0.011311,0.005971,0.060521,-0.000650,0.003354,-0.007807,0.300414,0.308575,-0.621060,-0.654842,87.813591,1.775651,-129.003546
41145,NaN,-0.279134,9.844065,0.373178,-0.014547,-0.022500,0.042366,-0.004303,0.006234,-0.007762,0.300417,0.308577,-0.621051,-0.654848,87.812402,1.776080,-129.003086
41146,NaN,-0.278824,9.892916,0.397679,-0.033157,-0.009583,0.092083,0.000051,0.003453,-0.003449,0.300423,0.308563,-0.621065,-0.654838,87.813467,1.773769,-129.003713
41147,NaN,-0.286889,9.867416,0.375882,-0.011262,-0.015739,0.066033,-0.006021,0.004826,-0.008354,0.300423,0.308560,-0.621051,-0.654853,87.811268,1.774506,-129.004073
41148,NaN,-0.266925,9.846055,0.393725,-0.037879,-0.018993,0.044760,0.001420,0.004812,-0.005038,0.300428,0.308562,-0.621064,-0.654837,87.813347,1.773359,-129.003389
41149,NaN,-0.288298,9.867371,0.375975,-0.010679,-0.014372,0.066036,0.000721,0.004712,-0.009396,0.300413,0.308572,-0.621071,-0.654833,87.815008,1.774691,-129.003837
41150,NaN,-0.288962,9.867349,0.376057,-0.010381,-0.013684,0.066037,-0.002634,0.004189,-0.003723,0.300426,0.308561,-0.621075,-0.654829,87.814738,1.772724,-129.003712
41151,NaN,-0.262374,9.822595,0.391591,-0.039655,-0.022334,0.021106,-0.000245,0.006856,-0.009079,0.300421,0.308575,-0.621076,-0.654823,87.815883,1.773921,-129.002925
41152,NaN,-0.276336,9.869370,0.396175,-0.034012,-0.010872,0.068431,-0.002891,0.008738,-0.005924,0.300445,0.308588,-0.621066,-0.654816,87.815334,1.773284,-128.999537
41153,NaN,-0.262868,9.871426,0.416044,-0.057971,-0.008727,0.070825,0.002389,0.002668,-0.005356,0.300435,0.308581,-0.621087,-0.654803,87.817917,1.772258,-129.001067
41154,NaN,-0.305741,9.865182,0.356518,0.015070,-0.012421,0.063649,-0.003897,0.009735,-0.009035,0.300448,0.308603,-0.621070,-0.654803,87.817080,1.773509,-128.997871
41155,NaN,-0.278344,9.869295,0.396620,-0.033142,-0.008813,0.068436,-0.004259,0.007379,-0.004337,0.300467,0.308598,-0.621065,-0.654802,87.815938,1.772003,-128.996680
41156,NaN,-0.294838,9.895174,0.345225,0.017435,-0.029431,0.092836,0.001384,0.003665,-0.008466,0.300459,0.308609,-0.621073,-0.654793,87.817881,1.772827,-128.996387
41157,NaN,-0.267447,9.899298,0.385121,-0.030777,-0.025818,0.097627,-0.005009,0.003827,-0.005247,0.300464,0.308594,-0.621069,-0.654801,87.816246,1.771764,-128.997251
41158,NaN,-0.287727,9.843739,0.375249,-0.010633,-0.013640,0.042387,-0.003731,0.000586,-0.006813,0.300456,0.308576,-0.621070,-0.654812,87.815151,1.771370,-128.999577
41159,NaN,-0.269460,9.850361,0.361712,-0.011232,-0.036721,0.047920,-0.006068,0.001371,-0.004907,0.300456,0.308551,-0.621067,-0.654827,87.812866,1.770060,-129.001840
41160,NaN,-0.269981,9.850329,0.362205,-0.010893,-0.036031,0.047923,-0.004040,0.001683,-0.005565,0.300456,0.308532,-0.621067,-0.654836,87.811561,1.768925,-129.003519
41161,NaN,-0.263181,9.875763,0.384811,-0.032187,-0.028467,0.073980,-0.006416,0.001321,-0.007088,0.300450,0.308512,-0.621059,-0.654855,87.809075,1.768861,-129.005859
41162,NaN,-0.277973,9.873643,0.365606,-0.007616,-0.029226,0.071585,-0.007073,0.002368,-0.008019,0.300444,0.308495,-0.621048,-0.654877,87.806202,1.769127,-129.007912
41163,NaN,-0.290167,9.892409,0.402147,-0.028011,0.002105,0.092103,-0.001702,0.000899,-0.007471,0.300428,0.308483,-0.621055,-0.654883,87.806409,1.769273,-129.010502
41164,NaN,-0.272907,9.850174,0.364220,-0.009683,-0.033289,0.047934,-0.006981,0.006967,-0.008041,0.300445,0.308491,-0.621031,-0.654894,87.803570,1.769888,-129.008272
41165,NaN,-0.271088,9.871010,0.420606,-0.054326,-0.000479,0.070849,-0.001609,0.005498,-0.007492,0.300443,0.308493,-0.621032,-0.654893,87.803911,1.770147,-129.008227
41166,NaN,-0.292414,9.892298,0.403229,-0.027085,0.004156,0.092105,-0.003947,0.006282,-0.005587,0.300456,0.308490,-0.621027,-0.654894,87.802841,1.769209,-129.007406
41167,NaN,-0.286544,9.868876,0.401184,-0.029463,-0.000578,0.068451,-0.000238,0.006857,-0.009080,0.300451,0.308504,-0.621028,-0.654889,87.803990,1.770407,-129.006617
41168,NaN,-0.294865,9.843380,0.379096,-0.007543,-0.006802,0.042397,-0.000329,0.002258,-0.009059,0.300438,0.308506,-0.621032,-0.654889,87.804758,1.771348,-129.007503
41169,NaN,-0.306982,9.862151,0.415243,-0.027926,0.024542,0.062904,-0.000603,0.004500,-0.004382,0.300442,0.308497,-0.621043,-0.654882,87.805660,1.769805,-129.007962
41170,NaN,-0.296057,9.843342,0.379153,-0.006856,-0.005449,0.042398,-0.000201,0.008003,-0.005652,0.300460,0.308506,-0.621043,-0.654869,87.806355,1.768741,-129.005579
41171,NaN,-0.263863,9.852079,0.385044,-0.031716,-0.027041,0.050355,-0.000639,0.003354,-0.007811,0.300448,0.308504,-0.621050,-0.654868,87.807213,1.769135,-129.006769
41172,NaN,-0.289943,9.868776,0.401200,-0.027806,0.002816,0.068456,0.002083,0.003766,-0.004107,0.300454,0.308501,-0.621067,-0.654851,87.809436,1.767326,-129.006472
41173,NaN,-0.246156,9.858734,0.370892,-0.031998,-0.049441,0.055916,-0.000949,0.004450,-0.006562,0.300451,0.308499,-0.621073,-0.654848,87.810137,1.767030,-129.007006
41174,NaN,-0.265732,9.852025,0.385140,-0.030798,-0.025029,0.050363,-0.004291,0.006231,-0.007769,0.300466,0.308513,-0.621057,-0.654849,87.808839,1.767575,-129.004371
41175,NaN,-0.254265,9.882070,0.373559,-0.028731,-0.042669,0.079575,0.000112,0.006907,-0.006902,0.300468,0.308521,-0.621063,-0.654840,87.810190,1.767527,-129.003505
41176,NaN,-0.262386,9.856577,0.351509,-0.006810,-0.048909,0.053522,-0.001605,0.005497,-0.007495,0.300473,0.308526,-0.621060,-0.654837,87.810251,1.767581,-129.002530
41177,NaN,-0.288813,9.873249,0.367843,-0.002930,-0.019037,0.071613,-0.000671,0.002208,-0.011241,0.300447,0.308531,-0.621064,-0.654843,87.811068,1.769915,-129.004451
41178,NaN,-0.264203,9.856515,0.351903,-0.006220,-0.047534,0.053529,-0.005569,0.009469,-0.006204,0.300470,0.308539,-0.621047,-0.654845,87.809211,1.769451,-129.001683
41179,NaN,-0.276532,9.875265,0.388216,-0.026585,-0.016167,0.074025,0.001047,0.003618,-0.010649,0.300448,0.308549,-0.621055,-0.654843,87.811038,1.771476,-129.002783
41180,NaN,-0.270874,9.851846,0.386117,-0.029007,-0.020898,0.050378,-0.003976,0.005133,-0.009020,0.300442,0.308552,-0.621048,-0.654851,87.810236,1.772603,-129.003082
41181,NaN,-0.287614,9.877713,0.334973,0.021558,-0.041517,0.074777,-0.003976,0.005133,-0.009020,0.300438,0.308554,-0.621039,-0.654860,87.809212,1.773729,-129.003278
41182,NaN,-0.265314,9.877237,0.409031,-0.049903,-0.012588,0.076441,-0.004944,0.007276,-0.008704,0.300447,0.308561,-0.621023,-0.654868,87.807319,1.774407,-129.001871
41183,NaN,-0.292524,9.845018,0.401393,-0.027136,0.004908,0.044813,-0.005288,0.007226,-0.010885,0.300445,0.308574,-0.621004,-0.654881,87.805580,1.776647,-129.000910
41184,NaN,-0.300211,9.868349,0.404152,-0.024131,0.011038,0.068460,-0.005689,0.003723,-0.009615,0.300441,0.308574,-0.620989,-0.654897,87.803456,1.777995,-129.001267
41185,NaN,-0.301110,9.868304,0.404573,-0.023837,0.011722,0.068460,-0.003226,0.008685,-0.008111,0.300449,0.308586,-0.620979,-0.654896,87.802926,1.778678,-128.999409
41186,NaN,-0.301876,9.868268,0.404891,-0.023578,0.012416,0.068459,-0.003628,0.005182,-0.006841,0.300454,0.308588,-0.620974,-0.654898,87.802301,1.778646,-128.998847
41187,NaN,-0.288748,9.870326,0.424890,-0.047532,0.014604,0.070873,0.001053,0.003619,-0.010650,0.300432,0.308598,-0.620982,-0.654896,87.804131,1.780672,-128.999947
41188,NaN,-0.278088,9.851532,0.388997,-0.026575,-0.015426,0.050395,-0.005655,0.004867,-0.006186,0.300444,0.308593,-0.620970,-0.654905,87.801998,1.780117,-128.999319
41189,NaN,-0.290354,9.870256,0.425434,-0.046917,0.015966,0.070874,-0.001286,0.004401,-0.008746,0.300434,0.308596,-0.620972,-0.654906,87.802502,1.781070,-128.999929
41190,NaN,-0.286281,9.874851,0.391660,-0.023338,-0.008601,0.074042,-0.000942,0.004450,-0.006565,0.300435,0.308600,-0.620976,-0.654900,87.803414,1.780916,-128.999551
41191,NaN,-0.261424,9.858166,0.375521,-0.026660,-0.037121,0.055986,-0.000941,0.004450,-0.006565,0.300432,0.308597,-0.620982,-0.654897,87.804118,1.780621,-129.000084
41192,NaN,-0.287446,9.874811,0.391817,-0.022753,-0.007243,0.074045,-0.000910,0.005595,-0.003135,0.300451,0.308596,-0.620988,-0.654883,87.804838,1.778449,-128.998422
41193,NaN,-0.301935,9.872699,0.372049,0.001787,-0.008069,0.071628,-0.001910,0.006592,-0.006249,0.300457,0.308597,-0.620989,-0.654879,87.805026,1.778020,-128.997721
41194,NaN,-0.277001,9.856017,0.355972,-0.001553,-0.036590,0.053577,-0.001253,0.005546,-0.005317,0.300466,0.308599,-0.620992,-0.654871,87.805645,1.777064,-128.996805
41195,NaN,-0.282259,9.851373,0.390032,-0.024584,-0.010648,0.050406,-0.002938,0.005280,-0.002480,0.300481,0.308583,-0.620997,-0.654866,87.805224,1.774449,-128.996772
41196,NaN,-0.284543,9.879356,0.358577,0.001757,-0.029770,0.077223,-0.000940,0.004450,-0.006566,0.300486,0.308587,-0.620999,-0.654861,87.805781,1.774102,-128.996014
41197,NaN,-0.278304,9.855964,0.356432,-0.000652,-0.034552,0.053585,-0.001222,0.006691,-0.001886,0.300506,0.308576,-0.621008,-0.654848,87.806368,1.771178,-128.995161
41198,NaN,-0.271188,9.881418,0.378851,-0.021852,-0.026873,0.079648,-0.004965,0.004965,-0.001826,0.300529,0.308554,-0.621007,-0.654849,87.804589,1.767929,-128.995060
41199,NaN,-0.283718,9.851295,0.390936,-0.023335,-0.007911,0.050412,-0.002311,0.003089,-0.004979,0.300529,0.308540,-0.621013,-0.654850,87.804487,1.766696,-128.996337
41200,NaN,-0.285826,9.879280,0.359667,0.003009,-0.027016,0.077231,-0.005278,0.006060,-0.000577,0.300561,0.308520,-0.621010,-0.654847,87.802634,1.762874,-128.995168
41201,NaN,-0.251520,9.860069,0.397558,-0.047896,-0.028762,0.058440,-0.001907,0.006592,-0.006250,0.300567,0.308522,-0.621011,-0.654843,87.802823,1.762446,-128.994467
41202,NaN,-0.277447,9.876689,0.414191,-0.043920,0.001132,0.076478,-0.006992,0.004649,-0.001171,0.300598,0.308497,-0.621002,-0.654849,87.799828,1.758927,-128.993808
41203,NaN,-0.266269,9.857913,0.378741,-0.023018,-0.028923,0.056022,-0.006618,0.007007,-0.005873,0.300614,0.308492,-0.620987,-0.654858,87.797326,1.758292,-128.992860
41204,NaN,-0.278517,9.876617,0.415190,-0.043318,0.002495,0.076480,-0.000624,0.003355,-0.007816,0.300609,0.308496,-0.620990,-0.654855,87.798100,1.758675,-128.992945
41205,NaN,-0.267616,9.857859,0.379209,-0.022420,-0.027564,0.056028,-0.002219,0.007687,-0.005001,0.300623,0.308497,-0.620990,-0.654849,87.798131,1.757556,-128.991589
41206,NaN,-0.268210,9.857837,0.379348,-0.022053,-0.026897,0.056030,-0.000936,0.004450,-0.006567,0.300631,0.308501,-0.620990,-0.654843,87.798445,1.757061,-128.990482
41207,NaN,-0.282833,9.855726,0.359441,0.002484,-0.027741,0.053606,0.000779,0.005861,-0.005972,0.300632,0.308504,-0.621001,-0.654831,87.800161,1.756457,-128.990192
41208,NaN,-0.276127,9.881178,0.381545,-0.018748,-0.020041,0.079671,-0.000280,0.003404,-0.005634,0.300630,0.308498,-0.621011,-0.654825,87.801212,1.755546,-128.990882
41209,NaN,-0.269946,9.857790,0.379338,-0.021168,-0.024839,0.056038,-0.000593,0.004500,-0.004385,0.300633,0.308489,-0.621022,-0.654818,87.802119,1.754004,-128.991337
41210,NaN,-0.276995,9.881146,0.381738,-0.018109,-0.018662,0.079675,-0.002935,0.005279,-0.002482,0.300654,0.308474,-0.621025,-0.654812,87.801490,1.751155,-128.990819
41211,NaN,-0.258799,9.887864,0.367858,-0.018753,-0.041717,0.085295,0.001066,0.003621,-0.010653,0.300631,0.308485,-0.621033,-0.654810,87.803327,1.753183,-128.991915
41212,NaN,-0.246245,9.841091,0.363639,-0.023869,-0.052012,0.038032,-0.006615,0.007005,-0.005876,0.300654,0.308485,-0.621014,-0.654817,87.800705,1.752480,-128.989834
41213,NaN,-0.246941,9.841054,0.364158,-0.023579,-0.051329,0.038036,-0.004272,0.006226,-0.007779,0.300658,0.308487,-0.621005,-0.654824,87.799531,1.752919,-128.989375
41214,NaN,-0.265953,9.883112,0.402922,-0.041129,-0.014376,0.082113,-0.004585,0.007321,-0.006531,0.300671,0.308488,-0.620994,-0.654827,87.798128,1.752510,-128.988037
41215,NaN,-0.313373,9.872134,0.377519,0.008593,0.006973,0.071625,-0.004989,0.003818,-0.005260,0.300676,0.308473,-0.620990,-0.654835,87.796503,1.751455,-128.988902
41216,NaN,-0.255611,9.864322,0.367776,-0.019979,-0.043763,0.061680,-0.005330,0.003769,-0.007443,0.300678,0.308468,-0.620981,-0.654846,87.794803,1.751660,-128.989300
41217,NaN,-0.307493,9.897517,0.400684,-0.012359,0.015387,0.097688,-0.005329,0.003768,-0.007443,0.300676,0.308459,-0.620973,-0.654859,87.792980,1.751853,-128.990241
41218,NaN,-0.275825,9.857498,0.382700,-0.018478,-0.018673,0.056057,-0.004243,0.007370,-0.004349,0.300702,0.308463,-0.620963,-0.654854,87.791909,1.750516,-128.987571
41219,NaN,-0.287978,9.876175,0.419231,-0.038761,0.012789,0.076491,-0.004673,0.002723,-0.006510,0.300699,0.308449,-0.620960,-0.654865,87.790445,1.750152,-128.989090
41220,NaN,-0.237122,9.891745,0.411646,-0.064585,-0.032446,0.090194,-0.003640,0.004036,-0.010280,0.300690,0.308455,-0.620950,-0.654875,87.789551,1.751874,-128.989327
41221,NaN,-0.278270,9.857385,0.383818,-0.017584,-0.016614,0.056062,-0.002580,0.006493,-0.010617,0.300683,0.308469,-0.620942,-0.654880,87.789350,1.753945,-128.988778
41222,NaN,-0.279288,9.857354,0.383882,-0.017259,-0.015942,0.056064,0.000848,0.009316,-0.009426,0.300689,0.308498,-0.620939,-0.654866,87.790976,1.755331,-128.985630
41223,NaN,-0.272955,9.882799,0.405901,-0.038483,-0.008206,0.082131,0.001503,0.008271,-0.008493,0.300687,0.308518,-0.620945,-0.654853,87.793146,1.756225,-128.984015
41224,NaN,-0.311699,9.869252,0.433531,-0.036196,0.039930,0.070851,0.003192,0.008538,-0.011330,0.300686,0.308555,-0.620945,-0.654836,87.795793,1.758485,-128.980822
41225,NaN,-0.288941,9.880666,0.385298,-0.013558,-0.008403,0.079696,0.005157,0.005401,-0.008530,0.300670,0.308570,-0.620967,-0.654815,87.800007,1.759336,-128.980851
41226,NaN,-0.301951,9.850525,0.396648,-0.014967,0.010480,0.050426,0.001505,0.008270,-0.008494,0.300680,0.308597,-0.620965,-0.654799,87.801738,1.760067,-128.977528
41227,NaN,-0.290553,9.880652,0.384452,-0.012894,-0.007060,0.079698,0.008180,0.004722,-0.006067,0.300665,0.308607,-0.621002,-0.654766,87.807673,1.759494,-128.977891
41228,NaN,-0.279593,9.861946,0.347883,0.008048,-0.037157,0.059279,0.001101,0.004766,-0.007224,0.300660,0.308607,-0.621013,-0.654758,87.809206,1.759176,-128.978374
41229,NaN,-0.277942,9.882746,0.403790,-0.036458,-0.004118,0.082141,0.000786,0.005861,-0.005975,0.300660,0.308610,-0.621024,-0.654747,87.810925,1.758574,-128.978083
41230,NaN,-0.299691,9.855149,0.361588,0.009569,-0.012045,0.053633,0.001441,0.004816,-0.005041,0.300661,0.308609,-0.621039,-0.654732,87.813132,1.757406,-128.978066
41231,NaN,-0.267398,9.864018,0.367547,-0.015335,-0.033537,0.061729,-0.001242,0.005544,-0.005322,0.300665,0.308606,-0.621045,-0.654726,87.813684,1.756423,-128.977943
41232,NaN,-0.307546,9.878471,0.363936,0.012872,-0.005127,0.077259,-0.001896,0.006589,-0.006256,0.300668,0.308604,-0.621049,-0.654722,87.814091,1.755900,-128.977846
41233,NaN,-0.301454,9.855085,0.361866,0.010429,-0.009963,0.053635,-0.001895,0.006589,-0.006256,0.300674,0.308606,-0.621049,-0.654718,87.814286,1.755475,-128.977144
41234,NaN,-0.275866,9.887317,0.370168,-0.011700,-0.025938,0.085360,0.000067,0.003453,-0.003455,0.300685,0.308599,-0.621060,-0.654706,87.815339,1.753274,-128.976788
41235,NaN,-0.290297,9.885177,0.350553,0.012834,-0.026816,0.082917,-0.006606,0.006999,-0.005884,0.300701,0.308594,-0.621045,-0.654715,87.812842,1.752645,-128.975843
41236,NaN,-0.293976,9.852462,0.416394,-0.036159,0.018926,0.052866,-0.001240,0.005544,-0.005323,0.300713,0.308597,-0.621047,-0.654706,87.813307,1.751626,-128.974401
41237,NaN,-0.275621,9.859217,0.402672,-0.036826,-0.004119,0.058528,-0.003269,0.005226,-0.004670,0.300722,0.308587,-0.621047,-0.654706,87.812692,1.750263,-128.974445
41238,NaN,-0.282962,9.882547,0.405190,-0.033805,0.002076,0.082151,-0.002637,0.003036,-0.007169,0.300723,0.308588,-0.621045,-0.654708,87.812402,1.750408,-128.974319
41239,NaN,-0.271881,9.863832,0.369246,-0.012976,-0.028063,0.061749,-0.000586,0.004499,-0.004389,0.300726,0.308579,-0.621055,-0.654700,87.813312,1.748869,-128.974774
41240,NaN,-0.279101,9.887171,0.371617,-0.009858,-0.021856,0.085372,-0.002298,0.003086,-0.004985,0.300734,0.308568,-0.621057,-0.654700,87.812822,1.747370,-128.975001
41241,NaN,-0.271090,9.835765,0.401242,-0.038330,-0.006937,0.034913,-0.002952,0.004131,-0.005920,0.300735,0.308560,-0.621059,-0.654703,87.812368,1.746698,-128.975699
41242,NaN,-0.273675,9.863758,0.369910,-0.012020,-0.026036,0.061756,-0.002973,0.002986,-0.009353,0.300730,0.308567,-0.621051,-0.654709,87.811833,1.748052,-128.975565
41243,NaN,-0.279343,9.859060,0.403958,-0.035002,-0.000054,0.058536,-0.001239,0.005544,-0.005323,0.300735,0.308563,-0.621057,-0.654703,87.812387,1.747070,-128.975441
41244,NaN,-0.275002,9.863701,0.370431,-0.011365,-0.024670,0.061760,-0.005633,0.004858,-0.006202,0.300747,0.308554,-0.621045,-0.654713,87.810085,1.746323,-128.975157
41245,NaN,-0.261677,9.865787,0.390772,-0.035312,-0.022412,0.064214,-0.002951,0.004131,-0.005920,0.300748,0.308546,-0.621046,-0.654715,87.809632,1.745652,-128.975855
41246,NaN,-0.315909,9.878082,0.367312,0.017254,0.004379,0.077252,-0.002228,0.006539,-0.008441,0.300752,0.308555,-0.621039,-0.654715,87.809264,1.746225,-128.974628
41247,NaN,-0.247350,9.839822,0.442711,-0.084910,0.000290,0.039828,-0.001238,0.005544,-0.005324,0.300757,0.308551,-0.621045,-0.654710,87.809817,1.745244,-128.974503
41248,NaN,-0.296491,9.856795,0.385347,-0.009078,0.001769,0.056087,-0.002949,0.004130,-0.005921,0.300766,0.308546,-0.621042,-0.654711,87.809003,1.744371,-128.974143
41249,NaN,-0.289957,9.882242,0.407655,-0.030271,0.009576,0.082158,0.000050,0.002309,-0.006888,0.300754,0.308539,-0.621054,-0.654708,87.810236,1.744214,-128.975906
41250,NaN,-0.278858,9.863547,0.371667,-0.009445,-0.020577,0.061771,-0.002296,0.003085,-0.004987,0.300758,0.308528,-0.621058,-0.654707,87.810101,1.742868,-128.976493
41251,NaN,-0.304951,9.880072,0.388187,-0.005426,0.009376,0.079703,-0.005295,0.004906,-0.004020,0.300771,0.308512,-0.621054,-0.654713,87.808320,1.741126,-128.976705
41252,NaN,-0.272742,9.888972,0.394310,-0.030284,-0.012075,0.087846,0.003049,0.000489,-0.007856,0.300749,0.308506,-0.621075,-0.654706,87.810985,1.741250,-128.979211
41253,NaN,-0.280612,9.863481,0.372077,-0.008509,-0.018524,0.061776,-0.001978,0.001991,-0.006237,0.300741,0.308493,-0.621082,-0.654709,87.811052,1.740714,-128.981141
41254,NaN,-0.269105,9.893608,0.360685,-0.006514,-0.036011,0.091083,-0.003918,0.006269,-0.005607,0.300755,0.308498,-0.621076,-0.654706,87.810439,1.740204,-128.979426
41255,NaN,-0.281660,9.863426,0.372764,-0.008003,-0.017158,0.061779,-0.004641,0.003861,-0.003086,0.300767,0.308477,-0.621076,-0.654710,87.809015,1.737905,-128.980216
41256,NaN,-0.249196,9.872329,0.379182,-0.032945,-0.038565,0.069933,-0.003582,0.006319,-0.003423,0.300780,0.308462,-0.621079,-0.654708,87.808469,1.735733,-128.980362
41257,NaN,-0.261857,9.842141,0.391273,-0.034434,-0.019716,0.040629,-0.005312,0.003761,-0.007454,0.300778,0.308454,-0.621071,-0.654721,87.806656,1.735933,-128.981305
41258,NaN,-0.229777,9.851037,0.397731,-0.059263,-0.041152,0.048789,-0.003599,0.005175,-0.006857,0.300786,0.308450,-0.621065,-0.654725,87.805447,1.735426,-128.980918
41259,NaN,-0.283921,9.863309,0.374140,-0.006754,-0.014375,0.061785,0.000705,0.001265,-0.005955,0.300772,0.308437,-0.621082,-0.654721,87.807039,1.734712,-128.983258
41260,NaN,-0.251790,9.872216,0.380428,-0.031697,-0.035808,0.069948,-0.006192,0.010498,-0.007162,0.300798,0.308452,-0.621060,-0.654723,87.804946,1.734917,-128.979653
41261,NaN,-0.292083,9.886596,0.376924,-0.003422,-0.007438,0.085398,0.000054,0.002310,-0.006889,0.300785,0.308445,-0.621072,-0.654721,87.806182,1.734761,-128.981414
41262,NaN,-0.253045,9.872168,0.380832,-0.031175,-0.034442,0.069954,-0.002610,0.004179,-0.003739,0.300798,0.308439,-0.621075,-0.654715,87.806190,1.733087,-128.980804
41263,NaN,-0.293098,9.886556,0.377172,-0.002896,-0.006073,0.085399,-0.000264,0.003404,-0.005640,0.300793,0.308431,-0.621087,-0.654710,87.807265,1.732240,-128.981911
41264,NaN,-0.286997,9.863189,0.374959,-0.005303,-0.010958,0.061790,-0.000598,0.003355,-0.007824,0.300789,0.308432,-0.621090,-0.654708,87.807837,1.732416,-128.982198
41265,NaN,-0.266672,9.890762,0.417144,-0.050716,-0.001505,0.090328,-0.000827,0.009046,-0.006597,0.300800,0.308445,-0.621090,-0.654698,87.808685,1.732240,-128.980094
41266,NaN,-0.255692,9.872091,0.381052,-0.029966,-0.031693,0.069967,0.000462,0.005813,-0.008162,0.300795,0.308456,-0.621096,-0.654688,87.810377,1.732923,-128.979449
41267,NaN,-0.268440,9.841916,0.392468,-0.031457,-0.012863,0.040650,0.004130,0.004093,-0.004759,0.300789,0.308455,-0.621122,-0.654667,87.813981,1.731587,-128.980142
41268,NaN,-0.264043,9.846601,0.358499,-0.007900,-0.037502,0.043900,-0.001885,0.006587,-0.006261,0.300801,0.308462,-0.621119,-0.654661,87.814101,1.731113,-128.978403
41269,NaN,-0.276558,9.865231,0.394539,-0.028084,-0.005925,0.064260,0.002492,0.006133,-0.008814,0.300790,0.308477,-0.621131,-0.654648,87.816800,1.732143,-128.978016
41270,NaN,-0.296188,9.858391,0.408257,-0.026726,0.018476,0.058544,0.000797,0.005863,-0.005978,0.300797,0.308481,-0.621139,-0.654636,87.818195,1.731257,-128.977023
41271,NaN,-0.265925,9.895368,0.382684,-0.025640,-0.022691,0.093588,-0.000595,0.003354,-0.007826,0.300786,0.308479,-0.621146,-0.654635,87.819077,1.731661,-128.978206
41272,NaN,-0.292752,9.863045,0.374293,-0.002900,-0.005456,0.061796,0.002406,0.001535,-0.008792,0.300760,0.308477,-0.621165,-0.654629,87.821756,1.732493,-128.980663
41273,NaN,-0.267421,9.895335,0.382490,-0.025060,-0.021295,0.093593,-0.000579,0.004498,-0.004392,0.300763,0.308469,-0.621176,-0.654621,87.822670,1.730955,-128.981116
41274,NaN,-0.314478,9.884219,0.356644,0.024810,-0.000140,0.082931,-0.002927,0.005272,-0.002491,0.300791,0.308458,-0.621174,-0.654615,87.821681,1.728028,-128.979517
41275,NaN,-0.275374,9.869818,0.360766,-0.002905,-0.027139,0.067523,-0.003593,0.005172,-0.006861,0.300793,0.308455,-0.621170,-0.654619,87.820876,1.727919,-128.979638
41276,NaN,-0.261977,9.871917,0.381288,-0.026841,-0.024856,0.069996,-0.008289,0.006720,-0.003060,0.300828,0.308446,-0.621150,-0.654627,87.817331,1.725712,-128.977280
41277,NaN,-0.262490,9.871882,0.381859,-0.026549,-0.024171,0.069998,-0.003592,0.005172,-0.006861,0.300831,0.308442,-0.621146,-0.654631,87.816527,1.725602,-128.977401
41278,NaN,-0.270257,9.846373,0.360103,-0.004794,-0.030689,0.043926,-0.005621,0.004852,-0.006210,0.300842,0.308437,-0.621135,-0.654639,87.814528,1.725071,-128.976892
41279,NaN,-0.261990,9.843768,0.414338,-0.051974,-0.003060,0.043142,-0.003592,0.005172,-0.006862,0.300844,0.308434,-0.621131,-0.654644,87.813725,1.724962,-128.977012
41280,NaN,-0.232041,9.831939,0.364837,-0.032167,-0.057006,0.028537,-0.006272,0.005896,-0.007146,0.300857,0.308431,-0.621114,-0.654655,87.811127,1.724805,-128.976046
41281,NaN,-0.270314,9.867030,0.417411,-0.048544,0.003901,0.066747,-0.001242,0.004399,-0.008762,0.300847,0.308435,-0.621116,-0.654656,87.811655,1.725767,-128.976651
41282,NaN,-0.259435,9.848370,0.381522,-0.027697,-0.026356,0.046410,-0.002952,0.002984,-0.009362,0.300845,0.308438,-0.621107,-0.654664,87.810644,1.726737,-128.976555
41283,NaN,-0.285931,9.864839,0.397645,-0.023618,0.003631,0.064273,0.002830,0.006184,-0.006630,0.300841,0.308447,-0.621123,-0.654646,87.813537,1.726517,-128.976090
41284,NaN,-0.281682,9.869533,0.363682,-0.000109,-0.021010,0.067538,-0.000589,0.003354,-0.007828,0.300833,0.308449,-0.621128,-0.654643,87.814522,1.726949,-128.976535
41285,NaN,-0.273573,9.866938,0.417472,-0.047281,0.006632,0.066751,0.000470,0.005813,-0.008164,0.300827,0.308458,-0.621135,-0.654636,87.816056,1.727600,-128.976316
41286,NaN,-0.294987,9.888115,0.399735,-0.019875,0.011292,0.087873,-0.000257,0.003404,-0.005643,0.300830,0.308452,-0.621143,-0.654630,87.816738,1.726420,-128.976583
41287,NaN,-0.288777,9.864758,0.397581,-0.022371,0.006376,0.064275,-0.001879,0.006586,-0.006264,0.300836,0.308454,-0.621143,-0.654626,87.816941,1.726000,-128.975879
41288,NaN,-0.270546,9.871594,0.383682,-0.023083,-0.016628,0.070023,0.001861,0.008322,-0.006316,0.300842,0.308467,-0.621153,-0.654607,87.819384,1.725567,-128.974123
41289,NaN,-0.271196,9.871577,0.383663,-0.022790,-0.015943,0.070024,-0.001878,0.006586,-0.006265,0.300848,0.308469,-0.621154,-0.654603,87.819587,1.725147,-128.973420
41290,NaN,-0.285836,9.869426,0.363345,0.001766,-0.016892,0.067546,0.008835,0.002551,-0.008559,0.300821,0.308484,-0.621190,-0.654574,87.825713,1.725846,-128.974492
41291,NaN,-0.293696,9.843937,0.340815,0.023497,-0.023450,0.041469,-0.002528,0.007629,-0.007202,0.300828,0.308491,-0.621185,-0.654572,87.825561,1.725985,-128.973211
41292,NaN,-0.273386,9.871536,0.383150,-0.021883,-0.013891,0.070030,-0.001226,0.005541,-0.005330,0.300838,0.308493,-0.621188,-0.654564,87.826132,1.725011,-128.972049
41293,NaN,-0.255072,9.878377,0.369328,-0.022601,-0.036911,0.075787,-0.000167,0.008001,-0.005667,0.300848,0.308501,-0.621193,-0.654551,87.827340,1.724279,-128.970522
41294,NaN,-0.274583,9.871499,0.383236,-0.021291,-0.012526,0.070033,-0.000905,0.004447,-0.006580,0.300851,0.308503,-0.621196,-0.654546,87.828019,1.723985,-128.970032
41295,NaN,-0.275298,9.871475,0.383343,-0.020998,-0.011842,0.070034,-0.001555,0.005491,-0.007516,0.300848,0.308506,-0.621197,-0.654544,87.828387,1.724258,-128.969982
41296,NaN,-0.277927,9.899497,0.351786,0.005519,-0.030931,0.096906,0.000475,0.005813,-0.008167,0.300861,0.308522,-0.621193,-0.654535,87.828833,1.724370,-128.967470
41297,NaN,-0.295692,9.864563,0.397356,-0.019194,0.013183,0.064275,-0.002934,0.004125,-0.005930,0.300862,0.308513,-0.621194,-0.654538,87.828388,1.723705,-128.968168
41298,NaN,-0.277146,9.871410,0.383703,-0.019803,-0.009833,0.070039,-0.001622,0.003181,-0.000623,0.300882,0.308487,-0.621206,-0.654530,87.828188,1.719564,-128.968635
41299,NaN,-0.277651,9.871387,0.383920,-0.019510,-0.009149,0.070040,-0.002943,0.002982,-0.009366,0.300869,0.308485,-0.621203,-0.654539,87.827717,1.720841,-128.970063
41300,NaN,-0.252611,9.854901,0.367987,-0.023005,-0.037807,0.052217,-0.000660,-0.000100,-0.004372,0.300868,0.308469,-0.621215,-0.654536,87.828296,1.719171,-128.971560
41301,NaN,-0.272032,9.848014,0.381934,-0.021697,-0.013423,0.046451,-0.000990,-0.000150,-0.006558,0.300850,0.308451,-0.621228,-0.654540,87.828891,1.718772,-128.974720
41302,NaN,-0.239936,9.857017,0.388080,-0.046557,-0.034817,0.054712,0.000069,0.002310,-0.006894,0.300849,0.308450,-0.621234,-0.654535,87.829623,1.718364,-128.974890
41303,NaN,-0.294217,9.869146,0.364252,0.006020,-0.008101,0.067555,-0.000261,0.002260,-0.009081,0.300830,0.308449,-0.621242,-0.654537,87.830676,1.719462,-128.976725
41304,NaN,-0.275946,9.875994,0.350620,0.005281,-0.031141,0.073330,-0.004633,0.003852,-0.003095,0.300851,0.308438,-0.621237,-0.654537,87.829235,1.717327,-128.975804
41305,NaN,-0.255791,9.854804,0.368364,-0.021466,-0.034437,0.052233,0.004129,0.002954,-0.008195,0.300830,0.308443,-0.621260,-0.654523,87.832815,1.717932,-128.977221
41306,NaN,-0.307969,9.887681,0.400681,-0.013544,0.024939,0.087859,-0.006584,0.006983,-0.005904,0.300843,0.308436,-0.621247,-0.654532,87.830583,1.717260,-128.976631
41307,NaN,-0.270750,9.901415,0.373062,-0.015292,-0.021772,0.099416,0.004138,0.004098,-0.004759,0.300837,0.308435,-0.621273,-0.654511,87.834191,1.715923,-128.977319
41308,NaN,-0.283316,9.871197,0.384656,-0.016783,-0.002996,0.070049,-0.003903,0.006261,-0.005619,0.300847,0.308430,-0.621270,-0.654512,87.833304,1.714998,-128.976785
41309,NaN,-0.277086,9.847846,0.382636,-0.019301,-0.007947,0.046462,-0.000901,0.004447,-0.006582,0.300844,0.308427,-0.621276,-0.654509,87.834029,1.714713,-128.977312
41310,NaN,-0.258910,9.854710,0.368708,-0.020028,-0.030947,0.052247,0.002101,0.002632,-0.007545,0.300830,0.308429,-0.621292,-0.654499,87.836471,1.714859,-128.978388
41311,NaN,-0.271452,9.873298,0.404637,-0.040127,0.000728,0.072545,0.000722,0.001266,-0.005959,0.300817,0.308416,-0.621310,-0.654494,87.838071,1.714148,-128.980724
41312,NaN,-0.260304,9.854683,0.368451,-0.019397,-0.029554,0.052253,0.001452,0.003676,-0.008482,0.300803,0.308419,-0.621322,-0.654488,87.840009,1.714632,-128.981771
41313,NaN,-0.249079,9.884864,0.357013,-0.017317,-0.046925,0.081631,-0.005289,0.003751,-0.007469,0.300801,0.308410,-0.621314,-0.654501,87.838207,1.714839,-128.982717
41314,NaN,-0.249913,9.884840,0.357093,-0.016956,-0.046257,0.081635,0.003483,0.003999,-0.009132,0.300791,0.308426,-0.621326,-0.654486,87.841069,1.715829,-128.982155
41315,NaN,-0.281840,9.847713,0.382590,-0.017424,-0.003827,0.046468,-0.004236,0.005066,-0.011243,0.300780,0.308435,-0.621313,-0.654499,87.839890,1.718225,-128.982428
41316,NaN,-0.289667,9.870991,0.385231,-0.014315,0.002468,0.070053,-0.004229,0.006210,-0.007807,0.300794,0.308449,-0.621298,-0.654501,87.838629,1.718834,-128.979840
41317,NaN,-0.290479,9.870960,0.385399,-0.014021,0.003152,0.070053,0.000482,0.005813,-0.008170,0.300788,0.308458,-0.621304,-0.654494,87.840168,1.719487,-128.979619
41318,NaN,-0.293124,9.898985,0.353845,0.012366,-0.015902,0.096936,-0.001548,0.005489,-0.007520,0.300798,0.308469,-0.621298,-0.654489,87.840106,1.719613,-128.977683
41319,NaN,-0.292086,9.870905,0.385602,-0.013359,0.004492,0.070054,-0.002198,0.006533,-0.008457,0.300797,0.308477,-0.621294,-0.654489,87.840122,1.720446,-128.977055
41320,NaN,-0.306819,9.868706,0.365775,0.011101,0.003544,0.067553,-0.001225,0.004396,-0.008771,0.300783,0.308480,-0.621299,-0.654490,87.841070,1.721475,-128.978087
41321,NaN,-0.255810,9.884646,0.358280,-0.014901,-0.041488,0.081659,-0.003572,0.006309,-0.003435,0.300800,0.308470,-0.621299,-0.654487,87.840298,1.719428,-128.977478
41322,NaN,-0.280465,9.824192,0.381484,-0.018180,-0.004725,0.022890,0.003487,0.004000,-0.009133,0.300784,0.308483,-0.621315,-0.654473,87.843501,1.720547,-128.977637
41323,NaN,-0.276164,9.877708,0.372054,-0.013273,-0.016424,0.075859,-0.002518,0.007625,-0.007209,0.300791,0.308491,-0.621310,-0.654471,87.843353,1.720689,-128.976356
41324,NaN,-0.256081,9.856538,0.389919,-0.040040,-0.019689,0.054783,-0.000246,0.003403,-0.005647,0.300784,0.308480,-0.621324,-0.654466,87.844584,1.719718,-128.977956
41325,NaN,-0.237888,9.863419,0.376238,-0.040786,-0.042695,0.060595,-0.003253,0.004072,-0.008122,0.300778,0.308477,-0.621321,-0.654473,87.843954,1.720306,-128.978730
41326,NaN,-0.273256,9.882370,0.338602,0.010807,-0.039686,0.079171,0.001136,0.004770,-0.007234,0.300773,0.308482,-0.621332,-0.654462,87.845835,1.720251,-128.978740
41327,NaN,-0.253230,9.861204,0.356455,-0.015958,-0.042986,0.058099,-0.003575,0.005165,-0.006873,0.300775,0.308479,-0.621328,-0.654467,87.845040,1.720148,-128.978862
41328,NaN,-0.274694,9.882312,0.339135,0.011398,-0.038324,0.079176,-0.005282,0.003747,-0.007474,0.300781,0.308477,-0.621316,-0.654477,87.843196,1.720356,-128.978557
41329,NaN,-0.273492,9.854222,0.371205,-0.014327,-0.017937,0.052289,-0.004870,0.008394,-0.005311,0.300800,0.308477,-0.621305,-0.654478,87.841716,1.719428,-128.976795
41330,NaN,-0.255111,9.861107,0.357793,-0.015057,-0.040935,0.058109,-0.004220,0.007351,-0.004374,0.300822,0.308474,-0.621298,-0.654475,87.840529,1.717837,-128.975060
41331,NaN,-0.253936,9.881821,0.414079,-0.059343,-0.007530,0.080884,-0.000810,0.007899,-0.010046,0.300818,0.308494,-0.621294,-0.654472,87.841363,1.719610,-128.973684
41332,NaN,-0.261868,9.856303,0.392017,-0.037628,-0.014217,0.054802,-0.002925,0.002978,-0.009374,0.300813,0.308500,-0.621287,-0.654478,87.840702,1.720872,-128.973641
41333,NaN,-0.283509,9.877407,0.374508,-0.010274,-0.009547,0.075872,-0.002190,0.006532,-0.008461,0.300812,0.308508,-0.621283,-0.654479,87.840723,1.721707,-128.973013
41334,NaN,-0.284354,9.877380,0.374575,-0.009931,-0.008864,0.075873,0.000490,0.005813,-0.008172,0.300812,0.308520,-0.621286,-0.654470,87.842040,1.722183,-128.971955
41335,NaN,-0.278200,9.854048,0.372338,-0.012475,-0.013853,0.052298,-0.000891,0.004446,-0.006586,0.300808,0.308517,-0.621293,-0.654467,87.842770,1.721900,-128.972481
41336,NaN,-0.290903,9.872583,0.408551,-0.032533,0.017885,0.072557,-0.002274,0.001935,-0.008438,0.300798,0.308515,-0.621293,-0.654472,87.842738,1.722631,-128.973557
41337,NaN,-0.274584,9.907549,0.363068,-0.007271,-0.024813,0.105280,0.003496,0.005145,-0.005696,0.300793,0.308519,-0.621315,-0.654452,87.845994,1.721853,-128.973663
41338,NaN,-0.319827,9.868180,0.368827,0.016535,0.015896,0.067534,-0.010635,0.006325,-0.004618,0.300819,0.308501,-0.621289,-0.654473,87.841138,1.720273,-128.972898
41339,NaN,-0.261912,9.909662,0.383943,-0.030882,-0.021723,0.107795,-0.000566,0.003353,-0.007837,0.300808,0.308500,-0.621296,-0.654472,87.842035,1.720683,-128.974077
41340,NaN,-0.281467,9.853914,0.373420,-0.010963,-0.010412,0.052304,-0.002271,0.003078,-0.005001,0.300815,0.308491,-0.621299,-0.654470,87.841795,1.719356,-128.974229
41341,NaN,-0.256090,9.837516,0.357635,-0.014566,-0.039096,0.034569,-0.003653,0.001710,-0.003415,0.300818,0.308465,-0.621305,-0.654475,87.840898,1.717198,-128.976253
41342,NaN,-0.230698,9.869913,0.366335,-0.036614,-0.054704,0.066496,-0.002271,0.003078,-0.005001,0.300823,0.308450,-0.621310,-0.654476,87.840431,1.715582,-128.977162
41343,NaN,-0.238221,9.844403,0.344372,-0.014944,-0.061403,0.040415,-0.003568,0.005163,-0.006876,0.300825,0.308447,-0.621306,-0.654480,87.839639,1.715480,-128.977284
41344,NaN,-0.245723,9.867684,0.346940,-0.011869,-0.055010,0.063991,-0.003244,0.005213,-0.004689,0.300832,0.308439,-0.621308,-0.654478,87.839397,1.714238,-128.977245
41345,NaN,-0.277215,9.879277,0.396864,-0.030843,0.000426,0.078395,0.002200,0.007232,-0.007571,0.300830,0.308454,-0.621319,-0.654463,87.841945,1.714579,-128.976196
41346,NaN,-0.265952,9.860705,0.360940,-0.010196,-0.029977,0.058154,-0.005513,0.009434,-0.006253,0.300860,0.308467,-0.621297,-0.654462,87.839909,1.714152,-128.972238
41347,NaN,-0.278512,9.879220,0.397372,-0.030221,0.001781,0.078397,-0.002270,0.003078,-0.005002,0.300860,0.308453,-0.621304,-0.654463,87.839827,1.712932,-128.973513
41348,NaN,-0.278985,9.879193,0.397723,-0.029966,0.002488,0.078398,-0.005188,0.009484,-0.004065,0.300887,0.308455,-0.621293,-0.654460,87.838436,1.711360,-128.970981
41349,NaN,-0.286335,9.853686,0.375739,-0.008300,-0.004227,0.052312,-0.000563,0.004496,-0.004400,0.300890,0.308446,-0.621304,-0.654452,87.839357,1.709827,-128.971431
41350,NaN,-0.279959,9.879148,0.398147,-0.029378,0.003854,0.078399,-0.002917,0.004120,-0.005940,0.300898,0.308444,-0.621302,-0.654451,87.838905,1.709182,-128.970889
41351,NaN,-0.249551,9.867537,0.348398,-0.009836,-0.050223,0.064019,0.000086,0.003453,-0.003462,0.300900,0.308430,-0.621318,-0.654442,87.840181,1.707089,-128.971915
41352,NaN,-0.261987,9.837270,0.360106,-0.011378,-0.031529,0.034600,-0.003001,-0.000476,-0.005917,0.300886,0.308407,-0.621328,-0.654450,87.839924,1.706324,-128.975282
41353,NaN,-0.248752,9.839425,0.380397,-0.035311,-0.029136,0.037123,-0.002916,0.004120,-0.005940,0.300887,0.308398,-0.621329,-0.654453,87.839489,1.705664,-128.975981
41354,NaN,-0.237545,9.869659,0.368791,-0.033221,-0.046428,0.066551,0.003501,0.004005,-0.009134,0.300873,0.308414,-0.621343,-0.654438,87.842700,1.706800,-128.975728
41355,NaN,-0.245318,9.844149,0.346648,-0.011563,-0.053160,0.040468,-0.005918,0.004786,-0.008420,0.300872,0.308411,-0.621330,-0.654452,87.840555,1.707574,-128.976098
41356,NaN,-0.258154,9.862643,0.383152,-0.031462,-0.021386,0.060698,-0.003238,0.004069,-0.008129,0.300873,0.308408,-0.621323,-0.654459,87.839422,1.707777,-128.976259
41357,NaN,-0.258960,9.862609,0.383506,-0.031170,-0.020701,0.060700,-0.004211,0.006204,-0.007817,0.300877,0.308410,-0.621314,-0.654465,87.838279,1.708237,-128.975804
41358,NaN,-0.285559,9.878918,0.399875,-0.026937,0.009384,0.078402,-0.002505,0.007623,-0.007215,0.300885,0.308418,-0.621310,-0.654463,87.838146,1.708260,-128.974415
41359,NaN,-0.281095,9.883665,0.366325,-0.003490,-0.015325,0.081745,-0.003239,0.005212,-0.004691,0.300894,0.308408,-0.621310,-0.654463,87.837545,1.706908,-128.974461
41360,NaN,-0.272760,9.881047,0.420526,-0.050504,0.012468,0.080928,-0.004622,0.003843,-0.003106,0.300911,0.308389,-0.621308,-0.654466,87.835807,1.704403,-128.974598
41361,NaN,-0.261300,9.862493,0.384884,-0.029921,-0.017954,0.060710,-0.004209,0.006204,-0.007818,0.300914,0.308391,-0.621299,-0.654472,87.834665,1.704863,-128.974143
41362,NaN,-0.248320,9.864651,0.405008,-0.053862,-0.015546,0.063238,0.001559,0.008276,-0.008510,0.300916,0.308414,-0.621303,-0.654456,87.836916,1.705801,-128.971864
41363,NaN,-0.283578,9.883559,0.367252,-0.002261,-0.012593,0.081749,-0.002265,0.003077,-0.005004,0.300916,0.308400,-0.621309,-0.654457,87.836837,1.704582,-128.973138
41364,NaN,-0.237640,9.846090,0.369228,-0.033003,-0.045290,0.043029,-0.003234,0.004069,-0.008131,0.300915,0.308404,-0.621303,-0.654461,87.836263,1.705210,-128.972910
41365,NaN,-0.250490,9.864572,0.405600,-0.052994,-0.013490,0.063246,-0.003234,0.004069,-0.008131,0.300909,0.308401,-0.621300,-0.654468,87.835644,1.705803,-128.973685
41366,NaN,-0.265118,9.862352,0.385894,-0.028462,-0.014519,0.060720,-0.003233,0.004069,-0.008132,0.300906,0.308400,-0.621296,-0.654474,87.834990,1.706272,-128.974093
41367,NaN,-0.260868,9.867104,0.352334,-0.005024,-0.039235,0.064072,-0.002175,0.006530,-0.008467,0.300905,0.308408,-0.621292,-0.654474,87.835019,1.707111,-128.973464
41368,NaN,-0.280591,9.860097,0.366428,-0.003567,-0.014870,0.058193,-0.004206,0.006203,-0.007820,0.300913,0.308409,-0.621281,-0.654480,87.833522,1.707197,-128.972609
41369,NaN,-0.274514,9.885539,0.389184,-0.024624,-0.006731,0.084284,-0.006152,0.010472,-0.007197,0.300935,0.308420,-0.621260,-0.654485,87.831340,1.707395,-128.969695
41370,NaN,-0.268271,9.862220,0.387073,-0.027167,-0.011780,0.060727,0.002857,0.006192,-0.006634,0.300938,0.308434,-0.621273,-0.654465,87.834059,1.707081,-128.968111
41371,NaN,-0.282761,9.860011,0.367073,-0.002654,-0.012830,0.058197,-0.003557,0.005161,-0.006883,0.300940,0.308431,-0.621269,-0.654469,87.833274,1.706983,-128.968233
41372,NaN,-0.269724,9.862175,0.387228,-0.026522,-0.010423,0.060730,0.000506,0.005815,-0.008176,0.300944,0.308446,-0.621270,-0.654460,87.834520,1.707472,-128.966557
41373,NaN,-0.237871,9.871323,0.393525,-0.051530,-0.031670,0.069155,-0.002172,0.006530,-0.008469,0.300943,0.308455,-0.621266,-0.654460,87.834551,1.708312,-128.965928
41374,NaN,-0.278406,9.885410,0.389695,-0.022947,-0.003347,0.084290,-0.001198,0.004395,-0.008780,0.300946,0.308465,-0.621261,-0.654458,87.834504,1.708980,-128.964643
41375,NaN,-0.267253,9.866887,0.353641,-0.002393,-0.033802,0.064093,0.000834,0.004723,-0.009427,0.300932,0.308475,-0.621268,-0.654454,87.836225,1.710330,-128.965070
41376,NaN,-0.261392,9.892343,0.375950,-0.023385,-0.025643,0.090187,-0.001843,0.005437,-0.009720,0.300926,0.308484,-0.621263,-0.654457,87.836165,1.711648,-128.964802
41377,NaN,-0.287881,9.859837,0.367773,-0.000667,-0.008769,0.058201,-0.004855,0.008386,-0.005323,0.300945,0.308484,-0.621252,-0.654458,87.834691,1.710727,-128.963042
41378,NaN,-0.262780,9.892291,0.376343,-0.022782,-0.024235,0.090192,0.002860,0.006193,-0.006634,0.300939,0.308488,-0.621271,-0.654441,87.837652,1.710283,-128.963214
41379,NaN,-0.275416,9.861993,0.387839,-0.024284,-0.005623,0.060740,-0.002496,0.007621,-0.007220,0.300946,0.308496,-0.621266,-0.654439,87.837516,1.710432,-128.961933
41380,NaN,-0.302106,9.878257,0.404034,-0.019975,0.024433,0.078393,-0.001194,0.004395,-0.008782,0.300950,0.308511,-0.621260,-0.654435,87.837736,1.711382,-128.960208
41381,NaN,-0.256403,9.840846,0.405873,-0.050752,-0.008286,0.039727,-0.000866,0.003303,-0.010033,0.300932,0.308516,-0.621263,-0.654439,87.838458,1.713047,-128.961461
41382,NaN,-0.273060,9.866702,0.354364,-0.000138,-0.029004,0.064109,-0.000866,0.003303,-0.010033,0.300916,0.308517,-0.621265,-0.654443,87.838825,1.714324,-128.962727
41383,NaN,-0.265254,9.864080,0.408175,-0.047193,-0.001159,0.063284,0.001158,0.004773,-0.007239,0.300909,0.308521,-0.621277,-0.654434,87.840733,1.714421,-128.963078
41384,NaN,-0.281741,9.889943,0.356521,0.003387,-0.021876,0.087664,-0.000135,0.006857,-0.009118,0.300907,0.308534,-0.621277,-0.654429,87.841744,1.715371,-128.962058
41385,NaN,-0.261798,9.868841,0.374236,-0.023425,-0.025189,0.066656,0.001158,0.004773,-0.007240,0.300899,0.308538,-0.621289,-0.654419,87.843653,1.715469,-128.962408
41386,NaN,-0.281415,9.861813,0.388116,-0.022019,-0.000796,0.060747,-0.003550,0.005158,-0.006887,0.300898,0.308529,-0.621288,-0.654425,87.842941,1.715087,-128.963298
41387,NaN,-0.263332,9.868784,0.374649,-0.022819,-0.023774,0.066661,-0.002894,0.002974,-0.009388,0.300884,0.308527,-0.621286,-0.654434,87.842495,1.716376,-128.964726
41388,NaN,-0.290007,9.885027,0.390937,-0.018537,0.006332,0.084298,-0.002820,0.008712,-0.005972,0.300901,0.308536,-0.621279,-0.654428,87.842200,1.715787,-128.962371
41389,NaN,-0.278584,9.866522,0.355077,0.001987,-0.024157,0.064122,-0.001518,0.005486,-0.007534,0.300899,0.308539,-0.621281,-0.654426,87.842587,1.716068,-128.962320
41390,NaN,-0.265510,9.868703,0.375260,-0.021926,-0.021714,0.066668,-0.001845,0.006578,-0.006283,0.300911,0.308546,-0.621278,-0.654420,87.842761,1.715610,-128.960536
41391,NaN,-0.285084,9.861662,0.389280,-0.020536,0.002630,0.060750,-0.003548,0.005157,-0.006888,0.300913,0.308543,-0.621274,-0.654424,87.841980,1.715515,-128.960659
41392,NaN,-0.253155,9.870847,0.395914,-0.045482,-0.018602,0.069218,-0.004194,0.006199,-0.007828,0.300929,0.308553,-0.621259,-0.654427,87.840444,1.715780,-128.958430
41393,NaN,-0.234930,9.877830,0.382576,-0.046289,-0.041575,0.075144,-0.004850,0.008382,-0.005327,0.300948,0.308553,-0.621248,-0.654428,87.838973,1.714860,-128.956672
41394,NaN,-0.275109,9.843098,0.354066,0.000701,-0.026488,0.040582,0.003522,0.004011,-0.009136,0.300929,0.308561,-0.621266,-0.654416,87.842063,1.715655,-128.957637
41395,NaN,-0.255499,9.870768,0.396387,-0.044543,-0.016512,0.069226,-0.003781,0.009702,-0.009104,0.300939,0.308579,-0.621251,-0.654417,87.841225,1.716926,-128.955204
41396,NaN,-0.275405,9.863715,0.410260,-0.043046,0.007828,0.063300,0.001175,0.003632,-0.010682,0.300924,0.308590,-0.621256,-0.654415,87.842650,1.718608,-128.955512
41397,NaN,-0.271267,9.868503,0.376392,-0.019639,-0.016912,0.066682,-0.000128,0.006856,-0.009121,0.300918,0.308605,-0.621257,-0.654409,87.843856,1.719828,-128.954710
41398,NaN,-0.265130,9.845204,0.374108,-0.022213,-0.021988,0.043139,0.000519,0.005815,-0.008181,0.300917,0.308616,-0.621262,-0.654400,87.845299,1.720324,-128.953867
41399,NaN,-0.286689,9.866249,0.356216,0.005196,-0.017306,0.064135,0.001165,0.004774,-0.007241,0.300909,0.308619,-0.621273,-0.654391,87.847211,1.720422,-128.954217
41400,NaN,-0.280611,9.891716,0.378579,-0.015792,-0.009089,0.090231,-0.002898,0.004114,-0.005951,0.300918,0.308617,-0.621270,-0.654391,87.846608,1.719688,-128.953604
41401,NaN,-0.287970,9.866213,0.356155,0.005814,-0.015949,0.064137,0.005463,0.000888,-0.006317,0.300895,0.308612,-0.621303,-0.654373,87.850916,1.719173,-128.956160
41402,NaN,-0.288513,9.866200,0.356081,0.006137,-0.015254,0.064138,-0.004202,0.007339,-0.004390,0.300916,0.308608,-0.621296,-0.654371,87.849706,1.717525,-128.954608
41403,NaN,-0.256330,9.875423,0.362674,-0.018893,-0.036450,0.072632,-0.002252,0.003073,-0.005011,0.300915,0.308594,-0.621303,-0.654372,87.849632,1.716310,-128.955884
41404,NaN,-0.270665,9.873184,0.342818,0.005690,-0.037548,0.070081,-0.001840,0.006577,-0.006286,0.300927,0.308597,-0.621300,-0.654368,87.849491,1.715648,-128.954600
41405,NaN,-0.236756,9.854321,0.380873,-0.045356,-0.039088,0.051651,-0.002815,0.008709,-0.005976,0.300942,0.308603,-0.621295,-0.654363,87.849191,1.715107,-128.952668
41406,NaN,-0.256392,9.847257,0.394896,-0.043902,-0.014742,0.045710,-0.003130,0.008659,-0.008167,0.300956,0.308618,-0.621283,-0.654361,87.848509,1.715590,-128.950033
41407,NaN,-0.270861,9.845014,0.374987,-0.019396,-0.015839,0.043157,-0.000136,0.007998,-0.005681,0.300965,0.308626,-0.621288,-0.654348,87.849731,1.714864,-128.948502
41408,NaN,-0.276671,9.840171,0.408903,-0.042176,0.010291,0.039766,-0.002566,0.003022,-0.007203,0.300959,0.308617,-0.621290,-0.654353,87.849392,1.714732,-128.949886
41409,NaN,-0.300034,9.889290,0.359696,0.011256,-0.004674,0.087682,-0.000781,0.009039,-0.006622,0.300970,0.308629,-0.621290,-0.654343,87.850262,1.714567,-128.947779
41410,NaN,-0.273121,9.893720,0.399612,-0.036860,-0.000390,0.092797,0.004161,0.004114,-0.004756,0.300962,0.308624,-0.621318,-0.654322,87.853907,1.713026,-128.948902
41411,NaN,-0.306416,9.884446,0.393116,-0.011236,0.022161,0.084286,-0.000533,0.003352,-0.007848,0.300950,0.308623,-0.621325,-0.654321,87.854821,1.713441,-128.950079
41412,NaN,-0.283110,9.896288,0.345531,0.011024,-0.026222,0.093637,0.001170,0.004774,-0.007243,0.300944,0.308628,-0.621337,-0.654311,87.856881,1.713500,-128.950181
41413,NaN,-0.281864,9.868180,0.377080,-0.014695,-0.005889,0.066703,-0.001274,0.000940,-0.005323,0.300934,0.308609,-0.621349,-0.654312,87.857330,1.712418,-128.952686
41414,NaN,-0.251321,9.856755,0.327493,0.004731,-0.060078,0.052525,-0.002894,0.004113,-0.005954,0.300943,0.308603,-0.621347,-0.654313,87.856610,1.711457,-128.952494
41415,NaN,-0.243419,9.854132,0.381548,-0.042286,-0.032164,0.051690,-0.001506,0.005484,-0.007539,0.300940,0.308606,-0.621348,-0.654311,87.857003,1.711741,-128.952443
41416,NaN,-0.257825,9.851881,0.361754,-0.017811,-0.033265,0.049132,-0.003950,0.001650,-0.005619,0.300939,0.308591,-0.621349,-0.654318,87.856093,1.710916,-128.953871
41417,NaN,-0.251792,9.877354,0.384128,-0.038813,-0.024991,0.075232,0.002228,0.007237,-0.007578,0.300936,0.308606,-0.621360,-0.654302,87.858656,1.711260,-128.952817
41418,NaN,-0.285257,9.868048,0.377976,-0.013200,-0.002435,0.066707,-0.005883,0.004772,-0.008442,0.300939,0.308606,-0.621346,-0.654314,87.856668,1.712011,-128.952545
41419,NaN,-0.248215,9.882118,0.350951,-0.015153,-0.049045,0.078642,-0.003537,0.005153,-0.006895,0.300941,0.308603,-0.621342,-0.654318,87.855893,1.711919,-128.952670
41420,NaN,-0.319490,9.858688,0.372456,0.012760,0.020749,0.058175,-0.003850,0.005103,-0.009087,0.300950,0.308618,-0.621326,-0.654322,87.854649,1.713088,-128.950517
41421,NaN,-0.280914,9.893429,0.401402,-0.033571,0.007186,0.092806,-0.002891,0.004112,-0.005955,0.300951,0.308609,-0.621327,-0.654325,87.854225,1.712436,-128.951217
41422,NaN,-0.288204,9.867909,0.379370,-0.011903,0.000266,0.066709,-0.002891,0.004112,-0.005955,0.300959,0.308602,-0.621325,-0.654327,87.853415,1.711475,-128.951121
41423,NaN,-0.295911,9.891142,0.381921,-0.008684,0.006756,0.090241,-0.003535,0.005153,-0.006896,0.300961,0.308599,-0.621321,-0.654331,87.852640,1.711383,-128.951246
41424,NaN,-0.256872,9.877139,0.386295,-0.036611,-0.020184,0.075251,-0.002809,0.008707,-0.005980,0.300978,0.308604,-0.621316,-0.654326,87.852231,1.710576,-128.949298
41425,NaN,-0.277799,9.849398,0.344128,0.009177,-0.028916,0.046588,-0.001602,0.002031,-0.004074,0.300976,0.308585,-0.621328,-0.654325,87.852512,1.708802,-128.951150
41426,NaN,-0.269677,9.846766,0.398254,-0.037771,-0.000984,0.045746,-0.004196,0.007335,-0.004396,0.301003,0.308585,-0.621318,-0.654322,87.851140,1.707141,-128.948670
41427,NaN,-0.218660,9.863094,0.391371,-0.063949,-0.045781,0.060277,-0.006541,0.006953,-0.005944,0.301018,0.308580,-0.621303,-0.654331,87.848674,1.706542,-128.947743
41428,NaN,-0.265604,9.851542,0.365347,-0.014062,-0.025043,0.049162,-0.001270,0.000940,-0.005325,0.301008,0.308558,-0.621316,-0.654333,87.849025,1.705191,-128.950626
41429,NaN,-0.252520,9.853748,0.385539,-0.037981,-0.022551,0.051734,-0.001500,0.005484,-0.007541,0.301006,0.308561,-0.621318,-0.654332,87.849420,1.705476,-128.950575
41430,NaN,-0.253332,9.853721,0.385703,-0.037700,-0.021863,0.051736,-0.002144,0.006525,-0.008483,0.301008,0.308573,-0.621312,-0.654330,87.849533,1.706342,-128.949257
41431,NaN,-0.261321,9.876950,0.388133,-0.034475,-0.015360,0.075267,-0.001812,0.005434,-0.009734,0.300999,0.308582,-0.621309,-0.654333,87.849749,1.707881,-128.949282
41432,NaN,-0.289667,9.872461,0.348093,0.014269,-0.018299,0.070127,-0.000442,0.007947,-0.007876,0.301010,0.308601,-0.621306,-0.654322,87.850670,1.708293,-128.946630
41433,NaN,-0.295635,9.867582,0.382145,-0.008514,0.007838,0.066709,-0.005231,0.003729,-0.007506,0.301008,0.308593,-0.621298,-0.654334,87.848898,1.708519,-128.947583
41434,NaN,-0.270790,9.900126,0.390845,-0.030656,-0.007476,0.098801,0.002878,0.006199,-0.006637,0.301006,0.308606,-0.621313,-0.654315,87.851951,1.708378,-128.946564
41435,NaN,-0.278129,9.874616,0.368543,-0.009089,-0.014430,0.072702,-0.003530,0.005152,-0.006899,0.301008,0.308602,-0.621309,-0.654319,87.851179,1.708288,-128.946689
41436,NaN,-0.265114,9.876824,0.388760,-0.032938,-0.011908,0.075277,0.000203,0.006907,-0.006935,0.301012,0.308608,-0.621314,-0.654309,87.852344,1.707919,-128.945745
41437,NaN,-0.272472,9.851310,0.366543,-0.011375,-0.018869,0.049179,-0.002554,0.003020,-0.007209,0.301005,0.308601,-0.621317,-0.654314,87.852095,1.707960,-128.947098
41438,NaN,-0.240534,9.860605,0.373056,-0.036453,-0.039971,0.057755,-0.000853,0.004443,-0.006602,0.300998,0.308595,-0.621326,-0.654311,87.853052,1.707614,-128.948236
41439,NaN,-0.273859,9.851260,0.366858,-0.010811,-0.017472,0.049182,-0.002553,0.003020,-0.007209,0.300990,0.308587,-0.621328,-0.654316,87.852803,1.707655,-128.949588
41440,NaN,-0.269444,9.856082,0.333299,0.012612,-0.042270,0.052610,-0.002220,0.001929,-0.008460,0.300987,0.308588,-0.621325,-0.654321,87.852369,1.708245,-128.949874
41441,NaN,-0.261646,9.853437,0.387402,-0.034372,-0.014302,0.051762,-0.002885,0.004111,-0.005959,0.300987,0.308579,-0.621326,-0.654323,87.851949,1.707594,-128.950575
41442,NaN,-0.257067,9.858273,0.353658,-0.011019,-0.039060,0.055193,0.001824,0.003736,-0.006304,0.300979,0.308578,-0.621344,-0.654312,87.854314,1.707050,-128.951470
41443,NaN,-0.283681,9.874421,0.369521,-0.006637,-0.008905,0.072711,-0.000127,0.007998,-0.005686,0.300988,0.308585,-0.621348,-0.654299,87.855540,1.706326,-128.949938
41444,NaN,-0.256908,9.878882,0.409646,-0.054706,-0.004556,0.077869,0.000206,0.006907,-0.006937,0.300994,0.308594,-0.621352,-0.654288,87.856719,1.706062,-128.948586
41445,NaN,-0.290106,9.869530,0.403326,-0.029057,0.017935,0.069281,-0.001516,0.006625,-0.004101,0.301007,0.308590,-0.621357,-0.654280,87.857127,1.704402,-128.947807
41446,NaN,-0.251009,9.855594,0.407522,-0.056955,-0.009053,0.054353,-0.000436,0.007947,-0.007879,0.301023,0.308611,-0.621350,-0.654269,87.857568,1.704652,-128.944468
41447,NaN,-0.272523,9.876587,0.389655,-0.029505,-0.004358,0.075295,0.000850,0.005867,-0.005995,0.301024,0.308614,-0.621361,-0.654258,87.859318,1.704060,-128.944164
41448,NaN,-0.284995,9.846220,0.401087,-0.030991,0.014145,0.045760,-0.000768,0.009037,-0.006629,0.301033,0.308623,-0.621362,-0.654248,87.860197,1.703693,-128.942459
41449,NaN,-0.274029,9.876551,0.389505,-0.028896,-0.002960,0.075297,0.002907,0.005058,-0.010082,0.301014,0.308639,-0.621375,-0.654237,87.863109,1.705423,-128.942705
41450,NaN,-0.262643,9.858147,0.353079,-0.008480,-0.033581,0.055215,0.004899,0.003094,-0.008421,0.300998,0.308651,-0.621397,-0.654218,87.867084,1.706044,-128.943015
41451,NaN,-0.270649,9.881371,0.355367,-0.005235,-0.027050,0.078736,-0.005984,0.005891,-0.009561,0.300998,0.308655,-0.621379,-0.654232,87.864916,1.707494,-128.942773
41452,NaN,-0.304069,9.871995,0.349012,0.020541,-0.004596,0.070132,0.005074,0.007704,-0.006186,0.301010,0.308677,-0.621394,-0.654203,87.868481,1.706704,-128.939726
41453,NaN,-0.258433,9.883589,0.375186,-0.028733,-0.023864,0.081325,0.000341,0.009218,-0.006981,0.301018,0.308693,-0.621396,-0.654189,87.869995,1.706746,-128.937522
41454,NaN,-0.305514,9.871962,0.348691,0.021142,-0.003228,0.070131,-0.000302,0.007967,-0.007923,0.301026,0.308711,-0.621395,-0.654178,87.871067,1.707231,-128.935204
41455,NaN,-0.273518,9.881300,0.355141,-0.003926,-0.024333,0.078744,-0.001334,0.004362,-0.004160,0.301031,0.308700,-0.621404,-0.654173,87.871541,1.705556,-128.935722
41456,NaN,-0.279308,9.876425,0.388972,-0.026684,0.001838,0.075303,0.000031,0.006876,-0.006882,0.301034,0.308709,-0.621409,-0.654162,87.872887,1.705431,-128.934598
41457,NaN,-0.267417,9.858015,0.353183,-0.006301,-0.028808,0.055232,-0.005066,0.002604,-0.001835,0.301047,0.308679,-0.621411,-0.654168,87.871194,1.702387,-128.936073
41458,NaN,-0.241829,9.841859,0.337482,-0.010078,-0.057619,0.037752,0.000030,0.006876,-0.006882,0.301057,0.308692,-0.621412,-0.654156,87.872247,1.702169,-128.933970
41459,NaN,-0.254900,9.860218,0.373753,-0.029874,-0.025601,0.057825,-0.005320,0.003707,-0.007482,0.301056,0.308683,-0.621404,-0.654169,87.870424,1.702381,-128.934934
41460,NaN,-0.262669,9.883434,0.376312,-0.026597,-0.019035,0.081342,-0.001361,0.007793,-0.005297,0.301070,0.308687,-0.621406,-0.654159,87.870918,1.701256,-128.933323
41461,NaN,-0.242610,9.862415,0.394369,-0.053474,-0.022362,0.060420,-0.003314,0.007472,-0.009262,0.301071,0.308699,-0.621395,-0.654163,87.870307,1.702567,-128.932168
41462,NaN,-0.269498,9.878509,0.410561,-0.048972,0.007817,0.077897,-0.002338,0.007632,-0.007279,0.301085,0.308709,-0.621387,-0.654159,87.869894,1.702431,-128.929964
41463,NaN,-0.283987,9.876223,0.390694,-0.024473,0.006650,0.075307,-0.002673,0.008722,-0.008319,0.301092,0.308723,-0.621379,-0.654157,87.869672,1.703229,-128.928073
41464,NaN,-0.303681,9.869074,0.404506,-0.022955,0.030968,0.069265,-0.000280,0.004534,-0.006784,0.301094,0.308725,-0.621384,-0.654151,87.870501,1.702801,-128.927731
41465,NaN,-0.280194,9.881036,0.357275,-0.000782,-0.017454,0.078759,-0.004680,0.004956,-0.006540,0.301098,0.308718,-0.621377,-0.654158,87.869066,1.702500,-128.927960
41466,NaN,-0.299889,9.873878,0.371238,0.000797,0.006866,0.072715,-0.001257,0.004373,-0.008766,0.301094,0.308719,-0.621377,-0.654161,87.869074,1.702969,-128.928362
41467,NaN,-0.274588,9.857735,0.355475,-0.003046,-0.021947,0.055251,-0.002314,0.004200,-0.006142,0.301093,0.308712,-0.621380,-0.654161,87.868981,1.702424,-128.929015
41468,NaN,-0.242651,9.867093,0.362140,-0.028112,-0.043034,0.063897,-0.002956,0.002949,-0.007084,0.301090,0.308706,-0.621379,-0.654167,87.868419,1.702372,-128.929874
41469,NaN,-0.281192,9.852802,0.389848,-0.025485,0.004897,0.051799,-0.004375,0.007296,-0.006637,0.301101,0.308707,-0.621370,-0.654170,87.867198,1.702177,-128.928763
41470,NaN,-0.262921,9.859903,0.376484,-0.026293,-0.018018,0.057852,-0.002315,0.004199,-0.006142,0.301104,0.308699,-0.621372,-0.654170,87.866891,1.701274,-128.929257
41471,NaN,-0.270057,9.834379,0.354439,-0.004772,-0.025076,0.031749,-0.004041,0.006205,-0.005597,0.301114,0.308694,-0.621367,-0.654173,87.865843,1.700460,-128.928749
41472,NaN,-0.257548,9.885348,0.399377,-0.046901,-0.008895,0.083961,-0.001368,0.007791,-0.005296,0.301132,0.308701,-0.621366,-0.654162,87.866236,1.699323,-128.926552
41473,NaN,-0.277106,9.878186,0.413251,-0.045436,0.015414,0.077905,-0.002957,0.002948,-0.007084,0.301125,0.308692,-0.621367,-0.654168,87.865753,1.699291,-128.927942
41474,NaN,-0.272585,9.883043,0.379526,-0.022034,-0.009392,0.081367,0.001749,0.004868,-0.007424,0.301125,0.308700,-0.621376,-0.654156,87.867648,1.699228,-128.927183
41475,NaN,-0.266194,9.859779,0.377445,-0.024719,-0.014591,0.057862,-0.005326,0.003702,-0.007483,0.301123,0.308692,-0.621368,-0.654169,87.865820,1.699440,-128.928150
41476,NaN,-0.255295,9.890122,0.366331,-0.022629,-0.031593,0.087432,-0.001290,0.007803,-0.009902,0.301115,0.308705,-0.621367,-0.654167,87.866579,1.700935,-128.927675
41477,NaN,-0.268079,9.859712,0.377862,-0.024142,-0.013175,0.057865,-0.001291,0.007802,-0.009902,0.301112,0.308723,-0.621361,-0.654165,87.867131,1.702619,-128.926345
41478,NaN,-0.250147,9.866832,0.364166,-0.025060,-0.036097,0.063933,0.001382,0.009388,-0.009600,0.301112,0.308752,-0.621363,-0.654150,87.869447,1.704229,-128.923797
41479,NaN,-0.281741,9.829282,0.389179,-0.025396,0.005934,0.028296,-0.000316,0.007963,-0.007919,0.301114,0.308766,-0.621364,-0.654141,87.870563,1.704781,-128.922332
41480,NaN,-0.270768,9.859647,0.377634,-0.023222,-0.011091,0.057870,0.002357,0.009549,-0.007617,0.301123,0.308787,-0.621370,-0.654121,87.872962,1.704825,-128.919507
41481,NaN,-0.258093,9.861887,0.397732,-0.047131,-0.008530,0.060474,-0.002575,0.005298,-0.011787,0.301108,0.308801,-0.621362,-0.654129,87.872735,1.707536,-128.919651
41482,NaN,-0.259255,9.861865,0.397506,-0.046773,-0.007837,0.060476,0.006867,0.005711,-0.011328,0.301086,0.308829,-0.621382,-0.654107,87.877660,1.709717,-128.919146
41483,NaN,-0.280997,9.882817,0.379283,-0.019291,-0.003136,0.081376,0.000017,0.006872,-0.006879,0.301088,0.308837,-0.621388,-0.654097,87.878948,1.709651,-128.918284
41484,NaN,-0.288355,9.857296,0.356758,0.002160,-0.010218,0.055271,0.003105,0.007381,-0.010143,0.301079,0.308867,-0.621396,-0.654079,87.882310,1.711615,-128.916412
41485,NaN,-0.315405,9.873353,0.372351,0.006624,0.019979,0.072695,0.002832,0.001610,-0.008909,0.301053,0.308868,-0.621415,-0.654072,87.885120,1.712600,-128.918608
41486,NaN,-0.283764,9.882766,0.378533,-0.018323,-0.001087,0.081379,0.002495,0.002699,-0.009949,0.301041,0.308879,-0.621423,-0.654065,87.887045,1.713755,-128.918701
41487,NaN,-0.298235,9.880475,0.358187,0.006172,-0.002287,0.078773,0.002079,0.003777,-0.006383,0.301032,0.308878,-0.621441,-0.654053,87.889461,1.713339,-128.919601
41488,NaN,-0.259129,9.866660,0.362536,-0.021851,-0.029241,0.063963,-0.004994,0.002607,-0.006444,0.301038,0.308868,-0.621432,-0.654063,87.887511,1.712737,-128.919978
41489,NaN,-0.273368,9.864367,0.342392,0.002642,-0.030444,0.061358,0.005391,0.006615,-0.005137,0.301036,0.308877,-0.621458,-0.654035,87.891874,1.711668,-128.919226
41490,NaN,-0.287634,9.862069,0.322344,0.027264,-0.031636,0.058751,-0.007059,0.005700,-0.006941,0.301054,0.308870,-0.621438,-0.654049,87.888554,1.711077,-128.918310
41491,NaN,-0.234958,9.850523,0.347276,-0.025028,-0.056696,0.046561,-0.005331,0.003695,-0.007484,0.301052,0.308861,-0.621430,-0.654062,87.886722,1.711289,-128.919280
41492,NaN,-0.280525,9.859386,0.377326,-0.019298,-0.002881,0.057884,-0.005108,0.006025,-0.002975,0.301080,0.308850,-0.621422,-0.654062,87.884754,1.708728,-128.917735
41493,NaN,-0.269223,9.889752,0.366349,-0.017197,-0.019898,0.087474,-0.004052,0.006198,-0.005598,0.301091,0.308845,-0.621417,-0.654064,87.883699,1.707913,-128.917232
41494,NaN,-0.267902,9.861604,0.398259,-0.042896,0.000388,0.060497,-0.004053,0.006198,-0.005598,0.301107,0.308845,-0.621409,-0.654064,87.882604,1.707000,-128.915813
41495,NaN,-0.270334,9.889688,0.367236,-0.016594,-0.018519,0.087477,-0.006388,0.003521,-0.004861,0.301114,0.308826,-0.621402,-0.654077,87.880165,1.705707,-128.916827
41496,NaN,-0.308795,9.875308,0.394986,-0.013849,0.029405,0.075286,-0.002964,0.002942,-0.007085,0.301113,0.308816,-0.621401,-0.654083,87.879431,1.705344,-128.917847
41497,NaN,-0.269383,9.861510,0.399572,-0.041947,0.002460,0.060501,-0.004402,0.000416,0.000240,0.301125,0.308774,-0.621413,-0.654086,87.878081,1.701064,-128.920532
41498,NaN,-0.264419,9.866390,0.366049,-0.018547,-0.022368,0.063988,-0.000595,0.002189,-0.006685,0.301124,0.308769,-0.621418,-0.654084,87.878472,1.700439,-128.921068
41499,NaN,-0.278705,9.864077,0.346416,0.005944,-0.023584,0.061375,-0.009398,0.003021,-0.006204,0.301130,0.308748,-0.621399,-0.654109,87.874300,1.699904,-128.922398
41500,NaN,-0.265598,9.866321,0.367037,-0.017936,-0.020992,0.063992,-0.001046,0.006696,-0.004254,0.301149,0.308750,-0.621402,-0.654096,87.874893,1.698195,-128.920477
41501,NaN,-0.245216,9.845355,0.385150,-0.044848,-0.024329,0.043117,-0.004021,0.002767,-0.004462,0.301152,0.308731,-0.621404,-0.654102,87.873798,1.696657,-128.921915
41502,NaN,-0.259390,9.843052,0.365332,-0.020283,-0.025530,0.040503,-0.002326,0.004193,-0.006141,0.301153,0.308719,-0.621407,-0.654104,87.873428,1.695752,-128.922858
41503,NaN,-0.241145,9.850204,0.352057,-0.021190,-0.048455,0.046614,-0.005335,0.003693,-0.007484,0.301151,0.308711,-0.621399,-0.654117,87.871594,1.695964,-128.923829
41504,NaN,-0.254425,9.868484,0.388466,-0.040831,-0.016326,0.066618,-0.003001,0.006370,-0.008219,0.301157,0.308717,-0.621391,-0.654119,87.870899,1.696415,-128.922771
41505,NaN,-0.236328,9.875644,0.374955,-0.041738,-0.039247,0.072732,-0.000028,0.010299,-0.008011,0.301166,0.308739,-0.621389,-0.654107,87.872217,1.697069,-128.919969
41506,NaN,-0.256161,9.868425,0.388825,-0.040201,-0.014962,0.066623,-0.004884,-0.000814,-0.009915,0.301149,0.308729,-0.621381,-0.654126,87.870346,1.698438,-128.922366
41507,NaN,-0.229672,9.872945,0.429509,-0.088304,-0.010456,0.071865,-0.004058,0.006195,-0.005597,0.301160,0.308724,-0.621376,-0.654129,87.869286,1.697623,-128.921863
41508,NaN,-0.290237,9.858886,0.383001,-0.014099,0.008084,0.057890,-0.000971,0.006707,-0.008858,0.301167,0.308740,-0.621369,-0.654124,87.869412,1.698340,-128.919745
41509,NaN,-0.270324,9.837922,0.400873,-0.041017,0.004745,0.037022,0.000760,0.004703,-0.009402,0.301153,0.308750,-0.621376,-0.654120,87.871086,1.699671,-128.920178
41510,NaN,-0.273087,9.866030,0.369358,-0.014675,-0.014166,0.064010,-0.000935,0.003277,-0.007723,0.301152,0.308754,-0.621377,-0.654117,87.871539,1.699919,-128.919969
41511,NaN,-0.287412,9.863735,0.349030,0.009815,-0.015397,0.061388,0.004745,0.005367,-0.006075,0.301144,0.308761,-0.621401,-0.654094,87.875509,1.699360,-128.919951
41512,NaN,-0.255594,9.873203,0.355358,-0.015207,-0.036411,0.070136,-0.001575,0.002025,-0.008667,0.301136,0.308759,-0.621401,-0.654099,87.875377,1.699942,-128.920854
41513,NaN,-0.288936,9.863701,0.348729,0.010487,-0.014042,0.061390,0.004105,0.004115,-0.007019,0.301123,0.308764,-0.621424,-0.654081,87.878958,1.699896,-128.921573
41514,NaN,-0.250657,9.898679,0.377419,-0.035744,-0.027173,0.096253,-0.000598,0.002188,-0.006684,0.301117,0.308757,-0.621432,-0.654080,87.879590,1.699365,-128.922754
41515,NaN,-0.269513,9.842745,0.366283,-0.016086,-0.016692,0.040530,0.003466,0.002863,-0.007962,0.301098,0.308760,-0.621453,-0.654067,87.882783,1.699833,-128.924211
41516,NaN,-0.258638,9.873145,0.354779,-0.013891,-0.033688,0.070147,-0.001276,0.004364,-0.008763,0.301099,0.308769,-0.621448,-0.654067,87.882797,1.700562,-128.923235
41517,NaN,-0.265912,9.847613,0.332537,0.007576,-0.040873,0.044038,-0.001576,0.002023,-0.008667,0.301083,0.308764,-0.621453,-0.654072,87.883086,1.701415,-128.925186
41518,NaN,-0.273850,9.870797,0.335048,0.010920,-0.034248,0.067525,-0.004064,0.006192,-0.005597,0.301101,0.308766,-0.621443,-0.654072,87.881871,1.700512,-128.923386
41519,NaN,-0.274414,9.870768,0.335451,0.011212,-0.033566,0.067527,-0.004364,0.003851,-0.005501,0.301105,0.308753,-0.621441,-0.654079,87.880596,1.699592,-128.924224
41520,NaN,-0.255010,9.898530,0.378397,-0.033830,-0.023098,0.096270,-0.004703,0.004939,-0.006541,0.301120,0.308755,-0.621428,-0.654083,87.878949,1.699247,-128.922666
41521,NaN,-0.260112,9.844856,0.388100,-0.038377,-0.010718,0.043168,-0.007035,0.002261,-0.005806,0.301122,0.308733,-0.621419,-0.654101,87.876117,1.698468,-128.924420
41522,NaN,-0.276311,9.870660,0.337058,0.012060,-0.031525,0.067533,-0.005342,0.003687,-0.007484,0.301124,0.308731,-0.621409,-0.654110,87.874581,1.698863,-128.924456
41523,NaN,-0.263186,9.872915,0.357814,-0.011843,-0.028914,0.070165,-0.007452,0.003338,-0.002240,0.301141,0.308702,-0.621403,-0.654122,87.871530,1.696065,-128.925517
41524,NaN,-0.282577,9.865658,0.372159,-0.010323,-0.004631,0.064024,-0.007375,0.003348,-0.006845,0.301147,0.308689,-0.621387,-0.654140,87.868470,1.695849,-128.926153
41525,NaN,-0.269531,9.867909,0.392849,-0.034224,-0.002017,0.066656,-0.004027,0.002762,-0.004462,0.301150,0.308670,-0.621389,-0.654146,87.867370,1.694311,-128.927591
41526,NaN,-0.257422,9.849598,0.357445,-0.013972,-0.032809,0.046691,-0.008431,0.003173,-0.004224,0.301165,0.308646,-0.621376,-0.654163,87.863752,1.692548,-128.928323
41527,NaN,-0.263240,9.844627,0.391805,-0.036658,-0.006597,0.043178,-0.004068,0.006191,-0.005596,0.301176,0.308642,-0.621370,-0.654165,87.862687,1.691732,-128.927822
41528,NaN,-0.252142,9.875032,0.380743,-0.034552,-0.023527,0.072809,-0.002335,0.004189,-0.006139,0.301176,0.308635,-0.621373,-0.654165,87.862654,1.691108,-128.928365
41529,NaN,-0.245525,9.851792,0.378907,-0.037293,-0.028807,0.049333,-0.006440,0.006939,-0.005996,0.301191,0.308631,-0.621359,-0.654175,87.860241,1.690537,-128.927443
41530,NaN,-0.272292,9.867736,0.395280,-0.032738,0.001428,0.066661,-0.004069,0.006190,-0.005595,0.301210,0.308633,-0.621349,-0.654174,87.859105,1.689729,-128.925515
41531,NaN,-0.293781,9.888630,0.377579,-0.005215,0.006141,0.087505,-0.000004,0.006868,-0.006872,0.301211,0.308641,-0.621354,-0.654164,87.860378,1.689658,-128.924653
41532,NaN,-0.259915,9.869984,0.415573,-0.056250,0.004717,0.069299,0.000376,0.002351,-0.004699,0.301216,0.308632,-0.621365,-0.654156,87.861300,1.687996,-128.925011
41533,NaN,-0.274057,9.867683,0.395386,-0.031763,0.003462,0.066664,0.000334,0.005779,-0.005833,0.301217,0.308634,-0.621375,-0.654146,87.862750,1.687307,-128.924750
41534,NaN,-0.269360,9.872615,0.361483,-0.008381,-0.021403,0.070188,0.002366,0.006118,-0.006471,0.301228,0.308647,-0.621382,-0.654127,87.864790,1.686623,-128.922528
41535,NaN,-0.263631,9.898099,0.383731,-0.029241,-0.012802,0.096303,0.000334,0.005779,-0.005833,0.301230,0.308648,-0.621392,-0.654117,87.866239,1.685933,-128.922267
41536,NaN,-0.256200,9.826170,0.356959,-0.013796,-0.031997,0.023240,-0.003314,0.004023,-0.008123,0.301235,0.308652,-0.621383,-0.654122,87.865167,1.686276,-128.921501
41537,NaN,-0.252370,9.879796,0.347945,-0.008647,-0.042954,0.076358,0.001311,0.005943,-0.003849,0.301242,0.308649,-0.621398,-0.654105,87.867179,1.684455,-128.921103
41538,NaN,-0.258192,9.874834,0.381818,-0.031348,-0.016699,0.072834,-0.004072,0.006188,-0.005596,0.301252,0.308645,-0.621395,-0.654106,87.866350,1.683585,-128.920563
41539,NaN,-0.259802,9.854258,0.325970,0.013060,-0.049480,0.050250,-0.002338,0.004187,-0.006139,0.301252,0.308638,-0.621397,-0.654107,87.866241,1.683037,-128.921220
41540,NaN,-0.264760,9.869834,0.416074,-0.053679,0.010197,0.069309,-0.002040,0.006527,-0.006233,0.301266,0.308645,-0.621393,-0.654101,87.866080,1.682475,-128.919322
41541,NaN,-0.252767,9.851553,0.380372,-0.033466,-0.020639,0.049367,-0.004370,0.003847,-0.005501,0.301270,0.308631,-0.621390,-0.654108,87.864801,1.681554,-128.920160
41542,NaN,-0.286760,9.890686,0.398771,-0.025796,0.015582,0.090141,-0.001701,0.005439,-0.005194,0.301288,0.308636,-0.621388,-0.654100,87.864763,1.680371,-128.918076
41543,NaN,-0.253897,9.851506,0.380828,-0.032826,-0.019291,0.049372,-0.002042,0.006526,-0.006233,0.301294,0.308637,-0.621388,-0.654096,87.864863,1.679927,-128.917395
41544,NaN,-0.275346,9.872398,0.362886,-0.005288,-0.014561,0.070202,0.002703,0.005030,-0.005431,0.301297,0.308643,-0.621405,-0.654077,87.867683,1.678912,-128.916661
41545,NaN,-0.255232,9.851472,0.380815,-0.032236,-0.017911,0.049377,-0.003657,0.005109,-0.009161,0.301291,0.308647,-0.621397,-0.654085,87.866832,1.680113,-128.916853
41546,NaN,-0.249657,9.876936,0.403540,-0.053109,-0.009282,0.075494,-0.002933,-0.000494,-0.005951,0.301283,0.308630,-0.621402,-0.654091,87.866412,1.679451,-128.919111
41547,NaN,-0.244893,9.881863,0.370130,-0.029857,-0.034140,0.079032,-0.004076,0.006186,-0.005595,0.301293,0.308625,-0.621397,-0.654094,87.865341,1.678634,-128.918611
41548,NaN,-0.270845,9.849090,0.361519,-0.007211,-0.017804,0.046737,-0.000352,0.007953,-0.007909,0.301295,0.308639,-0.621399,-0.654085,87.866577,1.679171,-128.917187
41549,NaN,-0.239035,9.858618,0.368194,-0.032344,-0.038746,0.055570,-0.002341,0.004185,-0.006139,0.301295,0.308632,-0.621402,-0.654086,87.866467,1.678623,-128.917844
41550,NaN,-0.246880,9.881794,0.370638,-0.028975,-0.032065,0.079042,-0.001704,0.005437,-0.005194,0.301308,0.308633,-0.621403,-0.654078,87.866649,1.677468,-128.916611
41551,NaN,-0.251908,9.828120,0.379922,-0.033557,-0.019790,0.025921,-0.002682,0.005272,-0.007178,0.301308,0.308632,-0.621401,-0.654080,87.866360,1.677538,-128.916668
41552,NaN,-0.273348,9.848996,0.362191,-0.006021,-0.015056,0.046742,-0.001068,0.006689,-0.004249,0.301323,0.308632,-0.621406,-0.654068,87.867100,1.675890,-128.915251
41553,NaN,-0.281303,9.872165,0.364664,-0.002672,-0.008373,0.070210,-0.003660,0.005107,-0.009161,0.301317,0.308636,-0.621398,-0.654077,87.866246,1.677091,-128.915445
41554,NaN,-0.275640,9.897628,0.387413,-0.023522,0.000291,0.096327,-0.003397,0.004009,-0.003518,0.301328,0.308620,-0.621402,-0.654076,87.865624,1.675029,-128.915861
41555,NaN,-0.263499,9.879373,0.351683,-0.003337,-0.030577,0.076407,-0.002342,0.004184,-0.006139,0.301328,0.308613,-0.621404,-0.654077,87.865513,1.674480,-128.916518
41556,NaN,-0.243197,9.858461,0.369656,-0.030219,-0.033939,0.055594,0.000668,0.004690,-0.004792,0.301337,0.308612,-0.621413,-0.654064,87.866758,1.672948,-128.915718
41557,NaN,-0.243761,9.858445,0.369711,-0.029928,-0.033255,0.055598,-0.002047,0.006524,-0.006232,0.301343,0.308614,-0.621413,-0.654061,87.866854,1.672503,-128.915037
41558,NaN,-0.270829,9.874342,0.385769,-0.025295,-0.002968,0.072865,-0.002562,0.001855,-0.010649,0.301325,0.308613,-0.621411,-0.654072,87.866468,1.674288,-128.916770
41559,NaN,-0.245536,9.858382,0.370228,-0.029308,-0.031873,0.055604,-0.003617,0.001679,-0.008029,0.301312,0.308602,-0.621410,-0.654083,87.865583,1.674769,-128.918903
41560,NaN,-0.241024,9.863317,0.336852,-0.006009,-0.056745,0.059157,-0.003958,0.002766,-0.009067,0.301310,0.308603,-0.621400,-0.654093,87.864238,1.675645,-128.919037
41561,NaN,-0.254463,9.881504,0.373224,-0.025597,-0.024494,0.079073,-0.003570,-0.001748,-0.006896,0.301291,0.308577,-0.621407,-0.654108,87.863323,1.675403,-128.923109
41562,NaN,-0.248058,9.858281,0.371233,-0.028347,-0.029845,0.055613,-0.001974,0.006533,-0.010836,0.301292,0.308602,-0.621394,-0.654108,87.863280,1.677609,-128.920780
41563,NaN,-0.237418,9.888706,0.360375,-0.026235,-0.046724,0.085286,-0.007778,0.007849,-0.009019,0.301302,0.308608,-0.621369,-0.654124,87.860113,1.678788,-128.919399
41564,NaN,-0.287819,9.843629,0.399520,-0.025210,0.018687,0.043199,-0.005993,0.002424,-0.008430,0.301302,0.308600,-0.621356,-0.654141,87.857647,1.679260,-128.920141
41565,NaN,-0.277071,9.874050,0.388802,-0.023095,0.001811,0.072871,-0.006335,0.003510,-0.009469,0.301295,0.308595,-0.621341,-0.654160,87.855233,1.680603,-128.921256
41566,NaN,-0.264298,9.876309,0.409518,-0.046971,0.004479,0.075528,-0.005016,0.002589,-0.006446,0.301300,0.308586,-0.621334,-0.654170,87.853492,1.680123,-128.921657
41567,NaN,-0.278612,9.873964,0.389891,-0.022489,0.003182,0.072872,-0.005994,0.002423,-0.008430,0.301292,0.308574,-0.621324,-0.654188,87.851256,1.680849,-128.923371
41568,NaN,-0.274041,9.878906,0.356703,0.000814,-0.021693,0.076431,-0.005359,0.003675,-0.007485,0.301299,0.308569,-0.621311,-0.654199,87.849085,1.680802,-128.923210
41569,NaN,-0.254008,9.857985,0.375036,-0.026154,-0.025049,0.055633,-0.003669,0.005104,-0.009159,0.301293,0.308573,-0.621303,-0.654208,87.848226,1.682002,-128.923405
41570,NaN,-0.281088,9.873837,0.391310,-0.021491,0.005251,0.072873,-0.005360,0.003675,-0.007485,0.301297,0.308565,-0.621293,-0.654219,87.846232,1.681981,-128.923805
41571,NaN,-0.269202,9.855608,0.355704,-0.001337,-0.025654,0.052977,-0.003034,0.006356,-0.008214,0.301297,0.308571,-0.621287,-0.654222,87.845758,1.682666,-128.923263
41572,NaN,-0.269875,9.855581,0.355939,-0.000984,-0.024966,0.052979,-0.002007,0.003095,-0.005099,0.301303,0.308560,-0.621291,-0.654221,87.845566,1.681251,-128.923734
41573,NaN,-0.243410,9.860169,0.396379,-0.049065,-0.020303,0.058304,-0.000367,0.007950,-0.007904,0.301305,0.308574,-0.621292,-0.654213,87.846647,1.681794,-128.922271
41574,NaN,-0.251470,9.883324,0.398865,-0.045664,-0.013595,0.081763,-0.004432,0.007266,-0.006632,0.301325,0.308582,-0.621278,-0.654213,87.845226,1.681518,-128.919788
41575,NaN,-0.271884,9.855504,0.356543,-0.000076,-0.022927,0.052984,-0.001715,0.005434,-0.005191,0.301330,0.308577,-0.621282,-0.654209,87.845494,1.680454,-128.919708
41576,NaN,-0.252623,9.883277,0.399291,-0.045039,-0.012224,0.081768,-0.001422,0.007773,-0.005284,0.301351,0.308586,-0.621280,-0.654197,87.845800,1.679367,-128.917059
41577,NaN,-0.285664,9.873646,0.392820,-0.019302,0.010039,0.072874,-0.001715,0.005434,-0.005191,0.301356,0.308581,-0.621284,-0.654193,87.846068,1.678302,-128.916979
41578,NaN,-0.260047,9.857754,0.376975,-0.023251,-0.018882,0.055654,0.001714,0.004866,-0.007409,0.301354,0.308586,-0.621294,-0.654182,87.847867,1.678128,-128.916752
41579,NaN,-0.260750,9.857736,0.376960,-0.022959,-0.018198,0.055655,-0.001767,0.008859,-0.006322,0.301366,0.308596,-0.621291,-0.654174,87.848162,1.677784,-128.914734
41580,NaN,-0.268734,9.880894,0.379330,-0.019545,-0.011475,0.079110,-0.000611,0.002184,-0.006680,0.301360,0.308589,-0.621299,-0.654173,87.848838,1.677373,-128.915829
41581,NaN,-0.250471,9.888185,0.365807,-0.020512,-0.034360,0.085350,-0.000320,0.004523,-0.006773,0.301356,0.308589,-0.621307,-0.654168,87.849889,1.677194,-128.916305
41582,NaN,-0.276279,9.855368,0.356911,0.002238,-0.018136,0.052994,0.000315,0.005775,-0.005827,0.301361,0.308587,-0.621315,-0.654158,87.850943,1.676083,-128.916025
41583,NaN,-0.270695,9.880840,0.379339,-0.018566,-0.009406,0.079114,-0.000320,0.004523,-0.006773,0.301356,0.308586,-0.621323,-0.654154,87.851994,1.675903,-128.916501
41584,NaN,-0.245112,9.864957,0.363537,-0.022605,-0.038316,0.061909,-0.000321,0.004522,-0.006772,0.301353,0.308584,-0.621331,-0.654148,87.853024,1.675557,-128.916944
41585,NaN,-0.240262,9.869937,0.330093,0.000606,-0.063205,0.065488,-0.005783,0.004746,-0.003920,0.301367,0.308567,-0.621325,-0.654156,87.850951,1.673750,-128.917231
41586,NaN,-0.246209,9.864909,0.364099,-0.022056,-0.036926,0.061915,-0.000030,0.006861,-0.006865,0.301366,0.308573,-0.621332,-0.654146,87.852445,1.673703,-128.916747
41587,NaN,-0.246824,9.864884,0.364370,-0.021764,-0.036242,0.061918,-0.005836,0.008171,-0.005051,0.301387,0.308571,-0.621319,-0.654150,87.850398,1.672617,-128.915096
41588,NaN,-0.261007,9.862536,0.344726,0.002763,-0.037558,0.059250,-0.005365,0.003669,-0.007486,0.301392,0.308565,-0.621308,-0.654161,87.848351,1.672596,-128.915153
41589,NaN,-0.248150,9.864817,0.365278,-0.021129,-0.034864,0.061925,-0.002354,0.004179,-0.006137,0.301392,0.308558,-0.621310,-0.654162,87.848231,1.672045,-128.915812
41590,NaN,-0.261585,9.882949,0.401632,-0.040574,-0.002556,0.081794,-0.005075,0.006008,-0.007578,0.301406,0.308562,-0.621294,-0.654169,87.846180,1.672103,-128.914113
41591,NaN,-0.256978,9.887925,0.368303,-0.017366,-0.027448,0.085378,-0.003334,0.004012,-0.008121,0.301401,0.308559,-0.621291,-0.654177,87.845494,1.672685,-128.914910
41592,NaN,-0.276703,9.880567,0.382118,-0.015736,-0.003199,0.079123,-0.002409,0.007604,-0.007266,0.301419,0.308574,-0.621281,-0.654171,87.845104,1.672615,-128.911992
41593,NaN,-0.296589,9.873198,0.395977,-0.014169,0.021050,0.072865,-0.004368,0.007270,-0.011235,0.301414,0.308590,-0.621264,-0.654181,87.843879,1.675049,-128.910991
41594,NaN,-0.257621,9.859631,0.400749,-0.042379,-0.005885,0.058354,-0.004099,0.006173,-0.005593,0.301437,0.308593,-0.621253,-0.654180,87.842528,1.674096,-128.908622
41595,NaN,-0.271843,9.857284,0.380932,-0.017903,-0.007218,0.055680,-0.003626,0.001672,-0.008029,0.301424,0.308582,-0.621252,-0.654191,87.841637,1.674574,-128.910757
41596,NaN,-0.279866,9.880426,0.383439,-0.014478,-0.000449,0.079126,-0.001433,0.007770,-0.005282,0.301439,0.308586,-0.621253,-0.654182,87.842045,1.673404,-128.909111
41597,NaN,-0.254243,9.864571,0.367715,-0.018561,-0.029392,0.061948,-0.000669,0.005608,-0.007809,0.301435,0.308591,-0.621257,-0.654178,87.842913,1.673842,-128.908988
41598,NaN,-0.246961,9.861840,0.421716,-0.065256,-0.001073,0.061038,-0.001304,0.004354,-0.008755,0.301434,0.308595,-0.621255,-0.654177,87.843052,1.674287,-128.908695
41599,NaN,-0.255869,9.864524,0.367851,-0.017874,-0.027994,0.061953,-0.000036,0.006860,-0.006862,0.301436,0.308603,-0.621261,-0.654168,87.844304,1.674209,-128.907834
41600,NaN,-0.216819,9.850986,0.372505,-0.046161,-0.054909,0.047462,-0.005715,0.004752,-0.008524,0.301437,0.308604,-0.621247,-0.654180,87.842362,1.675052,-128.907644
41601,NaN,-0.257515,9.864465,0.368304,-0.017304,-0.026618,0.061958,0.001650,0.008290,-0.008534,0.301436,0.308624,-0.621252,-0.654166,87.844603,1.675962,-128.906000
41602,NaN,-0.258644,9.864438,0.368215,-0.016976,-0.025935,0.061960,-0.000365,0.011380,-0.013632,0.301438,0.308672,-0.621235,-0.654159,87.845582,1.679736,-128.901489
41603,NaN,-0.278741,9.857058,0.381773,-0.015404,-0.001692,0.055687,-0.000729,0.009031,-0.008938,0.301441,0.308692,-0.621232,-0.654151,87.846472,1.680893,-128.899429
41604,NaN,-0.275534,9.910706,0.372893,-0.010175,-0.012421,0.108845,-0.001998,0.006524,-0.010831,0.301440,0.308715,-0.621221,-0.654151,87.846575,1.683118,-128.897467
41605,NaN,-0.280785,9.856990,0.382049,-0.014818,-0.000333,0.055688,-0.001653,0.005438,-0.009793,0.301430,0.308725,-0.621218,-0.654154,87.846875,1.684687,-128.897483
41606,NaN,-0.291086,9.908313,0.353009,0.014593,-0.013064,0.106165,-0.001654,0.005438,-0.009793,0.301423,0.308736,-0.621215,-0.654154,87.847243,1.686197,-128.897115
41607,NaN,-0.303594,9.877762,0.364399,0.013059,0.005097,0.076445,-0.001309,0.004352,-0.008755,0.301413,0.308740,-0.621217,-0.654156,87.847722,1.687149,-128.897731
41608,NaN,-0.272635,9.866959,0.315084,0.031854,-0.049445,0.062890,-0.002995,0.002921,-0.007083,0.301415,0.308738,-0.621214,-0.654158,87.847229,1.687093,-128.897751
41609,NaN,-0.265326,9.864215,0.369443,-0.014931,-0.021137,0.061975,-0.006007,0.002408,-0.008433,0.301407,0.308727,-0.621204,-0.654177,87.844984,1.687819,-128.899473
41610,NaN,-0.258525,9.841018,0.367712,-0.017689,-0.026554,0.038539,-0.005160,0.005991,-0.002975,0.301435,0.308716,-0.621195,-0.654177,87.842945,1.685330,-128.897831
41611,NaN,-0.266350,9.864151,0.370423,-0.014281,-0.019785,0.061979,-0.004108,0.006168,-0.005593,0.301446,0.308711,-0.621190,-0.654180,87.841853,1.684511,-128.897338
41612,NaN,-0.246054,9.843289,0.388659,-0.041344,-0.023111,0.041230,-0.002363,0.004174,-0.006136,0.301444,0.308706,-0.621194,-0.654179,87.842139,1.683996,-128.898046
41613,NaN,-0.267513,9.864092,0.371135,-0.013754,-0.018378,0.061982,-0.006141,0.005822,-0.004959,0.301458,0.308695,-0.621184,-0.654187,87.839878,1.682806,-128.897737
41614,NaN,-0.273430,9.859023,0.405196,-0.036279,0.007900,0.058377,-0.001098,0.006680,-0.004242,0.301477,0.308694,-0.621186,-0.654177,87.840187,1.680965,-128.896042
41615,NaN,-0.281240,9.882171,0.407441,-0.032865,0.014678,0.081812,0.001281,0.005940,-0.003838,0.301484,0.308691,-0.621202,-0.654160,87.842180,1.679135,-128.895641
