// General information: 
//  MT Manager version: 2019.0.1 
//  XDA version: 2019.0.1 build 2740 rev 84096 built on 2019-01-30
// Device information: 
//  DeviceId: 00B43876
//  ProductCode: MTW2-3A7G6
//  Firmware Version: 4.3.4
//  Hardware Version: 1.1.0
// Device settings: 
//  Filter Profile: human(46.1)
//  Option Flags: Orientation Smoother Disabled, AHS Disabled, ICC Disabled
// Coordinate system: ENU
PacketCounter,SampleTimeFine,Acc_X,Acc_Y,Acc_Z,FreeAcc_E,FreeAcc_N,FreeAcc_U,Gyr_X,Gyr_Y,Gyr_Z,Quat_q0,Quat_q1,Quat_q2,Quat_q3,Roll,Pitch,Yaw
16902,NaN,-0.317673,9.782030,-1.118172,0.056973,-0.057860,0.037833,-0.018059,0.038934,-0.009170,0.490059,0.565709,-0.483927,-0.453464,96.229241,2.220898,-83.081334
16903,NaN,-0.496299,9.822382,-1.057032,-0.027653,0.110509,0.078209,-0.019194,0.033757,-0.004740,0.490173,0.565732,-0.483822,-0.453424,96.220495,2.218997,-83.065404
16904,NaN,-0.462857,9.748200,-1.014295,-0.056779,0.076575,-0.001400,-0.018236,0.010044,-0.004807,0.490226,0.565703,-0.483781,-0.453448,96.212043,2.218500,-83.063324
16905,NaN,-0.443958,9.798319,-1.039592,-0.033484,0.058631,0.050393,-0.011751,-0.015574,0.002570,0.490216,0.565614,-0.483834,-0.453511,96.206455,2.215497,-83.075967
16906,NaN,-0.357708,9.804728,-1.054456,-0.008353,-0.025151,0.055029,-0.007881,-0.023273,-0.000424,0.490175,0.565533,-0.483899,-0.453589,96.203086,2.214909,-83.091310
16907,NaN,-0.203219,9.785560,-1.157501,0.114704,-0.165304,0.041134,-0.012512,-0.005284,-0.002598,0.490181,0.565478,-0.483912,-0.453637,96.197303,2.214211,-83.097766
16908,NaN,-0.318776,9.782973,-1.109575,0.054956,-0.055543,0.037858,-0.020572,0.023927,-0.000501,0.490282,0.565467,-0.483842,-0.453616,96.188037,2.210515,-83.087796
16909,NaN,-0.425230,9.848855,-1.061020,-0.011222,0.041833,0.102183,-0.014932,0.027064,-0.001987,0.490375,0.565478,-0.483771,-0.453578,96.181576,2.207470,-83.075850
16910,NaN,-0.371234,9.772701,-1.096957,0.039744,-0.003053,0.028310,-0.017151,0.015965,-0.001183,0.490454,0.565463,-0.483717,-0.453569,96.173512,2.204798,-83.068930
16911,NaN,-0.391363,9.809856,-1.040501,-0.020791,0.009222,0.059930,-0.019786,0.010380,0.001066,0.490527,0.565417,-0.483684,-0.453582,96.163897,2.201044,-83.066682
16912,NaN,-0.361945,9.771503,-1.045411,-0.007042,-0.016603,0.021225,-0.017878,0.005270,0.001800,0.490583,0.565364,-0.483671,-0.453602,96.155475,2.197180,-83.067198
16913,NaN,-0.376290,9.790988,-1.040183,-0.014396,-0.003094,0.040577,-0.020674,0.006592,0.002105,0.490652,0.565305,-0.483649,-0.453625,96.145265,2.193069,-83.067172
16914,NaN,-0.361458,9.771914,-1.041725,-0.007665,-0.015810,0.021226,-0.017022,0.003280,0.001629,0.490702,0.565250,-0.483640,-0.453648,96.137122,2.189431,-83.068625
16915,NaN,-0.342186,9.787043,-1.043247,-0.004200,-0.034720,0.035685,-0.014025,0.000829,0.002396,0.490738,0.565194,-0.483647,-0.453671,96.130596,2.185506,-83.071901
16916,NaN,-0.374320,9.774710,-1.110798,0.060873,0.006414,0.031864,-0.014636,0.007472,0.002770,0.490796,0.565159,-0.483631,-0.453669,96.124213,2.181258,-83.069909
16917,NaN,-0.394131,9.811800,-1.054546,0.000335,0.018717,0.063470,-0.017033,0.006537,0.005220,0.490862,0.565101,-0.483626,-0.453676,96.116081,2.175375,-83.070102
16918,NaN,-0.345473,9.788414,-1.062538,0.017839,-0.026434,0.039235,-0.019813,0.004604,0.001931,0.490922,0.565042,-0.483610,-0.453701,96.106613,2.171497,-83.070946
16919,NaN,-0.378860,9.792944,-1.054261,0.006718,0.006387,0.044121,-0.018760,0.001484,0.002833,0.490974,0.564974,-0.483607,-0.453732,96.097388,2.167282,-83.073872
16920,NaN,-0.325898,9.803775,-1.062017,0.020912,-0.044927,0.053702,-0.015111,-0.001829,0.002357,0.491003,0.564907,-0.483625,-0.453766,96.090590,2.163376,-83.079478
16921,NaN,-0.335879,9.822393,-1.032962,-0.009514,-0.038565,0.069501,-0.019156,0.003743,0.000687,0.491057,0.564848,-0.483609,-0.453797,96.081193,2.160246,-83.080985
16922,NaN,-0.349192,9.790045,-1.079544,0.039506,-0.017675,0.042791,-0.017409,0.005542,-0.000521,0.491103,0.564801,-0.483594,-0.453822,96.073379,2.157633,-83.081897
16923,NaN,-0.363951,9.774399,-1.050976,0.012366,-0.005129,0.024777,-0.015210,0.007608,-0.004044,0.491145,0.564773,-0.483564,-0.453844,96.066336,2.156963,-83.080913
16924,NaN,-0.364064,9.809660,-1.072950,0.031808,-0.003806,0.062138,-0.018300,0.001753,0.000513,0.491195,0.564720,-0.483548,-0.453873,96.057623,2.154301,-83.082116
16925,NaN,-0.355088,9.808118,-1.023363,-0.014644,-0.017711,0.055038,-0.014453,-0.002690,0.001109,0.491221,0.564658,-0.483559,-0.453910,96.050781,2.151318,-83.087315
16926,NaN,-0.340454,9.789006,-1.025234,-0.007934,-0.030472,0.035697,-0.016594,-0.002229,0.000170,0.491254,0.564599,-0.483557,-0.453949,96.042899,2.149016,-83.091146
16927,NaN,-0.335936,9.823407,-1.023257,-0.011535,-0.036248,0.069508,-0.015302,-0.000699,0.001279,0.491288,0.564538,-0.483563,-0.453982,96.035614,2.145815,-83.095218
16928,NaN,-0.349260,9.791069,-1.070188,0.037518,-0.015411,0.042802,-0.014608,0.004222,-0.000828,0.491326,0.564500,-0.483551,-0.454001,96.029286,2.143641,-83.095914
16929,NaN,-0.335884,9.823718,-1.020285,-0.012232,-0.035478,0.069510,-0.016350,0.002423,0.000377,0.491368,0.564446,-0.483544,-0.454030,96.021470,2.140765,-83.098151
16930,NaN,-0.392997,9.814106,-1.033302,-0.004027,0.023802,0.063458,-0.016307,0.008205,-0.000486,0.491423,0.564409,-0.483519,-0.454042,96.013898,2.138020,-83.096713
16931,NaN,-0.329920,9.806557,-1.068465,0.040321,-0.033523,0.057281,-0.017411,0.008797,0.003072,0.491490,0.564361,-0.483501,-0.454049,96.005603,2.133225,-83.095477
16932,NaN,-0.344254,9.790884,-1.039938,0.013160,-0.020978,0.039256,-0.015014,0.009735,0.000623,0.491548,0.564329,-0.483478,-0.454051,95.998898,2.129811,-83.093122
16933,NaN,-0.329436,9.771798,-1.041710,0.019894,-0.033716,0.019921,-0.019506,0.015042,0.001270,0.491631,0.564294,-0.483435,-0.454050,95.989540,2.125670,-83.088216
16934,NaN,-0.311377,9.803543,-0.967497,-0.052953,-0.060918,0.043069,-0.018368,0.023484,0.000447,0.491733,0.564287,-0.483368,-0.454021,95.981098,2.121572,-83.077675
16935,NaN,-0.287626,9.817795,-0.944651,-0.072600,-0.086954,0.053992,-0.020262,0.028599,-0.000284,0.491848,0.564284,-0.483286,-0.453987,95.971595,2.117510,-83.064944
16936,NaN,-0.278416,9.851316,-0.918280,-0.099363,-0.099891,0.084248,-0.020620,0.039896,0.000307,0.491992,0.564311,-0.483174,-0.453916,95.962555,2.112631,-83.044999
16937,NaN,-0.367467,9.759214,-0.953233,-0.065171,-0.001856,-0.000364,-0.017936,0.054523,0.000804,0.492166,0.564371,-0.483036,-0.453800,95.954924,2.106411,-83.017548
16938,NaN,-0.238027,9.829948,-0.972362,-0.036009,-0.130332,0.067178,-0.023488,0.053923,-0.002197,0.492346,0.564417,-0.482884,-0.453710,95.943970,2.101629,-82.991093
16939,NaN,-0.388580,9.764175,-1.069822,0.049610,0.034670,0.017418,-0.013321,0.060791,-0.001572,0.492516,0.564508,-0.482734,-0.453571,95.939115,2.096399,-82.959925
16940,NaN,-0.360261,9.812572,-1.047301,0.026592,0.002479,0.062154,-0.009914,0.052827,-0.002261,0.492654,0.564591,-0.482612,-0.453448,95.936367,2.092001,-82.933343
16941,NaN,-0.314699,9.738375,-1.132170,0.123681,-0.028312,-0.004492,-0.008596,0.051110,-0.004751,0.492780,0.564679,-0.482488,-0.453333,95.934020,2.089159,-82.907508
16942,NaN,-0.325003,9.721644,-1.080504,0.073466,-0.022895,-0.026087,-0.010720,0.051576,-0.005700,0.492912,0.564768,-0.482353,-0.453221,95.930604,2.086880,-82.880777
16943,NaN,-0.415642,9.751409,-1.112021,0.090732,0.069789,0.010053,-0.005727,0.055579,-0.005921,0.493039,0.564876,-0.482221,-0.453090,95.929994,2.084443,-82.852323
16944,NaN,-0.421738,9.768819,-1.060513,0.037197,0.069090,0.022262,-0.000831,0.044759,-0.008013,0.493119,0.564976,-0.482123,-0.452982,95.932145,2.083733,-82.830118
16945,NaN,-0.380969,9.814303,-0.966882,-0.055016,0.015540,0.056319,-0.000570,0.034175,-0.000549,0.493191,0.565036,-0.482071,-0.452885,95.934033,2.079501,-82.814189
16946,NaN,-0.427457,9.786199,-1.009447,-0.016709,0.068781,0.034464,0.002949,0.019286,0.000712,0.493215,0.565066,-0.482073,-0.452819,95.938190,2.075365,-82.807424
16947,NaN,-0.365760,9.794972,-0.971193,-0.048693,0.003191,0.036988,0.010795,0.009257,0.003003,0.493203,0.565088,-0.482118,-0.452756,95.946065,2.070584,-82.805915
16948,NaN,-0.359703,9.777463,-1.023587,0.004141,0.004660,0.024784,0.009139,0.006742,-0.003853,0.493174,0.565121,-0.482145,-0.452719,95.953285,2.069937,-82.805040
16949,NaN,-0.264797,9.781863,-0.992255,-0.017097,-0.093379,0.022480,0.020469,0.003566,-0.000364,0.493113,0.565162,-0.482216,-0.452657,95.966593,2.067413,-82.806578
16950,NaN,-0.241777,9.795700,-0.973173,-0.036894,-0.119423,0.033410,0.021916,0.010167,-0.008172,0.493043,0.565244,-0.482255,-0.452591,95.981568,2.069025,-82.803971
16951,NaN,-0.295449,9.784733,-0.966693,-0.051679,-0.067278,0.023754,0.029711,0.009594,-0.012277,0.492943,0.565350,-0.482299,-0.452520,96.000322,2.072930,-82.801361
16952,NaN,-0.326168,9.787737,-0.939905,-0.085866,-0.041496,0.025021,0.039454,0.009691,-0.016510,0.492803,0.565486,-0.482360,-0.452437,96.024867,2.078958,-82.799585
16953,NaN,-0.308777,9.802267,-0.946846,-0.082470,-0.060388,0.039513,0.043562,0.006648,-0.019290,0.492642,0.565636,-0.482423,-0.452358,96.051512,2.087034,-82.798228
16954,NaN,-0.329931,9.786782,-0.948499,-0.086534,-0.040750,0.025018,0.048136,0.003877,-0.024384,0.492452,0.565813,-0.482480,-0.452282,96.081018,2.098468,-82.796617
16955,NaN,-0.361376,9.824753,-0.946661,-0.100927,-0.014025,0.063656,0.049704,-0.008422,-0.019388,0.492237,0.565945,-0.482593,-0.452231,96.110868,2.107516,-82.803838
16956,NaN,-0.380907,9.792523,-1.023925,-0.028716,0.013862,0.040536,0.048448,-0.013206,-0.024098,0.491999,0.566072,-0.482708,-0.452208,96.140229,2.119378,-82.814224
16957,NaN,-0.366863,9.790984,-1.131288,0.074044,0.010240,0.049978,0.057229,-0.019426,-0.022838,0.491728,0.566206,-0.482855,-0.452179,96.174163,2.131075,-82.827495
16958,NaN,-0.316668,9.836072,-1.169336,0.107843,-0.040126,0.097040,0.053378,-0.024020,-0.026179,0.491444,0.566326,-0.483001,-0.452180,96.206225,2.144844,-82.843863
16959,NaN,-0.372132,9.789573,-1.141728,0.073350,0.011033,0.049983,0.052524,-0.018766,-0.022431,0.491189,0.566449,-0.483138,-0.452158,96.237472,2.156283,-82.856770
16960,NaN,-0.403919,9.827376,-1.140274,0.058971,0.037752,0.088615,0.053144,-0.025408,-0.022802,0.490918,0.566562,-0.483286,-0.452152,96.268891,2.168417,-82.872615
16961,NaN,-0.391462,9.807483,-1.148337,0.065701,0.024975,0.069301,0.046780,-0.030212,-0.015631,0.490666,0.566628,-0.483456,-0.452160,96.296578,2.176715,-82.892460
16962,NaN,-0.416745,9.792673,-1.173673,0.084781,0.051814,0.058369,0.042707,-0.030424,-0.016450,0.490422,0.566680,-0.483622,-0.452183,96.321900,2.185179,-82.913377
16963,NaN,-0.418116,9.792106,-1.177910,0.084475,0.052203,0.058370,0.046441,-0.030862,-0.004193,0.490195,0.566716,-0.483826,-0.452166,96.349346,2.187022,-82.934309
16964,NaN,-0.462767,9.814336,-1.148387,0.043338,0.091113,0.078923,0.037348,-0.031823,-0.001186,0.490004,0.566726,-0.484013,-0.452161,96.371446,2.187345,-82.954763
16965,NaN,-0.464543,9.830940,-1.076586,-0.033257,0.083383,0.087523,0.036824,-0.034607,0.005596,0.489818,0.566706,-0.484231,-0.452154,96.393278,2.183871,-82.978451
16966,NaN,-0.276935,9.789324,-1.090693,0.004060,-0.098779,0.040606,0.040491,-0.037912,0.005128,0.489614,0.566687,-0.484465,-0.452148,96.416850,2.180698,-83.003955
16967,NaN,-0.287136,9.807415,-1.067363,-0.026377,-0.092305,0.056349,0.041645,-0.029464,0.004268,0.489424,0.566694,-0.484678,-0.452117,96.441560,2.177669,-83.024631
16968,NaN,-0.363244,9.781948,-1.083145,-0.021609,-0.013726,0.035714,0.043213,-0.026533,0.001974,0.489235,0.566715,-0.484878,-0.452080,96.466719,2.175565,-83.043232
16969,NaN,-0.357610,9.763627,-1.138571,0.031292,-0.012323,0.023547,0.044300,-0.032911,-0.000705,0.489018,0.566732,-0.485092,-0.452065,96.492890,2.175608,-83.065553
16970,NaN,-0.362533,9.833727,-1.214134,0.093544,-0.002888,0.101896,0.038312,-0.028019,-0.002265,0.488829,0.566755,-0.485269,-0.452050,96.515686,2.176358,-83.083829
16971,NaN,-0.411204,9.821870,-1.184261,0.055753,0.042167,0.088616,0.034399,-0.026097,0.001590,0.488661,0.566758,-0.485450,-0.452034,96.536326,2.174668,-83.102417
16972,NaN,-0.392288,9.836495,-1.190328,0.059126,0.023313,0.103126,0.028797,-0.023460,0.002188,0.488516,0.566748,-0.485617,-0.452024,96.553775,2.172233,-83.120162
16973,NaN,-0.402423,9.819834,-1.142009,0.008968,0.028814,0.081470,0.029397,-0.026836,0.005417,0.488369,0.566727,-0.485799,-0.452012,96.571525,2.168426,-83.139422
16974,NaN,-0.388766,9.817545,-1.072714,-0.060523,0.007973,0.070750,0.028247,-0.032010,0.009862,0.488228,0.566682,-0.485999,-0.452006,96.588019,2.162328,-83.161259
16975,NaN,-0.455493,9.895636,-1.110597,-0.042794,0.075291,0.155112,0.031421,-0.041355,0.012599,0.488056,0.566616,-0.486242,-0.452013,96.606602,2.155400,-83.189264
16976,NaN,-0.477635,9.881055,-1.134270,-0.023589,0.102174,0.144167,0.028905,-0.047306,0.023997,0.487903,0.566493,-0.486532,-0.452021,96.622995,2.141805,-83.222829
16977,NaN,-0.380317,9.885947,-1.104672,-0.044994,0.004173,0.141952,0.027970,-0.053599,0.029515,0.487749,0.566350,-0.486845,-0.452030,96.639312,2.126076,-83.258931
16978,NaN,-0.343074,9.829216,-1.164729,0.022021,-0.020796,0.091194,0.023925,-0.048036,0.027820,0.487618,0.566211,-0.487130,-0.452038,96.653163,2.110745,-83.291888
16979,NaN,-0.330460,9.775514,-1.170243,0.032114,-0.027504,0.038077,0.023371,-0.026568,0.029967,0.487544,0.566116,-0.487367,-0.451981,96.667427,2.092981,-83.312634
16980,NaN,-0.270676,9.785344,-1.157874,0.023151,-0.085941,0.044238,0.020643,-0.013694,0.028487,0.487512,0.566050,-0.487556,-0.451894,96.679985,2.075188,-83.325008
16981,NaN,-0.145120,9.769033,-1.058846,-0.060525,-0.218374,0.012019,0.016033,-0.002254,0.019096,0.487493,0.566019,-0.487687,-0.451812,96.690583,2.061997,-83.331191
16982,NaN,-0.315340,9.773818,-1.127705,-0.014894,-0.040459,0.030931,0.016597,0.003018,0.007832,0.487463,0.566030,-0.487771,-0.451740,96.701488,2.054800,-83.333178
16983,NaN,-0.319800,9.774238,-1.153436,0.007889,-0.032991,0.034508,0.019436,-0.017158,-0.005906,0.487342,0.566035,-0.487875,-0.451752,96.713792,2.056837,-83.346178
16984,NaN,-0.349059,9.864894,-1.271452,0.109299,0.003836,0.139328,0.009989,-0.016625,-0.013065,0.487236,0.566034,-0.487935,-0.451804,96.720436,2.062746,-83.358243
16985,NaN,-0.432502,9.892760,-1.255863,0.080581,0.082388,0.168178,0.000033,-0.018857,-0.013431,0.487149,0.566006,-0.487977,-0.451887,96.721604,2.069182,-83.371705
16986,NaN,-0.424030,9.874013,-1.283071,0.110509,0.076682,0.152457,0.001550,-0.021713,-0.014837,0.487054,0.565979,-0.488019,-0.451976,96.722937,2.076518,-83.385685
16987,NaN,-0.412694,9.907021,-1.234405,0.060642,0.056851,0.179121,-0.012658,-0.020535,-0.021545,0.486981,0.565936,-0.488015,-0.452115,96.716815,2.087682,-83.399558
16988,NaN,-0.344214,9.950229,-1.169824,0.002066,-0.021796,0.211960,-0.029728,-0.008231,-0.017199,0.487000,0.565871,-0.487948,-0.452247,96.700855,2.095536,-83.405869
16989,NaN,-0.408159,9.958563,-1.129892,-0.042703,0.036504,0.217919,-0.032386,0.001772,-0.005070,0.487074,0.565790,-0.487891,-0.452330,96.683850,2.095829,-83.408146
16990,NaN,-0.561847,9.926370,-1.073595,-0.109048,0.185182,0.185058,-0.037910,-0.010774,0.002871,0.487152,0.565646,-0.487875,-0.452444,96.663134,2.092209,-83.418295
16991,NaN,-0.585776,9.964727,-1.039433,-0.146501,0.204936,0.220053,-0.032559,-0.044035,0.019221,0.487169,0.565401,-0.487998,-0.452599,96.645022,2.081718,-83.448271
16992,NaN,-0.645135,9.921077,-1.049617,-0.134543,0.270346,0.180034,-0.046009,-0.075830,0.038432,0.487192,0.564997,-0.488226,-0.452833,96.617917,2.061899,-83.498556
16993,NaN,-0.488315,9.884557,-1.049533,-0.108206,0.120529,0.138102,-0.050625,-0.099394,0.043475,0.487180,0.564524,-0.488511,-0.453128,96.588286,2.041224,-83.561650
16994,NaN,-0.450576,9.950949,-1.097298,-0.058363,0.090492,0.208134,-0.069954,-0.102426,0.065643,0.487266,0.563938,-0.488824,-0.453428,96.547133,2.007787,-83.628426
16995,NaN,-0.428074,9.846316,-1.294308,0.157600,0.100592,0.125796,-0.088400,-0.093763,0.064231,0.487421,0.563334,-0.489068,-0.453749,96.495990,1.974840,-83.689633
16996,NaN,-0.302072,9.762390,-1.336527,0.229975,-0.009724,0.042708,-0.076177,-0.080432,0.063728,0.487578,0.562787,-0.489304,-0.454005,96.451346,1.940936,-83.743180
16997,NaN,-0.205243,9.646965,-1.325339,0.248745,-0.095688,-0.076592,-0.076889,-0.064364,0.057664,0.487757,0.562294,-0.489483,-0.454231,96.407448,1.909743,-83.787161
16998,NaN,-0.076810,9.630980,-1.218193,0.165067,-0.227976,-0.108747,-0.071970,-0.039398,0.049246,0.487967,0.561882,-0.489591,-0.454398,96.366092,1.881248,-83.816982
16999,NaN,0.003258,9.586404,-1.153372,0.120179,-0.307686,-0.162801,-0.062736,-0.019358,0.031058,0.488156,0.561591,-0.489617,-0.454527,96.331238,1.862293,-83.833589
17000,NaN,-0.038612,9.591925,-1.014484,-0.016864,-0.277461,-0.171192,-0.058078,-0.005561,0.015280,0.488328,0.561368,-0.489585,-0.454651,96.298753,1.850813,-83.842965
17001,NaN,-0.191047,9.700388,-1.050457,-0.004332,-0.124822,-0.054517,-0.050058,-0.001503,0.011316,0.488480,0.561196,-0.489541,-0.454747,96.271537,1.841962,-83.848138
17002,NaN,-0.325385,9.770440,-0.967839,-0.103788,-0.001294,0.010414,-0.037533,-0.006008,0.003090,0.488570,0.561059,-0.489515,-0.454848,96.250856,1.837697,-83.855812
17003,NaN,-0.397279,9.850554,-1.022521,-0.062901,0.073148,0.098291,-0.027630,-0.012835,0.000710,0.488607,0.560942,-0.489521,-0.454947,96.236306,1.835590,-83.866775
17004,NaN,-0.364118,9.863218,-0.951107,-0.128808,0.033192,0.102077,-0.026795,-0.017345,0.004986,0.488643,0.560803,-0.489551,-0.455047,96.221734,1.831068,-83.880690
17005,NaN,-0.257587,9.762432,-0.972986,-0.083340,-0.065025,0.000923,-0.019441,-0.009174,0.005875,0.488678,0.560702,-0.489580,-0.455103,96.211933,1.825786,-83.889886
17006,NaN,-0.217512,9.688743,-1.081128,0.036947,-0.089310,-0.061865,-0.015282,0.011605,0.007686,0.488761,0.560653,-0.489569,-0.455085,96.204295,1.817999,-83.886871
17007,NaN,-0.188008,9.631895,-0.988316,-0.045331,-0.124271,-0.129298,-0.002960,0.023761,0.008329,0.488836,0.560661,-0.489563,-0.455003,96.204529,1.809278,-83.877449
17008,NaN,-0.076242,9.529958,-0.989114,-0.022877,-0.229474,-0.234009,0.013688,0.037513,0.006374,0.488896,0.560738,-0.489558,-0.454849,96.213893,1.800344,-83.860811
17009,NaN,-0.104367,9.533327,-0.960605,-0.056929,-0.203620,-0.232851,0.029701,0.048876,0.002065,0.488926,0.560898,-0.489546,-0.454631,96.233298,1.793628,-83.836690
17010,NaN,-0.055017,9.492429,-1.049461,0.036799,-0.240986,-0.265375,0.040340,0.061765,-0.000543,0.488951,0.561110,-0.489528,-0.454363,96.258635,1.787054,-83.806479
17011,NaN,-0.150175,9.522652,-1.108854,0.077497,-0.141245,-0.225871,0.047110,0.070073,-0.006471,0.488965,0.561382,-0.489480,-0.454063,96.288403,1.783850,-83.769752
17012,NaN,-0.303711,9.594990,-1.131709,0.070524,0.010480,-0.146677,0.055191,0.079912,-0.011300,0.488974,0.561706,-0.489409,-0.453728,96.322375,1.782547,-83.726679
17013,NaN,-0.295278,9.714671,-1.085543,0.006761,-0.008070,-0.033101,0.065297,0.072702,-0.004555,0.488948,0.562023,-0.489401,-0.453372,96.362602,1.778042,-83.688579
17014,NaN,-0.233189,9.757837,-1.077510,-0.005771,-0.072451,0.006961,0.064897,0.069192,-0.005850,0.488911,0.562328,-0.489401,-0.453033,96.402188,1.774105,-83.653118
17015,NaN,-0.300245,9.765971,-1.071281,-0.027336,-0.007036,0.016411,0.070739,0.065425,-0.005418,0.488849,0.562644,-0.489421,-0.452686,96.445401,1.770504,-83.619115
17016,NaN,-0.286476,9.762905,-1.006743,-0.096870,-0.027571,0.005651,0.076827,0.066309,-0.004785,0.488770,0.562959,-0.489468,-0.452330,96.491527,1.765624,-83.587195
17017,NaN,-0.242577,9.739057,-1.048295,-0.056431,-0.065895,-0.014756,0.079025,0.065862,-0.003873,0.488690,0.563292,-0.489509,-0.451957,96.539486,1.761060,-83.553050
17018,NaN,-0.294790,9.692825,-1.023016,-0.090516,-0.014609,-0.062000,0.084179,0.060453,0.002270,0.488598,0.563601,-0.489596,-0.451577,96.589451,1.752782,-83.523243
17019,NaN,-0.316093,9.695438,-1.151348,0.024702,0.020912,-0.044065,0.085231,0.054838,0.007623,0.488498,0.563896,-0.489711,-0.451192,96.640741,1.742343,-83.496142
17020,NaN,-0.333481,9.784262,-1.228524,0.079957,0.043712,0.053617,0.090185,0.047291,0.009118,0.488369,0.564168,-0.489869,-0.450820,96.694030,1.730785,-83.475361
17021,NaN,-0.426737,9.848344,-1.317336,0.140407,0.144446,0.130490,0.087776,0.043873,0.016022,0.488254,0.564423,-0.490040,-0.450439,96.746561,1.716251,-83.455086
17022,NaN,-0.414539,9.793726,-1.329072,0.150643,0.137727,0.077392,0.081207,0.031198,0.019451,0.488133,0.564613,-0.490246,-0.450109,96.794497,1.699923,-83.444139
17023,NaN,-0.316660,9.797424,-1.304519,0.128936,0.039774,0.075353,0.071920,0.034673,0.024977,0.488060,0.564787,-0.490428,-0.449771,96.837758,1.680886,-83.429734
17024,NaN,-0.280300,9.757248,-1.293844,0.119752,0.006827,0.033231,0.068893,0.031354,0.025086,0.487989,0.564926,-0.490623,-0.449460,96.877956,1.661015,-83.419638
17025,NaN,-0.278342,9.808896,-1.249172,0.062785,0.000422,0.079148,0.061949,0.029978,0.029053,0.487942,0.565055,-0.490806,-0.449150,96.915408,1.639963,-83.408213
17026,NaN,-0.299832,9.846419,-1.224789,0.025588,0.020551,0.114089,0.056501,0.022460,0.028054,0.487890,0.565131,-0.491007,-0.448891,96.948018,1.618754,-83.404175
17027,NaN,-0.249679,9.874382,-1.188495,-0.013774,-0.031609,0.136036,0.051699,0.017349,0.029393,0.487842,0.565205,-0.491198,-0.448640,96.979385,1.598372,-83.399984
17028,NaN,-0.314210,9.882972,-1.181005,-0.035068,0.034000,0.145437,0.050013,0.014780,0.022564,0.487780,0.565271,-0.491379,-0.448426,97.008449,1.581230,-83.398429
17029,NaN,-0.221224,9.887628,-1.177238,-0.033724,-0.056924,0.147013,0.040887,0.007298,0.018468,0.487713,0.565323,-0.491540,-0.448257,97.033481,1.567760,-83.399211
17030,NaN,-0.180136,9.864294,-1.238404,0.029938,-0.088109,0.130237,0.035399,0.018224,0.013681,0.487676,0.565378,-0.491663,-0.448094,97.054499,1.555235,-83.396284
17031,NaN,-0.126777,9.804649,-1.202933,0.004432,-0.141514,0.065279,0.031212,0.024121,0.002854,0.487642,0.565482,-0.491717,-0.447939,97.074277,1.549457,-83.386407
17032,NaN,-0.153354,9.772730,-1.325267,0.123226,-0.099939,0.049408,0.016835,0.028929,-0.009419,0.487631,0.565574,-0.491707,-0.447847,97.085068,1.549361,-83.375777
17033,NaN,-0.262513,9.804170,-1.455220,0.233409,0.020766,0.099599,0.011215,0.021733,-0.019518,0.487598,0.565679,-0.491658,-0.447803,97.093394,1.556468,-83.365679
17034,NaN,-0.239350,9.800510,-1.509871,0.290066,0.002766,0.102092,-0.004197,0.017772,-0.021774,0.487594,0.565727,-0.491589,-0.447823,97.091784,1.564281,-83.359876
17035,NaN,-0.271287,9.769912,-1.454639,0.236394,0.027670,0.065779,-0.013859,-0.002310,-0.029765,0.487550,0.565742,-0.491514,-0.447933,97.085391,1.578914,-83.362729
17036,NaN,-0.386076,9.767905,-1.382838,0.154710,0.131026,0.058086,-0.024425,-0.026174,-0.036693,0.487464,0.565685,-0.491460,-0.448160,97.071725,1.598586,-83.379894
17037,NaN,-0.239421,9.835132,-1.282406,0.067230,-0.032400,0.108307,-0.023615,-0.043788,-0.046644,0.487308,0.565625,-0.491416,-0.448452,97.059109,1.625738,-83.405157
17038,NaN,-0.110859,9.747714,-1.256974,0.070032,-0.163969,0.014744,-0.020320,-0.051422,-0.056405,0.487101,0.565561,-0.491383,-0.448793,97.047068,1.657986,-83.436635
17039,NaN,0.148489,9.677898,-1.107480,-0.037798,-0.441265,-0.080569,-0.004988,-0.029446,-0.075141,0.486864,0.565649,-0.491266,-0.449069,97.045392,1.700326,-83.451745
17040,NaN,0.223889,9.684757,-0.949273,-0.185728,-0.541427,-0.095789,0.012756,0.024244,-0.093918,0.486663,0.565929,-0.491018,-0.449205,97.054078,1.748725,-83.437492
17041,NaN,0.060095,9.879224,-0.967643,-0.209880,-0.394277,0.103940,0.013842,0.088044,-0.106263,0.486590,0.566403,-0.490568,-0.449177,97.065303,1.800491,-83.383563
17042,NaN,-0.172947,10.012433,-1.122845,-0.098884,-0.160517,0.262229,-0.010093,0.147463,-0.107497,0.486724,0.566935,-0.489933,-0.449054,97.063202,1.847824,-83.298721
17043,NaN,-0.561414,10.061330,-1.298738,0.026414,0.235111,0.344886,-0.048739,0.169175,-0.093035,0.487057,0.567406,-0.489183,-0.448917,97.040132,1.886369,-83.199570
17044,NaN,-0.691701,9.937963,-1.497500,0.227081,0.387512,0.251225,-0.070120,0.149916,-0.080615,0.487430,0.567730,-0.488479,-0.448868,97.003282,1.918260,-83.114918
17045,NaN,-0.658013,9.776893,-1.452000,0.211925,0.352006,0.084792,-0.078230,0.106791,-0.073732,0.487737,0.567941,-0.487868,-0.448933,96.962185,1.950291,-83.052653
17046,NaN,-0.456828,9.751462,-1.456610,0.251991,0.150318,0.053179,-0.090076,0.070231,-0.062830,0.488012,0.567995,-0.487362,-0.449114,96.912420,1.977782,-83.014303
17047,NaN,-0.337246,9.754196,-1.445077,0.263750,0.026826,0.050173,-0.091919,0.060162,-0.056252,0.488283,0.568025,-0.486884,-0.449302,96.862575,2.003176,-82.979832
17048,NaN,-0.419267,9.817388,-1.420520,0.232032,0.099750,0.112582,-0.104427,0.051976,-0.045279,0.488593,0.567963,-0.486439,-0.449525,96.804557,2.022160,-82.952873
17049,NaN,-0.561572,9.801356,-1.386010,0.193034,0.236282,0.097402,-0.116112,0.045064,-0.030893,0.488952,0.567837,-0.486015,-0.449752,96.740505,2.034216,-82.928762
17050,NaN,-0.574203,9.821433,-1.347409,0.162712,0.243100,0.113046,-0.121805,0.020932,-0.021178,0.489288,0.567607,-0.485674,-0.450044,96.672118,2.041755,-82.920847
17051,NaN,-0.510033,9.762016,-1.224315,0.067808,0.168763,0.037336,-0.128039,0.003067,-0.002001,0.489644,0.567287,-0.485407,-0.450349,96.600317,2.040205,-82.922595
17052,NaN,-0.355873,9.726983,-1.214890,0.093612,0.018825,-0.004136,-0.128282,-0.013527,0.008714,0.489982,0.566889,-0.485222,-0.450682,96.527359,2.032912,-82.936565
17053,NaN,-0.295445,9.686754,-1.238542,0.140952,-0.032968,-0.043680,-0.132490,-0.006458,0.023084,0.490383,0.566475,-0.485039,-0.450963,96.452759,2.017693,-82.945361
17054,NaN,-0.286371,9.670808,-1.276863,0.194030,-0.031880,-0.055729,-0.135114,0.022031,0.031426,0.490885,0.566094,-0.484802,-0.451150,96.376311,1.995549,-82.938442
17055,NaN,-0.400135,9.723482,-1.365303,0.274294,0.095012,0.010041,-0.142025,0.036195,0.045195,0.491466,0.565699,-0.484556,-0.451278,96.297047,1.965018,-82.924292
17056,NaN,-0.555162,9.709754,-1.250012,0.155560,0.243281,-0.011327,-0.140195,0.035093,0.057552,0.492071,0.565273,-0.484349,-0.451375,96.218271,1.927300,-82.911441
17057,NaN,-0.628541,9.790393,-1.144754,0.047396,0.308547,0.059489,-0.153283,0.009238,0.073362,0.492681,0.564720,-0.484223,-0.451536,96.131973,1.882426,-82.914308
17058,NaN,-0.456114,9.839670,-1.032488,-0.033336,0.132088,0.090574,-0.153063,-0.022360,0.088949,0.493250,0.564054,-0.484221,-0.451750,96.044906,1.830283,-82.936618
17059,NaN,-0.415628,9.888960,-0.971438,-0.079838,0.093376,0.131801,-0.150816,-0.041289,0.093514,0.493775,0.563344,-0.484281,-0.451997,95.959086,1.776944,-82.969361
17060,NaN,-0.429930,9.841632,-0.953916,-0.080219,0.119022,0.083367,-0.158031,-0.055660,0.102469,0.494304,0.562558,-0.484390,-0.452283,95.869042,1.719061,-83.011573
17061,NaN,-0.363617,9.817907,-0.899835,-0.109267,0.059658,0.052286,-0.151414,-0.072975,0.104434,0.494778,0.561747,-0.484556,-0.452593,95.782397,1.661240,-83.062855
17062,NaN,-0.324520,9.781079,-0.891885,-0.095613,0.033488,0.013807,-0.144435,-0.089320,0.112124,0.495208,0.560894,-0.484805,-0.452914,95.699659,1.599668,-83.124470
17063,NaN,-0.362210,9.841657,-0.891308,-0.093777,0.080774,0.075107,-0.139230,-0.097996,0.114616,0.495610,0.560031,-0.485088,-0.453240,95.619702,1.537307,-83.190428
17064,NaN,-0.295371,9.781902,-0.816267,-0.142544,0.020416,0.006599,-0.128667,-0.108201,0.115445,0.495955,0.559168,-0.485426,-0.453565,95.546065,1.474860,-83.262602
17065,NaN,-0.192548,9.772426,-0.870355,-0.065089,-0.062961,-0.000110,-0.123009,-0.116605,0.115609,0.496268,0.558299,-0.485794,-0.453900,95.475281,1.412785,-83.339064
17066,NaN,-0.057308,9.687517,-0.885568,-0.016465,-0.180917,-0.086307,-0.112634,-0.110414,0.108186,0.496547,0.557487,-0.486152,-0.454209,95.410820,1.354415,-83.411750
17067,NaN,-0.105977,9.730429,-0.837024,-0.064398,-0.128267,-0.046805,-0.112710,-0.093285,0.107947,0.496869,0.556714,-0.486463,-0.454472,95.346416,1.295283,-83.474348
17068,NaN,-0.096544,9.731407,-0.826725,-0.064826,-0.127866,-0.046802,-0.097173,-0.078494,0.100614,0.497162,0.556032,-0.486756,-0.454672,95.291813,1.239458,-83.528488
17069,NaN,-0.137580,9.691162,-0.959618,0.073604,-0.060621,-0.073626,-0.092737,-0.073638,0.101633,0.497461,0.555368,-0.487046,-0.454846,95.239224,1.182772,-83.579423
17070,NaN,-0.239564,9.810182,-0.874268,-0.025528,0.038369,0.039179,-0.084181,-0.062828,0.102668,0.497759,0.554747,-0.487336,-0.454966,95.192383,1.124829,-83.624793
17071,NaN,-0.228426,9.831435,-0.964198,0.070173,0.047291,0.068193,-0.089115,-0.072550,0.103607,0.498055,0.554090,-0.487636,-0.455123,95.141984,1.066873,-83.675110
17072,NaN,-0.249747,9.693536,-0.833261,-0.042342,0.069282,-0.080538,-0.089617,-0.068441,0.108422,0.498371,0.553429,-0.487938,-0.455256,95.091644,1.005900,-83.723175
17073,NaN,-0.205721,9.725447,-0.854094,-0.012527,0.038134,-0.047725,-0.082283,-0.087811,0.110052,0.498625,0.552737,-0.488309,-0.455422,95.045113,0.944951,-83.782427
17074,NaN,-0.209013,9.781396,-0.864727,-0.000344,0.052842,0.008939,-0.086191,-0.084064,0.120838,0.498917,0.552021,-0.488695,-0.455558,94.997318,0.877729,-83.840188
17075,NaN,-0.197514,9.817982,-0.879020,0.018976,0.054266,0.046377,-0.084048,-0.093527,0.118893,0.499180,0.551289,-0.489099,-0.455721,94.949858,0.811919,-83.903039
17076,NaN,-0.154081,9.829127,-0.801806,-0.047386,0.014562,0.050167,-0.076597,-0.104548,0.115265,0.499385,0.550567,-0.489537,-0.455899,94.907577,0.748995,-83.971181
17077,NaN,-0.081287,9.836762,-0.755825,-0.079990,-0.050702,0.052949,-0.071842,-0.110354,0.123597,0.499584,0.549815,-0.490023,-0.456066,94.867132,0.681227,-84.043767
17078,NaN,-0.080986,9.784006,-0.675317,-0.149816,-0.046004,-0.006321,-0.072501,-0.105748,0.119320,0.499785,0.549093,-0.490480,-0.456226,94.827246,0.616078,-84.112160
17079,NaN,-0.107121,9.761382,-0.837146,0.015282,0.008845,-0.014905,-0.067361,-0.114492,0.121710,0.499956,0.548346,-0.490981,-0.456397,94.789513,0.549487,-84.186923
17080,NaN,-0.134729,9.732828,-0.825200,0.007837,0.047700,-0.044131,-0.062214,-0.107314,0.125109,0.500132,0.547625,-0.491488,-0.456524,94.755813,0.480753,-84.257679
17081,NaN,-0.094016,9.780532,-0.797236,-0.015630,0.016029,0.000708,-0.048902,-0.110000,0.128327,0.500278,0.546918,-0.492037,-0.456621,94.728855,0.410085,-84.330112
17082,NaN,-0.086169,9.818378,-0.838753,0.026654,0.024365,0.041761,-0.051997,-0.114671,0.131659,0.500422,0.546185,-0.492605,-0.456728,94.701095,0.337742,-84.405860
17083,NaN,-0.068720,9.882245,-0.680915,-0.129945,0.003992,0.092373,-0.046836,-0.107508,0.135057,0.500582,0.545471,-0.493171,-0.456795,94.675510,0.263045,-84.477117
17084,NaN,-0.004007,9.841786,-0.739161,-0.059744,-0.041054,0.056550,-0.046696,-0.107472,0.134995,0.500736,0.544764,-0.493738,-0.456857,94.651261,0.188674,-84.548120
17085,NaN,-0.006869,9.790186,-0.685825,-0.106290,-0.029324,0.000873,-0.035153,-0.099271,0.136776,0.500889,0.544093,-0.494313,-0.456867,94.632569,0.112557,-84.614692
17086,NaN,-0.064967,9.838126,-0.714881,-0.084944,0.044138,0.051126,-0.035023,-0.099237,0.136718,0.501036,0.543428,-0.494890,-0.456874,94.614945,0.036709,-84.680957
17087,NaN,-0.047365,9.836743,-0.687668,-0.108393,0.037645,0.047509,-0.031451,-0.098223,0.138709,0.501185,0.542763,-0.495475,-0.456867,94.598551,-0.040602,-84.746973
17088,NaN,0.010134,9.899866,-0.689151,-0.105487,-0.006419,0.110578,-0.027305,-0.113977,0.138375,0.501277,0.542083,-0.496107,-0.456886,94.585827,-0.116509,-84.821066
17089,NaN,-0.063223,9.896170,-0.669516,-0.130200,0.078417,0.105140,-0.024498,-0.121090,0.138733,0.501349,0.541382,-0.496765,-0.456923,94.573629,-0.192818,-84.900107
17090,NaN,-0.026263,9.908993,-0.646633,-0.150337,0.052607,0.116138,-0.012973,-0.136392,0.133196,0.501337,0.540698,-0.497470,-0.456981,94.569094,-0.264871,-84.986802
17091,NaN,0.072069,9.912720,-0.662778,-0.126276,-0.031364,0.121574,-0.010186,-0.140935,0.129159,0.501298,0.540010,-0.498184,-0.457059,94.565353,-0.334824,-85.076724
17092,NaN,0.055288,9.937639,-0.729447,-0.064321,0.003139,0.151632,-0.004454,-0.147999,0.125821,0.501212,0.539329,-0.498924,-0.457150,94.565784,-0.402512,-85.171099
17093,NaN,-0.016424,9.882235,-0.740794,-0.055360,0.087443,0.096747,-0.008056,-0.161895,0.128541,0.501113,0.538599,-0.499692,-0.457280,94.563571,-0.471160,-85.272962
17094,NaN,0.033673,9.910832,-0.745963,-0.048919,0.049311,0.125992,-0.009413,-0.179864,0.118230,0.500945,0.537859,-0.500472,-0.457481,94.561751,-0.532700,-85.383868
17095,NaN,0.110145,9.899852,-0.759613,-0.028339,-0.015431,0.116823,-0.015795,-0.197346,0.110681,0.500736,0.537072,-0.501263,-0.457770,94.555515,-0.589544,-85.505162
17096,NaN,0.153928,9.908709,-0.689808,-0.094630,-0.054960,0.120594,-0.018259,-0.207806,0.102116,0.500487,0.536276,-0.502050,-0.458113,94.548156,-0.641071,-85.631986
17097,NaN,0.203167,9.849346,-0.701510,-0.073983,-0.094575,0.062969,-0.019767,-0.217060,0.096958,0.500206,0.535467,-0.502842,-0.458497,94.539988,-0.689213,-85.763905
17098,NaN,0.205384,9.851110,-0.723741,-0.051193,-0.087231,0.066590,-0.021206,-0.222324,0.084099,0.499885,0.534674,-0.503609,-0.458930,94.531240,-0.729828,-85.898194
17099,NaN,0.096282,9.837665,-0.747776,-0.033037,0.030666,0.053723,-0.022558,-0.226586,0.089526,0.499569,0.533853,-0.504397,-0.459364,94.521738,-0.773334,-86.035206
17100,NaN,0.014038,9.908360,-0.795376,0.004621,0.124466,0.126774,-0.030139,-0.236172,0.094025,0.499259,0.532979,-0.505203,-0.459830,94.508190,-0.819042,-86.177841
17101,NaN,0.008011,9.928432,-0.787541,-0.002682,0.138254,0.145974,-0.036823,-0.257854,0.096405,0.498916,0.532031,-0.506053,-0.460365,94.490998,-0.865137,-86.333007
17102,NaN,0.015618,9.928728,-0.783696,-0.003014,0.138695,0.145967,-0.041251,-0.274282,0.098926,0.498549,0.531028,-0.506939,-0.460946,94.471654,-0.912019,-86.497610
17103,NaN,0.111039,9.879718,-0.828603,0.054662,0.054129,0.102040,-0.044813,-0.276840,0.102373,0.498191,0.529999,-0.507832,-0.461535,94.450321,-0.960781,-86.663862
17104,NaN,0.185135,9.868420,-0.840561,0.075196,-0.010622,0.092905,-0.049152,-0.271635,0.105342,0.497863,0.528963,-0.508708,-0.462111,94.426709,-1.011567,-86.827208
17105,NaN,0.245370,9.841050,-0.825377,0.069162,-0.063043,0.065518,-0.051562,-0.260065,0.107471,0.497575,0.527941,-0.509554,-0.462658,94.401633,-1.064116,-86.984064
17106,NaN,0.233129,9.879066,-0.787334,0.031658,-0.042868,0.100301,-0.058450,-0.238770,0.113106,0.497373,0.526945,-0.510339,-0.463145,94.372961,-1.120429,-87.127659
17107,NaN,0.149600,9.894943,-0.733199,-0.023086,0.048462,0.110365,-0.059704,-0.238676,0.121102,0.497190,0.525915,-0.511147,-0.463620,94.343295,-1.181851,-87.272842
17108,NaN,0.155020,9.933057,-0.773300,0.019228,0.056779,0.151450,-0.067664,-0.241588,0.126156,0.497030,0.524849,-0.511957,-0.464107,94.309840,-1.245890,-87.419627
17109,NaN,0.114329,9.873530,-0.784578,0.038735,0.108449,0.091955,-0.067720,-0.243215,0.131605,0.496879,0.523760,-0.512783,-0.464586,94.275974,-1.313283,-87.567791
17110,NaN,0.193083,9.846007,-0.847729,0.112476,0.044072,0.070893,-0.066997,-0.248265,0.140107,0.496732,0.522642,-0.513643,-0.465052,94.243165,-1.385205,-87.718736
17111,NaN,0.250223,9.784403,-0.832966,0.109994,-0.002486,0.009679,-0.068849,-0.243319,0.141713,0.496605,0.521521,-0.514491,-0.465508,94.209031,-1.458542,-87.867316
17112,NaN,0.406988,9.828035,-0.859553,0.144206,-0.144217,0.059148,-0.067834,-0.220772,0.147856,0.496547,0.520443,-0.515298,-0.465883,94.175605,-1.536209,-88.002609
17113,NaN,0.421602,9.848121,-0.928427,0.216734,-0.142347,0.084684,-0.063829,-0.182124,0.149322,0.496581,0.519456,-0.516024,-0.466145,94.143792,-1.616609,-88.116448
17114,NaN,0.498724,9.815596,-0.865962,0.164357,-0.208570,0.050071,-0.068837,-0.135851,0.149055,0.496746,0.518567,-0.516621,-0.466299,94.108755,-1.698714,-88.203469
17115,NaN,0.498171,9.851195,-0.802480,0.103775,-0.195164,0.081216,-0.066207,-0.090109,0.142246,0.497005,0.517806,-0.517093,-0.466345,94.074294,-1.778967,-88.264322
17116,NaN,0.497985,9.835020,-0.769323,0.076847,-0.182381,0.062953,-0.058539,-0.056078,0.144175,0.497336,0.517138,-0.517504,-0.466277,94.043917,-1.861727,-88.305729
17117,NaN,0.465079,9.825059,-0.727802,0.039548,-0.136989,0.049231,-0.049699,-0.026679,0.137639,0.497706,0.516577,-0.517844,-0.466128,94.017875,-1.941966,-88.330043
17118,NaN,0.465236,9.844831,-0.718012,0.032199,-0.123173,0.068429,-0.045203,-0.007677,0.130736,0.498096,0.516089,-0.518130,-0.465933,93.994286,-2.019013,-88.343133
17119,NaN,0.444797,9.799254,-0.734955,0.055167,-0.090765,0.023577,-0.039614,0.003850,0.121953,0.498482,0.515664,-0.518377,-0.465717,93.973437,-2.091521,-88.349298
17120,NaN,0.475367,9.776656,-0.713139,0.038668,-0.110581,0.000763,-0.030785,0.017411,0.114123,0.498861,0.515314,-0.518590,-0.465461,93.957507,-2.160097,-88.347275
17121,NaN,0.524165,9.783238,-0.643806,-0.027661,-0.150003,0.004528,-0.018406,0.028965,0.102321,0.499211,0.515050,-0.518773,-0.465174,93.948243,-2.222380,-88.338260
17122,NaN,0.586254,9.790057,-0.654549,-0.014189,-0.201387,0.014651,-0.020381,0.040984,0.087630,0.499563,0.514849,-0.518883,-0.464896,93.937674,-2.276770,-88.321720
17123,NaN,0.529265,9.802640,-0.634697,-0.035318,-0.135721,0.023726,-0.011270,0.054809,0.077542,0.499904,0.514727,-0.518953,-0.464586,93.931848,-2.325901,-88.296925
17124,NaN,0.477580,9.745855,-0.674599,0.007376,-0.077223,-0.032154,-0.004597,0.060268,0.063609,0.500209,0.514672,-0.518990,-0.464277,93.929787,-2.367305,-88.268353
17125,NaN,0.491177,9.830938,-0.642665,-0.030229,-0.081951,0.051083,0.005040,0.067475,0.052910,0.500483,0.514685,-0.519003,-0.463953,93.932927,-2.402853,-88.235339
17126,NaN,0.471378,9.803762,-0.714749,0.042431,-0.055037,0.028145,0.001368,0.074914,0.045983,0.500770,0.514724,-0.518972,-0.463636,93.933896,-2.434781,-88.197775
17127,NaN,0.449888,9.859406,-0.652204,-0.025139,-0.028174,0.078432,0.009379,0.089031,0.041739,0.501063,0.514826,-0.518912,-0.463272,93.938939,-2.464794,-88.151989
17128,NaN,0.452997,9.823151,-0.630597,-0.045047,-0.028756,0.040957,0.009238,0.093037,0.034125,0.501348,0.514957,-0.518822,-0.462917,93.943902,-2.490644,-88.103546
17129,NaN,0.513935,9.791650,-0.597993,-0.074280,-0.088050,0.009983,0.010158,0.093887,0.027266,0.501618,0.515110,-0.518715,-0.462576,93.949205,-2.512584,-88.054414
17130,NaN,0.458304,9.838375,-0.579731,-0.098987,-0.028197,0.052867,0.017079,0.092441,0.015016,0.501838,0.515309,-0.518595,-0.462250,93.958589,-2.527511,-88.005567
17131,NaN,0.480156,9.851775,-0.584818,-0.095911,-0.046968,0.067526,0.020065,0.085550,0.012964,0.502027,0.515504,-0.518494,-0.461939,93.969726,-2.540961,-87.960643
17132,NaN,0.522276,9.863100,-0.646561,-0.036182,-0.084618,0.084943,0.031598,0.083253,0.000154,0.502151,0.515756,-0.518393,-0.461636,93.987607,-2.547051,-87.916464
17133,NaN,0.502400,9.797685,-0.675823,-0.006187,-0.065651,0.020899,0.033333,0.086413,-0.004324,0.502269,0.516031,-0.518276,-0.461333,94.006281,-2.550681,-87.870363
17134,NaN,0.501779,9.797521,-0.678651,-0.006531,-0.065199,0.020902,0.033613,0.093543,-0.020809,0.502365,0.516366,-0.518099,-0.461051,94.025011,-2.545242,-87.819471
17135,NaN,0.521195,9.795306,-0.737363,0.049813,-0.083651,0.023668,0.033448,0.091795,-0.027765,0.502442,0.516715,-0.517908,-0.460792,94.043580,-2.535721,-87.769348
17136,NaN,0.534894,9.804210,-0.617217,-0.073254,-0.104108,0.024660,0.037477,0.101570,-0.035353,0.502516,0.517116,-0.517683,-0.460515,94.064345,-2.522330,-87.713301
17137,NaN,0.508690,9.864789,-0.684443,-0.014726,-0.075502,0.088594,0.031180,0.106112,-0.044551,0.502596,0.517534,-0.517407,-0.460267,94.081249,-2.503831,-87.654298
17138,NaN,0.361014,9.807828,-0.707769,0.003902,0.067390,0.027039,0.029511,0.098643,-0.042736,0.502666,0.517927,-0.517151,-0.460036,94.097502,-2.486145,-87.599591
17139,NaN,0.374264,9.852859,-0.609734,-0.099589,0.047989,0.065494,0.036939,0.093478,-0.049635,0.502687,0.518344,-0.516906,-0.459818,94.118048,-2.464259,-87.547596
17140,NaN,0.409846,9.828345,-0.649786,-0.059428,0.009274,0.045454,0.029210,0.075311,-0.050318,0.502680,0.518702,-0.516688,-0.459668,94.134739,-2.441303,-87.505914
17141,NaN,0.381346,9.852831,-0.695132,-0.020442,0.036834,0.071904,0.037792,0.067330,-0.046197,0.502639,0.519052,-0.516520,-0.459507,94.156454,-2.420332,-87.469006
17142,NaN,0.400302,9.834788,-0.806337,0.089158,0.018666,0.062796,0.032651,0.064711,-0.047019,0.502602,0.519385,-0.516345,-0.459367,94.175406,-2.398840,-87.433495
17143,NaN,0.434839,9.826040,-0.794099,0.076051,-0.020377,0.054660,0.033869,0.077403,-0.045002,0.502600,0.519745,-0.516146,-0.459187,94.194661,-2.378999,-87.390863
17144,NaN,0.450967,9.839648,-0.800104,0.079084,-0.039150,0.069338,0.024573,0.091738,-0.046312,0.502656,0.520118,-0.515886,-0.458995,94.208372,-2.359076,-87.339924
17145,NaN,0.359898,9.854839,-0.729149,0.001374,0.045468,0.075536,0.014026,0.096298,-0.043740,0.502756,0.520468,-0.515596,-0.458813,94.215846,-2.340771,-87.286531
17146,NaN,0.319839,9.847675,-0.797282,0.067101,0.085678,0.071786,0.004681,0.090801,-0.038689,0.502878,0.520769,-0.515312,-0.458656,94.218234,-2.325176,-87.236449
17147,NaN,0.296976,9.834086,-0.794057,0.063405,0.105329,0.057107,0.005287,0.075864,-0.034272,0.502971,0.521026,-0.515079,-0.458526,94.221219,-2.311427,-87.195139
17148,NaN,0.294410,9.834165,-0.794035,0.063066,0.105771,0.057105,-0.001375,0.068936,-0.029607,0.503073,0.521238,-0.514860,-0.458419,94.220672,-2.300099,-87.157933
17149,NaN,0.310411,9.863758,-0.745160,0.012834,0.086717,0.083658,0.003265,0.058364,-0.021838,0.503154,0.521417,-0.514698,-0.458308,94.222937,-2.292718,-87.127156
17150,NaN,0.387036,9.882604,-0.736706,0.006433,0.009260,0.104886,0.003439,0.051466,-0.020134,0.503221,0.521577,-0.514558,-0.458210,94.225576,-2.286076,-87.100360
17151,NaN,0.431425,9.856156,-0.749494,0.023439,-0.036350,0.081241,-0.004356,0.060346,-0.018650,0.503334,0.521733,-0.514382,-0.458106,94.223441,-2.280602,-87.068584
17152,NaN,0.345125,9.803640,-0.758832,0.032779,0.047792,0.026161,-0.006259,0.068431,-0.013284,0.503485,0.521889,-0.514195,-0.457971,94.220141,-2.278596,-87.032373
17153,NaN,0.369753,9.815262,-0.738088,0.012669,0.022173,0.037197,0.002443,0.067641,-0.013093,0.503612,0.522065,-0.514031,-0.457817,94.221749,-2.276602,-86.996661
17154,NaN,0.421159,9.874374,-0.719314,-0.007724,-0.028437,0.096762,-0.004541,0.070175,-0.014473,0.503760,0.522233,-0.513841,-0.457676,94.219416,-2.273979,-86.959410
17155,NaN,0.363964,9.853437,-0.783300,0.054678,0.030940,0.078334,0.001780,0.071085,-0.016176,0.503890,0.522422,-0.513658,-0.457521,94.220564,-2.270369,-86.921598
17156,NaN,0.477289,9.879685,-0.706518,-0.017859,-0.086237,0.103330,0.002453,0.075982,-0.018139,0.504026,0.522630,-0.513459,-0.457356,94.222119,-2.265883,-86.880864
17157,NaN,0.476608,9.827987,-0.736434,0.015566,-0.086603,0.053978,0.004812,0.082617,-0.021271,0.504166,0.522867,-0.513241,-0.457177,94.224741,-2.259850,-86.836242
17158,NaN,0.558213,9.844858,-0.703943,-0.014045,-0.170885,0.071592,0.010360,0.107962,-0.033482,0.504329,0.523207,-0.512939,-0.456947,94.230085,-2.247975,-86.776600
17159,NaN,0.530114,9.833398,-0.724668,0.005414,-0.144404,0.060559,0.008330,0.122618,-0.040113,0.504519,0.523592,-0.512578,-0.456701,94.233815,-2.232874,-86.708307
17160,NaN,0.514333,9.801846,-0.750540,0.031836,-0.131349,0.030370,0.019176,0.133617,-0.051703,0.504682,0.524059,-0.512185,-0.456426,94.243651,-2.211680,-86.633216
17161,NaN,0.553408,9.791437,-0.712314,-0.004474,-0.177218,0.018613,0.023157,0.157249,-0.062792,0.504870,0.524618,-0.511710,-0.456108,94.255130,-2.185112,-86.544155
17162,NaN,0.470311,9.772535,-0.723162,0.001293,-0.098888,-0.002651,0.022822,0.163908,-0.062294,0.505076,0.525191,-0.511220,-0.455771,94.266411,-2.159182,-86.451237
17163,NaN,0.487119,9.800206,-0.652706,-0.072136,-0.124715,0.020246,0.040106,0.171511,-0.078179,0.505220,0.525863,-0.510707,-0.455411,94.287359,-2.124474,-86.353354
17164,NaN,0.372832,9.859207,-0.701923,-0.037651,-0.011634,0.078425,0.031006,0.177532,-0.074645,0.505411,0.526518,-0.510167,-0.455048,94.303153,-2.092139,-86.252151
17165,NaN,0.364527,9.823320,-0.683139,-0.057501,-0.012252,0.040926,0.053885,0.179754,-0.086910,0.505519,0.527266,-0.509641,-0.454652,94.331930,-2.052868,-86.149158
17166,NaN,0.411713,9.866734,-0.720656,-0.024670,-0.062605,0.088664,0.050582,0.178880,-0.089005,0.505628,0.528008,-0.509104,-0.454270,94.359014,-2.012472,-86.046520
17167,NaN,0.380873,9.868875,-0.670141,-0.081639,-0.043172,0.085813,0.058832,0.189931,-0.096965,0.505724,0.528816,-0.508535,-0.453859,94.390554,-1.968004,-85.937236
17168,NaN,0.456797,9.834484,-0.671100,-0.077528,-0.128279,0.054108,0.063041,0.188256,-0.103229,0.505791,0.529646,-0.507964,-0.453456,94.424726,-1.920017,-85.828588
17169,NaN,0.475515,9.830382,-0.707870,-0.044394,-0.153671,0.053315,0.067698,0.212234,-0.116752,0.505875,0.530576,-0.507306,-0.453013,94.461080,-1.865366,-85.705632
17170,NaN,0.480300,9.846281,-0.740567,-0.018262,-0.165612,0.071675,0.072758,0.212913,-0.120664,0.505937,0.531530,-0.506647,-0.452563,94.500531,-1.808686,-85.582086
17171,NaN,0.362170,9.816525,-0.801848,0.030545,-0.054465,0.042991,0.066427,0.231008,-0.131408,0.506037,0.532534,-0.505897,-0.452108,94.536048,-1.746673,-85.447676
17172,NaN,0.302721,9.806636,-0.773817,-0.006609,-0.008993,0.029081,0.070628,0.227943,-0.134383,0.506111,0.533549,-0.505157,-0.451656,94.574254,-1.682982,-85.314798
17173,NaN,0.268193,9.830205,-0.823663,0.032391,0.018508,0.055538,0.073049,0.230050,-0.137973,0.506174,0.534583,-0.504406,-0.451202,94.613870,-1.617353,-85.180561
17174,NaN,0.317110,9.798485,-0.770015,-0.020144,-0.047597,0.020984,0.076658,0.230426,-0.144061,0.506214,0.535641,-0.503646,-0.450752,94.655808,-1.548455,-85.045805
17175,NaN,0.319997,9.828584,-0.727742,-0.070447,-0.066555,0.047519,0.078748,0.230474,-0.152317,0.506229,0.536724,-0.502866,-0.450317,94.698987,-1.474851,-84.910568
17176,NaN,0.302052,9.830307,-0.758578,-0.047646,-0.059306,0.051177,0.076979,0.231095,-0.153392,0.506247,0.537806,-0.502077,-0.449886,94.741417,-1.400840,-84.774850
17177,NaN,0.239804,9.805627,-0.807914,-0.008317,-0.006857,0.029081,0.077931,0.232883,-0.159167,0.506252,0.538908,-0.501269,-0.449462,94.784437,-1.323641,-84.637810
17178,NaN,0.223418,9.842850,-0.861361,0.033987,0.001442,0.070246,0.074439,0.229181,-0.154710,0.506267,0.539980,-0.500474,-0.449044,94.825803,-1.248986,-84.503034
17179,NaN,0.141743,9.818254,-0.832632,-0.006448,0.066108,0.041604,0.080437,0.225337,-0.154440,0.506256,0.541058,-0.499702,-0.448621,94.870713,-1.174324,-84.370425
17180,NaN,0.172159,9.844415,-0.821089,-0.023317,0.021333,0.067359,0.071976,0.215957,-0.156766,0.506237,0.542097,-0.498927,-0.448248,94.911148,-1.098082,-84.243035
17181,NaN,0.133039,9.795905,-0.826689,-0.023307,0.046695,0.018799,0.074682,0.200513,-0.151258,0.506185,0.543094,-0.498212,-0.447896,94.953372,-1.024209,-84.124654
17182,NaN,0.050126,9.843944,-0.867699,-0.001586,0.120307,0.068818,0.076656,0.185268,-0.152480,0.506086,0.544064,-0.497535,-0.447583,94.997097,-0.949066,-84.014846
17183,NaN,0.042715,9.877367,-0.873618,-0.005578,0.114980,0.102662,0.071175,0.169602,-0.148576,0.505970,0.544974,-0.496895,-0.447316,95.037901,-0.875350,-83.914140
17184,NaN,0.084484,9.921212,-0.911913,0.027169,0.064610,0.150457,0.067332,0.160061,-0.143264,0.505853,0.545840,-0.496286,-0.447070,95.076818,-0.804326,-83.819075
17185,NaN,0.089409,9.848856,-0.950797,0.067619,0.050639,0.081999,0.059259,0.161040,-0.146082,0.505753,0.546694,-0.495647,-0.446849,95.111114,-0.731732,-83.723288
17186,NaN,0.128552,9.821754,-0.942009,0.061374,-0.001860,0.054783,0.052110,0.170835,-0.139340,0.505711,0.547534,-0.494986,-0.446600,95.141458,-0.663647,-83.622251
17187,NaN,0.122399,9.855481,-0.945535,0.057368,-0.007188,0.088634,0.049261,0.182166,-0.135117,0.505715,0.548381,-0.494300,-0.446317,95.170128,-0.598501,-83.514897
17188,NaN,0.123058,9.799934,-0.930751,0.044504,-0.021302,0.031991,0.043763,0.182896,-0.139307,0.505725,0.549226,-0.493588,-0.446054,95.195858,-0.531109,-83.406806
17189,NaN,0.028602,9.794322,-0.896341,-0.002860,0.056831,0.022440,0.041189,0.181774,-0.134716,0.505749,0.550050,-0.492884,-0.445790,95.220152,-0.466269,-83.299640
17190,NaN,-0.048243,9.818039,-0.788846,-0.123389,0.108874,0.035734,0.042486,0.160424,-0.132716,0.505720,0.550823,-0.492244,-0.445575,95.245485,-0.401614,-83.204775
17191,NaN,-0.062399,9.854692,-0.839944,-0.081070,0.117146,0.076905,0.041981,0.137283,-0.129526,0.505643,0.551536,-0.491668,-0.445417,95.270640,-0.337494,-83.123211
17192,NaN,0.003514,9.825833,-0.883315,-0.030724,0.045562,0.052616,0.040822,0.121938,-0.126961,0.505536,0.552204,-0.491136,-0.445296,95.295356,-0.274157,-83.050527
17193,NaN,0.016576,9.787729,-0.918512,0.006060,0.025817,0.018023,0.043872,0.112521,-0.124346,0.505403,0.552853,-0.490641,-0.445188,95.321835,-0.211751,-82.983309
17194,NaN,-0.008562,9.806893,-0.919598,-0.001258,0.039707,0.037150,0.049370,0.107258,-0.120520,0.505251,0.553494,-0.490182,-0.445071,95.351591,-0.151372,-82.919241
17195,NaN,0.072789,9.844993,-0.936950,0.018562,-0.050142,0.076913,0.049667,0.106149,-0.119510,0.505097,0.554130,-0.489728,-0.444953,95.381541,-0.091452,-82.855854
17196,NaN,0.035874,9.760436,-0.917675,-0.000876,-0.025874,-0.009176,0.047407,0.119154,-0.120960,0.504977,0.554792,-0.489233,-0.444808,95.410322,-0.031551,-82.784985
17197,NaN,0.002493,9.746814,-0.944552,0.018664,0.000505,-0.020231,0.056440,0.128339,-0.109733,0.504879,0.555471,-0.488765,-0.444587,95.444280,0.021523,-82.709408
17198,NaN,-0.013726,9.763040,-0.898488,-0.034984,0.000831,-0.008444,0.055437,0.125724,-0.109858,0.504778,0.556140,-0.488301,-0.444376,95.477797,0.074651,-82.635329
17199,NaN,-0.023263,9.762502,-0.904118,-0.035316,0.001232,-0.008445,0.059449,0.120109,-0.108204,0.504654,0.556803,-0.487864,-0.444166,95.513611,0.127215,-82.564467
17200,NaN,-0.068549,9.803595,-0.951687,-0.003280,0.042172,0.037139,0.062514,0.113938,-0.101946,0.504521,0.557444,-0.487467,-0.443949,95.551284,0.176395,-82.497457
17201,NaN,-0.068324,9.835733,-0.932740,-0.030467,0.030081,0.067317,0.063328,0.112645,-0.094130,0.504399,0.558065,-0.487096,-0.443715,95.589424,0.221256,-82.431565
17202,NaN,-0.080279,9.836364,-0.963295,-0.007647,0.037277,0.070985,0.066210,0.118272,-0.096353,0.504277,0.558711,-0.486711,-0.443462,95.629341,0.266923,-82.362321
17203,NaN,-0.068581,9.850320,-0.972215,-0.004698,0.018485,0.085714,0.069494,0.124406,-0.083752,0.504189,0.559347,-0.486353,-0.443153,95.671145,0.305111,-82.290245
17204,NaN,-0.045541,9.846103,-1.008563,0.028378,-0.006997,0.084997,0.069297,0.126726,-0.085948,0.504102,0.559994,-0.485982,-0.442842,95.712937,0.344257,-82.216715
17205,NaN,-0.023793,9.820902,-0.922460,-0.057646,-0.047185,0.051189,0.076094,0.129968,-0.082855,0.504011,0.560656,-0.485626,-0.442499,95.758639,0.381507,-82.141462
17206,NaN,-0.035804,9.786024,-0.930852,-0.054294,-0.041069,0.017338,0.073457,0.128106,-0.086248,0.503914,0.561316,-0.485259,-0.442174,95.802930,0.420653,-82.067023
17207,NaN,-0.099629,9.776395,-0.955354,-0.044983,0.017968,0.010661,0.081512,0.122675,-0.083661,0.503787,0.561978,-0.484930,-0.441840,95.851806,0.458667,-81.995820
17208,NaN,-0.097654,9.793855,-1.037706,0.027448,0.019501,0.036416,0.077056,0.115307,-0.080357,0.503662,0.562603,-0.484620,-0.441527,95.898188,0.495078,-81.928969
17209,NaN,-0.104092,9.792960,-1.045505,0.027117,0.019892,0.036416,0.079896,0.110293,-0.075115,0.503527,0.563212,-0.484342,-0.441209,95.946162,0.528835,-81.865265
17210,NaN,-0.084823,9.754412,-1.083381,0.063888,0.000081,0.001861,0.076246,0.104607,-0.077477,0.503384,0.563804,-0.484064,-0.440921,95.992108,0.564127,-81.804638
17211,NaN,-0.089636,9.788801,-1.114305,0.083017,0.001539,0.039391,0.079415,0.104268,-0.072022,0.503243,0.564390,-0.483808,-0.440613,96.039846,0.596380,-81.744497
17212,NaN,-0.114763,9.773045,-1.120037,0.079409,0.021130,0.024655,0.077515,0.096679,-0.070009,0.503093,0.564950,-0.483574,-0.440324,96.086531,0.627782,-81.688810
17213,NaN,-0.086475,9.767556,-1.132606,0.089314,-0.011169,0.020284,0.076454,0.097298,-0.066523,0.502955,0.565499,-0.483345,-0.440029,96.132590,0.657229,-81.632923
17214,NaN,-0.111271,9.751774,-1.138283,0.085713,0.008421,0.005547,0.079605,0.090438,-0.068203,0.502787,0.566045,-0.483135,-0.439748,96.180461,0.687882,-81.580849
17215,NaN,-0.155141,9.771584,-1.065666,-0.001330,0.034701,0.017997,0.073763,0.084777,-0.062418,0.502635,0.566549,-0.482943,-0.439484,96.224946,0.715675,-81.532300
17216,NaN,-0.124877,9.801413,-1.101341,0.028020,0.003493,0.051158,0.076536,0.079767,-0.057127,0.502475,0.567037,-0.482784,-0.439213,96.271016,0.740625,-81.486889
17217,NaN,-0.176265,9.788135,-1.053608,-0.032136,0.042233,0.033425,0.072995,0.072909,-0.058377,0.502305,0.567503,-0.482631,-0.438973,96.315013,0.766784,-81.445308
17218,NaN,-0.195724,9.806559,-1.058453,-0.039445,0.056141,0.052531,0.079975,0.063688,-0.054654,0.502101,0.567958,-0.482527,-0.438733,96.362978,0.791258,-81.409211
17219,NaN,-0.192308,9.788230,-1.117034,0.013538,0.056539,0.040779,0.070484,0.047863,-0.053631,0.501887,0.568351,-0.482444,-0.438559,96.405369,0.816245,-81.382154
17220,NaN,-0.181014,9.803144,-1.150383,0.039622,0.044504,0.059203,0.074040,0.037577,-0.052012,0.501643,0.568727,-0.482399,-0.438400,96.449761,0.840880,-81.360968
17221,NaN,-0.137249,9.778509,-1.164718,0.056484,-0.001309,0.035736,0.065848,0.020004,-0.053407,0.501376,0.569047,-0.482377,-0.438315,96.489284,0.867498,-81.349749
17222,NaN,-0.112913,9.739074,-1.176305,0.070081,-0.027925,-0.002473,0.060658,0.017137,-0.054366,0.501114,0.569350,-0.482348,-0.438253,96.525881,0.894733,-81.340121
17223,NaN,-0.098992,9.753213,-1.184277,0.072995,-0.046732,0.012279,0.060915,0.019691,-0.058858,0.500848,0.569670,-0.482300,-0.438194,96.562592,0.924459,-81.328690
17224,NaN,-0.075694,9.764764,-1.119752,0.006380,-0.085775,0.015984,0.061467,0.019970,-0.061178,0.500577,0.569998,-0.482245,-0.438138,96.599676,0.955402,-81.316884
17225,NaN,-0.141792,9.806115,-1.091491,-0.041282,-0.032428,0.054865,0.058960,0.023857,-0.065454,0.500312,0.570337,-0.482163,-0.438089,96.635328,0.988592,-81.302608
17226,NaN,-0.183581,9.845652,-1.140008,-0.009220,0.008491,0.100436,0.050599,0.024184,-0.059234,0.500085,0.570642,-0.482080,-0.438043,96.666222,1.018110,-81.288533
17227,NaN,-0.218007,9.832495,-1.215214,0.056728,0.048294,0.096736,0.043786,0.025312,-0.059931,0.499879,0.570933,-0.481977,-0.438012,96.693203,1.048045,-81.273760
17228,NaN,-0.231761,9.849468,-1.168754,0.003071,0.048709,0.108468,0.047166,0.019446,-0.055805,0.499658,0.571211,-0.481907,-0.437978,96.722121,1.075952,-81.262526
17229,NaN,-0.244580,9.815359,-1.197987,0.029649,0.061502,0.078298,0.043409,0.016968,-0.054541,0.499445,0.571470,-0.481839,-0.437958,96.748804,1.103367,-81.252835
17230,NaN,-0.218710,9.811263,-1.230863,0.062692,0.035947,0.077637,0.038405,0.008132,-0.047731,0.499239,0.571681,-0.481803,-0.437958,96.772542,1.127373,-81.248659
17231,NaN,-0.242240,9.795715,-1.232380,0.059132,0.055506,0.062883,0.034260,0.004246,-0.043063,0.499046,0.571861,-0.481779,-0.437968,96.793833,1.149110,-81.246961
17232,NaN,-0.302394,9.785189,-1.253197,0.068546,0.114515,0.056155,0.033516,0.001443,-0.036272,0.498864,0.572018,-0.481780,-0.437970,96.814671,1.167086,-81.247262
17233,NaN,-0.238975,9.741228,-1.241915,0.069185,0.048415,0.009932,0.030989,-0.006452,-0.031851,0.498679,0.572140,-0.481808,-0.437991,96.833948,1.183171,-81.252399
17234,NaN,-0.216175,9.754336,-1.198355,0.025731,0.016152,0.017314,0.025786,-0.010877,-0.022560,0.498519,0.572217,-0.481863,-0.438012,96.850202,1.194182,-81.260659
17235,NaN,-0.292886,9.763862,-1.240043,0.051367,0.095402,0.033365,0.028041,-0.022701,-0.022005,0.498325,0.572272,-0.481953,-0.438062,96.867581,1.205781,-81.275707
17236,NaN,-0.257921,9.758527,-1.223120,0.038053,0.056353,0.025339,0.027001,-0.023233,-0.017391,0.498143,0.572313,-0.482055,-0.438103,96.884385,1.214728,-81.291308
17237,NaN,-0.274588,9.777429,-1.222771,0.030761,0.070254,0.044432,0.019584,-0.029348,-0.013741,0.497975,0.572313,-0.482167,-0.438171,96.896821,1.222092,-81.310699
17238,NaN,-0.294074,9.797102,-1.246272,0.046633,0.090897,0.067213,0.020466,-0.036153,-0.007193,0.497802,0.572285,-0.482317,-0.438239,96.909733,1.226143,-81.334354
17239,NaN,-0.291799,9.796150,-1.223714,0.023135,0.084545,0.063521,0.015165,-0.042722,-0.002544,0.497639,0.572217,-0.482484,-0.438329,96.919455,1.228069,-81.362123
17240,NaN,-0.247726,9.824593,-1.180978,-0.017120,0.033123,0.085662,0.015468,-0.044988,-0.000364,0.497475,0.572140,-0.482664,-0.438417,96.929377,1.228845,-81.391296
17241,NaN,-0.267483,9.809396,-1.180102,-0.020661,0.052683,0.070897,0.012851,-0.055027,-0.000584,0.497293,0.572035,-0.482863,-0.438542,96.937619,1.230517,-81.426200
17242,NaN,-0.212135,9.733084,-1.215327,0.030046,0.005677,-0.001775,0.005790,-0.066686,0.001697,0.497108,0.571882,-0.483081,-0.438711,96.941740,1.231639,-81.467855
17243,NaN,-0.231370,9.666589,-1.289315,0.106765,0.037516,-0.058406,0.010081,-0.070873,0.000118,0.496897,0.571733,-0.483315,-0.438886,96.948198,1.234016,-81.511822
17244,NaN,-0.153529,9.690909,-1.250936,0.076673,-0.046613,-0.040580,0.010597,-0.077547,-0.000176,0.496668,0.571572,-0.483565,-0.439079,96.954926,1.236972,-81.559501
17245,NaN,-0.038078,9.745256,-1.217362,0.052996,-0.169095,0.006784,0.015852,-0.076400,-0.013057,0.496399,0.571457,-0.483788,-0.439289,96.964635,1.247236,-81.605697
17246,NaN,-0.012844,9.828616,-1.220207,0.048334,-0.199161,0.089270,0.013505,-0.059779,-0.020290,0.496160,0.571391,-0.483943,-0.439474,96.973268,1.260381,-81.641930
17247,NaN,-0.042620,9.779822,-1.244016,0.071731,-0.167250,0.044351,0.016883,-0.039994,-0.028911,0.495940,0.571397,-0.484032,-0.439616,96.984029,1.277143,-81.666309
17248,NaN,-0.015861,9.776127,-1.274513,0.104728,-0.192861,0.043739,0.013580,-0.023527,-0.040658,0.495744,0.571460,-0.484039,-0.439747,96.993201,1.299393,-81.680426
17249,NaN,-0.168048,9.724766,-1.281144,0.094434,-0.043650,-0.003008,0.009907,-0.008461,-0.049004,0.495577,0.571566,-0.483977,-0.439866,97.000390,1.325389,-81.685460
17250,NaN,-0.278028,9.824003,-1.240244,0.025921,0.050433,0.093034,0.015069,-0.017925,-0.054278,0.495360,0.571678,-0.483935,-0.440012,97.010503,1.354964,-81.695503
17251,NaN,-0.279724,9.909437,-1.165401,-0.058442,0.032951,0.168737,0.006547,-0.026720,-0.050631,0.495154,0.571740,-0.483906,-0.440195,97.015516,1.383164,-81.710802
17252,NaN,-0.278110,9.856432,-1.193005,-0.024869,0.032148,0.119493,0.004692,-0.040901,-0.055631,0.494908,0.571779,-0.483894,-0.440434,97.019355,1.415142,-81.733761
17253,NaN,-0.224531,9.779512,-1.203755,0.002667,-0.021640,0.043164,0.002905,-0.042708,-0.054447,0.494665,0.571806,-0.483885,-0.440681,97.022044,1.446633,-81.757885
17254,NaN,-0.167158,9.650521,-1.265915,0.087284,-0.069930,-0.078699,0.005927,-0.041487,-0.059184,0.494407,0.571854,-0.483866,-0.440928,97.026563,1.480684,-81.780908
17255,NaN,-0.162152,9.631816,-1.293373,0.117107,-0.076397,-0.094075,0.009105,-0.034452,-0.064858,0.494143,0.571940,-0.483821,-0.441162,97.032919,1.517521,-81.799601
17256,NaN,-0.150076,9.733097,-1.244956,0.059085,-0.106310,0.000101,0.011358,-0.027565,-0.075058,0.493868,0.572071,-0.483735,-0.441395,97.040746,1.559637,-81.813541
17257,NaN,-0.146950,9.765848,-1.197151,0.008618,-0.124968,0.026564,0.006992,-0.018582,-0.080165,0.493615,0.572224,-0.483602,-0.441627,97.046142,1.604067,-81.822122
17258,NaN,-0.178424,9.716216,-1.195678,0.008869,-0.099787,-0.022065,0.003674,-0.016009,-0.087875,0.493361,0.572392,-0.483433,-0.441877,97.049763,1.652638,-81.828631
17259,NaN,-0.183171,9.663887,-1.247297,0.065653,-0.093934,-0.067593,0.003556,-0.014865,-0.088983,0.493107,0.572565,-0.483258,-0.442127,97.053257,1.701822,-81.834472
17260,NaN,-0.319270,9.696341,-1.303178,0.097465,0.038267,-0.024517,0.015588,-0.015146,-0.092099,0.492811,0.572775,-0.483101,-0.442356,97.063730,1.752754,-81.840146
17261,NaN,-0.377020,9.840144,-1.269386,0.038552,0.074919,0.115797,0.018131,-0.021121,-0.092510,0.492493,0.572979,-0.482963,-0.442598,97.075462,1.804387,-81.849281
17262,NaN,-0.359763,9.923368,-1.272863,0.033831,0.044909,0.198290,0.020076,-0.029508,-0.095264,0.492142,0.573175,-0.482842,-0.442865,97.088245,1.858125,-81.862911
17263,NaN,-0.298866,9.879587,-1.236728,0.011208,-0.027935,0.148444,0.021040,-0.034765,-0.098983,0.491768,0.573371,-0.482726,-0.443155,97.101387,1.914408,-81.879327
17264,NaN,-0.301317,9.826304,-1.265575,0.044803,-0.028796,0.099219,0.016490,-0.035267,-0.097570,0.491408,0.573552,-0.482604,-0.443452,97.111989,1.969896,-81.895993
17265,NaN,-0.295988,9.720346,-1.320909,0.112353,-0.030921,0.000770,0.008634,-0.024131,-0.101227,0.491090,0.573746,-0.482427,-0.443747,97.118208,2.026705,-81.906182
17266,NaN,-0.347412,9.776427,-1.289417,0.067951,0.003441,0.054287,0.005024,-0.015404,-0.092648,0.490822,0.573930,-0.482245,-0.444002,97.122596,2.077975,-81.911910
17267,NaN,-0.309643,9.856425,-1.146939,-0.075885,-0.066716,0.114560,0.009563,-0.010066,-0.100799,0.490535,0.574156,-0.482037,-0.444253,97.129622,2.133543,-81.914117
17268,NaN,-0.262243,9.850511,-1.229701,0.013597,-0.111700,0.117108,-0.003599,0.001390,-0.101791,0.490312,0.574378,-0.481768,-0.444504,97.129420,2.188794,-81.909665
17269,NaN,-0.695253,9.881300,-1.612656,0.326169,0.355554,0.211847,0.017301,-0.021231,-0.128168,0.489916,0.574663,-0.481525,-0.444835,97.140704,2.260717,-81.916266
17270,NaN,-0.881369,9.774815,-1.395125,0.097969,0.502044,0.087238,0.038885,-0.086214,-0.150461,0.489251,0.574911,-0.481426,-0.445354,97.162993,2.349900,-81.958128
17271,NaN,-0.815964,9.798629,-1.334696,0.044581,0.411299,0.101402,0.027990,-0.169064,-0.156315,0.488404,0.574961,-0.481487,-0.446152,97.176946,2.448400,-82.046786
17272,NaN,-0.515257,9.744346,-0.937679,-0.295263,0.048658,-0.014348,-0.018674,-0.206984,-0.138517,0.487639,0.574769,-0.481587,-0.447126,97.163112,2.539450,-82.158221
17273,NaN,-0.264964,9.752460,-1.048477,-0.148847,-0.198345,-0.003585,-0.021453,-0.180319,-0.110995,0.487008,0.574563,-0.481694,-0.447964,97.148028,2.612967,-82.256557
17274,NaN,-0.283895,9.788480,-1.117466,-0.083420,-0.183495,0.041399,-0.034219,-0.137517,-0.087837,0.486567,0.574365,-0.481735,-0.448652,97.126642,2.670195,-82.332129
17275,NaN,-0.320243,9.895603,-1.131899,-0.082074,-0.160472,0.150957,-0.032672,-0.099769,-0.069297,0.486254,0.574210,-0.481740,-0.449183,97.106942,2.714220,-82.387641
17276,NaN,-0.270485,9.837610,-1.063838,-0.131093,-0.220832,0.082641,-0.045061,-0.049416,-0.059567,0.486120,0.574116,-0.481623,-0.449575,97.081528,2.749119,-82.415044
17277,NaN,-0.316902,9.790915,-1.177641,-0.014820,-0.162286,0.052541,-0.046078,-0.005342,-0.049732,0.486117,0.574094,-0.481424,-0.449819,97.056602,2.775315,-82.418223
17278,NaN,-0.514154,9.914183,-1.140558,-0.087230,0.017754,0.179726,-0.039694,0.017905,-0.027447,0.486202,0.574086,-0.481248,-0.449927,97.035981,2.787170,-82.409632
17279,NaN,-0.635137,9.771146,-1.244699,0.020275,0.158522,0.056579,-0.054157,0.017100,-0.021837,0.486339,0.574027,-0.481056,-0.450058,97.006950,2.795929,-82.402012
17280,NaN,-0.734038,9.694561,-1.251371,0.027423,0.261397,-0.013699,-0.047558,-0.012933,-0.016617,0.486396,0.573905,-0.480967,-0.450247,96.980891,2.803799,-82.411684
17281,NaN,-0.678586,9.655341,-1.306057,0.097537,0.215234,-0.048670,-0.042569,-0.045936,-0.009108,0.486377,0.573701,-0.480992,-0.450501,96.956700,2.809708,-82.440851
17282,NaN,-0.516828,9.500868,-1.280940,0.116619,0.060902,-0.212838,-0.056673,-0.058646,-0.018955,0.486345,0.573460,-0.480987,-0.450848,96.924194,2.822078,-82.476418
17283,NaN,-0.375515,9.798849,-1.217497,0.042731,-0.107198,0.067972,-0.018610,-0.055751,-0.008968,0.486233,0.573292,-0.481090,-0.451072,96.913445,2.828559,-82.511190
17284,NaN,-0.338454,10.037079,-1.115909,-0.077059,-0.172549,0.290136,-0.028009,-0.042981,-0.010065,0.486177,0.573134,-0.481137,-0.451283,96.897722,2.834754,-82.538457
17285,NaN,-0.327138,9.897955,-1.168025,-0.005633,-0.169237,0.157876,-0.031169,-0.020881,-0.015828,0.486170,0.573031,-0.481107,-0.451454,96.880775,2.842723,-82.552901
17286,NaN,-0.362685,9.866443,-1.136146,-0.035429,-0.137185,0.124565,-0.023906,0.003886,-0.023388,0.486185,0.573020,-0.481011,-0.451554,96.868786,2.853251,-82.552616
17287,NaN,-0.337826,9.794648,-1.140191,-0.018009,-0.158383,0.052599,-0.021281,0.022292,-0.028571,0.486224,0.573069,-0.480862,-0.451608,96.858770,2.865506,-82.541601
17288,NaN,-0.445740,9.770020,-1.122942,-0.044784,-0.054177,0.031501,-0.010272,0.031055,-0.033615,0.486242,0.573177,-0.480702,-0.451622,96.855396,2.879980,-82.525161
17289,NaN,-0.445610,9.804295,-1.122041,-0.048911,-0.059358,0.065360,-0.002512,0.031756,-0.038756,0.486227,0.573318,-0.480543,-0.451629,96.856447,2.897383,-82.508059
17290,NaN,-0.438127,9.821019,-1.172802,0.000283,-0.064798,0.087597,0.000664,0.031899,-0.042436,0.486196,0.573476,-0.480380,-0.451635,96.859428,2.916845,-82.490491
17291,NaN,-0.396447,9.799495,-1.205604,0.040208,-0.104082,0.068016,0.004504,0.046063,-0.045586,0.486180,0.573682,-0.480182,-0.451601,96.864950,2.937152,-82.464769
17292,NaN,-0.407406,9.765517,-1.230930,0.066907,-0.091460,0.037879,0.007438,0.056406,-0.047682,0.486176,0.573924,-0.479960,-0.451533,96.872532,2.957882,-82.432925
17293,NaN,-0.421842,9.697111,-1.256940,0.097450,-0.073286,-0.026118,0.008675,0.074410,-0.055097,0.486194,0.574227,-0.479676,-0.451431,96.881333,2.981647,-82.390398
17294,NaN,-0.416374,9.781043,-1.134017,-0.033447,-0.103716,0.042072,0.012162,0.102042,-0.053087,0.486274,0.574596,-0.479338,-0.451234,96.893040,3.002308,-82.332187
17295,NaN,-0.455174,9.834984,-1.055062,-0.124198,-0.082509,0.088071,0.017902,0.122314,-0.048099,0.486396,0.575013,-0.478977,-0.450954,96.908566,3.018778,-82.262844
17296,NaN,-0.406740,9.882158,-1.088308,-0.091958,-0.132918,0.136221,0.008681,0.144598,-0.055792,0.486581,0.575476,-0.478520,-0.450650,96.919576,3.038016,-82.180163
17297,NaN,-0.413843,9.847429,-1.090434,-0.088437,-0.126962,0.102363,0.013779,0.148743,-0.056028,0.486761,0.575960,-0.478062,-0.450323,96.933615,3.057138,-82.095208
17298,NaN,-0.514763,9.769299,-1.105129,-0.081162,-0.024134,0.032023,0.021143,0.132205,-0.065291,0.486858,0.576448,-0.477635,-0.450047,96.951544,3.082602,-82.018953
17299,NaN,-0.598149,9.776636,-1.170282,-0.032020,0.061713,0.051648,0.023769,0.122590,-0.060133,0.486936,0.576907,-0.477252,-0.449781,96.970588,3.105823,-81.948593
17300,NaN,-0.608277,9.760892,-1.321139,0.113793,0.088399,0.054919,0.028248,0.105745,-0.058823,0.486964,0.577336,-0.476923,-0.449548,96.991762,3.129394,-81.887815
17301,NaN,-0.605368,9.759130,-1.275134,0.067105,0.075483,0.047478,0.005998,0.102039,-0.052881,0.487061,0.577688,-0.476571,-0.449365,97.000011,3.149883,-81.829651
17302,NaN,-0.702282,9.750344,-1.311537,0.089949,0.173826,0.048561,-0.012437,0.096055,-0.041535,0.487222,0.577955,-0.476224,-0.449215,96.997549,3.164293,-81.775566
17303,NaN,-0.695715,9.697824,-1.337868,0.123648,0.172795,-0.000626,-0.019016,0.078311,-0.031431,0.487382,0.578141,-0.475934,-0.449109,96.990667,3.174240,-81.732413
17304,NaN,-0.746603,9.719568,-1.328816,0.106332,0.219543,0.022640,-0.021563,0.062972,-0.015743,0.487548,0.578249,-0.475723,-0.449013,96.981861,3.176264,-81.699073
17305,NaN,-0.684765,9.765668,-1.285607,0.068967,0.149179,0.059645,-0.018811,0.043113,-0.012083,0.487667,0.578311,-0.475575,-0.448960,96.973916,3.177670,-81.677320
17306,NaN,-0.582359,9.722048,-1.274632,0.079471,0.050195,0.009390,-0.024902,0.027759,0.000391,0.487795,0.578294,-0.475488,-0.448935,96.962039,3.172993,-81.665142
17307,NaN,-0.362521,9.685948,-1.304436,0.146441,-0.159595,-0.034976,-0.021451,0.030477,-0.007792,0.487902,0.578310,-0.475378,-0.448915,96.952165,3.172843,-81.650885
17308,NaN,-0.343943,9.787394,-1.229316,0.064968,-0.195753,0.055446,-0.007069,0.045286,-0.017377,0.487980,0.578418,-0.475238,-0.448840,96.951142,3.177048,-81.627521
17309,NaN,-0.400507,9.825886,-1.145427,-0.028892,-0.155298,0.086579,-0.021393,0.049677,-0.027794,0.488087,0.578526,-0.475023,-0.448812,96.941987,3.186948,-81.600939
17310,NaN,-0.598545,9.791131,-1.141751,-0.055504,0.040236,0.062706,-0.022991,0.040335,-0.039566,0.488150,0.578636,-0.474794,-0.448844,96.931747,3.204123,-81.578822
17311,NaN,-0.614382,9.809133,-1.113153,-0.085954,0.047604,0.078016,-0.016734,0.016230,-0.042048,0.488132,0.578713,-0.474630,-0.448937,96.924264,3.224449,-81.570309
17312,NaN,-0.650263,9.795823,-1.206343,0.003429,0.093684,0.078090,-0.011198,-0.004909,-0.038612,0.488055,0.578749,-0.474541,-0.449069,96.919345,3.244207,-81.574060
17313,NaN,-0.639484,9.691515,-1.284037,0.094340,0.097799,-0.016531,-0.009296,-0.027030,-0.044192,0.487908,0.578752,-0.474493,-0.449275,96.914738,3.268740,-81.590049
17314,NaN,-0.667729,9.781248,-1.376231,0.172161,0.127251,0.085133,-0.002849,-0.054383,-0.050273,0.487664,0.578725,-0.474509,-0.449558,96.913029,3.298556,-81.621150
17315,NaN,-0.728640,9.819235,-1.292050,0.078332,0.167744,0.116230,-0.017760,-0.081667,-0.051521,0.487395,0.578602,-0.474555,-0.449960,96.901786,3.331020,-81.667768
17316,NaN,-0.615561,9.721990,-1.259379,0.076403,0.054018,0.009394,-0.023960,-0.095896,-0.040169,0.487136,0.578406,-0.474653,-0.450389,96.886508,3.357953,-81.723173
17317,NaN,-0.579354,9.717975,-1.212982,0.039738,0.008378,-0.002267,-0.025406,-0.097896,-0.032109,0.486894,0.578181,-0.474776,-0.450808,96.870217,3.380465,-81.780391
17318,NaN,-0.642607,9.706428,-1.251106,0.072711,0.073929,-0.005435,-0.024429,-0.102592,-0.020859,0.486664,0.577923,-0.474946,-0.451210,96.854339,3.396838,-81.840976
17319,NaN,-0.641300,9.670927,-1.200274,0.029880,0.066589,-0.046755,-0.024308,-0.105307,-0.009475,0.486452,0.577630,-0.475155,-0.451593,96.838301,3.406948,-81.903981
17320,NaN,-0.671098,9.742806,-1.191111,0.011815,0.088700,0.025167,-0.025753,-0.105197,0.003279,0.486273,0.577304,-0.475397,-0.451947,96.821435,3.409733,-81.967693
17321,NaN,-0.612610,9.789884,-1.170717,-0.002444,0.025027,0.065930,-0.022914,-0.102224,0.012403,0.486114,0.576970,-0.475664,-0.452264,96.806203,3.407151,-82.030437
17322,NaN,-0.624372,9.808198,-1.140662,-0.032911,0.032429,0.081228,-0.027793,-0.098413,0.016327,0.485986,0.576623,-0.475923,-0.452571,96.788407,3.402010,-82.091235
17323,NaN,-0.555515,9.803005,-1.147731,-0.013166,-0.032725,0.072835,-0.025440,-0.092033,0.022169,0.485880,0.576282,-0.476188,-0.452840,96.772045,3.393146,-82.148830
17324,NaN,-0.489543,9.763365,-1.155736,0.010433,-0.092358,0.030586,-0.022576,-0.095392,0.017206,0.485747,0.575953,-0.476453,-0.453124,96.757292,3.387271,-82.207900
17325,NaN,-0.474267,9.780151,-1.179803,0.036404,-0.104501,0.049157,-0.017195,-0.089819,0.013590,0.485602,0.575657,-0.476707,-0.453388,96.745776,3.383110,-82.263649
17326,NaN,-0.449403,9.829893,-1.155308,0.012075,-0.135380,0.094129,-0.018811,-0.078434,0.002642,0.485465,0.575409,-0.476897,-0.453649,96.733851,3.384366,-82.312073
17327,NaN,-0.535638,9.784962,-1.115961,-0.030655,-0.051392,0.050080,-0.033547,-0.071256,0.005118,0.485393,0.575136,-0.477043,-0.453919,96.713625,3.383753,-82.356669
17328,NaN,-0.588376,9.772360,-1.104971,-0.044045,0.000925,0.039430,-0.027493,-0.064428,0.004970,0.485319,0.574893,-0.477186,-0.454154,96.697157,3.382722,-82.397226
17329,NaN,-0.537739,9.855875,-1.156747,0.007382,-0.048401,0.125275,-0.025896,-0.067243,0.003576,0.485231,0.574651,-0.477336,-0.454398,96.681457,3.382693,-82.439432
17330,NaN,0.005165,9.550876,-1.222771,0.178102,-0.554150,-0.201463,-0.008634,0.003329,0.009975,0.485276,0.574596,-0.477372,-0.454382,96.678020,3.374258,-82.441721
17331,NaN,-1.316720,10.080880,-1.221739,-0.050187,0.718010,0.401640,-0.076531,0.055054,0.025070,0.485674,0.574457,-0.477171,-0.454343,96.637329,3.353849,-82.415637
17332,NaN,-0.529461,9.433109,-1.678910,0.577309,0.045568,-0.234209,-0.014946,-0.090206,0.014441,0.485524,0.574164,-0.477433,-0.454599,96.627245,3.349099,-82.471537
17333,NaN,-0.281369,9.811433,-0.738344,-0.354598,-0.343229,0.018131,-0.048944,-0.004909,-0.007110,0.485626,0.574033,-0.477348,-0.454745,96.600482,3.350982,-82.477496
17334,NaN,-0.516776,9.769271,-1.094681,-0.025871,-0.062263,0.031067,-0.032955,-0.040233,0.012103,0.485641,0.573815,-0.477440,-0.454906,96.581732,3.344232,-82.504722
17335,NaN,-0.658695,9.712143,-1.071378,-0.058387,0.080259,-0.019955,-0.027303,-0.043249,-0.003416,0.485598,0.573640,-0.477508,-0.455101,96.566079,3.346524,-82.532786
17336,NaN,-0.598417,9.828436,-1.075161,-0.057311,0.012238,0.092301,-0.007317,-0.062297,-0.006838,0.485445,0.573479,-0.477658,-0.455311,96.561342,3.351986,-82.571340
17337,NaN,-0.592694,9.862091,-1.049529,-0.084705,0.000543,0.122425,-0.002256,-0.074644,0.001464,0.485266,0.573282,-0.477873,-0.455524,96.558970,3.353548,-82.617625
17338,NaN,-0.658060,9.731291,-1.166153,0.036578,0.088693,0.009826,-0.009983,-0.077490,0.001883,0.485102,0.573060,-0.478079,-0.455762,96.552236,3.355037,-82.665477
17339,NaN,-0.572241,9.741524,-1.178316,0.059317,0.004372,0.016332,-0.002754,-0.080735,0.004661,0.484917,0.572839,-0.478317,-0.455986,96.549361,3.355170,-82.715445
17340,NaN,-0.524424,9.790582,-1.232551,0.114555,-0.039466,0.068356,-0.013916,-0.059850,0.013312,0.484834,0.572620,-0.478503,-0.456155,96.540886,3.348991,-82.753963
17341,NaN,-0.519777,9.790089,-1.206487,0.091048,-0.045671,0.064622,-0.020540,-0.046290,0.016704,0.484810,0.572406,-0.478651,-0.456294,96.528930,3.340008,-82.785077
17342,NaN,-0.582889,9.795343,-1.168742,0.047557,0.013700,0.069216,-0.028604,-0.041052,0.014068,0.484815,0.572192,-0.478760,-0.456442,96.512639,3.332183,-82.812826
17343,NaN,-0.676246,9.802710,-1.100601,-0.029101,0.099279,0.074226,-0.034778,-0.052525,0.013994,0.484810,0.571936,-0.478883,-0.456639,96.492338,3.325131,-82.847313
17344,NaN,-0.632919,9.763559,-1.030498,-0.085155,0.052606,0.024974,-0.039033,-0.074898,0.015580,0.484768,0.571616,-0.479055,-0.456905,96.468971,3.318587,-82.894542
17345,NaN,-0.602163,9.761995,-1.056199,-0.052259,0.026804,0.024550,-0.031643,-0.087185,0.015608,0.484674,0.571284,-0.479273,-0.457190,96.449325,3.312823,-82.948894
17346,NaN,-0.575246,9.761243,-1.106309,0.003827,0.007587,0.027872,-0.031964,-0.100223,0.020772,0.484563,0.570910,-0.479537,-0.457499,96.429147,3.304915,-83.010887
17347,NaN,-0.577368,9.727264,-1.103853,0.007438,0.013463,-0.005993,-0.020497,-0.106414,0.020759,0.484403,0.570549,-0.479842,-0.457799,96.415251,3.297416,-83.076530
17348,NaN,-0.648058,9.734176,-1.114052,0.010394,0.086029,0.006059,-0.018313,-0.110538,0.027293,0.484242,0.570168,-0.480180,-0.458088,96.402560,3.286423,-83.144823
17349,NaN,-0.545713,9.761195,-1.151998,0.059320,-0.010851,0.031204,-0.019826,-0.113507,0.029547,0.484083,0.569771,-0.480529,-0.458385,96.388809,3.274343,-83.215069
17350,NaN,-0.488820,9.808823,-1.157151,0.068103,-0.067863,0.075776,-0.018199,-0.093091,0.024610,0.483958,0.569437,-0.480817,-0.458631,96.376764,3.263759,-83.273149
17351,NaN,-0.479593,9.807451,-1.106641,0.021383,-0.080628,0.068294,-0.021697,-0.081455,0.019656,0.483858,0.569132,-0.481055,-0.458865,96.363042,3.255242,-83.324477
17352,NaN,-0.459366,9.788277,-1.083293,0.004791,-0.100472,0.045547,-0.022758,-0.074616,0.013139,0.483763,0.568856,-0.481255,-0.459096,96.349085,3.249986,-83.371335
17353,NaN,-0.500894,9.793221,-1.122922,0.040952,-0.054121,0.057187,-0.024486,-0.070652,0.013453,0.483683,0.568584,-0.481443,-0.459321,96.334148,3.244292,-83.416104
17354,NaN,-0.488373,9.790863,-1.048606,-0.028998,-0.073452,0.045956,-0.012018,-0.076258,0.008746,0.483543,0.568341,-0.481659,-0.459542,96.326301,3.241613,-83.463620
17355,NaN,-0.582902,9.833230,-1.004542,-0.086298,0.013305,0.088508,-0.013227,-0.077798,0.007601,0.483401,0.568093,-0.481873,-0.459774,96.317610,3.239687,-83.512093
17356,NaN,-0.646667,9.787945,-1.043023,-0.049241,0.084256,0.051410,-0.013511,-0.098713,0.008888,0.483212,0.567795,-0.482140,-0.460061,96.308166,3.238333,-83.572390
17357,NaN,-0.659525,9.790722,-1.113668,0.020111,0.104377,0.062644,-0.002020,-0.124395,0.006695,0.482922,0.567469,-0.482490,-0.460400,96.304400,3.239843,-83.647384
17358,NaN,-0.615195,9.770149,-1.145843,0.059907,0.064871,0.043246,-0.005047,-0.144022,0.008235,0.482598,0.567088,-0.482883,-0.460797,96.298380,3.241731,-83.733436
17359,NaN,-0.545257,9.798830,-1.155814,0.075602,-0.005795,0.068838,-0.005088,-0.154450,0.008831,0.482249,0.566680,-0.483304,-0.461223,96.291873,3.243897,-83.825709
17360,NaN,-0.515428,9.761663,-1.161167,0.089163,-0.032745,0.030839,-0.007983,-0.152012,0.007992,0.481912,0.566273,-0.483709,-0.461650,96.283903,3.246389,-83.916344
17361,NaN,-0.550089,9.764743,-1.153216,0.078925,0.000455,0.034977,-0.012959,-0.147062,0.010912,0.481608,0.565858,-0.484099,-0.462069,96.273112,3.246881,-84.004535
17362,NaN,-0.577006,9.715694,-1.173240,0.102748,0.031998,-0.010006,-0.010678,-0.146973,0.002619,0.481278,0.565469,-0.484469,-0.462500,96.263764,3.252101,-84.091912
17363,NaN,-0.512743,9.725940,-1.108808,0.045772,-0.039234,-0.010513,-0.002328,-0.133860,0.008324,0.480969,0.565114,-0.484844,-0.462861,96.259491,3.253215,-84.172409
17364,NaN,-0.570225,9.799750,-1.069577,-0.005486,0.009304,0.061731,-0.008956,-0.120317,0.011851,0.480720,0.564768,-0.485180,-0.463190,96.251947,3.251490,-84.245158
17365,NaN,-0.415905,9.854244,-1.020360,-0.043519,-0.152103,0.101707,-0.001345,-0.107973,0.004905,0.480463,0.564484,-0.485485,-0.463484,96.249088,3.252922,-84.310674
17366,NaN,-0.419347,9.819923,-1.020371,-0.039898,-0.146245,0.067845,-0.004954,-0.080611,0.007766,0.480289,0.564249,-0.485723,-0.463701,96.245112,3.251012,-84.360557
17367,NaN,-0.376667,9.815230,-0.978508,-0.076690,-0.191762,0.056226,0.004823,-0.050397,0.005037,0.480155,0.564113,-0.485904,-0.463817,96.247652,3.248775,-84.393236
17368,NaN,-0.354035,9.829975,-0.958120,-0.097217,-0.217045,0.067353,0.013287,-0.023814,-0.003530,0.480042,0.564081,-0.486015,-0.463856,96.256019,3.249801,-84.409904
17369,NaN,-0.314623,9.895657,-0.964487,-0.095455,-0.260330,0.130972,0.015138,0.004703,-0.006817,0.479984,0.564126,-0.486054,-0.463819,96.266291,3.250881,-84.410409
17370,NaN,-0.459415,9.823291,-1.041460,-0.027823,-0.105254,0.075735,0.018022,0.028029,-0.013925,0.479959,0.564251,-0.486024,-0.463726,96.279091,3.254560,-84.396921
17371,NaN,-0.496845,9.810815,-1.136668,0.061755,-0.059503,0.075872,0.021570,0.042160,-0.016959,0.479951,0.564422,-0.485959,-0.463592,96.294299,3.259065,-84.375422
17372,NaN,-0.586023,9.785503,-1.222610,0.138401,0.038170,0.065250,0.014922,0.057763,-0.008673,0.480019,0.564596,-0.485865,-0.463410,96.306291,3.257880,-84.345320
17373,NaN,-0.603929,9.769632,-1.221130,0.135125,0.057692,0.050376,0.005226,0.067411,0.004173,0.480167,0.564736,-0.485761,-0.463194,96.312876,3.248752,-84.310748
17374,NaN,-0.733934,9.815681,-1.196249,0.091200,0.183905,0.100694,0.009218,0.066722,0.023392,0.480348,0.564838,-0.485722,-0.462923,96.321723,3.228728,-84.277526
17375,NaN,-0.717040,9.867690,-1.247620,0.136405,0.172845,0.156943,0.005807,0.072519,0.043566,0.480598,0.564895,-0.485719,-0.462597,96.328639,3.196835,-84.242535
17376,NaN,-0.734548,9.919698,-1.117803,-0.000785,0.181571,0.195134,-0.002640,0.063295,0.073764,0.480919,0.564839,-0.485803,-0.462243,96.330451,3.148370,-84.214459
17377,NaN,-0.783231,9.889345,-1.033515,-0.086607,0.233406,0.158209,-0.014891,0.053153,0.095002,0.481299,0.564677,-0.485944,-0.461898,96.324673,3.088408,-84.193770
17378,NaN,-0.619963,9.843551,-1.136112,0.036280,0.094798,0.115066,-0.020693,0.056365,0.103692,0.481724,0.564488,-0.486087,-0.461535,96.315679,3.023307,-84.171530
17379,NaN,-0.622381,9.882506,-1.229282,0.124923,0.115948,0.163953,-0.031543,0.078186,0.118347,0.482266,0.564285,-0.486194,-0.461104,96.300980,2.948481,-84.138020
17380,NaN,-0.463861,9.834295,-1.179471,0.098555,-0.029128,0.102407,-0.046046,0.109073,0.132591,0.482957,0.564086,-0.486233,-0.460584,96.278864,2.863623,-84.087557
17381,NaN,-0.225336,9.816424,-1.290010,0.237279,-0.238839,0.084975,-0.058386,0.143744,0.133003,0.483766,0.563934,-0.486161,-0.459996,96.250485,2.776376,-84.017529
17382,NaN,-0.454631,9.922781,-1.037855,-0.042895,-0.025354,0.174450,-0.075639,0.190790,0.149375,0.484776,0.563808,-0.485981,-0.459276,96.213441,2.676903,-83.921504
17383,NaN,-1.048672,9.827177,-0.952067,-0.175515,0.580356,0.097505,-0.098580,0.169926,0.170735,0.485848,0.563526,-0.485858,-0.458620,96.162371,2.566641,-83.838774
17384,NaN,-1.119987,9.822012,-0.953573,-0.175360,0.672073,0.094538,-0.091889,0.097468,0.193980,0.486777,0.563036,-0.485992,-0.458093,96.113252,2.447632,-83.798625
17385,NaN,-0.980937,9.972151,-1.058772,-0.065885,0.559372,0.247618,-0.083414,0.030986,0.225425,0.487593,0.562338,-0.486395,-0.457657,96.067102,2.314797,-83.798275
17386,NaN,-0.657918,9.975853,-0.953391,-0.130280,0.252576,0.226169,-0.079977,-0.009425,0.251674,0.488359,0.561491,-0.486977,-0.457260,96.022134,2.169455,-83.822373
17387,NaN,-0.110002,9.835996,-0.992474,-0.013713,-0.255304,0.070556,-0.077055,0.011625,0.242097,0.489146,0.560721,-0.487486,-0.456820,95.979193,2.028282,-83.833855
17388,NaN,-0.112928,9.667718,-1.038053,0.052184,-0.214770,-0.091259,-0.072429,0.063653,0.244389,0.490051,0.560075,-0.487886,-0.456216,95.940126,1.882689,-83.815700
17389,NaN,-0.167947,9.693818,-0.991725,0.001935,-0.141547,-0.067855,-0.072470,0.081834,0.225729,0.490958,0.559515,-0.488186,-0.455607,95.901173,1.746679,-83.785982
17390,NaN,-0.218828,9.733186,-0.822116,-0.171385,-0.087252,-0.044287,-0.065454,0.060696,0.215923,0.491769,0.558947,-0.488528,-0.455063,95.866055,1.617494,-83.767716
17391,NaN,-0.285923,9.676789,-0.878445,-0.113875,0.009214,-0.092575,-0.060733,0.019371,0.204067,0.492439,0.558324,-0.488947,-0.454652,95.832765,1.497515,-83.772183
17392,NaN,0.047447,9.589783,-0.931386,-0.014341,-0.294138,-0.182167,-0.039049,-0.016313,0.176344,0.492897,0.557742,-0.489426,-0.454355,95.811668,1.395408,-83.795347
17393,NaN,0.202128,9.608638,-0.950987,0.020910,-0.430461,-0.164610,-0.023629,-0.002436,0.146087,0.493278,0.557302,-0.489820,-0.454056,95.799440,1.309739,-83.808795
17394,NaN,0.122318,9.688918,-0.928881,-0.017040,-0.342375,-0.084615,-0.021705,0.033769,0.124968,0.493693,0.557001,-0.490072,-0.453703,95.788980,1.233938,-83.800477
17395,NaN,-0.020314,9.932213,-0.863513,-0.120752,-0.203040,0.154213,-0.014788,0.061238,0.106449,0.494115,0.556824,-0.490219,-0.453302,95.782663,1.167182,-83.775300
17396,NaN,-0.127604,10.085477,-0.833354,-0.176532,-0.092892,0.305999,-0.031095,0.074334,0.099187,0.494597,0.556654,-0.490278,-0.452922,95.767372,1.103751,-83.742402
17397,NaN,-0.264815,9.898980,-0.939462,-0.066525,0.071021,0.133822,-0.034879,0.070279,0.086617,0.495051,0.556496,-0.490300,-0.452595,95.749607,1.047792,-83.710899
17398,NaN,-0.258136,9.778935,-0.967296,-0.024802,0.080422,0.017001,-0.030147,0.044638,0.082548,0.495419,0.556302,-0.490387,-0.452336,95.734504,0.995622,-83.693790
17399,NaN,-0.228858,9.708157,-0.996711,0.015941,0.065301,-0.051048,-0.027378,0.018320,0.078589,0.495708,0.556065,-0.490533,-0.452154,95.720486,0.947228,-83.691424
17400,NaN,-0.149822,9.734547,-1.004868,0.031348,-0.005362,-0.025318,-0.021355,0.000487,0.065704,0.495904,0.555834,-0.490703,-0.452038,95.710048,0.907174,-83.698607
17401,NaN,-0.073674,9.847109,-0.983462,0.008682,-0.079600,0.083361,-0.020928,-0.008245,0.060601,0.496068,0.555596,-0.490879,-0.451958,95.699503,0.870549,-83.710345
17402,NaN,-0.111857,9.904995,-0.970299,-0.012456,-0.038023,0.140268,-0.033415,-0.003304,0.059489,0.496275,0.555342,-0.491014,-0.451898,95.682090,0.834237,-83.719301
17403,NaN,-0.323703,9.971421,-1.050836,0.040175,0.186578,0.217360,-0.038228,-0.001989,0.067916,0.496519,0.555057,-0.491156,-0.451825,95.661694,0.793081,-83.727865
17404,NaN,-0.398087,9.899657,-1.160898,0.151122,0.282269,0.157611,-0.049320,-0.015712,0.081678,0.496790,0.554681,-0.491346,-0.451783,95.635062,0.744796,-83.745161
17405,NaN,-0.256106,9.676928,-1.240124,0.270496,0.163808,-0.058384,-0.056396,-0.028740,0.087164,0.497062,0.554243,-0.491567,-0.451781,95.604066,0.694158,-83.770022
17406,NaN,0.054858,9.510827,-1.096531,0.182107,-0.148155,-0.241580,-0.051641,-0.032617,0.083147,0.497301,0.553818,-0.491798,-0.451788,95.575979,0.645963,-83.796942
17407,NaN,0.132843,9.565629,-0.927012,0.021077,-0.236920,-0.204270,-0.045751,-0.024309,0.072878,0.497522,0.553452,-0.491991,-0.451783,95.551160,0.603201,-83.818432
17408,NaN,0.027306,9.754139,-0.893002,-0.038666,-0.132056,-0.018685,-0.043494,-0.022200,0.069389,0.497732,0.553104,-0.492177,-0.451775,95.527892,0.562236,-83.838699
17409,NaN,-0.118472,9.863721,-0.931233,-0.023630,0.022204,0.095550,-0.043284,-0.023336,0.070440,0.497942,0.552752,-0.492367,-0.451767,95.504524,0.520793,-83.859464
17410,NaN,-0.086297,9.862722,-0.981135,0.032319,0.002779,0.099038,-0.038742,-0.026079,0.065364,0.498121,0.552418,-0.492561,-0.451767,95.483984,0.482356,-83.881574
17411,NaN,-0.074388,9.811134,-1.006329,0.066143,0.001330,0.049979,-0.036496,-0.023973,0.061881,0.498292,0.552102,-0.492744,-0.451765,95.464536,0.445814,-83.902205
17412,NaN,0.042212,9.744934,-1.025480,0.106241,-0.105157,-0.014995,-0.034790,-0.018434,0.055209,0.498455,0.551820,-0.492900,-0.451760,95.446354,0.412728,-83.919442
17413,NaN,0.150037,9.745455,-0.940334,0.035616,-0.215549,-0.023259,-0.030118,0.000589,0.050256,0.498642,0.551604,-0.493004,-0.451704,95.430685,0.381470,-83.925408
17414,NaN,0.074063,9.723259,-0.975042,0.066012,-0.131086,-0.041484,-0.027920,0.015948,0.034983,0.498825,0.551466,-0.493034,-0.451637,95.416581,0.358046,-83.921905
17415,NaN,0.133894,9.732471,-0.956667,0.055218,-0.189134,-0.034379,-0.024195,0.021507,0.020172,0.498980,0.551386,-0.493016,-0.451584,95.404393,0.342816,-83.914298
17416,NaN,0.058340,9.794991,-0.937503,0.024238,-0.114658,0.026542,-0.024035,0.033626,0.009437,0.499138,0.551360,-0.492941,-0.451523,95.392594,0.332987,-83.899416
17417,NaN,-0.074749,9.848540,-0.934503,0.003783,0.018269,0.080354,-0.018477,0.043698,0.006195,0.499300,0.551379,-0.492842,-0.451428,95.383757,0.324538,-83.878393
17418,NaN,-0.138246,9.942180,-0.866712,-0.077645,0.074413,0.167577,-0.015132,0.051674,0.006419,0.499471,0.551424,-0.492733,-0.451303,95.377091,0.315482,-83.852964
17419,NaN,-0.204057,9.951157,-0.853757,-0.097635,0.140531,0.175645,-0.011241,0.062649,0.017070,0.499684,0.551477,-0.492633,-0.451112,95.372448,0.299817,-83.821712
17420,NaN,-0.107430,9.896084,-0.674460,-0.260172,0.028704,0.103482,0.008600,0.062574,0.015642,0.499837,0.551582,-0.492576,-0.450875,95.379415,0.284915,-83.790607
17421,NaN,0.029537,9.878298,-0.698763,-0.221174,-0.102273,0.087339,0.010848,0.067896,0.015787,0.499999,0.551705,-0.492510,-0.450617,95.387425,0.269695,-83.756295
17422,NaN,0.149474,9.830759,-0.797144,-0.108535,-0.208445,0.048670,0.023979,0.075313,0.003851,0.500115,0.551908,-0.492422,-0.450336,95.403258,0.260876,-83.717169
17423,NaN,0.175919,9.729661,-0.983369,0.085443,-0.212273,-0.034553,0.024208,0.087445,-0.006901,0.500237,0.552164,-0.492274,-0.450049,95.418968,0.257525,-83.670488
17424,NaN,0.150592,9.667055,-1.084597,0.186031,-0.175221,-0.087171,0.026349,0.107192,-0.019638,0.500372,0.552501,-0.492047,-0.449733,95.436158,0.260275,-83.612040
17425,NaN,0.143510,9.718772,-1.058299,0.151531,-0.172914,-0.038115,0.031785,0.122164,-0.029464,0.500508,0.552909,-0.491766,-0.449388,95.456311,0.267876,-83.544331
17426,NaN,0.024562,9.837301,-1.009775,0.076587,-0.063626,0.075833,0.016804,0.131117,-0.034805,0.500693,0.553313,-0.491417,-0.449067,95.468155,0.277952,-83.471395
17427,NaN,-0.133863,9.912697,-1.056143,0.095743,0.096045,0.156090,0.011848,0.144299,-0.034892,0.500926,0.553734,-0.491020,-0.448722,95.476970,0.287408,-83.390762
17428,NaN,-0.153677,9.946734,-0.978012,0.011848,0.104533,0.182641,0.004709,0.135022,-0.034970,0.501153,0.554116,-0.490632,-0.448420,95.481876,0.297328,-83.315570
17429,NaN,-0.201279,9.933191,-0.922938,-0.047654,0.143947,0.164167,0.004830,0.121129,-0.031220,0.501356,0.554458,-0.490288,-0.448147,95.486627,0.305943,-83.248351
17430,NaN,-0.210399,9.949453,-0.871881,-0.101394,0.145176,0.175541,0.001388,0.100388,-0.028750,0.501522,0.554739,-0.489996,-0.447933,95.489531,0.314198,-83.193260
17431,NaN,-0.171060,9.928697,-0.928935,-0.038520,0.111924,0.160136,-0.004667,0.083057,-0.021336,0.501680,0.554947,-0.489753,-0.447764,95.488735,0.319257,-83.148295
17432,NaN,-0.156740,9.945093,-0.954633,-0.012762,0.099715,0.178842,-0.006398,0.074296,-0.018294,0.501826,0.555124,-0.489539,-0.447616,95.487169,0.322993,-83.108708
17433,NaN,-0.109304,9.921567,-0.962189,0.003636,0.053503,0.155882,-0.020404,0.069380,-0.015379,0.502008,0.555247,-0.489311,-0.447508,95.477316,0.325408,-83.071870
17434,NaN,-0.172837,9.793803,-1.032406,0.079295,0.127540,0.035752,-0.027000,0.061931,-0.003945,0.502213,0.555310,-0.489121,-0.447408,95.463847,0.321650,-83.040045
17435,NaN,-0.142364,9.791197,-1.059401,0.112013,0.101545,0.035525,-0.025203,0.056783,-0.003212,0.502404,0.555363,-0.488948,-0.447316,95.451199,0.317827,-83.011056
17436,NaN,-0.011408,9.739907,-1.079592,0.154888,-0.024167,-0.014379,-0.028568,0.048794,-0.003448,0.502582,0.555390,-0.488789,-0.447256,95.436820,0.314492,-82.986864
17437,NaN,0.096525,9.688519,-1.021896,0.118284,-0.136435,-0.071620,-0.028555,0.041833,-0.001557,0.502750,0.555398,-0.488651,-0.447210,95.422200,0.310550,-82.966491
17438,NaN,0.121690,9.665047,-0.950240,0.055125,-0.169195,-0.101908,-0.026748,0.044164,-0.011834,0.502893,0.555439,-0.488484,-0.447178,95.408814,0.312252,-82.944475
17439,NaN,0.106791,9.733492,-0.867323,-0.032789,-0.165984,-0.041511,-0.022046,0.047230,-0.017680,0.503020,0.555515,-0.488302,-0.447142,95.397946,0.317225,-82.920151
17440,NaN,-0.031478,9.823941,-0.913078,-0.010700,-0.025374,0.053607,-0.028958,0.049551,-0.019406,0.503166,0.555582,-0.488096,-0.447120,95.383313,0.322988,-82.894565
17441,NaN,-0.192371,9.901018,-0.980398,0.031795,0.140789,0.137565,-0.036856,0.044312,-0.014638,0.503333,0.555606,-0.487896,-0.447120,95.363954,0.326395,-82.872072
17442,NaN,-0.230695,9.907166,-0.995923,0.044890,0.180536,0.145346,-0.032018,0.035519,-0.012010,0.503470,0.555615,-0.487739,-0.447125,95.347498,0.328679,-82.854942
17443,NaN,-0.063988,9.814490,-0.973787,0.055117,0.014325,0.050037,-0.032521,0.031479,-0.004208,0.503616,0.555596,-0.487610,-0.447124,95.330579,0.326833,-82.840329
17444,NaN,0.031686,9.731949,-0.965490,0.068962,-0.079683,-0.033480,-0.027011,0.042739,-0.008491,0.503764,0.555625,-0.487456,-0.447089,95.317037,0.326717,-82.819373
17445,NaN,0.015623,9.715733,-0.936776,0.042524,-0.066648,-0.052206,-0.029413,0.048753,-0.008008,0.503936,0.555661,-0.487280,-0.447042,95.301955,0.326132,-82.794702
17446,NaN,0.004083,9.733694,-0.906472,0.012011,-0.058917,-0.037060,-0.028579,0.053725,-0.010071,0.504112,0.555716,-0.487090,-0.446984,95.287531,0.326377,-82.767252
17447,NaN,-0.103377,9.834438,-0.881704,-0.032673,0.043246,0.061588,-0.028098,0.050277,-0.006872,0.504287,0.555756,-0.486916,-0.446926,95.273206,0.325076,-82.741771
17448,NaN,-0.076492,9.882263,-0.854964,-0.057467,0.012808,0.106611,-0.031152,0.036759,-0.008599,0.504431,0.555762,-0.486767,-0.446918,95.257295,0.325369,-82.724205
17449,NaN,-0.042181,9.805129,-0.788062,-0.109634,-0.028383,0.023498,-0.027266,0.024674,-0.014097,0.504525,0.555764,-0.486640,-0.446948,95.243367,0.329545,-82.712953
17450,NaN,0.001582,9.783413,-0.817993,-0.070068,-0.068165,0.004376,-0.028067,0.016487,-0.015660,0.504596,0.555750,-0.486529,-0.447006,95.229108,0.334938,-82.706518
17451,NaN,-0.001340,9.747874,-0.792665,-0.089585,-0.068897,-0.033291,-0.029312,0.008536,-0.024043,0.504634,0.555735,-0.486410,-0.447111,95.213959,0.345636,-82.703957
17452,NaN,0.035444,9.765167,-0.893330,0.015634,-0.094663,-0.007149,-0.026400,0.002827,-0.026833,0.504642,0.555722,-0.486306,-0.447231,95.200640,0.358151,-82.704647
17453,NaN,0.074005,9.745122,-0.947739,0.078460,-0.128034,-0.022460,-0.021671,0.002691,-0.036276,0.504617,0.555744,-0.486185,-0.447364,95.189852,0.376134,-82.704792
17454,NaN,0.032230,9.715408,-0.941939,0.072391,-0.089442,-0.052350,-0.024896,0.003732,-0.033738,0.504608,0.555753,-0.486063,-0.447495,95.177373,0.392514,-82.704678
17455,NaN,-0.063789,9.748103,-0.998236,0.115342,0.009826,-0.014082,-0.023607,0.005249,-0.032588,0.504603,0.555766,-0.485942,-0.447617,95.165485,0.408261,-82.703561
17456,NaN,-0.128862,9.826759,-1.006212,0.110573,0.071822,0.065413,-0.029108,0.004170,-0.026604,0.504623,0.555749,-0.485828,-0.447739,95.150621,0.420612,-82.703382
17457,NaN,-0.186425,9.902206,-0.965483,0.059355,0.120943,0.137310,-0.032525,0.002600,-0.019630,0.504665,0.555703,-0.485729,-0.447856,95.133608,0.429101,-82.704450
17458,NaN,-0.210936,9.901853,-0.884412,-0.020487,0.134920,0.129885,-0.039725,-0.008977,-0.000426,0.504741,0.555565,-0.485698,-0.447975,95.112606,0.427157,-82.713225
17459,NaN,-0.200813,9.848806,-0.885687,-0.009831,0.126832,0.077083,-0.036830,-0.011467,0.000398,0.504805,0.555428,-0.485681,-0.448091,95.093059,0.424932,-82.723348
17460,NaN,-0.149401,9.788267,-0.844228,-0.035924,0.072992,0.012719,-0.033678,-0.027005,0.010739,0.504846,0.555238,-0.485739,-0.448217,95.075368,0.417535,-82.742872
17461,NaN,-0.051248,9.741777,-0.858356,-0.002922,-0.019957,-0.033055,-0.028556,-0.038115,0.015498,0.504857,0.555025,-0.485849,-0.448349,95.060448,0.408035,-82.768967
17462,NaN,0.002948,9.752820,-0.862577,0.009305,-0.071516,-0.022062,-0.026770,-0.036295,0.014349,0.504864,0.554823,-0.485957,-0.448475,95.046750,0.399021,-82.794121
17463,NaN,-0.000515,9.718854,-0.861763,0.013047,-0.065824,-0.055933,-0.024986,-0.034475,0.013202,0.504868,0.554633,-0.486060,-0.448594,95.033899,0.390635,-82.818018
17464,NaN,0.014494,9.651460,-0.940727,0.100317,-0.068435,-0.116239,-0.015944,-0.036728,0.006800,0.504827,0.554476,-0.486172,-0.448713,95.026381,0.385955,-82.842947
17465,NaN,0.070980,9.660671,-0.922645,0.089322,-0.126442,-0.109033,-0.004163,-0.033345,-0.001722,0.504743,0.554376,-0.486277,-0.448817,95.025475,0.386024,-82.865448
17466,NaN,0.143060,9.734846,-0.853664,0.023643,-0.207862,-0.041675,-0.001417,-0.027707,-0.003844,0.504659,0.554302,-0.486369,-0.448902,95.026337,0.386954,-82.884737
17467,NaN,0.100997,9.790753,-0.819394,-0.020672,-0.172479,0.011277,0.006235,-0.022787,-0.023464,0.504523,0.554306,-0.486411,-0.449006,95.031434,0.398904,-82.900120
17468,NaN,0.068665,9.829115,-0.812982,-0.034856,-0.144459,0.049112,0.004679,-0.011248,-0.034126,0.504395,0.554358,-0.486391,-0.449107,95.035828,0.416319,-82.908356
17469,NaN,0.005786,9.905814,-0.799818,-0.062834,-0.088829,0.124770,0.010699,-0.006086,-0.047918,0.504232,0.554469,-0.486332,-0.449215,95.043554,0.441387,-82.912973
17470,NaN,0.018734,9.884900,-0.780159,-0.079533,-0.108637,0.102055,0.008675,-0.005036,-0.058033,0.504054,0.554603,-0.486239,-0.449350,95.050275,0.472119,-82.916515
17471,NaN,0.021614,9.795616,-0.763876,-0.088032,-0.117900,0.011590,0.010227,-0.010533,-0.072190,0.503828,0.554763,-0.486124,-0.449533,95.057713,0.511266,-82.922439
17472,NaN,0.002404,9.764637,-0.814990,-0.037809,-0.099368,-0.014675,0.014657,-0.008331,-0.083786,0.503567,0.554967,-0.485981,-0.449727,95.067825,0.556865,-82.926503
17473,NaN,-0.007422,9.680229,-0.871739,0.023439,-0.089388,-0.093723,0.020070,-0.016254,-0.092611,0.503253,0.555188,-0.485845,-0.449953,95.080871,0.607959,-82.934644
17474,NaN,0.006527,9.729328,-0.873844,0.021822,-0.113334,-0.044876,0.021139,-0.018837,-0.100859,0.502911,0.555426,-0.485695,-0.450203,95.094602,0.663846,-82.943732
17475,NaN,-0.022062,9.749901,-0.896380,0.037829,-0.092702,-0.022156,0.018171,-0.018392,-0.106394,0.502566,0.555670,-0.485521,-0.450474,95.106539,0.722918,-82.952367
17476,NaN,-0.130283,9.747418,-0.957947,0.084954,0.011818,-0.017820,0.015682,-0.021407,-0.108728,0.502215,0.555908,-0.485343,-0.450764,95.117165,0.783448,-82.962506
17477,NaN,-0.196893,9.773385,-0.998767,0.114496,0.071755,0.012642,0.013294,-0.015393,-0.108248,0.501886,0.556151,-0.485146,-0.451043,95.126315,0.843427,-82.969313
17478,NaN,-0.307620,9.904973,-0.951063,0.042551,0.162461,0.141177,0.002214,-0.019658,-0.100956,0.501594,0.556340,-0.484955,-0.451341,95.129193,0.899413,-82.978889
17479,NaN,-0.301776,9.969940,-0.899413,-0.012457,0.139523,0.201308,-0.003568,-0.029199,-0.089715,0.501320,0.556464,-0.484806,-0.451652,95.128526,0.949525,-82.994518
17480,NaN,-0.321519,10.023023,-0.893365,-0.023807,0.148499,0.254082,-0.012522,-0.037167,-0.085055,0.501061,0.556538,-0.484669,-0.451995,95.122766,0.997351,-83.014850
17481,NaN,-0.173172,9.949524,-0.846063,-0.044008,-0.010464,0.174143,-0.014534,-0.043651,-0.084180,0.500795,0.556588,-0.484546,-0.452359,95.115638,1.045041,-83.039020
17482,NaN,-0.082076,9.782149,-0.870658,0.008103,-0.101532,0.007946,-0.016055,-0.039078,-0.093001,0.500524,0.556668,-0.484384,-0.452735,95.107766,1.097486,-83.060041
17483,NaN,-0.016486,9.758865,-0.931899,0.080600,-0.167935,-0.011185,-0.007008,-0.027300,-0.103214,0.500234,0.556820,-0.484184,-0.453083,95.105108,1.155198,-83.073918
17484,NaN,0.010520,9.789433,-0.935009,0.085858,-0.205679,0.018776,-0.004804,-0.000442,-0.117840,0.499968,0.557074,-0.483881,-0.453386,95.104111,1.219828,-83.071664
17485,NaN,-0.001516,9.789490,-0.934474,0.085527,-0.205277,0.018787,-0.006119,0.022761,-0.130174,0.499735,0.557407,-0.483483,-0.453659,95.102588,1.290375,-83.055595
17486,NaN,-0.082417,9.796782,-0.923239,0.065772,-0.139068,0.026643,-0.005055,0.034164,-0.142220,0.499499,0.557799,-0.483024,-0.453927,95.101959,1.367190,-83.032232
17487,NaN,-0.235427,9.848461,-0.947807,0.069026,0.000501,0.083835,-0.008002,0.041593,-0.149668,0.499271,0.558216,-0.482519,-0.454200,95.099687,1.447902,-83.004421
17488,NaN,-0.333506,9.886682,-0.832957,-0.057519,0.068775,0.114219,-0.010829,0.035069,-0.153361,0.499027,0.558621,-0.482014,-0.454507,95.095831,1.531021,-82.979991
17489,NaN,-0.374403,9.994161,-0.845567,-0.056621,0.092757,0.223577,-0.013303,0.015475,-0.147513,0.498756,0.558960,-0.481568,-0.454860,95.090190,1.611836,-82.967209
17490,NaN,-0.381589,9.954672,-0.774006,-0.122589,0.079233,0.178251,-0.006683,-0.001019,-0.139752,0.498444,0.559260,-0.481199,-0.455223,95.088165,1.689022,-82.964110
17491,NaN,-0.368810,9.918130,-0.804000,-0.085843,0.058388,0.144268,-0.015208,-0.007570,-0.138488,0.498143,0.559520,-0.480831,-0.455623,95.081057,1.765859,-82.964955
17492,NaN,-0.381362,9.869366,-0.880113,-0.005399,0.069405,0.102935,-0.011930,-0.007076,-0.127208,0.497859,0.559762,-0.480501,-0.455984,95.075906,1.836183,-82.966020
17493,NaN,-0.381563,9.851772,-0.906759,0.024446,0.062376,0.087854,-0.007283,0.002802,-0.110855,0.497623,0.559999,-0.480202,-0.456266,95.073483,1.896723,-82.962358
17494,NaN,-0.373086,9.831076,-0.885527,0.007770,0.042558,0.065143,-0.006631,0.016237,-0.100928,0.497440,0.560244,-0.479898,-0.456483,95.071782,1.950902,-82.951338
17495,NaN,-0.426980,9.802836,-0.929494,0.048398,0.093894,0.042804,-0.007756,0.027823,-0.089844,0.497313,0.560486,-0.479595,-0.456644,95.069550,1.998184,-82.934456
17496,NaN,-0.532084,9.798099,-0.988742,0.095683,0.198366,0.047077,-0.007860,0.025489,-0.070442,0.497226,0.560676,-0.479351,-0.456763,95.067263,2.034471,-82.919759
17497,NaN,-0.623629,9.740267,-1.053311,0.154023,0.294219,-0.001424,-0.005870,0.013665,-0.052874,0.497144,0.560801,-0.479190,-0.456867,95.065778,2.061371,-82.912837
17498,NaN,-0.511829,9.760205,-0.994419,0.108880,0.171495,0.009287,-0.010370,-0.001446,-0.038537,0.497071,0.560847,-0.479097,-0.456987,95.061444,2.080827,-82.915085
17499,NaN,-0.383735,9.761573,-0.938816,0.070636,0.034933,0.001115,-0.008921,-0.011847,-0.028894,0.496992,0.560849,-0.479060,-0.457110,95.057640,2.095331,-82.923949
17500,NaN,-0.360407,9.774020,-0.891324,0.026586,0.003501,0.008468,-0.012391,-0.013508,-0.021875,0.496934,0.560822,-0.479038,-0.457228,95.051862,2.105880,-82.933956
17501,NaN,-0.309583,9.750619,-0.875018,0.019601,-0.049233,-0.018135,-0.007672,-0.012073,-0.017486,0.496877,0.560799,-0.479037,-0.457320,95.048744,2.113883,-82.943526
17502,NaN,-0.258701,9.763124,-0.881164,0.031720,-0.100809,-0.007036,-0.011191,-0.002962,-0.017876,0.496850,0.560790,-0.479003,-0.457396,95.043881,2.121630,-82.947688
17503,NaN,-0.350711,9.755394,-0.891607,0.032547,-0.009124,-0.010416,-0.014712,0.006149,-0.018266,0.496854,0.560793,-0.478938,-0.457456,95.037115,2.129159,-82.946814
17504,NaN,-0.394424,9.809986,-0.855910,-0.011737,0.026444,0.042420,-0.007077,0.005133,-0.013055,0.496847,0.560802,-0.478906,-0.457486,95.034778,2.133762,-82.946544
17505,NaN,-0.320767,9.836542,-0.839759,-0.020100,-0.050575,0.064695,-0.012072,0.008046,-0.014870,0.496855,0.560808,-0.478852,-0.457527,95.029559,2.139257,-82.944758
17506,NaN,-0.422358,9.725832,-0.855533,-0.006857,0.056767,-0.040335,-0.012873,0.012069,-0.009980,0.496888,0.560810,-0.478799,-0.457544,95.024032,2.141751,-82.940686
17507,NaN,-0.428240,9.847499,-0.846160,-0.026479,0.055379,0.080181,-0.000283,0.006107,-0.007672,0.496875,0.560824,-0.478796,-0.457543,95.025512,2.143236,-82.940370
17508,NaN,-0.452248,9.953574,-0.835047,-0.048886,0.073069,0.185699,-0.011710,0.006008,0.002241,0.496918,0.560786,-0.478795,-0.457544,95.020523,2.139062,-82.940400
17509,NaN,-0.533289,9.786714,-0.807902,-0.071065,0.159014,0.020244,-0.013702,-0.000514,0.003128,0.496952,0.560725,-0.478809,-0.457568,95.014153,2.134715,-82.944407
17510,NaN,-0.421093,9.952284,-0.862342,-0.016608,0.047358,0.185632,-0.002710,-0.009484,0.007657,0.496944,0.560661,-0.478882,-0.457577,95.013975,2.128223,-82.953566
17511,NaN,-0.310901,9.868076,-0.784719,-0.072686,-0.066053,0.090934,-0.009697,-0.013092,0.006729,0.496945,0.560573,-0.478947,-0.457618,95.009628,2.122450,-82.964937
17512,NaN,-0.256565,9.760595,-0.824081,-0.018018,-0.109490,-0.014635,-0.002313,-0.004208,-0.001257,0.496929,0.560543,-0.478983,-0.457634,95.009826,2.120780,-82.970669
17513,NaN,-0.219581,9.755879,-0.805411,-0.031937,-0.148372,-0.022333,0.004748,0.006989,-0.011385,0.496896,0.560580,-0.478980,-0.457628,95.014215,2.124341,-82.969663
17514,NaN,-0.167311,9.720098,-0.890486,0.060946,-0.189505,-0.052480,0.003617,0.027898,-0.021572,0.496893,0.560687,-0.478893,-0.457590,95.018535,2.132657,-82.956049
17515,NaN,-0.174473,9.769802,-0.837944,0.003063,-0.193175,-0.007367,0.014120,0.049787,-0.035885,0.496880,0.560904,-0.478736,-0.457503,95.029252,2.148053,-82.929368
17516,NaN,-0.233124,9.997164,-0.766931,-0.094886,-0.156984,0.214883,0.019558,0.065242,-0.030712,0.496901,0.561158,-0.478567,-0.457345,95.043490,2.159689,-82.893938
17517,NaN,-0.436507,9.775161,-0.803330,-0.067853,0.057184,0.004735,0.019788,0.067889,-0.035183,0.496917,0.561428,-0.478380,-0.457191,95.057857,2.173759,-82.856946
17518,NaN,-0.409286,9.773318,-0.835365,-0.035270,0.031030,0.004689,0.030499,0.050191,-0.040349,0.496850,0.561699,-0.478245,-0.457073,95.078067,2.191662,-82.829513
17519,NaN,-0.367080,9.788657,-0.893480,0.023323,-0.007828,0.023483,0.026318,0.047324,-0.036817,0.496795,0.561942,-0.478120,-0.456966,95.095749,2.207686,-82.804173
17520,NaN,-0.332867,9.783684,-0.877479,0.009381,-0.046702,0.015791,0.029702,0.052193,-0.040200,0.496734,0.562214,-0.477980,-0.456844,95.115564,2.225341,-82.775765
17521,NaN,-0.295628,9.813007,-0.860396,-0.008711,-0.090774,0.041980,0.039847,0.056013,-0.042911,0.496648,0.562525,-0.477846,-0.456695,95.141219,2.244379,-82.745139
17522,NaN,-0.255389,9.912559,-0.864068,-0.011888,-0.138868,0.139762,0.030994,0.066556,-0.041773,0.496614,0.562837,-0.477668,-0.456533,95.162149,2.262210,-82.708314
17523,NaN,-0.343905,9.782345,-0.888090,0.008427,-0.045485,0.015797,0.032698,0.073372,-0.049554,0.496574,0.563186,-0.477456,-0.456368,95.184137,2.284118,-82.667414
17524,NaN,-0.397474,9.803494,-0.883182,-0.008427,0.001727,0.038527,0.034897,0.078760,-0.049395,0.496541,0.563552,-0.477236,-0.456181,95.207594,2.305610,-82.623267
17525,NaN,-0.498415,9.797761,-0.947269,0.039049,0.106115,0.042721,0.031029,0.073580,-0.043719,0.496519,0.563883,-0.477036,-0.456005,95.228648,2.324146,-82.582535
17526,NaN,-0.557882,9.785997,-0.968159,0.049630,0.164863,0.035392,0.033428,0.057999,-0.037852,0.496467,0.564172,-0.476896,-0.455852,95.250804,2.340106,-82.550851
17527,NaN,-0.506711,9.881107,-0.899265,-0.023325,0.097735,0.121678,0.031589,0.039533,-0.028433,0.496397,0.564390,-0.476825,-0.455733,95.271374,2.351679,-82.530350
17528,NaN,-0.437330,9.837566,-0.865607,-0.046745,0.024763,0.072425,0.024137,0.028587,-0.025156,0.496330,0.564558,-0.476772,-0.455653,95.287463,2.361931,-82.516047
17529,NaN,-0.411850,9.801487,-0.898736,-0.010003,0.003765,0.038525,0.021305,0.026084,-0.019376,0.496278,0.564698,-0.476736,-0.455573,95.301809,2.369036,-82.503697
17530,NaN,-0.491520,9.811442,-0.963607,0.040210,0.089083,0.057721,0.026395,0.031065,-0.013646,0.496236,0.564849,-0.476716,-0.455453,95.319288,2.372572,-82.488714
17531,NaN,-0.466485,9.823965,-0.919518,-0.003895,0.057740,0.065068,0.021345,0.034256,-0.000510,0.496245,0.564964,-0.476713,-0.455303,95.333811,2.368473,-82.472699
17532,NaN,-0.450510,9.769333,-0.902647,-0.016411,0.043103,0.008487,0.023337,0.027970,0.001324,0.496239,0.565064,-0.476736,-0.455162,95.349409,2.363598,-82.460366
17533,NaN,-0.437857,9.680344,-0.887559,-0.024734,0.033626,-0.081973,0.026163,0.017652,-0.001718,0.496193,0.565155,-0.476782,-0.455051,95.366302,2.361067,-82.453768
17534,NaN,-0.456012,9.926252,-0.923036,-0.017371,0.043467,0.166703,0.042914,0.012870,0.007389,0.496109,0.565255,-0.476905,-0.454890,95.392690,2.353514,-82.450389
17535,NaN,-0.408553,9.870059,-0.936555,0.003000,0.002222,0.110119,0.030698,0.011537,0.013788,0.496070,0.565306,-0.477020,-0.454747,95.412002,2.342463,-82.448121
17536,NaN,-0.367482,9.745207,-0.952706,0.031717,-0.028694,-0.014222,0.032652,0.023019,0.006241,0.496037,0.565408,-0.477089,-0.454585,95.432783,2.335071,-82.438717
17537,NaN,-0.460906,9.547580,-1.003568,0.083805,0.081254,-0.202159,0.026823,0.025857,-0.000170,0.496012,0.565515,-0.477121,-0.454445,95.450238,2.331202,-82.427524
17538,NaN,-0.433721,9.940806,-0.938774,-0.015933,0.026062,0.181716,0.053470,0.009461,0.013483,0.495904,0.565619,-0.477292,-0.454254,95.482617,2.320391,-82.426350
17539,NaN,-0.364293,9.898826,-0.930258,-0.016121,-0.040585,0.136329,0.031312,0.002833,0.008669,0.495832,0.565665,-0.477415,-0.454146,95.502090,2.312733,-82.428786
17540,NaN,-0.419301,9.851447,-0.928526,-0.024573,0.016986,0.091256,0.035354,0.015907,0.006832,0.495775,0.565754,-0.477511,-0.453996,95.524246,2.305348,-82.423613
17541,NaN,-0.440659,9.872584,-0.976929,0.014751,0.043948,0.117788,0.031265,0.009825,0.006743,0.495715,0.565820,-0.477612,-0.453874,95.543857,2.298404,-82.421958
17542,NaN,-0.369527,9.817569,-1.066780,0.114496,-0.011276,0.068911,0.026132,0.015925,0.008521,0.495688,0.565883,-0.477690,-0.453742,95.560726,2.290076,-82.416782
17543,NaN,-0.348740,9.916208,-0.992785,0.031820,-0.045336,0.159041,0.032557,0.026239,0.009842,0.495671,0.565982,-0.477762,-0.453562,95.581443,2.280451,-82.405936
17544,NaN,-0.338567,9.792883,-0.979386,0.027699,-0.049685,0.034705,0.027123,0.032596,0.004742,0.495673,0.566094,-0.477791,-0.453390,95.599216,2.273323,-82.391050
17545,NaN,-0.331209,9.825591,-0.956823,-0.000073,-0.060765,0.064749,0.033161,0.039387,0.004743,0.495673,0.566236,-0.477817,-0.453184,95.620584,2.265861,-82.372423
17546,NaN,-0.355682,9.776608,-0.984055,0.024369,-0.029829,0.019681,0.030898,0.047984,0.000721,0.495692,0.566402,-0.477805,-0.452969,95.640864,2.260147,-82.348535
17547,NaN,-0.364001,9.827932,-0.958861,-0.010296,-0.027004,0.068574,0.038773,0.049646,0.001493,0.495694,0.566588,-0.477809,-0.452729,95.665681,2.253946,-82.323875
17548,NaN,-0.363136,9.827573,-0.962857,-0.010618,-0.026591,0.068575,0.038795,0.051709,0.006195,0.495711,0.566769,-0.477821,-0.452471,95.690577,2.244862,-82.298282
17549,NaN,-0.387364,9.778503,-0.990799,0.013839,0.004326,0.023503,0.039063,0.054339,0.001705,0.495724,0.566966,-0.477815,-0.452217,95.715658,2.238251,-82.270963
17550,NaN,-0.367839,9.758144,-0.973826,-0.002866,-0.015495,0.000812,0.039737,0.062557,0.003232,0.495757,0.567181,-0.477794,-0.451933,95.741393,2.230247,-82.238969
17551,NaN,-0.416264,9.743767,-0.947360,-0.038714,0.030581,-0.014253,0.040054,0.060259,0.005387,0.495789,0.567385,-0.477785,-0.451650,95.767157,2.221173,-82.208490
17552,NaN,-0.393233,9.829062,-0.974764,-0.021480,0.007978,0.072389,0.045214,0.056224,0.008328,0.495804,0.567587,-0.477807,-0.451358,95.795812,2.210587,-82.180387
17553,NaN,-0.373245,9.844324,-0.981148,-0.019108,-0.010667,0.087424,0.046800,0.046414,0.008883,0.495792,0.567768,-0.477858,-0.451089,95.825117,2.200293,-82.158018
17554,NaN,-0.372647,9.831604,-1.109624,0.103801,0.007418,0.087804,0.042925,0.052003,0.007075,0.495800,0.567957,-0.477881,-0.450818,95.852325,2.190598,-82.132374
17555,NaN,-0.439012,9.837185,-1.104633,0.084343,0.073719,0.095421,0.041993,0.052294,0.017488,0.495835,0.568119,-0.477931,-0.450523,95.878976,2.175033,-82.107167
17556,NaN,-0.352936,9.776559,-1.097968,0.090994,-0.006876,0.031238,0.030651,0.061821,0.020895,0.495932,0.568266,-0.477941,-0.450219,95.899342,2.156886,-82.076685
17557,NaN,-0.467608,9.768477,-1.061295,0.036029,0.105115,0.023765,0.027213,0.066023,0.027037,0.496063,0.568400,-0.477951,-0.449897,95.917780,2.135051,-82.044223
17558,NaN,-0.494827,9.770124,-1.035445,0.002881,0.132173,0.023716,0.027277,0.054119,0.035640,0.496184,0.568485,-0.478015,-0.449586,95.935994,2.108897,-82.019177
17559,NaN,-0.493842,9.700139,-1.016489,-0.012270,0.136517,-0.047902,0.020284,0.038563,0.043310,0.496305,0.568500,-0.478123,-0.449318,95.949825,2.079398,-82.003355
17560,NaN,-0.584395,9.790469,-0.879557,-0.172932,0.207917,0.030853,0.046804,-0.001756,0.052509,0.496275,0.568469,-0.478418,-0.449077,95.978053,2.046987,-82.011069
17561,NaN,-0.411093,9.931103,-0.898078,-0.149183,0.036942,0.166226,0.032102,-0.045226,0.056952,0.496193,0.568293,-0.478799,-0.448984,95.996915,2.014710,-82.043862
17562,NaN,-0.202489,9.828581,-1.007397,-0.007022,-0.145147,0.068392,0.043315,-0.039626,0.048538,0.496074,0.568177,-0.479167,-0.448870,96.022314,1.986813,-82.072949
17563,NaN,-0.158360,9.845546,-1.114616,0.097957,-0.171540,0.095047,0.043701,-0.017195,0.039247,0.495986,0.568135,-0.479455,-0.448714,96.048440,1.962963,-82.088719
17564,NaN,-0.229287,9.782782,-1.111604,0.086951,-0.094978,0.034875,0.031209,0.019682,0.039424,0.496023,0.568144,-0.479623,-0.448481,96.068168,1.936736,-82.083398
17565,NaN,-0.231199,9.833148,-1.062805,0.028981,-0.098388,0.079900,0.044063,0.037332,0.031497,0.496047,0.568243,-0.479754,-0.448189,96.095574,1.914004,-82.067633
17566,NaN,-0.283825,9.821541,-1.084804,0.039709,-0.039675,0.072497,0.037003,0.047667,0.026632,0.496106,0.568359,-0.479830,-0.447895,96.119148,1.893299,-82.045781
17567,NaN,-0.289791,9.837618,-1.037342,-0.014040,-0.037955,0.083632,0.037854,0.045680,0.026482,0.496156,0.568474,-0.479912,-0.447606,96.143151,1.872899,-82.024971
17568,NaN,-0.333714,9.809643,-1.110380,0.050131,0.019426,0.065091,0.037173,0.044449,0.023007,0.496198,0.568592,-0.479986,-0.447330,96.166735,1.854447,-82.004688
17569,NaN,-0.352131,9.830419,-1.159541,0.089472,0.046333,0.091631,0.034712,0.038543,0.032053,0.496253,0.568669,-0.480094,-0.447055,96.188781,1.831297,-81.988306
17570,NaN,-0.413336,9.870907,-1.152618,0.065839,0.107561,0.133079,0.030020,0.046128,0.030363,0.496336,0.568755,-0.480169,-0.446773,96.208288,1.808521,-81.967624
17571,NaN,-0.369052,9.829702,-1.089078,0.009477,0.061217,0.083852,0.033807,0.040961,0.047140,0.496432,0.568799,-0.480312,-0.446456,96.229814,1.776615,-81.950818
17572,NaN,-0.354738,9.826137,-1.019531,-0.060667,0.042754,0.072288,0.024950,0.035476,0.047366,0.496541,0.568808,-0.480451,-0.446174,96.246202,1.744808,-81.937309
17573,NaN,-0.377942,9.778454,-1.069967,-0.012859,0.079873,0.031056,0.024271,0.029340,0.050559,0.496645,0.568794,-0.480611,-0.445904,96.262039,1.711670,-81.927359
17574,NaN,-0.300903,9.806175,-1.080195,0.001653,0.009238,0.057386,0.023727,0.022056,0.054842,0.496742,0.568752,-0.480801,-0.445645,96.277460,1.676444,-81.921945
17575,NaN,-0.245184,9.819455,-1.112756,0.036787,-0.036089,0.072522,0.020457,0.032130,0.060068,0.496884,0.568712,-0.480973,-0.445352,96.291128,1.637711,-81.911019
17576,NaN,-0.245292,9.786192,-1.140015,0.063971,-0.024287,0.042497,0.016628,0.039818,0.062915,0.497061,0.568671,-0.481126,-0.445040,96.302703,1.596718,-81.896151
17577,NaN,-0.263650,9.786133,-1.064649,-0.015701,-0.009783,0.034701,0.015535,0.037133,0.062842,0.497235,0.568623,-0.481282,-0.444738,96.313608,1.556086,-81.882566
17578,NaN,-0.278752,9.807203,-1.111929,0.023637,0.017135,0.061241,0.016890,0.026368,0.057679,0.497368,0.568565,-0.481455,-0.444477,96.325141,1.518922,-81.875060
17579,NaN,-0.297403,9.793977,-1.160178,0.067223,0.049122,0.053898,0.012057,0.023232,0.063531,0.497520,0.568476,-0.481640,-0.444221,96.333827,1.478770,-81.869453
17580,NaN,-0.272252,9.809483,-1.163012,0.069535,0.030489,0.068958,0.011204,0.016157,0.060954,0.497651,0.568374,-0.481834,-0.443993,96.341953,1.440434,-81.867818
17581,NaN,-0.167178,9.813662,-1.077589,-0.002210,-0.079223,0.061057,0.006924,0.018218,0.057828,0.497793,0.568275,-0.482003,-0.443777,96.347628,1.403845,-81.864717
17582,NaN,-0.182811,9.834805,-1.123850,0.037128,-0.052315,0.087602,0.005137,0.021273,0.052317,0.497935,0.568190,-0.482147,-0.443572,96.352321,1.370077,-81.859676
17583,NaN,-0.197131,9.783991,-1.099560,0.015136,-0.034080,0.034799,0.002358,0.020487,0.047836,0.498073,0.568108,-0.482272,-0.443386,96.355422,1.339033,-81.854655
17584,NaN,-0.176673,9.800609,-1.125497,0.040705,-0.046434,0.053724,-0.000867,0.016159,0.042074,0.498196,0.568021,-0.482386,-0.443234,96.356691,1.311440,-81.851898
17585,NaN,-0.191380,9.785255,-1.124017,0.037746,-0.027016,0.038663,0.003274,0.013157,0.039420,0.498295,0.567946,-0.482507,-0.443087,96.360228,1.285654,-81.850521
17586,NaN,-0.131442,9.796103,-1.105868,0.026278,-0.084890,0.046113,-0.002557,0.011081,0.039635,0.498406,0.567849,-0.482623,-0.442960,96.360404,1.259748,-81.850511
17587,NaN,-0.167719,9.801947,-1.149640,0.062993,-0.038982,0.057595,-0.003223,0.016824,0.034190,0.498520,0.567778,-0.482706,-0.442832,96.360271,1.236707,-81.846714
17588,NaN,-0.170276,9.804317,-1.197529,0.109211,-0.026033,0.065324,-0.008151,0.026724,0.030306,0.498664,0.567724,-0.482745,-0.442698,96.357464,1.215098,-81.837320
17589,NaN,-0.203732,9.809165,-1.216419,0.122657,0.013598,0.072942,-0.012505,0.034128,0.035454,0.498849,0.567665,-0.482768,-0.442540,96.352215,1.190240,-81.823745
17590,NaN,-0.277130,9.833161,-1.155346,0.049875,0.081379,0.091533,-0.013990,0.036982,0.036802,0.499048,0.567604,-0.482786,-0.442374,96.346241,1.164312,-81.808889
17591,NaN,-0.241688,9.831052,-1.182234,0.082329,0.055049,0.091648,-0.021596,0.035169,0.042850,0.499278,0.567507,-0.482807,-0.442216,96.335773,1.135180,-81.795183
17592,NaN,-0.221543,9.861124,-1.082251,-0.015375,0.025324,0.110076,-0.020579,0.039014,0.041816,0.499512,0.567422,-0.482819,-0.442048,96.325947,1.106278,-81.779369
17593,NaN,-0.187569,9.788112,-1.062580,-0.020964,-0.003385,0.034695,-0.023965,0.030948,0.041624,0.499735,0.567312,-0.482842,-0.441911,96.314064,1.078116,-81.767981
17594,NaN,-0.158381,9.801473,-1.013430,-0.065254,-0.034528,0.042035,-0.023950,0.030952,0.041618,0.499958,0.567201,-0.482867,-0.441774,96.302287,1.049841,-81.756842
17595,NaN,-0.148810,9.750867,-1.063364,-0.007884,-0.030504,-0.002932,-0.026377,0.024630,0.035721,0.500160,0.567085,-0.482884,-0.441675,96.288953,1.025442,-81.748669
17596,NaN,-0.117568,9.762969,-0.990146,-0.075455,-0.067894,0.000542,-0.017868,0.016304,0.032609,0.500310,0.566978,-0.482934,-0.441588,96.280479,1.003181,-81.745414
17597,NaN,-0.077197,9.745295,-1.092236,0.033696,-0.089421,-0.006537,-0.018882,0.015268,0.022295,0.500439,0.566893,-0.482952,-0.441531,96.271355,0.987017,-81.741725
17598,NaN,-0.065859,9.728889,-1.141795,0.086791,-0.090458,-0.017607,-0.014345,0.013700,0.016259,0.500537,0.566828,-0.482970,-0.441484,96.264842,0.974212,-81.738942
17599,NaN,-0.025432,9.687579,-1.073135,0.030371,-0.136765,-0.066825,-0.017073,0.019910,0.009802,0.500644,0.566788,-0.482946,-0.441441,96.256812,0.964874,-81.731824
17600,NaN,-0.060630,9.728069,-1.114554,0.062825,-0.095926,-0.021463,-0.014286,0.023494,0.002944,0.500736,0.566777,-0.482901,-0.441399,96.250510,0.959068,-81.722601
17601,NaN,-0.124840,9.769796,-1.103543,0.039261,-0.034624,0.019890,-0.012086,0.024688,-0.006284,0.500805,0.566799,-0.482830,-0.441371,96.245397,0.958596,-81.711756
17602,NaN,-0.137370,9.787714,-1.075252,0.008754,-0.026501,0.034830,-0.015847,0.022163,-0.005063,0.500880,0.566801,-0.482763,-0.441356,96.238198,0.957449,-81.702726
17603,NaN,-0.137077,9.823367,-1.096679,0.027428,-0.024921,0.072587,-0.016271,0.023521,-0.013005,0.500944,0.566826,-0.482666,-0.441359,96.230684,0.960880,-81.692128
17604,NaN,-0.155919,9.843717,-1.116414,0.043477,-0.004288,0.095266,-0.019643,0.017545,-0.008523,0.501010,0.566816,-0.482594,-0.441375,96.221296,0.961944,-81.685746
17605,NaN,-0.216366,9.799145,-1.134184,0.058641,0.059415,0.053896,-0.021236,0.011314,-0.009875,0.501065,0.566793,-0.482526,-0.441416,96.210817,0.964353,-81.682296
17606,NaN,-0.155739,9.759069,-1.165776,0.104791,0.005133,0.016438,-0.027072,0.009251,-0.009677,0.501130,0.566750,-0.482454,-0.441477,96.197087,0.966610,-81.680488
17607,NaN,-0.120513,9.767354,-1.019557,-0.032640,-0.050966,0.008288,-0.022626,0.010928,-0.012117,0.501183,0.566728,-0.482377,-0.441528,96.185811,0.970321,-81.677120
17608,NaN,-0.164326,9.823204,-0.984888,-0.076889,-0.014871,0.060823,-0.022529,0.007688,-0.015711,0.501219,0.566707,-0.482301,-0.441597,96.174610,0.976125,-81.675702
17609,NaN,-0.175263,9.839892,-0.931462,-0.130660,-0.012981,0.071875,-0.023184,-0.001695,-0.016112,0.501234,0.566666,-0.482244,-0.441695,96.162897,0.982891,-81.679282
17610,NaN,-0.154511,9.841404,-1.030372,-0.028397,-0.020592,0.083653,-0.020661,-0.010939,-0.020106,0.501211,0.566619,-0.482206,-0.441824,96.152508,0.992320,-81.688206
17611,NaN,-0.190649,9.796917,-1.124900,0.066109,0.028814,0.050179,-0.023023,-0.013078,-0.016649,0.501197,0.566555,-0.482176,-0.441955,96.140773,1.000088,-81.698241
17612,NaN,-0.156276,9.756792,-1.079566,0.032930,-0.011209,0.004831,-0.026650,-0.016757,-0.014347,0.501187,0.566466,-0.482156,-0.442100,96.127067,1.006622,-81.710933
17613,NaN,-0.102146,9.767530,-1.058872,0.021352,-0.069076,0.012334,-0.017637,-0.014548,-0.018137,0.501151,0.566416,-0.482138,-0.442226,96.118402,1.015323,-81.721718
17614,NaN,-0.085294,9.783079,-1.058385,0.023587,-0.087687,0.027427,-0.021909,-0.012470,-0.021267,0.501125,0.566365,-0.482097,-0.442365,96.107361,1.025548,-81.731373
17615,NaN,-0.094530,9.750244,-1.081853,0.050832,-0.076030,-0.002579,-0.020381,-0.010410,-0.029276,0.501082,0.566344,-0.482030,-0.442514,96.097174,1.040339,-81.739124
17616,NaN,-0.127926,9.788297,-1.074150,0.036740,-0.047655,0.035018,-0.022578,-0.008793,-0.031385,0.501043,0.566324,-0.481951,-0.442669,96.085817,1.056087,-81.746136
17617,NaN,-0.109673,9.802576,-1.049442,0.015698,-0.072514,0.046235,-0.017160,-0.005350,-0.039526,0.500981,0.566347,-0.481850,-0.442821,96.077537,1.076408,-81.750388
17618,NaN,-0.152719,9.844365,-1.114604,0.071471,-0.025448,0.095463,-0.020357,-0.007576,-0.040620,0.500919,0.566358,-0.481745,-0.442990,96.067433,1.097359,-81.756032
17619,NaN,-0.223129,9.814727,-1.056729,0.009985,0.033526,0.061222,-0.026013,-0.005883,-0.045995,0.500866,0.566373,-0.481607,-0.443182,96.054079,1.121397,-81.760203
17620,NaN,-0.236329,9.818723,-1.126929,0.079500,0.052616,0.072860,-0.022986,-0.009493,-0.044029,0.500799,0.566380,-0.481493,-0.443372,96.042490,1.144375,-81.766908
17621,NaN,-0.253691,9.800919,-1.074612,0.030035,0.059573,0.050006,-0.026468,-0.014329,-0.040647,0.500738,0.566362,-0.481390,-0.443575,96.028768,1.165872,-81.776226
17622,NaN,-0.219860,9.831951,-1.074818,0.034825,0.021953,0.080196,-0.027561,-0.014937,-0.036036,0.500689,0.566328,-0.481302,-0.443771,96.014483,1.184638,-81.786467
17623,NaN,-0.217611,9.829575,-1.023696,-0.012076,0.009903,0.072433,-0.026975,-0.012549,-0.033660,0.500649,0.566296,-0.481213,-0.443952,96.000477,1.202043,-81.795201
17624,NaN,-0.236741,9.813050,-0.995359,-0.038278,0.023101,0.053453,-0.027126,-0.016312,-0.028100,0.500613,0.566241,-0.481151,-0.444130,95.986472,1.216429,-81.806513
17625,NaN,-0.248385,9.817172,-1.065290,0.031259,0.042150,0.065098,-0.026805,-0.011618,-0.027893,0.500588,0.566197,-0.481076,-0.444294,95.972562,1.230488,-81.815069
17626,NaN,-0.226304,9.830224,-1.015548,-0.013091,0.011117,0.072431,-0.029348,-0.002388,-0.023879,0.500601,0.566157,-0.480987,-0.444429,95.957326,1.241571,-81.818840
17627,NaN,-0.167068,9.838509,-0.946183,-0.071300,-0.059158,0.072192,-0.021212,-0.005153,-0.025574,0.500581,0.566136,-0.480915,-0.444555,95.946694,1.253920,-81.823855
17628,NaN,-0.185507,9.821892,-0.918435,-0.097488,-0.045939,0.053208,-0.021710,0.001538,-0.025226,0.500579,0.566127,-0.480829,-0.444663,95.935923,1.265543,-81.825333
17629,NaN,-0.194664,9.789015,-0.942421,-0.070214,-0.034314,0.023203,-0.012078,-0.004068,-0.028282,0.500530,0.566137,-0.480767,-0.444772,95.930539,1.279369,-81.829573
17630,NaN,-0.204108,9.756073,-0.967042,-0.042958,-0.022682,-0.006800,-0.008767,-0.005063,-0.030794,0.500462,0.566160,-0.480710,-0.444881,95.927157,1.294600,-81.834375
17631,NaN,-0.184724,9.805863,-0.966292,-0.045052,-0.046309,0.042190,-0.005877,-0.007521,-0.029914,0.500383,0.566182,-0.480666,-0.444988,95.925281,1.309560,-81.840489
