// General information: 
//  MT Manager version: 2019.0.1 
//  XDA version: 2019.0.1 build 2740 rev 84096 built on 2019-01-30
// Device information: 
//  DeviceId: 00B4381A
//  ProductCode: MTW2-3A7G6
//  Firmware Version: 4.3.4
//  Hardware Version: 1.1.0
// Device settings: 
//  Filter Profile: human(46.1)
//  Option Flags: Orientation Smoother Disabled, AHS Disabled, ICC Disabled
// Coordinate system: ENU
PacketCounter,SampleTimeFine,Acc_X,Acc_Y,Acc_Z,FreeAcc_E,FreeAcc_N,FreeAcc_U,Gyr_X,Gyr_Y,Gyr_Z,Quat_q0,Quat_q1,Quat_q2,Quat_q3,Roll,Pitch,Yaw
39051,NaN,1.773603,6.951603,-6.619990,-0.007772,-0.009904,-0.050794,-0.020430,-0.027246,0.005295,0.259650,0.403791,-0.822290,-0.305571,133.607345,-10.383791,-123.233022
39052,NaN,1.753145,6.964796,-6.610620,-0.010797,0.013936,-0.051443,-0.009955,-0.024274,0.007026,0.259530,0.403772,-0.822313,-0.305637,133.608567,-10.370659,-123.242223
39053,NaN,1.759865,6.961463,-6.587645,-0.029799,0.011781,-0.068195,-0.009700,-0.029423,0.008601,0.259388,0.403732,-0.822351,-0.305706,133.611129,-10.356305,-123.255233
39054,NaN,1.771232,6.982637,-6.588564,-0.047776,0.010769,-0.050451,-0.007672,-0.031732,0.006690,0.259232,0.403685,-0.822399,-0.305773,133.614922,-10.341329,-123.270004
39055,NaN,1.782398,6.917025,-6.604082,-0.012030,-0.036810,-0.084657,-0.010041,-0.028184,0.007600,0.259094,0.403651,-0.822433,-0.305843,133.617116,-10.327049,-123.282087
39056,NaN,1.755756,6.962984,-6.587134,-0.033589,0.010724,-0.068206,-0.014180,-0.027476,0.011995,0.258977,0.403592,-0.822469,-0.305924,133.616845,-10.315281,-123.295821
39057,NaN,1.741816,6.943025,-6.585616,-0.018159,0.011073,-0.085951,-0.013895,-0.023607,0.005112,0.258862,0.403570,-0.822486,-0.306003,133.616301,-10.301778,-123.304973
39058,NaN,1.752317,6.935424,-6.616471,0.000100,-0.011919,-0.068547,-0.015426,-0.012720,0.009715,0.258806,0.403541,-0.822496,-0.306064,133.613808,-10.294982,-123.311475
39059,NaN,1.752168,6.936335,-6.615556,-0.001224,-0.012329,-0.068548,-0.016471,-0.009012,0.006731,0.258758,0.403531,-0.822494,-0.306122,133.610802,-10.287919,-123.315125
39060,NaN,1.745886,6.970172,-6.606874,-0.021191,0.010789,-0.051456,-0.012072,-0.006992,0.009047,0.258711,0.403528,-0.822499,-0.306154,133.610630,-10.282118,-123.318266
39061,NaN,1.760324,6.933785,-6.591377,-0.021617,-0.014936,-0.085320,-0.007978,-0.005718,0.007508,0.258661,0.403531,-0.822507,-0.306170,133.612297,-10.276680,-123.320839
39062,NaN,1.773214,6.954805,-6.592047,-0.039767,-0.016046,-0.067594,-0.004327,-0.007123,0.005555,0.258592,0.403542,-0.822522,-0.306173,133.616569,-10.270031,-123.323871
39063,NaN,1.725368,6.954426,-6.627382,0.009185,0.012143,-0.052416,-0.007883,-0.001803,0.006930,0.258556,0.403554,-0.822524,-0.306181,133.617955,-10.265899,-123.324561
39064,NaN,1.745058,6.942624,-6.635539,0.009741,-0.012682,-0.051776,-0.012021,-0.001095,0.011328,0.258543,0.403548,-0.822523,-0.306203,133.616564,-10.263775,-123.325834
39065,NaN,1.734187,6.951750,-6.603156,-0.011034,0.009502,-0.069193,-0.013071,-0.005262,0.003203,0.258499,0.403564,-0.822514,-0.306245,133.614970,-10.256730,-123.326485
39066,NaN,1.755199,6.969261,-6.580641,-0.046715,0.006430,-0.068256,-0.010346,-0.002170,0.008423,0.258473,0.403577,-0.822508,-0.306266,133.614301,-10.252618,-123.326398
39067,NaN,1.742924,6.949139,-6.578871,-0.031262,0.006798,-0.085980,-0.012715,0.001377,0.009340,0.258464,0.403577,-0.822503,-0.306285,133.612850,-10.250743,-123.326716
39068,NaN,1.735557,6.953583,-6.600865,-0.014882,0.008129,-0.069197,-0.008717,-0.001264,0.008379,0.258438,0.403583,-0.822505,-0.306295,133.613486,-10.247604,-123.327609
39069,NaN,1.787227,6.950143,-6.618893,-0.029375,-0.041745,-0.050218,-0.009065,-0.000028,0.007386,0.258413,0.403594,-0.822504,-0.306304,133.614093,-10.244363,-123.327733
39070,NaN,1.742676,6.921478,-6.607536,0.000945,-0.016168,-0.086278,-0.008672,-0.003243,0.005517,0.258367,0.403606,-0.822508,-0.306316,133.615868,-10.239071,-123.329153
39071,NaN,1.737171,6.954813,-6.599145,-0.018976,0.006973,-0.069203,-0.004964,0.009118,0.010995,0.258377,0.403622,-0.822509,-0.306285,133.618398,-10.240943,-123.326872
39072,NaN,1.725485,6.934131,-6.597826,-0.003578,0.007423,-0.086912,-0.000828,0.008411,0.006598,0.258366,0.403656,-0.822512,-0.306241,133.623601,-10.240839,-123.323764
39073,NaN,1.731647,6.958746,-6.621207,-0.004065,0.007971,-0.052409,-0.002752,0.014638,0.007931,0.258390,0.403696,-0.822502,-0.306194,133.626766,-10.243622,-123.317927
39074,NaN,1.725480,6.962714,-6.643408,0.012251,0.009473,-0.035607,-0.003395,0.023006,0.008229,0.258449,0.403733,-0.822489,-0.306129,133.629399,-10.250693,-123.310323
39075,NaN,1.764312,6.972037,-6.575262,-0.058747,0.003017,-0.068320,-0.009670,0.025239,0.004380,0.258525,0.403794,-0.822449,-0.306093,133.627550,-10.256195,-123.298590
39076,NaN,1.745320,6.955757,-6.595999,-0.025690,0.005028,-0.069217,-0.005989,0.032857,-0.006017,0.258609,0.403927,-0.822376,-0.306042,133.626282,-10.259670,-123.278039
39077,NaN,1.777722,6.935790,-6.635049,-0.005757,-0.042310,-0.051154,-0.014465,0.037448,-0.001663,0.258735,0.404026,-0.822300,-0.306009,133.620333,-10.267490,-123.258732
39078,NaN,1.722364,6.973231,-6.607519,-0.012525,0.030262,-0.053040,0.001371,0.035943,-0.007638,0.258815,0.404171,-0.822236,-0.305923,133.622945,-10.272155,-123.237242
39079,NaN,1.751706,6.957176,-6.592808,-0.029644,0.003759,-0.069228,-0.002912,0.045723,-0.005399,0.258946,0.404312,-0.822159,-0.305831,133.622722,-10.281696,-123.212945
39080,NaN,1.746481,6.961287,-6.614636,-0.013322,0.005182,-0.052415,0.000007,0.048774,-0.006481,0.259084,0.404460,-0.822084,-0.305721,133.623956,-10.292523,-123.187744
39081,NaN,1.733669,6.998135,-6.629255,-0.015676,0.030052,-0.018537,0.017547,0.053614,-0.050404,0.259137,0.404825,-0.821937,-0.305587,133.631625,-10.286520,-123.142039
39082,NaN,1.755095,6.957136,-6.591949,-0.033622,0.002613,-0.069241,0.019335,0.051723,-0.069777,0.259148,0.405270,-0.821757,-0.305473,133.639332,-10.271675,-123.089382
39083,NaN,1.750080,6.933188,-6.567562,-0.035733,0.001252,-0.103750,-0.016230,0.040877,-0.019709,0.259265,0.405446,-0.821637,-0.305464,133.630819,-10.273371,-123.061380
39084,NaN,1.753677,6.963862,-6.534748,-0.073336,0.022509,-0.103527,-0.025107,0.045548,-0.002772,0.259444,0.405557,-0.821526,-0.305461,133.617933,-10.283350,-123.037059
39085,NaN,1.777625,6.919896,-6.625656,0.000459,-0.044843,-0.068857,-0.030572,0.049228,-0.005235,0.259646,0.405668,-0.821403,-0.305475,133.601604,-10.294339,-123.011347
39086,NaN,1.737122,6.922142,-6.581279,-0.005228,0.002505,-0.104607,-0.037317,0.050765,-0.006667,0.259868,0.405774,-0.821265,-0.305516,133.580913,-10.305714,-122.984642
39087,NaN,1.721562,6.961348,-6.669536,0.047007,0.008293,-0.019599,-0.046146,0.045577,0.002257,0.260098,0.405828,-0.821137,-0.305592,133.556463,-10.318353,-122.963468
39088,NaN,1.726180,6.906415,-6.650087,0.063544,-0.016592,-0.071147,-0.035709,0.053667,-0.003864,0.260330,0.405936,-0.821002,-0.305615,133.537057,-10.331453,-122.936130
39089,NaN,1.710214,6.920523,-6.638595,0.060385,0.007330,-0.071758,-0.020135,0.043174,0.004959,0.260501,0.406009,-0.820922,-0.305585,133.527876,-10.344253,-122.917045
39090,NaN,1.730163,6.937470,-6.692196,0.079339,-0.014806,-0.019785,-0.002285,0.044105,0.013009,0.260657,0.406079,-0.820880,-0.305473,133.528710,-10.360695,-122.899885
39091,NaN,1.743422,6.962220,-6.638074,0.024165,0.004772,-0.036418,0.005106,0.042074,0.019288,0.260794,0.406124,-0.820870,-0.305323,133.535097,-10.379013,-122.887010
39092,NaN,1.724330,6.972875,-6.706545,0.075428,0.009686,0.014126,0.017120,0.036899,0.029480,0.260895,0.406134,-0.820910,-0.305116,133.550481,-10.399319,-122.880957
39093,NaN,1.751961,6.959354,-6.638831,0.021355,0.003991,-0.036411,0.016988,0.021958,0.035654,0.260951,0.406097,-0.820977,-0.304937,133.566391,-10.416496,-122.883151
39094,NaN,1.748285,6.961400,-6.662527,0.037659,0.005310,-0.019557,0.019597,0.021130,0.041460,0.261009,0.406039,-0.821059,-0.304742,133.583964,-10.435825,-122.887725
39095,NaN,1.792706,6.968869,-6.518801,-0.087813,0.017835,-0.103637,0.013569,0.002070,0.052631,0.261016,0.405898,-0.821182,-0.304595,133.600675,-10.452187,-122.905142
39096,NaN,1.804657,6.963120,-6.496784,-0.106709,0.015582,-0.120505,0.011012,0.005670,0.059818,0.261054,0.405735,-0.821306,-0.304443,133.615990,-10.472602,-122.923099
39097,NaN,1.809349,6.961126,-6.497616,-0.108023,0.015156,-0.120519,0.014650,0.001130,0.068605,0.261080,0.405528,-0.821464,-0.304272,133.634575,-10.495208,-122.947346
39098,NaN,1.802679,6.962289,-6.598486,-0.037271,-0.002516,-0.052476,0.014416,0.003165,0.077739,0.261125,0.405284,-0.821640,-0.304084,133.653986,-10.522433,-122.974802
39099,NaN,1.789535,6.971260,-6.591730,-0.040447,0.021397,-0.053092,0.042156,0.002410,0.090573,0.261133,0.405024,-0.821882,-0.303769,133.689877,-10.554630,-123.007373
39100,NaN,1.744312,6.940436,-6.608237,0.007630,0.048667,-0.072121,0.077301,0.009495,0.117639,0.261140,0.404719,-0.822217,-0.303261,133.747187,-10.600303,-123.046787
39101,NaN,1.802179,6.932128,-6.578544,-0.043815,0.019544,-0.087609,0.114288,0.016319,0.151897,0.261152,0.404322,-0.822674,-0.302541,133.827956,-10.663315,-123.098319
39102,NaN,1.769038,6.949403,-6.592720,-0.031184,0.069550,-0.071958,0.145611,0.026123,0.179767,0.261187,0.403864,-0.823219,-0.301639,133.927511,-10.741958,-123.156915
39103,NaN,1.801633,6.894251,-6.641886,0.005635,0.023074,-0.071505,0.157056,0.026397,0.207036,0.261237,0.403311,-0.823836,-0.300650,134.036355,-10.831541,-123.226794
39104,NaN,1.831520,6.900295,-6.653317,-0.012538,0.021792,-0.053872,0.164078,0.036867,0.219039,0.261333,0.402733,-0.824472,-0.299595,134.149361,-10.930052,-123.297085
39105,NaN,1.816802,6.877288,-6.654566,0.001147,0.046566,-0.072108,0.166374,0.029598,0.224806,0.261403,0.402122,-0.825132,-0.298537,134.264973,-11.027940,-123.373260
39106,NaN,1.901168,6.793305,-6.620214,-0.030315,-0.031289,-0.138561,0.122904,0.006001,0.246965,0.261497,0.401326,-0.825800,-0.297676,134.359302,-11.125450,-123.468459
39107,NaN,1.904439,6.818505,-6.642891,-0.032809,-0.006454,-0.104663,0.089966,-0.015588,0.254510,0.261577,0.400423,-0.826462,-0.296984,134.437465,-11.217135,-123.576009
39108,NaN,1.969253,6.774207,-6.696821,-0.010856,-0.078191,-0.085972,0.057652,-0.036562,0.253382,0.261638,0.399457,-0.827093,-0.296473,134.498080,-11.299722,-123.690877
39109,NaN,1.939851,6.824830,-6.676579,-0.034649,-0.006453,-0.070164,0.044702,-0.042549,0.240051,0.261675,0.398514,-0.827692,-0.296040,134.551709,-11.374435,-123.804003
39110,NaN,2.006201,6.784564,-6.651003,-0.067328,-0.059081,-0.102747,0.018702,-0.052752,0.240020,0.261719,0.397524,-0.828263,-0.295734,134.591552,-11.444734,-123.921151
39111,NaN,1.936316,6.800174,-6.726103,0.014651,-0.002879,-0.054004,0.006105,-0.045994,0.211443,0.261776,0.396642,-0.828750,-0.295504,134.621316,-11.506234,-124.024128
39112,NaN,1.925952,6.779571,-6.748951,0.047781,-0.000650,-0.054720,0.003833,-0.031265,0.183032,0.261857,0.395898,-0.829155,-0.295292,134.646187,-11.562063,-124.109154
39113,NaN,1.922077,6.756076,-6.748313,0.063355,-0.000174,-0.072325,-0.009647,-0.036047,0.168846,0.261922,0.395186,-0.829520,-0.295163,134.662791,-11.610122,-124.190576
39114,NaN,1.942357,6.801572,-6.796616,0.063336,0.001194,-0.003298,0.001614,-0.036650,0.156163,0.261945,0.394544,-0.829874,-0.295006,134.684750,-11.652578,-124.266524
39115,NaN,1.978442,6.753273,-6.736542,0.028205,-0.027968,-0.071007,0.010341,-0.023512,0.134955,0.261973,0.394017,-0.830184,-0.294814,134.709062,-11.691826,-124.328848
39116,NaN,1.937892,6.750428,-6.773992,0.077001,0.000285,-0.055396,0.018266,-0.023899,0.125220,0.261971,0.393550,-0.830480,-0.294604,134.736597,-11.726538,-124.386012
39117,NaN,1.999196,6.741742,-6.717472,0.008111,-0.030625,-0.087910,0.044256,0.001276,0.071803,0.261942,0.393366,-0.830683,-0.294305,134.773034,-11.750029,-124.412070
39118,NaN,1.994953,6.776446,-6.658489,-0.048970,0.013298,-0.105321,0.041404,0.020125,0.031927,0.261935,0.393368,-0.830782,-0.294030,134.803450,-11.765004,-124.414540
39119,NaN,2.052037,6.797357,-6.647927,-0.099705,-0.014960,-0.086450,0.017404,0.029502,0.019002,0.261998,0.393410,-0.830804,-0.293855,134.817689,-11.778405,-124.407126
39120,NaN,2.028505,6.813874,-6.661896,-0.085388,0.010778,-0.070143,-0.011389,0.024071,0.012832,0.262086,0.393429,-0.830780,-0.293818,134.815481,-11.787222,-124.399630
39121,NaN,2.020377,6.789723,-6.712985,-0.032876,-0.009519,-0.053319,-0.035874,0.016705,0.009537,0.262187,0.393422,-0.830722,-0.293903,134.799478,-11.791609,-124.393625
39122,NaN,2.013876,6.796455,-6.732648,-0.016709,-0.008014,-0.036405,-0.052128,0.002663,0.005376,0.262253,0.393380,-0.830656,-0.294085,134.775586,-11.789116,-124.393037
39123,NaN,2.008165,6.776021,-6.704874,-0.018621,-0.009292,-0.070917,-0.059756,0.000834,-0.000233,0.262320,0.393358,-0.830565,-0.294313,134.746425,-11.783120,-124.389597
39124,NaN,2.026053,6.801655,-6.624653,-0.091240,0.008389,-0.104700,-0.062578,0.006784,-0.007580,0.262408,0.393376,-0.830444,-0.294551,134.714303,-11.776354,-124.380046
39125,NaN,2.071089,6.775895,-6.614398,-0.106254,-0.042448,-0.120457,-0.064076,0.014847,-0.015965,0.262519,0.393435,-0.830296,-0.294790,134.680158,-11.769593,-124.364308
39126,NaN,2.090248,6.825097,-6.634575,-0.123826,-0.042853,-0.068381,-0.065473,0.020779,-0.033400,0.262634,0.393572,-0.830104,-0.295046,134.642967,-11.758309,-124.338846
39127,NaN,2.069774,6.843534,-6.621046,-0.127033,-0.018920,-0.068989,-0.067417,0.020015,-0.056870,0.262713,0.393803,-0.829864,-0.295342,134.603055,-11.736928,-124.304150
39128,NaN,2.076814,6.839818,-6.648192,-0.109018,-0.041848,-0.051485,-0.049148,0.006309,-0.087400,0.262650,0.394164,-0.829611,-0.295627,134.572707,-11.697444,-124.262862
39129,NaN,2.025341,6.840278,-6.735955,-0.023429,-0.034238,-0.001329,-0.025288,-0.004181,-0.126738,0.262442,0.394705,-0.829326,-0.295888,134.553226,-11.637778,-124.209602
39130,NaN,1.969919,6.874270,-6.740659,-0.011035,0.015811,0.014432,-0.005949,-0.005419,-0.161527,0.262141,0.395413,-0.829003,-0.296116,134.541980,-11.563512,-124.142538
39131,NaN,1.901011,6.824467,-6.783898,0.073403,0.021680,-0.004395,0.016424,-0.019727,-0.190256,0.261691,0.396248,-0.828674,-0.296318,134.542638,-11.471641,-124.069756
39132,NaN,1.895790,6.736307,-6.700488,0.054795,-0.007465,-0.124276,0.035939,-0.045003,-0.163422,0.261136,0.396962,-0.828459,-0.296452,134.558989,-11.380367,-124.018225
39133,NaN,1.840360,6.760784,-6.764461,0.104033,0.021817,-0.074015,0.050103,-0.079664,-0.112681,0.260486,0.397431,-0.828411,-0.296530,134.590325,-11.296095,-124.002201
39134,NaN,1.835915,6.755116,-6.746680,0.085318,0.019610,-0.090949,0.052480,-0.092210,-0.075386,0.259839,0.397731,-0.828454,-0.296578,134.626512,-11.222076,-124.006107
39135,NaN,1.836841,6.802176,-6.798775,0.085093,0.020962,-0.021914,0.027014,-0.083793,-0.058515,0.259297,0.397938,-0.828484,-0.296689,134.649289,-11.158243,-124.013941
39136,NaN,1.879835,6.826381,-6.789321,0.034269,-0.007304,-0.003157,0.005601,-0.073232,-0.092711,0.258789,0.398271,-0.828404,-0.296910,134.656760,-11.084832,-124.003984
39137,NaN,1.848147,6.760872,-6.664318,-0.005519,0.010466,-0.141182,-0.018263,-0.078008,-0.095656,0.258307,0.398582,-0.828285,-0.297246,134.650193,-11.008188,-123.994156
39138,NaN,1.878173,6.767874,-6.650636,-0.039247,-0.017036,-0.140006,-0.043566,-0.078732,-0.046724,0.257948,0.398662,-0.828221,-0.297627,134.632382,-10.951061,-124.003713
39139,NaN,1.868723,6.800164,-6.695180,-0.022557,-0.014781,-0.088539,-0.058223,-0.059696,-0.029270,0.257720,0.398673,-0.828150,-0.298006,134.606665,-10.908855,-124.013539
39140,NaN,1.833703,6.850029,-6.752647,0.009543,0.013683,-0.020684,-0.063915,-0.031787,-0.057407,0.257571,0.398830,-0.827985,-0.298384,134.574228,-10.866470,-124.001272
39141,NaN,1.837877,6.789602,-6.763631,0.045967,-0.033530,-0.054616,-0.076061,-0.027522,-0.083849,0.257430,0.399092,-0.827737,-0.298843,134.531567,-10.814924,-123.975432
39142,NaN,1.847893,6.818133,-6.682676,-0.026660,-0.015795,-0.088551,-0.086890,-0.033127,-0.092252,0.257272,0.399361,-0.827467,-0.299365,134.482999,-10.757884,-123.949294
39143,NaN,1.808227,6.817795,-6.667453,-0.012945,0.009067,-0.106675,-0.092995,-0.044961,-0.050005,0.257143,0.399435,-0.827284,-0.299885,134.434628,-10.713138,-123.944631
39144,NaN,1.808625,6.848699,-6.685977,-0.013804,0.009568,-0.072164,-0.084755,-0.040538,-0.014148,0.257068,0.399375,-0.827180,-0.300314,134.393704,-10.684872,-123.953127
39145,NaN,1.797652,6.857528,-6.704598,0.002332,0.010960,-0.055190,-0.054796,-0.030834,-0.006163,0.256987,0.399338,-0.827123,-0.300591,134.369458,-10.663734,-123.960519
39146,NaN,1.784433,6.869252,-6.670616,-0.018457,0.033188,-0.072744,-0.029849,-0.020738,-0.008699,0.256890,0.399353,-0.827090,-0.300744,134.359210,-10.645711,-123.963490
39147,NaN,1.767102,6.879029,-6.714690,0.015121,0.036367,-0.038783,-0.020965,-0.014774,-0.001268,0.256815,0.399363,-0.827072,-0.300843,134.353477,-10.633015,-123.966192
39148,NaN,1.811683,6.851471,-6.707858,0.000212,-0.014496,-0.054614,-0.033411,-0.006314,-0.009488,0.256788,0.399406,-0.827008,-0.300987,134.339284,-10.620236,-123.961692
39149,NaN,1.831593,6.870191,-6.684151,-0.035525,-0.017615,-0.054073,-0.029573,-0.012910,-0.009867,0.256725,0.399444,-0.826958,-0.301129,134.327830,-10.604763,-123.960118
39150,NaN,1.797912,6.864538,-6.672609,-0.021806,0.007296,-0.072177,-0.025208,-0.005859,-0.015399,0.256674,0.399517,-0.826896,-0.301244,134.318027,-10.590053,-123.953711
39151,NaN,1.847281,6.861064,-6.690142,-0.036225,-0.042700,-0.053512,-0.010111,-0.005081,-0.023338,0.256584,0.399646,-0.826838,-0.301307,134.316119,-10.572192,-123.943392
39152,NaN,1.791028,6.895259,-6.717978,-0.006497,0.009244,-0.020676,0.007371,-0.002880,-0.046278,0.256435,0.399887,-0.826763,-0.301322,134.322427,-10.546466,-123.923874
39153,NaN,1.814351,6.878359,-6.705166,-0.023320,-0.017273,-0.037101,0.028051,0.014148,-0.065773,0.256285,0.400270,-0.826653,-0.301243,134.337768,-10.518913,-123.888255
39154,NaN,1.755019,6.800549,-6.648299,0.006417,0.006882,-0.141734,0.022744,0.009722,-0.049704,0.256148,0.400572,-0.826574,-0.301172,134.351960,-10.496123,-123.861211
39155,NaN,1.772348,6.845141,-6.673782,-0.011431,0.006388,-0.089706,0.002983,0.011995,-0.009488,0.256124,0.400687,-0.826542,-0.301129,134.357301,-10.490782,-123.849411
39156,NaN,1.772829,6.845381,-6.673408,-0.012809,0.006025,-0.089707,-0.007204,0.013871,-0.001681,0.256137,0.400758,-0.826510,-0.301112,134.357643,-10.489356,-123.840290
39157,NaN,1.809095,6.849167,-6.736528,0.007630,-0.040396,-0.037053,-0.010512,0.030131,-0.012150,0.256210,0.400894,-0.826429,-0.301091,134.353679,-10.490189,-123.819849
39158,NaN,1.808219,6.965528,-6.767443,-0.030789,0.007604,0.065850,-0.001738,0.040367,-0.065057,0.256226,0.401281,-0.826240,-0.301080,134.350332,-10.472989,-123.773050
39159,NaN,1.758517,6.857610,-6.639096,-0.036219,0.027335,-0.107290,0.007521,0.064470,-0.153057,0.256192,0.402074,-0.825859,-0.301097,134.343710,-10.429838,-123.680919
39160,NaN,1.767481,6.736088,-6.636962,0.018861,-0.043981,-0.192612,-0.033718,0.027867,-0.020977,0.256289,0.402210,-0.825730,-0.301186,134.326230,-10.426269,-123.658221
39161,NaN,1.764882,6.882786,-6.712178,-0.001671,0.006672,-0.038188,-0.047324,0.026027,-0.009671,0.256423,0.402282,-0.825603,-0.301323,134.301690,-10.426461,-123.640503
39162,NaN,1.790676,6.840550,-6.724846,0.017936,-0.041469,-0.054555,-0.049913,0.037840,-0.021027,0.256595,0.402420,-0.825432,-0.301462,134.273689,-10.426583,-123.612652
39163,NaN,1.835609,6.987955,-6.763458,-0.052531,-0.019721,0.083887,-0.037205,0.062502,-0.065685,0.256775,0.402791,-0.825161,-0.301555,134.248075,-10.418360,-123.556942
39164,NaN,1.726551,6.861079,-6.667945,0.008979,0.029894,-0.090759,-0.010724,0.093199,-0.152176,0.256896,0.403600,-0.824717,-0.301586,134.229213,-10.386806,-123.453293
39165,NaN,1.734391,6.802100,-6.626673,0.008820,0.003502,-0.159222,-0.028488,0.054239,-0.005827,0.257114,0.403722,-0.824590,-0.301583,134.213633,-10.399822,-123.425361
39166,NaN,1.762875,6.897112,-6.773291,0.045800,-0.014266,0.013454,-0.016604,0.051078,0.013410,0.257322,0.403774,-0.824527,-0.301510,134.206965,-10.419528,-123.407062
39167,NaN,1.729294,6.864983,-6.738556,0.059128,0.009798,-0.039101,-0.002297,0.034396,0.017517,0.257441,0.403804,-0.824512,-0.301408,134.209589,-10.434197,-123.396893
39168,NaN,1.753683,6.881360,-6.715952,0.023384,0.006530,-0.038643,-0.002421,0.030482,0.018093,0.257545,0.403836,-0.824497,-0.301316,134.212197,-10.447049,-123.387359
39169,NaN,1.780530,6.869051,-6.646984,-0.030129,0.000730,-0.089744,0.001326,0.034951,0.018422,0.257660,0.403868,-0.824489,-0.301197,134.216917,-10.462313,-123.377326
39170,NaN,1.795261,6.859727,-6.678312,-0.012101,-0.022137,-0.072152,0.008825,0.023820,0.026817,0.257726,0.403853,-0.824527,-0.301058,134.227712,-10.476870,-123.376094
39171,NaN,1.798637,6.858360,-6.678808,-0.013418,-0.022544,-0.072154,0.019159,0.027883,0.021300,0.257780,0.403885,-0.824560,-0.300876,134.243396,-10.490493,-123.370187
39172,NaN,1.775286,6.873088,-6.693905,0.000645,0.003263,-0.055673,0.025714,0.031460,0.021139,0.257834,0.403925,-0.824604,-0.300658,134.263028,-10.505790,-123.363675
39173,NaN,1.778837,6.871293,-6.694805,-0.000676,0.002855,-0.055673,0.015877,0.028094,0.024212,0.257900,0.403942,-0.824638,-0.300486,134.277030,-10.520697,-123.358872
39174,NaN,1.797658,6.862089,-6.649564,-0.036639,-0.001163,-0.089766,0.007221,0.020950,0.023994,0.257959,0.403936,-0.824665,-0.300367,134.285936,-10.533014,-123.356755
39175,NaN,1.805940,6.885897,-6.673222,-0.037602,-0.000756,-0.055256,0.004067,0.026178,0.012796,0.258024,0.403982,-0.824661,-0.300262,134.292466,-10.542473,-123.348110
39176,NaN,1.808483,6.885878,-6.672552,-0.038888,-0.001231,-0.055261,-0.011029,0.021371,0.014994,0.258105,0.403997,-0.824640,-0.300227,134.290495,-10.550705,-123.341507
39177,NaN,1.818605,6.882601,-6.648350,-0.057585,-0.003444,-0.072320,-0.019708,0.016219,0.017618,0.258184,0.403977,-0.824623,-0.300234,134.284521,-10.558157,-123.338979
39178,NaN,1.832148,6.874835,-6.678330,-0.039548,-0.026368,-0.054719,-0.015264,0.016220,0.017091,0.258254,0.403965,-0.824611,-0.300223,134.281105,-10.565448,-123.336289
39179,NaN,1.796694,6.843161,-6.643737,-0.026143,-0.002271,-0.107250,-0.015598,0.017459,0.016096,0.258327,0.403958,-0.824595,-0.300212,134.277277,-10.572771,-123.332623
39180,NaN,1.796991,6.872327,-6.688893,-0.009751,0.000009,-0.055677,-0.011706,0.025843,0.015844,0.258427,0.403964,-0.824578,-0.300168,134.275239,-10.583736,-123.326171
39181,NaN,1.781095,6.885358,-6.678979,-0.013056,0.023927,-0.056229,-0.009605,0.031410,0.019055,0.258550,0.403973,-0.824558,-0.300101,134.273995,-10.597853,-123.317887
39182,NaN,1.811508,6.868753,-6.663784,-0.029731,-0.002609,-0.072746,-0.003061,0.036974,0.021743,0.258689,0.403989,-0.824547,-0.299992,134.276169,-10.615399,-123.308354
39183,NaN,1.783265,6.860578,-6.653519,-0.015988,0.022306,-0.090747,0.000559,0.037523,0.022657,0.258822,0.404006,-0.824543,-0.299866,134.280543,-10.633440,-123.298983
39184,NaN,1.825487,6.834463,-6.670536,-0.013371,-0.026669,-0.089651,0.011406,0.039165,0.025409,0.258942,0.404022,-0.824563,-0.299685,134.291732,-10.653548,-123.291009
39185,NaN,1.822032,6.837247,-6.693473,0.002675,-0.025273,-0.072580,0.011606,0.034012,0.026980,0.259046,0.404030,-0.824588,-0.299515,134.303027,-10.671960,-123.284869
39186,NaN,1.798859,6.910494,-6.723652,-0.002017,0.024651,-0.004644,0.007393,0.024876,0.023392,0.259114,0.404028,-0.824616,-0.299384,134.312561,-10.685647,-123.281923
39187,NaN,1.809858,6.848088,-6.684842,-0.001941,-0.001689,-0.073129,0.001171,0.020074,0.024528,0.259177,0.404012,-0.824638,-0.299288,134.318769,-10.697477,-123.280605
39188,NaN,1.818607,6.872086,-6.708177,-0.002946,-0.001224,-0.038613,-0.000146,0.019940,0.028395,0.259249,0.403971,-0.824671,-0.299192,134.324677,-10.711268,-123.281733
39189,NaN,1.831546,6.896565,-6.654440,-0.058020,0.018067,-0.055892,0.002805,0.022963,0.027325,0.259325,0.403950,-0.824698,-0.299079,134.331809,-10.725402,-123.280352
39190,NaN,1.835264,6.838081,-6.638423,-0.040646,-0.006495,-0.107302,0.007545,0.030796,0.025633,0.259418,0.403960,-0.824717,-0.298933,134.341243,-10.741513,-123.274478
39191,NaN,1.823579,6.845261,-6.684008,-0.007269,-0.003290,-0.073132,0.005923,0.027913,0.022826,0.259501,0.403969,-0.824733,-0.298803,134.349434,-10.755786,-123.269202
39192,NaN,1.818956,6.848377,-6.706962,0.008777,-0.001954,-0.056043,0.011223,0.023365,0.015195,0.259545,0.404016,-0.824744,-0.298673,134.360133,-10.764871,-123.261879
39193,NaN,1.816083,6.822730,-6.683716,0.007193,-0.003156,-0.090558,0.013519,0.023776,0.019981,0.259592,0.404041,-0.824771,-0.298524,134.372782,-10.776322,-123.257173
39194,NaN,1.845640,6.862237,-6.686005,-0.028226,-0.005588,-0.055715,0.020083,0.032428,0.011990,0.259650,0.404118,-0.824780,-0.298342,134.387762,-10.788175,-123.245700
39195,NaN,1.842785,6.836430,-6.662911,-0.029799,-0.006790,-0.090235,0.013686,0.030791,0.008705,0.259709,0.404199,-0.824776,-0.298193,134.399096,-10.797824,-123.233474
39196,NaN,1.837942,6.839507,-6.685964,-0.013776,-0.005387,-0.073140,0.009730,0.033485,0.009620,0.259788,0.404276,-0.824763,-0.298054,134.408024,-10.808963,-123.220468
39197,NaN,1.821766,6.851929,-6.676909,-0.017099,0.018526,-0.073681,-0.006382,0.032421,0.008796,0.259894,0.404334,-0.824727,-0.297985,134.407735,-10.819306,-123.207602
39198,NaN,1.845491,6.868885,-6.653555,-0.052880,0.015250,-0.073376,-0.012805,0.039864,0.003335,0.260033,0.404421,-0.824659,-0.297933,134.402974,-10.830085,-123.188992
39199,NaN,1.838837,6.844735,-6.705258,-0.000449,-0.004838,-0.056040,-0.018874,0.031903,0.008887,0.260162,0.404461,-0.824605,-0.297916,134.395570,-10.840256,-123.176376
39200,NaN,1.822513,6.858461,-6.694925,-0.003805,0.018993,-0.056577,-0.014919,0.036297,0.002957,0.260293,0.404547,-0.824534,-0.297882,134.389497,-10.849274,-123.158419
39201,NaN,1.843825,6.846954,-6.701621,-0.003104,-0.005746,-0.056041,-0.020971,0.031427,-0.002174,0.260407,0.404629,-0.824455,-0.297889,134.380075,-10.854720,-123.141485
39202,NaN,1.845838,6.848477,-6.699511,-0.004457,-0.006158,-0.056042,-0.024918,0.027037,0.003746,0.260520,0.404677,-0.824388,-0.297912,134.369391,-10.860717,-123.128732
39203,NaN,1.847503,6.850229,-6.697260,-0.005771,-0.006573,-0.056043,-0.026687,0.025321,-0.006316,0.260615,0.404759,-0.824299,-0.297960,134.356853,-10.862015,-123.112652
39204,NaN,1.855915,6.848091,-6.672198,-0.024395,-0.008730,-0.073163,-0.025496,0.019539,-0.012431,0.260674,0.404854,-0.824212,-0.298022,134.345208,-10.858849,-123.097283
39205,NaN,1.869558,6.870160,-6.671207,-0.042805,-0.010187,-0.055771,-0.015453,0.017727,-0.013885,0.260704,0.404971,-0.824135,-0.298049,134.339123,-10.853999,-123.081285
39206,NaN,1.875141,6.837926,-6.678094,-0.025028,-0.033878,-0.072638,-0.002098,0.013705,-0.021074,0.260678,0.405130,-0.824069,-0.298038,134.340663,-10.844527,-123.064069
39207,NaN,1.855080,6.850743,-6.669708,-0.028364,-0.009971,-0.073175,0.011432,0.004523,-0.026679,0.260579,0.405316,-0.824024,-0.297998,134.350042,-10.829146,-123.048363
39208,NaN,2.141631,7.325823,-6.864068,-0.297905,-0.070419,0.447721,-0.003686,0.026892,-0.124550,0.260460,0.405921,-0.823726,-0.298103,134.341314,-10.782582,-122.982997
39209,NaN,1.637450,6.471032,-6.486302,0.153854,0.019645,-0.506585,-0.022242,0.027203,-0.184777,0.260287,0.406747,-0.823279,-0.298361,134.317647,-10.711480,-122.893411
39210,NaN,1.839952,6.766415,-6.660870,0.005780,-0.058579,-0.141415,0.040194,-0.028744,-0.054389,0.259951,0.407037,-0.823262,-0.298305,134.344211,-10.671217,-122.880049
39211,NaN,1.982454,7.097406,-6.888755,-0.094523,-0.082744,0.274059,0.012272,-0.022358,-0.092539,0.259642,0.407454,-0.823118,-0.298402,134.351237,-10.618086,-122.848720
39212,NaN,1.585018,6.603721,-6.613558,0.181253,0.073918,-0.335228,0.016233,-0.035226,-0.077759,0.259292,0.407785,-0.823034,-0.298487,134.363133,-10.566407,-122.830181
39213,NaN,1.760341,6.831885,-6.688161,0.013219,0.015846,-0.091343,0.036220,-0.063701,-0.001358,0.258900,0.407797,-0.823165,-0.298450,134.393887,-10.534067,-122.853222
39214,NaN,1.762020,6.854417,-6.714875,0.012040,0.016258,-0.056823,0.022022,-0.059167,0.007274,0.258566,0.407755,-0.823290,-0.298450,134.417183,-10.507293,-122.878619
39215,NaN,1.779480,6.869506,-6.695178,-0.023682,0.012962,-0.056595,0.016259,-0.059304,0.011645,0.258252,0.407694,-0.823412,-0.298471,134.437105,-10.482016,-122.905102
39216,NaN,1.768599,6.871800,-6.720630,-0.007781,0.014406,-0.039450,0.028297,-0.061421,0.011129,0.257901,0.407644,-0.823556,-0.298444,134.464489,-10.455678,-122.932675
39217,NaN,1.771568,6.836305,-6.731560,0.010067,-0.009272,-0.056293,0.034822,-0.053844,0.016655,0.257580,0.407594,-0.823708,-0.298370,134.494979,-10.434618,-122.958906
39218,NaN,1.770653,6.862765,-6.704424,-0.027702,0.011747,-0.056604,0.036196,-0.060782,0.017785,0.257228,0.407531,-0.823873,-0.298303,134.526863,-10.411186,-122.988327
39219,NaN,1.718234,6.830612,-6.775108,0.057065,0.018927,-0.039865,0.045128,-0.062761,0.013895,0.256844,0.407492,-0.824047,-0.298208,134.563696,-10.385386,-123.017103
39220,NaN,1.756567,6.860347,-6.735470,-0.013136,0.012759,-0.039453,0.047320,-0.068249,0.016420,0.256434,0.407437,-0.824237,-0.298110,134.602791,-10.358272,-123.049336
39221,NaN,1.739660,6.836444,-6.738985,0.002679,0.013415,-0.056812,0.044757,-0.074494,0.015628,0.256005,0.407373,-0.824428,-0.298038,134.640378,-10.328419,-123.083645
39222,NaN,1.767974,6.841121,-6.752770,-0.013717,-0.012411,-0.038935,0.043441,-0.069535,0.011625,0.255594,0.407333,-0.824601,-0.297968,134.676409,-10.298844,-123.113895
39223,NaN,1.739613,6.826471,-6.724281,-0.017212,0.010750,-0.073976,0.033111,-0.073579,0.017123,0.255195,0.407248,-0.824776,-0.297940,134.707322,-10.269927,-123.148394
39224,NaN,1.753210,6.781974,-6.766970,0.019949,-0.035372,-0.073122,0.037807,-0.058659,0.010381,0.254836,0.407218,-0.824928,-0.297870,134.739583,-10.244318,-123.174245
39225,NaN,1.738644,6.787882,-6.739203,-0.000678,-0.013280,-0.090810,0.039176,-0.063591,0.014346,0.254461,0.407168,-0.825093,-0.297801,134.772997,-10.218262,-123.203437
39226,NaN,1.719684,6.792714,-6.788724,0.032485,-0.010090,-0.056465,0.043949,-0.059742,0.006938,0.254081,0.407167,-0.825243,-0.297713,134.808331,-10.190341,-123.227214
39227,NaN,1.723722,6.785966,-6.769706,0.013912,-0.012319,-0.073636,0.036106,-0.065437,0.008132,0.253695,0.407135,-0.825393,-0.297668,134.839636,-10.160980,-123.254583
39228,NaN,1.731054,6.774959,-6.804392,0.031795,-0.035103,-0.055940,0.025587,-0.066326,0.009230,0.253323,0.407076,-0.825539,-0.297662,134.865983,-10.131903,-123.284116
39229,NaN,1.736961,6.798707,-6.753784,-0.023235,-0.015920,-0.073475,0.017876,-0.068106,0.009841,0.252966,0.407010,-0.825669,-0.297695,134.887127,-10.102132,-123.313255
39230,NaN,1.741238,6.793774,-6.732947,-0.041881,-0.018086,-0.090662,0.008705,-0.053893,0.007145,0.252679,0.406961,-0.825765,-0.297737,134.902405,-10.077056,-123.336122
39231,NaN,1.704041,6.813975,-6.770767,-0.010769,0.009485,-0.056813,-0.006382,-0.041730,0.012306,0.252484,0.406894,-0.825831,-0.297814,134.907900,-10.058940,-123.355383
39232,NaN,1.728822,6.798034,-6.756548,-0.027355,-0.017042,-0.073488,-0.016010,-0.034199,0.003543,0.252323,0.406862,-0.825856,-0.297923,134.907217,-10.040142,-123.368114
39233,NaN,1.707945,6.812248,-6.746785,-0.030738,0.006876,-0.074006,-0.032641,-0.033988,0.008091,0.252207,0.406790,-0.825864,-0.298098,134.896797,-10.023447,-123.382452
39234,NaN,1.687538,6.827344,-6.735990,-0.034148,0.030830,-0.074523,-0.043735,-0.026501,0.009478,0.252146,0.406708,-0.825850,-0.298300,134.879810,-10.010444,-123.394618
39235,NaN,1.689923,6.825302,-6.787656,0.001070,0.009764,-0.039624,-0.042857,-0.014076,0.005275,0.252128,0.406664,-0.825812,-0.298480,134.861904,-10.000662,-123.399597
39236,NaN,1.678397,6.836749,-6.753532,-0.019494,0.031829,-0.057332,-0.039444,-0.008375,0.004594,0.252130,0.406638,-0.825768,-0.298636,134.845097,-9.992986,-123.401541
39237,NaN,1.689369,6.830515,-6.782548,-0.001515,0.008937,-0.039623,-0.036986,-0.006035,0.005944,0.252135,0.406612,-0.825729,-0.298774,134.830027,-9.986728,-123.403483
39238,NaN,1.665259,6.820880,-6.747807,-0.005016,0.032099,-0.074652,-0.029615,-0.001019,0.007162,0.252146,0.406601,-0.825696,-0.298870,134.819055,-9.982693,-123.403403
39239,NaN,1.698053,6.830519,-6.755584,-0.021438,0.006275,-0.056828,-0.027985,0.001869,0.009958,0.252171,0.406581,-0.825670,-0.298950,134.808862,-9.981259,-123.403731
39240,NaN,1.698982,6.832040,-6.753812,-0.022788,0.005872,-0.056831,-0.021772,0.006674,0.008790,0.252201,0.406582,-0.825644,-0.298995,134.801933,-9.981195,-123.401486
39241,NaN,1.686811,6.813105,-6.750970,-0.006929,0.006578,-0.074143,-0.028535,0.008255,0.007388,0.252250,0.406582,-0.825603,-0.299067,134.790786,-9.981294,-123.398125
39242,NaN,1.695816,6.810876,-6.726152,-0.025421,0.004265,-0.091356,-0.027376,0.008464,0.009776,0.252305,0.406581,-0.825563,-0.299134,134.779968,-9.982202,-123.394538
39243,NaN,1.721862,6.766889,-6.740479,-0.005387,-0.043663,-0.107652,-0.031686,0.012382,0.009729,0.252380,0.406573,-0.825516,-0.299208,134.766886,-9.984917,-123.390432
39244,NaN,1.698749,6.814592,-6.721647,-0.028028,0.003477,-0.091363,-0.029089,0.016639,0.007659,0.252467,0.406581,-0.825465,-0.299266,134.754738,-9.988669,-123.383808
39245,NaN,1.703750,6.811930,-6.773469,0.007161,-0.017577,-0.056424,-0.034692,0.018431,0.008644,0.252572,0.406583,-0.825404,-0.299341,134.739422,-9.993380,-123.376757
39246,NaN,1.726771,6.831063,-6.748502,-0.028570,-0.020950,-0.056347,-0.047394,0.023044,0.007231,0.252720,0.406584,-0.825315,-0.299462,134.716376,-9.999241,-123.366862
39247,NaN,1.723370,6.809862,-6.720928,-0.029901,-0.022069,-0.090871,-0.054757,0.020035,0.008830,0.252874,0.406562,-0.825223,-0.299617,134.689460,-10.004669,-123.359220
39248,NaN,1.706298,6.826392,-6.707748,-0.033385,0.001794,-0.091379,-0.063677,0.025134,0.002049,0.253053,0.406572,-0.825094,-0.299805,134.656789,-10.008871,-123.345892
39249,NaN,1.705753,6.859498,-6.749116,-0.017502,0.003938,-0.039635,-0.072536,0.025154,0.003098,0.253255,0.406559,-0.824957,-0.300030,134.618908,-10.014014,-123.333781
39250,NaN,1.707629,6.864508,-6.743546,-0.018887,0.003519,-0.039638,-0.076807,0.027096,0.000190,0.253467,0.406558,-0.824804,-0.300271,134.578481,-10.018485,-123.319403
39251,NaN,1.696260,6.849698,-6.736413,-0.003008,0.004241,-0.056926,-0.092066,0.027474,0.000803,0.253715,0.406533,-0.824630,-0.300575,134.529076,-10.023606,-123.305385
39252,NaN,1.698366,6.856177,-6.729288,-0.004444,0.003741,-0.056926,-0.100149,0.036027,-0.001749,0.254007,0.406533,-0.824422,-0.300897,134.474487,-10.030276,-123.285441
39253,NaN,1.676136,6.851496,-6.688887,-0.007848,0.026949,-0.091945,-0.116044,0.036912,-0.005988,0.254331,0.406520,-0.824186,-0.301288,134.410174,-10.036378,-123.264725
39254,NaN,1.699498,6.876390,-6.657552,-0.043611,0.023646,-0.091908,-0.134985,0.052939,-0.013447,0.254747,0.406531,-0.823890,-0.301733,134.333772,-10.046043,-123.235154
39255,NaN,1.707385,6.852874,-6.655160,-0.025615,0.000055,-0.108692,-0.143728,0.047047,-0.021018,0.255147,0.406559,-0.823567,-0.302237,134.251788,-10.049982,-123.204093
39256,NaN,1.653632,6.868095,-6.702625,0.039825,0.030590,-0.074727,-0.161686,0.048367,-0.020009,0.255595,0.406563,-0.823214,-0.302814,134.158895,-10.054991,-123.172413
39257,NaN,1.716359,6.899764,-6.654827,-0.028189,-0.000091,-0.074179,-0.173963,0.062074,-0.036194,0.256095,0.406637,-0.822795,-0.303431,134.057410,-10.058582,-123.128913
39258,NaN,1.703701,6.949590,-6.656166,-0.031681,0.024334,-0.040158,-0.177112,0.064700,-0.060433,0.256577,0.406829,-0.822307,-0.304088,133.951729,-10.052211,-123.072100
39259,NaN,1.680313,6.892077,-6.595417,-0.015693,0.023669,-0.126467,-0.178497,0.068581,-0.044692,0.257099,0.406941,-0.821854,-0.304721,133.846572,-10.054722,-123.022429
39260,NaN,1.707415,6.974709,-6.628886,-0.034426,0.023430,-0.040165,-0.179984,0.082301,-0.014661,0.257724,0.406959,-0.821438,-0.305292,133.741859,-10.074380,-122.978091
39261,NaN,1.691104,6.970386,-6.637518,-0.001359,0.026001,-0.040172,-0.169413,0.085210,-0.012928,0.258345,0.406977,-0.821040,-0.305812,133.642888,-10.096455,-122.934179
39262,NaN,1.739683,6.981218,-6.665872,0.001536,-0.022335,-0.004669,-0.148569,0.087019,-0.008773,0.258939,0.407004,-0.820680,-0.306239,133.555787,-10.121203,-122.891361
39263,NaN,1.731497,6.969882,-6.654506,0.017436,-0.021605,-0.021927,-0.126191,0.069534,0.002970,0.259431,0.406988,-0.820401,-0.306592,133.483816,-10.143568,-122.860363
39264,NaN,1.707991,6.965829,-6.690479,0.067650,-0.017211,-0.004649,-0.101976,0.067901,0.008696,0.259876,0.406981,-0.820170,-0.306843,133.426224,-10.167470,-122.831909
39265,NaN,1.704883,6.976200,-6.705970,0.083478,-0.015787,0.012627,-0.079447,0.041262,0.016295,0.260177,0.406928,-0.820025,-0.307045,133.384058,-10.184189,-122.818148
39266,NaN,1.712519,6.978980,-6.623744,0.028579,0.002634,-0.039661,-0.050675,0.027255,0.028052,0.260381,0.406837,-0.819969,-0.307142,133.360277,-10.200652,-122.815631
39267,NaN,1.729624,7.001261,-6.621207,0.010009,0.001053,-0.022410,-0.019185,0.021438,0.037285,0.260511,0.406745,-0.819985,-0.307110,133.355602,-10.218306,-122.818635
39268,NaN,1.742954,7.025104,-6.566121,-0.044929,0.020044,-0.040200,-0.002030,0.013523,0.042701,0.260585,0.406646,-0.820045,-0.307019,133.361241,-10.235061,-122.826404
39269,NaN,1.739225,6.968523,-6.705978,0.080361,-0.041783,0.013153,0.009128,-0.004375,0.050680,0.260572,0.406497,-0.820166,-0.306906,133.375686,-10.248138,-122.845693
39270,NaN,1.627872,6.980855,-6.771318,0.175671,0.040515,0.046347,0.024419,-0.042472,0.071972,0.260401,0.406218,-0.820406,-0.306777,133.403777,-10.255182,-122.890316
39271,NaN,1.609371,6.962247,-6.666675,0.118739,0.082517,-0.040963,0.072479,-0.083554,0.117836,0.260037,0.405754,-0.820863,-0.306478,133.465279,-10.264987,-122.969984
39272,NaN,1.600102,6.934405,-6.544000,0.044660,0.122622,-0.145569,0.145385,-0.111838,0.180702,0.259506,0.405090,-0.821591,-0.305854,133.575122,-10.289298,-123.086005
39273,NaN,1.647072,6.923537,-6.543901,0.011076,0.094877,-0.145129,0.183399,-0.131973,0.252449,0.258923,0.404142,-0.822551,-0.305022,133.713596,-10.335481,-123.240232
39274,NaN,1.692992,6.853041,-6.607853,0.050525,0.024560,-0.143618,0.188602,-0.134705,0.295921,0.258384,0.403015,-0.823608,-0.304115,133.858779,-10.398205,-123.413472
39275,NaN,1.761725,6.913674,-6.679099,0.016580,-0.001163,-0.039633,0.177929,-0.125661,0.289677,0.257894,0.401914,-0.824621,-0.303242,133.996727,-10.461508,-123.580386
39276,NaN,1.849564,6.874476,-6.698238,-0.012683,-0.077696,-0.038259,0.180037,-0.133299,0.255354,0.257319,0.400960,-0.825566,-0.302422,134.133381,-10.506628,-123.734659
39277,NaN,1.793102,6.900399,-6.709617,-0.003292,-0.003305,-0.022406,0.184735,-0.166261,0.258469,0.256598,0.399932,-0.826574,-0.301641,134.276344,-10.540100,-123.906213
39278,NaN,1.752905,6.888174,-6.630215,-0.045227,0.064900,-0.092962,0.185478,-0.213653,0.295408,0.255733,0.398680,-0.827716,-0.300901,134.426618,-10.569192,-124.112908
39279,NaN,1.734687,6.826038,-6.699581,0.024378,0.046254,-0.092321,0.183704,-0.227827,0.306257,0.254830,0.397357,-0.828890,-0.300183,134.577490,-10.596591,-124.329788
39280,NaN,1.635235,6.790996,-6.709886,0.085563,0.124193,-0.128092,0.195795,-0.232474,0.304768,0.253881,0.396051,-0.830080,-0.299425,134.735519,-10.620831,-124.547658
39281,NaN,1.535930,6.813354,-6.736351,0.127170,0.225966,-0.112584,0.213724,-0.244219,0.297561,0.252836,0.394774,-0.831295,-0.298624,134.904387,-10.636893,-124.767928
39282,NaN,1.487147,6.851415,-6.885080,0.209129,0.259983,0.008026,0.282130,-0.235907,0.276723,0.251655,0.393666,-0.832565,-0.297544,135.110841,-10.647917,-124.978212
39283,NaN,1.473857,6.857381,-7.056980,0.295343,0.245226,0.129616,0.369067,-0.230432,0.255431,0.250295,0.392776,-0.833902,-0.296119,135.364546,-10.651011,-125.175509
39284,NaN,1.039112,6.850792,-7.220073,0.611922,0.567810,0.159549,0.463668,-0.235610,0.203818,0.248648,0.392203,-0.835283,-0.294370,135.669232,-10.630623,-125.354434
39285,NaN,0.713444,6.986374,-7.508544,0.862961,0.839604,0.397439,0.592484,-0.300734,0.141913,0.246384,0.391956,-0.836799,-0.292287,136.047273,-10.557415,-125.532773
39286,NaN,0.368876,7.216200,-7.654804,0.965746,1.220101,0.598063,0.772035,-0.327556,0.049838,0.243519,0.392276,-0.838415,-0.289616,136.522402,-10.435134,-125.681778
39287,NaN,0.108918,7.598364,-7.874936,0.964341,1.594786,0.970973,0.942826,-0.383512,-0.053469,0.239929,0.393141,-0.840129,-0.286456,137.091181,-10.247834,-125.808753
39288,NaN,-0.252354,8.223990,-7.933530,0.766836,2.222348,1.372590,0.987491,-0.475636,-0.204867,0.235635,0.394550,-0.841699,-0.283461,137.680288,-9.961615,-125.905834
39289,NaN,-0.686624,9.189947,-8.217722,0.554184,3.002901,2.151076,0.816026,-0.525532,-0.411492,0.231174,0.396546,-0.842647,-0.281523,138.157676,-9.574057,-125.929718
39290,NaN,-1.180238,10.301076,-8.939530,0.551778,3.736651,3.346015,0.521574,-0.743688,-0.637332,0.226053,0.398830,-0.842962,-0.281511,138.463446,-9.007199,-125.937761
39291,NaN,-2.012229,10.904009,-9.794939,1.098543,4.342636,4.287592,-0.086344,-1.243768,-0.903901,0.219651,0.400833,-0.842415,-0.285347,138.432079,-8.124341,-126.020474
39292,NaN,-2.385566,10.613075,-10.111214,1.564428,4.140099,4.363582,-0.793094,-1.935849,-1.222611,0.211270,0.402383,-0.840889,-0.293868,138.011375,-6.823640,-126.234597
39293,NaN,-1.630999,10.185416,-10.269397,1.360920,2.896522,4.386097,-1.136319,-2.422666,-1.466796,0.201137,0.403795,-0.838726,-0.305013,137.398690,-5.225255,-126.545517
39294,NaN,-2.477068,10.204467,-9.928366,1.531450,3.299507,4.172741,-0.747966,-2.296983,-1.726567,0.190299,0.406801,-0.836307,-0.314469,136.988634,-3.580113,-126.710027
39295,NaN,-4.084623,10.954620,-8.977301,1.369731,4.900073,4.021171,-0.717988,-2.379282,-1.883931,0.178770,0.410255,-0.833504,-0.324041,136.589806,-1.841349,-126.853692
39296,NaN,-4.746039,11.597129,-10.896253,2.257770,4.527026,6.002700,-0.315990,-2.644801,-2.329096,0.164537,0.415381,-0.830443,-0.332793,136.415381,0.183030,-126.925420
39297,NaN,-5.246536,12.449414,-11.480300,2.079604,4.485314,7.211422,-0.665098,-3.470236,-2.510274,0.147238,0.419433,-0.826778,-0.344723,136.031863,2.619909,-127.259494
39298,NaN,-6.706889,13.653951,-10.517530,1.395135,5.879086,7.664734,-0.520143,-4.052723,-2.547311,0.127084,0.422523,-0.823277,-0.357125,135.700092,5.309551,-127.826964
39299,NaN,-5.841117,13.400859,-10.738110,0.761127,4.207135,7.812684,-0.935036,-4.549667,-2.822107,0.105189,0.425311,-0.818229,-0.372219,135.089250,8.307154,-128.508005
39300,NaN,-7.223655,13.839178,-9.364020,0.332850,5.292197,7.599805,-1.553597,-4.114912,-3.011389,0.085956,0.429051,-0.810801,-0.388752,134.124633,11.198125,-128.978491
39301,NaN,-6.057371,13.390599,-11.550635,0.555500,2.122542,8.748245,-1.266972,-4.263065,-3.612442,0.064278,0.434730,-0.802085,-0.404397,133.328991,14.388465,-129.318492
39302,NaN,-5.839420,12.695035,-13.007254,1.067555,-0.175954,9.243751,-1.547328,-5.512075,-3.424274,0.038516,0.436622,-0.792832,-0.423432,132.161575,17.980068,-130.343676
39303,NaN,-5.524232,11.827272,-12.817808,0.830214,-1.758421,8.373578,-1.495613,-7.244872,-3.433534,0.005707,0.434282,-0.782905,-0.445451,130.647538,22.207780,-132.270374
39304,NaN,-5.254397,13.582236,-8.311005,-2.863982,0.281181,6.701599,-1.623890,-8.634886,-3.458122,-0.032329,0.428096,-0.771150,-0.470124,128.557655,26.896364,-135.069132
39305,NaN,-4.048913,13.653617,-6.824525,-4.687735,-0.571686,5.252154,-2.679604,-7.827886,-4.075271,-0.066373,0.425420,-0.754046,-0.496010,125.820151,31.474700,-137.542043
39306,NaN,-1.770962,11.810195,-6.485286,-5.306553,-2.962974,2.337991,-3.540339,-6.415244,-4.390279,-0.093916,0.426879,-0.733111,-0.521058,122.721390,35.630758,-139.484650
39307,NaN,-2.621633,10.339121,-5.719744,-4.228231,-2.938273,1.136884,-4.017737,-5.597840,-4.695589,-0.118070,0.431048,-0.709362,-0.545035,119.376802,39.596767,-141.199574
39308,NaN,-5.000306,9.687613,-3.642177,-3.183858,-0.882355,1.193312,-3.997892,-5.567896,-4.443610,-0.141275,0.433658,-0.685014,-0.568100,115.628986,43.335816,-143.405206
39309,NaN,-5.252505,8.931287,-2.901019,-2.949476,-0.948225,0.488118,-3.494493,-6.131440,-4.934591,-0.168643,0.435229,-0.659430,-0.589311,111.516922,47.339926,-146.376105
39310,NaN,-6.592281,9.889457,1.308364,-4.442248,2.507696,0.998171,-3.978752,-5.832394,-4.763509,-0.193160,0.436726,-0.631829,-0.610534,106.615338,51.019476,-149.843936
39311,NaN,-6.030711,9.274580,0.587722,-4.307320,0.840720,0.356096,-4.633878,-5.550864,-4.531899,-0.214299,0.438188,-0.601862,-0.632320,100.715662,54.302338,-153.928495
39312,NaN,-6.933587,8.543090,-0.005764,-3.293640,-0.263760,0.678466,-5.357139,-5.163941,-4.636836,-0.232620,0.441143,-0.568663,-0.654143,93.819707,57.320670,-158.556729
39313,NaN,-5.664521,7.282282,0.360844,-3.221837,-0.734306,-1.194723,-6.063143,-4.943557,-4.821953,-0.248893,0.445276,-0.531862,-0.675947,85.664897,60.079616,-164.037345
39314,NaN,-4.430048,5.771970,0.847498,-2.897873,-0.717868,-3.126333,-6.523618,-4.707038,-4.726720,-0.262657,0.449571,-0.492867,-0.697122,76.301063,62.340448,-170.458452
39315,NaN,-4.593551,4.703325,0.763403,-2.038601,-0.993540,-3.597141,-6.394044,-4.169659,-4.616814,-0.274459,0.454363,-0.454253,-0.715458,66.471742,64.092871,-177.367883
39316,NaN,-4.732657,4.210180,-0.064602,-1.336690,-2.041506,-3.968794,-5.974624,-3.799298,-4.510421,-0.285477,0.458808,-0.417030,-0.730811,56.373760,65.327446,175.247401
39317,NaN,-4.573665,3.797743,-1.130658,-0.657195,-3.196805,-4.718519,-5.781983,-3.665175,-4.390036,-0.295731,0.462436,-0.380270,-0.744373,45.947146,65.974577,167.435901
39318,NaN,-4.005421,3.206642,-1.803406,-0.098898,-3.733117,-5.860580,-5.750953,-3.737281,-4.251603,-0.305193,0.464725,-0.343211,-0.757030,35.366118,65.939038,159.454946
39319,NaN,-3.783407,2.423468,-1.826336,0.476209,-3.523292,-6.515252,-5.811835,-3.870624,-4.050519,-0.313485,0.465503,-0.305631,-0.769171,25.149445,65.192723,151.887386
39320,NaN,-3.838251,1.537433,-1.395516,0.990958,-2.868378,-6.677797,-5.829079,-3.890742,-3.865655,-0.320550,0.465193,-0.267885,-0.780436,15.801764,63.876677,145.229660
39321,NaN,-4.073687,0.699672,-0.927171,1.470677,-2.235319,-6.529356,-5.731368,-3.822483,-3.710960,-0.326646,0.464061,-0.230573,-0.790434,7.547184,62.159491,139.647673
39322,NaN,-4.013590,-0.042193,-0.814914,1.936307,-1.805590,-6.688154,-5.525175,-3.654657,-3.584940,-0.332047,0.462422,-0.194299,-0.798848,0.385066,60.208981,135.082049
39323,NaN,-2.857538,-0.794923,-1.699001,2.614972,-1.505370,-8.206610,-5.196964,-3.358472,-3.335901,-0.336485,0.460570,-0.160147,-0.805609,-5.653479,58.195632,131.513402
39324,NaN,-1.237785,-1.724685,-3.100420,3.604667,-0.943494,-10.296582,-4.729592,-2.829761,-2.965261,-0.339711,0.459250,-0.129439,-0.810513,-10.627304,56.346049,128.816375
39325,NaN,-0.084586,-2.665088,-4.481268,4.774614,-0.307515,-11.885359,-4.261135,-2.337835,-2.449723,-0.341313,0.458403,-0.102537,-0.814161,-14.640475,54.728248,126.903604
39326,NaN,1.070273,-4.236456,-6.450022,6.744185,0.713633,-13.646009,-3.448976,-2.599610,-1.518131,-0.340903,0.454335,-0.080562,-0.819070,-17.205275,53.052923,126.168227
39327,NaN,3.568333,-6.933144,-9.472817,9.589072,2.960182,-16.870365,-1.943383,-2.744484,-0.626876,-0.340182,0.446565,-0.066499,-0.824884,-18.145494,51.441474,126.380112
39328,NaN,4.202464,-8.315851,-8.998043,9.739795,4.810849,-16.867026,-0.422353,-2.637032,0.219628,-0.339251,0.436263,-0.060761,-0.831199,-17.673891,50.037926,127.294617
39329,NaN,1.971515,-9.238576,-7.656780,10.082414,5.032324,-14.381314,1.504353,-3.009153,1.352646,-0.337839,0.420693,-0.064860,-0.839449,-15.377460,48.601255,129.178254
39330,NaN,0.314474,-9.039507,-6.372658,9.650560,4.482722,-12.839024,4.379641,-3.377278,2.511386,-0.337521,0.398085,-0.082793,-0.848972,-10.838204,47.038773,131.909568
39331,NaN,1.097665,-6.082662,-5.814264,6.858546,2.624383,-14.058941,7.755391,-3.701536,3.669847,-0.338613,0.367312,-0.116682,-0.858375,-3.942079,45.202676,135.301853
39332,NaN,1.703279,-1.898670,-5.221342,3.042448,-0.267793,-14.752411,10.127054,-4.046713,4.617463,-0.339231,0.329458,-0.161551,-0.866188,4.409099,42.871039,138.957500
39333,NaN,1.626670,1.539680,-4.785153,-0.065002,-2.855526,-14.253210,11.086472,-4.356091,5.290999,-0.337446,0.286818,-0.210533,-0.871517,13.071152,39.942624,142.435804
39334,NaN,1.665608,4.161277,-4.524184,-2.638672,-4.652172,-13.262013,11.247217,-4.803012,5.788149,-0.332710,0.240179,-0.259234,-0.874309,21.365056,36.333190,145.416359
39335,NaN,1.769028,6.241019,-4.751245,-4.671571,-6.105326,-12.150712,11.256094,-5.483817,6.202885,-0.325479,0.188876,-0.306119,-0.874460,29.091879,31.978409,147.673144
39336,NaN,1.882585,8.773257,-4.111160,-6.955406,-6.989991,-9.618452,11.356305,-6.379304,6.471251,-0.316886,0.132135,-0.350673,-0.871293,36.252187,26.904413,148.982241
39337,NaN,2.676623,12.848848,-0.655456,-10.061973,-6.049017,-3.930920,10.475524,-7.222361,6.710189,-0.306489,0.072004,-0.388389,-0.866045,42.418788,21.271720,149.358911
39338,NaN,3.848603,17.537235,3.154825,-12.351046,-4.626355,2.757184,7.481669,-7.124352,6.534942,-0.294216,0.016889,-0.411511,-0.862444,46.647188,15.740329,149.148152
39339,NaN,6.182971,17.279345,2.960397,-12.957440,-3.247610,3.107557,3.978423,-4.619307,5.859589,-0.278588,-0.020952,-0.422032,-0.862461,49.002904,11.478813,149.442903
39340,NaN,3.859578,13.784602,2.196506,-8.686925,-3.380051,1.267965,1.320537,-3.243252,5.498624,-0.261493,-0.048373,-0.422448,-0.866498,49.873140,7.880255,150.082905
39341,NaN,0.304417,10.133327,3.463473,-3.106565,-2.679527,0.082176,0.220579,-3.296824,5.139419,-0.246072,-0.073781,-0.417695,-0.871513,50.052975,4.414077,150.527464
39342,NaN,0.251401,6.619349,4.090431,-1.063223,-0.633881,-2.127634,1.025135,-3.452553,4.838751,-0.231763,-0.100164,-0.415983,-0.873619,50.657809,1.020370,150.767426
39343,NaN,1.318812,6.088124,4.559739,-1.203278,0.407651,-2.199294,2.747262,-2.956560,4.520658,-0.216739,-0.125621,-0.422147,-0.871227,52.235475,-2.057230,151.051082
39344,NaN,1.521149,9.564157,5.773837,-1.289538,-0.536204,1.373849,3.665219,-2.186114,3.926004,-0.201909,-0.147355,-0.433146,-0.865970,54.322275,-4.605620,151.386861
39345,NaN,2.315222,13.101911,5.432611,-2.263676,-2.180925,4.209149,3.411005,-1.501047,3.178650,-0.188875,-0.164139,-0.443975,-0.860390,56.250813,-6.588344,151.712963
39346,NaN,3.324069,14.473639,4.800544,-3.058058,-2.716441,5.247830,2.972209,-0.805944,2.487311,-0.177536,-0.175907,-0.453921,-0.855274,57.910966,-8.031783,152.097417
39347,NaN,2.226493,13.461429,3.530696,-2.018922,-3.390851,3.716323,3.416858,-0.230206,2.031858,-0.166378,-0.184501,-0.466500,-0.848914,59.801687,-9.091970,152.586701
39348,NaN,1.228498,13.081520,3.431706,-0.663377,-3.404565,3.315386,4.431073,-0.256290,1.772938,-0.155363,-0.193360,-0.483376,-0.839537,62.286392,-10.047733,152.949753
39349,NaN,-3.413459,15.556956,2.728659,3.450695,-6.683935,4.486362,5.652671,-0.180992,1.397474,-0.144452,-0.201802,-0.505454,-0.826393,65.484161,-10.807417,153.208377
39350,NaN,-3.101950,18.971480,3.783716,4.234820,-6.469804,8.185951,6.021679,-0.834732,0.883471,-0.136814,-0.211736,-0.528651,-0.810542,68.989893,-11.454382,152.953610
39351,NaN,5.406052,18.803494,11.804753,1.376971,4.600946,12.525883,4.009998,-0.711730,0.841097,-0.131058,-0.219533,-0.543460,-0.799550,71.339936,-12.040707,152.724365
39352,NaN,2.377154,14.274305,7.469531,2.114444,1.992053,6.210518,3.254838,2.245363,0.917037,-0.117736,-0.215132,-0.556877,-0.793565,72.915357,-12.140703,154.136885
39353,NaN,-3.023609,15.544862,6.602790,6.737008,-1.028433,5.932534,2.828172,1.809649,1.181949,-0.104993,-0.212864,-0.567853,-0.788168,74.283594,-12.492021,155.346503
39354,NaN,-1.971856,19.279270,7.904915,7.034074,-0.406613,9.895223,1.658414,0.073670,1.824025,-0.095868,-0.218598,-0.572495,-0.784394,75.168116,-13.483485,155.666569
39355,NaN,-1.373107,20.305797,10.360722,8.182224,1.439737,11.459106,-1.143137,-1.568116,2.552181,-0.091630,-0.231465,-0.564448,-0.787036,74.643979,-15.123621,155.160285
39356,NaN,2.527832,20.668797,14.022563,7.027549,5.263568,13.703933,-2.853802,-2.396105,2.387116,-0.092325,-0.246254,-0.549275,-0.793179,73.285435,-16.811490,154.176551
39357,NaN,7.322967,25.592142,22.919275,8.209985,11.596825,22.309219,-3.614247,-0.277875,1.850649,-0.090223,-0.250709,-0.532474,-0.803415,71.167942,-17.864287,154.352402
39358,NaN,0.395544,18.813232,15.333852,9.492547,4.316493,12.105507,-3.827559,1.095068,1.274048,-0.087014,-0.247909,-0.515934,-0.815342,68.707460,-18.329001,155.231252
39359,NaN,-2.459935,4.965162,8.272207,6.777197,3.254106,-3.285231,-2.886032,-0.308786,0.874891,-0.087856,-0.250132,-0.502945,-0.822655,67.052843,-18.854835,155.252630
39360,NaN,4.257057,-0.278186,5.110389,-1.051620,5.832585,-6.781397,0.601478,-2.527697,1.466078,-0.087467,-0.264438,-0.502471,-0.818502,67.763949,-20.180974,154.171692
39361,NaN,8.170669,3.801281,4.393675,-4.031498,4.972330,-2.097035,2.351794,-1.535847,1.848149,-0.080684,-0.276350,-0.508964,-0.811220,69.283076,-21.483316,153.705514
39362,NaN,4.332401,6.288210,2.762717,-1.087149,1.035561,-1.832427,2.514460,-0.812019,2.051351,-0.070988,-0.285825,-0.515980,-0.804381,70.744986,-22.741074,153.662855
39363,NaN,3.284354,8.826907,2.871780,0.575566,-0.377042,0.008981,2.299338,-1.435247,2.184166,-0.062652,-0.297995,-0.521574,-0.797016,72.236146,-24.183381,153.241242
39364,NaN,4.730523,10.082566,3.023766,0.090410,-0.133892,1.726004,1.805868,-1.689063,2.100638,-0.056029,-0.310714,-0.525095,-0.790312,73.542659,-25.612436,152.607900
39365,NaN,5.043596,9.257721,2.002338,-0.575559,-0.377545,0.895713,1.586663,-1.726530,1.991713,-0.050260,-0.323162,-0.527781,-0.783892,74.775879,-26.974677,151.889420
39366,NaN,5.224189,9.284193,1.181892,-0.844279,-0.889884,0.834882,1.706826,-1.965347,1.977963,-0.044969,-0.336453,-0.530764,-0.776574,76.183236,-28.347971,150.975667
39367,NaN,5.492461,9.531945,0.646970,-0.941160,-1.209009,1.099895,1.856395,-2.250925,1.975375,-0.040181,-0.350788,-0.534117,-0.768149,77.811183,-29.735155,149.825398
39368,NaN,5.530898,9.732857,0.265155,-0.765981,-1.458643,1.262610,1.965446,-2.489941,1.938747,-0.035968,-0.365844,-0.537728,-0.758758,79.638276,-31.097208,148.451358
39369,NaN,5.793611,9.535162,-0.184852,-0.920594,-1.471031,1.209759,2.016030,-2.706879,1.855999,-0.032546,-0.381384,-0.541452,-0.748543,81.641172,-32.392742,146.851376
39370,NaN,6.509657,9.033546,-0.338933,-1.333314,-0.891247,1.210439,2.083580,-2.757769,1.681635,-0.029775,-0.396507,-0.545551,-0.737747,83.779375,-33.542510,145.125840
39371,NaN,8.090104,8.109129,-0.809108,-2.695818,0.053362,1.348718,2.089751,-2.703045,1.549447,-0.027317,-0.410930,-0.549748,-0.726751,85.973488,-34.558847,143.356325
39372,NaN,9.009683,7.533780,-1.222376,-3.436585,0.608374,1.467005,2.156433,-2.440970,1.444317,-0.024376,-0.423979,-0.554253,-0.715857,88.164535,-35.450239,141.700123
39373,NaN,9.800841,7.510984,-1.895981,-4.020156,0.695933,1.994300,2.274890,-2.185811,1.340427,-0.020840,-0.435716,-0.559265,-0.704940,90.372964,-36.227737,140.164536
39374,NaN,10.579020,7.886240,-2.407081,-4.293646,0.768575,2.870401,2.378631,-1.902256,1.213525,-0.016727,-0.445984,-0.564789,-0.694142,92.563704,-36.888320,138.783793
39375,NaN,10.906341,8.266812,-2.886338,-4.253658,0.641349,3.495191,2.366913,-1.670280,1.059000,-0.012517,-0.454898,-0.570495,-0.683701,94.680013,-37.426797,137.534953
39376,NaN,11.121954,8.578978,-3.328085,-4.160869,0.515756,3.999645,2.399785,-1.412569,0.835987,-0.008254,-0.462194,-0.576705,-0.673587,96.718864,-37.816571,136.456487
39377,NaN,11.412343,9.146440,-3.737935,-3.965289,0.380281,4.747199,2.478363,-1.122301,0.607050,-0.003744,-0.467763,-0.583607,-0.663767,98.678933,-38.068354,135.587589
39378,NaN,11.697526,9.942940,-4.045533,-3.582075,0.264352,5.651718,2.482434,-0.826811,0.364905,0.000838,-0.471558,-0.590982,-0.654502,100.501608,-38.189238,134.948301
39379,NaN,10.541852,11.025611,-4.757532,-2.505217,-1.033206,5.934562,2.499307,-0.367891,-0.032835,0.005511,-0.472596,-0.599252,-0.646157,102.099673,-38.122660,134.688865
39380,NaN,10.713448,11.665666,-5.383473,-2.396422,-1.371453,6.686280,2.363400,-0.143379,-0.466351,0.009138,-0.471542,-0.608007,-0.638665,103.476436,-37.837648,134.661409
39381,NaN,11.754615,12.009425,-4.951592,-2.373293,-0.292583,7.542184,2.199077,0.127049,-0.791402,0.012156,-0.468575,-0.616906,-0.632231,104.603509,-37.408556,134.888607
39382,NaN,11.933434,11.778931,-4.665137,-2.387122,0.293855,7.424676,2.017592,0.864316,-1.050716,0.016207,-0.462424,-0.625703,-0.628010,105.285112,-36.948406,135.683320
39383,NaN,10.862047,11.232873,-5.135494,-2.369585,-0.436727,6.457792,1.977134,1.494865,-1.201152,0.021657,-0.453744,-0.634566,-0.625278,105.671187,-36.506835,136.941714
39384,NaN,9.668226,10.914715,-5.484078,-2.054117,-1.213951,5.581683,2.282552,1.633352,-1.375751,0.027694,-0.443949,-0.644623,-0.621774,106.166773,-35.999404,138.325233
39385,NaN,9.621724,11.328132,-4.238722,-1.141204,-0.129612,5.599933,2.598947,1.583801,-1.600659,0.033561,-0.433415,-0.655997,-0.617003,106.849947,-35.371049,139.716760
39386,NaN,9.580059,11.588756,-3.141927,-0.467988,0.931852,5.512358,2.666523,1.718233,-1.735394,0.039596,-0.421882,-0.667642,-0.612130,107.518508,-34.705957,141.223810
39387,NaN,8.630711,11.652538,-2.256604,0.501801,1.414241,4.785452,2.738083,1.819795,-1.850921,0.045748,-0.409489,-0.679501,-0.607045,108.192543,-34.009314,142.819589
39388,NaN,7.515787,11.731194,-1.650678,1.442891,1.624079,4.047554,2.659173,1.678990,-1.894303,0.051119,-0.397255,-0.691003,-0.601739,108.885462,-33.280188,144.329553
39389,NaN,6.452481,11.558224,-1.868840,1.866930,1.179139,3.372077,2.320340,1.337562,-1.758740,0.055022,-0.386480,-0.701100,-0.596711,109.537380,-32.573883,145.586697
39390,NaN,5.592502,12.081568,-0.746645,3.100699,1.986572,3.002597,1.584106,0.803694,-1.668258,0.055898,-0.377742,-0.708826,-0.593087,109.974278,-31.823986,146.480839
39391,NaN,5.125661,10.436189,-2.443605,1.697887,0.445548,1.937768,1.368562,0.717354,-1.640140,0.056129,-0.369364,-0.715788,-0.589972,110.330165,-31.076478,147.312706
39392,NaN,4.716734,10.342148,-0.104057,2.643552,2.462815,0.965155,0.392579,0.055319,-1.557170,0.052434,-0.363476,-0.719831,-0.589049,110.358924,-30.244911,147.708258
39393,NaN,5.021125,8.501855,-0.947564,0.902553,1.848005,-0.109097,-0.179898,0.205783,-1.446184,0.048557,-0.357671,-0.721907,-0.590393,110.033712,-29.501058,148.165846
39394,NaN,4.503885,6.723064,-1.243747,0.027816,1.291744,-1.728084,-0.111252,0.314497,-1.546146,0.044904,-0.351147,-0.724291,-0.591677,109.712997,-28.723117,148.704991
39395,NaN,4.576487,5.966072,-0.878428,-0.445387,1.626466,-2.432653,-0.112451,0.523191,-1.587895,0.041871,-0.343830,-0.726654,-0.593297,109.337951,-27.958921,149.371469
39396,NaN,5.197229,5.412583,-0.800682,-1.319595,1.939901,-2.640357,-0.144398,0.869134,-1.671969,0.039795,-0.335161,-0.728930,-0.595604,108.850654,-27.210540,150.256400
39397,NaN,5.610390,5.371906,-0.412550,-1.675503,2.450362,-2.623104,0.321415,1.439072,-2.068267,0.039384,-0.323216,-0.733058,-0.597166,108.455127,-26.344530,151.555861
39398,NaN,4.761364,5.275091,-0.757178,-1.336310,1.758699,-3.016415,0.921934,2.040635,-2.528834,0.040772,-0.307596,-0.739433,-0.597462,108.230051,-25.331258,153.295929
39399,NaN,3.644365,5.346888,-1.331167,-0.732643,0.798491,-3.296064,1.145224,2.249879,-2.810674,0.042415,-0.290164,-0.746634,-0.597113,108.095481,-24.195926,155.197433
39400,NaN,3.915298,5.372517,-1.408660,-1.119199,0.843468,-3.163501,0.922473,2.212240,-2.816871,0.043569,-0.272768,-0.752918,-0.597339,107.883574,-23.046474,157.057639
39401,NaN,4.884930,5.130238,-1.092655,-2.139533,1.420545,-3.121118,0.533376,2.319028,-2.762026,0.044734,-0.255251,-0.757693,-0.598955,107.471905,-21.935154,158.947660
39402,NaN,4.617433,4.630613,-1.450131,-2.381228,0.848155,-3.609977,0.357279,2.706181,-2.783861,0.047069,-0.236441,-0.761604,-0.601531,106.915997,-20.863955,161.045276
39403,NaN,3.897290,4.290062,-1.645944,-2.069658,0.296639,-4.162117,0.323085,3.020072,-2.804019,0.050471,-0.216522,-0.765061,-0.604361,106.322017,-19.812346,163.303256
39404,NaN,3.731881,4.328826,-1.342135,-1.977690,0.448221,-4.303383,0.374703,3.353299,-2.887657,0.054936,-0.195166,-0.768320,-0.607106,105.735535,-18.746950,165.743688
39405,NaN,3.791364,4.549087,-1.081553,-2.047759,0.642198,-4.188657,0.388374,3.717362,-2.932246,0.060639,-0.172423,-0.771164,-0.609835,105.141010,-17.687419,168.375344
39406,NaN,3.519402,4.700785,-1.170366,-1.890286,0.412192,-4.146355,0.279414,3.971003,-2.977925,0.067060,-0.148666,-0.773174,-0.612865,104.492076,-16.614062,171.133871
39407,NaN,3.124020,4.820202,-1.459753,-1.628102,-0.029615,-4.114403,0.051764,4.087825,-3.051732,0.073485,-0.124244,-0.774019,-0.616488,103.751442,-15.482734,173.940548
39408,NaN,2.769578,5.009930,-1.503339,-1.354612,-0.200236,-4.054893,-0.269225,4.070361,-3.085894,0.079500,-0.099785,-0.773388,-0.620962,102.889827,-14.293859,176.710052
39409,NaN,3.042163,4.968315,-1.741707,-1.739440,-0.574413,-4.014965,-0.534275,3.969038,-3.067735,0.084985,-0.075747,-0.771474,-0.625993,101.957063,-13.059496,179.383948
39410,NaN,3.683124,4.605123,-2.036423,-2.523677,-1.112184,-4.217209,-0.729794,3.943784,-3.038844,0.090347,-0.051940,-0.768449,-0.631368,100.978820,-11.796734,-177.994466
39411,NaN,4.216529,4.083645,-2.559231,-3.158382,-1.960828,-4.599298,-0.768242,4.115334,-2.989630,0.096442,-0.027759,-0.764724,-0.636495,100.025187,-10.535230,-175.314241
39412,NaN,4.385242,3.628086,-2.951727,-3.353125,-2.676057,-5.048692,-0.632448,4.363176,-2.927578,0.103648,-0.002949,-0.760773,-0.640682,99.187315,-9.293021,-172.528707
39413,NaN,4.475702,3.406211,-3.296785,-3.367314,-3.296941,-5.308434,-0.428719,4.640332,-2.848653,0.112076,0.022563,-0.756788,-0.643586,98.507713,-8.082168,-169.618540
39414,NaN,4.446784,3.427133,-3.562452,-3.187866,-3.773076,-5.362362,-0.169701,4.951028,-2.764150,0.121848,0.048873,-0.752876,-0.644935,98.015295,-6.917124,-166.558604
39415,NaN,4.380022,3.667658,-3.873849,-2.891034,-4.232703,-5.190699,0.079630,5.282680,-2.702919,0.132889,0.076141,-0.748955,-0.644677,97.709328,-5.790008,-163.330079
39416,NaN,4.273230,3.953870,-4.169583,-2.512901,-4.634995,-4.967622,0.299256,5.578426,-2.648347,0.145022,0.104223,-0.744872,-0.642863,97.575769,-4.705984,-159.947573
39417,NaN,4.056574,4.271052,-4.431171,-2.006188,-4.927265,-4.711322,0.481762,5.839229,-2.610976,0.157992,0.133044,-0.740472,-0.639561,97.600768,-3.657830,-156.425800
39418,NaN,3.956417,4.535802,-4.771420,-1.544522,-5.297425,-4.470564,0.621108,6.063970,-2.589957,0.171616,0.162461,-0.735563,-0.634903,97.760733,-2.646545,-152.780116
39419,NaN,3.865338,4.869932,-4.947835,-1.135046,-5.474107,-4.166691,0.749375,6.255008,-2.544765,0.185772,0.192258,-0.730110,-0.628860,98.054102,-1.688311,-149.028516
39420,NaN,3.898068,5.299305,-5.030007,-0.870608,-5.586756,-3.762747,0.840229,6.458806,-2.459858,0.200649,0.222227,-0.723968,-0.621470,98.455720,-0.819991,-145.164370
39421,NaN,3.698430,5.512573,-5.345226,-0.254049,-5.747829,-3.525513,0.964296,6.700981,-2.335024,0.216385,0.252359,-0.717207,-0.612459,98.983097,-0.072542,-141.167774
39422,NaN,3.265322,5.788364,-5.477152,0.433942,-5.533438,-3.228444,1.079476,6.773890,-2.150386,0.232541,0.281837,-0.710029,-0.601957,99.622316,0.520552,-137.139834
39423,NaN,2.776910,6.255479,-5.512581,1.031348,-5.100520,-2.731346,1.195689,6.717585,-1.866847,0.248874,0.309930,-0.702763,-0.590025,100.363210,0.913033,-133.164597
39424,NaN,2.303122,6.729711,-5.351193,1.403935,-4.466316,-2.242753,1.284584,6.579774,-1.491501,0.265408,0.336018,-0.695659,-0.576810,101.170568,1.052592,-129.302059
39425,NaN,1.738366,7.332125,-5.077509,1.635446,-3.620458,-1.641066,1.347930,6.336506,-1.029641,0.282004,0.359519,-0.689050,-0.562521,102.011808,0.907808,-125.627467
39426,NaN,1.061617,8.001212,-4.815703,1.819402,-2.629604,-0.974890,1.440580,5.974949,-0.486404,0.298449,0.379883,-0.683492,-0.547225,102.882481,0.446165,-122.225310
39427,NaN,0.415910,8.695539,-4.676143,1.970080,-1.665410,-0.273844,1.549609,5.527847,0.084845,0.314440,0.396914,-0.679376,-0.531070,103.779606,-0.324746,-119.155445
39428,NaN,-0.616483,9.480824,-4.476518,2.134663,-0.257516,0.467017,1.626164,4.911661,0.662143,0.329501,0.410156,-0.677069,-0.514568,104.677147,-1.380051,-116.521432
39429,NaN,-1.213819,10.444792,-4.045526,1.761817,0.934693,1.275373,1.517716,4.039772,1.174157,0.342939,0.419016,-0.676566,-0.499076,105.480631,-2.625021,-114.460867
39430,NaN,-1.492221,11.259108,-3.688976,1.315310,1.797445,1.918951,1.294215,3.141838,1.624676,0.354802,0.423536,-0.677703,-0.485233,106.141417,-4.006685,-112.980601
39431,NaN,-1.775308,12.003465,-3.223377,0.797384,2.698707,2.422324,1.012855,2.347956,2.026585,0.365420,0.424153,-0.680205,-0.473164,106.647589,-5.493468,-112.014852
39432,NaN,-1.852917,12.588448,-2.965325,0.461065,3.318282,2.815095,0.667185,1.584598,2.365488,0.374904,0.421066,-0.683840,-0.463155,106.982257,-7.048645,-111.535345
39433,NaN,-1.913483,12.937940,-3.044690,0.538684,3.772391,3.063216,0.253197,0.814944,2.676213,0.383257,0.414284,-0.688473,-0.455507,107.133633,-8.644624,-111.539091
39434,NaN,-1.848305,13.266598,-2.995647,0.537576,4.145025,3.260555,-0.225287,0.010410,2.915034,0.390311,0.403836,-0.693912,-0.450622,107.090053,-10.237425,-112.031709
39435,NaN,-1.417860,13.335282,-3.143259,0.716996,4.039018,3.335633,-0.758284,-0.696032,3.088026,0.396273,0.390072,-0.699714,-0.448568,106.836256,-11.806543,-112.946526
39436,NaN,-1.060759,13.097458,-3.146820,0.918949,3.925754,3.083045,-1.253599,-1.273932,3.214845,0.401357,0.373460,-0.705584,-0.448989,106.396337,-13.357318,-114.202999
39437,NaN,-0.684781,12.693289,-3.233093,1.255242,3.673495,2.715495,-1.679960,-1.719416,3.315954,0.405729,0.354505,-0.711317,-0.451373,105.810541,-14.902609,-115.722821
39438,NaN,-0.448491,12.155344,-3.377577,1.731664,3.429419,2.211717,-1.984781,-2.085659,3.413325,0.409384,0.333590,-0.716950,-0.455088,105.147898,-16.462583,-117.461295
39439,NaN,-0.186019,11.619834,-3.477712,2.143235,3.130900,1.708540,-2.189859,-2.397888,3.516387,0.412268,0.311006,-0.722548,-0.459604,104.471659,-18.052465,-119.391936
39440,NaN,0.035140,11.001585,-3.407391,2.398152,2.864687,1.081131,-2.299756,-2.643732,3.597970,0.414383,0.287144,-0.728090,-0.464458,103.832843,-19.674922,-121.476959
39441,NaN,0.211312,10.418295,-3.197298,2.507139,2.684136,0.449179,-2.300056,-2.805577,3.664713,0.415789,0.262482,-0.733596,-0.469105,103.289445,-21.332501,-123.671628
39442,NaN,0.278399,9.736448,-2.959973,2.597065,2.547594,-0.305192,-2.158770,-2.904008,3.701311,0.416464,0.237572,-0.739195,-0.472978,102.913971,-23.014477,-125.941066
39443,NaN,0.298994,9.246813,-2.740619,2.675967,2.513119,-0.889721,-1.884159,-2.983055,3.694092,0.416224,0.212919,-0.745117,-0.475630,102.785461,-24.691298,-128.278515
39444,NaN,0.591598,8.971883,-2.387249,2.457939,2.461532,-1.185034,-1.538942,-3.011082,3.641058,0.415126,0.188981,-0.751386,-0.476840,102.933286,-26.334575,-130.657050
39445,NaN,0.838213,8.832350,-2.040888,2.244750,2.536366,-1.362808,-1.144927,-2.949627,3.518931,0.413349,0.166355,-0.757915,-0.476481,103.361348,-27.906908,-133.022135
39446,NaN,1.156776,8.775527,-1.707853,1.975975,2.634262,-1.421275,-0.724356,-2.814510,3.343476,0.411101,0.145499,-0.764619,-0.474535,104.055323,-29.378930,-135.324792
39447,NaN,1.541689,8.925443,-1.312218,1.622448,2.877833,-1.277889,-0.287051,-2.595205,3.135109,0.408692,0.126791,-0.771419,-0.470965,104.990840,-30.738251,-137.509020
39448,NaN,1.806902,9.125588,-1.006212,1.400253,3.205981,-1.134585,0.095666,-2.285862,2.878418,0.406476,0.110539,-0.778029,-0.466078,106.088814,-31.969009,-139.503927
39449,NaN,2.009859,9.328158,-0.789297,1.264243,3.541206,-1.007377,0.443798,-1.921186,2.601617,0.404718,0.096885,-0.784328,-0.460051,107.294458,-33.073866,-141.262553
39450,NaN,2.131729,9.570335,-0.578544,1.173835,3.953144,-0.898647,0.734156,-1.539602,2.328858,0.403593,0.085747,-0.790199,-0.453152,108.549216,-34.064371,-142.762049
39451,NaN,2.322632,9.880188,-0.595675,1.196576,4.231921,-0.646344,0.990563,-1.119870,2.061978,0.403337,0.077111,-0.795549,-0.445505,109.806234,-34.962592,-143.968577
39452,NaN,2.248038,10.410091,-0.687270,1.477148,4.729475,-0.360626,1.221352,-0.722783,1.785466,0.403896,0.070921,-0.800383,-0.437293,111.038829,-35.768801,-144.880957
39453,NaN,2.105353,11.021970,-0.858936,1.858094,5.261446,-0.039540,1.335903,-0.336635,1.507962,0.405306,0.066902,-0.804503,-0.428982,112.173051,-36.494180,-145.496583
39454,NaN,1.781297,11.708931,-0.990800,2.330769,5.946004,0.210408,1.329931,-0.002794,1.235123,0.407436,0.064687,-0.807760,-0.421112,113.143526,-37.138230,-145.837018
39455,NaN,1.379823,12.387133,-1.146558,2.855862,6.634078,0.409327,1.190471,0.270510,0.975730,0.410142,0.063797,-0.810032,-0.414200,113.892999,-37.705806,-145.938376
39456,NaN,0.843634,12.892357,-1.305511,3.425084,7.246242,0.404341,0.931784,0.445622,0.750157,0.413147,0.063664,-0.811288,-0.408740,114.384877,-38.193492,-145.863237
39457,NaN,0.236564,13.320415,-1.424605,3.998314,7.831949,0.296315,0.581952,0.486192,0.566203,0.416044,0.063620,-0.811669,-0.405034,114.629401,-38.597354,-145.710772
39458,NaN,-0.287468,13.573525,-1.636039,4.558388,8.170076,0.160798,0.194209,0.424869,0.422816,0.418511,0.063246,-0.811324,-0.403238,114.646151,-38.909325,-145.553464
39459,NaN,-0.733358,13.648974,-1.822703,5.031350,8.327993,-0.041077,-0.210582,0.291098,0.302779,0.420325,0.062223,-0.810410,-0.403350,114.466288,-39.129555,-145.450235
39460,NaN,-0.970267,13.658582,-2.184915,5.509016,8.196049,-0.078880,-0.620401,0.087261,0.182221,0.421183,0.060439,-0.809042,-0.405466,114.110201,-39.234665,-145.443414
39461,NaN,-0.950592,13.659669,-2.593139,5.879749,7.864972,0.075870,-1.034734,-0.142549,0.043358,0.420959,0.057854,-0.807272,-0.409583,113.591888,-39.217480,-145.552150
39462,NaN,-0.630139,13.548594,-3.098164,6.119549,7.207614,0.393094,-1.457918,-0.358660,-0.112149,0.419634,0.054590,-0.805000,-0.415815,112.890777,-39.065776,-145.759314
39463,NaN,-0.261022,13.404800,-3.662523,6.371645,6.406193,0.747984,-1.869642,-0.510840,-0.277585,0.417449,0.050778,-0.802097,-0.424027,111.994544,-38.800153,-146.028584
39464,NaN,0.016336,13.103626,-4.226498,6.637033,5.477646,0.934649,-2.242907,-0.637860,-0.425782,0.414466,0.046541,-0.798522,-0.434067,110.910930,-38.426965,-146.346211
39465,NaN,0.257999,12.715865,-4.696860,6.821507,4.515307,0.998809,-2.560704,-0.793260,-0.534327,0.410653,0.041700,-0.794438,-0.445526,109.701291,-37.975228,-146.753314
39466,NaN,0.266376,12.402025,-5.025534,7.060146,3.748731,0.921642,-2.778042,-0.979997,-0.607933,0.405872,0.036319,-0.790060,-0.457989,108.433171,-37.449318,-147.277150
39467,NaN,0.234191,12.129783,-5.304714,7.278520,3.030067,0.824727,-2.879107,-1.209631,-0.654569,0.400023,0.030344,-0.785732,-0.470836,107.202624,-36.873309,-147.961343
39468,NaN,0.179802,11.846263,-5.571166,7.462530,2.306369,0.693572,-2.876116,-1.481606,-0.704945,0.392853,0.023968,-0.781726,-0.483733,106.073448,-36.229276,-148.827153
39469,NaN,0.212265,11.648279,-5.692850,7.480426,1.694254,0.641727,-2.812255,-1.779547,-0.768920,0.384273,0.017196,-0.778245,-0.496361,105.092964,-35.524125,-149.893734
39470,NaN,0.332061,11.434132,-5.776129,7.359226,1.069871,0.622668,-2.705813,-2.099514,-0.876423,0.374025,0.010296,-0.775384,-0.508704,104.273293,-34.718858,-151.158472
39471,NaN,0.488830,11.293023,-5.755058,7.123883,0.561074,0.666520,-2.558580,-2.399952,-1.028173,0.362130,0.003444,-0.773214,-0.520567,103.625896,-33.808750,-152.602169
39472,NaN,0.905007,11.277365,-5.748117,6.695076,0.016882,0.966951,-2.394483,-2.645964,-1.226571,0.348604,-0.002934,-0.771632,-0.532024,103.117330,-32.759305,-154.170090
39473,NaN,1.465785,11.376476,-5.715555,6.121866,-0.485021,1.435122,-2.243256,-2.836227,-1.454228,0.333649,-0.008727,-0.770518,-0.543051,102.717349,-31.576989,-155.822110
39474,NaN,2.204266,11.563523,-5.638759,5.350602,-0.952173,2.053992,-2.141215,-2.947018,-1.696992,0.317443,-0.013659,-0.769557,-0.553918,102.352906,-30.245904,-157.495523
39475,NaN,2.954098,11.749311,-5.538120,4.490619,-1.377303,2.651811,-2.109162,-2.956983,-1.937843,0.300441,-0.017688,-0.768413,-0.564768,101.956183,-28.796848,-159.131196
39476,NaN,3.601545,11.799761,-5.475397,3.617993,-1.834534,3.060180,-2.129702,-2.886985,-2.181208,0.282847,-0.020554,-0.766779,-0.575869,101.464371,-27.221762,-160.676978
39477,NaN,4.115420,11.735367,-5.357929,2.744966,-2.222652,3.258926,-2.153420,-2.759400,-2.401203,0.265023,-0.022288,-0.764591,-0.587083,100.874160,-25.558887,-162.112053
39478,NaN,4.574502,11.685707,-5.230721,1.884394,-2.563398,3.404663,-2.155975,-2.588877,-2.591897,0.247127,-0.022732,-0.761827,-0.598357,100.186279,-23.812195,-163.417280
39479,NaN,4.932952,11.579371,-5.058941,1.056550,-2.830259,3.410768,-2.125457,-2.380125,-2.744543,0.229506,-0.021976,-0.758589,-0.609415,99.429548,-22.023537,-164.586605
39480,NaN,5.232280,11.479491,-4.901667,0.277706,-3.070981,3.365008,-2.050556,-2.163061,-2.852395,0.212244,-0.020002,-0.754992,-0.620112,98.630181,-20.199629,-165.623105
39481,NaN,5.462501,11.350767,-4.727632,-0.450143,-3.259378,3.232688,-1.955226,-1.930994,-2.924107,0.195602,-0.016981,-0.751156,-0.630251,97.815442,-18.376450,-166.530749
39482,NaN,5.604845,11.309366,-4.653787,-1.038560,-3.484742,3.138417,-1.855613,-1.659830,-2.964001,0.179740,-0.012800,-0.747060,-0.639868,96.982358,-16.554889,-167.290110
39483,NaN,5.566786,11.239474,-4.565037,-1.455228,-3.647802,2.943130,-1.757677,-1.384683,-2.974529,0.164857,-0.007659,-0.742778,-0.648879,96.147747,-14.764362,-167.907876
39484,NaN,5.489454,11.148674,-4.587512,-1.795316,-3.904104,2.716831,-1.672024,-1.133468,-2.968208,0.150834,-0.001604,-0.738298,-0.657391,95.309921,-12.992832,-168.399117
39485,NaN,5.411382,11.053018,-4.592379,-2.118333,-4.133894,2.473428,-1.602849,-0.903581,-2.950665,0.137712,0.005146,-0.733659,-0.665397,94.477484,-11.257561,-168.780975
39486,NaN,5.213693,10.919131,-4.662179,-2.299260,-4.403029,2.164647,-1.570630,-0.697339,-2.929624,0.125334,0.012571,-0.728749,-0.673096,93.631742,-9.540915,-169.066508
39487,NaN,5.004132,10.619342,-4.654884,-2.480925,-4.602700,1.681887,-1.555217,-0.513606,-2.885533,0.113779,0.020414,-0.723591,-0.680480,92.777520,-7.867156,-169.272208
39488,NaN,4.703163,10.246745,-4.689915,-2.539123,-4.819215,1.115536,-1.533248,-0.375648,-2.798916,0.102946,0.028463,-0.718226,-0.687563,91.920720,-6.242503,-169.424136
39489,NaN,4.203037,9.768781,-4.687371,-2.375830,-4.945635,0.431916,-1.471961,-0.290210,-2.637236,0.092980,0.036207,-0.712892,-0.694139,91.095424,-4.721079,-169.553319
39490,NaN,3.524968,9.299159,-4.656470,-1.996589,-4.979814,-0.231982,-1.323602,-0.311178,-2.420862,0.083608,0.043208,-0.707955,-0.699959,90.352017,-3.318893,-169.716340
39491,NaN,2.784674,8.928736,-4.517422,-1.529033,-4.855035,-0.759006,-1.060955,-0.413961,-2.188202,0.074651,0.049088,-0.703922,-0.704635,89.761082,-2.058414,-169.954850
39492,NaN,2.165463,8.785211,-4.468987,-1.131489,-4.802555,-1.009727,-0.741805,-0.591250,-1.989153,0.065648,0.053793,-0.701019,-0.708074,89.349174,-0.908808,-170.304706
39493,NaN,1.638813,8.817772,-4.263031,-0.839319,-4.581173,-1.042446,-0.431134,-0.846076,-1.837519,0.056232,0.057123,-0.699272,-0.710347,89.111274,0.143880,-170.805979
39494,NaN,1.476556,8.934159,-4.024070,-0.914175,-4.364183,-0.963546,-0.192727,-1.118605,-1.738365,0.046108,0.059235,-0.698390,-0.711770,88.997973,1.141452,-171.465563
39495,NaN,1.589051,9.108844,-3.784825,-1.265041,-4.169025,-0.821780,-0.063718,-1.334467,-1.670251,0.035463,0.060328,-0.697970,-0.712700,88.945123,2.091030,-172.249945
39496,NaN,2.001624,9.034706,-3.585993,-1.900341,-4.030645,-0.945279,-0.031264,-1.488326,-1.601646,0.024478,0.060666,-0.697621,-0.713474,88.893282,3.004449,-173.123065
39497,NaN,2.633183,8.698330,-3.609271,-2.699537,-4.110670,-1.360867,-0.046453,-1.511245,-1.487774,0.013855,0.060481,-0.697183,-0.714203,88.819468,3.845898,-174.009806
39498,NaN,3.065770,7.991709,-3.724043,-3.244594,-4.228511,-2.149479,-0.035356,-1.419272,-1.331255,0.004075,0.060106,-0.696745,-0.714784,88.742988,4.602758,-174.843694
39499,NaN,3.302058,7.134155,-3.815551,-3.548629,-4.280335,-3.071583,0.135723,-1.308606,-1.079668,-0.004441,0.059216,-0.696940,-0.714667,88.760812,5.211342,-175.612036
39500,NaN,3.654716,6.230003,-3.855743,-3.927066,-4.266292,-4.032336,0.469741,-1.170627,-0.699255,-0.011243,0.057512,-0.698396,-0.713309,88.971046,5.609684,-176.295999
39501,NaN,3.487873,5.459614,-3.773159,-3.770478,-4.077385,-4.776141,0.972341,-1.082710,-0.229137,-0.016178,0.054419,-0.701750,-0.710158,89.471897,5.738998,-176.923549
39502,NaN,3.203380,4.975802,-3.931077,-3.481371,-4.112536,-5.182447,1.646193,-1.007124,0.312107,-0.019132,0.049662,-0.707597,-0.704609,90.363763,5.569885,-177.505426
39503,NaN,2.336691,4.940549,-4.068999,-2.638667,-4.084163,-5.039834,2.392511,-1.042115,0.813552,-0.020602,0.042903,-0.716094,-0.696380,91.683531,5.121043,-178.115583
39504,NaN,1.232938,5.572467,-4.007650,-1.610579,-3.798522,-4.190738,3.137038,-1.384850,1.235966,-0.022005,0.033374,-0.727054,-0.685416,93.418160,4.459126,-178.944593
39505,NaN,0.873380,6.910720,-3.750082,-1.351418,-3.217389,-2.713531,3.649444,-1.923745,1.561725,-0.024305,0.020721,-0.739464,-0.672438,95.432020,3.658710,179.882755
39506,NaN,0.752129,7.999056,-3.577226,-1.259591,-2.633922,-1.517368,3.786380,-2.410327,1.793094,-0.027650,0.005570,-0.751907,-0.658666,97.524244,2.803862,178.390851
39507,NaN,0.500683,8.717802,-3.271560,-0.962499,-1.897839,-0.734465,3.736755,-3.012518,1.931141,-0.032762,-0.012100,-0.763629,-0.644710,99.593135,1.973343,176.516535
39508,NaN,0.827568,9.522525,-2.648164,-1.167427,-0.764418,0.006475,3.553846,-3.528167,1.938674,-0.039830,-0.031404,-0.774151,-0.630965,101.574488,1.262859,174.323594
39509,NaN,1.272946,10.151259,-1.978315,-1.405927,0.432329,0.502599,3.225783,-3.859168,1.858623,-0.048432,-0.051373,-0.783021,-0.617976,103.387686,0.707770,171.933466
39510,NaN,1.977304,10.598739,-1.396724,-1.841445,1.557262,0.787526,2.748755,-4.047697,1.751400,-0.058215,-0.071337,-0.789857,-0.606340,104.947217,0.312487,169.438551
39511,NaN,2.744312,10.748787,-0.787511,-2.282405,2.647184,0.744732,2.162671,-4.028312,1.607616,-0.068507,-0.090475,-0.794468,-0.596608,106.184468,0.051378,166.967531
39512,NaN,3.252878,10.594704,-0.223140,-2.455637,3.530698,0.403654,1.591740,-3.857890,1.440247,-0.078864,-0.108182,-0.797086,-0.588838,107.103607,-0.096334,164.613029
39513,NaN,3.689438,10.231305,0.019186,-2.640959,3.992798,-0.047017,1.067692,-3.593236,1.278563,-0.088870,-0.124226,-0.797999,-0.582981,107.726328,-0.172260,162.429118
39514,NaN,4.166189,10.233444,0.904435,-2.644949,5.112748,-0.338643,0.604904,-3.203651,1.124090,-0.098047,-0.138258,-0.797557,-0.578943,108.084951,-0.211444,160.484245
39515,NaN,4.359725,10.214753,1.349676,-2.500197,5.685220,-0.507094,0.166856,-2.683980,0.995387,-0.105785,-0.150035,-0.795989,-0.576802,108.193198,-0.267764,158.845117
39516,NaN,4.101464,10.038403,1.513261,-2.067145,5.741628,-0.722007,-0.230238,-2.180302,0.848583,-0.112235,-0.159530,-0.793513,-0.576447,108.073090,-0.332323,157.506457
39517,NaN,3.710483,9.827502,1.361958,-1.671042,5.405036,-0.857534,-0.527534,-1.743041,0.710042,-0.117561,-0.167039,-0.790446,-0.577471,107.783533,-0.405074,156.430807
39518,NaN,3.565023,9.726422,1.286863,-1.499044,5.223552,-0.900034,-0.777540,-1.409306,0.629064,-0.122010,-0.173096,-0.786847,-0.579675,107.349091,-0.496876,155.552005
39519,NaN,3.603740,9.637604,1.131054,-1.551723,5.024356,-0.896585,-0.989882,-1.111294,0.587922,-0.125571,-0.177993,-0.782803,-0.582897,106.794638,-0.625071,154.844109
39520,NaN,3.702142,9.597514,0.861866,-1.721197,4.744036,-0.807600,-1.175851,-0.811428,0.547252,-0.128242,-0.181724,-0.778384,-0.587068,106.131086,-0.786445,154.309086
39521,NaN,3.963628,9.351145,0.328273,-2.196929,4.237709,-0.841835,-1.315972,-0.466580,0.497987,-0.129828,-0.184157,-0.773786,-0.592019,105.388044,-0.981552,153.973809
39522,NaN,4.228598,9.059988,-0.419931,-2.793713,3.524604,-0.873352,-1.394487,-0.095222,0.427137,-0.130257,-0.185151,-0.769207,-0.597556,104.594411,-1.196831,153.857375
39523,NaN,4.216024,8.649605,-1.083141,-3.136258,2.730410,-1.067916,-1.382635,0.198184,0.339326,-0.129798,-0.184934,-0.764909,-0.603213,103.806600,-1.406294,153.919127
39524,NaN,4.284363,8.255075,-1.598883,-3.492517,2.104926,-1.302182,-1.300599,0.408520,0.266860,-0.128671,-0.183847,-0.761010,-0.608694,103.059316,-1.602955,154.110774
39525,NaN,4.103924,8.015815,-1.795319,-3.469277,1.685773,-1.479644,-1.215365,0.589528,0.243563,-0.126842,-0.182169,-0.757487,-0.613953,102.359877,-1.806550,154.408871
39526,NaN,3.835902,7.743123,-1.969441,-3.356524,1.247733,-1.705622,-1.113973,0.754516,0.211601,-0.124384,-0.179920,-0.754358,-0.618951,101.711312,-2.009388,154.805908
39527,NaN,3.400657,7.477345,-2.031378,-3.038464,0.851218,-1.961328,-0.991962,0.849703,0.180129,-0.121553,-0.177325,-0.751678,-0.623507,101.131990,-2.200129,155.261995
39528,NaN,3.315349,7.284691,-2.151540,-3.045376,0.576372,-2.126330,-0.862730,0.852077,0.162173,-0.118643,-0.174730,-0.749371,-0.627564,100.622216,-2.378075,155.723435
39529,NaN,3.550425,7.113132,-2.323513,-3.356506,0.399728,-2.251321,-0.768491,0.866164,0.147121,-0.115647,-0.172081,-0.747371,-0.631229,100.167407,-2.543718,156.195685
39530,NaN,3.853141,6.909638,-2.668956,-3.794687,0.089168,-2.375967,-0.684999,0.950733,0.163033,-0.112201,-0.169272,-0.745628,-0.634663,99.754108,-2.724933,156.715666
39531,NaN,3.979331,6.647135,-2.825524,-3.995444,-0.130352,-2.600075,-0.581904,1.065873,0.205251,-0.108109,-0.166302,-0.744231,-0.637790,99.397737,-2.935694,157.297800
39532,NaN,4.046800,6.411942,-3.175207,-4.198107,-0.544740,-2.766415,-0.408160,1.195608,0.271637,-0.103161,-0.163260,-0.743358,-0.640409,99.132338,-3.195057,157.948760
39533,NaN,4.467887,6.189841,-3.648678,-4.750972,-0.937788,-2.874605,-0.156013,1.321618,0.383445,-0.097189,-0.160345,-0.743249,-0.642203,99.006940,-3.524594,158.661854
39534,NaN,4.883392,6.166416,-4.102253,-5.243060,-1.294638,-2.774661,0.164574,1.447152,0.528812,-0.090006,-0.157726,-0.744058,-0.642961,99.054486,-3.949950,159.433776
39535,NaN,5.461746,6.438989,-4.517650,-5.807102,-1.523914,-2.352525,0.583211,1.580671,0.681190,-0.081515,-0.155410,-0.746116,-0.642272,99.333283,-4.473152,160.266437
39536,NaN,6.154099,6.857506,-5.150744,-6.485388,-1.902843,-1.704392,1.006272,1.759355,0.883034,-0.071352,-0.153446,-0.749358,-0.640176,99.837431,-5.136482,161.178364
39537,NaN,6.502948,7.309908,-5.783234,-6.774437,-2.393314,-1.006842,1.324838,1.962998,1.095579,-0.059512,-0.151701,-0.753435,-0.637010,100.505782,-5.946166,162.178073
39538,NaN,6.781661,7.540036,-6.487042,-6.978722,-3.005003,-0.475441,1.580322,2.116939,1.358807,-0.046021,-0.150525,-0.758011,-0.632964,101.297989,-6.937402,163.227607
39539,NaN,6.791134,7.625992,-7.090907,-6.850291,-3.617092,-0.089783,1.794350,2.186169,1.674163,-0.031124,-0.150316,-0.762870,-0.628065,102.195732,-8.124729,164.266656
39540,NaN,6.250199,7.772805,-7.385125,-6.041756,-4.050611,0.242003,1.966575,2.150463,2.018483,-0.015111,-0.151540,-0.767773,-0.622360,103.180597,-9.521746,165.225270
39541,NaN,5.543209,8.047158,-7.452916,-4.944350,-4.237101,0.609093,2.118702,1.995358,2.351231,0.001430,-0.154460,-0.772641,-0.615765,104.256629,-11.094730,166.028647
39542,NaN,4.870332,8.220419,-7.524210,-3.863731,-4.380453,0.853815,2.192617,1.727494,2.658652,0.017977,-0.159365,-0.777214,-0.608456,105.398790,-12.819287,166.607583
39543,NaN,3.955976,8.429816,-7.267844,-2.477772,-4.208435,0.942112,2.176796,1.312605,2.875217,0.033513,-0.166287,-0.781324,-0.600631,106.586339,-14.603193,166.884099
39544,NaN,3.527096,8.575144,-6.779322,-1.552268,-3.686371,0.953869,2.074679,0.842783,2.998040,0.047527,-0.175088,-0.784819,-0.592575,107.794539,-16.385883,166.835455
39545,NaN,3.662175,8.648940,-6.129808,-1.188419,-2.893696,0.957239,1.909506,0.490978,3.005113,0.059980,-0.184908,-0.787643,-0.584662,108.980247,-18.101595,166.546140
39546,NaN,4.115095,8.485623,-5.684229,-1.255896,-2.287823,0.884388,1.723730,0.361661,2.926900,0.071547,-0.194828,-0.789789,-0.577197,110.100424,-19.750341,166.159142
39547,NaN,4.440525,8.286777,-5.333363,-1.258885,-1.825010,0.765992,1.556648,0.412760,2.760227,0.082611,-0.203918,-0.791386,-0.570351,111.123710,-21.306941,165.801150
39548,NaN,4.903325,8.148349,-5.305356,-1.415992,-1.637861,0.859176,1.441932,0.621891,2.521066,0.093726,-0.211496,-0.792621,-0.564124,112.038385,-22.780318,165.584934
39549,NaN,5.042294,7.917406,-5.442603,-1.355445,-1.731094,0.812312,1.308173,0.972183,2.228581,0.105202,-0.216914,-0.793466,-0.558831,112.781354,-24.166221,165.616010
39550,NaN,4.759421,7.596670,-5.658375,-0.990449,-2.051353,0.540264,1.154155,1.321095,1.893622,0.116984,-0.220104,-0.793914,-0.554589,113.324836,-25.460200,165.914722
39551,NaN,4.244422,7.323939,-5.872979,-0.428571,-2.431064,0.189733,1.066157,1.583466,1.545922,0.128684,-0.221169,-0.794226,-0.551116,113.707441,-26.627506,166.447800
39552,NaN,3.506029,7.339092,-5.935509,0.447058,-2.634778,-0.105009,1.022865,1.768591,1.145336,0.139993,-0.220163,-0.794625,-0.548180,113.962443,-27.636574,167.190667
39553,NaN,3.525789,7.402388,-6.276208,0.657794,-2.928173,0.066956,0.937399,1.868457,0.746969,0.150451,-0.217299,-0.795058,-0.545920,114.076902,-28.456397,168.101824
39554,NaN,4.369729,7.131513,-7.160786,-0.015982,-3.703022,0.556222,0.761532,1.960274,0.428196,0.160236,-0.213057,-0.795191,-0.544613,114.012636,-29.137274,169.157351
39555,NaN,5.086304,6.593445,-8.149727,-0.696980,-4.732129,0.811798,0.648255,2.150754,0.149398,0.169838,-0.207219,-0.795066,-0.544137,113.773655,-29.707797,170.411662
39556,NaN,5.476516,5.899879,-8.827424,-1.153670,-5.608772,0.672086,0.780999,2.343771,-0.021712,0.179897,-0.200069,-0.795204,-0.543379,113.517639,-30.234236,171.836243
39557,NaN,5.472234,5.310799,-9.291593,-1.188400,-6.308882,0.349192,1.098448,2.434975,-0.014526,0.190585,-0.192347,-0.795984,-0.541378,113.396530,-30.775099,173.326069
39558,NaN,5.138734,4.908546,-9.733817,-0.795760,-6.923083,0.019816,1.637246,2.379515,0.133541,0.201975,-0.184851,-0.797980,-0.536903,113.608943,-31.388399,174.748553
39559,NaN,4.579098,5.010288,-9.804417,0.042436,-6.953203,-0.125591,2.277815,2.126459,0.348585,0.213437,-0.178165,-0.801568,-0.529330,114.281293,-32.058557,175.962937
39560,NaN,4.155877,5.633279,-9.575914,0.992671,-6.394606,0.127917,2.868104,1.768672,0.528063,0.224450,-0.172508,-0.806730,-0.518701,115.432216,-32.758582,176.899179
39561,NaN,4.225740,6.337871,-9.387144,1.556883,-5.710035,0.727803,3.250672,1.459650,0.658523,0.234775,-0.167656,-0.812862,-0.505993,116.919123,-33.459237,177.597422
39562,NaN,4.422405,6.937593,-9.233585,1.948095,-5.015100,1.322191,3.412534,1.201402,0.751873,0.244381,-0.163630,-0.819362,-0.492086,118.612265,-34.160476,178.086425
39563,NaN,4.753145,7.293838,-8.831621,2.018082,-4.160621,1.693476,3.395483,1.044900,0.821655,0.253384,-0.160200,-0.825670,-0.477915,120.363773,-34.858133,178.439036
39564,NaN,4.736590,7.304784,-8.334661,2.145858,-3.392522,1.551038,3.319645,1.049456,0.901888,0.262489,-0.157173,-0.831463,-0.463752,122.103887,-35.610907,178.737787
39565,NaN,4.422353,7.079582,-8.039440,2.429205,-2.941062,1.130197,3.284433,1.078116,0.965454,0.271712,-0.154300,-0.836808,-0.449573,123.832520,-36.404393,179.008279
39566,NaN,4.129683,7.192087,-7.758534,2.848706,-2.321387,0.932471,3.353404,1.025659,1.017991,0.280831,-0.151659,-0.842074,-0.434794,125.653588,-37.217447,179.193544
39567,NaN,4.031886,7.507167,-7.397925,3.158329,-1.509439,0.914706,3.337846,0.978469,1.038033,0.289658,-0.149137,-0.847066,-0.419924,127.496450,-38.022500,179.317061
39568,NaN,4.306660,7.794455,-7.315345,3.237420,-0.925431,1.208448,3.254979,0.946277,1.056244,0.298260,-0.146869,-0.851653,-0.405165,129.335156,-38.832058,179.376712
39569,NaN,4.474414,7.961836,-7.173042,3.306279,-0.375009,1.312977,3.047038,0.945900,1.072036,0.306622,-0.144898,-0.855541,-0.391200,131.070563,-39.644528,179.402370
39570,NaN,4.224495,7.804812,-7.140713,3.571702,-0.140668,1.002330,2.851046,0.925637,1.063441,0.314681,-0.143226,-0.858863,-0.377912,132.726592,-40.450307,179.384114
39571,NaN,3.995098,7.474905,-7.042273,3.691738,0.001618,0.569562,2.734773,0.821145,1.050310,0.322082,-0.141808,-0.861920,-0.365031,134.360429,-41.204297,179.290627
39572,NaN,3.964013,7.188845,-7.035034,3.707101,0.094528,0.342352,2.735956,0.674456,1.051565,0.328801,-0.140662,-0.865026,-0.351902,136.077836,-41.900575,179.080792
39573,NaN,4.147072,7.229169,-7.000165,3.690716,0.440157,0.416574,2.788501,0.540788,1.045560,0.334872,-0.139573,-0.868240,-0.338435,137.884025,-42.529673,178.779132
39574,NaN,4.304258,7.482376,-7.004410,3.798442,0.924274,0.593241,2.783918,0.478648,0.976616,0.340494,-0.138297,-0.871411,-0.324931,139.713458,-43.101666,178.449745
39575,NaN,4.302966,7.544024,-6.955448,3.887292,1.298477,0.531450,2.704515,0.409301,0.849296,0.345463,-0.136654,-0.874462,-0.311924,141.479841,-43.585833,178.142313
39576,NaN,4.293952,7.610682,-6.724380,3.866072,1.782487,0.358205,2.631243,0.323475,0.714135,0.349740,-0.134681,-0.877475,-0.299299,143.200400,-43.979094,177.849370
39577,NaN,4.245965,7.645065,-6.358153,3.757979,2.302024,0.060190,2.541722,0.291025,0.551859,0.353496,-0.132149,-0.880353,-0.287326,144.811844,-44.294128,177.634893
39578,NaN,4.202635,7.688628,-6.145925,3.709644,2.708627,-0.145914,2.413328,0.322306,0.376741,0.357004,-0.129031,-0.882971,-0.276154,146.276843,-44.564582,177.531590
39579,NaN,4.129355,7.550759,-5.980762,3.611518,2.911181,-0.415185,2.295218,0.327731,0.174791,0.360121,-0.125182,-0.885411,-0.265875,147.575218,-44.771093,177.563558
39580,NaN,4.211235,7.471851,-5.867478,3.439292,3.114556,-0.514422,2.232275,0.288585,-0.017193,0.362727,-0.120653,-0.887849,-0.256118,148.768379,-44.902007,177.698835
39581,NaN,4.213047,7.538800,-5.626693,3.288421,3.487712,-0.687882,2.185485,0.287092,-0.209984,0.365002,-0.115318,-0.890226,-0.246928,149.834928,-44.976716,177.969839
39582,NaN,4.142017,7.539692,-5.427442,3.165067,3.764032,-0.909206,2.170836,0.269412,-0.408429,0.366900,-0.109152,-0.892628,-0.238087,150.807233,-44.990217,178.366773
39583,NaN,4.470909,7.590698,-5.311971,2.806355,4.032491,-0.774686,2.153712,0.244381,-0.593676,0.368410,-0.102190,-0.895036,-0.229655,151.677290,-44.944161,178.889930
39584,NaN,4.733391,7.645649,-5.211592,2.485233,4.279046,-0.673076,2.142880,0.280341,-0.793143,0.369795,-0.094314,-0.897358,-0.221597,152.436811,-44.868069,179.565426
39585,NaN,4.836168,7.722689,-5.056619,2.235121,4.550394,-0.708093,2.130491,0.373818,-0.947261,0.371376,-0.085639,-0.899435,-0.213924,153.081318,-44.805031,-179.609195
39586,NaN,4.856573,7.843679,-4.886679,2.036000,4.849256,-0.794566,2.064974,0.454339,-1.059114,0.373113,-0.076495,-0.901220,-0.206732,153.615981,-44.760229,-178.677171
39587,NaN,4.867345,7.890314,-4.795058,1.864303,5.028208,-0.858341,1.956586,0.501272,-1.109759,0.374922,-0.067255,-0.902693,-0.200138,154.046859,-44.732637,-177.688562
39588,NaN,4.729695,7.911563,-4.777540,1.838737,5.144495,-0.984365,1.856887,0.519059,-1.097181,0.376735,-0.058239,-0.903919,-0.193932,154.426290,-44.721755,-176.705328
39589,NaN,4.641890,7.946793,-4.777552,1.794367,5.260703,-1.058988,1.798599,0.462839,-1.032033,0.378302,-0.049669,-0.905061,-0.187846,154.816339,-44.703037,-175.786756
39590,NaN,4.751461,8.125839,-4.837513,1.682127,5.477709,-0.914900,1.726604,0.342533,-0.917002,0.379366,-0.041865,-0.906242,-0.181807,155.255691,-44.653470,-174.994961
39591,NaN,4.680739,8.447390,-4.701761,1.591647,5.908797,-0.985155,1.609014,0.203599,-0.791926,0.379863,-0.034971,-0.907466,-0.176029,155.723481,-44.566570,-174.340102
39592,NaN,4.974197,8.621600,-4.502804,1.162297,6.193404,-0.888620,1.471027,0.010053,-0.673128,0.379524,-0.029045,-0.908853,-0.170601,156.219527,-44.408752,-173.836490
39593,NaN,5.337515,8.794011,-4.149378,0.575772,6.510493,-0.850464,1.306137,-0.153796,-0.512620,0.378541,-0.024300,-0.910328,-0.165587,156.740210,-44.206028,-173.502259
39594,NaN,5.642813,8.834118,-3.829027,0.038728,6.682143,-0.874524,1.083542,-0.201249,-0.351319,0.377421,-0.020744,-0.911654,-0.161275,157.225046,-44.014960,-173.299247
39595,NaN,5.648011,8.886589,-3.603689,-0.198567,6.850549,-1.044118,0.918238,-0.196004,-0.185775,0.376442,-0.018255,-0.912790,-0.157393,157.698752,-43.865807,-173.215390
39596,NaN,5.638726,9.081290,-3.385552,-0.379494,7.147579,-1.181664,0.740718,-0.190419,-0.036725,0.375571,-0.016766,-0.913746,-0.154054,158.141934,-43.750513,-173.236128
39597,NaN,5.519823,9.384079,-3.294111,-0.359604,7.513599,-1.280586,0.523920,-0.154745,0.075123,0.374938,-0.016177,-0.914447,-0.151481,158.512495,-43.679462,-173.329596
39598,NaN,5.559189,9.705915,-3.198752,-0.430037,7.875571,-1.260978,0.240110,-0.098152,0.164173,0.374596,-0.016470,-0.914814,-0.150070,158.749452,-43.655067,-173.468549
39599,NaN,5.567883,9.942330,-3.238787,-0.368627,8.105176,-1.180703,-0.119449,-0.012770,0.228577,0.374673,-0.017681,-0.914745,-0.150162,158.800895,-43.691148,-173.633779
39600,NaN,5.399564,9.984072,-3.399256,-0.093497,8.105363,-1.170585,-0.528622,0.079426,0.237838,0.375131,-0.019612,-0.914189,-0.152155,158.597759,-43.776687,-173.774632
39601,NaN,5.266064,9.931715,-3.694287,0.262478,7.946356,-1.048910,-0.894214,0.140174,0.218096,0.375820,-0.022112,-0.913231,-0.155820,158.169345,-43.892840,-173.887470
39602,NaN,5.382074,9.792510,-4.048648,0.486935,7.635384,-0.717980,-1.235708,0.190886,0.171066,0.376646,-0.024973,-0.911884,-0.161186,157.501056,-44.024508,-173.942802
39603,NaN,5.537838,9.456393,-4.709259,0.874147,7.004206,-0.197984,-1.560617,0.252154,0.136094,0.377673,-0.028261,-0.910124,-0.168046,156.622771,-44.183281,-173.957313
39604,NaN,5.628757,8.990114,-5.402438,1.313437,6.202396,0.261694,-1.805043,0.288645,0.117571,0.378779,-0.031864,-0.908018,-0.176110,155.573375,-44.354750,-173.935025
39605,NaN,5.593029,8.638003,-5.979491,1.781168,5.521781,0.578888,-1.960762,0.262106,0.092512,0.379693,-0.035698,-0.905755,-0.184845,154.435796,-44.508410,-173.906559
39606,NaN,5.487486,8.601792,-6.255910,2.149168,5.217058,0.741871,-2.072099,0.221953,0.035501,0.380303,-0.039484,-0.903373,-0.194237,153.199968,-44.623865,-173.837782
39607,NaN,5.244409,8.716642,-6.409921,2.557712,5.084639,0.778359,-2.185796,0.181833,-0.064528,0.380580,-0.043103,-0.900883,-0.204232,151.868842,-44.694199,-173.717506
39608,NaN,4.999832,9.102929,-6.442648,2.940101,5.218936,0.840096,-2.316574,0.090402,-0.239219,0.380178,-0.046233,-0.898345,-0.215181,150.385726,-44.664913,-173.497262
39609,NaN,4.836181,9.651471,-6.194539,3.112146,5.579904,0.868293,-2.519788,-0.026282,-0.471925,0.378911,-0.048862,-0.895741,-0.227348,148.721162,-44.509627,-173.174451
39610,NaN,4.860736,10.305514,-6.014514,3.222859,5.943142,1.154802,-2.848455,-0.070718,-0.750453,0.376959,-0.050863,-0.892732,-0.241546,146.741347,-44.236262,-172.679487
39611,NaN,4.865585,10.813533,-6.065020,3.462479,6.005912,1.558977,-3.237848,-0.039114,-1.071040,0.374584,-0.052160,-0.889061,-0.257947,144.410618,-43.865292,-171.987209
39612,NaN,4.940931,11.318440,-6.328084,3.782783,5.861280,2.182180,-3.640933,-0.039033,-1.396383,0.371539,-0.052698,-0.884639,-0.276757,141.714312,-43.355687,-171.106047
39613,NaN,5.302940,11.823323,-6.735427,3.975379,5.498475,3.118217,-4.027167,-0.053304,-1.687686,0.367788,-0.052712,-0.879425,-0.297599,138.733845,-42.707643,-170.111357
39614,NaN,5.776245,12.147217,-7.319213,4.113761,4.738814,4.153978,-4.394397,-0.092394,-1.919611,0.363205,-0.052356,-0.873312,-0.320418,135.501498,-41.907790,-169.054560
39615,NaN,6.401997,12.370369,-8.141268,4.215351,3.591863,5.338696,-4.756575,-0.078734,-2.086277,0.358119,-0.051931,-0.866114,-0.344821,132.077423,-41.007424,-167.990604
39616,NaN,6.766904,12.297819,-8.931369,4.340874,2.133039,6.103877,-4.991042,-0.069892,-2.190114,0.352547,-0.051363,-0.857880,-0.370289,128.537341,-40.010256,-166.948868
39617,NaN,6.842799,12.037745,-9.457723,4.415618,0.677989,6.347469,-5.159498,-0.100890,-2.201637,0.346540,-0.051122,-0.848764,-0.396102,125.001232,-38.958665,-166.027980
39618,NaN,6.915150,11.450675,-10.014406,4.350970,-1.050800,6.284507,-5.263735,-0.143558,-1.973054,0.340469,-0.052008,-0.838753,-0.421745,121.536050,-37.952495,-165.311685
39619,NaN,6.706024,10.274287,-10.674736,4.290738,-3.119274,5.558780,-5.115375,-0.374561,-1.554309,0.334131,-0.054913,-0.828740,-0.445568,118.411120,-37.067135,-164.983633
39620,NaN,5.360185,9.144453,-10.683272,4.732230,-4.274686,3.817253,-4.785203,-0.789536,-1.065116,0.326992,-0.060111,-0.819433,-0.466897,115.753060,-36.300980,-165.129276
39621,NaN,3.484683,8.279232,-10.147027,5.397519,-4.534369,1.760139,-4.150112,-1.459572,-0.628948,0.318177,-0.067658,-0.812152,-0.484350,113.821655,-35.616375,-165.879766
39622,NaN,2.336818,8.111597,-9.421572,5.683591,-4.256029,0.655803,-3.452205,-2.252908,-0.360618,0.306835,-0.077003,-0.807325,-0.498147,112.617007,-34.900158,-167.224249
39623,NaN,2.086413,8.450698,-8.630650,5.448189,-3.742707,0.509591,-3.009176,-2.963092,-0.280917,0.292907,-0.087797,-0.804339,-0.509447,111.936176,-34.100704,-169.056057
39624,NaN,2.321671,8.863391,-7.996193,4.914261,-3.365996,0.788882,-2.998404,-3.466371,-0.333681,0.276634,-0.099530,-0.801716,-0.520402,111.392475,-33.172039,-171.180708
39625,NaN,2.907195,8.938945,-7.413945,3.952399,-3.200625,1.024323,-3.212774,-3.770196,-0.520894,0.258442,-0.111615,-0.798620,-0.531936,110.779481,-32.109402,-173.446434
39626,NaN,3.922626,8.694109,-6.548395,2.390418,-2.901912,1.128275,-3.530885,-3.871967,-0.755118,0.238819,-0.123300,-0.794381,-0.544722,109.932848,-30.914270,-175.702728
39627,NaN,5.373025,7.996766,-6.181034,0.381791,-3.160264,1.181602,-3.754164,-3.615758,-1.000492,0.219296,-0.133566,-0.788851,-0.558376,108.818255,-29.679223,-177.745853
39628,NaN,6.647930,7.033040,-6.021294,-1.567408,-3.574902,0.895407,-3.792905,-3.049766,-1.260766,0.201052,-0.141108,-0.782204,-0.572558,107.436737,-28.431850,-179.382499
39629,NaN,7.513451,6.186669,-5.900701,-3.084664,-3.880460,0.432238,-3.631051,-2.298219,-1.498270,0.185121,-0.145398,-0.775016,-0.586464,105.898064,-27.224927,179.469169
39630,NaN,7.816867,5.559678,-5.766709,-3.968652,-4.059878,-0.167794,-3.250262,-1.521575,-1.692101,0.171773,-0.146175,-0.767977,-0.599448,104.326051,-26.045491,178.815074
39631,NaN,7.506978,5.127718,-5.683013,-4.153861,-4.225648,-0.878205,-2.703263,-0.791374,-1.834457,0.161195,-0.143764,-0.761829,-0.610709,102.875496,-24.910443,178.599889
39632,NaN,6.831902,5.135688,-5.683170,-3.761139,-4.377766,-1.325599,-2.101083,-0.256236,-1.906667,0.152783,-0.138863,-0.756919,-0.620038,101.627891,-23.796531,178.700275
39633,NaN,6.010402,5.718362,-5.571231,-2.971978,-4.301918,-1.296885,-1.600295,-0.035877,-1.910194,0.145559,-0.132919,-0.753295,-0.627448,100.635048,-22.711876,178.907190
39634,NaN,5.295836,6.704239,-5.492991,-2.118930,-4.178997,-0.801170,-1.279432,-0.055853,-1.863185,0.138558,-0.126907,-0.750520,-0.633574,99.835063,-21.641155,179.080326
39635,NaN,4.866418,7.723212,-5.371342,-1.536892,-3.999936,-0.126841,-1.186442,-0.277796,-1.742367,0.131191,-0.122027,-0.748059,-0.638988,99.158529,-20.623485,179.087312
39636,NaN,4.953645,8.551303,-5.200227,-1.532009,-3.801255,0.575030,-1.278165,-0.572023,-1.557339,0.123204,-0.118775,-0.745271,-0.644426,98.493468,-19.677415,178.889632
39637,NaN,5.141947,9.134764,-5.103528,-1.716101,-3.723856,1.101190,-1.515610,-0.812189,-1.316251,0.114984,-0.117378,-0.741667,-0.650331,97.755116,-18.858306,178.513070
39638,NaN,5.637758,9.240806,-5.308963,-2.340395,-4.019646,1.310363,-1.780688,-0.959351,-1.005190,0.107022,-0.117704,-0.736985,-0.656921,96.892553,-18.203424,178.016304
39639,NaN,6.029665,8.984414,-5.501308,-2.962184,-4.353648,1.123854,-2.043472,-0.980622,-0.643291,0.100039,-0.119606,-0.731167,-0.664139,95.895952,-17.767851,177.470767
39640,NaN,5.843500,8.613070,-5.617155,-3.039342,-4.649164,0.628953,-2.211456,-0.906651,-0.293151,0.094341,-0.122566,-0.724417,-0.671786,94.789034,-17.539401,176.944565
39641,NaN,5.090287,8.252833,-5.682528,-2.538392,-4.920596,-0.032478,-2.234172,-0.845330,0.006514,0.089879,-0.126442,-0.717299,-0.679276,93.667867,-17.500758,176.435850
39642,NaN,4.249519,8.147096,-5.632229,-1.849749,-5.068952,-0.483329,-2.192815,-0.870202,0.227165,0.086060,-0.131119,-0.710072,-0.686439,92.572779,-17.591463,175.905816
39643,NaN,3.319321,8.201311,-5.532014,-1.012729,-5.173526,-0.807754,-2.156822,-0.967158,0.341816,0.082333,-0.136540,-0.702855,-0.693233,91.522157,-17.760805,175.315070
39644,NaN,2.608032,8.286466,-5.502957,-0.382265,-5.343252,-1.034845,-2.138625,-1.103626,0.350994,0.078130,-0.142403,-0.695636,-0.699792,90.504386,-17.938988,174.646074
39645,NaN,2.212570,8.368685,-5.492361,-0.066599,-5.514109,-1.170738,-2.194732,-1.268635,0.297502,0.073143,-0.148693,-0.688229,-0.706315,89.489882,-18.102978,173.879290
39646,NaN,1.970400,8.299717,-5.369711,0.049359,-5.560483,-1.405756,-2.291337,-1.436908,0.192467,0.067093,-0.155190,-0.680494,-0.712981,88.450422,-18.216439,173.013421
39647,NaN,1.757895,8.046349,-5.153233,0.075435,-5.498748,-1.803703,-2.382261,-1.552425,0.027502,0.060007,-0.161574,-0.672479,-0.719767,87.384786,-18.258094,172.075461
39648,NaN,1.730590,7.856515,-4.849932,-0.053668,-5.323987,-2.073837,-2.403691,-1.598319,-0.193636,0.051912,-0.167318,-0.664441,-0.726518,86.315820,-18.186046,171.104117
39649,NaN,1.838255,7.668197,-4.645570,-0.334149,-5.210673,-2.296380,-2.359470,-1.603044,-0.474222,0.042839,-0.172134,-0.656661,-0.733029,85.276170,-17.976085,170.116665
39650,NaN,2.193886,7.546446,-4.309445,-0.812470,-4.913284,-2.360928,-2.292252,-1.560223,-0.810737,0.032691,-0.175605,-0.649276,-0.739280,84.268157,-17.583369,169.134492
39651,NaN,2.718805,7.369310,-4.088382,-1.493868,-4.659858,-2.432755,-2.189560,-1.434348,-1.151377,0.021807,-0.177485,-0.642410,-0.745207,83.296981,-17.010350,168.200851
39652,NaN,3.247036,7.139510,-3.865431,-2.195384,-4.361085,-2.559115,-2.073080,-1.214369,-1.490593,0.010434,-0.177375,-0.636136,-0.750839,82.354436,-16.238469,167.365728
39653,NaN,3.515693,6.753833,-3.769535,-2.719254,-4.178456,-2.933327,-1.883725,-0.910036,-1.812691,-0.000983,-0.175086,-0.630707,-0.756011,81.468700,-15.277460,166.674191
39654,NaN,3.682805,6.417412,-3.709577,-3.135975,-4.034367,-3.301730,-1.593927,-0.638970,-2.103778,-0.012421,-0.170793,-0.626527,-0.760355,80.707545,-14.132360,166.103430
39655,NaN,3.968374,6.271826,-3.551197,-3.587979,-3.787085,-3.450690,-1.305982,-0.406543,-2.353716,-0.023803,-0.164849,-0.623537,-0.763846,80.074878,-12.835559,165.632319
39656,NaN,4.858407,5.805962,-3.830316,-4.776456,-3.717110,-3.867192,-1.014581,-0.086092,-2.518603,-0.034597,-0.157145,-0.621739,-0.766517,79.567796,-11.413532,165.317788
39657,NaN,5.960645,4.836840,-4.300068,-6.255793,-3.647065,-4.815197,-0.661543,0.329027,-2.560849,-0.043953,-0.147777,-0.621264,-0.768284,79.211172,-9.930687,165.227888
39658,NaN,6.238593,3.542014,-4.228708,-6.764904,-3.208086,-6.167212,-0.205327,0.707198,-2.434995,-0.051325,-0.137405,-0.622454,-0.768789,79.081574,-8.474845,165.360720
39659,NaN,5.940551,2.265285,-4.009142,-6.592545,-2.805239,-7.540494,0.609430,1.052598,-2.073220,-0.055646,-0.127036,-0.626491,-0.766991,79.386054,-7.189271,165.731261
39660,NaN,5.262930,1.540097,-3.666397,-5.910626,-2.527786,-8.333706,1.854375,1.338161,-1.541205,-0.056241,-0.117555,-0.634971,-0.761466,80.389132,-6.177309,166.331038
39661,NaN,4.085340,1.767528,-3.322758,-4.648922,-2.549659,-8.157060,3.327311,1.395086,-0.892052,-0.053293,-0.110309,-0.648488,-0.751302,82.228520,-5.545230,167.044373
39662,NaN,3.004823,3.089132,-3.206302,-3.441736,-2.848171,-6.830806,4.740082,1.150270,-0.275955,-0.048024,-0.106306,-0.666636,-0.736199,84.895475,-5.307181,167.680685
39663,NaN,2.293065,5.110045,-3.149217,-2.506980,-2.991868,-4.709514,5.773002,0.615751,0.328494,-0.041724,-0.106455,-0.687616,-0.717015,88.174936,-5.467357,168.043060
39664,NaN,1.871579,7.325709,-2.871889,-1.705221,-2.571876,-2.337909,6.353712,-0.209039,0.868047,-0.035978,-0.111441,-0.709609,-0.694796,91.839663,-5.957849,167.919573
39665,NaN,1.878981,9.305134,-2.330888,-1.180653,-1.501428,-0.228052,6.476974,-1.098853,1.282982,-0.031840,-0.120887,-0.730836,-0.671008,95.631420,-6.643612,167.237537
39666,NaN,2.883057,10.908148,-1.731944,-1.537451,0.061670,1.495871,6.208582,-1.927588,1.573036,-0.029882,-0.134001,-0.750073,-0.646948,99.350811,-7.386185,166.013670
39667,NaN,4.666202,12.147695,-0.951922,-2.531821,2.112040,2.809425,5.607004,-2.468414,1.795316,-0.029605,-0.149458,-0.766292,-0.624165,102.785370,-8.117309,164.412769
39668,NaN,6.421319,12.804279,-0.181308,-3.479167,4.140224,3.450493,4.803985,-2.598102,1.999956,-0.029756,-0.165854,-0.779152,-0.603763,105.808064,-8.853197,162.666617
39669,NaN,7.290726,12.934882,0.689176,-3.588434,5.870576,3.361223,3.945498,-2.479254,2.142104,-0.029708,-0.182183,-0.788699,-0.586413,108.353876,-9.602274,160.925557
39670,NaN,7.809084,12.750080,1.658634,-3.382212,7.392228,2.843356,3.155035,-2.222657,2.243846,-0.029044,-0.197952,-0.795444,-0.572050,110.460286,-10.385577,159.271072
39671,NaN,8.216715,12.338628,2.443995,-3.183554,8.511737,2.150475,2.442767,-1.770498,2.344016,-0.026997,-0.212624,-0.799747,-0.560773,112.139713,-11.261497,157.812393
39672,NaN,7.854879,11.735983,2.488016,-2.582190,8.514549,1.431777,1.940995,-1.363443,2.416093,-0.023627,-0.226323,-0.802378,-0.551732,113.523390,-12.229257,156.527802
39673,NaN,7.182108,11.326440,2.562347,-1.695458,8.376601,0.835366,1.596062,-0.925864,2.353142,-0.019078,-0.238448,-0.803960,-0.544452,114.677408,-13.236506,155.467511
39674,NaN,6.937895,11.067151,2.557699,-1.224936,8.309925,0.511713,1.296949,-0.507627,2.219450,-0.013539,-0.248839,-0.804774,-0.538735,115.625657,-14.260131,154.640011
39675,NaN,7.031953,10.830262,2.266240,-1.184581,8.090959,0.434533,1.001972,-0.055360,2.044356,-0.007042,-0.257232,-0.804914,-0.534691,116.348246,-15.292279,154.080536
39676,NaN,7.011115,10.577863,1.688164,-1.185064,7.529401,0.473043,0.692854,0.405693,1.853150,0.000433,-0.263602,-0.804395,-0.532412,116.827756,-16.343012,153.803146
39677,NaN,6.534943,10.299852,0.874451,-0.917726,6.525704,0.489108,0.426631,0.737140,1.640538,0.008294,-0.268191,-0.803375,-0.531596,117.092778,-17.365454,153.752137
39678,NaN,6.271235,9.966630,0.099883,-0.882587,5.598203,0.509656,0.205260,0.965701,1.431146,0.016256,-0.271339,-0.801961,-0.531948,117.177516,-18.345697,153.877533
39679,NaN,6.339235,9.601981,-0.685969,-1.173198,4.767280,0.615584,0.060388,1.160264,1.260758,0.024310,-0.273259,-0.800331,-0.533113,117.128368,-19.284992,154.155126
39680,NaN,6.402438,9.222406,-1.415827,-1.463646,3.958593,0.686530,0.050328,1.374911,1.122667,0.032880,-0.274054,-0.798757,-0.534603,117.014574,-20.215157,154.590779
39681,NaN,6.047778,9.234732,-1.856326,-1.149588,3.332198,0.811558,0.104046,1.582940,0.984502,0.041942,-0.273690,-0.797435,-0.536127,116.871045,-21.122117,155.182682
39682,NaN,5.524853,9.425375,-2.193008,-0.582321,2.778810,0.962660,0.113195,1.709306,0.865817,0.051243,-0.272508,-0.796179,-0.537785,116.681927,-22.005689,155.884243
39683,NaN,5.151407,9.738559,-2.606745,-0.094601,2.251003,1.282072,0.043899,1.718335,0.795941,0.060248,-0.270996,-0.794781,-0.539681,116.433208,-22.846954,156.617268
39684,NaN,4.896352,10.147837,-2.951492,0.361714,1.845558,1.681878,-0.151436,1.681806,0.749523,0.068760,-0.269454,-0.792833,-0.542294,116.059162,-23.657952,157.353262
39685,NaN,4.444908,10.455077,-3.192044,0.949517,1.419363,1.863629,-0.450206,1.618887,0.676750,0.076369,-0.267853,-0.790156,-0.545963,115.509458,-24.403717,158.083864
39686,NaN,3.845265,10.721927,-3.176667,1.671268,1.142602,1.837875,-0.807177,1.508468,0.554808,0.082771,-0.266206,-0.786617,-0.550924,114.750587,-25.058118,158.798983
39687,NaN,3.415391,10.983778,-3.106540,2.226105,0.951467,1.853279,-1.190677,1.353218,0.389789,0.087545,-0.264456,-0.782270,-0.557183,113.782946,-25.573494,159.479981
39688,NaN,3.326045,11.257908,-3.234082,2.434420,0.663342,2.099147,-1.526139,1.172321,0.184851,0.090631,-0.262547,-0.777238,-0.564585,112.632161,-25.934594,160.121407
39689,NaN,3.747457,11.690409,-3.526103,2.225300,0.380477,2.758709,-1.818966,1.071033,-0.073673,0.092158,-0.260010,-0.771717,-0.573022,111.310007,-26.118145,160.772601
39690,NaN,4.375592,12.146581,-4.128009,1.757990,-0.188563,3.625703,-2.202323,1.124208,-0.315436,0.092725,-0.256544,-0.765253,-0.583073,109.721929,-26.173057,161.517418
39691,NaN,4.927354,12.291938,-4.973222,1.112383,-1.152345,4.241633,-2.632287,1.232473,-0.466136,0.092660,-0.252324,-0.757570,-0.594841,107.848978,-26.140707,162.357918
39692,NaN,5.292225,12.021307,-5.746001,0.396962,-2.245570,4.340660,-2.987299,1.292828,-0.537124,0.092175,-0.247771,-0.748675,-0.607946,105.747541,-26.058070,163.248343
39693,NaN,5.683514,11.402338,-6.418706,-0.512726,-3.324185,4.050240,-3.233538,1.401493,-0.575599,0.091614,-0.242773,-0.738842,-0.621917,103.481417,-25.934680,164.204695
39694,NaN,6.219743,10.261121,-7.279967,-1.817635,-4.608596,3.317761,-3.238883,1.625472,-0.568884,0.091896,-0.237041,-0.728611,-0.635998,101.152608,-25.812518,165.294073
39695,NaN,6.552571,8.921787,-8.028305,-2.977791,-5.797389,2.207799,-2.911776,1.865289,-0.578228,0.093349,-0.230271,-0.719116,-0.648948,98.955345,-25.666073,166.525203
39696,NaN,6.313503,7.648799,-8.065046,-3.423014,-6.321848,0.756760,-2.340257,2.055559,-0.574564,0.096160,-0.222587,-0.711160,-0.659894,97.037696,-25.501706,167.868712
39697,NaN,5.606687,6.301490,-7.742827,-3.355234,-6.467025,-0.980479,-1.477360,2.198240,-0.507478,0.100609,-0.214188,-0.705777,-0.667743,95.587467,-25.344467,169.288433
39698,NaN,4.678416,5.540792,-7.199675,-2.729602,-6.293087,-2.238619,-0.404816,2.219155,-0.415534,0.106603,-0.205496,-0.703740,-0.671683,94.752668,-25.220193,170.711173
39699,NaN,3.989509,5.570869,-6.759904,-1.939191,-6.062144,-2.592214,0.765561,2.214857,-0.295803,0.114140,-0.196563,-0.705433,-0.671342,94.596679,-25.148024,172.122126
39700,NaN,3.577828,6.377454,-6.669905,-1.062994,-6.026910,-2.034239,1.753367,2.205042,-0.221587,0.122876,-0.187358,-0.710246,-0.667344,95.012528,-25.125910,173.522355
39701,NaN,3.334315,7.144896,-6.855467,-0.350280,-6.149353,-1.373297,2.320714,2.099291,-0.215568,0.131727,-0.178107,-0.716861,-0.661087,95.781982,-25.109392,174.855823
39702,NaN,3.080246,7.472886,-6.732048,0.206473,-5.912051,-1.114832,2.539533,1.872720,-0.206175,0.139991,-0.169482,-0.724161,-0.653658,96.739494,-25.107551,176.045312
39703,NaN,2.947360,7.264139,-6.004861,0.412052,-5.067817,-1.347708,2.708888,1.662330,-0.143956,0.147774,-0.161575,-0.731926,-0.645245,97.850149,-25.139932,177.098677
39704,NaN,2.943399,6.927763,-5.231744,0.408646,-4.173159,-1.661502,2.945452,1.605627,-0.027587,0.155906,-0.154093,-0.740212,-0.635637,99.118018,-25.258428,178.103924
39705,NaN,2.638803,6.721281,-4.890519,0.720372,-3.689599,-1.943845,3.246742,1.654082,0.080916,0.164717,-0.146542,-0.749099,-0.624695,100.545828,-25.459135,179.127194
39706,NaN,2.427062,6.710828,-4.822478,1.042329,-3.413927,-1.974687,3.539809,1.610540,0.202507,0.173929,-0.139323,-0.758592,-0.612271,102.161595,-25.752806,-179.897866
39707,NaN,2.324494,7.153954,-4.687371,1.447934,-2.938900,-1.577873,3.729301,1.497754,0.317067,0.183100,-0.132630,-0.768372,-0.598739,103.917908,-26.116540,-179.014731
39708,NaN,2.245192,7.735300,-4.506924,1.872258,-2.334036,-1.081929,3.754135,1.435923,0.368446,0.192155,-0.126275,-0.777950,-0.584744,105.712858,-26.528978,-178.190462
39709,NaN,2.394531,8.087799,-4.529551,2.008196,-1.956631,-0.658846,3.648121,1.349819,0.406697,0.200818,-0.120339,-0.786953,-0.570873,107.469072,-26.966220,-177.435416
39710,NaN,2.524287,8.380699,-4.425140,2.103687,-1.464721,-0.346393,3.426322,1.237284,0.446047,0.208968,-0.115089,-0.795144,-0.557524,109.138648,-27.429062,-176.771645
39711,NaN,2.492812,8.545732,-4.252472,2.257972,-0.953938,-0.256975,3.117422,1.172240,0.460513,0.216635,-0.110335,-0.802270,-0.545214,110.646584,-27.898790,-176.159916
39712,NaN,2.337064,8.571789,-4.171941,2.468885,-0.592108,-0.331621,2.823529,1.063603,0.472039,0.223699,-0.106240,-0.808515,-0.533831,112.024585,-28.369541,-175.630291
39713,NaN,2.633501,8.640224,-4.289322,2.339725,-0.445062,-0.101373,2.538662,0.888263,0.535737,0.230006,-0.103139,-0.813974,-0.523360,113.293094,-28.841965,-175.229624
39714,NaN,3.100371,8.823617,-4.499475,2.139591,-0.367599,0.336046,2.146980,0.814133,0.607478,0.235975,-0.100983,-0.818339,-0.514237,114.375180,-29.345409,-174.904558
39715,NaN,3.392489,8.679572,-4.782598,1.991954,-0.522079,0.457358,1.701170,0.768720,0.694385,0.241712,-0.099787,-0.821451,-0.506790,115.222900,-29.884434,-174.635886
39716,NaN,3.551140,8.144716,-5.043532,1.809907,-0.868770,0.204873,1.302940,0.716821,0.816999,0.247341,-0.099723,-0.823502,-0.500721,115.882519,-30.480014,-174.443013
39717,NaN,3.869568,7.257012,-5.530307,1.428810,-1.632688,-0.142478,1.065918,0.670969,0.968410,0.253012,-0.100660,-0.824868,-0.495424,116.438675,-31.140668,-174.325169
39718,NaN,3.718469,6.496514,-5.823591,1.449272,-2.146511,-0.689305,1.007917,0.584524,1.097592,0.258610,-0.102433,-0.826102,-0.490086,117.017698,-31.848714,-174.308437
39719,NaN,3.793203,5.864513,-5.868553,1.248132,-2.405779,-1.102165,1.101190,0.454789,1.215501,0.263982,-0.104862,-0.827596,-0.484152,117.709719,-32.580147,-174.412160
39720,NaN,4.207606,5.270719,-6.061307,0.821878,-2.794344,-1.225617,1.243497,0.314148,1.279842,0.268989,-0.107723,-0.829543,-0.477388,118.555561,-33.307116,-174.637741
39721,NaN,4.912589,4.523019,-6.396797,0.132703,-3.398685,-1.213911,1.416630,0.209996,1.270254,0.273604,-0.110529,-0.831956,-0.469866,119.537479,-33.994985,-174.934513
39722,NaN,5.365883,3.874361,-6.496541,-0.386954,-3.722084,-1.327306,1.691307,0.175786,1.210485,0.278065,-0.112804,-0.835033,-0.461166,120.697659,-34.640795,-175.253547
39723,NaN,5.710282,3.385271,-6.471971,-0.789517,-3.837530,-1.410311,2.089687,0.176245,1.150100,0.282574,-0.114234,-0.838933,-0.450881,122.079363,-35.249148,-175.565359
39724,NaN,5.761020,3.463771,-6.369183,-0.721305,-3.528477,-1.281685,2.613215,0.251776,1.097821,0.287536,-0.114542,-0.843817,-0.438379,123.748381,-35.851123,-175.840230
39725,NaN,5.635139,4.127749,-6.292202,-0.233972,-2.846772,-0.856162,3.092880,0.341615,1.057268,0.292991,-0.113738,-0.849419,-0.423918,125.659369,-36.453880,-176.065840
39726,NaN,5.716553,5.121648,-6.325477,0.273734,-1.996649,-0.073500,3.377930,0.386316,1.034656,0.298668,-0.112323,-0.855349,-0.408116,127.741640,-37.057219,-176.290423
39727,NaN,5.857858,6.141151,-6.102638,0.620711,-0.874470,0.584971,3.352060,0.349940,0.985658,0.303977,-0.110745,-0.861014,-0.392413,129.816879,-37.616505,-176.535843
39728,NaN,5.699452,6.988942,-5.643563,0.995655,0.351568,0.772954,3.095690,0.336557,0.921698,0.308878,-0.109308,-0.866009,-0.377724,131.760318,-38.138054,-176.791733
39729,NaN,5.475460,7.445522,-5.303197,1.278499,1.210353,0.696081,2.755125,0.366496,0.888169,0.313582,-0.108138,-0.870099,-0.364554,133.493193,-38.648320,-177.030856
39730,NaN,5.476746,7.606657,-5.356745,1.431906,1.550451,0.774603,2.449080,0.331524,0.910132,0.317949,-0.107615,-0.873529,-0.352526,135.094975,-39.149735,-177.327388
39731,NaN,5.659102,7.567966,-5.439586,1.377279,1.698006,0.869247,2.139871,0.277545,0.941948,0.321918,-0.107772,-0.876322,-0.341779,136.551163,-39.633687,-177.680887
39732,NaN,5.846221,7.453235,-5.455071,1.259823,1.812918,0.892874,1.846152,0.244876,0.968143,0.325591,-0.108586,-0.878564,-0.332153,137.883039,-40.108606,-178.089872
39733,NaN,5.864266,7.003775,-5.487092,1.146876,1.643340,0.653045,1.630092,0.205681,0.986735,0.328972,-0.109861,-0.880389,-0.323455,139.113214,-40.565453,-178.538526
39734,NaN,5.990033,6.392195,-5.608932,0.930137,1.271447,0.469151,1.516792,0.081140,0.996273,0.331727,-0.111580,-0.882173,-0.315084,140.344687,-40.964771,-179.075977
39735,NaN,6.181459,5.937725,-5.463424,0.582417,1.179212,0.266180,1.543291,-0.022938,0.953020,0.333944,-0.113195,-0.884103,-0.306642,141.609246,-41.292473,-179.645380
39736,NaN,6.314123,5.678802,-5.266045,0.319792,1.269750,0.093422,1.671077,-0.046394,0.847586,0.335936,-0.114180,-0.886270,-0.297716,142.932171,-41.563295,179.819145
39737,NaN,6.318631,5.682564,-5.165542,0.298630,1.509644,0.012200,1.874857,-0.034311,0.736264,0.337904,-0.114278,-0.888681,-0.288109,144.321500,-41.791918,179.353950
39738,NaN,6.283431,6.040069,-5.028811,0.415949,2.063640,0.026936,2.047172,-0.007513,0.616645,0.339877,-0.113523,-0.891283,-0.277868,145.767740,-41.985477,178.960821
39739,NaN,6.231994,6.508421,-4.765531,0.502052,2.782286,-0.019249,2.084653,0.030285,0.477723,0.341811,-0.111999,-0.893833,-0.267740,147.161457,-42.145631,178.671987
39740,NaN,6.421540,6.954776,-4.524513,0.393956,3.466196,0.081956,2.004521,0.094182,0.347192,0.343770,-0.109950,-0.896154,-0.258151,148.446817,-42.291971,178.483620
39741,NaN,6.377416,7.231941,-4.380588,0.436308,3.933736,0.010510,1.871811,0.193385,0.240495,0.345933,-0.107493,-0.898091,-0.249417,149.576792,-42.452568,178.406874
39742,NaN,6.341896,7.300761,-4.252796,0.397873,4.194569,-0.124921,1.699186,0.273791,0.115418,0.348176,-0.104680,-0.899676,-0.241657,150.539709,-42.616263,178.436683
39743,NaN,6.295026,7.297831,-4.148477,0.352496,4.354916,-0.273033,1.523755,0.373235,0.001576,0.350617,-0.101516,-0.900864,-0.234960,151.319158,-42.798425,178.583210
39744,NaN,6.121632,7.333513,-4.135365,0.467149,4.481914,-0.429218,1.406454,0.445213,-0.046158,0.353243,-0.098265,-0.901767,-0.228867,151.997695,-43.005213,178.782900
39745,NaN,5.974081,7.451986,-4.269558,0.680243,4.600676,-0.441387,1.295094,0.469765,-0.049511,0.355906,-0.095150,-0.902446,-0.223313,152.600472,-43.225259,178.995114
39746,NaN,5.761252,7.699461,-4.403045,0.986799,4.827263,-0.454066,1.106266,0.474806,-0.038067,0.358496,-0.092422,-0.902867,-0.218563,153.103905,-43.452204,179.196390
39747,NaN,5.437021,7.681646,-4.505936,1.272642,4.821096,-0.647019,0.844271,0.398546,-0.023790,0.360630,-0.090300,-0.903100,-0.214949,153.479756,-43.645074,179.361366
39748,NaN,5.248365,7.512236,-4.492507,1.343359,4.719278,-0.863648,0.578947,0.272589,-0.008770,0.362081,-0.088861,-0.903257,-0.212435,153.743930,-43.777363,179.468917
39749,NaN,5.096404,7.224394,-4.402636,1.303810,4.529995,-1.133541,0.360873,0.162109,-0.023760,0.362921,-0.087863,-0.903378,-0.210893,153.900828,-43.849766,179.549301
39750,NaN,5.117872,7.107958,-4.251866,1.153996,4.509198,-1.261111,0.207221,0.077973,-0.038366,0.363292,-0.087165,-0.903497,-0.210033,153.983066,-43.874548,179.610471
39751,NaN,5.121460,7.172196,-4.271958,1.180490,4.563065,-1.227569,0.041576,0.077550,-0.050199,0.363582,-0.086716,-0.903445,-0.209943,153.964418,-43.896921,179.680077
39752,NaN,4.981331,7.324854,-4.349749,1.377747,4.656698,-1.221738,-0.143265,0.085025,-0.080217,0.363786,-0.086454,-0.903199,-0.210755,153.821633,-43.914439,179.774866
39753,NaN,4.837965,7.503602,-4.345094,1.537796,4.794005,-1.254512,-0.365190,0.073743,-0.139695,0.363787,-0.086344,-0.902761,-0.212663,153.526451,-43.911855,179.907120
39754,NaN,4.755018,7.542109,-4.360654,1.625265,4.777572,-1.266231,-0.591737,0.061883,-0.216312,0.363544,-0.086302,-0.902132,-0.215746,153.063515,-43.881390,-179.908213
39755,NaN,4.708183,7.455715,-4.420174,1.674965,4.611528,-1.255797,-0.779077,0.048415,-0.313308,0.363059,-0.086187,-0.901354,-0.219822,152.452868,-43.818847,-179.662747
39756,NaN,4.490062,7.571755,-4.437997,1.882734,4.628956,-1.314732,-0.915188,0.019490,-0.414494,0.362254,-0.085877,-0.900502,-0.224707,151.718897,-43.710530,-179.354991
39757,NaN,4.168170,7.855863,-4.371873,2.162427,4.823092,-1.430436,-1.017667,-0.027661,-0.542506,0.361050,-0.085243,-0.899650,-0.230230,150.884597,-43.542214,-178.982500
39758,NaN,3.830931,8.221143,-4.272440,2.450798,5.091940,-1.531309,-1.156080,-0.141306,-0.697382,0.359069,-0.084268,-0.898873,-0.236636,149.926376,-43.266738,-178.548495
39759,NaN,3.692258,8.677499,-4.150971,2.602435,5.430980,-1.452554,-1.362337,-0.253323,-0.875479,0.356281,-0.083012,-0.898078,-0.244189,148.813066,-42.880971,-178.052810
39760,NaN,3.942505,9.011927,-4.275437,2.570858,5.501492,-0.971971,-1.637294,-0.250491,-1.055812,0.353123,-0.081398,-0.896941,-0.253330,147.464937,-42.431032,-177.445636
39761,NaN,4.638299,8.957277,-5.144496,2.520328,4.792489,0.131517,-1.934867,-0.156093,-1.145110,0.350135,-0.079808,-0.895199,-0.263922,145.905558,-41.990434,-176.766108
39762,NaN,5.163348,8.693087,-5.993857,2.503217,3.852542,1.005865,-2.203093,-0.106645,-1.181295,0.347139,-0.078416,-0.892898,-0.275822,144.171598,-41.542682,-176.057343
39763,NaN,5.632721,8.130618,-6.632489,2.295262,2.730444,1.549231,-2.335148,-0.061595,-1.137444,0.344321,-0.077406,-0.890181,-0.288147,142.395173,-41.119025,-175.384656
39764,NaN,5.813176,7.514170,-7.013516,2.130265,1.712297,1.675068,-2.233074,0.002927,-0.997424,0.341949,-0.076702,-0.887296,-0.299823,140.718646,-40.754103,-174.778856
