// General information: 
//  MT Manager version: 2019.0.1 
//  XDA version: 2019.0.1 build 2740 rev 84096 built on 2019-01-30
// Device information: 
//  DeviceId: 00B4381A
//  ProductCode: MTW2-3A7G6
//  Firmware Version: 4.3.4
//  Hardware Version: 1.1.0
// Device settings: 
//  Filter Profile: human(46.1)
//  Option Flags: Orientation Smoother Disabled, AHS Disabled, ICC Disabled
// Coordinate system: ENU
PacketCounter,SampleTimeFine,Acc_X,Acc_Y,Acc_Z,FreeAcc_E,FreeAcc_N,FreeAcc_U,Gyr_X,Gyr_Y,Gyr_Z,Quat_q0,Quat_q1,Quat_q2,Quat_q3,Roll,Pitch,Yaw
19021,NaN,-1.579451,9.134637,2.321764,-0.145546,-0.088638,-0.257700,-0.083506,-0.236019,-0.082966,0.368561,0.386856,-0.483344,-0.693458,76.271100,10.384525,-115.858805
19022,NaN,-1.613207,9.164900,2.305932,-0.103324,-0.079446,-0.226335,-0.093478,-0.267179,-0.064488,0.367802,0.385953,-0.483416,-0.694313,76.195392,10.389640,-116.022078
19023,NaN,-1.525010,9.039131,2.368602,-0.202370,-0.106114,-0.347509,-0.102778,-0.286670,-0.051946,0.367070,0.384919,-0.483472,-0.695235,76.106392,10.386150,-116.194952
19024,NaN,-1.518416,8.963364,2.374770,-0.209581,-0.093377,-0.419373,-0.084100,-0.297870,-0.042839,0.366293,0.383871,-0.483672,-0.696084,76.033494,10.374535,-116.372551
19025,NaN,-1.475358,9.058819,2.413366,-0.238675,-0.144348,-0.326623,-0.057886,-0.293432,-0.042491,0.365490,0.382871,-0.483912,-0.696890,75.969832,10.364339,-116.547892
19026,NaN,-1.457099,9.178813,2.441882,-0.248557,-0.182773,-0.208451,-0.022685,-0.275778,-0.059004,0.364591,0.382050,-0.484253,-0.697574,75.934012,10.364421,-116.715260
19027,NaN,-1.583293,9.338142,2.493636,-0.211777,-0.096207,-0.021272,-0.003177,-0.270272,-0.066384,0.363655,0.381286,-0.484594,-0.698243,75.903457,10.370404,-116.880884
19028,NaN,-1.624574,9.448115,2.511699,-0.190873,-0.083447,0.095458,-0.000944,-0.283803,-0.056423,0.362702,0.380469,-0.485028,-0.698883,75.879330,10.367758,-117.052422
19029,NaN,-1.734469,9.593368,2.550484,-0.150642,-0.011222,0.263186,0.001783,-0.334118,-0.051216,0.361654,0.379453,-0.485530,-0.699631,75.845541,10.356150,-117.251953
19030,NaN,-1.868399,9.558315,2.577418,-0.112035,0.127169,0.260379,-0.003886,-0.406499,-0.043683,0.360451,0.378168,-0.486196,-0.700483,75.807696,10.329022,-117.490942
19031,NaN,-1.876649,9.608239,2.646766,-0.152066,0.151775,0.326310,0.003647,-0.475193,-0.029759,0.359128,0.376605,-0.486996,-0.701449,75.761476,10.285323,-117.766992
19032,NaN,-1.873304,9.753548,2.669739,-0.142061,0.125200,0.469948,0.001188,-0.523045,-0.008785,0.357751,0.374832,-0.487951,-0.702438,75.716107,10.222005,-118.066634
19033,NaN,-1.908627,9.978069,2.871461,-0.255262,0.187870,0.739540,-0.016512,-0.566435,0.020086,0.356414,0.372786,-0.488930,-0.703525,75.651147,10.137167,-118.386777
19034,NaN,-2.080276,10.418422,3.222929,-0.398655,0.380943,1.275784,-0.040364,-0.654115,0.080011,0.355100,0.370254,-0.490130,-0.704690,75.572290,10.005254,-118.747145
19035,NaN,-2.522620,10.796051,3.403526,-0.255028,0.760061,1.757072,-0.121888,-0.778539,0.183750,0.354008,0.366864,-0.491408,-0.706121,75.432103,9.798137,-119.162320
19036,NaN,-3.087243,10.824173,3.272409,0.197266,1.210124,1.844864,-0.255415,-0.934019,0.322554,0.353247,0.362356,-0.492774,-0.707876,75.212493,9.489364,-119.643187
19037,NaN,-3.241181,10.362421,3.289331,0.282452,1.506922,1.428003,-0.351312,-1.097844,0.459817,0.352744,0.356734,-0.494282,-0.709928,74.923368,9.079187,-120.193774
19038,NaN,-2.714258,10.170421,3.427799,-0.017681,1.214645,1.190832,-0.444831,-1.239284,0.568984,0.352417,0.350174,-0.495922,-0.712209,74.582158,8.583494,-120.803596
19039,NaN,-1.896049,10.036900,3.630123,-0.501921,0.696742,0.993477,-0.572005,-1.405108,0.582429,0.351943,0.342730,-0.497354,-0.715061,74.154635,8.051657,-121.499770
19040,NaN,-1.211650,9.933370,3.899378,-0.968293,0.321956,0.878528,-0.682576,-1.626956,0.507201,0.350797,0.334476,-0.498657,-0.718616,73.658922,7.519556,-122.325819
19041,NaN,-0.386695,9.652472,4.301479,-1.653254,-0.052556,0.631674,-0.734376,-1.778680,0.450066,0.349138,0.325681,-0.499856,-0.722619,73.123599,6.987362,-123.239473
19042,NaN,0.086138,9.536038,4.427565,-1.905720,-0.299933,0.522855,-0.755884,-1.779162,0.386398,0.347234,0.316991,-0.500869,-0.726688,72.590064,6.480787,-124.158091
19043,NaN,0.468745,9.509576,4.618001,-2.154738,-0.464745,0.537065,-0.783063,-1.619084,0.327067,0.345544,0.308938,-0.501322,-0.730638,72.051038,6.026302,-124.993432
19044,NaN,0.364659,9.607320,4.606773,-1.951137,-0.375754,0.661405,-0.778072,-1.426184,0.264343,0.344059,0.301749,-0.501370,-0.734302,71.537734,5.632521,-125.729704
19045,NaN,0.001879,9.585267,4.394063,-1.466219,-0.169830,0.627882,-0.762865,-1.244549,0.211131,0.342808,0.295348,-0.501007,-0.737729,71.039899,5.294529,-126.372605
19046,NaN,-0.081011,9.563719,4.107370,-1.097385,-0.244629,0.535109,-0.735297,-1.097883,0.152119,0.341631,0.289689,-0.500426,-0.740907,70.574574,5.010755,-126.943978
19047,NaN,-0.013186,9.517957,3.884639,-0.883529,-0.412808,0.421099,-0.752614,-0.943188,0.099558,0.340678,0.284672,-0.499376,-0.743992,70.101510,4.780220,-127.438891
19048,NaN,-0.279739,9.460157,3.682947,-0.495994,-0.312608,0.325980,-0.756531,-0.809587,0.053327,0.339861,0.280272,-0.498046,-0.746922,69.640172,4.597176,-127.869070
19049,NaN,-0.656595,9.475311,3.783657,-0.256315,0.009610,0.407992,-0.762624,-0.739145,-0.013790,0.338988,0.276262,-0.496421,-0.749888,69.171718,4.460359,-128.272981
19050,NaN,-0.777016,9.336917,3.754578,-0.114980,0.094724,0.279679,-0.747878,-0.727016,-0.054794,0.337941,0.272438,-0.494804,-0.752823,68.719410,4.345224,-128.678007
19051,NaN,-1.001705,9.288517,3.868184,0.004753,0.313007,0.293956,-0.727088,-0.740490,-0.079177,0.336753,0.268629,-0.493198,-0.755772,68.272108,4.236491,-129.094034
19052,NaN,-1.315901,9.352178,3.850535,0.306324,0.492847,0.369852,-0.728430,-0.764988,-0.089983,0.335434,0.264767,-0.491644,-0.758728,67.830622,4.125638,-129.524882
19053,NaN,-1.332746,9.316648,3.845732,0.388911,0.476032,0.335580,-0.725101,-0.785773,-0.099810,0.334035,0.260826,-0.490067,-0.761725,67.384207,4.011485,-129.967615
19054,NaN,-1.358577,9.195066,3.929396,0.389278,0.542888,0.256487,-0.714091,-0.780854,-0.106894,0.332576,0.256955,-0.488545,-0.764652,66.951919,3.899423,-130.408744
19055,NaN,-1.062870,9.033565,4.112929,0.098571,0.435823,0.159823,-0.711322,-0.765922,-0.124263,0.331094,0.253158,-0.486928,-0.767586,66.515609,3.795898,-130.844644
19056,NaN,-0.540812,9.002055,4.383235,-0.372527,0.173669,0.205934,-0.710537,-0.715008,-0.114423,0.329745,0.249549,-0.485273,-0.770392,66.089236,3.696313,-131.251036
19057,NaN,-0.243605,8.825816,4.465106,-0.605628,0.019032,0.062734,-0.707080,-0.579404,-0.094240,0.328810,0.246391,-0.483379,-0.772995,65.663616,3.614194,-131.580458
19058,NaN,-0.118142,8.872851,4.374716,-0.551797,-0.177396,0.063710,-0.693076,-0.431061,-0.064317,0.328306,0.243774,-0.481366,-0.775291,65.258520,3.550116,-131.825036
19059,NaN,-0.061026,8.793089,4.427879,-0.592336,-0.201518,0.012607,-0.671324,-0.279113,-0.069198,0.328138,0.241768,-0.479131,-0.777372,64.864157,3.522744,-131.990833
19060,NaN,-0.181402,8.553525,4.899178,-0.854543,0.201275,0.007014,-0.652413,-0.146138,-0.067789,0.328247,0.240326,-0.476792,-0.779209,64.491697,3.526956,-132.087504
19061,NaN,-0.443250,8.802983,5.365878,-0.883492,0.543848,0.454006,-0.591360,-0.063909,-0.039586,0.328605,0.239211,-0.474540,-0.780774,64.150468,3.535495,-132.134235
19062,NaN,-0.540701,9.222942,5.744549,-0.914296,0.657117,1.007979,-0.547630,-0.013270,0.007864,0.329194,0.238275,-0.472473,-0.782065,63.843425,3.532978,-132.143359
19063,NaN,-1.183971,9.341649,5.945711,-0.542915,1.171586,1.248597,-0.524419,0.002886,0.021762,0.329866,0.237382,-0.470439,-0.783279,63.543516,3.526432,-132.140210
19064,NaN,-1.379696,9.519285,6.051640,-0.387987,1.280660,1.472337,-0.528161,-0.053375,0.017118,0.330368,0.236296,-0.468519,-0.784545,63.246516,3.508789,-132.167513
19065,NaN,-1.581297,9.651106,5.969426,-0.107690,1.298834,1.570611,-0.566057,-0.120947,0.006900,0.330736,0.234880,-0.466500,-0.786017,62.918534,3.477827,-132.231562
19066,NaN,-1.716633,9.920852,5.876640,0.181969,1.209203,1.780814,-0.629394,-0.176354,-0.055153,0.330781,0.233308,-0.464293,-0.787771,62.558616,3.464407,-132.340411
19067,NaN,-1.620547,10.112509,5.739152,0.328754,0.935261,1.885322,-0.735942,-0.195531,-0.164411,0.330491,0.231711,-0.461517,-0.789992,62.128191,3.499833,-132.487655
19068,NaN,-1.479090,10.165571,5.597986,0.405373,0.654227,1.860815,-0.880276,-0.169944,-0.321526,0.329780,0.230359,-0.457986,-0.792735,61.620096,3.621104,-132.665140
19069,NaN,-1.694969,10.239618,5.510334,0.696159,0.629401,1.900728,-1.066466,-0.123461,-0.505551,0.328671,0.229276,-0.453367,-0.796157,60.995853,3.845223,-132.870853
19070,NaN,-2.572507,10.102663,5.368750,1.409771,1.102142,1.776117,-1.301014,-0.131184,-0.709281,0.326968,0.228251,-0.447621,-0.800393,60.238844,4.167061,-133.140924
19071,NaN,-3.734720,9.927024,5.222947,2.322762,1.756685,1.645417,-1.532836,-0.259048,-0.931358,0.324350,0.226793,-0.440825,-0.805627,59.330248,4.557484,-133.543292
19072,NaN,-4.842404,9.579832,4.941770,3.254143,2.325272,1.306722,-1.777704,-0.516852,-1.176063,0.320405,0.224440,-0.433186,-0.811984,58.268306,4.984905,-134.152439
19073,NaN,-5.493522,8.934391,4.881207,3.659323,2.777610,0.804045,-1.995499,-0.833343,-1.475675,0.314770,0.221048,-0.424723,-0.819554,57.046789,5.447949,-135.016477
19074,NaN,-5.788032,8.100665,4.948596,3.697560,3.112482,0.199408,-2.149308,-1.179485,-1.771965,0.307279,0.216601,-0.415810,-0.828110,55.710087,5.923445,-136.151794
19075,NaN,-5.867519,7.583370,5.200653,3.596534,3.248730,-0.041190,-2.233783,-1.469266,-2.041633,0.298093,0.211312,-0.406545,-0.837383,54.283195,6.403056,-137.525444
19076,NaN,-6.025505,7.184966,5.090846,3.824851,3.171609,-0.370932,-2.319573,-1.660325,-2.262422,0.287582,0.205496,-0.396896,-0.847078,52.781936,6.884126,-139.076370
19077,NaN,-6.298659,6.740138,5.005059,4.115986,3.195794,-0.703022,-2.313655,-1.798120,-2.488535,0.275740,0.199467,-0.387049,-0.856956,51.244687,7.378196,-140.784723
19078,NaN,-6.243962,6.156957,4.942622,4.096472,3.103106,-1.158090,-2.274886,-1.812394,-2.667701,0.262953,0.193715,-0.377113,-0.866670,49.709828,7.900155,-142.579592
19079,NaN,-6.350024,6.069114,5.215379,4.169957,3.014696,-0.988462,-2.227650,-1.820537,-2.881852,0.249074,0.188303,-0.366980,-0.876259,48.164033,8.464353,-144.476048
19080,NaN,-6.281613,5.758617,5.358636,4.103297,2.877577,-1.083172,-2.209148,-1.860990,-3.030598,0.234343,0.182941,-0.356735,-0.885639,46.603052,9.023715,-146.464951
19081,NaN,-6.172627,5.268550,5.218976,4.089284,2.688677,-1.498076,-2.118733,-1.953057,-3.172958,0.218629,0.177440,-0.346653,-0.894734,45.050045,9.552232,-148.568429
19082,NaN,-5.614059,5.062400,4.884872,3.849339,2.007456,-1.929194,-2.000239,-2.043900,-3.247507,0.202217,0.171717,-0.337028,-0.903346,43.539427,10.016638,-150.755457
19083,NaN,-4.596523,4.694700,4.405012,3.196306,1.196185,-2.677046,-1.866846,-2.104517,-3.313288,0.185194,0.165878,-0.327795,-0.911448,42.070099,10.426124,-153.010262
19084,NaN,-3.591610,4.311675,4.231886,2.369103,0.659684,-3.228924,-1.720521,-2.126763,-3.380370,0.167623,0.160111,-0.319095,-0.918937,40.667176,10.794581,-155.314286
19085,NaN,-2.946603,4.158598,4.254243,1.798217,0.289953,-3.428847,-1.562715,-2.140662,-3.417455,0.149649,0.154389,-0.310895,-0.925804,39.327888,11.117303,-157.652459
19086,NaN,-2.373761,4.289657,4.395369,1.275375,-0.148626,-3.354857,-1.382759,-2.184989,-3.421274,0.131385,0.148536,-0.303470,-0.931977,38.081864,11.368721,-160.016290
19087,NaN,-1.667164,4.510318,4.291275,0.700735,-0.781976,-3.453994,-1.219402,-2.161893,-3.345748,0.113322,0.142710,-0.296655,-0.937437,36.920969,11.556186,-162.345035
19088,NaN,-1.127765,4.742381,4.101359,0.269160,-1.362691,-3.595578,-1.021791,-2.055962,-3.264716,0.095613,0.137319,-0.290696,-0.942071,35.887365,11.720579,-164.602068
19089,NaN,-0.847164,4.740926,4.402687,-0.129683,-1.384874,-3.437572,-0.771405,-1.922663,-3.221556,0.078088,0.132551,-0.285717,-0.945885,34.996664,11.895857,-166.798648
19090,NaN,-0.681711,5.047899,5.046094,-0.501994,-1.423140,-2.803330,-0.507883,-1.840275,-3.137139,0.060883,0.128115,-0.281960,-0.948883,34.270839,12.052011,-168.929289
19091,NaN,-0.511200,5.474009,5.679341,-0.872982,-1.543078,-2.109611,-0.300385,-1.834512,-3.006583,0.044148,0.123534,-0.279126,-0.951251,33.666055,12.144469,-170.998738
19092,NaN,-0.634740,5.751777,6.378642,-0.976577,-1.439076,-1.377762,-0.162428,-1.857539,-2.863262,0.027968,0.118645,-0.277008,-0.953104,33.157802,12.161462,-173.005307
19093,NaN,-0.834605,5.988610,6.893323,-0.944453,-1.387013,-0.798148,-0.086695,-1.875814,-2.725504,0.012364,0.113442,-0.275208,-0.954588,32.700398,12.109216,-174.951232
19094,NaN,-0.305301,6.415356,7.203230,-1.575423,-1.658500,-0.436982,-0.037210,-1.825932,-2.534537,-0.002289,0.108200,-0.273726,-0.955699,32.303276,12.009110,-176.784738
19095,NaN,0.153789,6.591618,7.440700,-2.111997,-1.711895,-0.249952,0.062218,-1.664500,-2.280250,-0.015560,0.103341,-0.272751,-0.956392,31.997415,11.897221,-178.441686
19096,NaN,-0.117330,6.788975,7.338388,-1.873553,-1.913471,-0.180230,0.175155,-1.475300,-2.040776,-0.027482,0.099047,-0.272453,-0.956663,31.801787,11.799339,-179.918707
19097,NaN,-0.303208,7.139815,6.978660,-1.700139,-2.383368,-0.262844,0.279444,-1.336049,-1.818992,-0.038201,0.095070,-0.272698,-0.956629,31.694355,11.696493,178.757268
19098,NaN,-0.244023,7.386703,6.683179,-1.779423,-2.722724,-0.394192,0.322767,-1.203366,-1.602254,-0.047719,0.091430,-0.273291,-0.956387,31.649672,11.593550,177.583601
19099,NaN,-0.059630,7.383469,6.731966,-2.001726,-2.656581,-0.390689,0.323717,-1.104802,-1.440913,-0.056324,0.088011,-0.273920,-0.956059,31.624903,11.486949,176.520114
19100,NaN,-0.049331,7.448261,7.152230,-2.105965,-2.454346,-0.005832,0.291691,-1.078681,-1.315542,-0.064278,0.084568,-0.274477,-0.955709,31.602923,11.357568,175.528412
19101,NaN,0.088414,7.526615,7.229538,-2.277969,-2.440238,0.075690,0.228735,-1.094825,-1.180278,-0.071572,0.080853,-0.274728,-0.955440,31.555383,11.176171,174.599014
19102,NaN,0.740375,7.414550,7.275054,-2.904585,-2.234374,-0.064815,0.156468,-1.030363,-1.033205,-0.078046,0.077288,-0.274737,-0.955225,31.491837,10.984276,173.763962
19103,NaN,1.055497,7.222126,7.327739,-3.179183,-1.986332,-0.173385,0.096357,-0.902052,-0.890653,-0.083629,0.074133,-0.274517,-0.955066,31.413485,10.808077,173.039189
19104,NaN,0.950617,6.996261,7.259617,-3.022437,-1.827504,-0.321720,0.034458,-0.764223,-0.766000,-0.088408,0.071515,-0.274130,-0.954946,31.325070,10.664480,172.419471
19105,NaN,0.859058,6.730853,7.367052,-2.884009,-1.549655,-0.347125,-0.003486,-0.638654,-0.653013,-0.092452,0.069327,-0.273620,-0.954871,31.230257,10.543945,171.894224
19106,NaN,0.537511,6.627420,7.604274,-2.564463,-1.376859,-0.139819,-0.046331,-0.538959,-0.544983,-0.095834,0.067515,-0.273014,-0.954841,31.130755,10.443203,171.453623
19107,NaN,0.424349,6.282219,7.646494,-2.374935,-1.085695,-0.257785,-0.061744,-0.479126,-0.437423,-0.098606,0.065816,-0.272368,-0.954862,31.033038,10.335041,171.084818
19108,NaN,0.402645,6.025498,7.834199,-2.299963,-0.778858,-0.223790,-0.052397,-0.413310,-0.326134,-0.100768,0.064307,-0.271862,-0.954883,30.957995,10.230039,170.791767
19109,NaN,0.357883,5.855118,8.249201,-2.231237,-0.427419,0.051322,-0.031324,-0.376101,-0.229863,-0.102416,0.062798,-0.271477,-0.954918,30.903183,10.110118,170.558071
19110,NaN,0.433730,5.763831,8.582528,-2.286984,-0.164248,0.277523,-0.003114,-0.344588,-0.147856,-0.103648,0.061349,-0.271295,-0.954931,30.876743,9.985935,170.374984
19111,NaN,0.485057,5.652637,8.866550,-2.305772,0.086746,0.457616,0.023259,-0.317391,-0.075084,-0.104492,0.059879,-0.271249,-0.954945,30.870742,9.848853,170.236463
19112,NaN,0.196911,5.337176,8.878244,-1.927167,0.309591,0.362653,0.071183,-0.345796,-0.035438,-0.105211,0.058233,-0.271453,-0.954910,30.897233,9.690995,170.109275
19113,NaN,0.155448,5.186687,8.626426,-1.805090,0.299208,0.086461,0.119386,-0.398706,0.006555,-0.105801,0.056212,-0.271845,-0.954854,30.949892,9.489744,169.987249
19114,NaN,0.128791,4.961718,8.466267,-1.680849,0.405472,-0.152299,0.164803,-0.443383,0.024384,-0.106393,0.053968,-0.272460,-0.954743,31.030954,9.266540,169.860512
19115,NaN,-0.044910,4.789713,8.275674,-1.419124,0.427722,-0.366361,0.206396,-0.522870,0.026240,-0.107080,0.051279,-0.273204,-0.954601,31.130054,8.998636,169.710744
19116,NaN,-0.065353,4.621021,8.092239,-1.302651,0.480302,-0.597776,0.258732,-0.608513,0.028821,-0.107899,0.048190,-0.274175,-0.954392,31.258713,8.693628,169.535999
19117,NaN,-0.302359,4.382106,7.908314,-0.953505,0.553424,-0.833827,0.316348,-0.676128,0.043650,-0.108737,0.044683,-0.275360,-0.954126,31.416715,8.346017,169.347775
19118,NaN,-0.533601,4.268624,7.755680,-0.636843,0.543351,-0.983459,0.391019,-0.722430,0.062297,-0.109580,0.040932,-0.276900,-0.953752,31.620484,7.976323,169.153650
19119,NaN,-0.449603,4.259175,7.563504,-0.647464,0.487924,-1.158694,0.457843,-0.729384,0.100387,-0.110246,0.037014,-0.278733,-0.953301,31.863264,7.586874,168.975081
19120,NaN,-0.715220,4.332372,7.199316,-0.339113,0.211535,-1.389447,0.539186,-0.656895,0.147661,-0.110615,0.033374,-0.281023,-0.952721,32.162072,7.224762,168.839991
19121,NaN,-1.009806,4.648121,7.016896,-0.063929,-0.166244,-1.337463,0.602025,-0.584286,0.189777,-0.110673,0.029940,-0.283628,-0.952056,32.500133,6.879951,168.746190
19122,NaN,-1.271257,5.087737,6.902251,0.148235,-0.595859,-1.166025,0.646454,-0.549642,0.209602,-0.110608,0.026663,-0.286487,-0.951304,32.868964,6.551992,168.670525
19123,NaN,-1.460530,5.499846,7.216814,0.304343,-0.748315,-0.657866,0.663656,-0.548507,0.214340,-0.110503,0.023330,-0.289399,-0.950523,33.245617,6.217937,168.595690
19124,NaN,-1.799440,5.894690,7.629390,0.619364,-0.855743,-0.061972,0.669320,-0.582545,0.210677,-0.110479,0.019881,-0.292337,-0.949704,33.626938,5.874921,168.505874
19125,NaN,-2.090834,6.223967,7.984506,0.912158,-0.928439,0.442407,0.699802,-0.639738,0.177359,-0.110681,0.016149,-0.295355,-0.948817,34.020256,5.510373,168.379829
19126,NaN,-2.057089,6.579590,8.179860,0.883318,-1.040973,0.797124,0.723734,-0.661878,0.138511,-0.111115,0.012399,-0.298487,-0.947842,34.427863,5.154288,168.225384
19127,NaN,-1.942702,6.956038,8.005442,0.757134,-1.358837,0.856298,0.739181,-0.636604,0.104756,-0.111653,0.008769,-0.301675,-0.946810,34.842125,4.816847,168.061085
19128,NaN,-1.931577,7.281917,7.844900,0.735285,-1.647332,0.913206,0.717892,-0.611443,0.040685,-0.112470,0.005407,-0.304789,-0.945741,35.245374,4.518841,167.872308
19129,NaN,-2.169885,7.637636,7.956742,0.959458,-1.858115,1.231676,0.651457,-0.629233,-0.039811,-0.113673,0.002082,-0.307549,-0.944716,35.606036,4.235313,167.638362
19130,NaN,-2.135254,7.765100,8.097826,0.964920,-1.820308,1.420561,0.582510,-0.671637,-0.110196,-0.115287,-0.001257,-0.309972,-0.943729,35.926857,3.962246,167.355440
19131,NaN,-1.990619,7.824827,7.947109,0.856117,-1.883470,1.325817,0.525131,-0.737201,-0.168748,-0.117261,-0.004820,-0.312063,-0.942785,36.211093,3.675050,167.022215
19132,NaN,-2.106492,8.311843,8.166334,0.934065,-2.128731,1.798032,0.431769,-0.828009,-0.257719,-0.119811,-0.008578,-0.313674,-0.941902,36.440730,3.382639,166.615422
19133,NaN,-1.135179,7.908853,8.507136,0.162141,-1.370569,1.776315,0.313996,-0.823493,-0.334971,-0.122705,-0.012161,-0.314713,-0.941144,36.601503,3.115218,166.174073
19134,NaN,-1.586513,7.814892,8.646980,0.680168,-1.311987,1.856748,0.220245,-0.795040,-0.363023,-0.125705,-0.015470,-0.315339,-0.940489,36.711704,2.876331,165.728636
19135,NaN,-0.895137,7.673705,8.539062,0.073627,-1.094059,1.650299,0.150474,-0.782784,-0.356343,-0.128640,-0.018725,-0.315624,-0.939937,36.782989,2.636781,165.290617
19136,NaN,-0.523749,7.221196,8.577090,-0.137853,-0.629313,1.393173,0.104833,-0.711946,-0.341853,-0.131414,-0.021603,-0.315748,-0.939450,36.832325,2.429918,164.882997
19137,NaN,-0.328521,7.005275,8.519346,-0.247071,-0.448216,1.209972,0.072220,-0.648588,-0.321029,-0.133976,-0.024231,-0.315740,-0.939027,36.864716,2.240574,164.507075
19138,NaN,-0.047931,6.873023,8.228999,-0.493291,-0.444174,0.888549,0.043711,-0.554585,-0.256947,-0.136106,-0.026464,-0.315662,-0.938686,36.885196,2.077123,164.192407
19139,NaN,-0.044295,6.664295,7.967122,-0.456368,-0.439572,0.554968,0.026939,-0.472070,-0.220234,-0.137918,-0.028392,-0.315543,-0.938406,36.897681,1.934262,163.923406
19140,NaN,-0.510774,6.484231,7.939195,0.053715,-0.451999,0.440591,0.011485,-0.463930,-0.198318,-0.139633,-0.030269,-0.315363,-0.938154,36.903207,1.792318,163.666802
19141,NaN,-0.664852,6.294839,8.107373,0.297613,-0.260798,0.465438,0.010565,-0.502240,-0.184665,-0.141326,-0.032382,-0.315137,-0.937906,36.908003,1.623472,163.403739
19142,NaN,-0.507212,6.267273,8.023569,0.169118,-0.252889,0.376571,0.000477,-0.523651,-0.170217,-0.143003,-0.034576,-0.314855,-0.937668,36.908491,1.444533,163.139482
19143,NaN,-0.032813,6.180710,8.052290,-0.227361,-0.042547,0.335614,-0.001875,-0.533890,-0.144876,-0.144560,-0.036891,-0.314537,-0.937448,36.908068,1.247570,162.883791
19144,NaN,-0.106592,5.999556,7.944783,-0.096537,0.001355,0.143024,-0.014104,-0.559279,-0.156159,-0.146226,-0.039262,-0.314154,-0.937221,36.901868,1.047456,162.613767
19145,NaN,0.192322,5.908106,7.972791,-0.321661,0.164504,0.105855,-0.044313,-0.564069,-0.193137,-0.148063,-0.041611,-0.313620,-0.937010,36.878418,0.853180,162.325674
19146,NaN,-0.133115,5.744645,7.972604,0.058504,0.174098,0.013159,-0.107235,-0.585400,-0.252287,-0.150237,-0.043885,-0.312795,-0.936836,36.819964,0.673857,162.002822
19147,NaN,-0.314350,5.696066,7.873127,0.253288,0.075293,-0.093626,-0.155953,-0.645048,-0.301516,-0.152728,-0.046360,-0.311693,-0.936681,36.733694,0.479017,161.637607
19148,NaN,-0.178979,5.635301,7.880325,0.167309,0.140618,-0.125568,-0.208612,-0.679025,-0.363187,-0.155587,-0.048821,-0.310339,-0.936535,36.618723,0.293650,161.232315
19149,NaN,-0.348667,5.526394,8.201670,0.442061,0.317545,0.068283,-0.247534,-0.716084,-0.425370,-0.158786,-0.051363,-0.308774,-0.936380,36.482143,0.106972,160.786617
19150,NaN,-0.250702,5.480476,8.690497,0.482724,0.621002,0.434475,-0.277238,-0.767126,-0.488649,-0.162379,-0.053987,-0.307049,-0.936183,36.330462,-0.078265,160.294399
19151,NaN,-0.066052,5.393937,8.815792,0.386256,0.777615,0.486002,-0.284378,-0.799072,-0.543945,-0.166264,-0.056703,-0.305262,-0.935925,36.175909,-0.265367,159.766732
19152,NaN,0.123155,5.343317,8.596114,0.204495,0.721479,0.281709,-0.270616,-0.792634,-0.571455,-0.170274,-0.059322,-0.303555,-0.935597,36.031444,-0.437054,159.228544
19153,NaN,0.129989,5.190959,8.445322,0.234194,0.721824,0.072169,-0.250568,-0.764133,-0.594543,-0.174324,-0.061823,-0.301954,-0.935207,35.899496,-0.593560,158.690060
19154,NaN,-0.014139,5.100494,8.188539,0.360447,0.566778,-0.188960,-0.222439,-0.761068,-0.593714,-0.178367,-0.064299,-0.300491,-0.934749,35.785613,-0.745569,158.152886
19155,NaN,-0.097982,5.041659,7.959181,0.427833,0.425918,-0.409927,-0.194989,-0.808937,-0.580752,-0.182393,-0.067076,-0.299090,-0.934226,35.688644,-0.929655,157.606383
19156,NaN,0.202517,5.015878,7.706130,0.125172,0.397367,-0.625153,-0.164495,-0.847983,-0.592059,-0.186531,-0.070010,-0.297803,-0.933605,35.611811,-1.124484,157.041413
19157,NaN,0.376361,4.891391,7.582829,0.000242,0.471176,-0.793565,-0.144628,-0.790986,-0.606836,-0.190626,-0.072707,-0.296648,-0.932939,35.547379,-1.292985,156.489160
19158,NaN,0.215589,4.967320,7.658531,0.165513,0.373022,-0.690887,-0.082419,-0.722126,-0.600809,-0.194578,-0.075115,-0.295850,-0.932186,35.519950,-1.427368,155.962360
19159,NaN,0.278813,5.216709,7.732404,0.072130,0.239129,-0.484268,0.003346,-0.757522,-0.578640,-0.198427,-0.077836,-0.295392,-0.931296,35.542578,-1.590119,155.434467
19160,NaN,0.681932,5.525351,7.545405,-0.413426,0.073772,-0.445125,0.039047,-0.810602,-0.547547,-0.202207,-0.080850,-0.295039,-0.930337,35.587887,-1.783197,154.902850
19161,NaN,1.518864,6.111039,7.431527,-1.362913,-0.065954,-0.168135,0.013062,-0.755930,-0.517070,-0.205755,-0.083661,-0.294591,-0.929452,35.618577,-1.965098,154.403884
19162,NaN,2.115432,6.815504,8.075158,-1.932795,0.002302,0.789132,-0.074938,-0.660149,-0.524177,-0.209242,-0.085890,-0.293841,-0.928708,35.599607,-2.095480,153.933133
19163,NaN,1.623201,6.827998,8.141628,-1.458836,-0.195090,0.835136,-0.187942,-0.635316,-0.490901,-0.212568,-0.087969,-0.292562,-0.928162,35.515851,-2.230470,153.486659
19164,NaN,1.735630,6.969599,7.821582,-1.694110,-0.428208,0.661637,-0.312360,-0.528781,-0.472345,-0.215719,-0.089410,-0.290817,-0.927845,35.360145,-2.318152,153.084116
19165,NaN,1.136590,6.850900,8.264342,-0.999449,-0.415567,0.927624,-0.412518,-0.379524,-0.492676,-0.218773,-0.090058,-0.288763,-0.927709,35.145774,-2.335407,152.722137
19166,NaN,0.207621,6.503082,9.105694,0.177415,-0.204044,1.375411,-0.446281,-0.412214,-0.492364,-0.221900,-0.090783,-0.286522,-0.927590,34.912655,-2.364683,152.349176
19167,NaN,0.478478,6.254348,8.807827,-0.066206,-0.086131,0.999882,-0.388609,-0.618614,-0.460904,-0.225131,-0.092610,-0.284292,-0.927317,34.715495,-2.507580,151.923950
19168,NaN,1.292355,6.244044,7.814860,-1.069817,-0.213175,0.214290,-0.289769,-0.650072,-0.464633,-0.228390,-0.094649,-0.282490,-0.926865,34.576473,-2.660497,151.486657
19169,NaN,0.876138,6.388964,7.015231,-0.995914,-0.922363,-0.380968,-0.203635,-0.512262,-0.462277,-0.231384,-0.096188,-0.281231,-0.926347,34.485810,-2.754882,151.095955
19170,NaN,0.630729,6.268231,6.717892,-0.830807,-1.104593,-0.707291,-0.166902,-0.442585,-0.477042,-0.234343,-0.097387,-0.280234,-0.925780,34.415684,-2.807234,150.720576
19171,NaN,0.778932,5.962942,6.972037,-0.768880,-0.693903,-0.663915,-0.118635,-0.435484,-0.536134,-0.237523,-0.098565,-0.279489,-0.925070,34.375267,-2.842353,150.319969
19172,NaN,0.640910,5.780784,7.827083,-0.311321,-0.229818,-0.068883,-0.087535,-0.465849,-0.587507,-0.240981,-0.099807,-0.278879,-0.924226,34.354088,-2.870546,149.884801
19173,NaN,0.131121,5.803377,8.505801,0.339198,-0.192556,0.477739,-0.113010,-0.530893,-0.624663,-0.244694,-0.101306,-0.278082,-0.923327,34.321245,-2.922596,149.411383
19174,NaN,0.212629,5.583274,8.573844,0.381063,0.027507,0.413894,-0.123856,-0.537912,-0.652170,-0.248562,-0.102744,-0.277240,-0.922387,34.282686,-2.964493,148.922268
19175,NaN,-0.103136,5.487375,8.729481,0.743738,-0.006854,0.471891,-0.091278,-0.512478,-0.676852,-0.252470,-0.104108,-0.276584,-0.921370,34.264005,-2.991428,148.430058
19176,NaN,0.310490,5.055839,9.054530,0.681112,0.657939,0.519090,-0.067472,-0.520310,-0.660958,-0.256315,-0.105520,-0.276018,-0.920316,34.258213,-3.022504,147.942463
19177,NaN,1.039140,5.085101,8.415292,-0.151761,0.728347,0.046404,-0.033077,-0.463034,-0.609281,-0.259805,-0.106820,-0.275647,-0.919298,34.270807,-3.047799,147.498224
19178,NaN,0.662311,5.663788,8.010427,-0.210131,-0.068872,0.017633,-0.071262,-0.387684,-0.561360,-0.263003,-0.107750,-0.275175,-0.918422,34.258404,-3.048173,147.100680
19179,NaN,0.836578,5.194373,8.185098,-0.097489,0.434657,-0.092668,-0.109112,-0.376071,-0.537692,-0.266079,-0.108647,-0.274523,-0.917625,34.224297,-3.055552,146.718467
19180,NaN,1.006262,5.205313,7.982684,-0.312941,0.424459,-0.244355,-0.119325,-0.371974,-0.478199,-0.268894,-0.109553,-0.273799,-0.916912,34.182097,-3.075690,146.365448
19181,NaN,1.096901,5.091142,7.190234,-0.610448,0.199685,-0.957754,-0.067095,-0.374918,-0.407985,-0.271345,-0.110677,-0.273265,-0.916214,34.169055,-3.124734,146.045158
19182,NaN,0.834448,5.346969,6.638633,-0.693064,-0.369580,-1.283860,-0.001283,-0.317218,-0.332856,-0.273350,-0.111689,-0.273072,-0.915553,34.190225,-3.165846,145.778769
19183,NaN,0.431587,5.756311,6.655911,-0.528401,-0.874607,-1.061780,-0.004457,-0.338088,-0.306340,-0.275247,-0.112868,-0.272816,-0.914916,34.210373,-3.230075,145.518549
19184,NaN,0.895922,5.897852,7.196989,-0.776812,-0.475784,-0.509238,-0.064133,-0.309271,-0.332236,-0.277271,-0.113757,-0.272344,-0.914335,34.195854,-3.267512,145.254974
19185,NaN,0.960378,6.020386,7.658257,-0.723086,-0.327400,-0.056345,-0.160447,-0.194242,-0.360733,-0.279306,-0.113987,-0.271602,-0.913908,34.125902,-3.246211,145.015300
19186,NaN,0.831762,5.910625,8.255902,-0.371372,-0.072202,0.367885,-0.244559,-0.093510,-0.373086,-0.281323,-0.113582,-0.270626,-0.913629,34.005017,-3.168762,144.801762
19187,NaN,0.245205,6.099346,8.434861,0.059557,-0.472916,0.588357,-0.264822,-0.032494,-0.367068,-0.283224,-0.112918,-0.269636,-0.913417,33.872136,-3.069495,144.610821
19188,NaN,0.066320,6.327858,8.742379,0.176135,-0.613354,0.960799,-0.309767,0.025384,-0.359013,-0.285050,-0.111896,-0.268519,-0.913304,33.710813,-2.940938,144.441605
19189,NaN,0.327429,6.054379,9.131373,0.186877,-0.117811,1.146130,-0.353807,0.108805,-0.346753,-0.286716,-0.110485,-0.267309,-0.913309,33.523467,-2.781678,144.304706
19190,NaN,-0.230435,6.033396,9.309800,0.662911,-0.362642,1.257820,-0.348376,0.179374,-0.339736,-0.288265,-0.108729,-0.266222,-0.913349,33.336400,-2.586641,144.192616
19191,NaN,-0.200467,6.119593,9.307726,0.544010,-0.414021,1.307373,-0.359570,0.228720,-0.321529,-0.289655,-0.106794,-0.265142,-0.913452,33.142738,-2.378644,144.104472
19192,NaN,-0.129024,6.153231,9.062066,0.326839,-0.506527,1.125149,-0.382779,0.286124,-0.284216,-0.290824,-0.104573,-0.264018,-0.913663,32.932817,-2.150448,144.051145
19193,NaN,0.107201,6.302088,8.911614,-0.047309,-0.542459,1.089047,-0.415148,0.321225,-0.268147,-0.291874,-0.102203,-0.262786,-0.913952,32.704758,-1.915023,144.015931
19194,NaN,0.159226,5.997276,8.768181,-0.055443,-0.369532,0.804925,-0.426769,0.352598,-0.265555,-0.292888,-0.099638,-0.261544,-0.914267,32.468324,-1.660921,143.990358
19195,NaN,0.158540,5.799301,8.334692,-0.167135,-0.420825,0.332201,-0.402985,0.404897,-0.250098,-0.293734,-0.096925,-0.260477,-0.914592,32.246111,-1.390771,143.987633
19196,NaN,0.028931,5.796817,7.926096,-0.257629,-0.669537,-0.019223,-0.394852,0.416724,-0.242998,-0.294540,-0.094140,-0.259459,-0.914913,32.027102,-1.112640,143.990567
19197,NaN,0.036216,5.963869,7.848565,-0.431141,-0.817267,0.001327,-0.426276,0.402092,-0.255814,-0.295421,-0.091396,-0.258279,-0.915240,31.791692,-0.842111,143.982077
19198,NaN,0.434252,5.644843,7.937081,-0.630030,-0.329840,-0.089313,-0.427355,0.442784,-0.236828,-0.296175,-0.088451,-0.257143,-0.915606,31.553983,-0.553114,143.993608
19199,NaN,0.574530,5.487071,8.341471,-0.602959,0.029324,0.169966,-0.399518,0.541719,-0.182221,-0.296522,-0.085201,-0.256255,-0.916051,31.333400,-0.236401,144.060610
19200,NaN,0.404112,5.398509,8.704163,-0.376642,0.145905,0.429682,-0.344076,0.593777,-0.107384,-0.296446,-0.081851,-0.255662,-0.916546,31.143395,0.088182,144.178228
19201,NaN,0.629399,5.146641,9.062014,-0.391084,0.610451,0.602599,-0.286258,0.655577,-0.002758,-0.295770,-0.078475,-0.255381,-0.917138,30.988977,0.408093,144.364870
19202,NaN,0.693215,5.272097,9.253003,-0.519135,0.653698,0.826689,-0.260344,0.799541,0.121074,-0.294342,-0.074596,-0.255378,-0.917922,30.850059,0.767207,144.653567
19203,NaN,0.376044,5.372818,9.382842,-0.352214,0.474778,0.989913,-0.262236,1.018117,0.210488,-0.292205,-0.069863,-0.255649,-0.918901,30.715318,1.203860,145.049947
19204,NaN,0.617229,5.153202,9.549827,-0.488696,0.868852,1.010477,-0.227589,1.280765,0.296017,-0.289330,-0.064041,-0.256423,-0.920018,30.605458,1.750341,145.563997
19205,NaN,0.066667,5.188344,9.523029,-0.169218,0.564720,1.016096,-0.229204,1.499093,0.354488,-0.285878,-0.057324,-0.257473,-0.921247,30.504544,2.383826,146.170116
19206,NaN,-0.192938,4.979987,9.494446,0.019871,0.607858,0.892940,-0.252738,1.620882,0.306375,-0.282493,-0.049906,-0.258587,-0.922410,30.396497,3.097174,146.786570
19207,NaN,-0.173422,4.863383,9.305710,-0.116018,0.674486,0.666270,-0.261679,1.695943,0.202732,-0.279457,-0.042033,-0.259770,-0.923394,30.290584,3.874092,147.372970
19208,NaN,-0.305480,4.834486,9.095531,-0.177820,0.589696,0.473851,-0.264495,1.737320,0.077255,-0.276940,-0.033758,-0.261007,-0.924143,30.186366,4.713461,147.907757
19209,NaN,-1.008155,4.985570,8.387830,0.061528,-0.154295,-0.004592,-0.197056,1.590168,-0.106453,-0.275420,-0.026054,-0.262362,-0.924463,30.117424,5.528839,148.308441
19210,NaN,-1.195357,5.050834,8.009654,-0.000863,-0.418755,-0.277603,-0.197645,1.300791,-0.250744,-0.274945,-0.019457,-0.263323,-0.924493,30.036525,6.247451,148.552679
19211,NaN,-1.171260,5.087909,7.673200,-0.199290,-0.550579,-0.550236,-0.239977,0.992094,-0.371503,-0.275415,-0.014108,-0.263663,-0.924354,29.917971,6.843128,148.647132
19212,NaN,-0.849840,5.170087,7.479721,-0.633374,-0.506893,-0.716561,-0.263761,0.797353,-0.439837,-0.276465,-0.009497,-0.263625,-0.924110,29.774451,7.366441,148.649681
19213,NaN,-0.828120,4.963634,7.226903,-0.669008,-0.448757,-1.043306,-0.272564,0.790622,-0.442215,-0.277516,-0.004940,-0.263530,-0.923857,29.626352,7.882377,148.648248
19214,NaN,-1.070944,5.024016,7.154067,-0.587458,-0.628565,-1.047558,-0.278755,0.876273,-0.419445,-0.278357,0.000030,-0.263521,-0.923620,29.478558,8.439268,148.680891
19215,NaN,-1.147361,4.639620,7.242417,-0.397951,-0.326339,-1.150730,-0.273852,1.010180,-0.376328,-0.278800,0.005515,-0.263712,-0.923416,29.343949,9.046217,148.772609
19216,NaN,-1.207992,4.687284,7.509881,-0.426904,-0.226013,-0.891142,-0.243670,1.152154,-0.288719,-0.278656,0.011538,-0.264234,-0.923254,29.240095,9.704461,148.947383
19217,NaN,-1.428682,4.666460,7.742165,-0.298640,-0.166797,-0.667195,-0.226942,1.301203,-0.205423,-0.277908,0.018075,-0.265036,-0.923145,29.163717,10.409499,149.206641
19218,NaN,-1.700449,4.709341,8.001022,-0.168103,-0.153711,-0.376978,-0.207959,1.434724,-0.118107,-0.276581,0.025125,-0.266105,-0.923071,29.115654,11.162010,149.547569
19219,NaN,-1.751023,4.888282,8.111012,-0.320735,-0.190099,-0.189310,-0.188671,1.591481,-0.041839,-0.274666,0.032729,-0.267475,-0.923008,29.101210,11.967174,149.973140
19220,NaN,-2.622496,5.018216,8.185819,0.237124,-0.598481,0.119658,-0.155434,1.725068,0.060226,-0.272102,0.040805,-0.269179,-0.922951,29.130350,12.815446,150.489978
19221,NaN,-2.782835,5.180954,8.194757,0.167786,-0.701481,0.248045,-0.121104,1.869524,0.154190,-0.268881,0.049332,-0.271236,-0.922876,29.209124,13.704558,151.099769
19222,NaN,-2.741084,5.333322,8.303560,-0.068793,-0.639119,0.409424,-0.123942,2.034171,0.258022,-0.264945,0.058517,-0.273500,-0.922810,29.320331,14.650620,151.813962
19223,NaN,-1.781596,4.949435,8.156090,-0.829699,0.090501,-0.143476,-0.065560,2.301285,0.335412,-0.260258,0.068704,-0.276378,-0.922584,29.510540,15.701738,152.652526
19224,NaN,-1.682721,5.227564,7.818853,-1.214107,-0.145427,-0.336651,-0.045693,2.609937,0.387465,-0.254885,0.080246,-0.279724,-0.922144,29.762450,16.893363,153.617447
19225,NaN,-2.159501,5.377926,7.510939,-1.038931,-0.516329,-0.397249,-0.054428,2.810235,0.392047,-0.249145,0.092661,-0.283234,-0.921477,30.052797,18.173958,154.657667
19226,NaN,-2.071939,5.800000,7.222675,-1.488164,-0.836476,-0.475543,-0.168945,2.969903,0.350324,-0.243280,0.106034,-0.286336,-0.920643,30.312682,19.545695,155.738447
19227,NaN,-1.375410,5.165014,7.805266,-1.985086,0.323639,-0.569229,-0.293790,3.167084,0.355772,-0.236968,0.120392,-0.289038,-0.919679,30.554871,21.003820,156.899736
19228,NaN,-3.313013,4.962255,8.321262,-0.478580,0.169162,0.413767,-0.400261,3.093088,0.348024,-0.230690,0.134559,-0.291085,-0.918665,30.758578,22.428444,158.050313
19229,NaN,-4.323592,4.400140,8.246420,0.461500,0.298744,0.470849,-0.473019,2.773578,0.285733,-0.225048,0.147360,-0.292322,-0.917707,30.899768,23.705768,159.082209
19230,NaN,-4.263707,4.348591,8.132973,0.252846,0.390382,0.336931,-0.452980,2.443566,0.238077,-0.220097,0.158711,-0.293193,-0.916737,31.022254,24.837954,159.993798
19231,NaN,-4.682276,4.350620,7.650281,0.516330,0.051790,0.142541,-0.416962,2.120776,0.196630,-0.215793,0.168540,-0.293801,-0.915810,31.130856,25.817192,160.788208
19232,NaN,-4.470760,4.379156,7.375942,0.227343,-0.000941,-0.142337,-0.401524,1.917002,0.234223,-0.211621,0.177387,-0.294260,-0.914965,31.242174,26.689131,161.543464
19233,NaN,-3.854991,4.341565,7.027488,-0.333492,0.048010,-0.703312,-0.383386,1.878651,0.263084,-0.207355,0.185941,-0.294758,-0.914083,31.379355,27.527182,162.310115
19234,NaN,-2.896158,4.801650,6.549741,-1.385744,-0.278708,-1.307199,-0.423046,2.088514,0.320076,-0.202475,0.195431,-0.295315,-0.913017,31.556111,28.453931,163.187637
19235,NaN,-1.810569,4.962493,6.172603,-2.415265,-0.318881,-2.062293,-0.511860,2.568646,0.366957,-0.196542,0.207065,-0.295955,-0.911540,31.795116,29.592733,164.269476
19236,NaN,-2.535425,5.034566,6.182320,-1.995744,-0.497735,-1.703248,-0.565142,3.026028,0.395400,-0.189721,0.220792,-0.296770,-0.909497,32.122807,30.945741,165.547418
19237,NaN,-4.205671,5.396607,6.530906,-1.061825,-0.846571,-0.452353,-0.678365,3.168439,0.375940,-0.182590,0.235204,-0.297109,-0.907230,32.447960,32.361930,166.893676
19238,NaN,-5.940737,5.285578,6.540646,0.215660,-1.004045,0.431875,-0.825464,2.974845,0.396498,-0.175448,0.248825,-0.296553,-0.905185,32.699110,33.677971,168.209040
19239,NaN,-5.952126,5.013725,6.469121,0.183050,-0.764895,0.276561,-0.998805,2.744050,0.408724,-0.168323,0.261436,-0.294958,-0.903504,32.844244,34.869731,169.470161
19240,NaN,-4.901118,4.048486,6.540984,-0.436171,0.235767,-0.705176,-1.062691,2.789255,0.503482,-0.160597,0.274150,-0.293170,-0.901722,33.029697,36.056174,170.826671
19241,NaN,-4.705600,3.570411,6.316791,-0.476162,0.548188,-1.195165,-1.012778,3.064956,0.696107,-0.151613,0.287674,-0.292018,-0.899435,33.417206,37.303333,172.435033
19242,NaN,-4.216588,3.105321,6.265894,-0.837850,1.002362,-1.752105,-0.902273,3.528066,0.900613,-0.141159,0.302851,-0.291919,-0.896180,34.115842,38.699184,174.397427
19243,NaN,-3.831847,3.178846,6.158271,-1.340941,0.989828,-2.071293,-0.791445,4.070234,1.062670,-0.129285,0.319977,-0.292823,-0.891714,35.168951,40.268611,176.756054
19244,NaN,-3.223402,3.307823,6.156772,-2.100162,0.994257,-2.475638,-0.760299,4.658238,1.243005,-0.115743,0.339315,-0.294384,-0.885893,36.606677,42.016157,179.591764
19245,NaN,-3.220653,3.246675,5.180434,-1.802133,0.540314,-3.164012,-0.736441,5.215722,1.451876,-0.100404,0.360530,-0.296525,-0.878641,38.494347,43.875870,-177.028044
19246,NaN,-3.339664,5.830518,3.445403,-1.920698,-2.470076,-2.940551,-0.801871,5.545145,1.553211,-0.083949,0.382833,-0.298495,-0.870225,40.731314,45.759567,-173.213949
19247,NaN,-5.228460,6.153591,5.602600,-2.279807,-1.220987,-0.331325,-1.426028,5.687262,1.447159,-0.066460,0.405794,-0.297340,-0.861686,42.874066,47.634097,-169.155672
19248,NaN,-9.215159,3.698865,5.326706,1.052922,1.292889,1.330656,-1.499850,5.287355,1.276927,-0.050108,0.427009,-0.295140,-0.853255,44.984773,49.312246,-165.199000
19249,NaN,-7.572441,4.048468,3.608440,0.735535,0.009436,-0.528241,-1.406838,5.122633,1.369210,-0.033750,0.446990,-0.293257,-0.844429,47.351926,50.777642,-161.067093
19250,NaN,-6.585553,5.305249,2.798429,0.072527,-1.469953,-1.027864,-1.401947,5.376273,1.496417,-0.016483,0.467546,-0.291498,-0.834361,50.169549,52.168070,-156.449029
19251,NaN,-6.494308,4.535524,1.887374,0.712638,-1.117264,-1.778765,-1.399936,5.904307,1.612490,0.002062,0.489670,-0.289790,-0.822339,53.630023,53.528652,-151.108693
19252,NaN,-8.869060,4.825340,1.309268,2.027949,-0.679791,0.140346,-1.321493,6.144844,1.675486,0.021005,0.512236,-0.288268,-0.808749,57.644522,54.728999,-145.230978
19253,NaN,-9.990178,4.860696,1.104449,2.337595,-0.091922,1.102997,-1.304881,5.911261,1.571908,0.039143,0.533450,-0.286272,-0.794951,61.753492,55.661828,-139.323571
19254,NaN,-10.898976,4.546966,1.306443,2.201741,0.922457,1.825431,-1.230325,5.374351,1.412065,0.055630,0.552339,-0.284003,-0.781773,65.673245,56.305655,-133.754173
19255,NaN,-9.745046,4.414872,1.521429,1.199040,0.929479,0.885674,-1.178383,4.774075,1.275083,0.070558,0.568655,-0.281510,-0.769679,69.231933,56.682346,-128.682883
19256,NaN,-7.926715,3.824765,1.303756,0.583263,0.757765,-0.967419,-1.008892,4.343548,1.073721,0.083571,0.583362,-0.279093,-0.758164,72.558470,56.921084,-124.026054
19257,NaN,-7.958502,4.131104,1.104747,0.448166,0.601525,-0.809690,-0.799984,4.120277,0.919096,0.095045,0.597207,-0.276961,-0.746728,75.811892,57.061507,-119.605650
19258,NaN,-8.771404,4.571785,1.023517,0.386236,0.737104,0.096180,-0.707495,3.867022,0.819503,0.105470,0.610063,-0.274890,-0.735619,78.907793,57.093924,-115.443703
19259,NaN,-8.558447,4.783088,0.810481,0.232052,0.535192,0.007415,-0.702045,3.722188,0.823172,0.115660,0.622118,-0.272807,-0.724686,81.864807,56.989819,-111.445717
19260,NaN,-7.343759,4.791998,0.628005,-0.081075,-0.007198,-1.022001,-0.746834,3.916420,0.923226,0.126562,0.634498,-0.270665,-0.712836,84.948574,56.727845,-107.261010
19261,NaN,-6.135504,4.723598,0.384439,-0.255321,-0.520680,-2.082030,-0.720127,4.484407,1.017324,0.138431,0.648460,-0.268413,-0.698778,88.460414,56.299178,-102.561370
19262,NaN,-5.437777,4.970236,0.053824,-0.283834,-1.042549,-2.525578,-0.619698,5.299411,1.193915,0.151587,0.664714,-0.266363,-0.681343,92.595275,55.592721,-97.152152
19263,NaN,-4.856833,5.419791,-0.106167,-0.480426,-1.624597,-2.734768,-0.595997,6.286212,1.394143,0.166532,0.683458,-0.264058,-0.659868,97.288173,54.492176,-91.016637
19264,NaN,-6.698612,5.652809,-0.594439,-0.352859,-0.632132,-1.058460,-0.477306,6.997663,1.469826,0.182058,0.703780,-0.261518,-0.634946,102.217579,52.987351,-84.575988
19265,NaN,-8.610573,6.866385,-1.459815,-0.272954,-0.291692,1.288096,-0.496201,7.178252,1.433953,0.197542,0.723757,-0.258269,-0.608646,106.782703,51.167818,-78.436464
19266,NaN,-8.733310,7.542020,-3.100230,0.657122,-0.522873,2.104698,-0.637522,6.919960,1.215200,0.212274,0.742181,-0.253734,-0.582860,110.666965,49.240125,-72.917399
19267,NaN,-7.957262,7.183844,-5.036826,2.192890,-0.393179,1.819220,-0.694244,6.343792,0.921897,0.225398,0.758371,-0.248253,-0.558963,113.825106,47.382547,-68.162814
19268,NaN,-8.318435,6.817428,-6.449706,3.006503,0.502883,2.350924,-0.651807,5.379293,0.639308,0.236166,0.771613,-0.242699,-0.538457,116.246866,45.751956,-64.324599
19269,NaN,-9.277642,6.974815,-7.444316,3.191700,1.342088,3.533975,-0.656841,4.114955,0.337896,0.244475,0.781339,-0.237304,-0.522904,117.894860,44.515299,-61.475099
19270,NaN,-8.616955,6.847882,-8.285377,3.874222,1.333307,3.340140,-0.660777,2.904629,0.036464,0.250490,0.788016,-0.232137,-0.512248,118.934571,43.711186,-59.448125
19271,NaN,-5.692376,6.741272,-8.503953,4.962986,-0.224911,1.389106,-0.693015,2.150450,-0.171193,0.255183,0.792810,-0.226959,-0.504801,119.606154,43.203399,-57.901776
19272,NaN,-2.935472,6.739384,-8.124550,5.586721,-1.864981,-0.574021,-0.709121,1.997799,-0.221214,0.259607,0.797175,-0.221723,-0.497951,120.192145,42.748914,-56.456882
19273,NaN,-2.343787,6.701188,-7.198791,4.930539,-2.256583,-1.279353,-0.699619,2.080653,-0.230014,0.264034,0.801664,-0.216331,-0.490737,120.800064,42.266049,-54.972238
19274,NaN,-3.465350,6.658587,-6.028693,3.342478,-1.690892,-0.943746,-0.729167,2.130053,-0.266354,0.268509,0.806186,-0.210640,-0.483320,121.403787,41.772472,-53.457122
19275,NaN,-4.415192,6.518254,-4.889668,1.847368,-1.204227,-0.811200,-0.776472,2.014000,-0.288140,0.272969,0.810279,-0.204868,-0.476409,121.912708,41.315316,-52.027915
19276,NaN,-4.291361,6.472742,-4.171497,1.211839,-1.370631,-1.189118,-0.794643,1.895883,-0.280498,0.277367,0.813976,-0.199231,-0.469913,122.343342,40.879888,-50.691283
19277,NaN,-4.309257,6.620606,-3.722904,0.748287,-1.551435,-1.251445,-0.766173,1.867143,-0.200355,0.281783,0.817471,-0.193998,-0.463361,122.738488,40.408908,-49.420000
19278,NaN,-5.147635,6.778879,-3.684318,0.229038,-1.160172,-0.613419,-0.716057,1.847985,-0.076887,0.286230,0.820800,-0.189401,-0.456603,123.106929,39.876543,-48.223448
19279,NaN,-6.361225,7.303666,-3.792463,-0.401515,-0.795464,0.550555,-0.699724,1.723732,0.019734,0.290691,0.823694,-0.185392,-0.450174,123.391226,39.333102,-47.158054
19280,NaN,-7.495568,8.176243,-3.974151,-0.965243,-0.715191,1.908421,-0.775919,1.577850,0.108852,0.295503,0.826007,-0.181782,-0.444236,123.539729,38.788676,-46.228464
19281,NaN,-8.164405,8.710512,-4.444160,-1.035594,-0.539792,2.872594,-0.726095,1.481683,0.099212,0.299985,0.828121,-0.178365,-0.438647,123.668546,38.279023,-45.363388
19282,NaN,-10.136642,8.774129,-5.299985,-1.503738,0.838888,4.500277,-0.538373,1.230961,-0.099464,0.303008,0.830105,-0.174909,-0.434187,123.853751,37.940567,-44.575311
19283,NaN,-10.774844,8.724184,-6.189758,-1.220982,1.548780,5.241596,-0.391818,1.096623,-0.208781,0.305060,0.832074,-0.171508,-0.430321,124.092281,37.696405,-43.829682
19284,NaN,-9.796250,8.500039,-6.594170,-0.417864,1.329897,4.670281,-0.382104,1.038992,-0.167614,0.307097,0.833880,-0.168388,-0.426593,124.302587,37.447356,-43.137696
19285,NaN,-8.849462,8.170073,-6.711623,0.151683,1.124346,3.928537,-0.454028,1.006132,-0.127352,0.309485,0.835437,-0.165319,-0.423006,124.443435,37.190142,-42.486048
19286,NaN,-8.203470,8.253433,-6.542070,0.328293,0.685378,3.515358,-0.632880,0.942388,-0.049761,0.312719,0.836501,-0.162298,-0.419682,124.438092,36.914381,-41.905208
19287,NaN,-6.671037,8.137432,-6.639197,1.278912,0.062208,2.563061,-0.906856,0.861671,0.149056,0.317441,0.836768,-0.159645,-0.416609,124.194055,36.573639,-41.454741
19288,NaN,-4.399066,7.104905,-6.339790,2.382431,-0.384935,0.395097,-1.150832,1.089906,0.283897,0.323629,0.836982,-0.156686,-0.412524,123.857215,36.095509,-40.922670
19289,NaN,-2.750092,6.633652,-5.367715,2.587854,-1.186033,-1.311182,-1.219473,1.489461,0.328531,0.330485,0.837800,-0.153106,-0.406731,123.602017,35.473003,-40.174863
19290,NaN,-3.947234,6.466488,-4.529708,1.148382,-0.683158,-1.087556,-1.178277,1.490444,0.273769,0.337026,0.838660,-0.149372,-0.400939,123.376565,34.877112,-39.406972
19291,NaN,-5.957998,5.508947,-4.040016,-0.569254,0.923958,-0.813263,-1.006861,1.161809,0.247808,0.342527,0.839099,-0.146409,-0.396424,123.137787,34.400949,-38.823284
19292,NaN,-5.930262,5.193673,-3.858449,-0.741096,1.115411,-1.138813,-0.790929,0.749068,0.356653,0.347018,0.838979,-0.145037,-0.393265,122.862242,34.001969,-38.520251
19293,NaN,-5.721410,5.467086,-3.563250,-0.848431,0.730439,-1.206490,-0.602777,0.409309,0.428698,0.350607,0.838438,-0.144915,-0.391274,122.567540,33.676399,-38.440768
19294,NaN,-5.957445,5.503096,-3.184506,-1.303755,0.700460,-1.226324,-0.390715,0.147904,0.493556,0.353239,0.837705,-0.145945,-0.390092,122.299119,33.398443,-38.534610
19295,NaN,-5.414363,5.606966,-3.127104,-1.001616,0.365953,-1.482333,-0.179027,-0.031389,0.582500,0.355024,0.836918,-0.148066,-0.389362,122.077221,33.133636,-38.763773
19296,NaN,-4.888779,5.737589,-3.483012,-0.401512,0.215387,-1.521509,-0.038342,-0.095118,0.694346,0.356387,0.836170,-0.151049,-0.388576,121.896992,32.831262,-39.067878
19297,NaN,-4.952202,5.695592,-3.795545,-0.225942,0.473942,-1.380942,0.031408,-0.179405,0.747610,0.357494,0.835326,-0.154530,-0.388006,121.721296,32.529610,-39.438312
19298,NaN,-5.471979,6.037440,-3.980019,-0.432225,0.650307,-0.778097,0.062618,-0.341813,0.756488,0.358357,0.834209,-0.158405,-0.388051,121.515585,32.269383,-39.902790
19299,NaN,-6.196988,6.654093,-3.577649,-1.202196,0.479109,-0.127437,0.020105,-0.524855,0.702817,0.359141,0.832682,-0.162290,-0.389000,121.240767,32.090448,-40.452315
19300,NaN,-5.840870,6.917023,-3.576289,-0.963636,0.158722,-0.127816,-0.064326,-0.521439,0.641075,0.360153,0.831051,-0.165753,-0.390091,120.933776,31.936367,-40.975639
19301,NaN,-5.162020,7.421483,-4.231801,-0.017890,-0.201853,0.166876,-0.171365,-0.254319,0.588407,0.361723,0.829774,-0.168296,-0.390267,120.657693,31.729821,-41.324727
19302,NaN,-5.924111,7.841311,-4.584907,-0.240479,0.159343,1.027937,-0.211510,0.066048,0.477942,0.363511,0.829142,-0.169731,-0.389327,120.479207,31.481021,-41.447973
19303,NaN,-6.302183,7.972348,-4.625694,-0.471153,0.352206,1.337497,-0.238128,0.279897,0.364425,0.365368,0.828962,-0.170243,-0.387745,120.369504,31.228223,-41.408516
19304,NaN,-6.670973,7.846886,-4.223296,-1.041105,0.500041,1.258788,-0.263561,0.272099,0.352000,0.367296,0.828733,-0.170679,-0.386218,120.246602,30.981668,-41.368217
19305,NaN,-6.717744,7.544908,-3.609041,-1.558329,0.482198,0.790038,-0.321912,0.166321,0.354342,0.369379,0.828178,-0.171193,-0.385193,120.057298,30.766859,-41.389728
19306,NaN,-6.457519,7.307959,-3.268587,-1.658645,0.374892,0.331161,-0.363872,0.133660,0.316525,0.371532,0.827517,-0.171540,-0.384386,119.842738,30.577736,-41.415929
19307,NaN,-7.018479,7.292662,-3.095597,-2.153252,0.662199,0.528954,-0.356102,0.079981,0.243484,0.373465,0.826819,-0.171687,-0.383951,119.628036,30.442743,-41.448879
19308,NaN,-6.951940,7.209048,-2.917247,-2.240463,0.627645,0.355717,-0.301905,-0.023844,0.180798,0.374963,0.826080,-0.171884,-0.383992,119.426355,30.365600,-41.519994
19309,NaN,-6.095464,7.144945,-2.994367,-1.617005,0.246297,-0.091797,-0.267457,-0.072796,0.155623,0.376227,0.825324,-0.172120,-0.384276,119.232692,30.317530,-41.611697
19310,NaN,-6.013226,7.433382,-3.576956,-1.104903,0.321495,0.330508,-0.266177,-0.080221,0.157066,0.377482,0.824561,-0.172393,-0.384562,119.039336,30.267574,-41.707129
19311,NaN,-5.739004,7.976256,-4.214923,-0.424990,0.150848,0.869959,-0.268026,-0.056492,0.197358,0.378841,0.823794,-0.172768,-0.384700,118.843629,30.193724,-41.802323
19312,NaN,-5.036980,7.780792,-4.148517,-0.022319,-0.127321,0.341390,-0.189884,0.061803,0.244561,0.380070,0.823369,-0.173278,-0.384168,118.721864,30.060143,-41.842685
19313,NaN,-4.887723,7.689410,-3.643991,-0.319506,-0.376454,-0.012092,-0.106013,0.076268,0.239880,0.380957,0.823125,-0.173886,-0.383538,118.651373,29.928066,-41.873721
19314,NaN,-5.348675,7.633953,-3.476353,-0.749442,-0.133579,0.106538,-0.118098,-0.095210,0.214095,0.381695,0.822558,-0.174707,-0.383646,118.530585,29.852747,-41.994946
19315,NaN,-5.082390,7.658715,-3.297264,-0.706572,-0.370156,-0.080153,-0.107960,-0.271371,0.203555,0.382216,0.821672,-0.175825,-0.384516,118.364486,29.833768,-42.215817
19316,NaN,-4.594579,7.675079,-3.331320,-0.355584,-0.627987,-0.294608,-0.041205,-0.333018,0.221472,0.382441,0.820785,-0.177277,-0.385518,118.218204,29.818757,-42.477116
19317,NaN,-4.966098,8.039565,-3.312046,-0.598269,-0.636034,0.162475,0.039758,-0.366420,0.270448,0.382399,0.819931,-0.179134,-0.386517,118.098938,29.790711,-42.774031
19318,NaN,-4.314954,7.923835,-3.384363,-0.128954,-0.892437,-0.218585,0.120413,-0.303639,0.329127,0.382193,0.819306,-0.181281,-0.387045,118.037583,29.712470,-43.051387
19319,NaN,-4.749208,8.216036,-2.958082,-0.743900,-1.011415,0.047945,0.166482,-0.316832,0.384546,0.381893,0.818678,-0.183754,-0.387504,117.988420,29.612638,-43.354351
19320,NaN,-4.471185,8.080557,-3.289422,-0.323236,-0.907483,-0.056709,0.162604,-0.396991,0.465997,0.381687,0.817815,-0.186719,-0.388109,117.904824,29.489676,-43.727526
19321,NaN,-4.358620,8.151364,-3.735650,0.079046,-0.782042,0.126098,0.204081,-0.344707,0.504748,0.381436,0.817078,-0.189807,-0.388412,117.852488,29.335738,-44.082753
19322,NaN,-4.879055,8.486747,-4.083797,0.002169,-0.487899,0.783033,0.198587,-0.393327,0.538622,0.381220,0.816205,-0.193128,-0.388821,117.782039,29.174262,-44.474651
19323,NaN,-5.161398,8.616804,-4.381560,0.047971,-0.222680,1.143378,0.104193,-0.528178,0.587822,0.381353,0.814820,-0.196706,-0.389800,117.610719,29.025931,-44.960115
19324,NaN,-5.725965,8.486159,-4.138066,-0.481680,0.141896,1.217849,0.016075,-0.730051,0.636388,0.381729,0.812822,-0.200706,-0.391561,117.329473,28.901680,-45.574962
19325,NaN,-5.951360,8.709017,-3.373852,-1.197985,-0.146593,1.196001,-0.158225,-0.982942,0.663519,0.382608,0.809933,-0.204937,-0.394489,116.872088,28.829011,-46.344967
19326,NaN,-6.258445,8.588467,-3.006252,-1.609270,0.042150,1.113175,-0.406584,-1.319767,0.700370,0.384196,0.805840,-0.209477,-0.398918,116.176220,28.813987,-47.320297
19327,NaN,-5.630828,7.750049,-2.769481,-1.306966,0.145387,0.072075,-0.562620,-1.557921,0.661413,0.386065,0.800944,-0.213976,-0.404546,115.325118,28.869764,-48.426180
19328,NaN,-5.469034,8.146593,-2.547276,-1.293117,-0.203628,0.239683,-0.719422,-1.707846,0.607306,0.388253,0.795443,-0.218227,-0.410983,114.349403,28.971382,-49.606459
19329,NaN,-4.952384,8.015928,-2.724476,-0.726947,-0.293032,-0.035797,-0.805983,-1.710104,0.607778,0.390753,0.789678,-0.222269,-0.417512,113.316672,29.058125,-50.792766
19330,NaN,-3.946390,7.805176,-2.713516,-0.065701,-0.763876,-0.687516,-0.771393,-1.483068,0.641808,0.393399,0.784361,-0.226071,-0.422974,112.368039,29.055502,-51.850932
19331,NaN,-3.530954,7.769477,-2.371546,-0.048979,-1.094442,-1.023171,-0.617223,-1.162679,0.674562,0.395853,0.779920,-0.229665,-0.426941,111.595562,28.955688,-52.723542
19332,NaN,-3.385581,7.832624,-2.278421,-0.002038,-1.198543,-1.062470,-0.459098,-0.873289,0.698716,0.398048,0.776363,-0.233125,-0.429502,111.003074,28.770869,-53.421104
19333,NaN,-3.625061,8.268708,-1.964441,-0.370803,-1.341917,-0.678526,-0.371508,-0.689463,0.667984,0.400050,0.773369,-0.236264,-0.431323,110.517693,28.562002,-53.997800
19334,NaN,-4.122114,8.336986,-1.938368,-0.625232,-0.969343,-0.382766,-0.323588,-0.654379,0.645177,0.401838,0.770572,-0.239358,-0.432958,110.079801,28.351803,-54.542979
19335,NaN,-4.088616,8.266318,-1.894176,-0.621517,-0.904183,-0.462155,-0.261807,-0.622489,0.658894,0.403460,0.767916,-0.242554,-0.434388,109.683990,28.126879,-55.070733
19336,NaN,-4.176812,8.441526,-1.475426,-1.013100,-1.042998,-0.391044,-0.218894,-0.639835,0.640358,0.404834,0.765332,-0.245818,-0.435832,109.317063,27.909844,-55.600363
19337,NaN,-4.512135,8.346904,-1.182046,-1.412377,-0.799026,-0.389646,-0.193752,-0.726956,0.618190,0.405962,0.762601,-0.249206,-0.437642,108.940161,27.720355,-56.178023
19338,NaN,-4.452645,8.557104,-0.930152,-1.586578,-0.994270,-0.304319,-0.128156,-0.787523,0.573370,0.406643,0.759927,-0.252700,-0.439653,108.595147,27.560922,-56.779139
19339,NaN,-3.811816,8.443021,-0.842032,-1.331671,-1.384923,-0.711482,-0.080644,-0.781137,0.533549,0.407070,0.757376,-0.256112,-0.441681,108.280208,27.421054,-57.368512
19340,NaN,-4.490358,8.799275,-0.847398,-1.643381,-1.013266,-0.087415,-0.076853,-0.855933,0.482778,0.407251,0.754735,-0.259502,-0.444050,107.957820,27.317125,-57.989847
19341,NaN,-4.458952,8.932873,-1.328926,-1.176622,-0.868923,0.152485,-0.118590,-1.049068,0.471647,0.407319,0.751551,-0.263128,-0.447243,107.554147,27.251514,-58.728690
19342,NaN,-3.049127,8.794350,-1.929851,0.045033,-1.591580,-0.441099,-0.171341,-1.015462,0.496869,0.407655,0.748299,-0.266669,-0.450282,107.134275,27.159675,-59.448281
19343,NaN,-2.741860,8.835885,-2.325777,0.568529,-1.656765,-0.435507,-0.291267,-0.900616,0.516596,0.408645,0.744988,-0.269757,-0.453027,106.672464,27.034688,-60.101778
19344,NaN,-2.991771,7.701955,-2.531542,0.710299,-0.753260,-1.233216,-0.272446,-0.799597,0.546130,0.409737,0.741908,-0.272799,-0.455268,106.255226,26.870906,-60.693989
19345,NaN,-3.011430,7.032709,-2.847883,1.027622,-0.237384,-1.717897,-0.054895,-0.613913,0.652083,0.410529,0.739511,-0.276329,-0.456325,106.002871,26.617523,-61.190897
19346,NaN,-4.823792,8.357032,-3.266875,0.583622,0.699062,0.333835,0.131404,-0.573466,0.664811,0.410688,0.737581,-0.280256,-0.456910,105.875976,26.347952,-61.660644
19347,NaN,-6.018185,9.189167,-3.505238,0.267167,1.354201,1.634606,0.135661,-0.708751,0.642966,0.410603,0.735342,-0.284371,-0.458052,105.713614,26.111689,-62.210262
19348,NaN,-6.343409,9.688899,-3.176947,-0.167616,1.302231,2.123911,0.107378,-0.823274,0.576983,0.410278,0.732882,-0.288420,-0.459751,105.517251,25.926736,-62.814756
19349,NaN,-7.440100,10.244912,-2.795146,-0.949428,1.829194,2.988807,0.127047,-1.094826,0.510920,0.409344,0.729887,-0.292806,-0.462566,105.261006,25.818761,-63.575461
19350,NaN,-9.196093,11.095009,-2.714936,-1.670012,2.854983,4.473544,0.130877,-1.782699,0.379843,0.407041,0.725481,-0.298127,-0.468098,104.837999,25.880268,-64.734317
19351,NaN,-10.263289,11.885958,-3.082824,-1.568553,3.499277,5.724454,0.105259,-2.848355,0.229755,0.402851,0.718624,-0.304952,-0.477801,104.112452,26.168876,-66.531793
19352,NaN,-10.235079,12.414063,-3.349126,-0.989882,3.316286,6.252506,0.109820,-4.003594,0.058104,0.396334,0.709084,-0.313423,-0.491819,103.070485,26.682124,-69.030559
19353,NaN,-8.908925,12.829529,-3.593475,0.074160,2.018978,6.086359,0.251624,-4.899131,-0.264930,0.386933,0.697749,-0.322695,-0.509213,101.832195,27.444141,-72.074656
19354,NaN,-7.898100,13.033189,-4.047354,1.210488,1.004901,5.875878,0.342101,-5.248217,-0.615941,0.375492,0.685833,-0.331456,-0.527992,100.508370,28.379623,-75.336257
19355,NaN,-8.749548,12.225293,-3.890368,1.357411,1.859747,5.543817,0.489114,-5.332515,-1.012094,0.362103,0.674108,-0.339147,-0.547210,99.180395,29.481729,-78.665937
19356,NaN,-10.095398,11.078848,-3.810333,1.600669,3.268872,5.217199,0.633718,-5.392591,-1.352654,0.346904,0.662565,-0.345954,-0.566551,97.845326,30.712403,-82.066113
19357,NaN,-10.667269,9.928154,-4.063328,2.366132,4.001483,4.582621,0.776529,-5.289335,-1.531502,0.330644,0.651333,-0.352105,-0.585203,96.526709,31.970377,-85.461992
19358,NaN,-9.895274,8.413114,-3.935393,2.857759,3.767104,2.907385,0.799344,-4.886683,-1.577355,0.314633,0.640945,-0.357273,-0.602122,95.271463,33.163838,-88.657719
19359,NaN,-8.995098,6.477925,-3.813718,3.279283,3.721570,0.807955,0.638747,-4.297453,-1.539556,0.300118,0.631604,-0.360914,-0.617047,94.049038,34.251381,-91.525982
19360,NaN,-8.161502,5.031827,-5.146991,5.008146,3.416071,-0.776419,0.437953,-3.809824,-1.688205,0.286507,0.623444,-0.362581,-0.630687,92.831914,35.354449,-94.110527
19361,NaN,-10.417901,3.785601,-6.245304,6.644136,5.464182,-0.440373,0.206263,-3.764088,-2.120873,0.272205,0.615584,-0.361915,-0.644964,91.417962,36.657364,-96.723501
19362,NaN,-12.348809,3.029162,-6.945189,7.977695,6.859570,0.145489,-0.030578,-4.174186,-2.593988,0.256220,0.606617,-0.359416,-0.661202,89.586587,38.171178,-99.720211
19363,NaN,-11.412859,3.118943,-5.678412,7.031608,5.723164,-0.326656,-0.599828,-4.469040,-3.167584,0.239349,0.596558,-0.353401,-0.679661,87.126048,39.921793,-103.087596
19364,NaN,-10.898024,1.557923,-3.575498,5.463967,6.199436,-1.710093,-1.222071,-4.622622,-3.779103,0.221794,0.585812,-0.343360,-0.699811,83.997455,41.882519,-106.805908
19365,NaN,-9.348375,0.583386,-1.377921,3.483743,5.754217,-3.152823,-1.372231,-4.625321,-4.428642,0.202159,0.575422,-0.330518,-0.720263,80.446014,44.049247,-110.869223
19366,NaN,-9.555552,-1.760997,1.663195,1.200721,7.894414,-4.035184,-1.506346,-4.578076,-4.436748,0.182763,0.564457,-0.316798,-0.740017,76.503706,46.022928,-115.229372
19367,NaN,-8.065589,-1.990428,3.096947,-0.201835,7.217092,-4.669475,-1.338099,-4.645623,-4.263416,0.163205,0.552531,-0.303875,-0.758771,72.299001,47.671970,-119.946959
19368,NaN,-3.749116,-0.731008,3.841678,-2.180226,3.781843,-6.605717,-1.196962,-4.343430,-3.974416,0.144682,0.540882,-0.291783,-0.775485,68.117944,48.978214,-124.634484
19369,NaN,-2.437169,1.229864,4.331223,-3.137874,1.588281,-6.092570,-1.266168,-3.680798,-3.487987,0.129051,0.530616,-0.279976,-0.789560,64.185098,49.964376,-128.858610
19370,NaN,-1.165659,1.968372,3.970493,-3.294596,0.168487,-6.632408,-1.325744,-2.764539,-3.058937,0.116512,0.523017,-0.268369,-0.800535,60.751742,50.791448,-132.338619
19371,NaN,0.908698,2.123341,3.185127,-3.450592,-1.210287,-8.360810,-1.069256,-1.655084,-2.553525,0.106740,0.519136,-0.258312,-0.807700,58.191510,51.579142,-134.842434
19372,NaN,-0.455288,2.483123,1.702329,-1.560036,-1.393854,-7.600366,-0.681289,-0.935029,-2.226593,0.098220,0.517840,-0.250285,-0.812128,56.343864,52.367049,-136.701573
19373,NaN,-4.252281,3.157596,0.389493,1.237547,-0.866965,-4.721579,-0.340483,-1.269822,-2.229145,0.088344,0.515263,-0.243706,-0.816889,54.400857,53.012313,-138.903327
19374,NaN,-5.695742,3.818345,-0.405736,2.566325,-1.284699,-3.572112,-0.271434,-2.434422,-2.583605,0.075430,0.508273,-0.237003,-0.824499,51.566654,53.358631,-142.257984
19375,NaN,-4.567669,4.128600,-0.915014,2.509549,-2.356097,-4.627091,-0.391010,-3.806606,-3.072082,0.059119,0.495920,-0.228924,-0.835561,47.568458,53.290360,-146.967090
19376,NaN,-2.905398,3.538631,-1.138503,1.992546,-2.660318,-6.465082,-0.481814,-4.901846,-3.409491,0.040355,0.478985,-0.219832,-0.848893,42.819303,52.699755,-152.575707
19377,NaN,-1.018931,3.163157,-1.255116,1.119977,-3.031651,-8.339371,-0.565958,-5.369589,-3.532979,0.020691,0.459712,-0.209920,-0.862653,37.927004,51.670541,-158.360323
19378,NaN,0.364731,2.575339,-0.743238,-0.056558,-2.689651,-9.531527,-0.577934,-5.215094,-3.356166,0.001983,0.440461,-0.200182,-0.875167,33.508462,50.368228,-163.625834
19379,NaN,1.297520,1.511994,0.612601,-1.550962,-1.385537,-9.951931,-0.231286,-4.456740,-2.932116,-0.014896,0.423727,-0.192674,-0.884935,30.092433,49.084997,-167.932993
19380,NaN,0.491879,1.308401,2.459951,-2.382538,-0.391220,-8.337776,0.378750,-3.420503,-2.343699,-0.029437,0.410727,-0.189121,-0.891443,27.903182,48.023044,-171.152394
19381,NaN,-0.930658,1.741361,3.828660,-2.481944,-0.123554,-6.293966,0.952053,-2.468145,-1.731280,-0.041533,0.401156,-0.189413,-0.895250,26.763074,47.223029,-173.438770
19382,NaN,-3.706317,2.260402,4.849450,-1.378844,0.012007,-3.451756,1.554540,-1.961032,-1.259240,-0.052218,0.393202,-0.193454,-0.897352,26.428037,46.542559,-175.127896
19383,NaN,-6.533319,4.017001,5.237395,-0.061953,-1.264695,-0.612306,1.920235,-1.738292,-0.834007,-0.061504,0.385650,-0.199951,-0.898616,26.611173,45.864803,-176.403190
19384,NaN,-7.742821,5.661995,4.922243,0.619256,-2.797372,0.580995,2.124558,-1.627270,-0.537286,-0.069712,0.378180,-0.207976,-0.899370,27.120645,45.173496,-177.405466
19385,NaN,-7.957900,7.100798,4.678585,0.567827,-4.133307,1.060742,2.152730,-1.640554,-0.461543,-0.077646,0.370475,-0.216189,-0.899990,27.684806,44.460721,-178.360226
19386,NaN,-8.404424,8.021993,5.127208,0.358385,-4.689543,1.983686,1.958395,-1.703459,-0.644655,-0.086085,0.362706,-0.223163,-0.900684,28.049123,43.771947,-179.459258
19387,NaN,-10.240954,9.495067,6.348713,0.502660,-5.402841,4.536391,1.541014,-1.852274,-0.988093,-0.095474,0.354752,-0.227500,-0.901820,27.982516,43.100917,179.153409
19388,NaN,-14.462068,9.910982,7.471610,2.841803,-5.400275,8.241667,1.100020,-2.234903,-1.516660,-0.106870,0.345830,-0.228715,-0.903698,27.353720,42.371670,177.287425
19389,NaN,-14.260288,9.560153,8.693756,2.230469,-4.743139,8.703589,0.925085,-2.573400,-1.672912,-0.119038,0.335557,-0.228612,-0.906073,26.513932,41.491262,175.229931
19390,NaN,-10.490241,8.462884,8.466390,0.078391,-3.889764,5.621216,1.049802,-2.503072,-1.639803,-0.131148,0.325416,-0.229136,-0.907965,25.831728,40.619702,173.264427
19391,NaN,-7.126902,8.329698,8.533002,-2.363725,-3.540305,3.411062,1.168989,-1.887931,-1.558667,-0.142354,0.317816,-0.230671,-0.908581,25.420316,40.030680,171.584667
19392,NaN,-7.275029,7.828030,7.963904,-1.749658,-3.439677,2.944080,1.204814,-1.276730,-1.546972,-0.152832,0.312911,-0.232799,-0.908038,25.181504,39.749260,170.124543
19393,NaN,-7.958231,8.011083,7.600524,-1.160818,-3.889597,3.179702,1.037726,-1.040897,-1.412765,-0.162147,0.308998,-0.234523,-0.907319,24.959681,39.551687,168.834956
19394,NaN,-7.776606,7.739910,7.167898,-1.005638,-3.895875,2.660130,0.755944,-1.009538,-1.275179,-0.170349,0.305277,-0.235193,-0.906902,24.649606,39.334218,167.653672
19395,NaN,-7.649028,7.508183,6.827756,-0.853837,-3.921244,2.245215,0.401650,-1.110294,-1.086694,-0.177260,0.301145,-0.234439,-0.907154,24.205429,39.011982,166.574775
19396,NaN,-6.289959,6.487638,6.392789,-1.201282,-3.134581,0.734902,0.178325,-1.110065,-0.868075,-0.182835,0.296950,-0.232990,-0.907804,23.736110,38.633864,165.651570
19397,NaN,-4.423793,5.667133,6.667949,-2.332164,-2.007874,-0.502633,0.053634,-0.937399,-0.663786,-0.187083,0.293389,-0.231431,-0.908495,23.322647,38.292639,164.924829
19398,NaN,-3.568063,5.596926,6.531640,-2.862626,-1.890568,-1.155325,-0.094905,-0.771794,-0.426602,-0.189845,0.290450,-0.229689,-0.909308,22.957614,37.982960,164.409987
19399,NaN,-4.077010,5.443042,5.765079,-2.035217,-2.318431,-1.448038,-0.219811,-0.728988,-0.163419,-0.191169,0.287500,-0.227807,-0.910441,22.643089,37.633102,164.088796
19400,NaN,-4.366447,4.934956,5.491732,-1.407184,-2.149415,-1.628666,-0.194528,-0.868405,0.077390,-0.191596,0.283629,-0.226240,-0.911955,22.419585,37.157359,163.892300
19401,NaN,-2.105584,4.523800,6.364231,-3.255689,-0.887858,-2.463307,-0.010877,-0.972491,0.252966,-0.191587,0.278883,-0.225668,-0.913560,22.359516,36.585609,163.787935
19402,NaN,-0.830952,4.440827,6.367909,-4.136179,-0.543265,-3.212829,0.208038,-0.843113,0.383882,-0.191144,0.274383,-0.226384,-0.914838,22.495270,36.055983,163.803581
19403,NaN,-1.060189,5.546363,5.414437,-4.034880,-1.995301,-3.414206,0.284999,-0.479115,0.354841,-0.190514,0.271478,-0.227772,-0.915491,22.723429,35.722367,163.898718
19404,NaN,-3.357634,6.568368,5.386893,-2.689935,-3.359976,-1.755977,0.055644,-0.043027,0.107572,-0.190216,0.271092,-0.228172,-0.915568,22.791985,35.676647,163.949075
19405,NaN,-7.383660,5.828852,7.765942,-0.189350,-2.424326,2.140989,-0.249592,0.218581,-0.260663,-0.190879,0.272584,-0.226947,-0.915291,22.590899,35.847248,163.833093
19406,NaN,-10.219877,3.892979,11.335008,1.390153,0.337689,5.872838,-0.604933,0.351219,-0.409797,-0.191600,0.275218,-0.223994,-0.915080,22.144870,36.123504,163.651474
19407,NaN,-11.350241,2.213707,12.181744,2.616411,1.819891,6.678652,-0.739524,0.173841,-0.351879,-0.192054,0.277072,-0.220355,-0.915309,21.617900,36.288644,163.460014
19408,NaN,-10.296152,1.266598,10.341151,2.959257,1.814672,4.417676,-0.667990,0.026182,-0.357000,-0.192803,0.278211,-0.216867,-0.915639,21.101650,36.377814,163.222354
19409,NaN,-9.884303,1.682207,8.740722,3.078051,0.668731,3.110433,-0.621885,-0.032437,-0.465226,-0.194161,0.279127,-0.213399,-0.915888,20.562503,36.453203,162.898532
19410,NaN,-8.876135,1.712853,7.582042,2.744377,0.208397,1.660369,-0.622056,-0.180269,-0.633469,-0.196455,0.279564,-0.209530,-0.916159,19.930524,36.482474,162.422644
19411,NaN,-7.393101,1.665204,6.632509,2.009125,0.044198,0.055532,-0.551699,-0.282329,-0.708501,-0.199285,0.279519,-0.205790,-0.916409,19.297085,36.464821,161.873348
19412,NaN,-6.366999,1.644993,5.847682,1.549925,-0.148996,-1.151563,-0.476271,-0.291497,-0.724519,-0.202308,0.279385,-0.202343,-0.916555,18.696613,36.442463,161.309750
19413,NaN,-5.176735,1.578326,5.440696,0.834168,-0.049606,-2.184301,-0.353096,-0.305474,-0.671692,-0.205263,0.278989,-0.199533,-0.916634,18.189468,36.396935,160.780926
19414,NaN,-3.339804,2.753819,6.049046,-1.406171,-0.302999,-2.514778,-0.326678,-0.318092,-0.542709,-0.207681,0.278391,-0.196991,-0.916822,17.745705,36.319808,160.335814
19415,NaN,-1.005280,2.982826,7.640062,-3.982914,0.864420,-2.624677,-0.307018,-0.022567,-0.356579,-0.208972,0.278925,-0.195121,-0.916766,17.429101,36.367868,160.082905
19416,NaN,-2.654278,3.125993,9.111123,-3.464774,0.971479,-0.491689,-0.266656,0.316524,-0.149826,-0.209048,0.280784,-0.194060,-0.916406,17.258231,36.566814,160.040209
19417,NaN,-5.845170,2.745661,9.810188,-1.216523,0.733617,1.846048,-0.315210,0.374894,-0.065796,-0.208604,0.282855,-0.192972,-0.916100,17.103585,36.780942,160.068191
19418,NaN,-8.031644,2.677040,9.578458,0.516184,0.063332,2.960330,-0.435860,0.228986,-0.101513,-0.208302,0.284440,-0.191110,-0.916068,16.843317,36.923610,160.038465
19419,NaN,-8.572049,2.350078,9.036037,1.271526,-0.102701,2.797827,-0.638360,0.258429,-0.130537,-0.207806,0.286372,-0.188325,-0.916156,16.460937,37.084531,159.995580
19420,NaN,-7.636954,2.632959,8.533562,0.591687,-0.369170,1.917196,-0.778913,0.400120,-0.192234,-0.207263,0.289176,-0.184935,-0.916089,15.985366,37.335545,159.935100
19421,NaN,-7.594157,2.648828,8.176439,0.635657,-0.583637,1.623929,-0.773127,0.525053,-0.223485,-0.206744,0.292547,-0.181669,-0.915789,15.515788,37.657597,159.876358
19422,NaN,-7.389494,2.820691,7.533866,0.619386,-1.005169,1.046666,-0.665196,0.487093,-0.176273,-0.206205,0.295606,-0.178907,-0.915472,15.118558,37.953465,159.838202
19423,NaN,-7.463282,2.638259,6.970675,0.958454,-1.154974,0.627537,-0.623980,0.479479,-0.192020,-0.205794,0.298577,-0.176316,-0.915103,14.738530,38.245127,159.786769
19424,NaN,-7.121026,2.750717,6.608977,0.767553,-1.351262,0.164221,-0.595774,0.314286,-0.166055,-0.205457,0.300756,-0.173704,-0.914965,14.362296,38.443259,159.718794
19425,NaN,-5.093643,2.658023,6.066646,-0.456196,-0.992371,-1.528883,-0.510790,0.233049,-0.163355,-0.205296,0.302453,-0.171418,-0.914873,14.029006,38.593745,159.638527
19426,NaN,-4.817669,2.810004,6.129531,-0.794393,-1.046205,-1.630300,-0.490149,0.313567,-0.107196,-0.204847,0.304464,-0.169374,-0.914687,13.737060,38.782751,159.609091
19427,NaN,-4.888324,2.570230,6.629026,-0.908959,-0.661466,-1.258048,-0.498317,0.449757,0.015200,-0.203699,0.306981,-0.167638,-0.914422,13.513169,39.029118,159.692015
19428,NaN,-5.147402,2.581862,7.365651,-1.133365,-0.434703,-0.542256,-0.486948,0.547474,0.154889,-0.201855,0.309831,-0.166244,-0.914124,13.365918,39.313388,159.889059
19429,NaN,-5.980829,2.249866,7.997993,-0.736757,-0.097838,0.397478,-0.415280,0.610874,0.252703,-0.199609,0.312793,-0.165414,-0.913759,13.316411,39.618301,160.170319
19430,NaN,-7.121757,2.342000,8.481984,-0.250657,-0.258737,1.501835,-0.404223,0.571535,0.291469,-0.197243,0.315547,-0.164630,-0.913467,13.284606,39.898355,160.471325
19431,NaN,-7.135068,2.618201,8.645026,-0.496989,-0.424676,1.679622,-0.425492,0.422874,0.298342,-0.194922,0.317613,-0.163635,-0.913428,13.232949,40.092622,160.755213
19432,NaN,-6.631765,2.607917,8.366040,-0.740863,-0.408359,1.144342,-0.428715,0.275926,0.325944,-0.192598,0.319006,-0.162500,-0.913638,13.172978,40.203663,161.031864
19433,NaN,-6.134027,2.741252,8.033986,-1.003784,-0.546252,0.597869,-0.422869,0.219810,0.372674,-0.190103,0.320075,-0.161436,-0.913976,13.136919,40.275213,161.336040
19434,NaN,-5.989839,2.968876,7.842678,-1.117819,-0.798315,0.400694,-0.440046,0.163240,0.405554,-0.187485,0.320893,-0.160266,-0.914435,13.096482,40.313341,161.652102
19435,NaN,-5.758686,2.808241,7.731428,-1.158123,-0.657668,0.139692,-0.469334,0.169711,0.427789,-0.184701,0.321725,-0.159028,-0.914926,13.055191,40.349899,161.988545
19436,NaN,-5.166481,5.404505,9.207984,-3.510586,-2.237429,1.293956,-0.808931,0.118983,0.477765,-0.181190,0.322616,-0.156242,-0.915793,12.833153,40.354771,162.350183
19437,NaN,6.535861,3.006282,11.883516,-12.421758,3.536102,-4.697479,-1.137942,0.114047,1.089643,-0.174330,0.323265,-0.152954,-0.917450,12.716851,40.277255,163.162399
19438,NaN,-9.859213,-1.364018,6.616671,4.166831,1.692801,1.260508,-0.407269,0.768526,0.924109,-0.168914,0.326416,-0.153284,-0.917292,13.008641,40.588416,163.960856
19439,NaN,-10.965227,-0.676220,1.631826,7.359442,-0.989162,-1.553488,-0.453251,1.188594,0.837857,-0.163476,0.331547,-0.153634,-0.916378,13.293561,41.138052,164.778216
19440,NaN,-14.312723,-0.243067,4.994959,7.679795,-0.608570,3.245319,-0.438712,0.799140,0.596959,-0.159471,0.335088,-0.153303,-0.915851,13.429405,41.504291,165.353603
19441,NaN,-11.999902,-0.024241,5.614922,5.523897,-0.066283,2.229227,-0.255380,0.184043,0.150066,-0.158277,0.335982,-0.152592,-0.915849,13.384458,41.584327,165.492055
19442,NaN,-9.770099,0.320000,7.141924,2.904753,0.622869,1.923525,-0.251398,-0.173699,-0.009618,-0.158104,0.335377,-0.151324,-0.916311,13.216953,41.488533,165.445675
19443,NaN,-6.708923,0.773404,7.703627,0.193086,0.983048,0.382899,-0.330716,0.008341,0.114644,-0.157082,0.335561,-0.150066,-0.916627,13.090157,41.476539,165.526260
19444,NaN,-6.391662,1.801288,6.931869,-0.006707,-0.192658,-0.215208,-0.421375,0.196255,0.320542,-0.154832,0.336534,-0.148864,-0.916849,13.031132,41.544337,165.790483
19445,NaN,-5.258833,2.050422,6.382986,-0.624867,-0.421385,-1.325402,-0.589116,0.365946,0.532901,-0.151188,0.338239,-0.147400,-0.917066,13.004757,41.678110,166.245171
19446,NaN,-6.457809,1.752046,6.029660,0.538826,-0.487303,-0.834833,-0.690041,0.559424,0.719944,-0.146379,0.340775,-0.145911,-0.917145,13.034625,41.897228,166.872363
19447,NaN,-5.362802,2.173993,5.702350,-0.246309,-0.790881,-1.730828,-0.735561,0.717404,0.892019,-0.140573,0.343916,-0.144638,-0.917083,13.150972,42.180055,167.661667
19448,NaN,-6.088157,2.347813,6.330899,-0.189466,-0.814235,-0.759563,-0.759720,0.916549,0.983169,-0.134166,0.347917,-0.143522,-0.916709,13.326991,42.562028,168.557923
19449,NaN,-7.648801,2.141483,6.899034,0.624717,-0.609981,0.671781,-0.667995,0.801380,0.973009,-0.128030,0.351303,-0.142746,-0.916416,13.548570,42.877264,169.434953
19450,NaN,-7.038873,2.145322,7.458754,-0.190335,-0.295088,0.659071,-0.538821,0.544531,0.869010,-0.122785,0.353503,-0.142187,-0.916375,13.760441,43.062734,170.188019
19451,NaN,-8.109910,2.038693,7.471350,0.594600,-0.294255,1.381409,-0.374694,0.236487,0.662312,-0.118983,0.354315,-0.141845,-0.916615,13.925730,43.101751,170.730637
19452,NaN,-7.505763,2.351462,7.473472,0.069708,-0.493219,1.025691,-0.236783,-0.066649,0.495382,-0.116415,0.353785,-0.141634,-0.917182,14.039974,42.995980,171.086063
19453,NaN,-6.835142,2.749405,7.584926,-0.576460,-0.740949,0.719552,-0.123351,-0.247792,0.371536,-0.114732,0.352430,-0.141641,-0.917915,14.134212,42.804804,171.314551
19454,NaN,-6.553314,2.619619,7.807074,-0.834071,-0.510481,0.665971,-0.046929,-0.389291,0.261907,-0.113797,0.350471,-0.141701,-0.918772,14.192494,42.551707,171.429439
19455,NaN,-5.980275,2.370867,7.735730,-1.079847,-0.238791,0.187457,0.060120,-0.504068,0.191324,-0.113444,0.347957,-0.142087,-0.919711,14.264569,42.243027,171.471157
19456,NaN,-5.344721,2.154469,7.963176,-1.563468,0.112139,-0.108940,0.117166,-0.514908,0.135389,-0.113465,0.345412,-0.142606,-0.920587,14.335231,41.937891,171.465550
19457,NaN,-5.411438,1.698308,8.482211,-1.636502,0.711022,0.233800,0.127117,-0.457742,0.099761,-0.113615,0.343131,-0.143166,-0.921334,14.404937,41.667581,171.446527
19458,NaN,-5.589697,1.462244,8.786187,-1.564681,1.019666,0.535829,0.170459,-0.466238,0.066504,-0.114008,0.340825,-0.143838,-0.922037,14.477845,41.399303,171.398194
19459,NaN,-5.668796,1.435784,8.850894,-1.481328,1.064119,0.637580,0.234725,-0.529098,0.028303,-0.114721,0.338197,-0.144727,-0.922776,14.564871,41.099342,171.311869
19460,NaN,-5.790090,1.389440,8.689137,-1.219662,1.044626,0.597769,0.301588,-0.601613,-0.025487,-0.115857,0.335252,-0.145768,-0.923545,14.651701,40.769407,171.169535
19461,NaN,-5.927023,1.410657,8.381472,-0.876854,0.909201,0.471899,0.341771,-0.646507,-0.051799,-0.117203,0.332068,-0.146944,-0.924338,14.747637,40.415909,171.001695
19462,NaN,-6.004343,1.493525,7.929416,-0.515313,0.672551,0.209296,0.388580,-0.654496,-0.038624,-0.118581,0.328828,-0.148330,-0.925099,14.872883,40.058987,170.839636
19463,NaN,-6.067458,1.629806,7.590433,-0.250736,0.431611,0.027815,0.456616,-0.614218,-0.006573,-0.119880,0.325682,-0.150125,-0.925755,15.060652,39.717116,170.710089
19464,NaN,-6.075419,1.672153,7.373069,-0.075419,0.334475,-0.119851,0.524410,-0.520660,0.038810,-0.121018,0.322913,-0.152342,-0.926215,15.316213,39.423398,170.628155
19465,NaN,-6.227902,1.853670,7.287028,0.083133,0.147281,-0.050786,0.574492,-0.407386,0.107171,-0.121822,0.320558,-0.154986,-0.926489,15.647925,39.179231,170.617707
19466,NaN,-6.196575,1.977320,7.325952,0.040873,0.092847,-0.016448,0.605489,-0.269523,0.187869,-0.122204,0.318780,-0.157967,-0.926548,16.046751,39.001359,170.688465
19467,NaN,-6.262562,2.095641,7.314561,0.092843,0.024637,0.041480,0.619524,-0.106327,0.278165,-0.122049,0.317651,-0.161273,-0.926387,16.516662,38.895479,170.856787
19468,NaN,-6.381020,2.265818,7.374620,0.117094,-0.058914,0.198245,0.631947,0.055026,0.370384,-0.121365,0.317207,-0.164861,-0.925998,17.051988,38.864566,171.121178
19469,NaN,-6.590513,2.293664,7.723804,0.092682,0.101759,0.595644,0.665123,0.151615,0.446741,-0.120289,0.317098,-0.168797,-0.925466,17.655918,38.868558,171.461783
19470,NaN,-7.010751,2.372544,7.917286,0.297610,0.144743,1.020260,0.720273,0.144061,0.464237,-0.119233,0.316925,-0.172991,-0.924887,18.295132,38.865302,171.811156
19471,NaN,-7.787858,2.493300,8.256240,0.695596,0.176682,1.785453,0.792324,-0.022010,0.410237,-0.118673,0.315958,-0.177348,-0.924465,18.930059,38.775931,172.085389
19472,NaN,-7.806029,2.524202,8.484977,0.621421,0.328007,1.968903,0.840948,-0.306783,0.330953,-0.118815,0.313732,-0.181614,-0.924376,19.510977,38.547990,172.232334
19473,NaN,-7.515984,2.616799,8.427265,0.469961,0.328790,1.764292,0.857504,-0.564514,0.286360,-0.119412,0.310316,-0.185746,-0.924631,20.042779,38.185995,172.283109
19474,NaN,-6.794018,2.697751,8.155618,0.112918,0.286623,1.135129,0.879958,-0.690423,0.275320,-0.120216,0.306327,-0.189866,-0.925021,20.557583,37.760835,172.288527
19475,NaN,-5.820148,2.634489,7.956252,-0.436323,0.430561,0.372588,0.932149,-0.633992,0.299682,-0.120921,0.302512,-0.194309,-0.925261,21.120595,37.358344,172.321364
19476,NaN,-5.441012,2.810367,7.783463,-0.631562,0.313120,0.065941,0.949364,-0.464509,0.322879,-0.121385,0.299460,-0.198946,-0.925208,21.723894,37.043726,172.407472
19477,NaN,-5.515461,3.171576,7.567708,-0.529386,-0.031070,0.059872,0.910811,-0.269019,0.374015,-0.121348,0.297255,-0.203610,-0.924909,22.356465,36.818526,172.577002
19478,NaN,-5.290312,3.528940,7.288847,-0.650181,-0.364588,-0.168429,0.857466,-0.068434,0.480099,-0.120543,0.295915,-0.208286,-0.924403,23.028462,36.677078,172.866852
19479,NaN,-4.889312,4.000931,6.959276,-0.939988,-0.802990,-0.495217,0.779897,0.127040,0.603709,-0.118835,0.295367,-0.212915,-0.923744,23.737908,36.604711,173.291987
19480,NaN,-5.035918,4.112967,6.708238,-0.719523,-0.940535,-0.545844,0.701016,0.294755,0.698210,-0.116403,0.295555,-0.217397,-0.922950,24.464537,36.596517,173.824804
19481,NaN,-5.242143,4.266836,6.574906,-0.531163,-1.063928,-0.458514,0.597797,0.419895,0.750330,-0.113427,0.296292,-0.221564,-0.922093,25.177226,36.632480,174.430350
19482,NaN,-5.571709,4.144745,6.621651,-0.245773,-0.865478,-0.259737,0.617897,0.484637,0.755030,-0.110395,0.297326,-0.225844,-0.921089,25.913516,36.697629,175.058292
19483,NaN,-5.999695,4.298080,6.952710,-0.116163,-0.767279,0.297053,0.649480,0.424609,0.766124,-0.107412,0.298021,-0.230265,-0.920122,26.664821,36.719473,175.677356
19484,NaN,-6.157304,4.498820,7.527613,-0.334813,-0.566418,0.882307,0.632700,0.327989,0.724526,-0.104715,0.298344,-0.234470,-0.919266,27.369314,36.699645,176.237262
19485,NaN,-6.185306,4.485736,8.058213,-0.554107,-0.189369,1.276531,0.674718,0.192648,0.707187,-0.102304,0.298011,-0.238785,-0.918534,28.066547,36.607126,176.742211
19486,NaN,-6.291462,4.748079,8.157382,-0.574580,-0.264478,1.512879,0.707740,0.084474,0.733004,-0.099963,0.297151,-0.243208,-0.917910,28.765365,36.451321,177.222730
19487,NaN,-6.025689,5.081412,8.383651,-0.972753,-0.315270,1.648921,0.714308,0.127852,0.779278,-0.097350,0.296397,-0.247766,-0.917215,29.493759,36.296196,177.745316
19488,NaN,-5.794808,5.372874,8.501578,-1.280601,-0.381709,1.717167,0.699895,0.247500,0.814001,-0.094419,0.296172,-0.252340,-0.916347,30.245711,36.188531,178.326585
19489,NaN,-6.004531,5.640222,8.511622,-1.180695,-0.488628,1.963565,0.672582,0.381760,0.832528,-0.091176,0.296515,-0.256892,-0.915299,31.018138,36.131805,178.966954
19490,NaN,-6.107533,5.906881,8.183019,-1.007852,-0.762885,1.915733,0.646452,0.520746,0.908666,-0.087378,0.297426,-0.261471,-0.914077,31.829088,36.116786,179.701874
19491,NaN,-6.006052,6.081346,7.757020,-0.926855,-1.004797,1.648405,0.617362,0.655519,0.986402,-0.082986,0.298821,-0.266103,-0.912693,32.683690,36.130760,-179.464210
19492,NaN,-5.571039,6.327461,7.102026,-1.026318,-1.436058,1.068261,0.570599,0.807094,1.071626,-0.077945,0.300830,-0.270676,-0.911131,33.573859,36.184453,-178.521956
19493,NaN,-5.197496,6.341155,6.633469,-1.098232,-1.582120,0.556335,0.490357,0.964437,1.160240,-0.072145,0.303418,-0.275087,-0.909428,34.490933,36.268233,-177.461438
19494,NaN,-5.268718,6.181741,6.517420,-0.944080,-1.388082,0.464997,0.385463,1.092932,1.202288,-0.065830,0.306581,-0.279089,-0.907625,35.393600,36.389198,-176.322874
19495,NaN,-5.577210,5.982414,6.725023,-0.761641,-0.973487,0.703564,0.309816,1.087620,1.195945,-0.059413,0.309701,-0.282743,-0.905876,36.256818,36.491134,-175.184450
19496,NaN,-5.850244,5.791495,6.901627,-0.597957,-0.584724,0.897061,0.267022,0.957534,1.162305,-0.053280,0.312305,-0.286068,-0.904319,37.050669,36.536085,-174.119676
19497,NaN,-5.857274,5.485962,6.823743,-0.474692,-0.263285,0.707356,0.284756,0.796653,1.138679,-0.047489,0.314159,-0.289406,-0.902936,37.809040,36.499684,-173.135361
19498,NaN,-5.871812,5.454581,6.660405,-0.365021,-0.220350,0.599273,0.328736,0.632668,1.107607,-0.042161,0.315327,-0.292813,-0.901694,38.534217,36.394983,-172.244028
19499,NaN,-5.899820,5.556492,6.281611,-0.148162,-0.407360,0.431936,0.343634,0.482314,1.116171,-0.037017,0.315754,-0.296285,-0.900635,39.230331,36.206321,-171.416615
19500,NaN,-5.782682,5.995078,5.501109,0.102746,-1.117413,0.106109,0.307058,0.365820,1.132563,-0.031933,0.315662,-0.299557,-0.899780,39.871150,35.957398,-170.639643
19501,NaN,-5.437493,6.306529,4.584726,0.293114,-1.842067,-0.491822,0.191298,0.323267,1.078248,-0.026952,0.315432,-0.302234,-0.899128,40.414152,35.698427,-169.915320
19502,NaN,-5.764383,6.185794,3.744680,1.087300,-2.091523,-0.870792,0.118357,0.320166,1.016305,-0.022159,0.315316,-0.304447,-0.898552,40.886633,35.461047,-169.232355
19503,NaN,-7.075518,6.337162,3.120667,2.491529,-2.294706,-0.405925,0.015995,0.156613,0.888922,-0.018004,0.314631,-0.306005,-0.898356,41.216537,35.192104,-168.694474
19504,NaN,-8.839585,5.942486,3.228296,3.989981,-1.575076,0.457266,-0.096761,-0.169837,0.727859,-0.014916,0.312763,-0.306738,-0.898815,41.338949,34.846697,-168.397253
19505,NaN,-9.685707,5.651498,3.894318,4.441625,-0.799061,1.166874,-0.313892,-0.508323,0.575618,-0.012670,0.309592,-0.306261,-0.900109,41.205104,34.408830,-168.334205
19506,NaN,-9.620312,5.242864,4.497938,4.242200,-0.155772,1.243880,-0.538251,-0.817013,0.424112,-0.011253,0.305298,-0.304479,-0.902197,40.816054,33.898959,-168.490847
19507,NaN,-9.176587,4.726043,4.986186,3.837058,0.413306,0.981374,-0.710029,-1.011456,0.314712,-0.010344,0.300274,-0.301769,-0.904801,40.257861,33.340899,-168.783136
19508,NaN,-8.446910,4.114163,5.282246,3.318911,0.891868,0.403310,-0.733898,-1.042065,0.258433,-0.009718,0.295204,-0.298818,-0.907451,39.665064,32.790875,-169.112289
19509,NaN,-8.705785,3.998466,5.673645,3.465945,1.175442,0.702658,-0.609847,-1.132536,0.237785,-0.009490,0.289724,-0.296415,-0.910004,39.128393,32.203354,-169.480370
19510,NaN,-9.100954,4.345742,5.892731,3.744173,1.001369,1.206090,-0.518777,-1.233097,0.221100,-0.009632,0.283806,-0.294352,-0.912534,38.620228,31.576406,-169.893420
19511,NaN,-8.277226,4.287266,5.794443,3.244200,0.805956,0.641620,-0.452930,-1.227737,0.140516,-0.010216,0.278010,-0.292492,-0.914907,38.141735,30.976258,-170.335334
19512,NaN,-7.250552,3.970608,5.616606,2.634561,0.760270,-0.202153,-0.396198,-1.139463,0.010455,-0.011355,0.272799,-0.290674,-0.917039,37.682922,30.459995,-170.803393
19513,NaN,-6.489012,3.745740,5.570079,2.136582,0.756865,-0.755921,-0.355882,-0.985770,-0.153526,-0.013070,0.268522,-0.288845,-0.918855,37.245775,30.067172,-171.286828
19514,NaN,-6.191229,3.551947,5.631558,1.951519,0.851913,-0.973721,-0.318852,-0.855481,-0.317274,-0.015406,0.265069,-0.286938,-0.920417,36.813452,29.787751,-171.801798
19515,NaN,-6.296391,3.579343,6.115412,1.854395,1.039536,-0.575015,-0.267979,-0.740589,-0.455388,-0.018274,0.262338,-0.285113,-0.921713,36.403976,29.605202,-172.339180
19516,NaN,-6.454399,3.985413,6.391919,1.822006,0.799086,-0.094628,-0.242931,-0.651650,-0.580716,-0.021631,0.260183,-0.283213,-0.922837,35.991380,29.502718,-172.908258
19517,NaN,-6.011020,4.107952,6.175103,1.540348,0.463016,-0.402479,-0.209297,-0.603396,-0.737056,-0.025681,0.258471,-0.281289,-0.923802,35.571023,29.472090,-173.539167
19518,NaN,-5.221588,3.880414,5.900789,1.037608,0.361750,-1.098674,-0.185598,-0.542410,-0.883734,-0.030356,0.257229,-0.279261,-0.924622,35.133248,29.513817,-174.227182
19519,NaN,-4.712764,3.486946,5.966832,0.643080,0.618919,-1.495532,-0.167694,-0.452003,-1.016067,-0.035536,0.256591,-0.277174,-0.925242,34.689557,29.637847,-174.951731
19520,NaN,-4.662745,3.468399,6.331828,0.428047,0.761119,-1.262825,-0.119479,-0.427031,-1.111720,-0.041187,0.256172,-0.275158,-0.925725,34.246104,29.798758,-175.722870
19521,NaN,-4.678050,3.798784,6.627703,0.223620,0.575347,-0.876249,-0.102732,-0.489848,-1.169075,-0.047208,0.255540,-0.273145,-0.926209,33.785310,29.944185,-176.549578
19522,NaN,-4.812794,3.916408,6.813247,0.223264,0.511666,-0.614347,-0.101951,-0.642353,-1.190348,-0.053537,0.254207,-0.271039,-0.926850,33.285385,30.016227,-177.447700
19523,NaN,-4.709110,3.941109,6.715031,0.174929,0.360703,-0.722116,-0.120168,-0.815969,-1.186740,-0.060056,0.252071,-0.268813,-0.927682,32.747024,29.998072,-178.405790
19524,NaN,-4.007999,3.846021,6.548210,-0.322538,0.262097,-1.235870,-0.172804,-0.918686,-1.177624,-0.066604,0.249434,-0.266288,-0.928675,32.160775,29.917902,-179.396085
19525,NaN,-3.384609,3.710409,6.625260,-0.842597,0.342657,-1.548973,-0.239086,-0.958696,-1.161113,-0.073040,0.246611,-0.263467,-0.929749,31.539620,29.805688,179.612410
19526,NaN,-2.791341,3.587634,6.887985,-1.413263,0.523352,-1.698783,-0.285949,-0.954625,-1.132751,-0.079279,0.243759,-0.260430,-0.930845,30.900427,29.676125,178.639514
19527,NaN,-2.306069,3.480332,7.259673,-1.936094,0.761044,-1.700625,-0.289648,-0.870685,-1.062141,-0.085068,0.241205,-0.257499,-0.931814,30.298836,29.559477,177.739072
19528,NaN,-1.923264,3.485514,7.526274,-2.359878,0.859246,-1.677269,-0.262031,-0.698986,-0.956742,-0.090178,0.239282,-0.254867,-0.932553,29.770167,29.488794,176.956142
19529,NaN,-1.869966,3.453195,7.762079,-2.481062,0.972078,-1.531958,-0.207331,-0.501280,-0.842530,-0.094563,0.238110,-0.252726,-0.933001,29.340111,29.479446,176.305045
19530,NaN,-1.994729,3.546435,8.115041,-2.539963,1.037257,-1.159210,-0.130848,-0.288677,-0.713310,-0.098168,0.237719,-0.251173,-0.933148,29.021294,29.535870,175.795170
19531,NaN,-2.070870,3.743753,8.313938,-2.623450,0.947198,-0.888225,-0.049326,-0.061411,-0.571450,-0.100918,0.238169,-0.250293,-0.932976,28.826544,29.665142,175.439894
19532,NaN,-2.069735,3.825885,8.384360,-2.701560,0.907533,-0.807324,0.041040,0.180494,-0.411811,-0.102732,0.239498,-0.250130,-0.932482,28.763979,29.870947,175.251839
19533,NaN,-2.045292,3.903754,8.403289,-2.791219,0.862187,-0.784769,0.136713,0.434573,-0.242798,-0.103548,0.241747,-0.250758,-0.931642,28.846908,30.157206,175.243369
19534,NaN,-2.170099,4.240297,8.284504,-2.792866,0.528790,-0.688963,0.205554,0.706923,-0.080894,-0.103356,0.245027,-0.252027,-0.930463,29.059346,30.535599,175.416310
19535,NaN,-2.376557,4.555058,8.130980,-2.717751,0.203641,-0.588743,0.253592,0.955924,0.054804,-0.102270,0.249255,-0.253823,-0.928971,29.385614,30.998666,175.753043
19536,NaN,-2.688202,4.796753,8.131896,-2.604002,0.025332,-0.347976,0.269647,1.107120,0.159314,-0.100530,0.254047,-0.255880,-0.927297,29.781836,31.506852,176.204903
19537,NaN,-3.047231,5.165484,8.074904,-2.470694,-0.285636,-0.066651,0.246489,1.145126,0.246044,-0.098298,0.258892,-0.257964,-0.925617,30.206983,32.004440,176.727852
19538,NaN,-3.375544,5.310231,8.065563,-2.310205,-0.376179,0.145572,0.205658,1.088780,0.321068,-0.095743,0.263406,-0.259905,-0.924067,30.627295,32.450971,177.281372
19539,NaN,-3.764903,5.385044,8.202082,-2.131077,-0.330110,0.473048,0.178719,0.964027,0.383478,-0.093014,0.267248,-0.261752,-0.922720,31.037058,32.811968,177.835185
19540,NaN,-3.950472,5.584775,8.291441,-2.129214,-0.407561,0.715558,0.139707,0.795363,0.443025,-0.090186,0.270265,-0.263398,-0.921653,31.414101,33.071861,178.367937
19541,NaN,-4.059938,5.849313,8.285722,-2.150325,-0.592030,0.881991,0.091521,0.629559,0.498171,-0.087245,0.272438,-0.264833,-0.920885,31.754038,33.228524,178.877668
19542,NaN,-4.028541,5.954284,8.259754,-2.214550,-0.655901,0.891127,0.045759,0.499915,0.546490,-0.084200,0.273990,-0.266047,-0.920358,32.057203,33.308055,179.369239
19543,NaN,-4.092498,6.046203,8.252603,-2.189834,-0.705515,0.963089,-0.009884,0.410769,0.587481,-0.080996,0.275070,-0.267037,-0.920037,32.326586,33.326310,179.853897
19544,NaN,-4.174036,6.214896,8.172002,-2.130943,-0.864384,1.028945,-0.060199,0.374025,0.613556,-0.077662,0.275990,-0.267796,-0.919828,32.565966,33.320473,-179.660850
19545,NaN,-4.265742,6.283776,8.077000,-2.021759,-0.949679,1.046911,-0.109105,0.371997,0.633893,-0.074156,0.276858,-0.268372,-0.919689,32.785509,33.301733,-179.163529
19546,NaN,-4.310690,6.420161,8.062425,-2.008337,-1.052688,1.126308,-0.157541,0.411073,0.645534,-0.070489,0.277934,-0.268734,-0.919546,32.986533,33.300661,-178.646268
19547,NaN,-4.403119,6.484811,7.969778,-1.899139,-1.137988,1.144311,-0.205324,0.467793,0.651923,-0.066634,0.279241,-0.268922,-0.919383,33.176399,33.318844,-178.102803
19548,NaN,-4.517203,6.407041,7.799372,-1.699522,-1.144939,1.054061,-0.245665,0.521666,0.661042,-0.062621,0.280826,-0.268929,-0.919180,33.355104,33.363015,-177.534828
19549,NaN,-4.528683,6.303131,7.693634,-1.611871,-1.098697,0.940227,-0.273131,0.556180,0.662194,-0.058501,0.282534,-0.268839,-0.918954,33.528930,33.416912,-176.951303
19550,NaN,-4.618050,6.233430,7.454102,-1.404535,-1.149395,0.791644,-0.296707,0.557404,0.677808,-0.054290,0.284265,-0.268636,-0.918738,33.692548,33.469961,-176.359178
19551,NaN,-4.733581,6.090257,7.219916,-1.155749,-1.131240,0.628085,-0.310055,0.538776,0.689638,-0.050011,0.285853,-0.268402,-0.918557,33.851750,33.503644,-175.765500
19552,NaN,-4.829394,5.849633,7.007510,-0.907534,-1.018377,0.423802,-0.323794,0.482606,0.703903,-0.045739,0.287200,-0.268081,-0.918453,33.993200,33.510097,-175.186408
19553,NaN,-5.060281,5.673170,6.877504,-0.597435,-0.905380,0.381168,-0.327948,0.387522,0.716275,-0.041512,0.288048,-0.267757,-0.918483,34.118648,33.460719,-174.635477
19554,NaN,-5.294000,5.523364,6.775392,-0.297410,-0.797706,0.371372,-0.317638,0.245278,0.731944,-0.037437,0.288257,-0.267443,-0.918684,34.220776,33.343558,-174.132616
19555,NaN,-5.421730,5.433134,6.647479,-0.071987,-0.760197,0.312521,-0.309216,0.071331,0.753054,-0.033489,0.287589,-0.267189,-0.919120,34.298667,33.130836,-173.684520
19556,NaN,-5.387189,5.304327,6.481543,0.059068,-0.723895,0.119096,-0.299454,-0.088991,0.779846,-0.029666,0.286184,-0.266959,-0.919756,34.351258,32.838893,-173.286158
19557,NaN,-5.453205,5.202847,6.330317,0.272821,-0.692555,0.001870,-0.291864,-0.209258,0.816343,-0.025826,0.284129,-0.266821,-0.920549,34.394526,32.472263,-172.913722
19558,NaN,-5.478194,5.100761,6.225431,0.436369,-0.639629,-0.107825,-0.267177,-0.305907,0.845323,-0.022035,0.281624,-0.266793,-0.921425,34.434590,32.056064,-172.565563
19559,NaN,-5.605849,5.053527,6.137057,0.675979,-0.610890,-0.127833,-0.242715,-0.414911,0.871883,-0.018282,0.278531,-0.266925,-0.922409,34.474281,31.573914,-172.244723
19560,NaN,-6.037369,5.009056,5.974448,1.219960,-0.584414,-0.045200,-0.219219,-0.578168,0.893273,-0.014700,0.274688,-0.267144,-0.923561,34.494692,31.013219,-171.977650
19561,NaN,-6.644327,4.848397,5.920668,1.896802,-0.378728,0.135471,-0.188989,-0.788978,0.900565,-0.011389,0.269810,-0.267518,-0.924936,34.493715,30.345168,-171.786403
19562,NaN,-7.006219,4.727741,5.963957,2.328531,-0.188321,0.264431,-0.166792,-0.989222,0.897549,-0.008407,0.264039,-0.267939,-0.926510,34.461359,29.588967,-171.674454
19563,NaN,-6.924352,4.616972,5.990551,2.401004,-0.071457,0.156166,-0.145348,-1.127011,0.898302,-0.005617,0.257578,-0.268471,-0.928194,34.418342,28.762610,-171.612041
19564,NaN,-6.524058,4.544368,5.753662,2.317363,-0.162014,-0.277431,-0.138626,-1.139786,0.905523,-0.002837,0.251071,-0.269000,-0.929836,34.374846,27.932783,-171.551719
19565,NaN,-5.965134,4.377908,5.507400,2.095726,-0.196502,-0.832242,-0.127087,-0.995426,0.906058,0.000142,0.245190,-0.269601,-0.931234,34.365015,27.166812,-171.437016
19566,NaN,-5.458322,4.218203,5.332751,1.856721,-0.192495,-1.295677,-0.110129,-0.738987,0.890817,0.003358,0.240545,-0.270222,-0.932259,34.398314,26.531277,-171.239719
19567,NaN,-5.398811,4.093764,5.323398,1.905683,-0.071875,-1.409869,-0.091271,-0.461178,0.844268,0.006724,0.237225,-0.270892,-0.932897,34.476879,26.038149,-170.966825
19568,NaN,-5.723711,4.099751,5.361535,2.236993,0.019233,-1.250559,-0.068483,-0.240945,0.786964,0.010080,0.235032,-0.271558,-0.933228,34.584063,25.670973,-170.647778
19569,NaN,-6.051693,4.180484,5.401118,2.548838,0.053195,-1.050732,-0.060507,-0.117207,0.718126,0.013286,0.233484,-0.272199,-0.933390,34.700538,25.380702,-170.320339
19570,NaN,-6.184152,4.142111,5.393859,2.710046,0.136060,-1.030234,-0.070724,-0.046405,0.644511,0.016244,0.232387,-0.272670,-0.933479,34.800481,25.150533,-170.008319
19571,NaN,-6.079067,4.020377,5.542592,2.590342,0.328854,-1.036544,-0.068119,0.004717,0.570330,0.018933,0.231609,-0.273088,-0.933500,34.895357,24.965553,-169.715932
19572,NaN,-5.807480,3.913409,5.726437,2.296118,0.495345,-1.076780,-0.044961,0.058740,0.496687,0.021314,0.231202,-0.273494,-0.933430,34.991290,24.832330,-169.444202
19573,NaN,-5.506946,3.995271,5.910303,1.951546,0.494300,-1.028189,-0.002600,0.119277,0.442257,0.023484,0.231143,-0.274054,-0.933229,35.111505,24.742888,-169.177840
19574,NaN,-5.272976,4.135672,6.072572,1.663511,0.442822,-0.934581,0.041010,0.191544,0.396491,0.025480,0.231501,-0.274727,-0.932890,35.254104,24.703904,-168.910498
19575,NaN,-5.223581,4.177500,6.233689,1.541417,0.508309,-0.814812,0.088474,0.257543,0.371280,0.027402,0.232196,-0.275609,-0.932402,35.431601,24.701826,-168.630910
19576,NaN,-5.296858,4.266424,6.376060,1.526760,0.549299,-0.632253,0.134545,0.304462,0.354113,0.029247,0.233148,-0.276652,-0.931799,35.635848,24.728117,-168.344213
19577,NaN,-5.363869,4.449036,6.393812,1.551534,0.452518,-0.494228,0.182414,0.330093,0.351700,0.031067,0.234223,-0.277934,-0.931089,35.874294,24.764883,-168.047851
19578,NaN,-5.238837,4.621541,6.454122,1.385196,0.352663,-0.409685,0.215278,0.335953,0.336222,0.032777,0.235356,-0.279324,-0.930329,36.126360,24.809675,-167.758214
19579,NaN,-5.105371,4.855473,6.600626,1.167957,0.243486,-0.232231,0.210328,0.318368,0.328264,0.034438,0.236412,-0.280706,-0.929585,36.374500,24.846996,-167.477630
19580,NaN,-5.154001,4.923718,6.718201,1.139026,0.293112,-0.088618,0.197288,0.277769,0.326971,0.036044,0.237281,-0.282008,-0.928908,36.605658,24.865888,-167.213965
19581,NaN,-5.109208,4.912029,6.763128,1.070118,0.354095,-0.081229,0.210281,0.205698,0.311719,0.037468,0.237838,-0.283386,-0.928290,36.832641,24.855325,-166.983895
19582,NaN,-4.883723,5.001697,6.756247,0.863678,0.265301,-0.132906,0.250439,0.106501,0.253411,0.038428,0.238024,-0.284876,-0.927747,37.051331,24.819231,-166.822221
19583,NaN,-4.282281,5.214352,6.827512,0.284415,0.034605,-0.217890,0.299397,0.026014,0.174388,0.038853,0.237958,-0.286535,-0.927235,37.271296,24.772784,-166.729964
19584,NaN,-3.665177,5.785867,6.793105,-0.282476,-0.553432,-0.186168,0.352325,-0.031188,0.086420,0.038719,0.237762,-0.288324,-0.926736,37.490833,24.730967,-166.705170
19585,NaN,-3.112529,6.393966,6.940885,-0.883061,-1.062323,0.027947,0.389097,-0.061592,-0.009483,0.038059,0.237571,-0.290196,-0.926228,37.709405,24.708387,-166.738953
19586,NaN,-2.576326,6.837350,7.017121,-1.431933,-1.466530,0.108277,0.408048,-0.074592,-0.109448,0.036890,0.237466,-0.292015,-0.925730,37.912887,24.715556,-166.828896
19587,NaN,-1.969443,7.066512,7.318879,-2.140909,-1.587632,0.201107,0.420339,-0.057819,-0.200005,0.035317,0.237570,-0.293804,-0.925199,38.110486,24.761805,-166.956001
19588,NaN,-1.244907,7.223401,7.662743,-2.976606,-1.647155,0.230791,0.432961,-0.009657,-0.259614,0.033517,0.237987,-0.295546,-0.924603,38.307490,24.851992,-167.095082
19589,NaN,-0.753901,7.268972,7.832670,-3.524360,-1.654863,0.167149,0.426671,0.068022,-0.270240,0.031799,0.238770,-0.297258,-0.923913,38.514836,24.979888,-167.207285
19590,NaN,-0.585557,7.282051,7.903353,-3.744479,-1.622892,0.146177,0.428887,0.177602,-0.236165,0.030390,0.240013,-0.298974,-0.923084,38.745364,25.146429,-167.260390
19591,NaN,-0.493127,7.251212,7.788191,-3.812468,-1.640137,-0.001778,0.403321,0.308977,-0.169348,0.029528,0.241744,-0.300660,-0.922113,39.001368,25.345438,-167.226114
19592,NaN,-0.387815,7.100493,7.573807,-3.837137,-1.620757,-0.295375,0.364032,0.451528,-0.067585,0.029385,0.243985,-0.302235,-0.921012,39.277870,25.573162,-167.085055
19593,NaN,-0.423163,6.877319,7.278867,-3.691988,-1.562421,-0.626484,0.328670,0.574974,0.043468,0.029997,0.246598,-0.303793,-0.919782,39.584365,25.811171,-166.836478
19594,NaN,-0.564557,6.607078,7.101061,-3.502087,-1.386703,-0.856711,0.264895,0.685628,0.156220,0.031360,0.249556,-0.305144,-0.918491,39.896182,26.058709,-166.487209
19595,NaN,-0.883749,6.328587,7.035212,-3.205707,-1.108600,-0.934595,0.221875,0.748880,0.290319,0.033506,0.252563,-0.306485,-0.917146,40.229869,26.278550,-166.042571
19596,NaN,-1.309940,6.210554,7.055240,-2.869247,-0.888807,-0.810429,0.192463,0.753286,0.428667,0.036312,0.255395,-0.307825,-0.915805,40.575890,26.450781,-165.528128
19597,NaN,-1.696562,6.138620,7.086268,-2.568908,-0.702700,-0.664846,0.149296,0.674999,0.555801,0.039655,0.257627,-0.309173,-0.914586,40.915711,26.533736,-164.981431
19598,NaN,-2.123104,6.113025,7.013585,-2.175068,-0.596262,-0.540120,0.099146,0.535357,0.662743,0.043314,0.259074,-0.310416,-0.913590,41.220392,26.518356,-164.442737
19599,NaN,-2.475540,6.144159,6.781856,-1.753172,-0.633844,-0.517683,0.030646,0.382247,0.757670,0.047279,0.259617,-0.311533,-0.912859,41.480205,26.393230,-163.922083
19600,NaN,-2.839130,6.163549,6.489235,-1.273634,-0.690381,-0.535766,-0.062371,0.269772,0.843607,0.051560,0.259524,-0.312321,-0.912384,41.678216,26.190948,-163.410834
19601,NaN,-3.152747,6.117770,6.327193,-0.883157,-0.633605,-0.527287,-0.143797,0.173903,0.924646,0.056187,0.258799,-0.312897,-0.912119,41.829492,25.909397,-162.902062
19602,NaN,-3.635073,6.050713,6.304891,-0.406542,-0.438199,-0.367109,-0.224148,0.082284,0.971521,0.060965,0.257595,-0.313150,-0.912066,41.920600,25.575842,-162.413389
19603,NaN,-4.166342,6.062247,6.451570,0.033275,-0.196960,-0.030473,-0.291996,-0.025368,0.986236,0.065751,0.255809,-0.313174,-0.912229,41.956141,25.184134,-161.963933
19604,NaN,-4.517805,6.133196,6.685409,0.281988,-0.005304,0.318517,-0.343594,-0.131095,0.982571,0.070395,0.253563,-0.312947,-0.912586,41.935485,24.754872,-161.563782
19605,NaN,-4.629687,6.102359,6.900562,0.347534,0.187985,0.489442,-0.384565,-0.207710,0.966203,0.074918,0.250931,-0.312567,-0.913084,41.874883,24.293359,-161.203366
19606,NaN,-4.671828,5.920117,7.179088,0.326911,0.510566,0.581780,-0.407223,-0.234626,0.951908,0.079337,0.248225,-0.312032,-0.913634,41.787705,23.832341,-160.862817
19607,NaN,-4.722398,5.701166,7.321142,0.379795,0.791035,0.561945,-0.400041,-0.210152,0.926471,0.083688,0.245625,-0.311514,-0.914125,41.704504,23.385980,-160.523252
19608,NaN,-4.758472,5.588850,7.361310,0.461427,0.927587,0.531077,-0.391179,-0.141857,0.900939,0.087995,0.243415,-0.310934,-0.914509,41.627206,22.984983,-160.168822
19609,NaN,-4.816520,5.490649,7.310436,0.597999,1.012974,0.453985,-0.390621,-0.042680,0.885518,0.092403,0.241638,-0.310319,-0.914754,41.563845,22.626964,-159.780118
19610,NaN,-4.987401,5.329607,7.181975,0.856637,1.143336,0.327255,-0.396825,0.068867,0.861178,0.096857,0.240440,-0.309556,-0.914867,41.505038,22.332199,-159.358343
19611,NaN,-5.198498,5.155742,7.034180,1.146179,1.289454,0.192772,-0.398001,0.175283,0.826808,0.101337,0.239738,-0.308718,-0.914850,41.456554,22.091011,-158.908556
19612,NaN,-5.328172,5.046883,6.973806,1.309662,1.403625,0.127583,-0.387542,0.266045,0.780330,0.105711,0.239561,-0.307789,-0.914714,41.415652,21.912268,-158.444490
19613,NaN,-5.517987,5.032248,6.910028,1.521032,1.463756,0.140404,-0.389626,0.336580,0.741648,0.110035,0.239725,-0.306788,-0.914497,41.378487,21.773687,-157.969221
19614,NaN,-5.763943,4.919590,6.926635,1.725642,1.662251,0.170436,-0.384560,0.388651,0.700804,0.114226,0.240224,-0.305700,-0.914217,41.341854,21.678349,-157.492642
19615,NaN,-5.969220,4.830209,7.040203,1.839978,1.879102,0.267511,-0.363752,0.403093,0.660562,0.118244,0.240825,-0.304668,-0.913892,41.313583,21.600116,-157.028446
19616,NaN,-6.272226,4.668539,7.160306,2.022593,2.193060,0.361084,-0.326406,0.401568,0.626574,0.122041,0.241521,-0.303738,-0.913519,41.298207,21.538830,-156.581387
19617,NaN,-6.560839,4.533989,7.256695,2.201505,2.473717,0.448665,-0.252182,0.376112,0.579267,0.125506,0.242187,-0.303120,-0.913078,41.314561,21.480521,-156.166279
19618,NaN,-6.681736,4.519698,7.402506,2.218229,2.625549,0.582324,-0.179310,0.323324,0.536924,0.128594,0.242747,-0.302794,-0.912608,41.355663,21.419287,-155.792873
19619,NaN,-6.696029,4.449467,7.518236,2.156357,2.768914,0.620030,-0.110402,0.258188,0.494733,0.131317,0.243092,-0.302786,-0.912131,41.420075,21.342505,-155.465353
19620,NaN,-6.523056,4.456772,7.561360,1.981560,2.744438,0.585806,-0.030795,0.201254,0.426580,0.133535,0.243355,-0.303078,-0.911642,41.508672,21.269939,-155.193024
19621,NaN,-6.372837,4.618458,7.673308,1.805523,2.641767,0.703203,0.049985,0.157379,0.336841,0.135186,0.243589,-0.303667,-0.911140,41.622368,21.209756,-154.979949
19622,NaN,-6.314090,4.824753,7.712245,1.748109,2.504069,0.831484,0.118626,0.130064,0.244912,0.136285,0.243901,-0.304464,-0.910626,41.755230,21.174965,-154.820600
19623,NaN,-6.211977,4.965235,7.718407,1.662847,2.383431,0.881711,0.180878,0.099630,0.137009,0.136776,0.244267,-0.305439,-0.910128,41.901540,21.166230,-154.723201
19624,NaN,-5.988636,5.104488,7.593610,1.541033,2.148818,0.798166,0.226070,0.086316,0.041754,0.136752,0.244762,-0.306506,-0.909640,42.055830,21.189909,-154.674838
19625,NaN,-5.850547,5.277032,7.426086,1.512629,1.898175,0.738689,0.256156,0.099655,-0.048057,0.136307,0.245466,-0.307592,-0.909150,42.214471,21.252421,-154.661901
19626,NaN,-5.740399,5.446991,7.298785,1.479024,1.676833,0.717973,0.283512,0.137263,-0.132840,0.135497,0.246500,-0.308671,-0.908626,42.380644,21.364761,-154.671689
19627,NaN,-5.772638,5.691453,7.152990,1.573622,1.441568,0.785743,0.300036,0.181852,-0.219916,0.134340,0.247873,-0.309684,-0.908079,42.548337,21.528930,-154.702299
19628,NaN,-5.840325,5.978918,7.096809,1.644495,1.226894,0.958187,0.311856,0.220908,-0.305062,0.132841,0.249570,-0.310619,-0.907515,42.715028,21.743413,-154.754586
19629,NaN,-5.905736,6.222280,7.097917,1.670662,1.068701,1.143655,0.314512,0.226462,-0.385431,0.130981,0.251413,-0.311457,-0.906990,42.870067,21.991401,-154.840580
19630,NaN,-6.014261,6.455564,7.051528,1.752587,0.906857,1.308261,0.324196,0.195091,-0.450824,0.128762,0.253222,-0.312277,-0.906522,43.014875,22.252212,-154.968662
19631,NaN,-5.992490,6.732956,7.071313,1.690541,0.688863,1.497193,0.341503,0.130520,-0.520059,0.126105,0.254857,-0.313122,-0.906146,43.146354,22.513592,-155.155163
19632,NaN,-5.900851,6.982080,7.102774,1.560943,0.468467,1.648668,0.351454,0.049480,-0.577042,0.123049,0.256216,-0.313992,-0.905881,43.260220,22.763634,-155.401431
19633,NaN,-5.770636,7.206917,7.212467,1.356363,0.289548,1.820704,0.365172,-0.051387,-0.630308,0.119572,0.257211,-0.314908,-0.905747,43.354423,22.993572,-155.714946
19634,NaN,-5.555945,7.406851,7.313643,1.086783,0.093613,1.935900,0.379552,-0.157213,-0.675366,0.115707,0.257799,-0.315896,-0.905738,43.430454,23.197010,-156.094095
19635,NaN,-5.337038,7.579421,7.446526,0.798102,-0.064553,2.050747,0.395986,-0.257090,-0.709990,0.111500,0.258000,-0.316960,-0.905837,43.491078,23.373841,-156.532194
19636,NaN,-5.029067,7.743161,7.460950,0.500925,-0.306624,2.043483,0.395659,-0.346091,-0.738612,0.107025,0.257831,-0.318034,-0.906048,43.530250,23.524462,-157.021754
19637,NaN,-4.640850,7.803857,7.300649,0.227327,-0.586047,1.820968,0.392610,-0.412124,-0.771909,0.102291,0.257417,-0.319075,-0.906347,43.548616,23.661999,-157.555406
19638,NaN,-4.312274,7.788203,7.086418,0.030385,-0.811883,1.536716,0.366854,-0.433439,-0.791991,0.097467,0.256911,-0.319981,-0.906703,43.543804,23.797694,-158.107792
19639,NaN,-4.138372,7.717620,6.854024,-0.027649,-0.952510,1.266902,0.331888,-0.439343,-0.802730,0.092623,0.256379,-0.320706,-0.907104,43.514323,23.935950,-158.668275
19640,NaN,-3.950579,7.626343,6.523020,-0.045527,-1.136892,0.912203,0.286341,-0.442502,-0.799978,0.087847,0.255794,-0.321226,-0.907561,43.457361,24.070494,-159.229531
19641,NaN,-3.641676,7.403190,6.148482,-0.142675,-1.283552,0.395392,0.233752,-0.441940,-0.784496,0.083204,0.255165,-0.321517,-0.908072,43.371824,24.199359,-159.784199
19642,NaN,-3.273062,7.070700,5.699023,-0.248867,-1.404644,-0.265356,0.173209,-0.419993,-0.768833,0.078746,0.254573,-0.321539,-0.908628,43.256895,24.329510,-160.323094
19643,NaN,-3.078376,6.751903,5.330442,-0.246458,-1.438878,-0.793431,0.118966,-0.380270,-0.756143,0.074475,0.254120,-0.321310,-0.909195,43.119172,24.470863,-160.839797
19644,NaN,-2.934419,6.435896,5.073846,-0.256106,-1.399620,-1.224855,0.072765,-0.335682,-0.741546,0.070402,0.253819,-0.320866,-0.909761,42.963767,24.623307,-161.331768
19645,NaN,-2.706547,6.172059,5.149721,-0.506644,-1.241956,-1.437720,0.062372,-0.310052,-0.736664,0.066402,0.253624,-0.320370,-0.910290,42.806928,24.783895,-161.811271
19646,NaN,-2.431930,5.962295,5.403364,-0.885562,-1.036771,-1.518087,0.070489,-0.317234,-0.706280,0.062519,0.253341,-0.319943,-0.910794,42.657116,24.927973,-162.281101
19647,NaN,-2.144325,5.892869,5.841968,-1.369628,-0.834448,-1.393637,0.116668,-0.354474,-0.665082,0.058705,0.252837,-0.319791,-0.911241,42.534673,25.039635,-162.748189
19648,NaN,-2.067405,5.750220,6.045241,-1.543714,-0.636509,-1.380847,0.174379,-0.370221,-0.577158,0.055192,0.252131,-0.320008,-0.911581,42.458057,25.109595,-163.181925
19649,NaN,-1.992712,5.614923,6.267229,-1.720210,-0.423675,-1.348777,0.235897,-0.351490,-0.502172,0.051974,0.251404,-0.320597,-0.911763,42.435355,25.158059,-163.572532
19650,NaN,-1.967595,5.631712,6.378752,-1.807430,-0.370797,-1.276191,0.307210,-0.308306,-0.445321,0.048993,0.250798,-0.321561,-0.911756,42.471397,25.202911,-163.918656
19651,NaN,-2.103520,5.916566,6.436965,-1.749764,-0.511351,-1.006901,0.365088,-0.264846,-0.399344,0.046221,0.250326,-0.322840,-0.911578,42.558282,25.248172,-164.224427
19652,NaN,-2.381890,6.316459,6.373687,-1.521818,-0.771484,-0.686694,0.399103,-0.220444,-0.336572,0.043761,0.249963,-0.324332,-0.911269,42.684182,25.288793,-164.482258
19653,NaN,-2.507409,6.585747,6.322152,-1.424273,-0.955978,-0.502142,0.420027,-0.210562,-0.273957,0.041579,0.249540,-0.326002,-0.910892,42.837160,25.308915,-164.706287
19654,NaN,-2.511191,6.765506,6.136021,-1.358851,-1.174279,-0.511966,0.409184,-0.223920,-0.205699,0.039697,0.248947,-0.327699,-0.910529,42.994084,25.298217,-164.904715
19655,NaN,-2.375943,6.814602,6.011753,-1.428572,-1.287419,-0.618845,0.375389,-0.248854,-0.145402,0.038094,0.248125,-0.329330,-0.910233,43.140139,25.252745,-165.085574
19656,NaN,-2.146026,7.074129,5.788385,-1.548690,-1.645655,-0.699650,0.331872,-0.285246,-0.088690,0.036739,0.247042,-0.330829,-0.910040,43.264776,25.171437,-165.256482
19657,NaN,-1.928013,7.483998,5.554350,-1.663793,-2.126020,-0.686350,0.271918,-0.308986,-0.028924,0.035697,0.245730,-0.332144,-0.909958,43.363962,25.055430,-165.409689
19658,NaN,-1.670155,7.956898,5.335349,-1.823348,-2.659540,-0.638278,0.180338,-0.312309,0.035545,0.035048,0.244289,-0.333108,-0.910018,43.421537,24.914467,-165.535265
19659,NaN,-1.401353,8.368751,5.207153,-2.022777,-3.102145,-0.571516,0.023788,-0.282493,0.113731,0.035005,0.242811,-0.333466,-0.910284,43.412051,24.753064,-165.611260
19660,NaN,-1.135955,8.451651,5.072069,-2.176343,-3.304230,-0.713665,-0.125443,-0.212687,0.199871,0.035642,0.241495,-0.333220,-0.910700,43.344641,24.588895,-165.618031
19661,NaN,-0.983722,8.479574,4.874758,-2.189947,-3.484226,-0.885295,-0.243759,-0.102113,0.286150,0.037011,0.240498,-0.332540,-0.911157,43.248207,24.434202,-165.536315
19662,NaN,-1.034660,8.411168,4.869747,-2.100372,-3.438768,-0.907866,-0.355907,0.014288,0.369191,0.039075,0.239890,-0.331404,-0.911645,43.121387,24.298445,-165.367106
19663,NaN,-1.245112,8.216425,4.995047,-1.915840,-3.187933,-0.858534,-0.444046,0.105019,0.436797,0.041717,0.239542,-0.329955,-0.912145,42.975570,24.171228,-165.126598
19664,NaN,-1.484347,7.904585,5.062178,-1.668668,-2.876287,-0.910233,-0.496926,0.151526,0.500397,0.044774,0.239310,-0.328300,-0.912658,42.816011,24.042686,-164.838014
19665,NaN,-1.669272,7.502265,5.205559,-1.497998,-2.460941,-0.988413,-0.521397,0.173034,0.572726,0.048242,0.239022,-0.326643,-0.913151,42.662660,23.891854,-164.505552
19666,NaN,-1.691630,7.042323,5.307795,-1.450577,-2.061382,-1.194397,-0.515882,0.188110,0.632296,0.051982,0.238729,-0.325041,-0.913594,42.521716,23.728995,-164.140575
19667,NaN,-1.701703,6.493169,5.570373,-1.489273,-1.499020,-1.349772,-0.476486,0.199158,0.684595,0.055949,0.238380,-0.323709,-0.913924,42.417767,23.546894,-163.745458
19668,NaN,-1.890191,6.041257,5.776574,-1.358504,-0.993894,-1.410014,-0.408105,0.215835,0.736631,0.060081,0.238065,-0.322705,-0.914099,42.360135,23.356651,-163.321048
19669,NaN,-1.997008,5.624998,5.982303,-1.308418,-0.528367,-1.480499,-0.311973,0.214549,0.787853,0.064348,0.237655,-0.322233,-0.914082,42.369075,23.141471,-162.872698
19670,NaN,-2.020097,5.260413,6.002926,-1.253271,-0.219650,-1.678265,-0.189855,0.213934,0.850793,0.068737,0.237207,-0.322350,-0.913837,42.453227,22.906158,-162.398053
19671,NaN,-2.065671,5.030946,6.083733,-1.216439,0.034863,-1.743723,-0.063671,0.231137,0.913523,0.073308,0.236741,-0.323143,-0.913322,42.624993,22.647744,-161.887547
19672,NaN,-2.248034,4.952980,6.122663,-1.047596,0.198259,-1.692604,0.054529,0.252015,0.987556,0.078090,0.236322,-0.324511,-0.912549,42.873967,22.372686,-161.337877
19673,NaN,-2.496752,4.932663,6.150888,-0.817778,0.345566,-1.590161,0.160538,0.272613,1.075173,0.083198,0.235854,-0.326485,-0.911514,43.201925,22.064112,-160.741326
19674,NaN,-2.636624,4.871522,6.140958,-0.667305,0.483514,-1.583747,0.252593,0.304835,1.147845,0.088558,0.235480,-0.328903,-0.910236,43.592035,21.742224,-160.103081
19675,NaN,-3.026578,4.816533,6.177243,-0.323617,0.734252,-1.453668,0.316752,0.339873,1.213482,0.094216,0.235140,-0.331697,-0.908741,44.033437,21.399036,-159.423677
19676,NaN,-3.896155,4.952028,6.281023,0.404636,1.052494,-0.987626,0.374921,0.339625,1.281040,0.100087,0.234741,-0.334785,-0.907082,44.510081,21.029144,-158.720261
19677,NaN,-5.123333,5.295730,6.631948,1.329743,1.504762,-0.104834,0.409815,0.272299,1.323035,0.106011,0.233935,-0.338130,-0.905375,44.999307,20.604013,-158.031992
19678,NaN,-6.120186,5.610073,6.891293,2.108270,1.882054,0.600337,0.426641,0.124118,1.351854,0.111769,0.232444,-0.341615,-0.903757,45.470078,20.107393,-157.402327
19679,NaN,-6.676745,5.801037,7.167903,2.508946,2.227735,1.066205,0.441845,-0.066796,1.355637,0.117214,0.230047,-0.345290,-0.902283,45.916598,19.523220,-156.859970
19680,NaN,-6.885413,5.811418,7.380384,2.649366,2.551013,1.238224,0.456857,-0.281950,1.326937,0.122116,0.226759,-0.349081,-0.901005,46.326645,18.866551,-156.431145
19681,NaN,-6.515870,5.845383,7.530030,2.337526,2.602293,1.191326,0.466163,-0.444123,1.278334,0.126515,0.222791,-0.352963,-0.899875,46.708182,18.159237,-156.099617
19682,NaN,-5.902271,5.804565,7.553789,1.876989,2.530337,0.941934,0.465335,-0.519220,1.198382,0.130400,0.218643,-0.356759,-0.898840,47.061318,17.458088,-155.840580
19683,NaN,-5.396537,5.895433,7.566192,1.523522,2.387519,0.822303,0.450963,-0.511176,1.103077,0.133895,0.214659,-0.360384,-0.897840,47.392952,16.795247,-155.621772
19684,NaN,-4.977947,5.949650,7.596059,1.225299,2.303366,0.726301,0.416392,-0.421331,1.011009,0.137157,0.211236,-0.363662,-0.896837,47.700269,16.208364,-155.405435
19685,NaN,-4.605184,6.057823,7.570647,0.985555,2.154376,0.656606,0.355023,-0.291585,0.898903,0.140224,0.208530,-0.366461,-0.895856,47.974104,15.715023,-155.180060
19686,NaN,-4.272622,6.112435,7.429415,0.815593,1.975362,0.494860,0.314624,-0.160356,0.788835,0.143067,0.206601,-0.368850,-0.894873,48.224977,15.320773,-154.943399
19687,NaN,-4.016465,6.180040,7.309048,0.687635,1.817870,0.383843,0.275557,-0.007995,0.658576,0.145655,0.205545,-0.370826,-0.893881,48.456643,15.036824,-154.692513
19688,NaN,-3.918732,6.412438,7.100237,0.740371,1.546344,0.382884,0.234350,0.143998,0.509653,0.147891,0.205429,-0.372339,-0.892911,48.664913,14.876077,-154.434041
19689,NaN,-3.835867,6.574071,7.006024,0.728057,1.384801,0.413202,0.163591,0.284542,0.346353,0.149739,0.206176,-0.373270,-0.892042,48.832261,14.835746,-154.177349
19690,NaN,-3.796250,6.656295,6.832668,0.767009,1.231253,0.350913,0.082487,0.419749,0.190231,0.151219,0.207771,-0.373567,-0.891298,48.952553,14.915332,-153.921269
19691,NaN,-3.787399,6.569481,6.707298,0.776393,1.219044,0.207359,0.014104,0.556041,0.052567,0.152416,0.210164,-0.373317,-0.890638,49.036564,15.103324,-153.657421
19692,NaN,-3.962886,6.472754,6.617921,0.913295,1.301568,0.130624,-0.039740,0.664143,-0.069817,0.153318,0.213237,-0.372606,-0.890050,49.090823,15.386476,-153.392196
19693,NaN,-4.156363,6.477404,6.585538,1.038239,1.348583,0.172523,-0.073774,0.728228,-0.181527,0.153883,0.216763,-0.371575,-0.889531,49.123361,15.740251,-153.141035
19694,NaN,-4.397194,6.490572,6.639199,1.153313,1.454643,0.291531,-0.083746,0.731379,-0.276241,0.154035,0.220480,-0.370384,-0.889088,49.142065,16.137742,-152.924741
19695,NaN,-4.621183,6.596297,6.684727,1.263555,1.480761,0.471394,-0.083532,0.687851,-0.356021,0.153753,0.224138,-0.369137,-0.888740,49.148157,16.552212,-152.758783
19696,NaN,-4.768367,6.707082,6.873230,1.233580,1.549278,0.724915,-0.074338,0.615545,-0.418570,0.153044,0.227604,-0.367909,-0.888492,49.144334,16.967921,-152.649616
19697,NaN,-4.787188,6.809558,7.043028,1.103838,1.552470,0.923344,-0.057723,0.519510,-0.466044,0.151928,0.230733,-0.366769,-0.888347,49.132236,17.367391,-152.602545
19698,NaN,-4.704030,6.843127,7.138358,0.923307,1.513260,0.993310,-0.031211,0.405634,-0.496432,0.150434,0.233437,-0.365794,-0.888297,49.116656,17.738165,-152.619079
19699,NaN,-4.576242,6.887752,7.228118,0.714958,1.444552,1.051501,-0.003409,0.306196,-0.517389,0.148632,0.235752,-0.364987,-0.888321,49.099968,18.080245,-152.689427
19700,NaN,-4.363170,6.903059,7.255418,0.469624,1.325148,1.020305,0.035245,0.217254,-0.539283,0.146522,0.237742,-0.364390,-0.888386,49.090012,18.398891,-152.809044
19701,NaN,-4.206371,6.948087,7.306579,0.266020,1.226857,1.039933,0.065947,0.146476,-0.550713,0.144196,0.239456,-0.363961,-0.888482,49.084582,18.695698,-152.965983
19702,NaN,-4.093506,7.024191,7.249602,0.162467,1.067262,1.026461,0.099975,0.083278,-0.555103,0.141692,0.240923,-0.363725,-0.888585,49.088578,18.970905,-153.153629
19703,NaN,-4.017259,7.094230,7.202026,0.086888,0.937059,1.024741,0.140909,0.025231,-0.556321,0.139027,0.242159,-0.363701,-0.888680,49.105409,19.224830,-153.368888
19704,NaN,-4.025851,7.183604,7.054067,0.139286,0.775033,1.001714,0.171906,-0.020977,-0.558603,0.136229,0.243216,-0.363847,-0.888765,49.132586,19.462558,-153.606204
19705,NaN,-4.049968,7.203178,6.880692,0.215453,0.654789,0.918419,0.183131,-0.064613,-0.562538,0.133318,0.244089,-0.364057,-0.888881,49.156957,19.685771,-153.865719
19706,NaN,-4.054169,7.180881,6.860259,0.193688,0.644750,0.892973,0.192362,-0.124165,-0.584173,0.130191,0.244743,-0.364325,-0.889055,49.174412,19.896107,-154.161210
19707,NaN,-3.818428,7.193970,6.869375,-0.042201,0.529515,0.828725,0.207673,-0.178420,-0.605980,0.126847,0.245201,-0.364658,-0.889276,49.186883,20.095776,-154.491130
19708,NaN,-3.423511,7.224455,6.925665,-0.436489,0.368509,0.749112,0.207173,-0.203777,-0.624239,0.123376,0.245577,-0.364986,-0.889526,49.192419,20.293793,-154.840058
19709,NaN,-3.044603,7.160257,6.987617,-0.825467,0.287356,0.608522,0.204646,-0.191996,-0.643835,0.119839,0.246036,-0.365258,-0.889771,49.193128,20.504840,-155.192237
19710,NaN,-2.630180,7.138061,7.060683,-1.251984,0.172920,0.489036,0.192803,-0.141379,-0.647461,0.116393,0.246718,-0.365446,-0.889962,49.194577,20.736316,-155.522491
19711,NaN,-2.445306,7.079098,6.975145,-1.405681,0.080610,0.324531,0.162816,-0.050835,-0.651676,0.113129,0.247786,-0.365430,-0.890093,49.190311,21.003422,-155.813450
19712,NaN,-2.408527,6.916817,6.862729,-1.426183,0.099761,0.121911,0.128010,0.043641,-0.653981,0.110069,0.249260,-0.365207,-0.890156,49.181422,21.306970,-156.061506
19713,NaN,-2.387139,6.784752,6.686543,-1.402364,0.061573,-0.093094,0.091772,0.112533,-0.663966,0.107135,0.251030,-0.364759,-0.890200,49.159032,21.640219,-156.282675
19714,NaN,-2.395264,6.607156,6.531835,-1.366791,0.076211,-0.316242,0.056983,0.164992,-0.679554,0.104270,0.253046,-0.364114,-0.890234,49.123468,22.000153,-156.485802
19715,NaN,-2.348281,6.559936,6.470411,-1.427496,0.030214,-0.411919,0.032522,0.207841,-0.686033,0.101484,0.255241,-0.363314,-0.890256,49.077319,22.378192,-156.672952
19716,NaN,-2.313298,6.516376,6.377172,-1.462763,-0.034713,-0.520668,0.008820,0.242485,-0.695302,0.098747,0.257599,-0.362385,-0.890263,49.022504,22.773740,-156.847884
19717,NaN,-2.411837,6.487982,6.326986,-1.407370,-0.038732,-0.541274,-0.019836,0.246326,-0.692379,0.096068,0.259941,-0.361315,-0.890311,48.949196,23.168362,-157.021512
19718,NaN,-2.416797,6.531029,6.260673,-1.422461,-0.139314,-0.558059,-0.039022,0.224611,-0.693020,0.093369,0.262185,-0.360174,-0.890402,48.860961,23.555784,-157.206023
19719,NaN,-2.427575,6.549456,6.196124,-1.430127,-0.221165,-0.588482,-0.077292,0.194857,-0.685552,0.090701,0.264248,-0.358872,-0.890594,48.742917,23.927242,-157.403536
19720,NaN,-2.382843,6.475046,6.089972,-1.455828,-0.282048,-0.730140,-0.123102,0.161400,-0.675213,0.088075,0.266133,-0.357400,-0.890888,48.594019,24.282381,-157.613265
19721,NaN,-2.347197,6.400170,6.063355,-1.511612,-0.294281,-0.820250,-0.162578,0.152385,-0.655871,0.085575,0.267908,-0.355768,-0.891253,48.420337,24.623747,-157.821674
19722,NaN,-2.270266,6.263026,6.037426,-1.597390,-0.274779,-0.969458,-0.176390,0.155286,-0.636756,0.083178,0.269667,-0.354104,-0.891612,48.242733,24.958967,-158.021592
19723,NaN,-2.216462,6.082414,6.030752,-1.670827,-0.202769,-1.126756,-0.175973,0.198815,-0.625757,0.080911,0.271580,-0.352425,-0.891905,48.072328,25.303744,-158.198894
19724,NaN,-2.265537,5.857885,5.973198,-1.630196,-0.091152,-1.300317,-0.160411,0.275129,-0.612847,0.078809,0.273831,-0.350807,-0.892043,47.928959,25.673675,-158.335413
19725,NaN,-2.389848,5.701967,5.977438,-1.566636,0.033255,-1.357049,-0.132761,0.365713,-0.596872,0.076904,0.276446,-0.349286,-0.891999,47.819638,26.069204,-158.424617
19726,NaN,-2.501463,5.470313,5.908750,-1.474682,0.169922,-1.512623,-0.115570,0.467379,-0.578637,0.075228,0.279505,-0.347831,-0.891757,47.745948,26.498162,-158.457952
19727,NaN,-2.825741,5.165461,5.866815,-1.219025,0.449202,-1.603050,-0.094397,0.538446,-0.562145,0.073724,0.282834,-0.346453,-0.891370,47.700074,26.945070,-158.452112
19728,NaN,-3.102157,4.841303,5.928672,-1.063714,0.790351,-1.660742,-0.053215,0.600609,-0.560906,0.072267,0.286471,-0.345241,-0.890798,47.693698,27.417846,-158.415282
19729,NaN,-3.372331,4.720737,5.915565,-0.890986,0.937493,-1.628637,0.012161,0.675792,-0.567442,0.070823,0.290448,-0.344267,-0.890002,47.738200,27.919801,-158.346158
19730,NaN,-3.739803,4.713799,6.057260,-0.743393,1.123622,-1.381749,0.081004,0.739779,-0.586990,0.069294,0.294786,-0.343551,-0.888973,47.836130,28.457170,-158.252529
19731,NaN,-4.245923,4.712730,6.168959,-0.476836,1.336462,-1.078869,0.151464,0.778540,-0.618447,0.067592,0.299343,-0.343068,-0.887767,47.975769,29.020022,-158.153497
19732,NaN,-4.680032,4.693864,6.230346,-0.249990,1.513536,-0.846182,0.213352,0.806034,-0.658268,0.065660,0.304127,-0.342794,-0.886390,48.153637,29.612734,-158.054781
19733,NaN,-5.033076,4.675514,6.332098,-0.122610,1.688769,-0.624660,0.283638,0.845778,-0.711396,0.063457,0.309168,-0.342713,-0.884837,48.369206,30.240495,-157.958494
19734,NaN,-5.352271,4.853225,6.291909,0.028118,1.625846,-0.371109,0.332107,0.918880,-0.763929,0.061064,0.314651,-0.342744,-0.883059,48.625197,30.920724,-157.843674
19735,NaN,-5.789624,5.075280,6.197613,0.285758,1.536815,-0.053395,0.362190,0.975428,-0.808695,0.058525,0.320432,-0.342790,-0.881132,48.903054,31.638764,-157.717440
19736,NaN,-6.213064,5.267892,5.960480,0.608321,1.383937,0.166957,0.384721,0.988489,-0.853909,0.055766,0.326365,-0.342859,-0.879104,49.194369,32.383088,-157.597474
19737,NaN,-6.617795,5.451638,5.639279,0.961725,1.181668,0.335918,0.406199,0.958753,-0.892962,0.052750,0.332201,-0.342933,-0.877073,49.480783,33.130635,-157.506858
19738,NaN,-7.092597,5.806241,5.427782,1.272811,0.932269,0.722366,0.434086,0.902926,-0.912427,0.049501,0.337841,-0.343113,-0.875035,49.769979,33.867683,-157.446724
19739,NaN,-7.642007,6.413326,5.172642,1.625642,0.486612,1.296140,0.441888,0.807207,-0.902744,0.046116,0.343011,-0.343334,-0.873120,50.036944,34.563113,-157.430435
19740,NaN,-7.965399,6.878277,4.899810,1.835359,0.062555,1.649967,0.419845,0.673565,-0.883124,0.042621,0.347567,-0.343529,-0.871418,50.261610,35.202573,-157.470964
19741,NaN,-8.313151,7.339842,4.672533,2.040658,-0.332343,2.042199,0.367223,0.536962,-0.831586,0.039207,0.351399,-0.343583,-0.870019,50.423766,35.768027,-157.562273
19742,NaN,-8.682955,7.595230,4.656021,2.170571,-0.449997,2.428424,0.318135,0.404191,-0.788768,0.035836,0.354579,-0.343534,-0.868892,50.530280,36.267746,-157.703511
