// General information: 
//  MT Manager version: 2019.0.1 
//  XDA version: 2019.0.1 build 2740 rev 84096 built on 2019-01-30
// Device information: 
//  DeviceId: 00B4381A
//  ProductCode: MTW2-3A7G6
//  Firmware Version: 4.3.4
//  Hardware Version: 1.1.0
// Device settings: 
//  Filter Profile: human(46.1)
//  Option Flags: Orientation Smoother Disabled, AHS Disabled, ICC Disabled
// Coordinate system: ENU
PacketCounter,SampleTimeFine,Acc_X,Acc_Y,Acc_Z,FreeAcc_E,FreeAcc_N,FreeAcc_U,Gyr_X,Gyr_Y,Gyr_Z,Quat_q0,Quat_q1,Quat_q2,Quat_q3,Roll,Pitch,Yaw
21796,NaN,-6.533837,3.935282,6.042883,0.095841,-0.069522,-0.082329,0.075441,-0.040825,-0.019508,-0.236100,0.295595,-0.312839,-0.871213,32.788871,41.511900,162.398498
21797,NaN,-6.538694,4.037001,6.075196,0.030431,-0.117043,-0.017521,0.085941,-0.065692,-0.023388,-0.236493,0.295235,-0.313130,-0.871124,32.811394,41.489128,162.348973
21798,NaN,-6.605072,3.991321,6.043992,0.121237,-0.121111,-0.011764,0.089116,-0.083905,-0.033217,-0.236964,0.294806,-0.313394,-0.871046,32.825698,41.460663,162.284980
21799,NaN,-6.698033,4.098447,6.116010,0.102776,-0.166666,0.138602,0.110328,-0.100259,-0.042679,-0.237530,0.294299,-0.313720,-0.870946,32.844411,41.427636,162.208941
21800,NaN,-6.654803,4.162553,6.201178,0.008693,-0.143871,0.189666,0.075440,-0.114486,-0.042864,-0.238071,0.293769,-0.313874,-0.870922,32.838494,41.387467,162.126138
21801,NaN,-6.557015,4.090298,6.246572,-0.028583,-0.044441,0.124205,0.031906,-0.108168,-0.040638,-0.238526,0.293312,-0.313853,-0.870959,32.811284,41.349499,162.047980
21802,NaN,-6.510896,4.032670,6.231835,-0.016664,-0.009361,0.060994,0.024300,-0.096784,-0.029415,-0.238906,0.292898,-0.313825,-0.871004,32.786768,41.313635,161.981257
21803,NaN,-6.603938,4.049438,6.255245,0.035762,-0.030830,0.144008,0.012318,-0.074049,-0.016713,-0.239174,0.292577,-0.313794,-0.871050,32.767774,41.284707,161.932679
21804,NaN,-6.563643,4.056620,6.281086,-0.002499,-0.013677,0.136655,-0.036385,-0.067150,0.011754,-0.239239,0.292300,-0.313596,-0.871196,32.734083,41.250320,161.904675
21805,NaN,-6.662461,4.050524,6.295123,0.070530,-0.029013,0.208185,-0.078374,-0.038795,0.038681,-0.239077,0.292156,-0.313293,-0.871398,32.696230,41.221431,161.906415
21806,NaN,-6.432618,3.931927,6.410150,-0.062343,0.180438,0.081361,-0.092293,0.017912,0.057038,-0.238729,0.292246,-0.313020,-0.871562,32.672756,41.214029,161.942505
21807,NaN,-6.520030,3.941198,6.268455,0.044648,0.057779,0.053012,-0.013185,0.073883,0.053333,-0.238424,0.292493,-0.313157,-0.871513,32.709046,41.235184,161.999744
21808,NaN,-6.508263,4.160172,6.329251,-0.118565,-0.043939,0.172699,-0.010171,0.059934,0.044626,-0.238185,0.292687,-0.313274,-0.871471,32.738808,41.251863,162.045195
21809,NaN,-6.426791,4.134128,6.277502,-0.145206,-0.039439,0.075641,-0.048331,0.063543,0.029222,-0.237949,0.292968,-0.313210,-0.871464,32.742010,41.275367,162.082906
21810,NaN,-6.419944,4.002583,6.192579,-0.045021,-0.003548,-0.036065,-0.050688,0.076461,0.023898,-0.237715,0.293315,-0.313140,-0.871437,32.744338,41.306423,162.121919
21811,NaN,-6.404647,4.153767,6.212391,-0.158025,-0.087198,0.027765,-0.011836,0.084075,0.030699,-0.237495,0.293636,-0.313264,-0.871344,32.774946,41.338994,162.168889
21812,NaN,-6.396095,4.197593,6.169433,-0.179556,-0.140879,0.012771,-0.066431,0.101909,0.044881,-0.237106,0.294079,-0.313185,-0.871329,32.784179,41.375781,162.231951
21813,NaN,-6.480932,4.105571,6.052440,-0.027312,-0.174498,-0.042374,-0.092398,0.110680,0.045413,-0.236656,0.294588,-0.313005,-0.871343,32.781681,41.416222,162.299990
21814,NaN,-6.659939,4.170102,6.066630,0.050724,-0.248094,0.111244,-0.080351,0.106532,0.048821,-0.236222,0.295061,-0.312877,-0.871347,32.785996,41.454010,162.367576
21815,NaN,-6.800240,4.208882,6.112072,0.105867,-0.274803,0.248558,-0.109176,0.080956,0.046724,-0.235790,0.295462,-0.312593,-0.871430,32.766679,41.480249,162.424171
21816,NaN,-6.876811,4.099504,6.139056,0.212373,-0.201637,0.271890,-0.144076,0.026977,0.046403,-0.235396,0.295667,-0.312090,-0.871648,32.711703,41.480485,162.457306
21817,NaN,-6.601544,3.976483,6.117827,0.096452,-0.076126,0.026291,-0.123545,-0.026459,0.035389,-0.235164,0.295629,-0.311604,-0.871897,32.650341,41.458172,162.461647
21818,NaN,-6.388715,3.912793,6.126852,-0.020027,0.014852,-0.134707,-0.071016,-0.031837,0.008972,-0.235134,0.295551,-0.311295,-0.872042,32.605204,41.441638,162.446428
21819,NaN,-6.319484,3.870298,6.170858,-0.060368,0.085053,-0.169882,-0.029586,-0.021871,-0.020408,-0.235272,0.295512,-0.311136,-0.872074,32.574659,41.438833,162.417226
21820,NaN,-6.197461,3.815598,6.154117,-0.109772,0.136256,-0.283267,0.005990,-0.025160,-0.040724,-0.235562,0.295449,-0.311097,-0.872032,32.554294,41.440837,162.372768
21821,NaN,-6.231111,3.775448,6.081958,-0.036871,0.107514,-0.322796,0.074420,-0.009871,-0.068315,-0.236050,0.295414,-0.311342,-0.871824,32.566808,41.458892,162.317135
21822,NaN,-6.292143,3.975727,6.163014,-0.144386,0.013596,-0.150432,0.129662,-0.017281,-0.083305,-0.236695,0.295306,-0.311787,-0.871527,32.601255,41.477850,162.248470
21823,NaN,-6.360237,4.069170,6.180077,-0.160292,-0.050231,-0.056874,0.095062,-0.001093,-0.078026,-0.237243,0.295299,-0.312118,-0.871262,32.623732,41.503108,162.190009
21824,NaN,-6.628552,3.969544,6.127757,0.106511,-0.074441,0.047713,0.083133,0.006340,-0.063529,-0.237697,0.295317,-0.312418,-0.871024,32.646368,41.527399,162.143807
21825,NaN,-6.745342,4.045406,6.094126,0.154741,-0.173035,0.134645,0.083220,-0.014895,-0.047411,-0.238112,0.295216,-0.312723,-0.870836,32.671106,41.536385,162.099641
21826,NaN,-6.814860,4.084656,6.111807,0.174561,-0.201273,0.207788,0.075507,-0.031884,-0.032078,-0.238477,0.295028,-0.312990,-0.870703,32.692329,41.532540,162.057916
21827,NaN,-6.700580,4.046336,6.132888,0.110846,-0.131919,0.129809,0.069384,-0.044643,-0.015961,-0.238781,0.294761,-0.313246,-0.870618,32.714510,41.517087,162.021787
21828,NaN,-6.698298,4.050122,6.132881,0.110578,-0.131798,0.129813,0.072382,-0.040825,-0.000784,-0.239018,0.294489,-0.313535,-0.870541,32.744862,41.499263,161.996517
21829,NaN,-6.719989,4.089656,6.132823,0.106947,-0.160802,0.160164,0.080532,-0.042207,0.010911,-0.239219,0.294180,-0.313882,-0.870466,32.785550,41.477086,161.978596
21830,NaN,-6.823061,4.088328,6.259431,0.139940,-0.093101,0.307629,0.059034,-0.022403,0.020200,-0.239317,0.293971,-0.314166,-0.870407,32.822243,41.461645,161.974429
21831,NaN,-6.787314,4.133099,6.330904,0.066647,-0.063740,0.347134,0.025537,-0.032775,0.044593,-0.239270,0.293718,-0.314330,-0.870446,32.847896,41.433577,161.982533
21832,NaN,-6.683907,4.121261,6.255133,0.033840,-0.083437,0.226136,-0.023024,-0.038190,0.076627,-0.239027,0.293450,-0.314320,-0.870607,32.857194,41.393001,162.008024
21833,NaN,-6.402006,4.025248,6.361630,-0.142333,0.119600,0.067802,-0.081846,0.001120,0.097109,-0.238539,0.293393,-0.314133,-0.870827,32.852722,41.365083,162.064009
21834,NaN,-6.276561,3.857366,6.240529,-0.085484,0.182574,-0.159810,-0.041794,0.081640,0.098503,-0.237984,0.293634,-0.314217,-0.870868,32.893319,41.375361,162.153149
21835,NaN,-6.412292,3.992813,6.215052,-0.061534,0.048597,-0.031033,-0.001738,0.124457,0.100509,-0.237406,0.294011,-0.314529,-0.870786,32.969853,41.405453,162.262340
21836,NaN,-6.487846,4.104726,6.147428,-0.052199,-0.080706,0.022075,0.001987,0.141631,0.107613,-0.236781,0.294447,-0.314888,-0.870679,33.056053,41.441546,162.382398
21837,NaN,-6.717767,4.280043,6.206713,-0.016455,-0.200951,0.283341,0.006321,0.126047,0.095958,-0.236226,0.294829,-0.315226,-0.870578,33.135616,41.473374,162.490053
21838,NaN,-6.767985,4.439577,6.253350,-0.094676,-0.282956,0.411345,-0.078811,0.086359,0.087472,-0.235657,0.295150,-0.315137,-0.870655,33.151904,41.489055,162.574320
21839,NaN,-6.640500,4.235622,6.083641,-0.002695,-0.232028,0.136864,-0.168391,0.033918,0.094692,-0.235000,0.295340,-0.314609,-0.870960,33.105882,41.477370,162.642347
21840,NaN,-6.658972,4.029123,5.943998,0.185924,-0.196226,-0.023214,-0.157157,0.000760,0.082833,-0.234470,0.295388,-0.314072,-0.871280,33.051613,41.453477,162.687874
21841,NaN,-6.459313,4.075670,5.967034,0.009714,-0.175782,-0.122057,-0.116393,-0.034571,0.056716,-0.234167,0.295277,-0.313637,-0.871556,33.000709,41.421082,162.702581
21842,NaN,-6.264037,4.031904,6.057436,-0.135236,-0.048317,-0.212359,-0.099555,-0.040292,0.007611,-0.234114,0.295197,-0.313191,-0.871757,32.936246,41.400975,162.682853
21843,NaN,-6.155757,3.928319,6.142136,-0.182781,0.098629,-0.272890,-0.055366,-0.021443,-0.022191,-0.234225,0.295192,-0.312922,-0.871826,32.890724,41.399094,162.652420
21844,NaN,-6.182556,3.921701,6.272697,-0.211048,0.182703,-0.175647,-0.015345,0.014696,-0.055788,-0.234486,0.295352,-0.312814,-0.871740,32.862716,41.425142,162.614862
21845,NaN,-6.308268,3.970800,6.289182,-0.162319,0.131722,-0.062220,0.029605,0.037954,-0.072074,-0.234841,0.295587,-0.312905,-0.871532,32.860246,41.467405,162.577492
21846,NaN,-6.374431,3.995677,6.263717,-0.128148,0.085410,-0.024469,0.043432,0.066337,-0.071898,-0.235179,0.295928,-0.313090,-0.871259,32.873183,41.523309,162.550966
21847,NaN,-6.526906,3.911893,6.111528,0.079041,0.010540,-0.053188,0.063886,0.064422,-0.053588,-0.235463,0.296210,-0.313388,-0.870979,32.905405,41.572507,162.536458
21848,NaN,-6.635101,3.911053,6.111716,0.151903,-0.005309,0.018430,0.112091,0.041309,-0.032484,-0.235769,0.296299,-0.313901,-0.870681,32.967584,41.604121,162.524900
21849,NaN,-6.622123,4.048851,6.058894,0.078919,-0.124198,0.032832,0.137334,0.017321,-0.009440,-0.236045,0.296219,-0.314529,-0.870407,33.047770,41.617060,162.519010
21850,NaN,-6.722284,4.107333,6.061368,0.115792,-0.175706,0.124877,0.125084,0.004574,-0.004687,-0.236307,0.296089,-0.315096,-0.870175,33.119106,41.622368,162.510037
21851,NaN,-6.775167,4.129060,6.055231,0.144566,-0.198333,0.165168,0.110869,0.001281,-0.005071,-0.236550,0.295958,-0.315601,-0.869971,33.182107,41.625615,162.500272
21852,NaN,-6.842576,4.139517,6.079292,0.179490,-0.196959,0.229386,0.102817,-0.010485,-0.005409,-0.236806,0.295790,-0.316051,-0.869795,33.236187,41.623945,162.484530
21853,NaN,-6.782714,4.237396,6.140159,0.058567,-0.203482,0.267860,0.080705,-0.024737,-0.004814,-0.237039,0.295585,-0.316388,-0.869678,33.274099,41.614927,162.464497
21854,NaN,-6.642485,4.131425,6.170872,0.013832,-0.075146,0.150500,0.030344,-0.026154,0.012464,-0.237135,0.295406,-0.316531,-0.869661,33.289887,41.600147,162.453616
21855,NaN,-6.575034,4.042382,6.151273,0.029627,-0.010947,0.056917,0.024218,-0.023638,0.026789,-0.237149,0.295225,-0.316673,-0.869667,33.309382,41.582084,162.453969
21856,NaN,-6.540286,4.034070,6.102789,0.032036,-0.029343,0.000121,0.022222,-0.029040,0.048521,-0.237081,0.294986,-0.316830,-0.869709,33.335021,41.554579,162.464940
21857,NaN,-6.629217,3.991691,6.080026,0.134574,-0.033696,0.027413,0.021537,-0.015728,0.058881,-0.236940,0.294790,-0.317017,-0.869746,33.368762,41.530032,162.488969
21858,NaN,-6.802343,4.182891,6.199072,0.105786,-0.118962,0.295309,0.000563,-0.004446,0.074902,-0.236686,0.294642,-0.317148,-0.869818,33.399989,41.505966,162.527104
21859,NaN,-6.657395,4.301718,6.395133,-0.136874,-0.031242,0.370814,-0.070316,0.035054,0.072520,-0.236265,0.294756,-0.317013,-0.869943,33.400909,41.501522,162.581742
21860,NaN,-6.639212,4.159694,6.272931,-0.021936,-0.014271,0.223804,-0.092123,0.070346,0.052807,-0.235852,0.295078,-0.316797,-0.870024,33.390542,41.520196,162.637251
21861,NaN,-6.712905,4.142941,6.229574,0.053534,-0.048700,0.238651,-0.075767,0.069189,0.060745,-0.235421,0.295365,-0.316662,-0.870093,33.392965,41.535814,162.698721
21862,NaN,-6.491526,4.125119,6.194336,-0.083863,-0.010837,0.062492,-0.083818,0.067613,0.056203,-0.235009,0.295660,-0.316484,-0.870169,33.388073,41.552113,162.755274
21863,NaN,-6.527828,4.066084,5.991959,0.049122,-0.117786,-0.064208,-0.073866,0.048327,0.052740,-0.234652,0.295868,-0.316322,-0.870253,33.382428,41.560585,162.802451
21864,NaN,-6.512741,4.076125,5.963087,0.042521,-0.141738,-0.088126,-0.046236,0.015675,0.042440,-0.234438,0.295914,-0.316226,-0.870330,33.378732,41.556381,162.828332
21865,NaN,-6.427981,4.133138,6.028449,-0.074873,-0.118771,-0.080049,-0.049348,-0.006329,0.036203,-0.234276,0.295879,-0.316083,-0.870438,33.365012,41.543624,162.841802
21866,NaN,-6.418529,4.119473,6.051537,-0.080543,-0.094950,-0.077536,-0.073308,-0.015328,0.030486,-0.234123,0.295841,-0.315815,-0.870589,33.332075,41.528358,162.846990
21867,NaN,-6.444778,4.097167,6.054344,-0.048299,-0.088384,-0.067592,-0.072866,-0.020083,0.022347,-0.234008,0.295793,-0.315534,-0.870738,33.295377,41.513170,162.845967
21868,NaN,-6.475705,4.139772,6.098721,-0.066553,-0.099312,-0.001848,-0.063847,-0.023861,0.020782,-0.233925,0.295722,-0.315283,-0.870876,33.261387,41.496872,162.841388
21869,NaN,-6.541180,4.141700,6.130806,-0.031631,-0.097889,0.062378,-0.068509,-0.014080,0.019671,-0.233817,0.295703,-0.315024,-0.871005,33.227608,41.485724,162.841274
21870,NaN,-6.523463,4.081362,6.182830,-0.027334,-0.020780,0.058447,-0.060542,-0.005270,0.018170,-0.233721,0.295713,-0.314805,-0.871106,33.199583,41.479153,162.842838
21871,NaN,-6.452909,4.008163,6.174268,-0.032023,0.037482,-0.023686,-0.039975,0.024198,0.016239,-0.233610,0.295830,-0.314710,-0.871131,33.191578,41.487111,162.856703
21872,NaN,-6.484322,4.021355,6.162598,-0.015166,0.014335,-0.004787,-0.015867,0.048405,0.020231,-0.233486,0.296018,-0.314752,-0.871085,33.204921,41.505628,162.882071
21873,NaN,-6.566718,4.103575,6.209190,-0.025342,-0.025293,0.112728,-0.007150,0.067610,0.017899,-0.233350,0.296287,-0.314853,-0.870994,33.228313,41.534379,162.915021
21874,NaN,-6.554618,4.114411,6.176706,-0.031959,-0.049229,0.088809,-0.025606,0.054095,0.019022,-0.233208,0.296513,-0.314856,-0.870953,33.237185,41.555991,162.942036
21875,NaN,-6.495825,4.037391,6.014862,0.028932,-0.092429,-0.083070,-0.019811,0.030473,0.011741,-0.233139,0.296642,-0.314851,-0.870930,33.240557,41.568586,162.955316
21876,NaN,-6.526070,4.051272,6.003895,0.045756,-0.115595,-0.064165,-0.002524,-0.001917,0.012493,-0.233148,0.296607,-0.314880,-0.870929,33.244295,41.565405,162.954650
21877,NaN,-6.487742,4.025752,6.035069,0.023092,-0.068401,-0.080559,-0.000751,-0.022715,0.004437,-0.233222,0.296492,-0.314885,-0.870946,33.240610,41.554614,162.940966
21878,NaN,-6.598221,3.950107,5.970662,0.172385,-0.084963,-0.078637,0.013500,-0.019488,0.004847,-0.233315,0.296375,-0.314952,-0.870937,33.245390,41.545414,162.928030
21879,NaN,-6.623732,4.018493,6.022193,0.133342,-0.101631,-0.001428,0.050982,-0.035419,-0.003041,-0.233524,0.296158,-0.315159,-0.870880,33.264960,41.531444,162.903869
21880,NaN,-6.732778,4.150279,6.052518,0.124805,-0.194243,0.143958,0.076264,-0.042793,-0.022296,-0.233865,0.295909,-0.315432,-0.870774,33.287705,41.519619,162.863778
21881,NaN,-6.834003,4.285180,6.292899,0.031003,-0.143329,0.416948,0.070605,-0.056781,-0.045341,-0.234316,0.295644,-0.315634,-0.870670,33.294412,41.508599,162.803951
21882,NaN,-6.764728,4.279824,6.267201,-0.004452,-0.144340,0.352714,0.015597,-0.068112,-0.053711,-0.234744,0.295404,-0.315567,-0.870660,33.262062,41.494524,162.733153
21883,NaN,-6.788832,4.104405,6.236808,0.129799,-0.055490,0.277517,-0.017080,-0.078566,-0.042213,-0.235086,0.295139,-0.315366,-0.870730,33.213919,41.471701,162.666279
21884,NaN,-6.645614,4.026862,6.145050,0.109697,-0.040375,0.093259,-0.024577,-0.080402,-0.019633,-0.235326,0.294840,-0.315160,-0.870842,33.169673,41.440965,162.612217
21885,NaN,-6.650003,4.070240,6.122497,0.099382,-0.093367,0.099717,-0.020151,-0.083420,-0.000787,-0.235492,0.294493,-0.315003,-0.870971,33.136308,41.403029,162.569824
21886,NaN,-6.527230,4.130716,6.273535,-0.075447,-0.010804,0.138140,-0.069230,-0.060507,0.014647,-0.235485,0.294279,-0.314676,-0.871163,33.086588,41.371054,162.546105
21887,NaN,-6.187163,3.950044,6.162602,-0.169109,0.107923,-0.230347,-0.074346,-0.014157,0.017490,-0.235380,0.294270,-0.314387,-0.871299,33.048490,41.360560,162.544562
21888,NaN,-6.365216,3.962027,6.179854,-0.055904,0.069194,-0.096911,-0.026117,0.033045,0.017098,-0.235279,0.294408,-0.314362,-0.871289,33.050292,41.372729,162.561415
21889,NaN,-6.397677,4.060286,6.279049,-0.130077,0.064878,0.027105,0.006754,0.062914,0.014013,-0.235186,0.294648,-0.314510,-0.871179,33.078284,41.400542,162.589858
21890,NaN,-6.466993,4.102934,6.174367,-0.071252,-0.047205,0.024567,0.007451,0.066132,0.010170,-0.235112,0.294902,-0.314659,-0.871060,33.105543,41.430751,162.616103
21891,NaN,-6.500338,4.117420,6.159907,-0.054471,-0.070268,0.043483,-0.002930,0.057159,0.008684,-0.235041,0.295132,-0.314755,-0.870966,33.124628,41.457278,162.638354
21892,NaN,-6.493702,4.107317,6.117138,-0.040389,-0.088331,0.008115,-0.012408,0.038983,0.015993,-0.234956,0.295282,-0.314795,-0.870924,33.135512,41.472624,162.657030
21893,NaN,-6.532099,4.133677,6.085556,-0.018323,-0.135127,0.024538,-0.024314,0.026950,0.031061,-0.234804,0.295371,-0.314794,-0.870935,33.143285,41.477664,162.680879
21894,NaN,-6.629947,4.152035,6.102824,0.033577,-0.157215,0.107706,-0.050728,0.035552,0.037238,-0.234575,0.295517,-0.314694,-0.870983,33.140285,41.484705,162.711734
21895,NaN,-6.592992,4.124401,6.133732,0.011013,-0.109932,0.091286,-0.076285,0.022370,0.030711,-0.234354,0.295647,-0.314462,-0.871083,33.117177,41.487457,162.733632
21896,NaN,-6.471772,4.068333,6.117370,-0.037685,-0.058376,-0.022256,-0.085992,0.025038,0.036687,-0.234092,0.295789,-0.314195,-0.871201,33.090830,41.489641,162.759739
21897,NaN,-6.513918,4.002468,6.155526,0.016389,0.001734,0.002663,-0.069452,0.025492,0.038201,-0.233844,0.295914,-0.314010,-0.871292,33.075826,41.491882,162.787705
21898,NaN,-6.387697,4.002420,6.140388,-0.068486,0.017912,-0.090476,-0.047940,0.012670,0.040960,-0.233639,0.295952,-0.313900,-0.871374,33.069676,41.486802,162.811387
21899,NaN,-6.337314,3.934510,6.080688,-0.041563,0.034556,-0.189083,-0.029943,0.006022,0.030078,-0.233515,0.295955,-0.313849,-0.871424,33.068026,41.481807,162.825900
21900,NaN,-6.365950,3.916164,6.078302,-0.009334,0.040889,-0.179118,0.033082,0.020407,0.002486,-0.233585,0.295992,-0.314044,-0.871322,33.094102,41.492471,162.828154
21901,NaN,-6.354273,4.046525,6.149309,-0.122364,0.006500,-0.088998,0.075494,0.019785,-0.026262,-0.233842,0.296021,-0.314387,-0.871120,33.133034,41.511726,162.812314
21902,NaN,-6.535391,4.098479,6.090743,-0.005173,-0.103899,0.015598,0.095124,0.027307,-0.065585,-0.234289,0.296122,-0.314760,-0.870831,33.167666,41.547026,162.773856
21903,NaN,-6.725241,4.126518,6.080379,0.113197,-0.166490,0.146604,0.133054,0.001252,-0.100138,-0.234979,0.296119,-0.315219,-0.870480,33.202721,41.580481,162.703163
21904,NaN,-6.858082,4.277088,6.186105,0.075601,-0.222522,0.362745,0.127121,-0.025479,-0.104861,-0.235728,0.296015,-0.315611,-0.870171,33.224250,41.602835,162.617395
21905,NaN,-6.828555,4.229275,6.204114,0.073809,-0.169476,0.334864,0.058849,-0.046000,-0.086949,-0.236324,0.295875,-0.315708,-0.870022,33.208783,41.609827,162.535358
21906,NaN,-6.814105,4.032864,6.080647,0.225266,-0.118060,0.167574,0.050382,-0.059026,-0.064834,-0.236837,0.295652,-0.315785,-0.869930,33.194004,41.603526,162.461153
21907,NaN,-6.758189,4.019181,6.024074,0.215892,-0.136812,0.089387,0.068423,-0.073458,-0.045877,-0.237312,0.295317,-0.315954,-0.869853,33.194318,41.584502,162.394024
21908,NaN,-6.512120,4.034106,6.034147,0.032143,-0.086163,-0.061575,0.061943,-0.095062,-0.026358,-0.237732,0.294862,-0.316096,-0.869841,33.192569,41.548846,162.329414
21909,NaN,-6.421236,4.027131,6.119013,-0.054078,-0.003443,-0.071566,0.058356,-0.072066,-0.017418,-0.238065,0.294498,-0.316263,-0.869812,33.199515,41.521338,162.281294
21910,NaN,-6.469365,4.096793,6.240238,-0.101080,0.022299,0.064876,0.064895,-0.041730,-0.000571,-0.238293,0.294231,-0.316519,-0.869747,33.225284,41.503170,162.255582
21911,NaN,-6.523073,4.146950,6.289644,-0.107735,0.011907,0.152028,0.013217,-0.001209,0.026712,-0.238252,0.294161,-0.316636,-0.869739,33.244433,41.495829,162.265600
21912,NaN,-6.633745,4.106452,6.156309,0.045525,-0.076819,0.125204,-0.035340,0.006689,0.047219,-0.238048,0.294148,-0.316584,-0.869819,33.246480,41.485862,162.290759
21913,NaN,-6.789375,4.152922,6.154578,0.131273,-0.145694,0.246276,-0.050862,0.011377,0.060528,-0.237749,0.294154,-0.316490,-0.869933,33.247104,41.473901,162.327494
21914,NaN,-6.587119,4.102780,6.200051,0.002054,-0.035194,0.120204,-0.092364,0.027100,0.074881,-0.237308,0.294254,-0.316255,-0.870105,33.233847,41.465029,162.378892
21915,NaN,-6.539490,3.981997,6.079293,0.084816,-0.025333,-0.036635,-0.064980,0.041101,0.073258,-0.236885,0.294389,-0.316153,-0.870211,33.239891,41.463687,162.436319
21916,NaN,-6.580045,4.125367,6.210975,-0.019279,-0.040632,0.131649,-0.045441,0.051328,0.075585,-0.236472,0.294537,-0.316151,-0.870274,33.260536,41.466197,162.498317
21917,NaN,-6.515495,4.188220,6.163991,-0.085734,-0.100404,0.085303,-0.084417,0.049472,0.078033,-0.235989,0.294721,-0.315985,-0.870403,33.260163,41.467178,162.561943
21918,NaN,-6.588618,4.171269,6.182150,-0.030114,-0.093457,0.138127,-0.097329,0.044614,0.074692,-0.235514,0.294903,-0.315748,-0.870557,33.248840,41.466749,162.620558
21919,NaN,-6.564903,4.203184,6.106091,-0.038090,-0.165082,0.087835,-0.110614,0.023746,0.071774,-0.235058,0.295015,-0.315425,-0.870759,33.223364,41.457237,162.669621
21920,NaN,-6.522661,4.142761,6.089502,-0.025444,-0.130343,0.024587,-0.127388,0.006023,0.062367,-0.234653,0.295083,-0.314994,-0.871001,33.178883,41.442214,162.704184
21921,NaN,-6.438099,4.109352,6.106134,-0.071202,-0.083675,-0.034718,-0.130019,-0.004216,0.054489,-0.234289,0.295121,-0.314531,-0.871253,33.127566,41.424554,162.730327
21922,NaN,-6.336265,4.019525,6.111038,-0.092369,-0.002165,-0.135855,-0.112817,0.005504,0.037832,-0.234013,0.295209,-0.314126,-0.871444,33.080901,41.417003,162.748989
21923,NaN,-6.370131,4.010471,6.033050,-0.035398,-0.061557,-0.166181,-0.070956,0.016874,0.011203,-0.233892,0.295340,-0.313880,-0.871521,33.050822,41.423346,162.756234
21924,NaN,-6.385562,3.963572,6.071125,-0.013592,-0.007880,-0.151238,-0.004614,0.026995,-0.027269,-0.234026,0.295496,-0.313875,-0.871434,33.044494,41.446471,162.742163
21925,NaN,-6.469028,4.126942,6.231175,-0.115097,-0.028007,0.071314,0.046103,0.042820,-0.069207,-0.234386,0.295730,-0.314052,-0.871194,33.054608,41.490377,162.708863
21926,NaN,-6.531332,4.135541,6.344777,-0.125737,0.033121,0.187327,0.037675,0.053894,-0.095409,-0.234837,0.296060,-0.314162,-0.870920,33.050956,41.547714,162.662299
21927,NaN,-6.631161,4.001726,6.202759,0.067640,0.008532,0.109796,0.041041,0.051764,-0.105718,-0.235334,0.296396,-0.314271,-0.870633,33.044857,41.607221,162.609270
21928,NaN,-6.658017,3.918849,6.034353,0.189506,-0.052399,-0.011600,0.086014,0.036137,-0.095639,-0.235885,0.296592,-0.314570,-0.870309,33.063750,41.656104,162.555054
21929,NaN,-6.637990,4.038956,6.004209,0.110032,-0.146698,0.005305,0.113989,-0.007942,-0.067050,-0.236418,0.296519,-0.314985,-0.870039,33.099342,41.674748,162.501534
21930,NaN,-6.554572,4.014667,5.953341,0.083750,-0.142134,-0.091832,0.105587,-0.044771,-0.045539,-0.236906,0.296261,-0.315347,-0.869863,33.128303,41.669163,162.445636
21931,NaN,-6.575362,4.020180,5.961881,0.095241,-0.141601,-0.070401,0.113906,-0.064990,-0.031940,-0.237376,0.295883,-0.315746,-0.869718,33.163041,41.649449,162.390800
21932,NaN,-6.515251,4.115532,6.084965,-0.045340,-0.104720,0.005656,0.120900,-0.049640,-0.019010,-0.237780,0.295544,-0.316209,-0.869555,33.210761,41.633262,162.349898
21933,NaN,-6.565107,4.187288,6.203046,-0.092273,-0.078624,0.142065,0.093337,-0.024211,-0.011647,-0.238069,0.295334,-0.316601,-0.869405,33.254237,41.626785,162.325009
21934,NaN,-6.656780,4.144924,6.177321,0.010111,-0.084055,0.169559,0.056995,-0.015849,-0.001378,-0.238248,0.295190,-0.316851,-0.869313,33.282283,41.621287,162.309595
21935,NaN,-6.673106,4.084930,6.144439,0.072276,-0.066666,0.135250,0.034445,-0.018994,0.018044,-0.238307,0.295029,-0.317031,-0.869287,33.305419,41.608023,162.306406
21936,NaN,-6.674889,4.068617,6.074499,0.112249,-0.102869,0.086006,0.011730,-0.025045,0.035605,-0.238273,0.294840,-0.317128,-0.869324,33.320687,41.586493,162.310801
21937,NaN,-6.699513,4.052305,6.075172,0.144452,-0.096620,0.096004,-0.009164,-0.036290,0.059433,-0.238119,0.294592,-0.317160,-0.869439,33.331576,41.552332,162.326383
21938,NaN,-6.673722,4.052584,6.128696,0.113050,-0.054754,0.112388,-0.036398,-0.030509,0.085496,-0.237806,0.294358,-0.317115,-0.869620,33.338884,41.512477,162.360369
21939,NaN,-6.776859,4.201638,6.293156,0.043918,-0.068671,0.344908,-0.082860,-0.010795,0.094988,-0.237343,0.294252,-0.316905,-0.869859,33.329427,41.478988,162.410002
21940,NaN,-6.491071,4.121222,6.352006,-0.130220,0.088779,0.159354,-0.115377,0.031846,0.086183,-0.236812,0.294381,-0.316592,-0.870075,33.309084,41.468777,162.470603
21941,NaN,-6.518790,4.051231,6.170931,-0.003227,0.003930,0.035534,-0.090402,0.058864,0.070271,-0.236334,0.294625,-0.316395,-0.870193,33.304146,41.476376,162.533649
21942,NaN,-6.531833,4.127568,6.192045,-0.049043,-0.036477,0.088795,-0.074502,0.069283,0.064280,-0.235899,0.294903,-0.316271,-0.870262,33.308380,41.490994,162.595985
21943,NaN,-6.443843,4.120152,6.153137,-0.096059,-0.037510,0.003076,-0.083682,0.075297,0.057373,-0.235463,0.295231,-0.316105,-0.870329,33.306568,41.510652,162.657584
21944,NaN,-6.423342,4.033464,6.029867,-0.017079,-0.057251,-0.123318,-0.069914,0.069763,0.052164,-0.235087,0.295525,-0.315983,-0.870376,33.308480,41.529310,162.712408
21945,NaN,-6.449365,4.068125,6.028081,-0.021342,-0.086115,-0.092922,-0.033361,0.062997,0.035473,-0.234844,0.295777,-0.315993,-0.870352,33.323287,41.550380,162.754547
21946,NaN,-6.580042,4.134489,6.023588,0.031464,-0.161366,0.018260,-0.016167,0.048957,0.018264,-0.234727,0.295971,-0.316031,-0.870304,33.335856,41.569735,162.778972
21947,NaN,-6.648938,4.189894,6.170381,-0.009048,-0.111129,0.178546,-0.009330,0.044578,0.006707,-0.234675,0.296160,-0.316082,-0.870235,33.347135,41.591093,162.794947
21948,NaN,-6.623038,4.291690,6.282914,-0.132759,-0.097335,0.273498,-0.028047,0.024971,-0.012007,-0.234710,0.296311,-0.315995,-0.870206,33.333353,41.608495,162.789915
21949,NaN,-6.599686,4.135734,6.179370,-0.022419,-0.058166,0.129188,-0.068425,0.022801,-0.016331,-0.234705,0.296507,-0.315730,-0.870237,33.294896,41.626336,162.781812
21950,NaN,-6.605480,3.993405,6.066093,0.104740,-0.042597,0.003847,-0.036442,0.003198,-0.017314,-0.234786,0.296582,-0.315573,-0.870246,33.267942,41.634974,162.764195
21951,NaN,-6.504245,4.026836,6.051177,0.016025,-0.054956,-0.059017,0.008067,-0.000809,-0.021093,-0.234949,0.296599,-0.315600,-0.870187,33.264122,41.643414,162.743479
21952,NaN,-6.284165,4.006423,6.076587,-0.139856,0.026421,-0.197761,0.030282,0.011194,-0.022113,-0.235136,0.296638,-0.315736,-0.870074,33.275578,41.657389,162.726140
21953,NaN,-6.294990,3.984626,6.121678,-0.138652,0.074517,-0.171407,0.061873,0.049876,-0.028093,-0.235336,0.296817,-0.316054,-0.869842,33.314634,41.692063,162.721605
21954,NaN,-6.327015,4.053591,6.166052,-0.177967,0.058250,-0.094260,0.086414,0.071428,-0.031578,-0.235553,0.297067,-0.316491,-0.869540,33.371113,41.737866,162.723616
21955,NaN,-6.497341,4.115302,6.134145,-0.087687,-0.034725,0.024486,0.071337,0.085823,-0.029490,-0.235711,0.297397,-0.316885,-0.869241,33.424558,41.790263,162.734009
21956,NaN,-6.704288,4.083473,6.028498,0.111795,-0.123246,0.083641,0.063576,0.065468,-0.023147,-0.235866,0.297634,-0.317228,-0.868992,33.469953,41.830551,162.739018
21957,NaN,-6.750942,4.091123,5.981344,0.154253,-0.164575,0.088732,0.067722,0.029480,-0.017457,-0.236055,0.297702,-0.317558,-0.868797,33.510781,41.851882,162.733311
21958,NaN,-6.753489,4.126581,5.969446,0.138247,-0.193869,0.097704,0.034539,-0.006228,-0.009242,-0.236220,0.297639,-0.317711,-0.868718,33.525219,41.853518,162.716854
21959,NaN,-6.733406,4.038665,5.967488,0.178575,-0.129485,0.046918,0.022076,-0.029092,-0.000394,-0.236361,0.297478,-0.317800,-0.868702,33.530663,41.841410,162.697205
21960,NaN,-6.717921,4.049630,5.999299,0.152375,-0.111279,0.060810,0.039548,-0.042117,0.008840,-0.236512,0.297225,-0.317959,-0.868690,33.545541,41.820187,162.677096
21961,NaN,-6.693296,4.084387,5.982722,0.124729,-0.140809,0.048347,0.036551,-0.054892,0.015156,-0.236642,0.296912,-0.318098,-0.868710,33.558196,41.790687,162.656944
21962,NaN,-6.728843,4.195679,6.127108,0.036053,-0.125920,0.207559,0.024550,-0.070168,0.012275,-0.236801,0.296549,-0.318164,-0.868767,33.558030,41.754988,162.627130
21963,NaN,-6.696879,4.130736,6.080440,0.074906,-0.109389,0.130418,0.000882,-0.071150,0.010788,-0.236925,0.296214,-0.318123,-0.868862,33.543784,41.719221,162.597094
21964,NaN,-6.720213,4.162338,6.204936,0.031944,-0.054075,0.236373,-0.015296,-0.062760,0.005798,-0.237040,0.295941,-0.318015,-0.868963,33.520184,41.689100,162.566331
21965,NaN,-6.615505,4.111022,6.141984,0.014937,-0.044060,0.106346,-0.050057,-0.048877,0.025102,-0.236989,0.295741,-0.317798,-0.869125,33.488972,41.659417,162.555096
21966,NaN,-6.571120,4.101918,6.247793,-0.047296,0.039824,0.139018,-0.091647,-0.012248,0.038021,-0.236772,0.295727,-0.317465,-0.869310,33.449587,41.643231,162.566374
21967,NaN,-6.367635,4.015443,6.244161,-0.140469,0.138473,-0.034079,-0.084191,0.049773,0.029004,-0.236500,0.295990,-0.317227,-0.869382,33.428690,41.659738,162.599225
21968,NaN,-6.567150,4.000020,6.154974,0.038047,0.044022,0.036574,-0.033276,0.103892,0.009726,-0.236307,0.296457,-0.317243,-0.869269,33.443369,41.708020,162.641503
21969,NaN,-6.691591,4.173524,6.151470,0.017375,-0.101319,0.188597,-0.020386,0.080805,0.002360,-0.236194,0.296822,-0.317277,-0.869163,33.456197,41.747623,162.670528
21970,NaN,-6.619306,4.171295,6.270586,-0.082403,0.000460,0.213696,-0.052536,0.062318,-0.003288,-0.236096,0.297150,-0.317141,-0.869127,33.442649,41.780133,162.686930
21971,NaN,-6.574381,4.064852,6.276916,-0.058724,0.088277,0.143915,-0.046348,0.060974,-0.000250,-0.235989,0.297465,-0.317037,-0.869086,33.434211,41.811299,162.705790
21972,NaN,-6.586863,4.058224,6.124203,0.005463,-0.014074,0.054510,-0.028506,0.063025,0.016293,-0.235840,0.297737,-0.317036,-0.869034,33.443027,41.837967,162.735062
21973,NaN,-6.593107,4.158212,6.094720,-0.042073,-0.101979,0.081413,-0.020958,0.049754,0.029584,-0.235659,0.297920,-0.317074,-0.869006,33.458848,41.853818,162.768208
21974,NaN,-6.584238,4.183069,5.984643,-0.024662,-0.191812,0.017308,-0.051928,0.042315,0.033407,-0.235433,0.298103,-0.316972,-0.869042,33.455745,41.865173,162.799708
21975,NaN,-6.477061,4.119496,5.936451,-0.046717,-0.158003,-0.110272,-0.058172,0.033456,0.034507,-0.235201,0.298256,-0.316834,-0.869103,33.447371,41.872121,162.829179
21976,NaN,-6.518835,4.140822,6.025674,-0.063739,-0.120748,-0.018213,-0.054751,0.032422,0.041564,-0.234951,0.298386,-0.316720,-0.869167,33.443353,41.876176,162.861724
21977,NaN,-6.533401,4.095753,6.063827,-0.041608,-0.067150,-0.003291,-0.072387,0.038629,0.045361,-0.234643,0.298562,-0.316543,-0.869255,33.433102,41.882259,162.900409
21978,NaN,-6.622969,4.017958,5.988206,0.095755,-0.086028,-0.022399,-0.063464,0.033922,0.051559,-0.234334,0.298693,-0.316408,-0.869342,33.428809,41.883882,162.940013
21979,NaN,-6.667348,4.021268,6.007377,0.118840,-0.085337,0.020486,-0.036645,0.001866,0.039181,-0.234161,0.298676,-0.316332,-0.869422,33.425864,41.874119,162.959407
21980,NaN,-6.553600,4.096502,6.076160,-0.030737,-0.066439,0.018150,-0.027513,-0.018797,0.024012,-0.234109,0.298579,-0.316250,-0.869499,33.415438,41.859229,162.958971
21981,NaN,-6.465832,4.034495,6.040545,-0.041031,-0.032384,-0.087999,-0.045074,-0.036604,0.011147,-0.234106,0.298449,-0.316050,-0.869618,33.384655,41.839882,162.944049
21982,NaN,-6.486009,3.984434,5.932269,0.045495,-0.081467,-0.162448,-0.028533,-0.046684,0.000826,-0.234198,0.298269,-0.315896,-0.869711,33.355859,41.818955,162.916947
21983,NaN,-6.506299,4.018534,5.937033,0.041057,-0.110388,-0.132035,0.015067,-0.078763,-0.017003,-0.234474,0.297930,-0.315867,-0.869763,33.335709,41.788486,162.866055
21984,NaN,-6.516422,4.093503,6.023026,-0.024283,-0.108299,-0.041042,0.050786,-0.081443,-0.035775,-0.234898,0.297563,-0.315963,-0.869739,33.326980,41.762429,162.800827
21985,NaN,-6.607710,4.164926,6.105508,-0.028715,-0.123495,0.100415,0.043990,-0.082420,-0.042729,-0.235340,0.297212,-0.316023,-0.869718,33.312088,41.738105,162.731553
21986,NaN,-6.703272,4.097795,6.073723,0.094430,-0.124070,0.116642,0.030007,-0.084848,-0.041885,-0.235765,0.296864,-0.316015,-0.869725,33.287978,41.712312,162.661040
21987,NaN,-6.674319,4.028971,6.086819,0.114213,-0.065418,0.077266,0.036605,-0.096991,-0.032687,-0.236175,0.296441,-0.316040,-0.869749,33.269152,41.677704,162.592127
21988,NaN,-6.653267,4.006943,6.071214,0.123128,-0.059987,0.044414,0.049857,-0.093559,-0.028577,-0.236584,0.296011,-0.316128,-0.869752,33.259772,41.643523,162.526575
21989,NaN,-6.593464,4.045313,6.138035,0.038648,-0.029178,0.062101,0.065156,-0.093670,-0.024663,-0.236995,0.295557,-0.316291,-0.869735,33.261583,41.608101,162.464405
21990,NaN,-6.616377,4.114173,6.191913,-0.000839,-0.045227,0.139227,0.070569,-0.067206,-0.023224,-0.237371,0.295209,-0.316508,-0.869672,33.273797,41.584866,162.413420
21991,NaN,-6.629081,4.189177,6.335029,-0.085325,-0.000726,0.267949,0.029961,-0.038914,-0.009158,-0.237574,0.295009,-0.316605,-0.869649,33.277352,41.570683,162.384359
21992,NaN,-6.655069,4.137204,6.343249,-0.037202,0.034555,0.269010,-0.009963,0.001006,0.012409,-0.237568,0.294996,-0.316605,-0.869655,33.277609,41.568926,162.384868
21993,NaN,-6.777563,4.105890,6.308457,0.081777,0.004912,0.315669,-0.024598,0.022332,0.035637,-0.237403,0.295058,-0.316606,-0.869679,33.286188,41.570201,162.409825
21994,NaN,-6.735086,4.101028,6.348481,0.039014,0.046797,0.310520,-0.055973,0.056913,0.053033,-0.237063,0.295278,-0.316533,-0.869724,33.292941,41.582444,162.459845
21995,NaN,-6.588483,3.933077,6.095427,0.124815,0.023150,-0.013947,-0.052538,0.081754,0.061249,-0.236649,0.295590,-0.316519,-0.869735,33.312818,41.603962,162.526364
21996,NaN,-6.601213,4.047791,6.045613,0.081907,-0.088458,0.010526,-0.003968,0.058274,0.060634,-0.236351,0.295743,-0.316684,-0.869704,33.353026,41.614435,162.581861
21997,NaN,-6.437213,4.145741,6.040780,-0.092610,-0.117398,-0.061096,-0.003005,0.054808,0.039036,-0.236149,0.295913,-0.316820,-0.869652,33.384363,41.629896,162.623013
21998,NaN,-6.391214,4.195821,6.081108,-0.172109,-0.110319,-0.045876,-0.036615,0.060956,0.035621,-0.235907,0.296156,-0.316810,-0.869639,33.396028,41.649498,162.663670
21999,NaN,-6.480561,4.170437,6.065348,-0.090689,-0.122023,-0.006794,-0.063028,0.065503,0.031555,-0.235634,0.296457,-0.316689,-0.869654,33.393128,41.672779,162.704470
22000,NaN,-6.608974,4.167733,6.080012,-0.006815,-0.138934,0.086591,-0.083276,0.057283,0.026343,-0.235369,0.296753,-0.316457,-0.869709,33.373114,41.693552,162.737658
22001,NaN,-6.578780,4.151643,6.031913,-0.004550,-0.157441,0.029856,-0.110363,0.030597,0.024312,-0.235109,0.296969,-0.316076,-0.869844,33.329949,41.702137,162.759259
22002,NaN,-6.551374,4.046891,5.992136,0.050348,-0.111908,-0.056230,-0.115080,0.020900,0.023749,-0.234866,0.297148,-0.315659,-0.870000,33.280397,41.706337,162.775425
22003,NaN,-6.560277,4.052263,6.035752,0.035971,-0.093209,-0.020936,-0.099966,0.001274,0.028193,-0.234649,0.297217,-0.315294,-0.870167,33.236625,41.699561,162.787317
22004,NaN,-6.526344,4.003137,5.998951,0.054116,-0.082516,-0.086643,-0.077286,-0.007107,0.013720,-0.234550,0.297246,-0.314994,-0.870293,33.196604,41.693502,162.785261
22005,NaN,-6.462927,3.989562,6.093151,-0.019256,0.001539,-0.075535,-0.041761,0.002740,-0.017639,-0.234617,0.297323,-0.314816,-0.870313,33.167005,41.701534,162.768199
22006,NaN,-6.336583,4.002332,6.208847,-0.162718,0.097851,-0.082083,-0.004176,0.003863,-0.042618,-0.234854,0.297402,-0.314762,-0.870241,33.147857,41.718391,162.734557
22007,NaN,-6.279231,3.972930,6.168072,-0.177143,0.102955,-0.157842,0.029798,0.042466,-0.095574,-0.235310,0.297698,-0.314829,-0.869993,33.137088,41.771017,162.683650
22008,NaN,-6.393583,3.948940,6.098517,-0.064955,0.048953,-0.135016,0.057404,0.060210,-0.102808,-0.235812,0.298045,-0.315020,-0.869669,33.143108,41.833752,162.634892
22009,NaN,-6.507357,3.893571,6.035295,0.063154,0.024354,-0.121156,0.103789,0.067356,-0.093618,-0.236330,0.298354,-0.315442,-0.869269,33.182751,41.897299,162.595679
22010,NaN,-6.564236,4.032286,6.009963,0.022464,-0.092211,-0.042367,0.146322,0.053453,-0.076809,-0.236862,0.298525,-0.316050,-0.868845,33.248940,41.948684,162.560840
22011,NaN,-6.667228,4.173421,6.062825,-0.014039,-0.165877,0.117041,0.131400,0.034658,-0.069922,-0.237368,0.298623,-0.316587,-0.868478,33.305213,41.989207,162.523263
22012,NaN,-6.643884,4.091674,6.203493,-0.037170,0.000989,0.155508,0.117069,0.020318,-0.058537,-0.237829,0.298656,-0.317055,-0.868169,33.353150,42.019028,162.486250
22013,NaN,-6.635039,4.037226,6.303177,-0.050387,0.120342,0.189109,0.159373,0.065810,-0.029294,-0.238147,0.298790,-0.317806,-0.867761,33.451340,42.061408,162.488418
22014,NaN,-6.755716,4.156960,6.249418,-0.021155,-0.008552,0.285564,0.189196,0.113200,-0.007489,-0.238346,0.299059,-0.318774,-0.867259,33.589189,42.119536,162.523950
22015,NaN,-6.895874,4.247332,6.152314,0.054763,-0.150239,0.356791,0.135794,0.112749,0.011402,-0.238373,0.299360,-0.319536,-0.866867,33.705007,42.171205,162.573183
22016,NaN,-6.862374,4.094750,5.937947,0.198871,-0.173265,0.139638,0.086775,0.083081,0.031987,-0.238295,0.299556,-0.320083,-0.866619,33.792818,42.202312,162.621524
22017,NaN,-6.788086,4.001521,5.810332,0.249682,-0.170575,-0.027045,0.085395,0.049772,0.055333,-0.238161,0.299572,-0.320621,-0.866451,33.881093,42.209907,162.671753
22018,NaN,-6.959083,4.200869,5.802573,0.256015,-0.339089,0.165562,0.088571,0.022118,0.060008,-0.238062,0.299457,-0.321145,-0.866324,33.964445,42.202962,162.711905
22019,NaN,-7.024511,4.331993,5.871088,0.202827,-0.389193,0.305958,-0.007735,-0.014861,0.067996,-0.237838,0.299285,-0.321222,-0.866417,33.986014,42.175834,162.742095
22020,NaN,-6.894224,4.283001,6.068015,0.072395,-0.191782,0.319104,-0.105826,-0.011354,0.065315,-0.237479,0.299247,-0.320871,-0.866658,33.950520,42.151261,162.771159
22021,NaN,-6.669228,4.124080,6.197352,-0.037559,0.050279,0.181805,-0.142880,0.028017,0.057448,-0.237024,0.299439,-0.320393,-0.866894,33.902092,42.147749,162.813712
22022,NaN,-6.607130,4.042145,6.041347,0.023042,0.005281,0.010266,-0.148076,0.048999,0.057115,-0.236540,0.299726,-0.319918,-0.867102,33.856334,42.154537,162.863561
22023,NaN,-6.612029,4.068380,6.094214,-0.012171,0.018561,0.056942,-0.139756,0.063675,0.050383,-0.236068,0.300076,-0.319489,-0.867268,33.817378,42.170179,162.916449
22024,NaN,-6.569738,3.973863,6.025043,0.036165,0.039884,-0.053011,-0.148479,0.058932,0.049595,-0.235600,0.300419,-0.319012,-0.867452,33.771034,42.184148,162.965745
22025,NaN,-6.456321,3.893945,5.998796,0.009690,0.097507,-0.178226,-0.111657,0.061265,0.045778,-0.235191,0.300735,-0.318692,-0.867571,33.745245,42.200329,163.014873
22026,NaN,-6.379225,3.978043,6.114701,-0.142214,0.136115,-0.124026,-0.075017,0.072107,0.044272,-0.234835,0.301056,-0.318542,-0.867611,33.742523,42.222300,163.066416
22027,NaN,-6.323575,4.066898,6.177915,-0.263396,0.132699,-0.086079,-0.070979,0.106643,0.041387,-0.234436,0.301527,-0.318448,-0.867590,33.751664,42.261454,163.132021
22028,NaN,-6.306148,4.031006,6.171927,-0.259278,0.161896,-0.116516,-0.032124,0.142812,0.033782,-0.234078,0.302121,-0.318550,-0.867442,33.789565,42.320423,163.207332
22029,NaN,-6.433850,4.241920,6.153554,-0.297344,-0.012250,0.044592,0.032498,0.185593,0.031302,-0.233756,0.302828,-0.318985,-0.867123,33.877084,42.400420,163.300486
22030,NaN,-6.451951,4.496735,6.207073,-0.468662,-0.137457,0.194184,0.054233,0.233732,0.031200,-0.233394,0.303719,-0.319564,-0.866695,33.990382,42.503277,163.413965
22031,NaN,-6.510145,4.638588,6.323064,-0.573403,-0.150717,0.362187,-0.099133,0.318000,0.037894,-0.232626,0.305141,-0.319584,-0.866395,34.044253,42.643295,163.570043
22032,NaN,-6.878819,4.110308,5.977852,0.112417,-0.092255,0.183627,-0.151755,0.326240,0.061959,-0.231668,0.306622,-0.319424,-0.866188,34.081327,42.780001,163.744584
22033,NaN,-7.014285,4.264125,6.100206,0.047358,-0.128659,0.413584,-0.113372,0.316553,0.034499,-0.230899,0.308062,-0.319379,-0.865899,34.126930,42.921023,163.898566
22034,NaN,-7.027014,3.733515,5.785101,0.473905,0.024274,0.013820,-0.210887,0.270940,0.057350,-0.229957,0.309378,-0.318890,-0.865861,34.112758,43.032852,164.046764
22035,NaN,-6.968133,3.423064,5.883435,0.564230,0.329221,-0.093620,-0.019070,0.226020,0.078157,-0.229286,0.310242,-0.319214,-0.865610,34.205475,43.116130,164.190157
22036,NaN,-6.896560,3.723453,6.024749,0.271372,0.253375,0.065893,0.096700,0.210014,0.096129,-0.228749,0.310877,-0.320045,-0.865217,34.367234,43.186284,164.337431
22037,NaN,-6.688687,3.795632,5.944392,0.108581,0.211651,-0.095459,0.092652,0.210728,0.119766,-0.228090,0.311480,-0.320894,-0.864860,34.538052,43.248083,164.502208
22038,NaN,-6.674665,3.807795,5.917068,0.096681,0.211543,-0.116915,0.121370,0.232829,0.108444,-0.227501,0.312165,-0.321876,-0.864403,34.727287,43.324332,164.668570
22039,NaN,-6.539835,4.121721,5.797443,-0.143645,-0.034031,-0.151088,0.170363,0.257622,0.118361,-0.226896,0.312884,-0.323113,-0.863840,34.957734,43.408072,164.854316
22040,NaN,-6.667496,4.226564,5.719542,-0.094070,-0.157604,-0.065956,0.089130,0.255394,0.076727,-0.226356,0.313753,-0.323930,-0.863360,35.122624,43.504477,165.011617
22041,NaN,-6.690485,4.231002,5.816566,-0.132197,-0.072690,0.009409,0.089069,0.294383,0.032772,-0.225930,0.314862,-0.324720,-0.862771,35.281084,43.632953,165.160404
22042,NaN,-6.659461,4.374421,6.041960,-0.347312,0.016625,0.180724,0.073677,0.310675,-0.014780,-0.225670,0.316134,-0.325388,-0.862123,35.415210,43.784910,165.285270
22043,NaN,-6.770170,4.215103,6.096049,-0.220494,0.163563,0.221687,-0.014921,0.328217,-0.043447,-0.225352,0.317624,-0.325647,-0.861560,35.492622,43.953467,165.401976
22044,NaN,-6.728882,4.098819,5.985642,-0.162805,0.189930,0.078896,-0.040126,0.356846,-0.028311,-0.224893,0.319243,-0.325853,-0.861003,35.571794,44.131166,165.540833
22045,NaN,-6.881592,3.833155,5.721624,0.181669,0.175896,-0.080147,-0.095614,0.375099,0.030717,-0.224048,0.320904,-0.325933,-0.860576,35.653151,44.296630,165.729068
22046,NaN,-7.294422,3.688069,5.637627,0.567929,0.160951,0.099163,-0.097435,0.311982,0.113825,-0.222957,0.322161,-0.326068,-0.860338,35.751035,44.405633,165.940897
22047,NaN,-7.196992,3.452485,5.384269,0.735317,0.176550,-0.213999,-0.077784,0.168064,0.166102,-0.221896,0.322685,-0.326209,-0.860363,35.837642,44.428732,166.121134
22048,NaN,-6.909095,3.601580,5.351173,0.465418,0.113053,-0.372740,0.018852,0.060741,0.222120,-0.220936,0.322555,-0.326738,-0.860458,35.969358,44.384213,166.285888
22049,NaN,-6.524628,4.004456,5.448865,-0.066831,-0.015071,-0.416314,0.046322,0.060601,0.272346,-0.219794,0.322301,-0.327469,-0.860567,36.140212,44.320848,166.484282
22050,NaN,-6.534212,4.167433,5.506136,-0.164547,-0.070727,-0.307487,0.017453,0.092980,0.325186,-0.218335,0.322141,-0.328193,-0.860723,36.327513,44.255644,166.730135
22051,NaN,-6.735587,4.329906,5.763420,-0.211628,-0.016247,0.050788,-0.037544,0.133330,0.307018,-0.216790,0.322240,-0.328695,-0.860885,36.488670,44.213921,166.984128
22052,NaN,-6.845118,4.474625,5.686514,-0.178422,-0.169084,0.144917,-0.039601,0.193020,0.308829,-0.215144,0.322598,-0.329253,-0.860950,36.668313,44.199273,167.266241
22053,NaN,-7.138002,4.560093,5.857444,-0.088225,-0.134993,0.484358,-0.104272,0.206928,0.279153,-0.213495,0.323135,-0.329501,-0.861065,36.802736,44.200731,167.536578
22054,NaN,-7.125611,4.175124,5.620453,0.224980,-0.015324,0.174535,-0.099259,0.285815,0.245558,-0.211871,0.324059,-0.329798,-0.861005,36.951076,44.249315,167.822726
22055,NaN,-7.452051,4.145103,5.742794,0.414987,0.069332,0.459484,0.007573,0.335540,0.263028,-0.210259,0.325055,-0.330636,-0.860703,37.186253,44.314014,168.145193
22056,NaN,-7.488687,4.143162,6.034888,0.315504,0.305376,0.650256,0.044851,0.302954,0.281751,-0.208683,0.325838,-0.331627,-0.860410,37.440218,44.356275,168.463768
22057,NaN,-7.202987,4.221321,6.178814,0.009566,0.427852,0.565033,0.071456,0.262095,0.280500,-0.207220,0.326420,-0.332688,-0.860133,37.695868,44.379512,168.762673
22058,NaN,-6.840531,4.028163,6.254760,-0.164392,0.698345,0.268294,0.067853,0.258333,0.286847,-0.205732,0.326976,-0.333738,-0.859872,37.950698,44.397758,169.063341
22059,NaN,-6.446011,4.131220,6.246632,-0.495194,0.706233,0.030807,0.089774,0.255269,0.277404,-0.204322,0.327512,-0.334864,-0.859567,38.213567,44.417086,169.357350
22060,NaN,-6.251440,4.357662,6.216930,-0.750882,0.585641,-0.024273,0.065913,0.335531,0.244878,-0.202880,0.328469,-0.335912,-0.859134,38.476310,44.482984,169.670575
22061,NaN,-6.203982,4.419241,6.031521,-0.748113,0.447650,-0.136004,-0.000578,0.374000,0.243978,-0.201265,0.329660,-0.336713,-0.858744,38.715400,44.565517,170.003884
22062,NaN,-6.182734,4.378734,5.465522,-0.509189,0.105700,-0.485261,-0.022357,0.469055,0.231060,-0.199511,0.331300,-0.337491,-0.858216,38.970786,44.694019,170.377629
22063,NaN,-7.475770,5.667640,7.332603,-1.159197,0.422078,2.030214,-0.111342,0.514526,0.349154,-0.197021,0.333023,-0.338127,-0.857874,39.245632,44.798864,170.850571
22064,NaN,-7.195172,3.817135,5.273565,0.576227,0.287447,-0.130909,-0.507052,0.238267,0.226807,-0.194866,0.334153,-0.336585,-0.858533,39.140865,44.824797,171.106142
22065,NaN,-6.867447,3.465498,5.154070,0.591533,0.486622,-0.585055,-0.225404,0.255214,0.301988,-0.192826,0.334954,-0.336394,-0.858757,39.237295,44.831072,171.418026
22066,NaN,-7.129108,4.214885,5.510237,0.196317,0.210296,0.130616,-0.007363,0.361142,0.308306,-0.190947,0.335986,-0.337248,-0.858438,39.499537,44.881257,171.787826
22067,NaN,-7.122101,4.514854,5.948892,-0.179602,0.348304,0.499627,-0.031013,0.475097,0.338693,-0.188703,0.337477,-0.338160,-0.857991,39.804448,44.969336,172.236681
22068,NaN,-7.480101,4.228272,6.218206,0.090613,0.750629,0.766744,-0.073743,0.633929,0.389684,-0.185899,0.339599,-0.339119,-0.857387,40.167186,45.106487,172.801086
22069,NaN,-7.997038,4.122883,6.205672,0.494840,0.825279,1.074685,0.018038,0.607548,0.399264,-0.183250,0.341503,-0.340460,-0.856669,40.579976,45.225886,173.360550
22070,NaN,-8.240709,4.512870,6.365201,0.361972,0.705054,1.508205,0.087528,0.523448,0.372649,-0.180977,0.343023,-0.341971,-0.855943,40.991066,45.315904,173.860674
22071,NaN,-8.327609,4.974447,6.579193,0.061470,0.581434,1.893632,0.042523,0.415660,0.341614,-0.178941,0.344174,-0.343137,-0.855442,41.323506,45.368868,174.285753
22072,NaN,-8.469041,5.042130,6.598271,0.109843,0.577026,2.033823,-0.076571,0.296282,0.304682,-0.177063,0.344981,-0.343620,-0.855314,41.526035,45.383124,174.624041
22073,NaN,-8.474289,4.941301,6.538314,0.197764,0.627341,1.957907,-0.113670,0.153583,0.254613,-0.175579,0.345296,-0.343731,-0.855448,41.630901,45.354646,174.854890
22074,NaN,-8.273002,5.079419,6.323545,0.093479,0.401000,1.765772,-0.102158,0.024239,0.222450,-0.174475,0.345102,-0.343721,-0.855756,41.677991,45.282803,174.995521
22075,NaN,-8.172478,5.185581,6.319974,-0.016144,0.331772,1.742024,-0.140139,-0.034425,0.208521,-0.173465,0.344714,-0.343474,-0.856217,41.674749,45.191153,175.095991
22076,NaN,-7.979336,5.109294,6.282728,-0.072381,0.365144,1.549915,-0.178699,-0.110379,0.223697,-0.172454,0.344007,-0.343020,-0.856887,41.626370,45.061210,175.164258
22077,NaN,-6.764061,5.001693,5.960516,-0.693027,0.276146,0.470337,-0.200845,-0.132386,0.269636,-0.171245,0.343146,-0.342532,-0.857670,41.576743,44.904428,175.248753
22078,NaN,-7.095067,5.045771,5.993247,-0.479466,0.241113,0.743389,-0.240707,0.053202,0.228411,-0.169828,0.343184,-0.341959,-0.858165,41.556525,44.842887,175.407591
22079,NaN,-7.050678,4.967941,5.710705,-0.332628,0.092265,0.525856,-0.311607,0.131039,0.125344,-0.168596,0.343792,-0.340971,-0.858558,41.481314,44.853979,175.545993
22080,NaN,-6.983437,4.875418,5.559568,-0.272237,0.046640,0.354444,-0.341416,0.303147,0.037653,-0.167396,0.345311,-0.339846,-0.858629,41.416509,44.972358,175.723297
22081,NaN,-7.065107,4.700349,5.307073,-0.030252,-0.014399,0.195950,-0.339931,0.431209,-0.020303,-0.166228,0.347475,-0.338735,-0.858422,41.377054,45.167844,175.934591
22082,NaN,-7.210102,4.431739,5.079120,0.283686,0.012074,0.053547,-0.321189,0.521075,-0.047733,-0.165058,0.350053,-0.337727,-0.857997,41.371628,45.412422,176.177980
22083,NaN,-7.359800,4.178375,4.821249,0.602351,0.014647,-0.091232,-0.243426,0.562273,-0.075707,-0.164071,0.352788,-0.337035,-0.857338,41.416315,45.685243,176.427951
22084,NaN,-7.456323,4.037616,4.593715,0.809340,-0.033261,-0.203057,-0.137381,0.546822,-0.107061,-0.163432,0.355419,-0.336726,-0.856494,41.503669,45.963127,176.651648
22085,NaN,-7.370776,4.127428,4.434658,0.737148,-0.187530,-0.302091,-0.023131,0.523234,-0.140232,-0.163176,0.357909,-0.336827,-0.855466,41.634758,46.243231,176.844024
22086,NaN,-7.113837,4.503626,4.266931,0.404512,-0.543455,-0.397972,0.100389,0.488204,-0.145566,-0.163222,0.360155,-0.337414,-0.854283,41.822103,46.510001,177.015592
22087,NaN,-7.184794,5.031609,4.445984,0.047643,-0.777742,-0.009738,0.095855,0.430484,-0.103230,-0.163174,0.362085,-0.338010,-0.853240,42.004828,46.735610,177.183564
22088,NaN,-6.737151,5.150919,4.385599,-0.320130,-0.869735,-0.310285,0.046099,0.318408,-0.014333,-0.162847,0.363425,-0.338461,-0.852553,42.154689,46.879051,177.345169
22089,NaN,-6.979870,5.316338,4.586638,-0.363147,-0.838829,0.045494,0.049149,0.261152,0.012650,-0.162505,0.364472,-0.338928,-0.851986,42.296183,46.987561,177.492489
22090,NaN,-7.295842,5.394478,4.600459,-0.203466,-0.884950,0.319903,-0.048397,0.042262,0.069898,-0.162114,0.364569,-0.338905,-0.852028,42.317353,46.981067,177.551669
22091,NaN,-7.292235,5.293421,4.543387,-0.110827,-0.858724,0.241646,-0.133832,-0.234467,0.111074,-0.161859,0.363486,-0.338369,-0.852752,42.194513,46.841414,177.480654
22092,NaN,-7.398425,5.384210,4.266512,0.089036,-1.142049,0.218120,-0.095822,-0.526952,0.098838,-0.162221,0.361144,-0.337733,-0.853930,41.969152,46.581911,177.238745
22093,NaN,-7.828680,5.668481,4.323564,0.253042,-1.356766,0.685308,0.026082,-0.753157,-0.033586,-0.163747,0.357957,-0.337193,-0.855193,41.666754,46.275671,176.792877
22094,NaN,-7.437833,5.543664,4.893461,-0.171371,-0.909707,0.634401,-0.207122,-1.041274,0.129661,-0.164641,0.353446,-0.335703,-0.857480,41.196429,45.781674,176.296443
22095,NaN,-6.419527,5.159690,4.559300,-0.426086,-0.875335,-0.449396,-0.143128,-1.143411,0.311048,-0.165035,0.348130,-0.334715,-0.859962,40.814485,45.172810,175.867771
22096,NaN,-6.013697,5.465474,4.062091,-0.532838,-1.454597,-0.860817,0.163263,-1.149487,0.414182,-0.165525,0.342348,-0.335205,-0.861996,40.659417,44.521309,175.507261
22097,NaN,-6.222227,6.642075,4.453682,-1.084539,-2.053527,0.050102,0.456278,-1.095577,0.387148,-0.166542,0.336588,-0.336955,-0.863385,40.688291,43.903394,175.163365
22098,NaN,-6.268747,7.547822,4.618350,-1.500722,-2.590689,0.609950,0.468154,-1.134632,0.334234,-0.167861,0.330725,-0.338610,-0.864747,40.691508,43.288002,174.770880
22099,NaN,-5.943938,8.147699,4.716527,-2.000448,-2.925494,0.741936,0.550290,-1.181501,0.233580,-0.169838,0.324759,-0.340416,-0.865912,40.692744,42.691897,174.298296
22100,NaN,-5.761322,8.165780,4.953600,-2.166555,-2.760698,0.774804,0.488761,-1.287322,0.068857,-0.172586,0.318640,-0.341566,-0.867188,40.562075,42.108799,173.680869
22101,NaN,-5.672364,7.329387,5.077136,-1.773449,-2.094737,0.392176,0.407371,-1.454940,-0.068079,-0.176092,0.312106,-0.341996,-0.868689,40.288065,41.505402,172.908028
22102,NaN,-5.725497,6.110238,5.301898,-1.106764,-1.122502,-0.027978,0.415345,-1.686250,-0.146792,-0.180319,0.304650,-0.342097,-0.870427,39.926292,40.822958,171.988325
22103,NaN,-5.595908,5.376074,5.526750,-0.806259,-0.483161,-0.332366,0.638747,-1.961235,-0.192456,-0.185539,0.295872,-0.342816,-0.872074,39.608228,40.034990,170.926126
22104,NaN,-5.377614,5.840203,6.027498,-1.280116,-0.464501,0.061578,0.948556,-2.270723,-0.202175,-0.191766,0.285409,-0.344545,-0.873531,39.394851,39.107037,169.729217
22105,NaN,-4.836671,6.983754,6.436029,-2.294877,-0.910475,0.555088,1.080807,-2.590067,-0.180291,-0.198602,0.273342,-0.346520,-0.875080,39.202818,38.026835,168.418233
22106,NaN,-4.339993,8.078307,6.649780,-3.160656,-1.444230,0.968564,0.977294,-2.898672,-0.128620,-0.205562,0.259873,-0.347727,-0.877095,38.919925,36.785869,167.021548
22107,NaN,-3.522914,8.537317,6.571116,-3.828996,-1.698001,0.719550,0.683349,-3.155484,-0.051716,-0.212191,0.245384,-0.347398,-0.879816,38.472911,35.395344,165.588336
22108,NaN,-3.053037,8.114646,6.685605,-3.802512,-1.307114,0.370324,0.241776,-3.229827,0.014956,-0.218066,0.230855,-0.345035,-0.883235,37.827175,33.936849,164.199751
22109,NaN,-2.454286,7.147195,6.500472,-3.506515,-0.760550,-0.513049,-0.069913,-3.297839,0.091331,-0.223294,0.216172,-0.341222,-0.887117,37.066022,32.406683,162.871403
22110,NaN,-1.102544,6.302186,6.077830,-3.856407,-0.265873,-1.880050,-0.323774,-3.211032,0.195653,-0.227586,0.201921,-0.336397,-0.891218,36.261116,30.865889,161.679964
22111,NaN,0.042321,5.470957,5.779238,-4.124988,0.296147,-3.013665,-0.562463,-2.806479,0.299302,-0.230434,0.189522,-0.331000,-0.895221,35.475232,29.463931,160.745540
22112,NaN,0.868281,4.496285,5.290430,-4.076940,0.772549,-4.178932,-0.795125,-2.156283,0.421499,-0.231406,0.180067,-0.325364,-0.898980,34.738999,28.316174,160.153036
22113,NaN,1.275772,3.580295,4.844752,-3.780452,1.146438,-5.089260,-0.847832,-1.344584,0.590041,-0.230223,0.174026,-0.320555,-0.902196,34.173569,27.491033,159.969593
22114,NaN,0.742199,3.193603,4.683753,-3.068144,1.087118,-5.112490,-0.591095,-0.487799,0.815425,-0.226868,0.171187,-0.318063,-0.904468,33.956194,26.999544,160.222253
22115,NaN,-0.645149,3.587067,4.918116,-2.122245,0.519166,-4.094506,-0.155234,0.197886,1.097969,-0.221509,0.170494,-0.318560,-0.905751,34.167188,26.742326,160.871447
22116,NaN,-2.262091,4.550184,5.194274,-1.260109,-0.430469,-2.669285,0.325439,0.620677,1.377024,-0.214615,0.170737,-0.321918,-0.906178,34.784101,26.590659,161.817996
22117,NaN,-4.312390,5.590213,5.816652,-0.080133,-1.243101,-0.750279,0.710305,0.771002,1.630681,-0.206639,0.170821,-0.327380,-0.906059,35.702438,26.413530,162.949347
22118,NaN,-6.620705,6.174469,6.543764,1.594270,-1.631291,1.122200,0.976843,0.554736,1.810947,-0.198409,0.169343,-0.333939,-0.905782,36.770000,26.058502,164.085386
22119,NaN,-8.506552,6.543682,7.283402,3.093653,-1.671324,2.671630,1.224721,-0.037933,1.873164,-0.191063,0.164808,-0.341051,-0.905548,37.880437,25.391901,165.012969
22120,NaN,-9.205698,6.834616,7.945010,3.708501,-1.416234,3.559385,1.302310,-0.898110,1.773164,-0.185686,0.156455,-0.347560,-0.905674,38.850878,24.360031,165.532651
22121,NaN,-8.553156,6.826191,8.366847,3.379504,-0.874740,3.512537,1.133136,-1.730137,1.508108,-0.182784,0.144928,-0.352275,-0.906360,39.523305,23.047466,165.575104
22122,NaN,-6.805323,6.554293,8.473312,2.252197,-0.208264,2.675032,0.813592,-2.369103,1.181906,-0.182231,0.131347,-0.354654,-0.907612,39.850934,21.572746,165.195325
22123,NaN,-4.716410,6.273097,8.394507,0.815826,0.368494,1.643949,0.484178,-2.685089,0.948008,-0.183038,0.117020,-0.355031,-0.909261,39.916270,20.045837,164.581078
22124,NaN,-2.484918,6.194979,8.196912,-0.872749,0.764024,0.693979,0.180496,-2.636404,0.888627,-0.183824,0.103275,-0.353960,-0.911183,39.821039,18.562394,163.963177
22125,NaN,-0.782955,6.391170,8.025015,-2.251409,0.875572,0.188342,-0.157955,-2.221224,0.974006,-0.183270,0.091562,-0.351719,-0.913412,39.611269,17.228752,163.554928
22126,NaN,-0.503403,6.726639,8.117312,-2.443766,0.690823,0.431274,-0.420265,-1.626839,1.169256,-0.180645,0.082451,-0.348863,-0.915895,39.351787,16.085640,163.470119
22127,NaN,-1.379017,6.936102,8.523394,-1.550385,0.467865,1.143272,-0.660322,-1.198342,1.425977,-0.175972,0.075061,-0.345372,-0.918759,39.033899,15.038992,163.672212
22128,NaN,-2.020548,6.575889,8.620347,-0.652037,0.486670,1.185932,-0.803188,-1.024947,1.604250,-0.170117,0.068279,-0.341403,-0.921869,38.667859,14.007280,164.025249
22129,NaN,-2.621337,6.420479,8.640883,0.136229,0.331314,1.261013,-0.731311,-1.005410,1.686717,-0.163847,0.061375,-0.337779,-0.924820,38.349289,12.956452,164.429223
22130,NaN,-2.878514,6.541161,8.607118,0.516327,0.045209,1.362403,-0.710254,-1.040614,1.689718,-0.157619,0.054283,-0.334182,-0.927649,38.033123,11.891409,164.825041
22131,NaN,-2.950346,6.435889,8.452594,0.797771,-0.107192,1.183672,-0.815558,-1.030990,1.642291,-0.151541,0.047388,-0.330061,-0.930510,37.647715,10.849263,165.208497
22132,NaN,-2.397045,5.726964,7.999953,0.649936,0.153062,0.291490,-0.933791,-0.973836,1.560561,-0.145713,0.040981,-0.325372,-0.933392,37.185090,9.864899,165.579938
22133,NaN,-1.995946,5.260464,7.748418,0.535903,0.336090,-0.258000,-0.874677,-0.774075,1.514242,-0.139766,0.035533,-0.321069,-0.936012,36.760224,8.990295,166.007258
22134,NaN,-1.650745,4.989135,7.492840,0.385846,0.374374,-0.676572,-0.855192,-0.509290,1.530577,-0.133317,0.031283,-0.317011,-0.938484,36.355353,8.235545,166.538081
22135,NaN,-1.244336,4.597735,7.056601,0.173709,0.422100,-1.311282,-0.869762,-0.218165,1.545015,-0.126318,0.028381,-0.313062,-0.940867,35.951853,7.613817,167.180318
22136,NaN,-1.014802,4.561770,6.707213,0.015296,0.225297,-1.641105,-0.712103,0.088643,1.578979,-0.118700,0.026769,-0.310023,-0.942910,35.647484,7.127716,167.944301
22137,NaN,-1.694980,5.331168,7.136784,0.559505,-0.305229,-0.767170,-0.492496,0.299800,1.657501,-0.110397,0.025897,-0.308138,-0.944560,35.476905,6.716494,168.818150
22138,NaN,-2.461851,5.718489,7.537996,1.298856,-0.549971,-0.138334,-0.531643,0.239061,1.749175,-0.101748,0.024618,-0.306016,-0.946253,35.279132,6.249791,169.714516
22139,NaN,-3.407318,5.297511,7.849474,2.405917,-0.223233,-0.042913,-0.509937,-0.033989,1.801325,-0.093257,0.021952,-0.303844,-0.947892,35.079406,5.640587,170.546362
22140,NaN,-3.623199,5.032515,8.233335,2.791448,0.160437,0.108099,-0.369350,-0.520325,1.772009,-0.085658,0.016961,-0.302076,-0.949276,34.933324,4.815784,171.203853
22141,NaN,-2.456542,5.265940,8.137112,1.750567,0.070996,0.031364,-0.311848,-0.953948,1.677691,-0.079152,0.010026,-0.300365,-0.950482,34.796510,3.819212,171.676429
22142,NaN,-1.047461,5.529761,7.847475,0.476410,-0.150420,-0.168723,-0.433156,-1.114317,1.565364,-0.073414,0.002547,-0.297975,-0.951743,34.575208,2.785618,172.045368
22143,NaN,0.097343,5.179969,7.458770,-0.466267,0.002376,-0.743225,-0.656194,-1.018818,1.483442,-0.067907,-0.004276,-0.294535,-0.953215,34.220285,1.825155,172.412148
22144,NaN,0.911596,4.607218,6.935748,-1.100832,0.207443,-1.511738,-0.656332,-0.734269,1.406095,-0.062351,-0.009627,-0.291163,-0.954591,33.860470,1.027297,172.838503
22145,NaN,1.168021,4.390578,6.763742,-1.248851,0.254956,-1.765066,-0.498129,-0.341943,1.361556,-0.056418,-0.013092,-0.288657,-0.955679,33.588191,0.432489,173.373497
22146,NaN,1.282754,4.314715,6.473424,-1.307162,0.121599,-2.038140,-0.244940,0.033573,1.391619,-0.049787,-0.014874,-0.287445,-0.956387,33.456064,0.009864,174.042973
22147,NaN,0.655239,4.408337,6.570515,-0.637888,0.011080,-1.898948,0.126255,0.367473,1.497606,-0.042132,-0.015306,-0.288072,-0.956559,33.532719,-0.286905,174.869606
22148,NaN,-0.591440,4.765485,6.623995,0.625391,-0.346116,-1.662491,0.477015,0.507995,1.617245,-0.033680,-0.015308,-0.290373,-0.956198,33.804844,-0.556685,175.796305
22149,NaN,-1.668301,5.450217,6.706982,1.726354,-0.878125,-1.226702,0.795457,0.360365,1.707659,-0.024975,-0.016203,-0.294146,-0.955297,34.254958,-0.931909,176.717661
22150,NaN,-2.333194,6.056328,6.814019,2.462702,-1.252017,-0.817178,0.974661,0.052755,1.737985,-0.016568,-0.018629,-0.298700,-0.954022,34.801610,-1.469659,177.549511
22151,NaN,-2.552670,6.366577,6.879779,2.798658,-1.357507,-0.609282,1.052479,-0.315280,1.691596,-0.008916,-0.022749,-0.303574,-0.952494,35.389237,-2.173323,178.233929
22152,NaN,-2.200793,6.589578,6.871964,2.588079,-1.407424,-0.495625,1.158996,-0.618938,1.614509,-0.002086,-0.028198,-0.308914,-0.950670,36.034624,-2.999322,178.772773
22153,NaN,-1.172159,6.854452,7.527320,1.763612,-1.082168,0.223868,1.296266,-0.843220,1.605134,0.004379,-0.034697,-0.314876,-0.948488,36.756581,-3.932310,179.222197
22154,NaN,0.975028,8.035513,10.671309,0.049136,0.019865,3.580919,1.133233,-0.846239,1.499513,0.010303,-0.041044,-0.320040,-0.946459,37.381816,-4.835023,179.610840
22155,NaN,-2.232293,10.675920,10.152312,3.377577,-2.286082,4.518793,0.625620,1.355020,0.179911,0.013408,-0.034885,-0.322940,-0.945681,37.702871,-4.280516,-179.837569
22156,NaN,-2.116205,12.437488,13.094388,3.298798,-1.881678,7.969326,-0.779328,2.187015,-0.259564,0.015523,-0.024173,-0.319180,-0.947259,37.220266,-3.193335,-179.197855
22157,NaN,-0.905667,7.615458,9.764756,1.466991,-0.255004,2.513642,-1.994644,2.541392,-0.204142,0.018325,-0.011960,-0.309574,-0.950624,36.049215,-1.953340,-178.426985
22158,NaN,-2.617383,5.148146,8.573819,2.804780,0.902801,0.095672,-1.522134,2.828010,-0.271515,0.021266,0.001765,-0.302104,-0.953036,35.164992,-0.543488,-177.615709
22159,NaN,-3.362885,4.910944,8.245331,3.321902,0.833221,-0.237813,-1.228830,2.301652,-0.211937,0.023696,0.012923,-0.296030,-0.954797,34.467683,0.610132,-176.967424
22160,NaN,-3.685388,4.323140,8.198368,3.465068,1.213850,-0.538939,-1.259199,1.408895,-0.213617,0.024788,0.019816,-0.289871,-0.956539,33.757743,1.348853,-176.621846
22161,NaN,-2.560077,3.302717,8.498460,2.198647,2.052553,-0.832871,-1.302062,0.647438,-0.362879,0.024072,0.023279,-0.283572,-0.958366,33.018764,1.774574,-176.596316
22162,NaN,-0.980054,2.875104,8.724447,0.545623,2.321858,-0.887856,-1.276085,0.323556,-0.507785,0.022191,0.025395,-0.277399,-0.960163,32.288163,2.089225,-176.747225
22163,NaN,0.782001,2.860821,8.567020,-1.236879,2.029921,-1.064099,-1.411175,0.277021,-0.424498,0.020668,0.027158,-0.270583,-0.962091,31.480932,2.353943,-176.875152
22164,NaN,1.800153,2.493986,7.900606,-2.257828,1.813680,-1.844550,-1.579694,0.603413,-0.203231,0.020666,0.030171,-0.262931,-0.964121,30.584670,2.711640,-176.802561
22165,NaN,1.306952,2.269311,7.310254,-1.787201,1.609134,-2.429419,-1.493525,1.030617,0.093478,0.022647,0.034860,-0.255679,-0.965868,29.752560,3.196477,-176.464322
22166,NaN,-0.275274,2.208387,6.983390,-0.257998,1.492492,-2.641552,-1.222792,1.260631,0.299491,0.025862,0.040424,-0.249719,-0.967128,29.087784,3.742587,-175.965123
22167,NaN,-2.226172,2.104864,7.125502,1.593629,1.719109,-2.419218,-0.856073,1.120485,0.316262,0.028913,0.045334,-0.245543,-0.967893,28.635644,4.218430,-175.500772
22168,NaN,-3.261842,1.961308,7.299374,2.537837,1.978700,-2.235680,-0.370402,0.804743,0.292127,0.031343,0.048815,-0.243743,-0.968103,28.456738,4.544644,-175.138340
22169,NaN,-3.607386,2.574794,7.531218,2.835312,1.585134,-1.700336,0.149690,0.474076,0.266605,0.033124,0.050807,-0.244507,-0.967749,28.569487,4.711503,-174.879042
22170,NaN,-3.266162,3.725384,7.920377,2.476142,0.763474,-0.836925,0.441149,0.170742,0.199585,0.034131,0.051461,-0.246709,-0.967120,28.839563,4.743568,-174.737262
22171,NaN,-2.699628,4.385757,8.155002,1.909219,0.289277,-0.362928,0.426156,-0.010367,0.115118,0.034513,0.051341,-0.248849,-0.966565,29.093841,4.707668,-174.687747
22172,NaN,-2.002059,4.394420,8.130510,1.226802,0.244554,-0.439353,0.359412,-0.142044,0.065133,0.034503,0.050634,-0.250672,-0.966131,29.304331,4.619652,-174.700896
22173,NaN,-1.205941,4.439978,7.638158,0.508598,-0.068788,-0.910687,0.410941,-0.217719,0.052935,0.034330,0.049588,-0.252756,-0.965648,29.542593,4.497444,-174.741379
22174,NaN,-1.169978,5.289959,7.871826,0.498590,-0.651757,-0.291946,0.555798,-0.234730,0.104297,0.034344,0.048417,-0.255550,-0.964972,29.865070,4.352301,-174.762145
22175,NaN,-1.623516,6.395659,8.554133,0.945380,-1.176769,0.884720,0.545649,-0.360019,0.140815,0.034379,0.046595,-0.258326,-0.964321,30.180867,4.134759,-174.801073
22176,NaN,-1.876046,7.038025,9.158131,1.198378,-1.359237,1.747622,0.333849,-0.471891,0.095582,0.034097,0.044253,-0.260084,-0.963969,30.371130,3.874998,-174.896278
22177,NaN,-1.839449,7.014098,9.856416,1.138511,-0.975053,2.331567,-0.021910,-0.569746,-0.054896,0.033045,0.041576,-0.260112,-0.964117,30.351745,3.610720,-175.094255
22178,NaN,-1.140445,6.262720,10.108500,0.437428,-0.286786,2.121719,-0.402326,-0.568562,-0.225317,0.031248,0.039061,-0.258264,-0.964779,30.109626,3.395599,-175.376294
22179,NaN,-0.153208,5.412490,9.709845,-0.501181,0.116088,1.292920,-0.583285,-0.479860,-0.294325,0.029271,0.037037,-0.255515,-0.965652,29.764799,3.242984,-175.665529
22180,NaN,0.968544,4.424113,8.915051,-1.555151,0.435827,0.055450,-0.705487,-0.369399,-0.224641,0.027790,0.035435,-0.252165,-0.966636,29.353849,3.123648,-175.888213
22181,NaN,1.792225,3.334852,8.600032,-2.367432,1.112819,-0.787697,-0.665194,-0.151764,-0.038045,0.027481,0.034658,-0.249013,-0.967489,28.975217,3.059709,-175.955158
22182,NaN,1.619794,2.804000,8.646042,-2.211192,1.560299,-0.985677,-0.481175,0.092916,0.165112,0.028424,0.034834,-0.246747,-0.968036,28.710639,3.061901,-175.852450
22183,NaN,1.299487,3.225326,8.730275,-1.885226,1.220123,-0.687652,-0.197397,0.200113,0.381583,0.030501,0.035304,-0.245879,-0.968177,28.616496,3.058873,-175.610774
22184,NaN,1.101444,4.407719,8.788483,-1.648686,0.209349,-0.059914,-0.029040,0.354881,0.542034,0.033512,0.036350,-0.245825,-0.968053,28.625040,3.089770,-175.246227
22185,NaN,-0.304766,5.612321,8.712129,-0.196757,-0.771490,0.524541,-0.022036,0.526669,0.559897,0.036822,0.038206,-0.245780,-0.967872,28.641557,3.202066,-174.824955
22186,NaN,-1.770716,6.364402,8.388797,1.322545,-1.451233,0.682919,-0.104499,0.378314,0.496916,0.039656,0.039406,-0.245344,-0.967823,28.606938,3.257110,-174.476637
22187,NaN,-2.345914,6.836146,8.661600,1.899604,-1.688490,1.178218,-0.251081,0.177700,0.342119,0.041528,0.039796,-0.244211,-0.968015,28.481392,3.254052,-174.260937
22188,NaN,-2.681817,6.724438,8.824278,2.224037,-1.512343,1.279848,-0.484526,-0.011090,0.168540,0.042372,0.039435,-0.241947,-0.968561,28.213696,3.203753,-174.184843
22189,NaN,-2.787210,5.972830,8.933188,2.294300,-0.850727,1.015839,-0.695504,-0.251294,-0.012442,0.042094,0.038086,-0.238678,-0.969438,27.816971,3.081172,-174.264328
22190,NaN,-1.913356,4.766276,8.691777,1.407016,-0.064556,0.184346,-0.844232,-0.454105,-0.175328,0.040807,0.035915,-0.234692,-0.970549,27.327638,2.898101,-174.480109
22191,NaN,-0.771535,3.806766,8.272678,0.288673,0.408524,-0.687274,-0.779329,-0.493855,-0.225468,0.039222,0.033624,-0.231019,-0.971577,26.875061,2.706216,-174.729763
22192,NaN,0.261075,3.469122,8.292813,-0.721769,0.563473,-0.866464,-0.610143,-0.481410,-0.154541,0.037963,0.031342,-0.228168,-0.972376,26.521600,2.500550,-174.939038
22193,NaN,1.184229,3.298239,8.462866,-1.628951,0.667438,-0.823709,-0.452592,-0.351072,-0.038902,0.037394,0.029594,-0.226078,-0.972941,26.263574,2.331351,-175.054010
22194,NaN,1.443414,3.383624,8.473000,-1.861062,0.547028,-0.781560,-0.204240,-0.091759,0.084211,0.037676,0.029012,-0.225161,-0.973161,26.152747,2.263794,-175.039962
22195,NaN,0.551806,3.956194,8.691007,-0.952315,0.197502,-0.297245,0.001208,0.145505,0.154771,0.038542,0.029545,-0.225213,-0.973099,26.163966,2.300519,-174.929045
22196,NaN,-0.916993,4.273429,8.763029,0.520838,0.071727,-0.034276,-0.084759,0.102216,0.220587,0.039688,0.029776,-0.224860,-0.973127,26.126384,2.298314,-174.795711
22197,NaN,-1.407575,3.704732,8.414155,1.013892,0.462542,-0.578929,-0.257965,-0.183432,0.314975,0.041002,0.028477,-0.223739,-0.973370,25.988951,2.125593,-174.685200
22198,NaN,-1.594201,3.185286,8.101508,1.229263,0.798442,-1.084967,-0.166256,-0.482847,0.439602,0.042571,0.025599,-0.223137,-0.973521,25.902704,1.767519,-174.585736
22199,NaN,-1.373057,3.104184,7.905806,1.085455,0.768660,-1.312490,0.011069,-0.835580,0.562511,0.044324,0.020906,-0.223489,-0.973474,25.917082,1.197057,-174.510573
22200,NaN,-0.995478,3.163736,7.751051,0.818986,0.632886,-1.445689,0.213457,-1.144277,0.669362,0.046226,0.014633,-0.224894,-0.973176,26.045754,0.440580,-174.459065
22201,NaN,0.289822,3.730734,7.954650,-0.313207,0.138629,-1.028605,0.621071,-1.183992,0.640637,0.047915,0.008295,-0.228282,-0.972380,26.407711,-0.329104,-174.435191
22202,NaN,1.398326,5.053069,9.163752,-1.229896,-0.531225,0.659487,0.787153,-1.038229,0.592998,0.049525,0.002757,-0.232424,-0.971349,26.863990,-1.012190,-174.404199
22203,NaN,1.745597,5.706125,9.387747,-1.416953,-0.960316,1.178477,0.585541,-0.688899,0.543253,0.051305,-0.001074,-0.235495,-0.970520,27.203552,-1.504124,-174.311921
22204,NaN,1.743340,5.729458,9.346713,-1.342624,-0.944260,1.166036,0.340188,-0.283831,0.446593,0.053086,-0.002891,-0.237264,-0.969989,27.399909,-1.764962,-174.165094
22205,NaN,1.107196,5.908540,9.579114,-0.668635,-0.894231,1.441172,0.309100,0.080684,0.296027,0.054573,-0.002768,-0.238790,-0.969533,27.577967,-1.801129,-173.998769
22206,NaN,0.770073,5.967759,9.543167,-0.333903,-0.905236,1.427785,0.132037,0.306951,0.165147,0.055689,-0.001442,-0.239392,-0.969324,27.654396,-1.688089,-173.839339
22207,NaN,0.289198,5.505967,9.335488,0.067744,-0.543941,1.015518,-0.068635,0.480346,0.058424,0.056497,0.000798,-0.238977,-0.969380,27.617065,-1.458695,-173.687486
22208,NaN,-0.085944,4.759344,8.917361,0.328207,-0.055863,0.290135,-0.164980,0.521067,0.003067,0.057082,0.003272,-0.238078,-0.969562,27.525073,-1.193799,-173.553720
22209,NaN,-0.620637,4.275041,8.752434,0.769830,0.334206,-0.088400,-0.179670,0.473154,-0.009966,0.057551,0.005528,-0.237124,-0.969757,27.426159,-0.949556,-173.439198
22210,NaN,-1.236443,3.949849,8.338378,1.330359,0.484706,-0.611937,-0.134959,0.299446,0.020440,0.057955,0.006916,-0.236432,-0.969893,27.353191,-0.801563,-173.355875
22211,NaN,-1.356766,3.819049,8.157762,1.429432,0.523478,-0.831723,-0.048177,0.067860,0.033141,0.058148,0.007193,-0.236232,-0.969928,27.331343,-0.774633,-173.326676
22212,NaN,-1.316294,4.033167,8.308232,1.412560,0.400678,-0.600202,0.054639,-0.190524,0.032895,0.058027,0.006245,-0.236602,-0.969852,27.368849,-0.879211,-173.366107
22213,NaN,-0.362511,4.293235,8.456474,0.511373,0.138825,-0.336699,0.086752,-0.371474,0.015110,0.057609,0.004453,-0.237183,-0.969745,27.426332,-1.070983,-173.461928
22214,NaN,0.651105,4.226388,8.534587,-0.474057,0.129404,-0.279383,0.047854,-0.384888,0.015630,0.057173,0.002581,-0.237574,-0.969682,27.461419,-1.269767,-173.561650
22215,NaN,1.472817,3.936838,8.370939,-1.286590,0.229840,-0.537329,0.109222,-0.316041,0.085110,0.057159,0.000981,-0.238247,-0.969520,27.531232,-1.451714,-173.607572
22216,NaN,2.066249,3.789637,8.175796,-1.856211,0.221754,-0.758431,0.211144,-0.299688,0.275245,0.058082,-0.000740,-0.239406,-0.969180,27.656360,-1.675874,-173.553331
22217,NaN,1.772359,3.852413,8.678052,-1.546101,0.461652,-0.289702,0.395086,-0.083179,0.333395,0.059550,-0.001426,-0.241395,-0.968597,27.884566,-1.805886,-173.412020
22218,NaN,1.684556,4.611067,8.892646,-1.362661,-0.050523,0.253058,0.536557,0.070893,0.509824,0.062055,-0.001539,-0.244016,-0.967783,28.188844,-1.906223,-173.140960
22219,NaN,0.841077,5.378133,9.144085,-0.433028,-0.453120,0.810543,0.474483,0.249445,0.572128,0.065082,-0.000882,-0.246281,-0.967010,28.455058,-1.934771,-172.789959
22220,NaN,-0.547083,5.559530,8.869141,0.975070,-0.527085,0.610396,0.288842,0.287673,0.521595,0.067906,-0.000039,-0.247629,-0.966472,28.614867,-1.931564,-172.454475
22221,NaN,-1.629193,5.728855,8.808796,2.073540,-0.525195,0.603330,0.263759,0.151043,0.415189,0.070050,0.000268,-0.248904,-0.965992,28.763798,-1.968647,-172.209651
22222,NaN,-1.903011,6.286354,9.126054,2.420672,-0.782936,1.139563,0.243854,-0.067797,0.271082,0.071221,-0.000310,-0.250154,-0.965583,28.905216,-2.076387,-172.098240
22223,NaN,-2.540448,6.372548,8.792725,3.092704,-0.909501,0.863605,0.051077,-0.163019,0.061172,0.071263,-0.001153,-0.250511,-0.965487,28.941402,-2.173786,-172.118275
22224,NaN,-1.490466,6.206315,8.432648,2.062689,-1.088281,0.502848,-0.141594,-0.418818,-0.218425,0.069630,-0.002951,-0.250026,-0.965728,28.874995,-2.322149,-172.349993
22225,NaN,-0.358975,5.167109,8.282147,0.831214,-0.436028,-0.089486,-0.340139,-0.529415,-0.373796,0.067109,-0.005155,-0.248626,-0.966258,28.700579,-2.483467,-172.689568
22226,NaN,0.802726,3.843402,8.529821,-0.464927,0.657809,-0.457214,-0.344307,-0.652090,-0.391931,0.064342,-0.007933,-0.247238,-0.966784,28.526239,-2.702743,-173.072010
22227,NaN,2.011705,3.353167,8.108731,-1.678767,0.736130,-0.998953,0.042973,-0.597278,-0.241841,0.062387,-0.010504,-0.247700,-0.966769,28.571411,-2.935749,-173.363146
22228,NaN,3.255289,4.454885,8.371952,-2.744414,-0.200903,-0.171110,0.450210,-0.430189,-0.098193,0.061351,-0.012321,-0.250063,-0.966205,28.844190,-3.123725,-173.537117
22229,NaN,2.666931,4.894397,8.555073,-2.092817,-0.386042,0.173701,0.241570,-0.050656,0.032241,0.061409,-0.012529,-0.251297,-0.965879,28.988997,-3.156727,-173.540509
22230,NaN,2.746350,4.476380,8.412824,-2.222070,-0.081026,-0.147707,0.229434,0.098961,0.204571,0.062483,-0.012238,-0.252411,-0.965523,29.119238,-3.162864,-173.416305
22231,NaN,2.049576,4.191506,8.567317,-1.578227,0.339240,-0.191748,0.319153,0.344303,0.330525,0.064484,-0.010891,-0.253876,-0.965023,29.294344,-3.081805,-173.159868
22232,NaN,1.157524,4.358001,8.465338,-0.692050,0.281382,-0.250486,0.505665,0.453417,0.459431,0.067251,-0.009123,-0.256192,-0.964241,29.571107,-2.983642,-172.808429
22233,NaN,0.837457,5.369950,9.418371,-0.285299,-0.032564,1.057485,0.519198,0.516042,0.344896,0.069549,-0.006900,-0.258557,-0.963464,29.858919,-2.823523,-172.495346
22234,NaN,-0.132285,4.981133,8.537411,0.605406,0.017799,0.053904,0.153502,0.630182,0.418446,0.072332,-0.004350,-0.259110,-0.963126,29.934319,-2.628697,-172.113060
22235,NaN,-0.988938,4.989545,8.740834,1.420187,0.252782,0.197047,0.292812,0.427774,0.426244,0.074895,-0.002734,-0.260408,-0.962586,30.093455,-2.537316,-171.784152
22236,NaN,-1.512824,6.035464,8.622953,2.080180,-0.583756,0.598974,0.385586,0.235040,0.327745,0.076731,-0.001884,-0.262219,-0.961951,30.310127,-2.514054,-171.559851
22237,NaN,-1.953233,6.585578,8.353279,2.605092,-1.088245,0.627208,0.174214,0.036852,0.157704,0.077490,-0.001843,-0.263094,-0.961651,30.412481,-2.540094,-171.476621
22238,NaN,-2.202470,6.643384,8.427844,2.865453,-1.047651,0.708984,0.072344,-0.211972,-0.054461,0.076897,-0.002761,-0.263573,-0.961566,30.463822,-2.627635,-171.571098
22239,NaN,-2.095196,6.450739,8.713418,2.738035,-0.758818,0.857497,-0.075512,-0.474490,-0.325587,0.074656,-0.004637,-0.263450,-0.961769,30.441146,-2.765921,-171.875495
22240,NaN,-0.654815,5.599452,8.340101,1.223797,-0.447500,0.169391,-0.223961,-0.636276,-0.573891,0.070999,-0.007023,-0.262669,-0.962245,30.341967,-2.912679,-172.350093
22241,NaN,0.686744,4.575490,8.082844,-0.221668,0.099053,-0.502472,-0.211035,-0.574353,-0.687957,0.066878,-0.008952,-0.261933,-0.962724,30.253770,-2.996358,-172.862578
22242,NaN,1.302184,4.096628,8.023837,-0.881601,0.402346,-0.761671,-0.010816,-0.473668,-0.664078,0.063007,-0.010365,-0.262116,-0.962921,30.278048,-3.037641,-173.334597
22243,NaN,1.818415,4.071040,8.066844,-1.392048,0.407042,-0.710467,0.177343,-0.357629,-0.582781,0.059692,-0.011263,-0.263165,-0.962836,30.407043,-3.044208,-173.732303
22244,NaN,2.405401,3.904193,7.956509,-1.993546,0.462566,-0.860234,0.266368,-0.241080,-0.412660,0.057351,-0.011800,-0.264591,-0.962582,30.580166,-3.041885,-174.012473
22245,NaN,1.536687,3.603548,7.872330,-1.174217,0.808639,-1.135841,0.509194,0.000714,-0.313760,0.055822,-0.011232,-0.267112,-0.961982,30.886530,-2.948092,-174.172473
22246,NaN,1.191715,4.480788,8.664849,-0.752083,0.566048,-0.030521,0.722930,-0.104531,-0.257334,0.054433,-0.011188,-0.270680,-0.961064,31.314733,-2.921783,-174.335805
22247,NaN,2.235251,5.020539,8.901015,-1.739449,0.195433,0.500706,0.535866,-0.075815,-0.129535,0.053688,-0.011228,-0.273335,-0.960354,31.632649,-2.918467,-174.427375
22248,NaN,2.605761,4.343246,9.314473,-2.192849,0.985616,0.513645,0.153190,0.104702,0.037178,0.053966,-0.010734,-0.274089,-0.960129,31.723840,-2.877110,-174.383606
22249,NaN,2.745304,3.750292,8.670498,-2.406369,1.146736,-0.343091,0.295221,0.360918,0.317514,0.055951,-0.009353,-0.275444,-0.959642,31.886390,-2.795680,-174.125181
22250,NaN,2.318974,5.123173,8.558171,-1.853975,0.000466,0.258529,0.576030,0.645666,0.524604,0.059331,-0.006815,-0.278047,-0.958709,32.200933,-2.640048,-173.679531
22251,NaN,1.144917,6.267439,8.650463,-0.585437,-0.746379,0.888817,0.402755,0.718612,0.630936,0.063318,-0.004125,-0.279792,-0.957961,32.414578,-2.483735,-173.158901
22252,NaN,0.799676,5.663563,8.925459,-0.347943,-0.046591,0.782404,-0.089171,0.612394,0.605620,0.067020,-0.002066,-0.279205,-0.957888,32.348977,-2.371692,-172.683424
22253,NaN,0.635352,3.431652,7.478549,-0.449915,1.038920,-1.637930,-0.281335,0.781208,0.731446,0.071561,0.000564,-0.277636,-0.958017,32.170404,-2.215382,-172.095117
22254,NaN,-0.965020,3.465024,7.457508,1.113192,1.224346,-1.700124,0.417052,0.616625,0.836661,0.076369,0.002507,-0.279460,-0.957112,32.392468,-2.171158,-171.506622
22255,NaN,-2.803550,5.433187,8.187331,3.163974,0.309929,-0.101639,0.620735,0.382970,0.629019,0.079856,0.003701,-0.282341,-0.955978,32.738429,-2.178686,-171.089980
22256,NaN,-3.101984,5.507091,8.158230,3.469054,0.339873,-0.098929,0.293709,0.050947,0.296008,0.081284,0.003647,-0.283777,-0.955432,32.906456,-2.244476,-170.937408
22257,NaN,-2.117289,4.831678,7.561993,2.432979,0.450724,-0.930729,0.263648,-0.212779,-0.060771,0.080636,0.002829,-0.285173,-0.955074,33.067673,-2.326063,-171.038586
22258,NaN,-1.295272,4.634901,7.522068,1.602821,0.487233,-1.041425,0.332760,-0.379199,-0.334860,0.078438,0.001633,-0.286957,-0.954725,33.275741,-2.401299,-171.324177
22259,NaN,-0.536976,4.703797,7.885957,0.855957,0.547810,-0.671053,0.433885,-0.480540,-0.466396,0.075467,0.000184,-0.289263,-0.954270,33.546668,-2.482131,-171.704722
22260,NaN,0.341999,4.819629,7.639793,0.022103,0.235150,-0.776304,0.516739,-0.480119,-0.497820,0.072343,-0.001188,-0.291954,-0.953692,33.865766,-2.550991,-172.100903
22261,NaN,1.046004,4.894120,7.526040,-0.658577,0.067355,-0.798847,0.538627,-0.347791,-0.438333,0.069697,-0.002006,-0.294701,-0.953042,34.195029,-2.573643,-172.426408
22262,NaN,1.103199,4.495986,7.530627,-0.774413,0.439490,-1.017903,0.521719,-0.111208,-0.219807,0.068438,-0.002027,-0.297274,-0.952334,34.506110,-2.553419,-172.572325
22263,NaN,0.764436,3.882578,7.883451,-0.541546,1.234838,-1.095508,0.658465,0.089806,0.137778,0.069183,-0.001573,-0.300428,-0.951291,34.885510,-2.554066,-172.483559
22264,NaN,0.327091,3.743211,8.714587,-0.170026,1.950493,-0.526747,0.932927,0.246985,0.568237,0.072210,-0.000926,-0.304818,-0.949669,35.410213,-2.623939,-172.141349
22265,NaN,-0.176930,3.514808,9.464004,0.252626,2.736717,-0.096828,1.159345,0.329502,1.019083,0.077503,-0.000490,-0.310241,-0.947493,36.053027,-2.809596,-171.562008
22266,NaN,-0.026170,3.438149,9.921728,0.057914,3.176180,0.195748,1.465203,0.349604,1.377557,0.084517,-0.000398,-0.317075,-0.944627,36.859457,-3.115506,-170.812935
22267,NaN,1.229701,3.720692,9.722874,-1.136881,2.788712,0.228145,1.781057,0.469491,1.681184,0.093147,-0.000086,-0.325310,-0.941009,37.832605,-3.483733,-169.888055
22268,NaN,0.946288,4.322672,9.908602,-0.784052,2.665426,0.677245,2.057866,0.727760,1.956555,0.103474,0.001120,-0.334665,-0.936638,38.944800,-3.850881,-168.753843
22269,NaN,-0.526348,5.038193,9.666726,0.780771,2.486657,0.784819,2.308416,0.856209,2.073611,0.114538,0.002863,-0.345049,-0.931565,40.186903,-4.227027,-167.528059
22270,NaN,-1.506630,5.656054,9.365382,1.852788,2.325755,0.823179,2.466388,0.837212,1.935039,0.124891,0.004844,-0.356087,-0.926057,41.517341,-4.586986,-166.377909
22271,NaN,-1.316537,5.728490,8.318197,1.748687,1.825123,0.053708,2.520658,0.705864,1.646589,0.133642,0.006765,-0.367362,-0.920402,42.887058,-4.918349,-165.409634
22272,NaN,-0.186704,5.613494,7.339104,0.697319,1.228656,-0.679951,2.834735,0.733355,1.375129,0.141151,0.009518,-0.379962,-0.914120,44.441584,-5.155684,-164.551765
22273,NaN,0.334947,6.427122,7.163730,0.355360,0.707656,-0.215632,3.387095,0.958450,1.138312,0.147934,0.014139,-0.394801,-0.906668,46.311245,-5.230971,-163.704817
22274,NaN,-0.068516,8.276300,7.992968,0.982924,0.566066,1.636714,3.549228,1.198415,0.826034,0.153712,0.020576,-0.410036,-0.898788,48.276248,-5.110025,-162.881237
22275,NaN,-0.621205,10.235283,8.686416,1.733225,0.420057,3.506610,3.219678,1.337417,0.481000,0.158205,0.028087,-0.423507,-0.891529,50.061114,-4.813989,-162.123741
22276,NaN,-0.799183,11.894948,9.430681,1.988667,0.421279,5.251189,2.522851,1.312814,0.238018,0.161622,0.035443,-0.433749,-0.885711,51.458535,-4.440459,-161.457859
22277,NaN,-0.916781,12.187819,9.359232,1.987313,0.505869,5.444024,1.525598,1.202469,-0.038611,0.163725,0.042101,-0.439550,-0.882166,52.299703,-3.993871,-160.933250
22278,NaN,-0.726354,10.991990,9.054181,1.396631,1.016510,4.341572,0.842036,1.152364,-0.214700,0.165075,0.048360,-0.442308,-0.880213,52.758736,-3.491066,-160.488119
22279,NaN,-0.779945,9.651712,8.844233,1.012031,1.669656,3.155377,0.511522,1.067697,-0.278128,0.166028,0.054116,-0.443646,-0.879025,53.035559,-2.990893,-160.100864
22280,NaN,-0.307961,8.723568,8.493432,0.298599,1.770395,2.233443,0.356061,1.008723,-0.262862,0.166957,0.059443,-0.444338,-0.878154,53.227534,-2.520087,-159.733392
22281,NaN,0.577634,8.348561,7.986049,-0.603432,1.286258,1.667281,0.327671,1.052175,-0.129266,0.168569,0.064643,-0.444895,-0.877197,53.403360,-2.096407,-159.299005
22282,NaN,1.325354,8.220135,7.502879,-1.298939,0.722977,1.296310,0.347511,1.177303,0.104658,0.171476,0.069883,-0.445495,-0.875926,53.588916,-1.739749,-158.725743
22283,NaN,1.955060,8.158232,7.052507,-1.852686,0.179495,0.987859,0.363353,1.382499,0.379570,0.176027,0.075422,-0.446063,-0.874273,53.781480,-1.441731,-157.963566
22284,NaN,2.411741,7.949232,6.581450,-2.251678,-0.250719,0.540528,0.403652,1.678386,0.651848,0.182405,0.081674,-0.446619,-0.872118,53.995752,-1.173080,-156.971224
22285,NaN,2.708231,7.628035,5.965366,-2.465273,-0.683265,-0.088370,0.486529,2.035898,0.899970,0.190606,0.089000,-0.447263,-0.869313,54.257532,-0.903249,-155.728780
22286,NaN,2.977319,7.452024,5.299034,-2.579292,-1.229820,-0.630563,0.666888,2.445066,1.094607,0.200461,0.097825,-0.448317,-0.865597,54.625676,-0.595098,-154.229141
22287,NaN,2.898694,7.343791,4.654371,-2.349130,-1.646750,-1.108295,0.911810,2.911160,1.217941,0.211726,0.108615,-0.449920,-0.860783,55.141429,-0.202348,-152.468367
22288,NaN,2.423094,7.329957,4.193233,-1.800590,-1.774569,-1.398923,1.176935,3.331311,1.264663,0.223929,0.121353,-0.452107,-0.854827,55.822911,0.286008,-150.489920
22289,NaN,1.492157,7.405086,3.710301,-0.834083,-1.686604,-1.609805,1.492330,3.657899,1.209251,0.236354,0.135919,-0.455066,-0.847690,56.705205,0.877892,-148.367054
22290,NaN,0.385951,7.766195,3.612494,0.152866,-1.286588,-1.337292,1.786308,3.823067,1.060661,0.248220,0.151808,-0.458770,-0.839566,57.780474,1.556004,-146.200370
22291,NaN,-0.837649,8.284440,3.651296,1.145750,-0.706667,-0.821059,1.976509,3.737317,0.842027,0.258710,0.168005,-0.462999,-0.830949,58.987956,2.271930,-144.127534
22292,NaN,-1.861422,9.072866,3.907914,1.857973,-0.131606,0.065459,2.042750,3.429937,0.573398,0.267206,0.183558,-0.467472,-0.822421,60.249396,2.986563,-142.268651
22293,NaN,-2.712714,10.094814,4.303896,2.342505,0.380118,1.239372,1.902188,2.969743,0.215736,0.273187,0.197803,-0.471487,-0.814827,61.435296,3.712075,-140.724405
22294,NaN,-3.066100,10.805556,4.451464,2.460471,0.537807,2.003718,1.477990,2.322850,-0.149454,0.276507,0.209643,-0.474177,-0.809166,62.368062,4.418731,-139.592231
22295,NaN,-3.019634,10.875614,4.443994,2.227664,0.539394,2.099054,0.934793,1.662352,-0.453674,0.277559,0.218753,-0.475196,-0.805789,62.969553,5.091606,-138.867338
22296,NaN,-2.581287,10.387040,4.408311,1.639462,0.424673,1.637950,0.462414,1.120648,-0.616559,0.277166,0.225395,-0.474852,-0.804296,63.278747,5.701334,-138.456756
22297,NaN,-2.016136,9.680355,4.328094,0.991842,0.244848,0.932634,0.159874,0.767138,-0.654693,0.276108,0.230280,-0.473720,-0.803943,63.399207,6.238564,-138.235412
22298,NaN,-1.409921,9.071246,4.222239,0.395475,-0.030047,0.284087,-0.019309,0.572551,-0.601457,0.275007,0.234002,-0.472188,-0.804147,63.409060,6.697956,-138.099743
22299,NaN,-0.927818,8.507213,4.087378,-0.053523,-0.256837,-0.332656,-0.080299,0.545697,-0.490004,0.274342,0.237261,-0.470577,-0.804363,63.387309,7.093537,-137.950878
22300,NaN,-0.620892,8.109523,4.095625,-0.413181,-0.337350,-0.722074,-0.087152,0.619276,-0.352645,0.274423,0.240485,-0.468988,-0.804307,63.371363,7.437537,-137.726660
22301,NaN,-0.430973,7.699173,3.908612,-0.558346,-0.448087,-1.197148,-0.008460,0.742010,-0.252300,0.275093,0.244074,-0.467661,-0.803769,63.413883,7.761983,-137.412854
22302,NaN,-0.508772,7.416866,3.802073,-0.533722,-0.370166,-1.487879,0.150448,0.841458,-0.161087,0.276167,0.248062,-0.466939,-0.802599,63.559364,8.064183,-137.023174
22303,NaN,-0.588790,7.302272,3.691152,-0.474576,-0.347993,-1.630517,0.319537,0.911100,-0.074690,0.277532,0.252358,-0.466897,-0.800812,63.812404,8.338727,-136.573904
22304,NaN,-0.636098,7.306170,3.709219,-0.505073,-0.304510,-1.615434,0.468420,0.947652,0.008165,0.279121,0.256804,-0.467492,-0.798495,64.158661,8.577092,-136.082763
22305,NaN,-0.671513,7.217468,3.608442,-0.488218,-0.291565,-1.735562,0.592882,0.966793,0.081985,0.280879,0.261323,-0.468639,-0.795735,64.582914,8.779135,-135.561258
22306,NaN,-0.512061,7.148917,3.522260,-0.615888,-0.402808,-1.860731,0.709172,0.967208,0.151943,0.282758,0.265831,-0.470322,-0.792577,65.078182,8.940517,-135.020367
22307,NaN,-0.364901,6.997090,3.343065,-0.688933,-0.520370,-2.097596,0.871365,0.993454,0.174294,0.284557,0.270612,-0.472623,-0.788939,65.671359,9.091748,-134.458496
22308,NaN,-0.766053,6.967390,3.270346,-0.441531,-0.228836,-2.093979,1.076677,1.061185,0.128900,0.286047,0.276043,-0.475550,-0.784748,66.387907,9.275850,-133.869412
22309,NaN,-1.274772,7.218355,3.284523,-0.150389,0.095051,-1.782431,1.252098,1.067068,0.058927,0.287015,0.281899,-0.479032,-0.780182,67.205572,9.490597,-133.290426
22310,NaN,-1.528326,7.806485,3.468640,-0.118768,0.222654,-1.138403,1.377611,1.007876,-0.021828,0.287330,0.287875,-0.482940,-0.775460,68.089471,9.726462,-132.757545
22311,NaN,-1.884536,8.881858,3.859580,-0.116369,0.376146,0.045211,1.382989,0.912111,-0.155576,0.286866,0.293792,-0.486780,-0.770999,68.965966,10.005724,-132.300949
22312,NaN,-2.402148,10.076920,4.192550,0.024977,0.568967,1.348220,1.118991,0.755658,-0.317988,0.285767,0.299104,-0.489558,-0.767598,69.673179,10.333876,-131.958629
22313,NaN,-2.844929,10.628960,4.294954,0.197586,0.772370,1.971990,0.521114,0.500004,-0.472333,0.284332,0.302949,-0.490160,-0.766237,70.009505,10.691765,-131.783786
22314,NaN,-3.038239,10.165845,4.267199,0.211335,1.030684,1.574891,-0.090394,0.161915,-0.560836,0.282654,0.304841,-0.488759,-0.767003,69.958253,11.030285,-131.810811
22315,NaN,-2.909201,9.362316,4.055249,0.162089,1.039626,0.744485,-0.458376,-0.201650,-0.569688,0.280609,0.304838,-0.486441,-0.769225,69.657062,11.301902,-132.040049
22316,NaN,-2.443426,8.699847,3.863908,-0.068696,0.762821,-0.014712,-0.608323,-0.490630,-0.510209,0.278316,0.303362,-0.484034,-0.772155,69.239678,11.481747,-132.417082
22317,NaN,-1.878039,8.283268,3.613666,-0.275476,0.301463,-0.591466,-0.645015,-0.650051,-0.436784,0.275966,0.301036,-0.481806,-0.775295,68.785862,11.587144,-132.867450
22318,NaN,-1.437727,8.082959,3.434405,-0.423207,-0.094771,-0.924042,-0.584207,-0.681094,-0.348232,0.273790,0.298450,-0.479979,-0.778194,68.366360,11.635087,-133.316632
22319,NaN,-1.129846,7.927136,3.310376,-0.525011,-0.365619,-1.171789,-0.460787,-0.612258,-0.265390,0.271909,0.296099,-0.478652,-0.780566,68.028567,11.651055,-133.710896
22320,NaN,-0.985856,7.966184,3.221470,-0.525465,-0.562244,-1.197726,-0.305833,-0.482483,-0.187387,0.270412,0.294273,-0.477862,-0.782259,67.797022,11.651296,-134.017634
22321,NaN,-1.003010,8.087826,3.190455,-0.457289,-0.633075,-1.095576,-0.159775,-0.323518,-0.117250,0.269351,0.293098,-0.477529,-0.783268,67.669817,11.648242,-134.222849
22322,NaN,-1.176614,8.208480,3.152053,-0.286740,-0.589040,-0.965665,-0.028493,-0.162750,-0.054599,0.268728,0.292577,-0.477585,-0.783643,67.638087,11.646407,-134.327048
22323,NaN,-1.423749,8.290299,3.123277,-0.086264,-0.463973,-0.852316,0.077483,-0.042634,0.008672,0.268483,0.292520,-0.477986,-0.783504,67.683177,11.637501,-134.352247
22324,NaN,-1.736138,8.421917,3.050734,0.190759,-0.329145,-0.696488,0.197178,0.028297,0.078351,0.268507,0.292733,-0.478863,-0.782880,67.807563,11.606784,-134.323558
22325,NaN,-1.970228,8.573298,3.033500,0.371515,-0.212839,-0.517422,0.309863,0.045655,0.134944,0.268627,0.293032,-0.480240,-0.781884,68.001013,11.549964,-134.273150
22326,NaN,-2.120583,8.803153,3.037061,0.487068,-0.162534,-0.275795,0.395879,0.026359,0.191525,0.268797,0.293231,-0.482059,-0.780630,68.243853,11.458475,-134.221073
22327,NaN,-2.136186,9.056224,3.079151,0.481998,-0.183446,-0.025274,0.471449,0.021695,0.202326,0.268883,0.293488,-0.484193,-0.779182,68.529953,11.360300,-134.169691
22328,NaN,-2.092301,9.345786,3.110505,0.442745,-0.261422,0.243757,0.516475,0.028285,0.163946,0.268769,0.293919,-0.486434,-0.777661,68.840595,11.283436,-134.123376
22329,NaN,-2.169407,9.597218,3.159360,0.461838,-0.229598,0.508564,0.508824,0.043766,0.094111,0.268429,0.294571,-0.488518,-0.776224,69.145720,11.247157,-134.083699
22330,NaN,-2.214862,9.672211,3.197163,0.439821,-0.166165,0.601624,0.453179,0.083326,0.015396,0.267962,0.295490,-0.490214,-0.774966,69.419759,11.260589,-134.038839
22331,NaN,-2.185471,9.759153,3.078886,0.477694,-0.261754,0.637193,0.418788,0.142281,-0.031185,0.267507,0.296706,-0.491627,-0.773763,69.678814,11.310929,-133.971159
22332,NaN,-2.399699,9.822922,3.093171,0.583413,-0.103000,0.745009,0.342966,0.161324,-0.040208,0.267177,0.297913,-0.492704,-0.772727,69.896001,11.369310,-133.894621
22333,NaN,-2.485275,9.615656,3.004019,0.650260,-0.000564,0.542922,0.267350,0.144443,-0.000335,0.267069,0.298857,-0.493571,-0.771846,70.069967,11.402975,-133.819163
22334,NaN,-2.626463,9.371320,2.890815,0.776805,0.139487,0.309260,0.225808,0.124784,0.051805,0.267177,0.299538,-0.494380,-0.771026,70.219826,11.404191,-133.744059
22335,NaN,-2.635090,8.998823,2.701101,0.861721,0.186651,-0.094610,0.180659,0.095119,0.089910,0.267424,0.299952,-0.495112,-0.770310,70.342345,11.379289,-133.677763
22336,NaN,-2.493240,8.542200,2.534122,0.823375,0.170980,-0.598568,0.185928,0.087575,0.105840,0.267708,0.300302,-0.495896,-0.769571,70.467351,11.343854,-133.612561
22337,NaN,-2.419732,8.245857,2.409655,0.817787,0.171651,-0.926889,0.246563,0.107709,0.105686,0.267946,0.300813,-0.496886,-0.768648,70.629524,11.312566,-133.536396
22338,NaN,-2.335858,8.068838,2.273143,0.823411,0.116101,-1.150239,0.304216,0.155975,0.095416,0.268181,0.301609,-0.498016,-0.767523,70.829197,11.295342,-133.435697
22339,NaN,-2.389539,7.938055,2.303578,0.798933,0.244186,-1.249332,0.384485,0.217594,0.071919,0.268353,0.302809,-0.499335,-0.766132,71.080967,11.302393,-133.305521
22340,NaN,-2.707673,8.149351,2.477449,0.874540,0.530036,-0.933769,0.534254,0.224731,0.042154,0.268204,0.304306,-0.501168,-0.764392,71.417929,11.325833,-133.176943
22341,NaN,-3.134145,8.559378,2.659304,1.026531,0.837114,-0.410408,0.647873,0.124209,0.032520,0.267587,0.305597,-0.503551,-0.762525,71.809118,11.336006,-133.105739
22342,NaN,-3.316072,8.854232,2.787772,1.037611,0.984851,-0.059814,0.686957,-0.050456,0.011068,0.266389,0.306320,-0.506278,-0.760846,72.202519,11.326012,-133.135400
22343,NaN,-3.350318,9.054235,2.802878,1.026514,0.991950,0.138291,0.670905,-0.240875,-0.030645,0.264568,0.306404,-0.509128,-0.759546,72.564829,11.306509,-133.278595
22344,NaN,-3.300332,9.239763,2.790869,0.983915,0.922185,0.298480,0.592481,-0.409946,-0.085204,0.262229,0.305872,-0.511812,-0.758766,72.861529,11.288337,-133.525646
22345,NaN,-3.058228,9.211960,2.998460,0.640342,0.914313,0.284721,0.473885,-0.524937,-0.150154,0.259523,0.304915,-0.514092,-0.758541,73.075921,11.288149,-133.848202
22346,NaN,-2.525614,8.891841,2.857443,0.337551,0.575414,-0.160566,0.390145,-0.623421,-0.201107,0.256500,0.303598,-0.516096,-0.758736,73.229458,11.299945,-134.234385
22347,NaN,-2.245229,8.587341,2.914218,0.063288,0.529918,-0.485776,0.426681,-0.625047,-0.258022,0.253191,0.302469,-0.518147,-0.758901,73.402038,11.344461,-134.631138
22348,NaN,-1.863921,8.387486,3.144088,-0.398944,0.492007,-0.685358,0.412948,-0.609161,-0.229373,0.250055,0.301298,-0.520160,-0.759029,73.568849,11.376305,-135.014040
22349,NaN,-1.170210,8.330042,3.233024,-0.968092,0.110422,-0.853785,0.458454,-0.447552,-0.118550,0.247682,0.300511,-0.522304,-0.758647,73.783433,11.375179,-135.288137
22350,NaN,-0.438057,8.595157,3.442193,-1.636775,-0.314285,-0.694611,0.507663,-0.050482,0.054776,0.246932,0.300830,-0.524399,-0.757318,74.075417,11.342099,-135.311070
22351,NaN,-0.077063,8.820820,3.389694,-1.869365,-0.636832,-0.571336,0.471459,0.603747,0.195722,0.248479,0.303214,-0.525755,-0.754918,74.423632,11.333810,-134.944015
22352,NaN,-0.473344,9.078952,3.224901,-1.499611,-0.520888,-0.297907,0.452307,1.289612,0.380397,0.252551,0.307662,-0.526449,-0.751274,74.842074,11.324585,-134.161856
22353,NaN,-1.217528,9.484359,2.873876,-0.757620,-0.304980,0.138550,0.519030,1.756513,0.633827,0.258679,0.313264,-0.527157,-0.746362,75.357326,11.238120,-133.078360
22354,NaN,-2.189866,10.296303,2.304955,0.307319,-0.139364,0.957981,0.551210,2.054975,0.763343,0.266003,0.319641,-0.527743,-0.740648,75.924922,11.111589,-131.808411
22355,NaN,-3.885117,10.981032,1.664645,1.870880,0.606940,1.788094,0.406010,2.131232,0.667829,0.273368,0.326322,-0.527470,-0.735228,76.412825,11.037691,-130.510342
22356,NaN,-5.844007,10.875550,1.129343,3.447770,1.881074,1.946510,0.129967,1.700439,0.352675,0.278864,0.331836,-0.526203,-0.731594,76.686636,11.073019,-129.500179
22357,NaN,-6.955670,9.784813,0.413475,4.563915,2.670299,0.973168,-0.039429,0.928768,-0.223368,0.280486,0.335795,-0.524411,-0.730453,76.766139,11.325665,-129.005470
22358,NaN,-7.184271,8.357617,0.057712,4.842477,3.024901,-0.385794,0.064444,0.087545,-0.945755,0.277088,0.338710,-0.522953,-0.731449,76.792642,11.869899,-129.085318
22359,NaN,-6.468574,7.374512,-0.195292,4.493819,2.530076,-1.466047,0.434742,-0.715413,-1.522041,0.268834,0.340697,-0.522960,-0.733598,76.917410,12.632110,-129.700115
22360,NaN,-5.576523,7.610765,0.196494,3.574324,1.887118,-1.285045,0.936598,-1.380385,-1.785997,0.256996,0.341565,-0.525192,-0.735839,77.227324,13.457815,-130.729553
22361,NaN,-4.637462,7.906742,0.980868,2.299342,1.449083,-1.003812,1.206415,-1.986545,-1.762980,0.243133,0.340434,-0.529139,-0.738243,77.596306,14.202118,-132.103686
22362,NaN,-3.650604,6.840820,2.060744,0.777971,1.668182,-2.003592,1.348301,-2.472618,-1.595834,0.228312,0.337150,-0.534358,-0.740719,77.965520,14.801240,-133.736864
22363,NaN,-2.517643,5.452337,3.210113,-0.830128,2.051305,-3.372636,1.753810,-2.735927,-1.405074,0.212733,0.332755,-0.541546,-0.742123,78.519295,15.276706,-135.499230
22364,NaN,-1.188766,5.477348,4.445005,-2.659133,2.049149,-3.495996,2.478715,-2.756462,-1.110014,0.196924,0.328132,-0.551749,-0.741028,79.482665,15.605070,-137.236476
22365,NaN,0.085850,7.610924,5.788009,-4.706271,1.679635,-1.660583,2.973152,-2.501875,-0.629715,0.182700,0.323496,-0.564108,-0.737396,80.777956,15.721654,-138.770739
22366,NaN,0.911391,9.834735,6.827172,-6.295526,1.552608,0.292124,2.701086,-2.094420,0.089083,0.172663,0.317968,-0.576063,-0.732963,82.001152,15.497005,-139.997484
22367,NaN,1.976195,10.785980,7.326937,-7.550785,1.340250,0.916096,1.939793,-1.442598,0.857254,0.168479,0.311891,-0.585753,-0.728857,82.912238,14.908342,-140.783022
22368,NaN,2.120261,10.486180,6.904788,-7.324839,1.286464,0.522658,1.191575,-0.426966,1.270435,0.169932,0.307632,-0.592435,-0.724918,83.559194,14.162257,-140.948005
22369,NaN,1.307698,10.345661,6.237638,-6.217266,1.474502,0.522742,0.531759,0.592634,1.439350,0.176011,0.305986,-0.596072,-0.721174,83.973112,13.385848,-140.511482
22370,NaN,0.038207,11.123005,5.077805,-4.539041,1.286130,1.467796,-0.046711,1.563313,1.388258,0.185676,0.307455,-0.596642,-0.717645,84.176771,12.692728,-139.515192
22371,NaN,-1.624810,12.214549,3.832753,-2.520873,1.199600,2.786154,-0.710515,2.320983,1.263841,0.198142,0.311352,-0.593843,-0.714948,84.081262,12.114777,-138.088129
22372,NaN,-3.762632,12.869768,2.633004,-0.109002,1.579720,3.759803,-1.462761,2.648803,1.130546,0.212238,0.316003,-0.587695,-0.713941,83.580219,11.639431,-136.477645
22373,NaN,-5.836921,13.018450,1.705063,2.134779,2.270416,4.213820,-2.138694,2.567894,0.951983,0.226460,0.320083,-0.578770,-0.715045,82.668448,11.280407,-134.923991
22374,NaN,-7.303967,12.525811,0.678922,4.080984,2.652261,3.862557,-2.674621,1.984951,0.719157,0.238961,0.322053,-0.568050,-0.718678,81.374496,11.035716,-133.720426
22375,NaN,-7.630629,11.135593,-0.559765,5.432419,2.306251,2.340784,-2.867692,1.231102,0.237690,0.247829,0.322366,-0.556606,-0.724466,79.875731,11.022782,-132.992481
22376,NaN,-7.589044,9.527284,-1.258999,6.082092,2.107405,0.604195,-2.589194,0.624903,-0.369474,0.252319,0.322449,-0.545831,-0.731048,78.458827,11.303359,-132.677555
22377,NaN,-6.844493,8.408157,-1.785872,6.058484,1.391605,-0.752378,-1.925433,0.107156,-0.924773,0.252248,0.322948,-0.537154,-0.737253,77.349636,11.841050,-132.733604
22378,NaN,-6.369254,8.093404,-1.796657,5.770133,0.977033,-1.149696,-0.990288,-0.094590,-1.383692,0.248421,0.325083,-0.531392,-0.741775,76.737242,12.606771,-132.972690
22379,NaN,-6.215632,8.194671,-0.909928,4.973525,1.240366,-0.849541,-0.175480,-0.332892,-1.541412,0.242021,0.327748,-0.528651,-0.744671,76.551169,13.428966,-133.376694
22380,NaN,-5.898239,8.031607,0.198021,3.863944,1.643077,-0.773674,0.647781,-0.722810,-1.413499,0.233715,0.329592,-0.529626,-0.745817,76.782575,14.126752,-133.987130
22381,NaN,-5.129746,8.938260,1.612278,2.207081,1.654483,0.246974,1.588947,-1.255704,-0.974774,0.224047,0.329363,-0.535393,-0.744767,77.486590,14.518438,-134.842786
22382,NaN,-3.182459,10.750095,2.751410,-0.095856,0.528174,1.718676,2.040353,-1.817216,-0.373117,0.214349,0.325875,-0.544384,-0.742635,78.385296,14.515192,-135.943807
22383,NaN,-0.819956,12.134154,3.519940,-2.446257,-0.806030,2.583317,1.983122,-1.901068,0.145126,0.206391,0.320557,-0.553980,-0.740103,79.256145,14.230123,-137.032885
22384,NaN,1.019760,12.858176,4.237245,-4.375432,-1.507362,2.950731,1.593287,-1.401483,0.431593,0.201478,0.315827,-0.562005,-0.737435,79.987600,13.847624,-137.804074
22385,NaN,2.424643,13.186698,3.948823,-5.258757,-2.520315,2.889772,0.959648,-0.391292,0.474370,0.200543,0.314056,-0.566686,-0.734860,80.498894,13.549409,-137.985995
22386,NaN,2.163015,13.293721,3.614018,-4.862352,-2.512572,3.013343,0.385577,0.751263,0.520341,0.203914,0.315751,-0.568183,-0.732044,80.837841,13.330461,-137.502423
22387,NaN,0.320508,12.826745,3.147908,-3.168409,-1.475933,2.927804,-0.156545,1.509528,0.606124,0.210603,0.319431,-0.567014,-0.729456,80.965786,13.131791,-136.569690
22388,NaN,-1.581619,12.003304,2.399494,-1.209493,-0.512798,2.459733,-0.686720,1.980488,0.524257,0.219152,0.324454,-0.563251,-0.727633,80.848587,13.019970,-135.373464
22389,NaN,-3.262004,10.992616,1.268207,0.858686,0.119540,1.690999,-0.994679,2.004543,0.360720,0.227654,0.329668,-0.557989,-0.726733,80.552271,13.009040,-134.176437
22390,NaN,-4.895961,10.237889,0.379034,2.677680,0.862809,1.187950,-1.045086,1.665054,0.086855,0.234265,0.334299,-0.552435,-0.726760,80.178691,13.125076,-133.205199
22391,NaN,-6.067110,9.336741,-0.289513,3.994874,1.488195,0.477819,-0.951163,0.994050,-0.249933,0.237628,0.337526,-0.547388,-0.727994,79.763960,13.372728,-132.655613
22392,NaN,-6.291490,8.560037,-0.636660,4.425336,1.594928,-0.266246,-0.673045,0.166795,-0.598677,0.236976,0.338996,-0.543746,-0.730249,79.390972,13.732766,-132.625705
22393,NaN,-5.327423,8.202183,-0.810222,3.921385,0.811830,-0.852976,-0.224694,-0.603403,-0.919169,0.232296,0.339068,-0.542079,-0.732954,79.157560,14.193530,-133.077900
22394,NaN,-3.710572,8.600381,-0.025080,2.218155,-0.056615,-0.712630,0.178195,-1.102655,-1.170738,0.224644,0.338424,-0.542032,-0.735667,79.071804,14.738316,-133.852439
22395,NaN,-2.282382,8.923731,0.891761,0.501788,-0.652310,-0.595362,0.435070,-1.274354,-1.377626,0.215310,0.337986,-0.542716,-0.738151,79.092228,15.382716,-134.751698
22396,NaN,-0.820569,8.894191,2.032426,-1.420059,-0.957170,-0.813971,0.610206,-1.246927,-1.476038,0.205374,0.338055,-0.543810,-0.740142,79.204142,16.084179,-135.649097
22397,NaN,0.982269,9.300938,3.113378,-3.583411,-1.596725,-0.769815,0.836380,-1.068806,-1.365728,0.195921,0.338696,-0.545679,-0.741036,79.467633,16.747371,-136.429826
22398,NaN,2.362364,10.269442,4.128334,-5.465629,-2.111968,-0.130213,0.807979,-0.803078,-0.981183,0.188657,0.339205,-0.547805,-0.741120,79.766142,17.222810,-137.011990
22399,NaN,3.568338,10.378993,4.469658,-6.648830,-2.663354,-0.371633,0.402719,-0.412989,-0.486372,0.184975,0.339425,-0.548865,-0.741163,79.912752,17.462685,-137.309356
22400,NaN,4.365377,9.786776,4.498139,-7.201346,-2.963422,-1.185438,-0.094083,0.252459,-0.122317,0.185311,0.340634,-0.548097,-0.741092,79.904646,17.562438,-137.175869
22401,NaN,4.563882,9.350126,3.802400,-6.784534,-3.491374,-1.782030,-0.564468,1.116814,0.035441,0.189401,0.344184,-0.545027,-0.740682,79.786068,17.662153,-136.512913
22402,NaN,3.903072,9.249030,3.200708,-5.823219,-3.553272,-1.782420,-0.949069,1.748781,0.241648,0.196622,0.349111,-0.540267,-0.739982,79.569258,17.710880,-135.455202
22403,NaN,2.912366,8.876516,2.157359,-4.257261,-3.595568,-2.010541,-1.278099,2.187127,0.360380,0.206020,0.354979,-0.533982,-0.739195,79.246557,17.744642,-134.124111
22404,NaN,1.658688,8.458811,1.085387,-2.475614,-3.405068,-2.212990,-1.442847,2.410093,0.419868,0.216483,0.361269,-0.526880,-0.738253,78.873426,17.775881,-132.655601
22405,NaN,0.313710,8.239898,0.019481,-0.663479,-3.126868,-2.211642,-1.384224,2.412272,0.391806,0.226703,0.367638,-0.519827,-0.737040,78.533504,17.832455,-131.188282
22406,NaN,-1.581951,8.203943,-0.680840,1.164558,-2.207668,-1.810169,-1.263201,2.234974,0.227627,0.235590,0.373846,-0.513036,-0.735888,78.228018,17.967956,-129.845699
22407,NaN,-3.474706,7.911222,-1.211107,2.804757,-1.030626,-1.615200,-1.124018,1.642850,0.021315,0.241907,0.378520,-0.506996,-0.735635,77.889219,18.156454,-128.877637
22408,NaN,-4.506829,7.453132,-1.438769,3.643659,-0.232365,-1.775247,-0.834914,0.820564,-0.187286,0.244810,0.381022,-0.502590,-0.736406,77.559537,18.366567,-128.421096
22409,NaN,-4.656950,7.316342,-1.458443,3.765043,-0.105961,-1.865599,-0.379588,-0.035477,-0.294016,0.244291,0.381188,-0.500695,-0.737782,77.327564,18.532198,-128.484630
22410,NaN,-4.258160,7.541157,-0.999020,3.161127,-0.270523,-1.692774,0.101986,-0.785838,-0.238310,0.241184,0.379033,-0.501593,-0.739303,77.233109,18.571526,-128.982861
22411,NaN,-3.592754,7.458683,-0.166046,2.100153,-0.289645,-1.808135,0.524511,-1.322540,-0.086883,0.236471,0.375007,-0.504972,-0.740577,77.287043,18.458641,-129.778320
22412,NaN,-2.811832,7.326543,1.195127,0.548443,-0.020278,-1.893619,0.920186,-1.625699,0.103779,0.230951,0.369822,-0.510495,-0.741139,77.522012,18.202767,-130.725518
22413,NaN,-1.776717,8.068200,2.534572,-1.183006,-0.186154,-1.254561,1.354509,-1.579958,0.230194,0.225181,0.364947,-0.517760,-0.740292,78.023654,17.887915,-131.630813
22414,NaN,-1.553649,9.340090,3.421699,-2.095201,-0.143025,0.033468,1.471746,-1.436184,0.417559,0.220247,0.360213,-0.525579,-0.738583,78.630007,17.492455,-132.428974
22415,NaN,-1.910275,10.619842,5.239105,-3.327501,0.961025,1.671173,1.284104,-1.357278,0.777240,0.217155,0.354578,-0.533210,-0.736753,79.160702,16.911471,-133.141875
22416,NaN,-1.364974,11.748638,6.898327,-4.937304,1.466237,2.873851,0.730707,-1.299225,1.261035,0.216968,0.347232,-0.539545,-0.735694,79.407401,16.068509,-133.767567
22417,NaN,-0.630089,12.007317,7.215938,-5.527696,1.282916,3.010535,-0.057747,-1.032252,1.632921,0.220215,0.338978,-0.543280,-0.735830,79.265051,15.045407,-134.194376
22418,NaN,-0.468638,10.747665,6.446305,-4.807442,1.184358,1.709793,-0.998087,-0.463397,1.695247,0.226811,0.331579,-0.542987,-0.737413,78.678639,14.046616,-134.274668
22419,NaN,-0.694650,9.015285,4.357522,-2.868983,0.542997,-0.209736,-1.473614,0.216172,1.661574,0.235894,0.326202,-0.540045,-0.739120,77.914351,13.145174,-133.953911
22420,NaN,-1.679608,8.781797,2.953934,-0.988037,0.403855,-0.457209,-1.456429,0.690095,1.670192,0.246227,0.322531,-0.536560,-0.739898,77.218502,12.301089,-133.349981
22421,NaN,-2.514368,9.182269,2.170940,0.330649,0.392616,-0.061631,-1.548475,0.956432,1.613288,0.257185,0.319842,-0.532230,-0.740465,76.492123,11.531191,-132.592037
22422,NaN,-3.273208,8.751365,1.659431,1.361908,0.768951,-0.452890,-1.654489,1.007911,1.458595,0.267832,0.317570,-0.527127,-0.741318,75.699875,10.863939,-131.819131
22423,NaN,-3.207639,7.688725,0.706318,2.104943,0.473279,-1.735042,-1.511441,0.939597,1.114860,0.276768,0.316102,-0.522024,-0.742274,74.965959,10.387834,-131.127610
22424,NaN,-2.958430,6.407801,-0.217572,2.622506,0.134651,-3.258024,-1.003854,0.969223,0.585695,0.282988,0.316801,-0.517893,-0.742524,74.509250,10.215406,-130.496672
22425,NaN,-2.982910,5.500575,-0.959456,3.139342,0.006781,-4.315500,-0.243233,1.206157,-0.081340,0.286129,0.321170,-0.515161,-0.741342,74.493222,10.450594,-129.835554
22426,NaN,-3.180113,5.365397,-0.988939,3.228043,0.200960,-4.388921,0.655369,1.580538,-0.692345,0.286508,0.329764,-0.514220,-0.738069,75.020005,11.076560,-129.055719
22427,NaN,-3.751013,6.868403,0.260534,2.602593,0.912969,-2.484459,1.455876,1.885451,-1.017973,0.285108,0.341424,-0.515191,-0.732613,76.041740,11.916939,-128.140874
22428,NaN,-4.976440,9.372741,3.556397,0.652988,2.945553,0.964656,1.512293,1.949109,-1.157139,0.283219,0.353696,-0.515952,-0.726966,77.117720,12.826266,-127.189553
22429,NaN,-5.459004,10.479645,5.988642,-1.239224,4.283709,2.661157,0.808632,1.311586,-1.012790,0.281411,0.362235,-0.515238,-0.723963,77.727751,13.562285,-126.569700
22430,NaN,-4.554581,9.741979,7.300802,-2.997632,4.465925,2.020379,0.145339,-0.004322,-0.601788,0.278894,0.364001,-0.514700,-0.724435,77.797462,13.904024,-126.650547
22431,NaN,-2.731173,8.386335,7.315124,-4.104755,3.451058,0.313609,-0.287696,-0.666475,-0.308514,0.276513,0.362005,-0.514037,-0.726814,77.534577,14.001328,-127.077744
22432,NaN,-0.992702,8.056317,6.609582,-4.510618,1.814311,-0.542380,-0.416560,-0.583549,-0.079659,0.275413,0.359539,-0.513204,-0.729041,77.217002,13.978071,-127.427423
22433,NaN,0.319370,8.440714,5.662854,-4.457110,0.145783,-0.673313,-0.562144,-0.063591,0.212927,0.276966,0.358010,-0.511637,-0.730305,76.896514,13.857122,-127.439979
22434,NaN,0.538849,8.431614,4.545344,-3.627590,-0.662373,-0.955829,-0.771665,0.702999,0.573843,0.282173,0.358062,-0.508886,-0.730208,76.573603,13.634772,-126.961930
22435,NaN,-0.731951,8.163142,3.689243,-2.141694,-0.084060,-1.084065,-0.867380,1.500193,0.893687,0.290725,0.360049,-0.505192,-0.728439,76.309290,13.344410,-125.983380
22436,NaN,-2.107923,7.833861,2.473771,-0.329224,0.459879,-1.350288,-0.896074,2.049518,1.132588,0.301555,0.363351,-0.500971,-0.725306,76.103857,12.999376,-124.656509
22437,NaN,-3.150276,7.391171,0.979015,1.484746,0.727558,-1.889452,-0.601759,2.242264,1.327064,0.312982,0.367243,-0.497788,-0.720681,76.086996,12.575920,-123.194564
22438,NaN,-3.565295,7.340411,0.160013,2.391891,0.790474,-2.049238,-0.208437,2.422409,1.392921,0.324320,0.372172,-0.495777,-0.714500,76.309506,12.137176,-121.623080
22439,NaN,-4.977472,8.214261,-0.233488,3.483291,1.681539,-1.018411,0.347698,2.673096,1.335988,0.334967,0.378959,-0.495127,-0.706425,76.865120,11.753971,-119.922948
22440,NaN,-7.123695,10.110703,0.337124,4.100782,3.430235,1.345148,0.706061,2.304526,1.337773,0.343965,0.384963,-0.496270,-0.698002,77.571953,11.303838,-118.438841
22441,NaN,-9.008720,11.394269,1.097958,4.295730,5.258787,3.074455,0.628705,1.365680,1.162994,0.350116,0.387938,-0.498343,-0.691792,78.113085,10.823789,-117.520474
22442,NaN,-10.221100,11.835970,2.074196,3.944979,6.774223,3.877051,0.473204,0.079552,0.706902,0.351776,0.387308,-0.501227,-0.689215,78.413128,10.441830,-117.394276
22443,NaN,-9.715463,12.798545,2.749594,3.235777,6.432350,4.812883,0.389337,-1.283512,-0.019053,0.347658,0.383642,-0.504788,-0.690754,78.507858,10.312565,-118.133159
22444,NaN,-7.704212,14.617504,3.343846,2.046808,4.427152,6.324722,0.115858,-2.236416,-0.841367,0.338798,0.378247,-0.507446,-0.696164,78.330611,10.532930,-119.510924
22445,NaN,-5.532464,15.761478,4.393249,0.312262,2.576224,7.263400,-0.469191,-2.623766,-1.412808,0.327995,0.371895,-0.507536,-0.704642,77.753732,11.020940,-121.183144
22446,NaN,-3.461939,15.274883,5.531990,-1.591672,1.293078,6.670573,-1.037463,-2.742072,-1.419213,0.317860,0.364116,-0.505692,-0.714605,76.823897,11.473771,-122.931293
22447,NaN,-1.309605,13.858672,6.153976,-3.183023,0.067480,5.070448,-1.422398,-2.623446,-0.987037,0.310172,0.354965,-0.502929,-0.724469,75.685834,11.673432,-124.563527
22448,NaN,1.542092,12.108794,5.211567,-3.959329,-2.272671,2.649946,-1.556846,-2.150587,-0.401533,0.305983,0.345768,-0.499889,-0.732755,74.541506,11.584370,-125.842994
22449,NaN,3.653784,10.023918,3.383411,-3.757968,-4.295136,-0.184357,-1.426951,-1.023284,0.078498,0.306092,0.339655,-0.496353,-0.737954,73.615071,11.387334,-126.410629
22450,NaN,4.093964,7.654598,1.736086,-2.854534,-4.793610,-2.939599,-1.045604,0.582876,0.340903,0.310504,0.339382,-0.492196,-0.739020,73.096340,11.300904,-126.030721
22451,NaN,2.562723,6.424957,0.170531,-0.777565,-4.025856,-4.239168,-0.230148,2.067887,0.483710,0.317680,0.345483,-0.488940,-0.735295,73.211295,11.385607,-124.797052
22452,NaN,0.312765,6.692656,-0.542929,1.139223,-2.635487,-3.734836,0.565207,2.844273,0.619380,0.325837,0.355314,-0.487540,-0.727933,73.877000,11.511978,-123.103341
22453,NaN,-2.172211,7.452564,-0.665115,2.628106,-0.802047,-2.522326,1.021540,3.009365,0.585032,0.333373,0.366487,-0.487343,-0.719060,74.824785,11.660867,-121.320733
22454,NaN,-4.392938,8.391034,-0.292269,3.434865,1.072198,-1.046780,1.165277,2.437115,0.520410,0.338953,0.375918,-0.488399,-0.710818,75.792727,11.731743,-119.867489
22455,NaN,-5.455879,9.417341,0.108276,3.580896,1.981688,0.272547,1.102095,1.288959,0.525556,0.341810,0.381100,-0.491111,-0.704797,76.591036,11.622429,-119.066105
22456,NaN,-5.243939,10.343138,0.278156,3.332760,1.719886,1.164125,0.862253,0.148420,0.504654,0.342243,0.381883,-0.494872,-0.701524,77.120277,11.365450,-118.917681
22457,NaN,-4.839520,11.090870,0.455730,3.030362,1.317458,1.837076,0.481576,-0.663866,0.402384,0.341014,0.379412,-0.498471,-0.700916,77.336749,11.063685,-119.248152
22458,NaN,-5.150128,10.921935,0.192037,3.423862,1.544110,1.665199,0.138939,-1.389369,0.279811,0.338197,0.374103,-0.501866,-0.702709,77.278618,10.737650,-120.006277
22459,NaN,-5.437269,10.427125,0.191521,3.597026,1.905081,1.221648,0.011704,-2.029716,0.107825,0.333367,0.366737,-0.505526,-0.706268,77.080168,10.426708,-121.150166
22460,NaN,-4.726389,10.226261,0.475151,3.074162,1.445072,0.939102,-0.008214,-2.563177,-0.114968,0.326408,0.357963,-0.509538,-0.711120,76.817930,10.164487,-122.622512
22461,NaN,-3.698058,9.757461,0.472316,2.574347,0.645879,0.289851,-0.019166,-2.892718,-0.401491,0.317532,0.348667,-0.513429,-0.716934,76.514733,10.013622,-124.318809
22462,NaN,-1.898929,9.078656,1.020632,1.111800,-0.417823,-0.557494,-0.014981,-2.960874,-0.594316,0.307729,0.339546,-0.517004,-0.722992,76.206916,9.949721,-126.077505
22463,NaN,0.433825,8.548638,1.444932,-0.632378,-1.927210,-1.372241,0.119912,-2.645622,-0.646346,0.298243,0.331842,-0.520375,-0.728108,76.006005,9.952791,-127.666154
22464,NaN,2.370812,8.475050,1.892786,-2.203267,-3.151417,-1.673663,0.152921,-1.987000,-0.581042,0.290627,0.326360,-0.522926,-0.731829,75.890153,10.004524,-128.872838
22465,NaN,4.410993,8.192091,2.129170,-3.724951,-4.469707,-2.246526,0.045018,-1.082341,-0.366973,0.286299,0.323453,-0.524070,-0.734004,75.804555,10.064053,-129.540051
22466,NaN,6.101942,7.333843,2.288368,-4.996645,-5.407828,-3.328517,-0.095423,0.200876,-0.024744,0.286827,0.324147,-0.523417,-0.733958,75.774170,10.111243,-129.433526
22467,NaN,7.374677,5.922049,1.481136,-5.224202,-6.492301,-5.100317,-0.049797,1.794727,0.395233,0.292971,0.329646,-0.521294,-0.730585,75.937784,10.149691,-128.368568
22468,NaN,5.933348,5.612640,0.863628,-3.753670,-5.740550,-5.295469,0.438125,3.532909,0.699746,0.303903,0.341343,-0.518811,-0.722470,76.564790,10.246565,-126.277202
22469,NaN,1.994869,6.516799,0.706898,-1.151352,-3.009186,-3.765640,0.650556,4.634756,0.891758,0.317880,0.356693,-0.515510,-0.711317,77.432975,10.352431,-123.534388
22470,NaN,-0.203460,6.956794,0.229911,0.496819,-1.534542,-3.038537,0.638569,4.956538,0.911984,0.332595,0.372899,-0.511386,-0.699150,78.333731,10.442970,-120.602965
22471,NaN,-3.008976,7.543398,-0.739033,2.706009,0.363402,-2.128680,0.811906,4.922334,0.792144,0.346261,0.389342,-0.507368,-0.686363,79.332447,10.550199,-117.703148
22472,NaN,-7.413378,9.806065,-0.188180,4.169863,4.068362,1.013188,0.749834,4.427460,0.295392,0.356896,0.405017,-0.502742,-0.675156,80.244463,10.838808,-115.134811
22473,NaN,-10.431873,10.797965,-0.020833,5.045576,6.734373,2.621291,0.045548,2.732837,0.007254,0.363594,0.414303,-0.498000,-0.669439,80.574656,11.102287,-113.564899
22474,NaN,-11.091036,9.434690,-0.311940,5.319940,7.595301,1.418129,-0.450444,0.656957,-0.227611,0.365335,0.416279,-0.494840,-0.669608,80.390889,11.298579,-113.211277
22475,NaN,-9.921797,8.261776,-0.702705,5.174355,6.617255,0.017288,-0.469802,-1.043442,-0.678181,0.361377,0.413634,-0.493762,-0.674176,79.993867,11.587031,-113.883552
22476,NaN,-7.762477,8.050036,-1.105976,4.801115,4.428223,-0.668435,-0.350430,-2.333830,-1.023013,0.352799,0.407657,-0.494659,-0.681661,79.502467,11.931252,-115.337059
22477,NaN,-5.055154,7.624698,-1.136683,3.792410,1.935541,-1.636524,-0.252766,-3.151636,-1.208381,0.341270,0.399440,-0.496833,-0.690753,78.954139,12.281873,-117.287652
22478,NaN,-2.577366,6.705300,-0.627145,2.229673,0.077008,-2.955710,-0.027449,-3.373395,-1.250178,0.328509,0.390815,-0.499936,-0.699579,78.494049,12.611803,-119.375227
22479,NaN,-1.779119,5.949226,0.411586,0.900746,-0.032333,-3.655161,0.392266,-3.112945,-1.239787,0.315496,0.383654,-0.503938,-0.706625,78.294676,12.956909,-121.317386
22480,NaN,-1.593219,6.072083,1.584564,-0.203631,0.284717,-3.347641,0.837278,-2.868845,-1.070245,0.302777,0.377517,-0.509325,-0.711614,78.376087,13.230470,-123.100481
22481,NaN,-0.336316,6.761983,2.550218,-1.693135,-0.448400,-2.793224,1.194701,-2.577022,-0.840699,0.290853,0.372294,-0.515845,-0.714636,78.699815,13.417224,-124.690065
22482,NaN,0.871425,7.398583,3.171834,-2.934808,-1.205252,-2.363417,1.465090,-1.996954,-0.563888,0.280874,0.368743,-0.522913,-0.715332,79.260426,13.521010,-125.911397
22483,NaN,1.069600,8.424845,3.518432,-3.414211,-1.362384,-1.387357,1.614489,-1.384529,-0.113662,0.273773,0.366371,-0.530404,-0.713787,79.999884,13.450227,-126.729919
22484,NaN,0.836508,9.442531,3.965498,-3.732855,-1.080471,-0.300483,1.543568,-0.826215,0.404825,0.270126,0.364476,-0.537785,-0.710617,80.788084,13.147972,-127.172615
22485,NaN,1.047491,10.183047,4.241716,-4.150861,-1.130677,0.398743,1.252303,-0.229031,0.907028,0.270363,0.362938,-0.544191,-0.706424,81.498448,12.622031,-127.227408
22486,NaN,0.697939,10.956359,3.760510,-3.596631,-1.177250,1.157576,0.957066,0.540975,1.231048,0.274375,0.362810,-0.549077,-0.701143,82.140627,11.973475,-126.813395
22487,NaN,-0.803844,12.201028,3.318704,-2.382696,-0.406427,2.624380,0.621652,1.274693,1.363435,0.281437,0.364405,-0.551965,-0.695224,82.671309,11.303192,-125.972553
22488,NaN,-2.261945,13.409366,2.654705,-0.995248,0.250769,4.004673,0.137256,1.643856,1.403037,0.290522,0.366450,-0.552673,-0.689829,82.955650,10.628981,-124.920883
22489,NaN,-3.218555,13.909740,1.917774,0.207187,0.645578,4.576762,-0.401815,1.733686,1.287666,0.300397,0.368301,-0.551105,-0.685856,82.925736,10.026375,-123.830290
22490,NaN,-4.130655,13.893215,0.861081,1.674402,0.931353,4.580122,-0.790782,1.774231,0.900359,0.309751,0.370727,-0.547375,-0.683371,82.663923,9.647617,-122.743640
22491,NaN,-5.257848,13.289183,-0.254284,3.283576,1.458732,4.022118,-1.028718,1.650000,0.293196,0.317085,0.373988,-0.541832,-0.682648,82.241545,9.612888,-121.774312
22492,NaN,-5.769667,11.933612,-1.255247,4.410597,1.653538,2.640745,-1.005797,1.260004,-0.371808,0.321037,0.377721,-0.535708,-0.683578,81.788460,9.929653,-121.081560
22493,NaN,-5.309891,11.152739,-1.844256,4.652692,1.071492,1.727813,-0.600162,0.887113,-1.032183,0.320932,0.382582,-0.530278,-0.685156,81.524608,10.596453,-120.661432
22494,NaN,-4.463749,11.755239,-1.811940,4.160490,0.110500,2.190213,-0.073951,0.501958,-1.394734,0.317555,0.387902,-0.526556,-0.686607,81.519785,11.434734,-120.494387
22495,NaN,-3.891466,12.808503,-1.447407,3.490840,-0.599998,3.177599,0.194392,-0.014580,-1.338569,0.312456,0.391716,-0.524649,-0.688240,81.610638,12.200300,-120.621496
22496,NaN,-3.713360,12.649356,-0.855298,2.797113,-0.555742,3.086642,0.255544,-0.648818,-0.939092,0.306953,0.392370,-0.524712,-0.690291,81.663681,12.684067,-121.081003
22497,NaN,-3.932731,11.389010,-0.171943,2.249340,0.211328,2.023742,0.526496,-1.260388,-0.397794,0.301150,0.389902,-0.527681,-0.691981,81.801149,12.814024,-121.850981
22498,NaN,-3.850315,10.466232,0.993312,1.170862,0.966820,1.279998,1.106338,-1.740507,0.083952,0.294613,0.385334,-0.534284,-0.692287,82.218607,12.633279,-122.859236
22499,NaN,-3.345366,10.235750,1.921741,0.075281,1.180095,1.061827,1.763779,-2.015358,0.409250,0.287137,0.379869,-0.544108,-0.690795,82.988072,12.260490,-124.004571
22500,NaN,-3.052992,10.894615,3.002722,-1.072197,1.535251,1.742334,2.280751,-2.024065,0.506222,0.278950,0.374761,-0.555807,-0.687619,84.060913,11.847081,-125.151921
22501,NaN,-2.108437,12.337850,3.916611,-2.512831,1.200033,3.003167,2.320163,-1.935930,0.469898,0.270722,0.370032,-0.567309,-0.684066,85.172336,11.483528,-126.257172
22502,NaN,-0.420196,13.317169,4.221924,-3.900475,0.084255,3.608270,1.655454,-1.673192,0.327901,0.263954,0.365625,-0.575821,-0.681966,85.937008,11.227575,-127.219508
22503,NaN,0.685982,13.058159,4.391337,-4.751316,-0.459836,3.128808,0.701415,-1.118184,0.054023,0.259549,0.362613,-0.579784,-0.681907,86.217313,11.161343,-127.872303
22504,NaN,1.432144,11.796914,3.838927,-4.696803,-1.078556,1.708264,-0.177321,-0.518999,-0.200088,0.257621,0.361223,-0.579507,-0.683609,86.060566,11.261388,-128.184906
22505,NaN,1.728928,10.582577,2.595172,-3.786894,-1.865739,0.380100,-0.728105,-0.025110,-0.278194,0.257831,0.361040,-0.576552,-0.686120,85.642364,11.427474,-128.214733
22506,NaN,1.581463,9.599505,1.453984,-2.677590,-2.323669,-0.636869,-1.072068,0.290218,-0.240690,0.259711,0.361372,-0.572076,-0.688977,85.064736,11.584051,-128.059352
22507,NaN,1.408439,9.239839,0.830146,-1.982573,-2.578678,-1.011209,-1.238085,0.482771,-0.178820,0.262630,0.361966,-0.566858,-0.691866,84.414253,11.719223,-127.791198
22508,NaN,1.155430,9.388257,0.210233,-1.253302,-2.869104,-0.884378,-1.291122,0.478337,-0.058120,0.266053,0.362112,-0.561664,-0.694711,83.735616,11.786239,-127.518755
22509,NaN,0.693067,9.685400,-0.045923,-0.682162,-2.806073,-0.541840,-1.331840,0.355407,0.030962,0.269489,0.361513,-0.556619,-0.697753,83.019232,11.799560,-127.313555
22510,NaN,0.316740,9.817239,-0.051137,-0.350244,-2.619650,-0.352538,-1.341337,0.138140,0.079106,0.272506,0.359990,-0.551904,-0.701106,82.273384,11.770280,-127.230067
22511,NaN,0.505878,9.508322,-0.264951,-0.184214,-2.884303,-0.736343,-1.226789,-0.073636,0.008718,0.274463,0.358063,-0.547720,-0.704602,81.566067,11.766578,-127.275570
22512,NaN,0.442525,8.948738,-0.487510,0.108471,-2.888866,-1.318251,-0.940138,0.023818,-0.255993,0.275244,0.357583,-0.543932,-0.707469,81.030646,11.919106,-127.287219
22513,NaN,0.137100,8.376297,-0.592551,0.402206,-2.625162,-1.845334,-0.462584,0.253800,-0.551636,0.274736,0.359375,-0.540969,-0.709029,80.789926,12.261090,-127.194967
22514,NaN,-0.281212,8.528623,-0.451280,0.513418,-2.305106,-1.600334,0.177745,0.580509,-0.691765,0.273469,0.363574,-0.539574,-0.708441,80.955587,12.710643,-126.925820
22515,NaN,-0.857609,9.176140,0.777510,-0.212175,-1.357071,-0.666412,0.573290,0.739264,-0.536984,0.272444,0.368452,-0.539624,-0.706274,81.373493,13.086502,-126.548332
22516,NaN,-0.788099,9.725407,2.493812,-1.735377,-0.595924,0.089666,0.597035,0.703079,-0.206423,0.272446,0.372330,-0.540409,-0.703634,81.809827,13.267900,-126.159558
22517,NaN,-0.164965,9.665573,3.692440,-3.128321,-0.392931,0.043464,0.310350,0.607718,0.065750,0.273669,0.374743,-0.540806,-0.701571,82.074646,13.286108,-125.803207
22518,NaN,0.388306,9.375595,4.189794,-3.863524,-0.481660,-0.302267,-0.081433,0.675706,0.175114,0.276199,0.376556,-0.539941,-0.700274,82.126658,13.245450,-125.397744
22519,NaN,0.822946,8.570385,3.613195,-3.602019,-0.957115,-1.251548,-0.437491,0.846263,0.220536,0.280007,0.378345,-0.537662,-0.699550,81.997086,13.193762,-124.889833
22520,NaN,1.196306,7.586676,2.986001,-3.236651,-1.377857,-2.360829,-0.688690,1.076100,0.269871,0.285078,0.380442,-0.534266,-0.698967,81.755366,13.133321,-124.243267
