// General information: 
//  MT Manager version: 2019.0.1 
//  XDA version: 2019.0.1 build 2740 rev 84096 built on 2019-01-30
// Device information: 
//  DeviceId: 00B4381A
//  ProductCode: MTW2-3A7G6
//  Firmware Version: 4.3.4
//  Hardware Version: 1.1.0
// Device settings: 
//  Filter Profile: human(46.1)
//  Option Flags: Orientation Smoother Disabled, AHS Disabled, ICC Disabled
// Coordinate system: ENU
PacketCounter,SampleTimeFine,Acc_X,Acc_Y,Acc_Z,FreeAcc_E,FreeAcc_N,FreeAcc_U,Gyr_X,Gyr_Y,Gyr_Z,Quat_q0,Quat_q1,Quat_q2,Quat_q3,Roll,Pitch,Yaw
12826,NaN,-7.997446,6.681966,0.007740,2.094483,-0.305187,0.391538,0.124209,1.260242,0.862170,0.275182,0.607811,-0.183048,-0.722035,72.039867,50.984753,-100.033722
12827,NaN,-8.250442,6.560276,-0.184566,2.176387,0.041200,0.502402,0.106410,1.238843,0.834534,0.278936,0.611648,-0.184287,-0.717021,73.109944,50.743484,-98.740791
12828,NaN,-8.591438,6.379756,-0.279408,2.157074,0.481655,0.661355,0.115548,1.173564,0.820567,0.282529,0.615256,-0.185583,-0.712177,74.125377,50.486790,-97.520484
12829,NaN,-8.880151,6.315321,-0.127892,1.908853,0.781813,0.887787,0.127551,1.084756,0.837849,0.286062,0.618505,-0.187110,-0.707537,75.076225,50.190834,-96.388563
12830,NaN,-9.172408,6.234328,0.024108,1.657712,1.099402,1.097962,0.145252,0.958979,0.863851,0.289490,0.621297,-0.188933,-0.703200,75.943831,49.853938,-95.372852
12831,NaN,-9.404984,6.297368,0.040393,1.565228,1.289467,1.322751,0.164663,0.812681,0.930213,0.292958,0.623499,-0.191253,-0.699176,76.720217,49.447738,-94.485767
12832,NaN,-9.362097,6.330491,0.104395,1.414281,1.329799,1.321260,0.194733,0.650566,1.011814,0.296435,0.625093,-0.194143,-0.695481,77.405657,48.971098,-93.735774
12833,NaN,-9.298731,6.552090,0.020914,1.452404,1.241324,1.400910,0.222285,0.476259,1.094798,0.299944,0.626009,-0.197655,-0.692155,77.990718,48.419179,-93.134779
12834,NaN,-9.079402,6.879489,-0.022755,1.475056,0.980038,1.440109,0.256018,0.326209,1.195195,0.303526,0.626342,-0.201800,-0.689090,78.499591,47.791808,-92.656334
12835,NaN,-8.870309,7.160190,-0.009525,1.443915,0.767661,1.468920,0.297144,0.188935,1.294068,0.307173,0.626135,-0.206605,-0.686232,78.946336,47.089729,-92.289541
12836,NaN,-8.699931,7.327364,-0.067100,1.472268,0.683047,1.445523,0.349241,0.066099,1.386723,0.310829,0.625464,-0.212049,-0.683531,79.347634,46.321575,-92.021411
12837,NaN,-8.520665,7.445104,-0.025337,1.397955,0.627244,1.398105,0.420180,-0.017441,1.462541,0.314420,0.624503,-0.218098,-0.680859,79.738682,45.499883,-91.820972
12838,NaN,-8.404545,7.589117,0.141116,1.206356,0.593803,1.431886,0.488534,-0.088496,1.548787,0.317991,0.623276,-0.224740,-0.678160,80.127187,44.622371,-91.676095
12839,NaN,-8.283694,7.667828,0.280230,1.030533,0.616122,1.414474,0.575059,-0.167254,1.628378,0.321453,0.621786,-0.232040,-0.675431,80.521164,43.690890,-91.592821
12840,NaN,-8.094530,7.920382,0.398354,0.897735,0.481672,1.473203,0.663613,-0.248418,1.704058,0.324774,0.620027,-0.239979,-0.672680,80.920739,42.709480,-91.573379
12841,NaN,-8.113973,8.148085,0.564099,0.714213,0.527891,1.665705,0.735442,-0.301319,1.798104,0.328097,0.618039,-0.248522,-0.669788,81.335872,41.669450,-91.592441
12842,NaN,-7.934962,8.489278,0.822487,0.444909,0.361880,1.822380,0.786046,-0.339493,1.859261,0.331387,0.615867,-0.257455,-0.666789,81.758645,40.592311,-91.643590
12843,NaN,-7.833573,8.873192,1.026539,0.228237,0.247527,2.063087,0.844875,-0.347397,1.918858,0.334649,0.613625,-0.266758,-0.663562,82.210610,39.480490,-91.703818
12844,NaN,-7.853543,9.336865,1.028034,0.213543,0.210254,2.427266,0.914031,-0.353063,2.027352,0.338010,0.611259,-0.276596,-0.660004,82.699504,38.307601,-91.768892
12845,NaN,-7.585836,9.744556,1.108652,0.094511,0.002724,2.585499,0.955288,-0.335990,2.106458,0.341486,0.608832,-0.286752,-0.656112,83.218474,37.090919,-91.826201
12846,NaN,-7.285167,10.265598,0.877658,0.280409,-0.273275,2.799457,1.050299,-0.310898,2.131757,0.344744,0.606527,-0.297208,-0.651878,83.795694,35.862456,-91.877694
12847,NaN,-6.896613,10.616359,0.800770,0.278103,-0.519869,2.858418,1.125446,-0.329752,2.110275,0.347626,0.604235,-0.307839,-0.647527,84.400736,34.645084,-91.958208
12848,NaN,-6.897321,10.732380,0.932842,0.051460,-0.317088,2.974686,1.167701,-0.379939,2.080226,0.350155,0.601811,-0.318553,-0.643225,85.002112,33.443497,-92.089895
12849,NaN,-6.811188,10.690354,1.241693,-0.363659,-0.101187,2.917928,1.193841,-0.466683,1.998484,0.352155,0.599200,-0.329218,-0.639189,85.580119,32.285105,-92.297708
12850,NaN,-6.658449,11.031866,2.143909,-1.345618,-0.147926,3.179390,1.173477,-0.563396,1.900656,0.353695,0.596321,-0.339643,-0.635566,86.106804,31.180925,-92.586165
12851,NaN,-6.805251,11.116411,2.995632,-2.265744,0.212062,3.365883,1.055550,-0.719101,1.819632,0.355020,0.592801,-0.349690,-0.632665,86.513133,30.118750,-92.988495
12852,NaN,-6.801310,10.825416,3.037818,-2.369018,0.615890,3.097732,0.903067,-0.839217,1.659521,0.356039,0.588841,-0.358948,-0.630602,86.793842,29.146842,-93.479455
12853,NaN,-6.374271,10.536588,2.751651,-2.142084,0.603094,2.607726,0.747632,-0.801640,1.450331,0.356892,0.585041,-0.367003,-0.629018,87.000697,28.297048,-93.953628
12854,NaN,-6.106389,10.376714,2.592438,-2.022590,0.624754,2.319967,0.594049,-0.590672,1.224080,0.357843,0.582007,-0.373507,-0.627462,87.185529,27.584835,-94.298451
12855,NaN,-6.324188,10.384640,2.457564,-1.892427,0.957596,2.409256,0.447021,-0.339069,0.997864,0.358969,0.579895,-0.378428,-0.625824,87.360464,27.009420,-94.488766
12856,NaN,-6.189333,10.361734,2.265672,-1.730225,0.955552,2.307500,0.299300,-0.101746,0.808533,0.360368,0.578605,-0.381899,-0.624103,87.517945,26.549431,-94.533246
12857,NaN,-5.423417,10.063721,2.012363,-1.555145,0.478376,1.680517,0.166717,0.158095,0.634036,0.362100,0.578208,-0.383979,-0.622189,87.670582,26.195323,-94.417815
12858,NaN,-4.591898,9.723950,1.704849,-1.330436,-0.079025,0.993365,0.027446,0.455213,0.401125,0.364074,0.578929,-0.384409,-0.620098,87.823328,25.981345,-94.119958
12859,NaN,-4.197492,9.368570,1.611812,-1.288218,-0.259741,0.495560,-0.090532,0.744187,0.175205,0.366243,0.580754,-0.383290,-0.617803,87.985022,25.901698,-93.644679
12860,NaN,-4.436016,9.116620,1.584369,-1.274068,0.058663,0.369378,-0.161179,0.893886,-0.027921,0.368267,0.583295,-0.381081,-0.615568,88.146202,25.940406,-93.078503
12861,NaN,-4.564685,8.850619,1.496621,-1.207732,0.262509,0.181412,-0.223562,0.912255,-0.196835,0.369984,0.586082,-0.378145,-0.613699,88.275587,26.074527,-92.503838
12862,NaN,-4.145748,8.588730,1.571375,-1.322012,-0.036614,-0.238061,-0.269560,0.910525,-0.346128,0.371362,0.589051,-0.374625,-0.612181,88.379719,26.293427,-91.931509
12863,NaN,-3.968710,8.398324,1.759927,-1.531944,-0.160248,-0.484932,-0.316857,0.895829,-0.448542,0.372533,0.592059,-0.370675,-0.610972,88.453783,26.569620,-91.369253
12864,NaN,-3.990317,8.323446,1.904410,-1.684487,-0.168393,-0.541067,-0.360397,0.818607,-0.528746,0.373430,0.594887,-0.366489,-0.610201,88.484326,26.890440,-90.855677
12865,NaN,-4.000072,8.220481,1.886043,-1.667420,-0.180688,-0.630057,-0.397139,0.678441,-0.581049,0.374015,0.597293,-0.362286,-0.610002,88.454597,27.238729,-90.432218
12866,NaN,-3.765071,8.070447,1.799881,-1.576237,-0.388072,-0.873339,-0.438398,0.523905,-0.604855,0.374358,0.599188,-0.358169,-0.610365,88.359033,27.598942,-90.107381
12867,NaN,-3.505003,7.908839,1.651280,-1.412463,-0.606583,-1.141001,-0.485693,0.403508,-0.612349,0.374601,0.600619,-0.354101,-0.611181,88.200460,27.961650,-89.861183
12868,NaN,-3.147957,7.717201,1.487446,-1.226186,-0.889107,-1.483046,-0.532156,0.314708,-0.588004,0.374890,0.601647,-0.350126,-0.612283,87.990847,28.309790,-89.671905
12869,NaN,-2.692023,7.573458,1.277165,-0.984253,-1.271273,-1.834581,-0.587914,0.262820,-0.558022,0.375346,0.602337,-0.346160,-0.613578,87.732404,28.639879,-89.517571
12870,NaN,-2.263078,7.265753,1.035556,-0.713305,-1.540585,-2.322524,-0.643022,0.240739,-0.510610,0.376062,0.602774,-0.342204,-0.614929,87.437790,28.943402,-89.376847
12871,NaN,-1.972144,6.995907,0.893691,-0.539513,-1.700172,-2.709955,-0.688347,0.257125,-0.467356,0.377076,0.603079,-0.338202,-0.616221,87.121244,29.222635,-89.226484
12872,NaN,-1.721476,6.824287,0.747545,-0.356610,-1.864483,-2.994369,-0.717564,0.311528,-0.422897,0.378393,0.603421,-0.334135,-0.617297,86.807918,29.479439,-89.039253
12873,NaN,-1.588878,6.675144,0.649038,-0.222752,-1.932037,-3.200522,-0.723512,0.426913,-0.362954,0.380107,0.603984,-0.330006,-0.617915,86.528127,29.705779,-88.775991
12874,NaN,-1.635353,6.513416,0.546316,-0.094351,-1.830794,-3.329126,-0.667972,0.558062,-0.277342,0.382117,0.604915,-0.326051,-0.617864,86.327221,29.889667,-88.422265
12875,NaN,-1.676809,6.588692,0.501276,-0.013143,-1.847229,-3.250575,-0.591701,0.675337,-0.175122,0.384405,0.606163,-0.322411,-0.617131,86.209819,30.019246,-87.987945
12876,NaN,-1.845593,6.814396,0.541378,-0.015643,-1.827761,-2.972051,-0.495785,0.767036,-0.069325,0.386859,0.607707,-0.319204,-0.615744,86.182692,30.093394,-87.486995
12877,NaN,-2.154724,7.063854,0.569757,-0.018282,-1.691701,-2.601357,-0.411960,0.835574,0.049348,0.389535,0.609409,-0.316479,-0.613778,86.227454,30.100925,-86.936559
12878,NaN,-2.551653,7.167464,0.489298,0.057969,-1.390238,-2.316905,-0.322119,0.877932,0.170164,0.392357,0.611225,-0.314305,-0.611287,86.341908,30.041590,-86.351860
12879,NaN,-2.769868,7.324230,0.425682,0.118500,-1.260793,-2.073563,-0.228016,0.922139,0.289818,0.395328,0.613145,-0.312695,-0.608269,86.524223,29.912630,-85.735063
12880,NaN,-2.944340,7.501179,0.303234,0.229638,-1.162596,-1.836203,-0.144727,0.991831,0.404511,0.398480,0.615259,-0.311540,-0.604659,86.778923,29.719825,-85.068184
12881,NaN,-3.102681,7.552621,0.220785,0.278283,-1.010482,-1.712147,-0.090153,1.076577,0.508124,0.401909,0.617543,-0.310694,-0.600482,87.088797,29.465906,-84.345775
12882,NaN,-3.240904,7.554512,0.080754,0.369529,-0.835637,-1.642895,-0.044163,1.156337,0.601225,0.405572,0.620005,-0.310097,-0.595773,87.449083,29.158786,-83.570504
12883,NaN,-3.308049,7.460717,0.011070,0.378602,-0.677314,-1.688457,-0.001052,1.227242,0.684046,0.409451,0.622594,-0.309733,-0.590586,87.849454,28.799786,-82.752763
12884,NaN,-3.313904,7.275658,-0.182073,0.499635,-0.505922,-1.847499,0.039400,1.275929,0.749312,0.413439,0.625292,-0.309569,-0.585017,88.283181,28.400797,-81.906487
12885,NaN,-3.319801,7.170791,-0.308631,0.556505,-0.376996,-1.933336,0.085852,1.329549,0.796630,0.417493,0.628119,-0.309568,-0.579081,88.749840,27.968002,-81.032744
12886,NaN,-3.259135,7.149611,-0.483009,0.671998,-0.333346,-1.976308,0.116266,1.379017,0.824086,0.421568,0.631085,-0.309611,-0.572846,89.241281,27.515213,-80.133082
12887,NaN,-3.201165,7.153004,-0.537864,0.669013,-0.315971,-1.992577,0.129667,1.425269,0.838189,0.425698,0.634135,-0.309627,-0.566379,89.742125,27.046034,-79.212960
12888,NaN,-3.260208,7.147863,-0.537501,0.589370,-0.202354,-1.962796,0.134817,1.444516,0.844923,0.429819,0.637210,-0.309609,-0.559787,90.242673,26.567526,-78.287746
12889,NaN,-3.404424,7.257899,-0.557159,0.519893,-0.060533,-1.793778,0.156421,1.414437,0.845537,0.433809,0.640188,-0.309704,-0.553220,90.734565,26.080029,-77.391495
12890,NaN,-3.480011,7.420460,-0.546198,0.433147,-0.007529,-1.610030,0.171026,1.359421,0.836384,0.437600,0.643032,-0.309901,-0.546787,91.210865,25.593184,-76.537300
12891,NaN,-3.537888,7.575849,-0.508313,0.321884,0.027631,-1.442299,0.167632,1.281920,0.825934,0.441240,0.645620,-0.310213,-0.540601,91.652670,25.105684,-75.741010
12892,NaN,-3.773416,7.671899,-0.405088,0.102176,0.227743,-1.257118,0.170060,1.184045,0.820207,0.444668,0.647936,-0.310705,-0.534707,92.062484,24.619548,-75.012412
12893,NaN,-3.980453,7.677137,-0.269748,-0.150775,0.431321,-1.172912,0.174155,1.076234,0.820754,0.447906,0.649926,-0.311441,-0.529131,92.436672,24.129469,-74.359191
12894,NaN,-4.208936,7.744553,-0.067145,-0.470970,0.609906,-1.031842,0.195217,0.952425,0.836083,0.450893,0.651598,-0.312540,-0.523865,92.785508,23.631643,-73.788719
12895,NaN,-4.325224,7.741993,0.088342,-0.722849,0.729940,-1.003727,0.219005,0.854419,0.858193,0.453701,0.652993,-0.313987,-0.518814,93.114999,23.119558,-73.286523
12896,NaN,-4.364481,7.758082,0.287169,-0.995092,0.762835,-0.995309,0.223739,0.811304,0.878785,0.456451,0.654244,-0.315594,-0.513827,93.432066,22.595926,-72.815838
12897,NaN,-4.205861,7.687212,0.414721,-1.149060,0.673401,-1.142050,0.181719,0.905547,0.907181,0.459553,0.655558,-0.316963,-0.508517,93.739060,22.049074,-72.293944
12898,NaN,-3.611365,7.669434,0.578944,-1.210161,0.162854,-1.404019,0.092630,1.268260,0.886943,0.463437,0.657601,-0.317186,-0.502176,94.073309,21.498182,-71.552223
12899,NaN,-2.896748,7.827207,1.005078,-1.464812,-0.608319,-1.557365,-0.123290,2.024640,0.847223,0.469100,0.661033,-0.314957,-0.493743,94.441281,20.932500,-70.352603
12900,NaN,-2.761712,8.032148,1.379896,-1.829290,-0.898293,-1.452483,-0.348219,3.017787,0.760733,0.476760,0.666419,-0.309498,-0.482490,94.883337,20.363119,-68.550397
12901,NaN,-2.954948,8.195817,1.603257,-2.158952,-0.878318,-1.266309,-0.595118,4.114222,0.634061,0.486483,0.673815,-0.300304,-0.468109,95.392040,19.794783,-66.087921
12902,NaN,-3.400141,8.282172,1.827275,-2.599616,-0.675283,-1.078903,-0.858112,5.232634,0.408364,0.497950,0.683155,-0.286839,-0.450631,95.956262,19.271058,-62.948332
12903,NaN,-4.318429,8.291462,1.801326,-3.062692,-0.028047,-0.798391,-1.039063,6.144566,0.117995,0.510286,0.693927,-0.269466,-0.430652,96.569807,18.824630,-59.256430
12904,NaN,-6.059971,8.415410,1.936959,-4.166278,1.061623,-0.179415,-1.130497,6.582022,-0.119631,0.522471,0.705021,-0.249675,-0.409429,97.193302,18.446357,-55.297820
12905,NaN,-7.634445,8.903465,2.119246,-5.339765,1.716922,0.702616,-1.127578,6.453496,-0.268041,0.533624,0.715257,-0.229426,-0.388608,97.768044,18.122820,-51.418207
12906,NaN,-9.247059,9.532447,2.491046,-6.755893,2.107494,1.697284,-1.253287,5.819344,-0.426836,0.543653,0.723423,-0.209834,-0.370229,98.140705,17.909264,-47.911386
12907,NaN,-10.241032,10.035621,2.261334,-7.347170,2.389828,2.475474,-1.309137,4.969384,-0.582352,0.552296,0.729448,-0.191713,-0.355134,98.317107,17.838765,-44.902840
12908,NaN,-9.520351,9.872710,0.462642,-5.719228,2.829813,2.336235,-1.208787,4.293442,-0.584651,0.559584,0.734142,-0.175524,-0.342189,98.428621,17.817686,-42.296248
12909,NaN,-8.463895,9.797973,-1.435214,-3.796058,3.288250,2.206929,-0.849876,3.466106,-0.599379,0.564582,0.738116,-0.162121,-0.331888,98.592451,17.871397,-40.181935
12910,NaN,-8.437274,10.367225,-2.716197,-2.941173,3.891028,2.925161,-0.692377,2.275748,-0.591050,0.567901,0.740393,-0.152346,-0.325725,98.635355,18.016664,-38.774642
12911,NaN,-8.381849,11.201392,-3.507346,-2.290581,4.124436,3.817068,-0.658778,0.980528,-0.504474,0.570206,0.740505,-0.146590,-0.324082,98.456139,18.227767,-38.147123
12912,NaN,-7.705739,11.778821,-4.018984,-1.309437,3.937646,4.224786,-0.646741,-0.190531,-0.386312,0.571773,0.738662,-0.144645,-0.326392,98.065966,18.468215,-38.228613
12913,NaN,-6.793163,11.777449,-3.967789,-0.536406,3.412883,3.922703,-0.634242,-1.045278,-0.297310,0.572813,0.735361,-0.145466,-0.331616,97.513289,18.727388,-38.832440
12914,NaN,-6.326528,11.561684,-3.504692,-0.366645,2.925553,3.502114,-0.546008,-1.747589,-0.218909,0.573105,0.731060,-0.148746,-0.339083,96.872160,18.982901,-39.866882
12915,NaN,-6.528827,11.164684,-2.784406,-0.876641,2.722730,3.104089,-0.399917,-2.365467,-0.108785,0.572528,0.725951,-0.154406,-0.348375,96.182030,19.208280,-41.286450
12916,NaN,-6.688854,10.452935,-1.989465,-1.465948,2.566787,2.402912,-0.216032,-2.948803,0.001673,0.570919,0.720147,-0.162453,-0.359233,95.475232,19.384586,-43.068849
12917,NaN,-6.315264,9.512485,-1.417572,-1.587752,2.322173,1.343563,0.008079,-3.454830,0.083979,0.568094,0.713810,-0.172574,-0.371432,94.784517,19.523167,-45.166572
12918,NaN,-5.665174,8.586705,-1.138709,-1.347033,2.086599,0.234735,0.250258,-3.830033,0.125384,0.563966,0.707200,-0.184327,-0.384491,94.153350,19.628182,-47.496100
12919,NaN,-4.923210,7.859684,-1.075449,-0.893596,1.837628,-0.702713,0.495569,-4.016137,0.124263,0.558581,0.700638,-0.196973,-0.397864,93.616915,19.722621,-49.941772
12920,NaN,-4.099237,7.400009,-1.084347,-0.338123,1.444172,-1.413963,0.728906,-4.038098,0.082371,0.552037,0.694445,-0.209943,-0.411005,93.208779,19.818861,-52.400692
12921,NaN,-3.376381,7.259398,-1.262707,0.294865,1.070869,-1.784054,0.925594,-3.938349,0.012496,0.544546,0.688771,-0.222683,-0.423646,92.926165,19.941927,-54.799705
12922,NaN,-2.848229,7.441046,-1.509192,0.883113,0.725947,-1.784491,1.061346,-3.729311,-0.071640,0.536424,0.683744,-0.234794,-0.435448,92.762906,20.094569,-57.070630
12923,NaN,-2.518371,7.720526,-1.709367,1.309944,0.430949,-1.629258,1.142001,-3.427196,-0.156277,0.528012,0.679437,-0.245869,-0.446225,92.699358,20.286796,-59.158524
12924,NaN,-2.298771,8.170775,-1.720270,1.512995,0.041860,-1.285449,1.163084,-3.085337,-0.235556,0.519609,0.675853,-0.255775,-0.455860,92.716896,20.510736,-61.037431
12925,NaN,-2.341101,8.623994,-1.722392,1.564108,-0.154583,-0.848886,1.144754,-2.715627,-0.293035,0.511485,0.672958,-0.264394,-0.464335,92.792364,20.762120,-62.692151
12926,NaN,-2.522654,9.057393,-1.718570,1.535583,-0.236386,-0.381931,1.054390,-2.330853,-0.326632,0.503993,0.670650,-0.271682,-0.471602,92.896324,21.020907,-64.111671
12927,NaN,-2.613377,9.249849,-1.683160,1.485847,-0.322335,-0.173686,0.918236,-1.921352,-0.334399,0.497428,0.668869,-0.277526,-0.477660,93.002790,21.277492,-65.282553
12928,NaN,-2.702317,9.380043,-1.726229,1.500320,-0.348889,-0.020113,0.751863,-1.515208,-0.333218,0.491933,0.667589,-0.281967,-0.482515,93.103239,21.519978,-66.204486
12929,NaN,-2.750087,9.337462,-1.801089,1.546526,-0.329019,-0.040543,0.556036,-1.117428,-0.331028,0.487634,0.666734,-0.284923,-0.486310,93.174293,21.752759,-66.883705
12930,NaN,-2.874950,9.123280,-1.894018,1.571133,-0.164149,-0.190251,0.345887,-0.757666,-0.324542,0.484544,0.666222,-0.286529,-0.489149,93.208117,21.968185,-67.341313
12931,NaN,-3.091470,8.792266,-1.955631,1.532638,0.122190,-0.414731,0.140279,-0.448638,-0.317335,0.482597,0.665937,-0.286879,-0.491252,93.190620,22.172228,-67.609939
12932,NaN,-3.191927,8.387005,-2.020595,1.537233,0.348692,-0.750221,-0.022619,-0.178489,-0.326661,0.481550,0.665942,-0.286168,-0.492686,93.145449,22.370354,-67.710854
12933,NaN,-3.245031,8.029139,-1.964917,1.452271,0.481621,-1.065283,-0.143422,0.057702,-0.331240,0.481233,0.666233,-0.284552,-0.493537,93.083469,22.566142,-67.666555
12934,NaN,-3.363557,7.814064,-1.907919,1.355205,0.622207,-1.222607,-0.242398,0.245863,-0.346470,0.481470,0.666778,-0.282209,-0.493914,93.013087,22.762477,-67.504441
12935,NaN,-3.590697,7.554776,-1.760469,1.130402,0.841374,-1.381719,-0.314308,0.372593,-0.360093,0.482091,0.667469,-0.279315,-0.494021,92.929913,22.965516,-67.263979
12936,NaN,-3.822407,7.315530,-1.566052,0.859211,1.039401,-1.520423,-0.342895,0.431744,-0.367362,0.482865,0.668249,-0.276202,-0.493961,92.848511,23.168853,-66.985711
12937,NaN,-4.098957,7.159647,-1.287714,0.500149,1.208973,-1.565968,-0.316451,0.425684,-0.377736,0.483512,0.669078,-0.273109,-0.493926,92.779259,23.381171,-66.711407
12938,NaN,-4.433147,7.085229,-1.059350,0.171956,1.409329,-1.508493,-0.244322,0.348895,-0.386555,0.483786,0.669904,-0.270370,-0.494045,92.735994,23.598363,-66.483886
12939,NaN,-4.658865,7.184210,-0.896405,-0.037874,1.471067,-1.330006,-0.143411,0.227940,-0.383765,0.483562,0.670661,-0.268158,-0.494443,92.718547,23.820040,-66.332365
12940,NaN,-4.792298,7.326694,-0.777255,-0.168452,1.450991,-1.145690,-0.041757,0.074155,-0.400367,0.482747,0.671309,-0.266534,-0.495237,92.723591,24.052742,-66.275837
12941,NaN,-4.858989,7.437294,-0.814556,-0.131728,1.443901,-1.010171,0.060072,-0.102765,-0.402721,0.481345,0.671759,-0.265557,-0.496514,92.739455,24.294449,-66.330581
12942,NaN,-4.704008,7.544331,-0.925272,0.054733,1.278538,-0.966051,0.140506,-0.237804,-0.421459,0.479446,0.672094,-0.265064,-0.498159,92.768713,24.547781,-66.469128
12943,NaN,-4.417332,7.656976,-1.091709,0.342078,1.018033,-0.970721,0.196459,-0.328733,-0.441895,0.477182,0.672354,-0.264833,-0.500101,92.803431,24.818379,-66.664915
12944,NaN,-4.151473,7.725620,-1.112399,0.479776,0.733608,-1.015596,0.235812,-0.365440,-0.466180,0.474673,0.672646,-0.264728,-0.502147,92.852603,25.101073,-66.882872
12945,NaN,-4.042112,7.743726,-1.088419,0.512285,0.579963,-1.044014,0.264770,-0.381132,-0.488284,0.471983,0.672985,-0.264631,-0.504275,92.911107,25.400066,-67.110703
12946,NaN,-4.078790,7.797474,-1.090847,0.520223,0.540705,-0.977311,0.295934,-0.407424,-0.501320,0.469117,0.673344,-0.264653,-0.506454,92.981516,25.704512,-67.354559
12947,NaN,-4.021088,7.878947,-1.009211,0.485972,0.378415,-0.930916,0.308677,-0.432245,-0.510083,0.466144,0.673669,-0.264707,-0.508734,93.049040,26.017995,-67.614530
12948,NaN,-3.908200,8.019994,-0.935488,0.482817,0.147371,-0.856437,0.325824,-0.444675,-0.503772,0.463109,0.673988,-0.264876,-0.510990,93.123565,26.325530,-67.882501
12949,NaN,-3.881018,8.091155,-0.868315,0.446381,0.019455,-0.808065,0.337263,-0.448305,-0.490193,0.460055,0.674293,-0.265100,-0.513225,93.199911,26.628703,-68.153920
12950,NaN,-3.951452,8.232432,-0.834129,0.414387,-0.045037,-0.652516,0.334390,-0.453701,-0.464273,0.457067,0.674537,-0.265437,-0.515395,93.273360,26.914565,-68.429600
12951,NaN,-3.966117,8.292890,-0.732127,0.327244,-0.141822,-0.597985,0.344974,-0.472580,-0.426789,0.454106,0.674695,-0.265944,-0.517541,93.343352,27.182829,-68.719476
12952,NaN,-4.062207,8.414263,-0.631875,0.219812,-0.193067,-0.452405,0.356441,-0.502048,-0.369550,0.451211,0.674720,-0.266760,-0.519616,93.411016,27.416747,-69.030384
12953,NaN,-4.151664,8.406867,-0.531382,0.098971,-0.186376,-0.423892,0.369850,-0.538143,-0.299406,0.448397,0.674575,-0.267903,-0.521647,93.471107,27.614932,-69.368027
12954,NaN,-4.180563,8.471017,-0.515718,0.082507,-0.227354,-0.355275,0.388982,-0.576700,-0.226862,0.445653,0.674270,-0.269446,-0.523595,93.530245,27.770455,-69.733330
12955,NaN,-4.307419,8.642178,-0.379357,-0.069553,-0.267877,-0.153061,0.415170,-0.619758,-0.142382,0.442974,0.673784,-0.271413,-0.525476,93.586838,27.882285,-70.130600
12956,NaN,-4.468885,8.857688,-0.229790,-0.242846,-0.295402,0.103770,0.433895,-0.687970,-0.072609,0.440319,0.673057,-0.273832,-0.527379,93.633576,27.954235,-70.574630
12957,NaN,-4.543901,9.112769,-0.208222,-0.265375,-0.366195,0.362204,0.439056,-0.764191,-0.003018,0.437715,0.672030,-0.276640,-0.529388,93.656164,27.992088,-71.071559
12958,NaN,-4.493734,9.280798,-0.251510,-0.198821,-0.475096,0.489005,0.427939,-0.821121,0.054092,0.435214,0.670738,-0.279752,-0.531448,93.655918,27.996770,-71.607303
12959,NaN,-4.342813,9.509888,-0.168110,-0.220511,-0.728390,0.615499,0.414769,-0.864840,0.098747,0.432803,0.669220,-0.283045,-0.533583,93.631796,27.979990,-72.173731
12960,NaN,-4.290743,9.783327,-0.139784,-0.216110,-0.898636,0.831054,0.404637,-0.885128,0.131991,0.430478,0.667567,-0.286482,-0.535697,93.597628,27.942098,-72.753936
12961,NaN,-4.257634,10.013082,-0.090768,-0.240657,-1.034515,1.016409,0.370198,-0.896960,0.153631,0.428297,0.665755,-0.289896,-0.537859,93.537894,27.894261,-73.343039
12962,NaN,-4.143090,10.216669,-0.071168,-0.218637,-1.215563,1.142912,0.338773,-0.897697,0.173384,0.426264,0.663835,-0.293306,-0.539995,93.462585,27.832113,-73.932401
12963,NaN,-3.986898,10.462869,-0.144771,-0.093911,-1.426886,1.293306,0.304515,-0.878592,0.187247,0.424400,0.661851,-0.296603,-0.542093,93.371512,27.762860,-74.510201
12964,NaN,-3.851829,10.717324,-0.224517,0.030706,-1.621740,1.461930,0.250199,-0.820653,0.201239,0.422830,0.659880,-0.299690,-0.544021,93.269873,27.680589,-75.049835
12965,NaN,-3.671476,10.847653,-0.237587,0.095112,-1.812240,1.497239,0.155675,-0.744688,0.211975,0.421709,0.657881,-0.302370,-0.545826,93.135112,27.590746,-75.540979
12966,NaN,-3.558443,10.823893,-0.329060,0.214325,-1.854190,1.432020,0.063361,-0.628093,0.220272,0.421084,0.655992,-0.304595,-0.547344,92.985696,27.489526,-75.955698
12967,NaN,-3.373221,10.772979,-0.426024,0.356895,-1.943382,1.309948,-0.022358,-0.499439,0.240921,0.420991,0.654228,-0.306362,-0.548539,92.823507,27.373459,-76.288289
12968,NaN,-3.181969,10.905792,-0.578438,0.566800,-2.107855,1.351157,-0.089817,-0.337518,0.260985,0.421416,0.652740,-0.307683,-0.549245,92.673795,27.238957,-76.515613
12969,NaN,-2.920014,11.250352,-0.776355,0.849194,-2.416849,1.551169,-0.154181,-0.149037,0.292732,0.422431,0.651574,-0.308519,-0.549382,92.540372,27.082277,-76.622854
12970,NaN,-2.899965,11.745016,-0.900694,1.020003,-2.591885,1.994428,-0.243738,0.077150,0.339128,0.424209,0.650774,-0.308795,-0.548804,92.424100,26.891817,-76.584631
12971,NaN,-3.022586,11.960307,-0.959799,1.085763,-2.519188,2.252994,-0.376855,0.310942,0.391432,0.426926,0.650239,-0.308366,-0.547571,92.296030,26.667026,-76.398424
12972,NaN,-3.231533,11.710756,-0.836464,0.930256,-2.192833,2.129253,-0.518015,0.542844,0.438079,0.430577,0.649966,-0.307215,-0.545679,92.154755,26.409706,-76.063836
12973,NaN,-3.489027,11.161238,-0.562660,0.597149,-1.722392,1.751890,-0.609098,0.720632,0.480094,0.434907,0.649893,-0.305552,-0.543260,92.007264,26.126132,-75.617708
12974,NaN,-3.799599,10.470677,-0.228236,0.175109,-1.163527,1.266087,-0.663253,0.827496,0.515514,0.439654,0.649929,-0.303626,-0.540470,91.858419,25.820501,-75.103638
12975,NaN,-3.958835,9.751061,-0.071521,-0.052038,-0.690981,0.688749,-0.682573,0.863392,0.529321,0.444546,0.649964,-0.301594,-0.537556,91.703225,25.508137,-74.568420
12976,NaN,-3.853720,9.108240,-0.017653,-0.119888,-0.465728,0.065569,-0.659061,0.863393,0.521761,0.449319,0.650051,-0.299598,-0.534591,91.561089,25.200771,-74.032606
12977,NaN,-3.492830,8.788860,-0.115494,0.046108,-0.567541,-0.371670,-0.598472,0.837424,0.488505,0.453759,0.650221,-0.297696,-0.531688,91.441867,24.914500,-73.514127
12978,NaN,-3.272986,8.721841,-0.300699,0.282910,-0.631741,-0.517848,-0.544211,0.794261,0.440035,0.457809,0.650463,-0.295878,-0.528927,91.342510,24.656940,-73.021745
12979,NaN,-3.094941,8.727983,-0.520762,0.550870,-0.682217,-0.579134,-0.511990,0.728474,0.369699,0.461467,0.650683,-0.294052,-0.526492,91.240484,24.441809,-72.571145
12980,NaN,-2.896135,8.930571,-0.682866,0.791164,-0.849242,-0.471290,-0.462068,0.663625,0.299800,0.464666,0.650946,-0.292281,-0.524334,91.151409,24.267675,-72.159788
12981,NaN,-2.812752,9.314043,-0.821450,0.999269,-0.997266,-0.151189,-0.425546,0.615360,0.239207,0.467516,0.651236,-0.290509,-0.522422,91.067810,24.129763,-71.779117
12982,NaN,-2.871799,9.671189,-0.894742,1.104238,-1.032373,0.202025,-0.417155,0.593229,0.197675,0.470185,0.651549,-0.288678,-0.520649,90.984934,24.015966,-71.411128
12983,NaN,-3.045192,9.905114,-0.872412,1.073448,-0.949887,0.487356,-0.424976,0.578966,0.189510,0.472838,0.651798,-0.286824,-0.518955,90.891181,23.907765,-71.052991
12984,NaN,-3.276698,9.995936,-0.792271,0.953842,-0.779089,0.664253,-0.435793,0.569793,0.203698,0.475537,0.651980,-0.285012,-0.517257,90.790263,23.791803,-70.699972
12985,NaN,-3.498844,9.891261,-0.688969,0.790677,-0.546919,0.657710,-0.450101,0.550995,0.237410,0.478343,0.652012,-0.283309,-0.515562,90.673582,23.657419,-70.359929
12986,NaN,-3.478066,9.574701,-0.622435,0.708400,-0.429660,0.359465,-0.465994,0.540694,0.276517,0.481274,0.651925,-0.281718,-0.513813,90.546275,23.501217,-70.025809
12987,NaN,-3.304520,9.175831,-0.640626,0.742395,-0.383168,-0.074720,-0.490598,0.550085,0.307344,0.484377,0.651740,-0.280133,-0.511995,90.404368,23.328098,-69.686814
12988,NaN,-2.954348,8.649729,-0.710686,0.864314,-0.423268,-0.695413,-0.518835,0.571575,0.323476,0.487628,0.651519,-0.278476,-0.510091,90.252473,23.146395,-69.333639
12989,NaN,-2.455159,8.093717,-0.862357,1.107974,-0.554381,-1.401705,-0.550662,0.665336,0.287955,0.491021,0.651487,-0.276385,-0.508010,90.102526,22.985739,-68.922710
12990,NaN,-1.709347,7.805916,-0.894930,1.362429,-1.041317,-1.956837,-0.620673,0.977000,0.215017,0.494868,0.652167,-0.273109,-0.505169,89.988852,22.867597,-68.317112
12991,NaN,-1.480666,7.640483,-0.621334,1.183341,-1.245008,-2.196590,-0.714525,1.437085,0.146230,0.499457,0.653830,-0.268218,-0.501108,89.929670,22.789784,-67.426516
12992,NaN,-1.870397,7.204645,-0.344770,0.743204,-0.839497,-2.446073,-0.767759,1.841455,0.059604,0.504498,0.656445,-0.261881,-0.495965,89.938010,22.762348,-66.284267
12993,NaN,-2.266204,6.883852,-0.266174,0.482769,-0.412971,-2.588399,-0.750972,2.094760,-0.045963,0.509504,0.659786,-0.254570,-0.490185,90.015378,22.794446,-64.985381
12994,NaN,-2.345026,6.860074,-0.245796,0.429884,-0.348213,-2.579837,-0.723096,2.255792,-0.118828,0.514372,0.663609,-0.246644,-0.483955,90.150459,22.866165,-63.585020
12995,NaN,-2.172389,6.925141,-0.381292,0.632539,-0.458017,-2.586876,-0.734349,2.392011,-0.185153,0.519214,0.667706,-0.238083,-0.477390,90.313056,22.971997,-62.099388
12996,NaN,-1.978192,6.940493,-0.558377,0.878115,-0.544510,-2.648339,-0.764083,2.602820,-0.309093,0.524015,0.672272,-0.228450,-0.470392,90.515843,23.143828,-60.479293
12997,NaN,-2.289203,6.936091,-0.490659,0.678218,-0.339470,-2.531526,-0.781930,2.850377,-0.383224,0.528885,0.677312,-0.217831,-0.462686,90.774174,23.350294,-58.702035
12998,NaN,-3.099038,6.953059,-0.399550,0.204095,0.216191,-2.195590,-0.785620,2.981932,-0.388169,0.533770,0.682505,-0.206788,-0.454440,91.071898,23.550695,-56.838024
12999,NaN,-3.745296,7.000085,-0.340325,-0.189440,0.622888,-1.893086,-0.748196,2.858869,-0.358887,0.538349,0.687322,-0.196211,-0.446397,91.365737,23.726795,-55.048326
13000,NaN,-4.000526,7.271981,-0.444195,-0.216110,0.735214,-1.536473,-0.696740,2.598350,-0.299756,0.542514,0.691507,-0.186614,-0.438944,91.630045,23.865125,-53.418853
13001,NaN,-3.994281,7.721522,-0.534590,-0.074434,0.593601,-1.123389,-0.654877,2.312081,-0.213945,0.546372,0.694977,-0.178150,-0.432143,91.847350,23.952984,-51.969018
13002,NaN,-4.286328,8.203638,-0.602937,-0.105348,0.657049,-0.561043,-0.637932,1.983187,-0.094275,0.550061,0.697596,-0.171015,-0.426083,91.992672,23.974461,-50.726174
13003,NaN,-4.747648,8.419261,-0.590707,-0.358245,0.892874,-0.176949,-0.637288,1.551049,0.045221,0.553633,0.699107,-0.165540,-0.421114,92.025516,23.923065,-49.757935
13004,NaN,-4.934090,8.558342,-0.664351,-0.399242,1.031611,0.026426,-0.606228,1.048861,0.183380,0.556936,0.699502,-0.161996,-0.417463,91.947509,23.802789,-49.107083
13005,NaN,-4.721642,8.699843,-0.770544,-0.168508,0.936880,0.070056,-0.564356,0.572953,0.314137,0.559970,0.698889,-0.160316,-0.415074,91.769668,23.618049,-48.757626
13006,NaN,-4.165852,8.772076,-0.836595,0.230920,0.622737,-0.088382,-0.536857,0.238862,0.424584,0.562856,0.697567,-0.160013,-0.413508,91.523773,23.376501,-48.618006
13007,NaN,-3.764301,8.793967,-0.896274,0.525426,0.440080,-0.229526,-0.500239,-0.030880,0.511740,0.565575,0.695706,-0.160844,-0.412610,91.230603,23.089667,-48.647419
13008,NaN,-3.745276,8.705268,-0.767250,0.419345,0.439127,-0.324362,-0.461874,-0.236445,0.576382,0.568117,0.693474,-0.162562,-0.412201,90.911324,22.767548,-48.803170
13009,NaN,-3.711013,8.516148,-0.553221,0.233559,0.405759,-0.518454,-0.415909,-0.388071,0.625951,0.570474,0.691003,-0.164971,-0.412139,90.582729,22.417670,-49.051533
13010,NaN,-3.560006,8.287681,-0.355901,0.118402,0.312529,-0.791944,-0.342958,-0.466065,0.663064,0.572576,0.688542,-0.167881,-0.412167,90.281177,22.045300,-49.345135
13011,NaN,-3.341477,8.183320,-0.185316,0.089150,0.148761,-0.973228,-0.274639,-0.474159,0.675410,0.574455,0.686231,-0.170992,-0.412128,90.018679,21.664854,-49.641431
13012,NaN,-3.120678,8.128730,-0.074639,0.111795,0.001982,-1.105932,-0.210048,-0.379047,0.687945,0.576206,0.684285,-0.174005,-0.411659,89.818404,21.275878,-49.876279
13013,NaN,-2.926658,8.063416,0.005391,0.132581,-0.110321,-1.236326,-0.174280,-0.202969,0.674497,0.577955,0.682800,-0.176533,-0.410595,89.678636,20.894713,-50.001598
13014,NaN,-2.869125,8.012754,0.041092,0.102261,-0.108604,-1.302971,-0.128292,0.027759,0.668275,0.579728,0.681925,-0.178469,-0.408710,89.617324,20.517412,-49.984176
13015,NaN,-2.973045,7.956874,0.101876,-0.052231,-0.013446,-1.318098,-0.102212,0.271071,0.659789,0.581608,0.681616,-0.179718,-0.405996,89.621553,20.146194,-49.818359
13016,NaN,-3.136279,7.889738,0.230559,-0.303975,0.075587,-1.325108,-0.071696,0.493748,0.657268,0.583567,0.681846,-0.180374,-0.402493,89.689368,19.776802,-49.517061
13017,NaN,-3.323709,7.925182,0.286210,-0.499969,0.195566,-1.230790,-0.031264,0.681864,0.669264,0.585574,0.682544,-0.180596,-0.398275,89.815420,19.400835,-49.103078
13018,NaN,-3.730533,8.036779,0.329586,-0.815802,0.454954,-0.995520,0.011698,0.778629,0.691975,0.587549,0.683527,-0.180697,-0.393606,89.983132,19.010641,-48.631977
13019,NaN,-4.125909,8.316194,0.329403,-1.068409,0.690310,-0.610937,0.041699,0.823252,0.731231,0.589526,0.684627,-0.180851,-0.388636,90.171812,18.596949,-48.136680
13020,NaN,-4.236155,8.684544,0.425137,-1.205921,0.638202,-0.237461,0.074747,0.837185,0.750337,0.591418,0.685818,-0.181091,-0.383515,90.378769,18.170243,-47.635398
13021,NaN,-4.243482,9.076355,0.500940,-1.266493,0.521821,0.125188,0.116225,0.855039,0.773367,0.593213,0.687118,-0.181427,-0.378221,90.607207,17.729032,-47.126765
13022,NaN,-4.404969,9.337309,0.740251,-1.581030,0.431188,0.407430,0.151449,0.870538,0.774641,0.594880,0.688533,-0.181787,-0.372820,90.854963,17.284388,-46.611687
13023,NaN,-4.668376,9.490978,0.873298,-1.911578,0.500843,0.614648,0.209723,0.888636,0.742770,0.596286,0.690155,-0.182079,-0.367392,91.133546,16.856333,-46.089105
13024,NaN,-5.102860,9.672954,1.045900,-2.388397,0.644006,0.891472,0.309591,0.874686,0.725413,0.597279,0.692046,-0.182536,-0.361953,91.463409,16.434991,-45.577874
13025,NaN,-5.720447,10.141436,1.074907,-2.847601,0.939045,1.489342,0.417344,0.788640,0.724974,0.597803,0.694076,-0.183430,-0.356712,91.834772,16.013346,-45.122063
13026,NaN,-6.167029,10.686563,1.102381,-3.199166,1.100207,2.103833,0.502434,0.672003,0.809781,0.598053,0.696056,-0.185120,-0.351524,92.232263,15.541569,-44.741119
13027,NaN,-6.653273,11.298901,1.012262,-3.501525,1.362928,2.790326,0.578356,0.418005,0.823842,0.597813,0.697776,-0.187735,-0.347107,92.627828,15.066772,-44.515819
13028,NaN,-6.895019,11.858551,0.761901,-3.541729,1.596110,3.365091,0.651784,0.090795,0.845512,0.597027,0.699113,-0.191537,-0.343677,93.014313,14.585944,-44.488446
13029,NaN,-7.265800,12.347831,0.747934,-3.852531,1.782600,3.891281,0.706160,-0.260275,0.866371,0.595735,0.699962,-0.196534,-0.341363,93.377827,14.106055,-44.672600
13030,NaN,-7.692035,12.434119,0.739444,-4.253694,2.112277,4.035208,0.710179,-0.625717,0.879815,0.594067,0.700165,-0.202679,-0.340257,93.694356,13.630637,-45.074825
13031,NaN,-7.726446,12.064481,0.668938,-4.373337,2.339380,3.644536,0.666312,-0.975307,0.883880,0.592180,0.699600,-0.209775,-0.340408,93.939167,13.170460,-45.684430
13032,NaN,-7.331225,11.575962,0.685933,-4.246572,2.249206,3.037474,0.654627,-1.303923,0.828916,0.589856,0.698460,-0.217636,-0.341845,94.140683,12.754956,-46.485061
13033,NaN,-6.923659,11.110569,0.685730,-4.067565,2.159735,2.460918,0.622841,-1.602100,0.729449,0.587105,0.696764,-0.225937,-0.344645,94.290013,12.414066,-47.456195
13034,NaN,-6.433441,10.448587,0.507500,-3.689655,2.164246,1.699103,0.550706,-1.857377,0.584215,0.584008,0.694520,-0.234356,-0.348789,94.374565,12.166303,-48.569662
13035,NaN,-5.699862,9.778465,0.151319,-2.989618,2.085081,0.903830,0.504702,-2.044652,0.407520,0.580482,0.691941,-0.242579,-0.354138,94.412934,12.032129,-49.784160
13036,NaN,-4.845872,9.588119,-0.260788,-2.117258,1.809904,0.566314,0.488331,-2.174379,0.198424,0.576413,0.689260,-0.250420,-0.360497,94.431959,12.020476,-51.064645
13037,NaN,-4.061804,9.789211,-0.762365,-1.183859,1.508544,0.638660,0.464421,-2.271860,-0.007623,0.571861,0.686497,-0.257730,-0.367793,94.423628,12.134480,-52.393058
13038,NaN,-3.259034,10.313455,-1.321103,-0.169324,1.102565,1.026562,0.373690,-2.268713,-0.202686,0.567185,0.683645,-0.264187,-0.375679,94.364090,12.355496,-53.711717
13039,NaN,-2.771791,10.868026,-1.618506,0.456580,0.738613,1.486065,0.203783,-2.144553,-0.337480,0.562933,0.680630,-0.269451,-0.383725,94.215414,12.649427,-54.953567
13040,NaN,-2.928404,11.238146,-1.659229,0.512379,0.763624,1.882521,-0.015648,-2.003057,-0.491021,0.559257,0.677404,-0.273370,-0.391949,93.955907,13.017451,-56.108657
13041,NaN,-3.219981,11.309156,-1.366437,0.226212,0.789551,1.996485,-0.266379,-1.883516,-0.538838,0.556445,0.673702,-0.276246,-0.400229,93.558221,13.405332,-57.195694
13042,NaN,-3.949756,10.996568,-1.115016,-0.260343,1.309012,1.848587,-0.431099,-1.877502,-0.507076,0.554202,0.669448,-0.278883,-0.408563,93.061403,13.763100,-58.284931
13043,NaN,-4.124295,10.846627,-0.759928,-0.514677,1.301464,1.731831,-0.519823,-1.887640,-0.578248,0.552043,0.664953,-0.281072,-0.417235,92.501922,14.155566,-59.383308
13044,NaN,-4.118518,10.499092,-0.496620,-0.614090,1.249961,1.389911,-0.610463,-1.888210,-0.522175,0.550241,0.660063,-0.283258,-0.425813,91.884517,14.501513,-60.489040
13045,NaN,-4.115239,10.159875,-0.321447,-0.641250,1.253126,1.062881,-0.653352,-1.889655,-0.515536,0.548536,0.654967,-0.285320,-0.434417,91.231702,14.835287,-61.601451
13046,NaN,-4.416867,10.104929,0.169347,-1.060655,1.313494,1.086601,-0.688712,-1.981746,-0.451193,0.546893,0.649415,-0.287766,-0.443124,90.539985,15.116864,-62.774458
13047,NaN,-4.956228,9.915613,0.372539,-1.336257,1.766879,1.055264,-0.607357,-2.245663,-0.362261,0.544735,0.643284,-0.291335,-0.452297,89.844446,15.337808,-64.109347
13048,NaN,-4.588262,9.757626,0.252839,-0.927951,1.580331,0.815882,-0.493873,-2.510159,-0.359662,0.541748,0.636768,-0.295876,-0.462053,89.169294,15.536988,-65.605226
13049,NaN,-3.634182,9.488083,-0.215491,-0.004223,1.026239,0.297832,-0.412438,-2.585959,-0.418464,0.538163,0.630268,-0.300540,-0.472036,88.518961,15.755909,-67.150897
13050,NaN,-2.546528,9.155152,-0.663607,0.894855,0.306248,-0.333955,-0.323560,-2.264971,-0.603546,0.534256,0.624950,-0.303951,-0.481271,87.966184,16.067207,-68.512903
13051,NaN,-1.618695,8.909009,-0.572566,1.199678,-0.543045,-0.835858,-0.342754,-1.641150,-0.822451,0.530772,0.621336,-0.304899,-0.489141,87.491923,16.509747,-69.513672
13052,NaN,-1.677488,8.692264,-0.366574,1.037334,-0.573311,-1.032132,-0.372542,-0.968201,-0.997625,0.527938,0.619518,-0.303455,-0.495372,87.108580,17.059988,-70.122853
13053,NaN,-2.041134,8.425036,-0.187831,0.788184,-0.317200,-1.183674,-0.358075,-0.465627,-1.186580,0.525331,0.619234,-0.300089,-0.500522,86.810753,17.733432,-70.442439
13054,NaN,-2.453655,8.400800,-0.242877,0.776727,-0.013600,-1.092132,-0.337478,-0.201569,-1.357174,0.522602,0.619898,-0.295570,-0.505225,86.570267,18.508451,-70.613344
13055,NaN,-2.710764,8.457226,-0.373265,0.900322,0.138810,-0.970692,-0.330336,-0.092900,-1.475695,0.519686,0.620990,-0.290371,-0.509885,86.346945,19.357633,-70.727488
13056,NaN,-2.450804,8.427766,-0.584312,1.248379,-0.127824,-1.106448,-0.344055,-0.040177,-1.598850,0.516540,0.622326,-0.284630,-0.514667,86.125074,20.275580,-70.818253
13057,NaN,-2.116711,8.359515,-0.903489,1.714279,-0.416956,-1.323650,-0.355349,0.059682,-1.732807,0.513190,0.624029,-0.278135,-0.519485,85.910355,21.276862,-70.858416
13058,NaN,-2.174017,8.369935,-1.023322,1.888150,-0.460487,-1.324455,-0.387061,0.217988,-1.844003,0.509825,0.626170,-0.270811,-0.524071,85.712651,22.345042,-70.809868
13059,NaN,-2.548537,8.317794,-1.061545,1.880533,-0.242010,-1.256381,-0.444107,0.352182,-1.923571,0.506564,0.628559,-0.262692,-0.528488,85.509748,23.467694,-70.686051
13060,NaN,-2.842730,8.205954,-0.953726,1.750632,-0.128985,-1.254371,-0.496917,0.437166,-1.931704,0.503506,0.630990,-0.254193,-0.532653,85.301808,24.596313,-70.512336
13061,NaN,-2.951339,8.006252,-0.956154,1.760573,-0.100862,-1.409545,-0.545466,0.473505,-1.898008,0.500684,0.633282,-0.245527,-0.536644,85.075659,25.710909,-70.317599
13062,NaN,-2.952057,7.826177,-0.977952,1.821812,-0.154233,-1.592261,-0.567240,0.478222,-1.832109,0.498063,0.635392,-0.237001,-0.540408,84.844613,26.785951,-70.118778
13063,NaN,-3.017985,7.693489,-0.938830,1.814767,-0.182687,-1.697825,-0.589805,0.465598,-1.740128,0.495699,0.637238,-0.228690,-0.543976,84.598794,27.811363,-69.926328
13064,NaN,-3.111455,7.529576,-0.916264,1.803017,-0.158083,-1.816569,-0.608835,0.436536,-1.629924,0.493622,0.638783,-0.220756,-0.547322,84.340219,28.770287,-69.748599
13065,NaN,-3.197951,7.382578,-0.841557,1.745529,-0.155023,-1.915507,-0.605801,0.395289,-1.500035,0.491805,0.640026,-0.213307,-0.550450,84.073060,29.656165,-69.593179
13066,NaN,-3.292347,7.323298,-0.759409,1.696101,-0.174958,-1.929884,-0.566522,0.347464,-1.356324,0.490177,0.641044,-0.206553,-0.553285,83.820188,30.455208,-69.462019
13067,NaN,-3.367581,7.382703,-0.628598,1.635442,-0.272645,-1.844612,-0.511868,0.293607,-1.193504,0.488742,0.641843,-0.200572,-0.555824,83.584443,31.161185,-69.358078
13068,NaN,-3.367862,7.459604,-0.527888,1.624282,-0.417527,-1.784387,-0.445785,0.218719,-1.032254,0.487451,0.642412,-0.195489,-0.558106,83.368576,31.768275,-69.293863
13069,NaN,-3.373056,7.514451,-0.412615,1.586717,-0.545697,-1.738109,-0.378632,0.139688,-0.872692,0.486295,0.642748,-0.191272,-0.560185,83.167350,32.281902,-69.272690
13070,NaN,-3.315991,7.544933,-0.341499,1.593817,-0.684235,-1.748589,-0.302937,0.055195,-0.717557,0.485244,0.642872,-0.187989,-0.562062,82.986606,32.699073,-69.297276
13071,NaN,-3.284042,7.544488,-0.292453,1.596930,-0.770195,-1.772403,-0.218807,-0.036029,-0.568627,0.484246,0.642794,-0.185620,-0.563797,82.824781,33.027327,-69.373029
13072,NaN,-3.232741,7.692888,-0.290456,1.685838,-0.911740,-1.686061,-0.127970,-0.112032,-0.430836,0.483273,0.642592,-0.184152,-0.565341,82.693884,33.269332,-69.489355
13073,NaN,-3.162004,7.931753,-0.321855,1.831385,-1.089929,-1.537871,-0.050598,-0.172321,-0.305115,0.482346,0.642285,-0.183434,-0.566713,82.588606,33.437359,-69.636847
13074,NaN,-3.083496,8.174785,-0.357209,1.976624,-1.267970,-1.389633,0.011296,-0.212816,-0.189474,0.481513,0.641907,-0.183378,-0.567867,82.510080,33.534395,-69.801838
13075,NaN,-3.079132,8.452087,-0.336295,2.053356,-1.421174,-1.164224,0.058303,-0.218070,-0.082508,0.480824,0.641527,-0.183795,-0.568745,82.460310,33.571968,-69.961321
13076,NaN,-3.040636,8.776864,-0.484098,2.300401,-1.548179,-0.934373,0.094944,-0.214638,0.019403,0.480313,0.641151,-0.184650,-0.569323,82.439085,33.549988,-70.109028
13077,NaN,-2.997629,9.196998,-0.589828,2.533547,-1.734668,-0.620815,0.116519,-0.182832,0.116567,0.480035,0.640826,-0.185789,-0.569553,82.446203,33.476762,-70.226404
13078,NaN,-2.996533,9.613070,-0.715682,2.765189,-1.870774,-0.286071,0.116340,-0.132974,0.210148,0.480073,0.640555,-0.187120,-0.569391,82.477748,33.352602,-70.301121
13079,NaN,-3.027223,10.007114,-0.809513,2.946563,-1.975651,0.055251,0.096219,-0.052871,0.303270,0.480511,0.640375,-0.188489,-0.568771,82.531659,33.182801,-70.313187
13080,NaN,-3.126636,10.256521,-0.777855,2.945700,-1.998377,0.331588,0.056788,0.026803,0.391809,0.481404,0.640242,-0.189847,-0.567713,82.597359,32.967390,-70.263475
13081,NaN,-3.193392,10.374425,-0.586656,2.765359,-2.039776,0.500532,0.030299,0.118680,0.466582,0.482676,0.640233,-0.191141,-0.566207,82.684327,32.717038,-70.145574
13082,NaN,-3.144722,10.576076,-0.504640,2.736637,-2.159652,0.667948,0.044500,0.214299,0.537672,0.484195,0.640456,-0.192477,-0.564203,82.816849,32.432144,-69.957995
13083,NaN,-3.015578,11.182430,-0.425970,2.845172,-2.521169,1.135836,0.109714,0.323577,0.599166,0.485777,0.641080,-0.193924,-0.561633,83.026941,32.120021,-69.693353
13084,NaN,-3.013847,11.946779,-0.291182,2.896788,-2.867712,1.818209,0.170544,0.433779,0.676298,0.487482,0.642076,-0.195523,-0.558453,83.311698,31.770072,-69.351252
13085,NaN,-3.327291,12.229872,-0.240719,2.775397,-2.701752,2.257748,0.146674,0.523047,0.750973,0.489549,0.643180,-0.197073,-0.554818,83.613488,31.382007,-68.947151
13086,NaN,-3.685025,11.896211,-0.104489,2.375765,-2.251823,2.203726,0.108381,0.581162,0.832286,0.492012,0.644255,-0.198632,-0.550822,83.911633,30.949399,-68.502697
13087,NaN,-3.977856,11.214753,0.160957,1.774518,-1.752136,1.823461,0.113115,0.606865,0.910719,0.494688,0.645318,-0.200391,-0.546527,84.218867,30.471257,-68.040455
13088,NaN,-4.075708,10.423675,0.493761,1.140871,-1.394518,1.244476,0.153972,0.590849,0.970747,0.497364,0.646357,-0.202485,-0.542081,84.539607,29.956173,-67.590393
13089,NaN,-3.991749,9.803449,0.765834,0.669624,-1.239388,0.705995,0.231201,0.529906,0.994708,0.499779,0.647378,-0.205017,-0.537672,84.879529,29.421358,-67.184582
13090,NaN,-3.751465,9.544887,0.899906,0.475370,-1.312411,0.387253,0.337877,0.449409,0.982606,0.501716,0.648440,-0.207985,-0.533431,85.247951,28.887923,-66.838098
13091,NaN,-3.498685,9.688495,0.925005,0.488485,-1.522299,0.405253,0.458511,0.382391,0.942236,0.503070,0.649648,-0.211312,-0.529363,85.658460,28.371677,-66.543141
13092,NaN,-3.286256,10.226112,0.758174,0.754772,-1.781923,0.779838,0.563653,0.305601,0.895220,0.503861,0.650947,-0.214945,-0.525539,86.099258,27.878011,-66.305947
13093,NaN,-3.179323,10.844579,0.527126,1.051087,-1.963110,1.279250,0.617269,0.234645,0.835374,0.504231,0.652239,-0.218705,-0.522018,86.544566,27.413355,-66.122411
13094,NaN,-3.199020,11.387770,0.333454,1.242632,-2.028660,1.778923,0.610973,0.178527,0.789453,0.504425,0.653402,-0.222426,-0.518795,86.965140,26.972930,-65.981323
13095,NaN,-3.234157,11.754813,0.106445,1.416160,-1.996730,2.131064,0.545383,0.153285,0.746371,0.504683,0.654366,-0.225904,-0.515817,87.337960,26.554307,-65.861814
13096,NaN,-3.212713,11.900800,-0.097179,1.545407,-1.932703,2.263547,0.448670,0.166371,0.721161,0.505196,0.655135,-0.229003,-0.512965,87.656106,26.151079,-65.737816
13097,NaN,-3.163600,11.854716,-0.145831,1.513244,-1.880000,2.218057,0.329939,0.211548,0.704044,0.506099,0.655727,-0.231636,-0.510127,87.917194,25.756532,-65.588278
13098,NaN,-3.183740,11.601821,-0.127653,1.364064,-1.717194,2.017132,0.205241,0.281293,0.701242,0.507474,0.656176,-0.233749,-0.507212,88.123488,25.365987,-65.396690
13099,NaN,-3.281212,11.233781,-0.061008,1.129985,-1.465878,1.743334,0.093074,0.363487,0.704180,0.509317,0.656534,-0.235389,-0.504135,88.286195,24.972848,-65.155201
13100,NaN,-3.275997,10.668687,0.062542,0.855340,-1.250981,1.244431,-0.027257,0.430222,0.703212,0.511618,0.656745,-0.236534,-0.500983,88.394770,24.582686,-64.873268
13101,NaN,-3.275202,9.886781,0.173022,0.559258,-0.951423,0.545252,-0.133848,0.475922,0.699739,0.514310,0.656789,-0.237296,-0.497798,88.452342,24.192836,-64.564352
13102,NaN,-3.207078,9.021263,0.259867,0.305010,-0.675794,-0.263552,-0.209127,0.484661,0.680897,0.517200,0.656674,-0.237767,-0.494722,88.465918,23.815763,-64.251269
13103,NaN,-3.127314,8.324562,0.298881,0.139433,-0.458691,-0.928001,-0.243531,0.479589,0.656806,0.520132,0.656472,-0.238098,-0.491748,88.456692,23.450270,-63.942910
13104,NaN,-2.959789,7.711722,0.362710,0.009003,-0.364484,-1.552577,-0.257912,0.459287,0.626907,0.523001,0.656209,-0.238328,-0.488937,88.431420,23.103802,-63.648188
13105,NaN,-2.863551,7.275371,0.394102,-0.081913,-0.265563,-1.989078,-0.269025,0.414834,0.591947,0.525764,0.655838,-0.238546,-0.486359,88.387490,22.774644,-63.382502
13106,NaN,-2.206125,7.015623,-0.106498,0.574237,-0.452955,-2.494063,-0.319410,0.404405,0.460651,0.528349,0.655459,-0.238218,-0.484224,88.309460,22.522939,-63.125554
13107,NaN,-0.937490,7.337232,0.145546,0.948604,-1.686345,-2.671866,-0.475146,0.935435,0.343491,0.531787,0.656078,-0.235738,-0.480824,88.266495,22.345461,-62.542159
13108,NaN,-1.050874,7.196670,0.528556,0.550717,-1.701638,-2.743258,-0.633468,1.541199,0.261807,0.536231,0.657798,-0.230971,-0.475826,88.272332,22.227629,-61.585629
13109,NaN,-2.145735,6.575807,0.739193,-0.230469,-0.706272,-2.896049,-0.716920,2.027750,0.134788,0.541165,0.660534,-0.224279,-0.469611,88.342173,22.187758,-60.331448
13110,NaN,-2.987701,6.264620,0.934535,-0.854255,-0.047605,-2.861927,-0.669045,2.278649,0.037631,0.545919,0.664016,-0.216654,-0.462726,88.496803,22.207661,-58.923507
13111,NaN,-3.382723,6.548871,1.051173,-1.098136,0.079740,-2.449058,-0.595404,2.365475,0.024299,0.550420,0.667815,-0.208904,-0.455434,88.714622,22.229738,-57.462240
13112,NaN,-3.618324,6.877963,0.995072,-1.119720,0.150427,-2.059481,-0.553379,2.304296,0.040455,0.554668,0.671482,-0.201424,-0.448201,88.942565,22.239014,-56.037906
13113,NaN,-4.014726,7.053314,0.868124,-1.209196,0.432652,-1.752206,-0.525712,2.094092,0.065366,0.558603,0.674637,-0.194663,-0.441512,89.137107,22.224807,-54.743950
13114,NaN,-4.417374,7.064953,0.609137,-1.244796,0.850788,-1.595372,-0.460578,1.763827,0.128487,0.562074,0.677123,-0.189146,-0.435661,89.291179,22.170528,-53.653629
13115,NaN,-4.520313,7.162450,0.281176,-1.051511,1.075302,-1.472968,-0.394106,1.379067,0.215944,0.565116,0.678823,-0.185153,-0.430768,89.391997,22.059208,-52.801985
13116,NaN,-4.416470,7.481369,-0.050814,-0.689619,1.106799,-1.223277,-0.331746,1.025892,0.338930,0.567853,0.679802,-0.182687,-0.426657,89.445037,21.876468,-52.168219
13117,NaN,-4.354090,7.702432,-0.277167,-0.457528,1.155381,-1.048100,-0.298587,0.728758,0.458272,0.570454,0.680110,-0.181550,-0.423170,89.446489,21.621466,-51.718647
13118,NaN,-4.305941,7.814983,-0.471167,-0.284385,1.243189,-0.969020,-0.284958,0.494548,0.577578,0.573030,0.679845,-0.181498,-0.420126,89.401165,21.298883,-51.412754
13119,NaN,-4.218312,7.762612,-0.575428,-0.197206,1.305966,-1.058337,-0.265536,0.298182,0.674667,0.575563,0.679120,-0.182390,-0.417440,89.321648,20.917932,-51.227646
13120,NaN,-4.073491,7.851291,-0.644211,-0.071061,1.274661,-1.036532,-0.235996,0.163886,0.744292,0.578004,0.678131,-0.183951,-0.414983,89.229243,20.498180,-51.123638
13121,NaN,-3.978130,8.034547,-0.552084,-0.078635,1.158647,-0.905658,-0.201884,0.101280,0.785945,0.580355,0.677058,-0.185913,-0.412575,89.142497,20.052556,-51.057525
13122,NaN,-3.889537,8.197271,-0.351623,-0.182198,0.986712,-0.788269,-0.156298,0.099171,0.808484,0.582580,0.676084,-0.188038,-0.410064,89.081322,19.595735,-50.991639
13123,NaN,-3.876239,8.252705,-0.047707,-0.439879,0.830642,-0.743469,-0.100636,0.148826,0.826597,0.584696,0.675342,-0.190200,-0.407268,89.061551,19.127514,-50.895637
13124,NaN,-3.917899,8.225240,0.287137,-0.777892,0.710028,-0.758559,-0.031753,0.226582,0.811429,0.586608,0.674966,-0.192210,-0.404187,89.095700,18.670215,-50.752664
13125,NaN,-4.044827,8.093096,0.719855,-1.269993,0.605368,-0.846236,0.053157,0.299828,0.785645,0.588245,0.674997,-0.194097,-0.400840,89.190969,18.226767,-50.566951
13126,NaN,-4.215284,7.938265,1.050518,-1.719078,0.590584,-0.947936,0.166470,0.353124,0.748966,0.589464,0.675495,-0.195917,-0.397310,89.359298,17.805709,-50.350602
13127,NaN,-4.178421,7.951751,1.245392,-1.909137,0.459921,-0.959226,0.285682,0.410359,0.712615,0.590258,0.676478,-0.197687,-0.393565,89.603957,17.403827,-50.102480
13128,NaN,-4.133242,8.072266,1.269841,-1.947928,0.397904,-0.873760,0.384707,0.461864,0.668158,0.590664,0.677889,-0.199337,-0.389676,89.912305,17.027612,-49.825791
13129,NaN,-4.134638,8.359005,1.241404,-1.949542,0.358290,-0.615968,0.468539,0.498968,0.617145,0.590716,0.679652,-0.200870,-0.385718,90.272273,16.678051,-49.530031
13130,NaN,-4.262221,8.726280,1.116819,-1.949051,0.447819,-0.243894,0.521260,0.521800,0.575786,0.590515,0.681647,-0.202287,-0.381746,90.664250,16.351232,-49.222984
13131,NaN,-4.354909,9.135549,1.044118,-1.966589,0.464627,0.158754,0.532004,0.539901,0.550593,0.590240,0.683713,-0.203585,-0.377765,91.062478,16.035867,-48.908139
13132,NaN,-4.562893,9.504414,0.870692,-1.993111,0.637164,0.557116,0.519300,0.531694,0.517836,0.589920,0.685751,-0.204762,-0.373916,91.450368,15.738100,-48.600120
13133,NaN,-4.865965,9.578016,0.718078,-2.145197,0.929152,0.697586,0.468193,0.511484,0.479424,0.589677,0.687620,-0.205770,-0.370295,91.803096,15.460176,-48.306281
13134,NaN,-5.228774,9.796041,0.467553,-2.239695,1.297344,0.995696,0.453123,0.465125,0.471126,0.589408,0.689362,-0.206852,-0.366866,92.138711,15.186797,-48.041551
13135,NaN,-5.495547,10.417214,0.286343,-2.269266,1.465207,1.654847,0.446338,0.378737,0.477342,0.589079,0.690903,-0.208196,-0.363721,92.454583,14.910110,-47.830483
13136,NaN,-5.667008,11.435416,0.071749,-2.164541,1.505061,2.674815,0.440940,0.278139,0.495759,0.588686,0.692222,-0.209886,-0.360867,92.751380,14.624698,-47.680920
13137,NaN,-6.054763,12.740414,-0.094776,-2.208440,1.613895,4.025834,0.413290,0.136215,0.511727,0.588266,0.693173,-0.211995,-0.358486,93.009251,14.333574,-47.617629
13138,NaN,-6.605138,13.703858,-0.099904,-2.527392,1.820704,5.077922,0.333934,-0.060405,0.510470,0.587899,0.693538,-0.214535,-0.356867,93.193463,14.048992,-47.671275
13139,NaN,-7.228594,14.027919,0.078491,-3.097037,2.118815,5.515708,0.219713,-0.306654,0.500113,0.587644,0.693128,-0.217554,-0.356256,93.276593,13.778803,-47.870554
13140,NaN,-7.265947,13.573718,0.267436,-3.358267,2.177590,5.056442,0.111434,-0.537324,0.460322,0.587432,0.692028,-0.220920,-0.356671,93.267732,13.538661,-48.204010
13141,NaN,-6.896401,12.973152,0.466853,-3.353870,1.974255,4.362446,0.078628,-0.726792,0.380743,0.586978,0.690568,-0.224499,-0.358013,93.215044,13.350832,-48.645991
13142,NaN,-6.666492,12.257171,0.608502,-3.388903,1.931281,3.597597,0.057758,-0.904305,0.269948,0.586182,0.688844,-0.228182,-0.360302,93.129561,13.230669,-49.188022
13143,NaN,-6.226581,11.259393,0.467991,-3.084145,1.964942,2.531945,0.023709,-1.055987,0.116882,0.585044,0.686899,-0.231704,-0.363602,93.004842,13.203015,-49.814109
13144,NaN,-5.370468,10.422236,0.052372,-2.272196,1.808397,1.546635,0.030952,-1.171338,-0.071499,0.583383,0.684967,-0.234933,-0.367820,92.870974,13.283917,-50.502197
13145,NaN,-4.369968,10.026709,-0.454203,-1.245828,1.472079,0.963138,0.063589,-1.231590,-0.279548,0.581137,0.683234,-0.237664,-0.372810,92.745854,13.485655,-51.220398
13146,NaN,-3.526265,10.061658,-1.033101,-0.209488,1.167266,0.833061,0.060130,-1.218428,-0.493302,0.578494,0.681744,-0.239623,-0.378353,92.619848,13.806251,-51.926098
13147,NaN,-2.790960,10.243050,-1.380213,0.600848,0.734757,0.850937,0.001264,-1.145589,-0.703299,0.575717,0.680440,-0.240519,-0.384321,92.465491,14.245253,-52.585342
13148,NaN,-2.512945,10.498264,-1.376007,0.878354,0.402073,1.026480,-0.115879,-1.063475,-0.876984,0.573075,0.679136,-0.240365,-0.390620,92.252460,14.777961,-53.194604
13149,NaN,-2.531159,10.482273,-1.474750,1.048661,0.409766,1.012777,-0.215430,-0.996380,-0.998310,0.570587,0.677787,-0.239387,-0.397151,91.985324,15.377934,-53.765371
13150,NaN,-2.520009,10.561453,-1.214404,0.968647,0.156819,1.068717,-0.298701,-0.877368,-1.118693,0.568254,0.676549,-0.237497,-0.403688,91.684174,16.040227,-54.267800
13151,NaN,-3.000625,10.575273,-0.914734,0.579952,0.281568,1.199102,-0.377150,-0.808523,-1.127745,0.566221,0.675198,-0.235197,-0.410102,91.341368,16.705550,-54.734593
13152,NaN,-3.602295,10.566914,-0.333199,-0.099038,0.356164,1.350140,-0.460672,-0.848598,-1.109319,0.564429,0.673474,-0.232903,-0.416664,90.937858,17.356228,-55.231680
13153,NaN,-4.173684,10.258885,0.082032,-0.661812,0.598527,1.226928,-0.514870,-1.028574,-0.991076,0.562825,0.671044,-0.231375,-0.423549,90.461875,17.938356,-55.844807
13154,NaN,-4.231381,9.793463,0.450314,-0.937421,0.533112,0.810625,-0.519608,-1.307694,-0.851490,0.561173,0.667809,-0.231089,-0.430946,89.923955,18.434258,-56.633729
13155,NaN,-3.888212,9.056393,-0.010869,-0.373042,0.696755,0.011297,-0.417585,-1.532688,-0.759276,0.559080,0.664216,-0.231932,-0.438696,89.391502,18.871202,-57.565470
13156,NaN,-2.622639,8.766664,-0.416803,0.666328,-0.045711,-0.677077,-0.240754,-1.334101,-0.901928,0.556275,0.661674,-0.232130,-0.445939,88.991293,19.382611,-58.384274
13157,NaN,-2.691751,8.799742,-0.383034,0.695899,-0.067143,-0.629106,-0.171997,-0.867993,-0.909302,0.553738,0.660332,-0.231135,-0.451566,88.715614,19.900658,-58.925563
13158,NaN,-3.892023,8.524066,-0.221652,-0.003688,0.839482,-0.477201,-0.166103,-0.518909,-0.839877,0.551723,0.659695,-0.229422,-0.455817,88.512445,20.379993,-59.256737
13159,NaN,-4.405500,7.935773,-0.268497,-0.259652,1.395635,-0.843783,-0.130476,-0.458464,-0.815807,0.549702,0.659249,-0.227684,-0.459760,88.338127,20.847105,-59.553337
13160,NaN,-4.151950,7.714662,-0.403278,-0.007082,1.275702,-1.135744,-0.057027,-0.523474,-0.823767,0.547333,0.658850,-0.226275,-0.463834,88.189600,21.315225,-59.892199
13161,NaN,-3.524711,7.883774,-0.604289,0.554212,0.769436,-1.207867,-0.026081,-0.611561,-0.852627,0.544680,0.658346,-0.225064,-0.468241,88.033984,21.799129,-60.288397
13162,NaN,-2.785459,7.791798,-0.788806,1.092789,0.235943,-1.576022,-0.025138,-0.651827,-0.942863,0.541752,0.657833,-0.223675,-0.473001,87.865630,22.331073,-60.714267
13163,NaN,-2.289202,7.464279,-0.941477,1.435546,-0.052076,-2.081057,-0.002552,-0.628511,-1.067330,0.538461,0.657550,-0.221845,-0.477988,87.708369,22.935406,-61.132089
13164,NaN,-2.348342,7.212827,-0.975006,1.438259,0.018298,-2.301328,0.036829,-0.561138,-1.196297,0.534785,0.657652,-0.219508,-0.483027,87.584296,23.612471,-61.514764
13165,NaN,-2.652931,7.170408,-0.902978,1.289588,0.159597,-2.224620,0.070582,-0.525585,-1.280394,0.530807,0.657990,-0.216858,-0.488124,87.481040,24.339478,-61.880999
13166,NaN,-2.872730,7.203202,-0.857845,1.222031,0.214760,-2.109821,0.077863,-0.520216,-1.330240,0.526665,0.658382,-0.214050,-0.493294,87.377893,25.092925,-62.248808
13167,NaN,-3.013141,7.167762,-0.811044,1.174080,0.226728,-2.087225,0.075117,-0.549225,-1.331779,0.522467,0.658663,-0.211282,-0.498549,87.258399,25.847377,-62.638957
13168,NaN,-3.095547,7.188061,-0.834785,1.227670,0.206823,-2.041165,0.068966,-0.604217,-1.313437,0.518252,0.658736,-0.208705,-0.503909,87.114400,26.587422,-63.068001
13169,NaN,-3.088835,7.223009,-0.841763,1.308260,0.103617,-2.021790,0.061746,-0.664521,-1.276913,0.514059,0.658566,-0.206363,-0.509361,86.941455,27.305199,-63.539546
13170,NaN,-3.059178,7.232583,-0.869496,1.410060,0.004726,-2.038650,0.046026,-0.724722,-1.224200,0.509966,0.658113,-0.204310,-0.514858,86.735245,27.988034,-64.053771
13171,NaN,-3.000768,7.405424,-0.910683,1.575423,-0.171989,-1.928406,0.050442,-0.759222,-1.142197,0.506007,0.657467,-0.202606,-0.520236,86.513823,28.622499,-64.593244
13172,NaN,-2.941363,7.711965,-0.849512,1.681875,-0.448538,-1.699916,0.059561,-0.772554,-1.056691,0.502206,0.656692,-0.201241,-0.525402,86.287728,29.204329,-65.143928
13173,NaN,-2.889706,8.077475,-0.864388,1.864862,-0.708575,-1.424440,0.071795,-0.745571,-0.961888,0.498617,0.655897,-0.200135,-0.530213,86.071648,29.732392,-65.678196
13174,NaN,-2.895243,8.382277,-0.784875,1.921669,-0.937781,-1.170452,0.081471,-0.708282,-0.849740,0.495317,0.655090,-0.199331,-0.534589,85.869929,30.194893,-66.187613
13175,NaN,-2.955666,8.607714,-0.720618,1.945892,-1.078223,-0.958395,0.094739,-0.647673,-0.733626,0.492328,0.654344,-0.198780,-0.538454,85.693472,30.593208,-66.655059
13176,NaN,-3.051826,8.761259,-0.716163,1.985974,-1.127034,-0.792068,0.111070,-0.586668,-0.614312,0.489659,0.653669,-0.198517,-0.541795,85.546288,30.923821,-67.079083
13177,NaN,-3.005953,8.809208,-0.767419,2.088287,-1.210534,-0.790476,0.124007,-0.510867,-0.488492,0.487354,0.653098,-0.198505,-0.544560,85.432972,31.185996,-67.447954
13178,NaN,-2.995920,8.875283,-0.730606,2.096222,-1.302006,-0.746791,0.117785,-0.426094,-0.367784,0.485479,0.652613,-0.198667,-0.546753,85.346902,31.381744,-67.755282
13179,NaN,-3.019773,8.847423,-0.678364,2.046598,-1.321587,-0.761671,0.119713,-0.338682,-0.249825,0.484001,0.652252,-0.199003,-0.548369,85.294839,31.514502,-67.998213
13180,NaN,-3.084818,8.778580,-0.602801,1.944542,-1.290632,-0.785178,0.135703,-0.278089,-0.144944,0.482819,0.651987,-0.199580,-0.549514,85.275468,31.589494,-68.195349
13181,NaN,-3.192139,8.802066,-0.503706,1.826870,-1.269809,-0.703903,0.145386,-0.242366,-0.052793,0.481892,0.651753,-0.200396,-0.550309,85.277031,31.613888,-68.363269
13182,NaN,-3.239376,8.739132,-0.431280,1.724820,-1.238815,-0.727407,0.153904,-0.238499,0.030464,0.481170,0.651462,-0.201499,-0.550882,85.286878,31.590575,-68.524268
13183,NaN,-3.323182,8.830504,-0.371862,1.660842,-1.236989,-0.600138,0.173966,-0.261467,0.108768,0.480573,0.651079,-0.202967,-0.551317,85.303106,31.521643,-68.695949
13184,NaN,-3.311135,9.080593,-0.307834,1.660435,-1.378839,-0.386274,0.195190,-0.284994,0.183116,0.480088,0.650601,-0.204792,-0.551629,85.325176,31.409060,-68.879478
13185,NaN,-3.445301,9.374713,-0.210599,1.591007,-1.430379,-0.054494,0.217046,-0.311868,0.264071,0.479723,0.650018,-0.207005,-0.551806,85.353879,31.248991,-69.076013
13186,NaN,-3.598689,9.753655,-0.083646,1.505345,-1.507795,0.363349,0.235620,-0.339639,0.342621,0.479485,0.649316,-0.209589,-0.551866,85.385842,31.042942,-69.286892
13187,NaN,-3.805964,10.222200,0.009417,1.450931,-1.558543,0.885180,0.257885,-0.361867,0.429387,0.479386,0.648512,-0.212570,-0.551757,85.427059,30.786134,-69.507222
13188,NaN,-3.927826,10.615017,0.110831,1.389473,-1.634860,1.301043,0.254430,-0.387298,0.506291,0.479479,0.647537,-0.215847,-0.551548,85.460117,30.484668,-69.740265
13189,NaN,-3.984156,10.812528,0.093379,1.404575,-1.619639,1.509703,0.237191,-0.397028,0.572913,0.479794,0.646418,-0.219318,-0.551218,85.484138,30.144279,-69.975327
13190,NaN,-3.850562,10.982823,-0.052813,1.585918,-1.689800,1.592618,0.228184,-0.386684,0.628500,0.480297,0.645232,-0.222910,-0.550728,85.508546,29.773221,-70.200337
13191,NaN,-3.598797,11.505951,-0.370907,2.040816,-1.942883,1.914867,0.239515,-0.336454,0.668460,0.480922,0.644161,-0.226547,-0.549953,85.559340,29.380938,-70.389407
13192,NaN,-3.382222,12.342723,-0.608947,2.477806,-2.328596,2.540065,0.218563,-0.239874,0.695453,0.481791,0.643261,-0.229969,-0.548824,85.629863,28.978429,-70.513984
13193,NaN,-3.364367,12.694921,-0.748846,2.650820,-2.368035,2.852446,0.088200,-0.105016,0.714585,0.483280,0.642390,-0.232777,-0.547349,85.670447,28.569866,-70.549349
13194,NaN,-3.406947,12.030373,-0.707964,2.415772,-1.984164,2.314342,-0.075529,0.032187,0.712856,0.485444,0.641489,-0.234787,-0.545629,85.658547,28.169330,-70.496015
13195,NaN,-3.450276,11.069446,-0.467742,1.937190,-1.552959,1.522693,-0.130970,0.162523,0.716452,0.487942,0.640800,-0.236351,-0.543531,85.655514,27.770971,-70.358008
13196,NaN,-3.590176,10.410393,-0.214054,1.486506,-1.182993,1.036358,-0.114311,0.258447,0.703450,0.490458,0.640416,-0.237668,-0.541140,85.687841,27.385587,-70.159742
13197,NaN,-3.580079,9.902319,0.232726,0.932624,-1.084031,0.621953,-0.081394,0.334145,0.672005,0.492868,0.640348,-0.238800,-0.538526,85.760448,27.019592,-69.915111
13198,NaN,-3.423401,9.472059,0.629182,0.484625,-1.136168,0.202770,0.012005,0.375979,0.610697,0.494856,0.640685,-0.239865,-0.535821,85.893867,26.691635,-69.648353
13199,NaN,-3.320644,9.377372,0.842588,0.258784,-1.223707,0.092213,0.138390,0.397233,0.521911,0.496222,0.641494,-0.240946,-0.533099,86.103447,26.412759,-69.373524
13200,NaN,-3.023733,9.594835,0.973376,0.233387,-1.579882,0.167320,0.250628,0.430355,0.416027,0.496979,0.642787,-0.241885,-0.530404,86.381302,26.196426,-69.084179
13201,NaN,-2.709197,10.095641,0.907181,0.450080,-1.998787,0.477439,0.353294,0.482877,0.312813,0.497193,0.644594,-0.242648,-0.527654,86.730776,26.037544,-68.766938
13202,NaN,-2.781236,10.549618,0.698167,0.656893,-2.030567,0.909353,0.379980,0.532354,0.243472,0.497190,0.646673,-0.243116,-0.524891,87.105507,25.920033,-68.422255
13203,NaN,-2.831594,10.716529,0.381592,0.908802,-1.931243,1.070863,0.301088,0.609428,0.200428,0.497420,0.648803,-0.243061,-0.522063,87.456165,25.825073,-68.030895
13204,NaN,-2.597425,10.687333,0.017361,1.267265,-1.973651,0.932757,0.197865,0.726441,0.175751,0.498052,0.651002,-0.242344,-0.519047,87.777461,25.747184,-67.566787
13205,NaN,-2.452531,10.769952,-0.301743,1.586648,-1.996007,0.938882,0.060052,0.873309,0.168354,0.499287,0.653237,-0.240896,-0.515716,88.060680,25.671895,-67.010251
13206,NaN,-2.516871,10.761419,-0.434351,1.655225,-1.874994,0.961170,-0.111295,1.008725,0.186371,0.501277,0.655357,-0.238700,-0.512105,88.280723,25.589051,-66.368095
13207,NaN,-2.767073,10.579964,-0.515877,1.584349,-1.544592,0.909367,-0.283225,1.106292,0.217253,0.504014,0.657238,-0.235937,-0.508273,88.429287,25.485479,-65.664275
13208,NaN,-2.964466,10.273394,-0.506325,1.431150,-1.240412,0.722973,-0.433336,1.143700,0.259757,0.507375,0.658763,-0.232806,-0.504384,88.499309,25.359709,-64.936866
13209,NaN,-3.075247,9.926601,-0.382469,1.203410,-1.036428,0.464390,-0.538599,1.139232,0.295478,0.511152,0.659941,-0.229554,-0.500507,88.507474,25.209945,-64.212696
13210,NaN,-3.118426,9.585352,-0.278148,1.025612,-0.880284,0.180009,-0.627259,1.091762,0.322665,0.515209,0.660716,-0.226257,-0.496813,88.448743,25.047195,-63.518881
13211,NaN,-3.218814,9.117907,-0.051053,0.691566,-0.687512,-0.192475,-0.689461,1.018682,0.358755,0.519462,0.661080,-0.223129,-0.493301,88.334313,24.860364,-62.871433
13212,NaN,-3.289311,8.442564,0.078301,0.410956,-0.404292,-0.770006,-0.701032,0.917669,0.382110,0.523674,0.661114,-0.220279,-0.490073,88.183195,24.662946,-62.287658
13213,NaN,-3.276269,7.850127,0.170786,0.210921,-0.207346,-1.309748,-0.655559,0.803705,0.409969,0.527666,0.660934,-0.217949,-0.487066,88.027785,24.445561,-61.775613
13214,NaN,-3.178963,7.430713,0.213184,0.124373,-0.121023,-1.729587,-0.567675,0.700746,0.435108,0.531297,0.660690,-0.216155,-0.484240,87.893045,24.216136,-61.327850
13215,NaN,-3.064851,7.180050,0.229092,0.101102,-0.097161,-2.003774,-0.471466,0.615283,0.459898,0.534572,0.660453,-0.214925,-0.481500,87.791205,23.968225,-60.933627
13216,NaN,-2.952027,6.983218,0.247872,0.083206,-0.095336,-2.228156,-0.376399,0.534603,0.475954,0.537469,0.660248,-0.214163,-0.478888,87.720603,23.713145,-60.589671
13217,NaN,-2.294310,6.881284,0.027544,0.537312,-0.441784,-2.592388,-0.343203,0.563438,0.440021,0.540199,0.660227,-0.213306,-0.476219,87.675566,23.476323,-60.229207
13218,NaN,-1.615720,7.024901,0.444207,0.517105,-1.213312,-2.712158,-0.375648,0.955894,0.384956,0.543306,0.661099,-0.211100,-0.472443,87.705868,23.283422,-59.625671
13219,NaN,-1.838903,6.985658,1.041496,-0.109815,-1.317143,-2.635030,-0.389006,1.423522,0.356967,0.546868,0.663038,-0.207517,-0.467176,87.841895,23.112738,-58.732960
13220,NaN,-2.509632,6.894844,1.383087,-0.751124,-0.946518,-2.444517,-0.345136,1.809885,0.281957,0.550464,0.666032,-0.202690,-0.460769,88.092756,22.993495,-57.602758
13221,NaN,-3.121367,7.118125,1.418137,-1.054079,-0.584533,-2.004435,-0.265045,2.054658,0.240942,0.553901,0.669783,-0.197244,-0.453519,88.446756,22.892984,-56.323153
13222,NaN,-3.468893,7.404029,1.275849,-1.084105,-0.362718,-1.616742,-0.257986,2.198538,0.253438,0.557413,0.673794,-0.191408,-0.445708,88.835928,22.783130,-54.955208
13223,NaN,-3.821380,7.420413,1.090007,-1.163543,-0.032724,-1.476122,-0.279477,2.229834,0.273254,0.561010,0.677706,-0.185505,-0.437687,89.217408,22.650271,-53.570225
13224,NaN,-4.248283,7.273821,0.952356,-1.378293,0.371949,-1.456558,-0.281335,2.132888,0.320465,0.564550,0.681278,-0.179982,-0.429824,89.570101,22.485069,-52.246950
13225,NaN,-4.693187,7.125327,0.782335,-1.594720,0.811375,-1.433760,-0.266821,1.902595,0.376954,0.567904,0.684268,-0.175337,-0.422515,89.871982,22.276521,-51.069678
13226,NaN,-4.749731,7.050344,0.557366,-1.534620,0.991952,-1.491716,-0.258457,1.595463,0.441833,0.571041,0.686525,-0.171766,-0.416043,90.101348,22.029075,-50.084704
13227,NaN,-4.621751,6.936884,0.341600,-1.379523,1.065245,-1.654285,-0.258561,1.281967,0.522858,0.574054,0.688013,-0.169380,-0.410379,90.253068,21.729590,-49.296923
13228,NaN,-4.508066,6.785386,0.240295,-1.322747,1.102185,-1.846687,-0.261476,1.002105,0.587866,0.576939,0.688840,-0.167984,-0.405489,90.334744,21.395333,-48.683462
13229,NaN,-4.464658,6.617518,0.246620,-1.387753,1.133521,-2.029720,-0.244893,0.753003,0.634166,0.579644,0.689145,-0.167517,-0.401286,90.366222,21.031947,-48.225765
13230,NaN,-4.473260,6.562312,0.208293,-1.420482,1.206356,-2.089729,-0.189659,0.524331,0.671173,0.582019,0.689111,-0.167926,-0.397720,90.376285,20.650965,-47.909009
13231,NaN,-4.401413,6.687376,0.113199,-1.317046,1.219858,-2.009911,-0.125987,0.312618,0.702831,0.584059,0.688797,-0.169203,-0.394721,90.375065,20.249943,-47.723336
13232,NaN,-4.328475,7.007996,0.054503,-1.195781,1.164286,-1.746406,-0.056054,0.148532,0.753109,0.585802,0.688317,-0.171248,-0.392085,90.378294,19.823405,-47.637785
13233,NaN,-4.381387,7.388810,0.058744,-1.191398,1.146665,-1.382986,0.004939,0.006008,0.793576,0.587291,0.687685,-0.173985,-0.389754,90.386436,19.371768,-47.639967
13234,NaN,-4.536036,7.713990,0.155737,-1.336923,1.159038,-1.039186,0.049920,-0.114723,0.825126,0.588564,0.686917,-0.177253,-0.387710,90.396485,18.904978,-47.714961
13235,NaN,-4.533987,7.916528,0.353544,-1.488931,1.031238,-0.864360,0.091615,-0.178612,0.864088,0.589710,0.686095,-0.180935,-0.385717,90.418422,18.413913,-47.829245
13236,NaN,-4.591009,8.073580,0.583692,-1.717927,0.937069,-0.714841,0.147337,-0.185438,0.880531,0.590671,0.685402,-0.184782,-0.383650,90.472110,17.915761,-47.947171
13237,NaN,-4.627846,8.183497,0.718440,-1.880519,0.902948,-0.617556,0.220575,-0.132989,0.892345,0.591447,0.684995,-0.188665,-0.381286,90.577915,17.408718,-48.034552
13238,NaN,-4.784654,8.361590,0.785182,-2.065171,0.979665,-0.421189,0.307134,-0.066349,0.901935,0.591987,0.684952,-0.192531,-0.378582,90.745774,16.897943,-48.082532
13239,NaN,-4.910173,8.653462,0.783511,-2.168603,1.050669,-0.127721,0.385220,-0.022886,0.899150,0.592290,0.685203,-0.196415,-0.375647,90.965399,16.386798,-48.106679
13240,NaN,-4.975459,9.061911,0.735515,-2.189120,1.081025,0.259684,0.442443,0.000552,0.897160,0.592395,0.685659,-0.200312,-0.372579,91.221663,15.878386,-48.118458
13241,NaN,-5.102610,9.461129,0.654433,-2.236876,1.179048,0.655510,0.479180,0.010985,0.887686,0.592358,0.686230,-0.204220,-0.369452,91.499667,15.373843,-48.126809
13242,NaN,-5.293566,9.714050,0.625447,-2.394404,1.319047,0.925179,0.486667,0.002682,0.851879,0.592200,0.686833,-0.208028,-0.366448,91.780701,14.891461,-48.141522
13243,NaN,-5.480117,10.000531,0.473298,-2.454730,1.529424,1.228169,0.509282,-0.024862,0.818230,0.591866,0.687466,-0.211846,-0.363602,92.069671,14.427782,-48.174756
13244,NaN,-5.590083,10.657700,0.182482,-2.314619,1.697079,1.876212,0.557818,-0.107307,0.785688,0.591199,0.688116,-0.215872,-0.361080,92.374906,13.985909,-48.257903
13245,NaN,-5.608858,11.670116,-0.120032,-2.069329,1.733388,2.851338,0.569641,-0.207426,0.749044,0.590309,0.688639,-0.220089,-0.358987,92.672525,13.567129,-48.401723
13246,NaN,-5.752317,12.896687,-0.274128,-1.999619,1.721911,4.062627,0.545252,-0.329385,0.703111,0.589268,0.688911,-0.224454,-0.357470,92.941069,13.179587,-48.617451
13247,NaN,-6.386807,13.813150,-0.017441,-2.591445,1.877221,5.065293,0.426945,-0.502352,0.648777,0.588334,0.688567,-0.228928,-0.356834,93.119759,12.828667,-48.934600
13248,NaN,-7.252918,13.677011,0.373785,-3.520338,2.356839,5.082175,0.243871,-0.744884,0.591091,0.587632,0.687306,-0.233582,-0.357404,93.165147,12.519497,-49.392080
13249,NaN,-7.751096,12.874408,0.568800,-4.089050,2.851943,4.375288,0.156246,-1.015457,0.520853,0.586777,0.685362,-0.238627,-0.359205,93.128363,12.258938,-50.005545
13250,NaN,-7.486193,12.598481,0.630475,-3.989274,2.766341,4.029079,0.164775,-1.289752,0.403773,0.585328,0.683068,-0.244080,-0.362262,93.066676,12.073454,-50.774844
13251,NaN,-6.914519,12.360757,0.492116,-3.516247,2.557768,3.675606,0.116680,-1.524753,0.247804,0.583446,0.680357,-0.249585,-0.366623,92.950804,11.983533,-51.676296
13252,NaN,-6.101910,11.596403,0.131765,-2.743768,2.379427,2.778437,0.007172,-1.701843,0.033335,0.581280,0.677229,-0.254663,-0.372319,92.753367,12.018564,-52.674593
13253,NaN,-5.096861,10.710298,-0.344699,-1.757191,2.102809,1.732741,-0.039594,-1.803635,-0.216633,0.578636,0.674036,-0.259077,-0.379124,92.515062,12.196470,-53.726364
13254,NaN,-3.965077,10.437737,-0.881613,-0.592710,1.586838,1.258680,-0.051443,-1.826507,-0.471282,0.575466,0.671042,-0.262661,-0.386718,92.264660,12.515481,-54.786967
13255,NaN,-3.056040,10.606970,-1.334169,0.412523,1.053849,1.248290,-0.083681,-1.754591,-0.728703,0.571951,0.668368,-0.265080,-0.394827,91.997539,12.976715,-55.802857
13256,NaN,-2.365724,11.022663,-1.516947,1.097994,0.447587,1.500544,-0.175332,-1.602550,-0.971665,0.568411,0.665997,-0.266056,-0.403201,91.690445,13.568267,-56.729148
13257,NaN,-2.113462,11.386347,-1.665960,1.526036,0.157355,1.786238,-0.318649,-1.437941,-1.156746,0.565145,0.663735,-0.265626,-0.411715,91.312747,14.258982,-57.561620
13258,NaN,-1.891860,11.504642,-1.567697,1.717351,-0.204808,1.823438,-0.432059,-1.216714,-1.328497,0.562145,0.661781,-0.263754,-0.420087,90.892380,15.038973,-58.268773
13259,NaN,-2.139337,11.713701,-1.100054,1.376903,-0.399490,2.059089,-0.562169,-1.014296,-1.373278,0.559702,0.659888,-0.260861,-0.428058,90.416941,15.838814,-58.864287
13260,NaN,-2.946563,11.618020,-0.437935,0.563917,-0.149010,2.166839,-0.656808,-0.981052,-1.338974,0.557641,0.657705,-0.257773,-0.435906,89.883087,16.612968,-59.449600
13261,NaN,-3.726548,11.447000,0.305131,-0.300976,0.086908,2.225286,-0.783608,-1.175455,-1.184473,0.556039,0.654489,-0.255430,-0.444095,89.231864,17.292677,-60.161261
13262,NaN,-3.798072,10.249401,-0.075258,-0.019616,0.589310,1.102029,-0.683537,-1.500324,-1.078897,0.553877,0.650637,-0.254541,-0.452880,88.569260,17.899705,-61.077483
13263,NaN,-1.820984,9.496854,-0.645800,1.405581,-0.646025,-0.245639,-0.474150,-1.375073,-1.278546,0.550689,0.647838,-0.253099,-0.461506,88.035171,18.614847,-61.931872
13264,NaN,-1.716416,9.507633,-0.632516,1.557203,-0.827617,-0.292719,-0.408794,-0.808782,-1.290937,0.547933,0.646493,-0.250196,-0.468207,87.637386,19.341904,-62.453341
13265,NaN,-3.219174,9.295231,-0.194348,0.575665,0.196258,0.007242,-0.404697,-0.260170,-1.147661,0.546159,0.646229,-0.246243,-0.472718,87.346555,19.998347,-62.644450
13266,NaN,-4.148913,8.299530,-0.064118,-0.054214,1.115889,-0.601240,-0.341042,-0.057100,-1.055828,0.544625,0.646486,-0.242181,-0.476223,87.133507,20.606415,-62.712686
13267,NaN,-4.400365,7.934011,-0.185993,-0.063157,1.416828,-0.849752,-0.208776,-0.065114,-1.007290,0.542755,0.647004,-0.238599,-0.479451,86.992934,21.186946,-62.786659
13268,NaN,-4.084244,8.263350,-0.313788,0.312197,1.046554,-0.654683,-0.116914,-0.175388,-0.953800,0.540570,0.647428,-0.235709,-0.482765,86.880181,21.732670,-62.928244
13269,NaN,-3.312307,8.424665,-0.610357,0.991479,0.427186,-0.804210,-0.087168,-0.286142,-0.983800,0.538071,0.647683,-0.233081,-0.486476,86.755992,22.292546,-63.140994
13270,NaN,-2.698081,8.217031,-0.846778,1.466448,0.020054,-1.247371,-0.051845,-0.298334,-1.073245,0.535211,0.648090,-0.230282,-0.490406,86.645633,22.901994,-63.366591
13271,NaN,-2.744255,8.059705,-0.943583,1.551051,0.070957,-1.388408,-0.005278,-0.262035,-1.155412,0.532022,0.648783,-0.227220,-0.494373,86.566117,23.560058,-63.574780
13272,NaN,-3.020940,8.006671,-0.883720,1.426635,0.198144,-1.331041,0.018247,-0.246818,-1.221311,0.528591,0.649627,-0.223959,-0.498417,86.500271,24.255359,-63.777938
13273,NaN,-3.092449,7.994668,-0.832649,1.405550,0.142658,-1.317141,0.010138,-0.262103,-1.268750,0.525028,0.650438,-0.220550,-0.502627,86.421604,24.977677,-63.994604
13274,NaN,-3.005818,7.872527,-0.837242,1.472467,0.020907,-1.473446,-0.002076,-0.289569,-1.304369,0.521364,0.651158,-0.217062,-0.507008,86.324536,25.718401,-64.232647
13275,NaN,-2.941627,7.801139,-0.868944,1.567246,-0.087577,-1.578551,-0.010721,-0.305259,-1.328407,0.517623,0.651813,-0.213500,-0.511491,86.213495,26.472486,-64.484571
13276,NaN,-2.832364,7.787265,-0.951874,1.739035,-0.230245,-1.658456,-0.020364,-0.297971,-1.348748,0.513847,0.652451,-0.209823,-0.515987,86.094202,27.237428,-64.736172
13277,NaN,-2.769306,7.835719,-1.069702,1.939375,-0.344198,-1.668300,-0.032938,-0.256579,-1.351609,0.510122,0.653137,-0.205984,-0.520344,85.975504,28.005669,-64.964567
13278,NaN,-2.705967,7.791422,-1.072505,2.011815,-0.472561,-1.756197,-0.063067,-0.184788,-1.324245,0.506618,0.653873,-0.201966,-0.524403,85.857898,28.760289,-65.148641
13279,NaN,-2.685807,7.636533,-1.010492,1.978031,-0.545619,-1.917115,-0.091417,-0.111523,-1.282669,0.503365,0.654660,-0.197814,-0.528123,85.745088,29.494248,-65.285611
13280,NaN,-2.743305,7.387271,-0.816329,1.767899,-0.569921,-2.111206,-0.092146,-0.067291,-1.224529,0.500293,0.655476,-0.193733,-0.531530,85.644708,30.196316,-65.393347
13281,NaN,-2.880668,7.214534,-0.671455,1.587744,-0.534468,-2.197483,-0.044661,-0.058293,-1.153614,0.497243,0.656346,-0.189981,-0.534665,85.574815,30.858328,-65.493156
13282,NaN,-3.028480,7.233880,-0.362882,1.305920,-0.643113,-2.098235,0.024768,-0.080848,-1.071430,0.494150,0.657226,-0.186734,-0.537587,85.536920,31.472111,-65.605462
13283,NaN,-3.169202,7.430257,-0.179845,1.183047,-0.777352,-1.857784,0.109263,-0.114347,-0.981640,0.490974,0.658126,-0.184088,-0.540302,85.537259,32.033149,-65.736143
13284,NaN,-3.342652,7.592662,-0.022784,1.056860,-0.858409,-1.629284,0.170962,-0.155487,-0.886097,0.487805,0.658960,-0.182019,-0.542851,85.558747,32.537731,-65.890597
13285,NaN,-3.385051,7.689246,-0.022782,1.091744,-0.937100,-1.535420,0.223943,-0.193248,-0.782786,0.484696,0.659717,-0.180524,-0.545210,85.599064,32.981634,-66.065375
13286,NaN,-3.363871,7.816314,0.001641,1.129304,-1.084439,-1.448551,0.275324,-0.237577,-0.676471,0.481662,0.660367,-0.179623,-0.547405,85.653272,33.363049,-66.265637
13287,NaN,-3.378025,7.889360,-0.004812,1.161359,-1.159787,-1.388971,0.296356,-0.275261,-0.573487,0.478798,0.660867,-0.179210,-0.549446,85.707827,33.683942,-66.486354
13288,NaN,-3.296928,7.997360,-0.185182,1.387318,-1.241754,-1.363129,0.307843,-0.317039,-0.461547,0.476162,0.661168,-0.179294,-0.551345,85.754177,33.939474,-66.730871
13289,NaN,-3.156881,8.090873,-0.191872,1.468331,-1.429981,-1.370886,0.305279,-0.358400,-0.358200,0.473776,0.661253,-0.179814,-0.553126,85.785950,34.133951,-66.998640
13290,NaN,-3.001139,8.193707,-0.221365,1.573758,-1.617123,-1.380557,0.297186,-0.383468,-0.252189,0.471685,0.661145,-0.180715,-0.554746,85.804561,34.267289,-67.279194
13291,NaN,-2.973789,8.384813,-0.228857,1.638826,-1.751378,-1.242519,0.300479,-0.408519,-0.145917,0.469850,0.660878,-0.182040,-0.556186,85.818809,34.338308,-67.571538
13292,NaN,-2.991272,8.742274,-0.115644,1.623113,-1.975736,-0.932913,0.287856,-0.421965,-0.034142,0.468354,0.660433,-0.183724,-0.557421,85.822468,34.345542,-67.868108
13293,NaN,-3.078594,9.101076,-0.005308,1.583013,-2.135944,-0.580183,0.285756,-0.431624,0.089578,0.467197,0.659843,-0.185840,-0.558389,85.826035,34.280825,-68.164557
13294,NaN,-3.215724,9.395222,0.043275,1.560787,-2.188814,-0.253088,0.265403,-0.417835,0.215198,0.466467,0.659118,-0.188272,-0.559040,85.826310,34.145772,-68.445245
13295,NaN,-3.337083,9.596680,0.152425,1.457792,-2.219234,-0.004254,0.251713,-0.404572,0.342154,0.466147,0.658277,-0.191063,-0.559351,85.829713,33.937587,-68.709405
13296,NaN,-3.373130,9.710216,0.058313,1.538024,-2.177642,0.115145,0.233402,-0.370234,0.467254,0.466265,0.657360,-0.194121,-0.559278,85.839313,33.660514,-68.943393
13297,NaN,-3.225079,9.741868,-0.100115,1.706028,-2.202018,0.064328,0.205017,-0.317416,0.590587,0.466868,0.656401,-0.197393,-0.558756,85.858826,33.313777,-69.133899
13298,NaN,-2.986229,9.895136,-0.394134,2.052577,-2.294449,0.061957,0.196959,-0.232572,0.707756,0.467901,0.655532,-0.200813,-0.557692,85.908506,32.905090,-69.260587
13299,NaN,-2.827109,10.498756,-0.588923,2.390921,-2.570727,0.494467,0.216670,-0.106642,0.818589,0.469299,0.654942,-0.204369,-0.555916,86.020742,32.436562,-69.296153
13300,NaN,-2.918777,11.257015,-0.642808,2.551139,-2.761591,1.210793,0.195086,0.035705,0.929701,0.471211,0.654567,-0.207875,-0.553435,86.172760,31.911867,-69.231914
13301,NaN,-3.218909,11.433927,-0.512266,2.322850,-2.564213,1.562125,0.124551,0.193117,1.027243,0.473778,0.654346,-0.211148,-0.550256,86.342009,31.335041,-69.059469
13302,NaN,-3.605582,11.100829,-0.216642,1.785020,-2.112960,1.528530,0.097517,0.319161,1.109602,0.476776,0.654299,-0.214293,-0.546494,86.536085,30.717239,-68.803049
13303,NaN,-3.996303,10.721217,0.191992,1.121717,-1.678661,1.451151,0.144157,0.387710,1.177692,0.479868,0.654456,-0.217637,-0.542262,86.778219,30.059523,-68.502675
13304,NaN,-4.290836,10.360943,0.626166,0.459958,-1.344080,1.328800,0.224104,0.398316,1.216950,0.482793,0.654762,-0.221272,-0.537806,87.062867,29.380915,-68.199695
13305,NaN,-4.347069,10.095315,0.992958,-0.049552,-1.223935,1.155278,0.326588,0.365430,1.213648,0.485321,0.655205,-0.225264,-0.533316,87.391259,28.699273,-67.924333
13306,NaN,-4.109756,10.158778,1.218180,-0.264200,-1.437290,1.116064,0.453065,0.303926,1.164517,0.487210,0.655818,-0.229550,-0.528996,87.764910,28.045421,-67.697009
13307,NaN,-3.691878,10.436874,1.163968,-0.122954,-1.786370,1.173907,0.573409,0.246029,1.097551,0.488446,0.656621,-0.234089,-0.524854,88.185642,27.424633,-67.515075
13308,NaN,-3.273161,10.867963,0.703005,0.417029,-2.048593,1.365335,0.649140,0.227616,1.001519,0.489137,0.657647,-0.238524,-0.520914,88.637531,26.860085,-67.353040
13309,NaN,-2.991795,11.600568,0.194214,1.006840,-2.309742,1.901046,0.648651,0.239403,0.910519,0.489594,0.658789,-0.242646,-0.517125,89.089456,26.343746,-67.190423
13310,NaN,-2.711755,12.189993,-0.331430,1.585651,-2.507943,2.322139,0.519559,0.283720,0.822527,0.490284,0.659816,-0.246005,-0.513562,89.474766,25.880022,-67.005048
13311,NaN,-2.443587,12.346942,-0.783959,2.030932,-2.550077,2.369438,0.301166,0.386251,0.741454,0.491607,0.660656,-0.248305,-0.510100,89.761517,25.458943,-66.758699
13312,NaN,-2.118982,12.283735,-1.130033,2.386699,-2.590570,2.197688,0.076177,0.528341,0.673226,0.493660,0.661378,-0.249425,-0.506622,89.953629,25.079460,-66.425038
13313,NaN,-1.909807,12.277903,-1.277126,2.553493,-2.630526,2.128196,-0.136807,0.704746,0.614549,0.496486,0.662079,-0.249400,-0.502944,90.069269,24.729182,-65.982268
13314,NaN,-1.934995,12.222957,-1.232251,2.473526,-2.528887,2.109944,-0.349492,0.894260,0.564737,0.500107,0.662776,-0.248170,-0.499032,90.108208,24.410318,-65.421546
13315,NaN,-2.178368,12.036437,-1.029895,2.162521,-2.257563,2.057782,-0.538073,1.056114,0.538991,0.504480,0.663410,-0.246002,-0.494844,90.079018,24.102045,-64.760792
13316,NaN,-2.372875,11.491616,-1.391681,2.326173,-1.655311,1.653469,-0.640417,1.195806,0.503485,0.509245,0.664147,-0.243067,-0.490405,90.021630,23.818464,-64.013419
13317,NaN,-1.702693,11.949899,-0.330691,1.747151,-2.752916,1.813868,-0.863948,1.528896,0.415297,0.514915,0.665191,-0.238461,-0.485303,89.917910,23.582191,-63.059076
13318,NaN,-3.109976,11.178626,-0.045270,0.819819,-1.383491,1.678562,-1.188157,1.515134,0.285271,0.521279,0.665468,-0.232617,-0.480947,89.620162,23.427731,-62.113838
13319,NaN,-4.976907,10.280865,0.112540,-0.245229,0.427683,1.599372,-1.167221,1.285226,0.239797,0.527161,0.665239,-0.227287,-0.477388,89.276582,23.298349,-61.312930
13320,NaN,-4.307167,9.743234,0.603540,-0.450142,-0.109833,0.847114,-1.181078,1.137263,0.457127,0.533393,0.664327,-0.222985,-0.473750,88.885748,23.052383,-60.601847
13321,NaN,-3.654893,9.120487,0.725091,-0.352028,-0.420095,0.024302,-1.137577,0.920552,0.476862,0.539260,0.662949,-0.219450,-0.470679,88.465977,22.792353,-60.025260
13322,NaN,-3.321240,8.480554,0.538200,-0.140668,-0.320818,-0.695837,-1.012572,0.834661,0.502791,0.544641,0.661647,-0.216480,-0.467682,88.094130,22.524195,-59.500170
13323,NaN,-1.954342,8.179475,0.128719,0.809039,-1.036826,-1.505471,-0.932452,1.044216,0.571348,0.550125,0.660938,-0.213376,-0.463674,87.816974,22.219285,-58.843872
13324,NaN,-0.671597,7.954218,-0.220133,1.693109,-1.732649,-2.203487,-0.878501,1.542240,0.514046,0.555782,0.661552,-0.208789,-0.458108,87.681878,21.965099,-57.880782
13325,NaN,-0.588474,7.609200,-0.030527,1.520670,-1.738650,-2.538658,-0.848257,2.269995,0.412172,0.561810,0.663940,-0.201924,-0.450312,87.727455,21.781898,-56.473229
13326,NaN,-1.478392,7.098808,0.342311,0.650000,-1.079215,-2.663655,-0.798449,2.964142,0.299531,0.568001,0.668021,-0.192772,-0.440411,87.954184,21.679800,-54.641600
13327,NaN,-2.885928,6.727173,0.762446,-0.551428,-0.168329,-2.475650,-0.702125,3.392795,0.181643,0.573883,0.673247,-0.182206,-0.429182,88.330638,21.639285,-52.550579
13328,NaN,-4.206780,6.742701,1.023956,-1.550372,0.576909,-1.972277,-0.597934,3.483634,0.145966,0.579234,0.678800,-0.171390,-0.417544,88.785181,21.611356,-50.404100
13329,NaN,-4.922984,6.742010,1.103789,-2.111035,0.947071,-1.716141,-0.540387,3.281450,0.197289,0.584166,0.683846,-0.161439,-0.406253,89.224922,21.531607,-48.383738
13330,NaN,-5.001383,6.681274,0.888348,-2.094807,1.072616,-1.756470,-0.483857,2.878852,0.262938,0.588558,0.688027,-0.152928,-0.396020,89.602206,21.403313,-46.611876
13331,NaN,-4.871794,6.694652,0.540807,-1.832559,1.155674,-1.803274,-0.438895,2.390406,0.338380,0.592477,0.691181,-0.146208,-0.387122,89.890303,21.216438,-45.144056
13332,NaN,-4.948989,6.676802,0.139934,-1.673453,1.455366,-1.801896,-0.396889,1.849485,0.408730,0.595907,0.693286,-0.141364,-0.379824,90.077167,20.988044,-44.010204
13333,NaN,-5.089152,6.752646,-0.225412,-1.556417,1.777162,-1.690650,-0.380527,1.273743,0.476168,0.598972,0.694240,-0.138521,-0.374267,90.141695,20.715073,-43.232995
13334,NaN,-5.063057,6.764903,-0.504873,-1.393687,1.973849,-1.700062,-0.367229,0.674257,0.569389,0.601716,0.694031,-0.137786,-0.370504,90.081223,20.393588,-42.823134
13335,NaN,-4.932275,6.788002,-0.729452,-1.181026,2.088989,-1.739436,-0.360149,0.111976,0.679463,0.604253,0.692705,-0.139164,-0.368336,89.903277,20.005845,-42.757833
13336,NaN,-4.652818,6.828247,-0.854677,-0.915480,2.053053,-1.815777,-0.357597,-0.322795,0.756503,0.606598,0.690529,-0.142095,-0.367447,89.637791,19.577154,-42.954615
13337,NaN,-4.317806,6.908315,-0.731393,-0.762253,1.802995,-1.870974,-0.348830,-0.606612,0.821388,0.608827,0.687788,-0.146151,-0.367312,89.322354,19.105203,-43.321468
13338,NaN,-4.218721,6.864975,-0.585540,-0.814514,1.723120,-1.961884,-0.317117,-0.823500,0.887259,0.610877,0.684681,-0.151121,-0.367701,88.987495,18.595404,-43.814182
13339,NaN,-4.320314,6.639450,-0.397067,-1.077027,1.787071,-2.160841,-0.270349,-0.963405,0.923216,0.612711,0.681397,-0.156745,-0.368394,88.658489,18.057214,-44.387080
13340,NaN,-4.263997,6.321411,-0.182997,-1.271615,1.746174,-2.497730,-0.183135,-1.033729,0.941911,0.614188,0.678210,-0.162777,-0.369198,88.373512,17.507823,-44.996365
13341,NaN,-4.128658,6.121896,0.022494,-1.383162,1.629368,-2.744776,-0.047435,-1.061834,0.940943,0.615159,0.675349,-0.169157,-0.369958,88.168029,16.952823,-45.618939
13342,NaN,-4.019334,6.104236,0.297450,-1.526704,1.439160,-2.805356,0.097751,-1.048798,0.909103,0.615553,0.672959,-0.175627,-0.370644,88.054565,16.417850,-46.230204
13343,NaN,-3.975642,6.267563,0.535043,-1.657519,1.281032,-2.672275,0.275815,-1.021376,0.854057,0.615248,0.671178,-0.182170,-0.371221,88.053239,15.911407,-46.824700
13344,NaN,-3.972691,6.812973,0.657947,-1.663704,1.155774,-2.162351,0.456160,-0.989969,0.785947,0.614204,0.670047,-0.188694,-0.371733,88.165082,15.448050,-47.400267
13345,NaN,-3.937470,7.472901,0.612151,-1.518458,1.094537,-1.553236,0.595414,-0.928777,0.712831,0.612595,0.669491,-0.195054,-0.372106,88.370120,15.026470,-47.941526
13346,NaN,-3.886883,8.064232,0.484905,-1.330840,1.076327,-1.012411,0.681026,-0.823667,0.633912,0.610623,0.669449,-0.200960,-0.372280,88.643304,14.656535,-48.421922
13347,NaN,-3.944669,8.633606,0.470680,-1.313788,1.051280,-0.459106,0.750851,-0.690592,0.563519,0.608404,0.669908,-0.206364,-0.372131,88.978451,14.328501,-48.826258
13348,NaN,-4.220137,9.142153,0.385224,-1.403302,1.231248,0.089398,0.776684,-0.573685,0.489582,0.606056,0.670724,-0.211189,-0.371786,89.346929,14.048688,-49.163103
13349,NaN,-4.417718,9.693753,0.294395,-1.439478,1.341172,0.661111,0.795055,-0.470187,0.435983,0.603645,0.671820,-0.215565,-0.371217,89.741664,13.799973,-49.441138
13350,NaN,-4.565839,10.423042,0.217399,-1.435496,1.364946,1.394885,0.802857,-0.401157,0.395197,0.601185,0.673101,-0.219588,-0.370531,90.151298,13.578824,-49.679474
13351,NaN,-4.777565,11.300326,0.276390,-1.564064,1.315171,2.287822,0.770686,-0.341913,0.371482,0.598846,0.674400,-0.223303,-0.369735,90.551142,13.370668,-49.884664
13352,NaN,-5.096896,11.751234,0.304245,-1.801909,1.442544,2.790253,0.665735,-0.302529,0.338422,0.596827,0.675486,-0.226576,-0.369024,90.896699,13.184495,-50.067172
13353,NaN,-5.220188,11.873381,0.130515,-1.799036,1.617274,2.930630,0.545294,-0.272111,0.296706,0.595169,0.676303,-0.229405,-0.368458,91.177650,13.021102,-50.232668
13354,NaN,-4.905881,12.120657,-0.087943,-1.462352,1.469503,3.098066,0.473188,-0.231498,0.247326,0.593699,0.677034,-0.231798,-0.367989,91.423145,12.887982,-50.373884
13355,NaN,-4.605032,12.709618,-0.228059,-1.145672,1.215015,3.603859,0.385025,-0.194031,0.186869,0.592461,0.677633,-0.233721,-0.367665,91.623290,12.787940,-50.492971
13356,NaN,-4.730580,12.657109,0.028120,-1.464360,1.154429,3.570305,0.204803,-0.173774,0.137607,0.591759,0.677795,-0.235075,-0.367634,91.723222,12.717590,-50.599181
13357,NaN,-5.032419,11.465270,0.493594,-2.165580,1.320761,2.458708,0.028695,-0.183944,0.083115,0.591544,0.677476,-0.235960,-0.368000,91.721108,12.677401,-50.710759
13358,NaN,-5.176346,10.198120,0.910348,-2.724493,1.416464,1.241529,0.032721,-0.239019,0.025268,0.591140,0.677139,-0.236809,-0.368723,91.714611,12.672589,-50.853315
13359,NaN,-5.117268,9.859308,1.003037,-2.797682,1.381234,0.895423,0.168842,-0.318422,-0.033169,0.590076,0.677122,-0.237952,-0.369723,91.775821,12.701683,-51.041729
13360,NaN,-5.122549,10.188609,1.043032,-2.795151,1.292759,1.216913,0.273889,-0.451203,-0.091586,0.588383,0.677239,-0.239476,-0.371221,91.880371,12.767935,-51.306712
13361,NaN,-5.303134,10.422701,0.803311,-2.686309,1.525321,1.494760,0.279647,-0.616886,-0.150737,0.586360,0.677125,-0.241299,-0.373441,91.966124,12.870976,-51.668055
13362,NaN,-5.270151,10.705143,0.493856,-2.375722,1.624599,1.777612,0.292277,-0.785667,-0.214050,0.583960,0.676803,-0.243418,-0.376399,92.036816,13.014828,-52.127046
13363,NaN,-5.075002,11.379270,0.116861,-1.861156,1.553172,2.409454,0.313267,-0.929995,-0.269973,0.581198,0.676319,-0.245805,-0.379975,92.098784,13.193812,-52.670035
13364,NaN,-5.031138,12.405534,-0.102151,-1.512848,1.417843,3.413077,0.280891,-1.069584,-0.338474,0.578223,0.675544,-0.248296,-0.384250,92.122218,13.415748,-53.293768
13365,NaN,-4.839060,13.183884,-0.354976,-1.060046,1.229036,4.141621,0.148776,-1.173182,-0.372576,0.575482,0.674202,-0.250708,-0.389125,92.052680,13.658974,-53.978646
13366,NaN,-4.777028,13.466117,-0.506701,-0.793834,1.188509,4.412980,-0.036704,-1.292213,-0.395029,0.573145,0.672098,-0.253015,-0.394680,91.857571,13.916001,-54.734390
13367,NaN,-4.778552,13.167413,-0.660175,-0.599521,1.327895,4.134617,-0.168054,-1.402761,-0.471066,0.570934,0.669458,-0.255110,-0.400973,91.567073,14.215357,-55.556223
13368,NaN,-4.333277,12.683213,-0.633551,-0.312329,1.051098,3.560376,-0.315402,-1.427362,-0.520171,0.569050,0.666375,-0.256802,-0.407651,91.184194,14.538489,-56.394702
13369,NaN,-4.049604,12.077287,-0.651123,-0.087142,0.955120,2.905909,-0.426281,-1.442893,-0.581875,0.567356,0.662979,-0.258089,-0.414676,90.729368,14.891296,-57.245577
13370,NaN,-3.727865,11.636907,-0.607715,0.128269,0.755882,2.397733,-0.523566,-1.457340,-0.652247,0.565780,0.659326,-0.258966,-0.422042,90.210684,15.277365,-58.109111
13371,NaN,-3.670280,11.112200,-0.467076,0.114824,0.742257,1.875086,-0.629527,-1.557410,-0.669338,0.564345,0.655131,-0.259824,-0.429895,89.607870,15.665143,-59.037703
13372,NaN,-3.597569,10.467212,-0.406627,0.163372,0.796113,1.233020,-0.756045,-1.778129,-0.661480,0.563001,0.650036,-0.261036,-0.438570,88.889486,16.036234,-60.103915
13373,NaN,-3.094803,9.046693,-1.488987,1.282502,1.243884,-0.302521,-0.812965,-2.015017,-0.665941,0.561458,0.644189,-0.262743,-0.448053,88.090145,16.392924,-61.318525
13374,NaN,-0.773136,8.210114,-1.977735,2.777658,-0.315561,-1.806525,-0.698815,-1.795143,-0.978441,0.559066,0.639488,-0.263052,-0.457497,87.381032,16.917886,-62.416621
13375,NaN,0.134348,7.979285,-1.670733,2.972417,-1.243702,-2.323027,-0.661628,-1.140524,-1.201809,0.556850,0.636619,-0.260875,-0.465380,86.793622,17.577940,-63.138932
13376,NaN,-1.068183,7.696562,-1.020242,1.921156,-0.523285,-2.232902,-0.667163,-0.481855,-1.275346,0.555301,0.635319,-0.256600,-0.471345,86.313236,18.296114,-63.477134
13377,NaN,-2.443916,7.095439,-0.437937,0.795278,0.461556,-2.351905,-0.594068,-0.201562,-1.305974,0.553777,0.634887,-0.251609,-0.476385,85.922095,19.040153,-63.654654
13378,NaN,-3.002713,6.694788,0.068644,0.111027,0.735201,-2.512863,-0.406520,-0.210228,-1.345444,0.551524,0.634971,-0.246949,-0.481301,85.632014,19.805414,-63.844685
13379,NaN,-2.865688,7.017403,0.200168,0.192878,0.393868,-2.242819,-0.180210,-0.288172,-1.378584,0.548347,0.635500,-0.242932,-0.486251,85.450900,20.585382,-64.087972
13380,NaN,-2.701180,7.680911,-0.119962,0.756718,0.124545,-1.706032,-0.015949,-0.312702,-1.439041,0.544443,0.636458,-0.239175,-0.491220,85.353003,21.398203,-64.352578
13381,NaN,-2.987214,7.912457,-0.330363,0.943286,0.286935,-1.406374,0.044707,-0.288079,-1.489079,0.540222,0.637667,-0.235329,-0.496146,85.290151,22.240395,-64.607230
13382,NaN,-3.614888,7.951292,-0.448993,0.870934,0.740600,-1.141838,0.071273,-0.262158,-1.477040,0.535945,0.638961,-0.231502,-0.500898,85.244390,23.076720,-64.847679
13383,NaN,-3.879812,7.945064,-0.446205,0.824867,0.848213,-1.039155,0.094258,-0.277474,-1.418427,0.531693,0.640176,-0.227949,-0.505486,85.205495,23.878688,-65.096647
13384,NaN,-3.696504,8.005864,-0.593397,1.100492,0.632768,-1.066407,0.098432,-0.329178,-1.344971,0.527529,0.641153,-0.224768,-0.510015,85.152981,24.636042,-65.376428
13385,NaN,-3.441491,8.043342,-0.743482,1.398007,0.372419,-1.152564,0.073713,-0.397626,-1.284180,0.523495,0.641795,-0.221888,-0.514605,85.065502,25.355073,-65.698546
13386,NaN,-3.240633,8.031664,-0.817764,1.594531,0.146356,-1.262068,0.033699,-0.471031,-1.231904,0.519621,0.642053,-0.219255,-0.519316,84.930699,26.039995,-66.067863
13387,NaN,-3.009961,7.987511,-0.965984,1.859480,-0.054098,-1.426285,-0.004109,-0.541602,-1.197111,0.515856,0.641967,-0.216810,-0.524180,84.750004,26.700511,-66.484102
13388,NaN,-2.731078,7.941813,-0.990447,2.028464,-0.342133,-1.610276,-0.031100,-0.585209,-1.154988,0.512221,0.641620,-0.214532,-0.529084,84.535250,27.333371,-66.930914
13389,NaN,-2.562482,7.955972,-1.021430,2.176924,-0.554854,-1.697306,-0.054671,-0.602508,-1.113575,0.508728,0.641100,-0.212361,-0.533938,84.297105,27.939981,-67.391245
13390,NaN,-2.513465,7.959272,-0.941951,2.179999,-0.708385,-1.731858,-0.083205,-0.595963,-1.066787,0.505441,0.640446,-0.210238,-0.538664,84.038424,28.518621,-67.850098
13391,NaN,-2.549213,7.950297,-0.871211,2.157292,-0.779031,-1.737837,-0.097256,-0.570049,-1.008285,0.502363,0.639746,-0.208194,-0.543150,83.776247,29.063430,-68.293077
13392,NaN,-2.595837,8.028551,-0.788445,2.141775,-0.876284,-1.660267,-0.090899,-0.526024,-0.933772,0.499500,0.639079,-0.206285,-0.547288,83.527364,29.567091,-68.707349
13393,NaN,-2.641664,8.145571,-0.727381,2.153014,-0.976428,-1.550216,-0.081175,-0.473552,-0.840455,0.496899,0.638472,-0.204570,-0.550996,83.300769,30.019196,-69.084013
13394,NaN,-2.745307,8.302908,-0.549676,2.047965,-1.088850,-1.363013,-0.072503,-0.416898,-0.735813,0.494608,0.637917,-0.203062,-0.554248,83.096551,30.414764,-69.419237
13395,NaN,-2.836212,8.392027,-0.414546,1.960745,-1.158447,-1.242083,-0.049665,-0.373655,-0.625615,0.492584,0.637422,-0.201866,-0.557050,82.922735,30.749164,-69.719169
13396,NaN,-2.983257,8.487465,-0.223453,1.802301,-1.200358,-1.077845,-0.016815,-0.366360,-0.504589,0.490796,0.636893,-0.201119,-0.559498,82.771491,31.015101,-70.006821
13397,NaN,-3.078618,8.516046,-0.115724,1.709551,-1.212786,-1.002421,0.016567,-0.373496,-0.389652,0.489209,0.636311,-0.200856,-0.561640,82.641886,31.213865,-70.290283
13398,NaN,-3.146590,8.649673,-0.007390,1.649423,-1.285298,-0.849134,0.061863,-0.405908,-0.275936,0.487764,0.635623,-0.201152,-0.563566,82.529269,31.345834,-70.587069
13399,NaN,-3.236829,8.825126,-0.058377,1.735559,-1.287507,-0.664275,0.087228,-0.458454,-0.170912,0.486476,0.634747,-0.201990,-0.565365,82.418849,31.412815,-70.909533
13400,NaN,-3.235282,9.051546,-0.020113,1.778141,-1.413576,-0.472562,0.095543,-0.501311,-0.077689,0.485382,0.633664,-0.203240,-0.567070,82.300503,31.423938,-71.253153
13401,NaN,-3.252748,9.360279,0.053623,1.803024,-1.567266,-0.195472,0.120796,-0.536580,0.001937,0.484391,0.632464,-0.204910,-0.568654,82.190220,31.385474,-71.612296
13402,NaN,-3.350908,9.751825,0.066674,1.882636,-1.662189,0.188509,0.126782,-0.567706,0.081116,0.483573,0.631097,-0.206908,-0.570143,82.074913,31.300094,-71.985227
13403,NaN,-3.383261,9.995093,0.141354,1.877608,-1.759701,0.421879,0.118235,-0.583291,0.142638,0.482934,0.629602,-0.209127,-0.571525,81.955352,31.176646,-72.361435
13404,NaN,-3.376946,10.308028,0.058317,2.045858,-1.854835,0.677146,0.120570,-0.565165,0.204245,0.482481,0.628088,-0.211486,-0.572705,81.845417,31.020336,-72.719705
13405,NaN,-3.155574,10.632460,0.033260,2.214409,-2.147943,0.840510,0.113103,-0.515026,0.239327,0.482198,0.626663,-0.213828,-0.573634,81.753634,30.846206,-73.039805
13406,NaN,-2.967045,10.894253,-0.096318,2.449958,-2.347042,0.957012,0.091391,-0.430858,0.260500,0.482133,0.625393,-0.215953,-0.574278,81.677846,30.668102,-73.302193
13407,NaN,-2.753124,11.204065,-0.238360,2.712857,-2.583267,1.102194,0.080528,-0.303986,0.275807,0.482278,0.624449,-0.217806,-0.574484,81.642628,30.489884,-73.478128
13408,NaN,-2.553695,11.856233,-0.497588,3.171797,-2.916744,1.535062,0.092803,-0.138328,0.294118,0.482617,0.623980,-0.219332,-0.574127,81.668586,30.316810,-73.543828
13409,NaN,-2.471424,12.817120,-0.807198,3.727067,-3.267001,2.289940,0.078349,0.073433,0.325121,0.483321,0.624056,-0.220425,-0.573033,81.760566,30.141582,-73.466932
13410,NaN,-2.502825,13.402431,-0.893342,3.940884,-3.427057,2.813152,-0.038474,0.318090,0.368892,0.484783,0.624493,-0.220705,-0.571212,81.864787,29.963498,-73.226854
13411,NaN,-2.853837,13.044325,-0.768089,3.621676,-2.974099,2.714349,-0.193647,0.551947,0.423310,0.487138,0.625163,-0.220169,-0.568677,81.960735,29.770445,-72.828770
13412,NaN,-3.362651,12.050776,-0.329486,2.796273,-2.225049,2.181763,-0.268287,0.692290,0.495975,0.490081,0.625952,-0.219276,-0.565617,82.057714,29.549346,-72.334358
13413,NaN,-3.999780,10.995610,0.282244,1.749348,-1.414800,1.672918,-0.261812,0.725331,0.555164,0.493196,0.626781,-0.218531,-0.562270,82.172215,29.293477,-71.813944
13414,NaN,-4.166478,10.225738,0.767744,1.014141,-1.081734,1.156166,-0.178221,0.658477,0.599157,0.496090,0.627559,-0.218289,-0.558941,82.309019,29.009452,-71.335866
13415,NaN,-4.032300,10.000829,1.139845,0.610215,-1.191548,0.947553,-0.008384,0.510456,0.605490,0.498299,0.628333,-0.218937,-0.555844,82.497051,28.706255,-70.954795
13416,NaN,-3.832023,10.210782,1.124862,0.696991,-1.392286,1.040202,0.119393,0.314500,0.564638,0.499771,0.628911,-0.220265,-0.553339,82.690032,28.413873,-70.706849
13417,NaN,-3.522586,10.456445,0.941087,0.977843,-1.635095,1.096093,0.196102,0.132568,0.511327,0.500650,0.629236,-0.222123,-0.551428,82.870530,28.134649,-70.581807
13418,NaN,-3.198264,10.757226,0.564615,1.455680,-1.840963,1.176268,0.253984,-0.035491,0.475443,0.501058,0.629271,-0.224414,-0.550088,83.027761,27.867024,-70.569723
13419,NaN,-2.988630,10.957845,0.366891,1.709194,-1.981926,1.245850,0.251080,-0.112189,0.447784,0.501309,0.629121,-0.226834,-0.549037,83.162163,27.606290,-70.609308
13420,NaN,-2.794313,10.885753,0.244214,1.821974,-2.031899,1.092312,0.189708,-0.105164,0.448085,0.501759,0.628826,-0.229035,-0.548050,83.260227,27.349465,-70.645430
13421,NaN,-2.667525,10.708834,0.190037,1.829620,-2.008523,0.885398,0.122924,-0.027717,0.464183,0.502549,0.628559,-0.230942,-0.546830,83.346501,27.084938,-70.630634
13422,NaN,-2.626521,10.456869,0.229186,1.711950,-1.917442,0.660595,0.057571,0.080394,0.499839,0.503763,0.628373,-0.232475,-0.545276,83.424259,26.811002,-70.545155
13423,NaN,-2.501964,10.189458,0.373204,1.520798,-1.927366,0.394973,0.003107,0.204396,0.546446,0.505417,0.628334,-0.233729,-0.543250,83.510461,26.514500,-70.377467
13424,NaN,-2.482389,9.822841,0.622711,1.178269,-1.851295,0.098031,-0.032507,0.331080,0.582318,0.507422,0.628496,-0.234639,-0.540796,83.608579,26.209487,-70.128148
13425,NaN,-2.465149,9.449089,0.974773,0.738604,-1.812353,-0.195931,-0.051193,0.455380,0.618568,0.509726,0.628901,-0.235333,-0.537849,83.733244,25.887002,-69.798429
13426,NaN,-2.491734,8.962845,1.211922,0.362358,-1.656582,-0.585864,-0.049873,0.564920,0.644362,0.512213,0.629558,-0.235790,-0.534507,83.883709,25.560129,-69.399830
13427,NaN,-2.580135,8.425912,1.181271,0.196556,-1.332309,-1.024366,-0.043580,0.655561,0.651520,0.514799,0.630457,-0.236089,-0.530818,84.062748,25.229149,-68.945440
13428,NaN,-2.339531,8.130991,1.047029,0.292625,-1.339256,-1.398220,-0.068040,0.830014,0.632267,0.517602,0.631759,-0.235768,-0.526671,84.267248,24.922383,-68.385183
13429,NaN,-2.174419,8.190323,1.675482,-0.230461,-1.724400,-1.351600,-0.286508,1.045498,0.542863,0.521101,0.633152,-0.234065,-0.522289,84.400642,24.672671,-67.697261
13430,NaN,-3.968649,7.634593,1.766825,-1.080176,-0.039417,-1.095436,-0.454698,0.891042,0.457692,0.524708,0.633779,-0.232008,-0.518824,84.389040,24.466833,-67.113124
13431,NaN,-4.407266,7.057959,1.503946,-1.155672,0.661808,-1.462419,-0.447453,0.687446,0.560663,0.528314,0.633762,-0.230863,-0.515686,84.331873,24.186446,-66.650977
13432,NaN,-2.444370,6.751440,1.166825,-0.231061,-0.696805,-2.575335,-0.447030,0.684408,0.733876,0.532343,0.633519,-0.230231,-0.512111,84.272990,23.812251,-66.180855
13433,NaN,-0.846475,6.830087,0.971159,0.553991,-1.929472,-3.158381,-0.496050,0.966240,0.722656,0.536810,0.633859,-0.228718,-0.507687,84.255495,23.456204,-65.537161
13434,NaN,-0.905541,7.077298,0.737507,0.810965,-1.812338,-2.919960,-0.559904,1.434974,0.619672,0.541718,0.635299,-0.225407,-0.502124,84.307637,23.190119,-64.610435
13435,NaN,-1.966971,7.065192,0.547726,0.557821,-0.805280,-2.523915,-0.627811,1.879528,0.542910,0.547110,0.637702,-0.220499,-0.495365,84.425184,22.986624,-63.415106
13436,NaN,-2.752354,6.980831,0.507954,0.230441,-0.093916,-2.295808,-0.653605,2.241166,0.475980,0.552744,0.640927,-0.214256,-0.487628,84.607056,22.843151,-62.001730
13437,NaN,-3.137130,7.130514,0.509954,0.068699,0.180613,-2.008303,-0.671481,2.561417,0.446149,0.558625,0.644810,-0.206996,-0.478864,84.853148,22.723643,-60.394157
13438,NaN,-3.844570,7.255357,0.873089,-0.575266,0.513734,-1.591490,-0.720503,2.772356,0.486946,0.564864,0.648895,-0.199080,-0.469288,85.116079,22.589875,-58.655637
13439,NaN,-4.757196,6.925942,0.925297,-1.210916,1.273624,-1.544265,-0.669492,2.596173,0.478602,0.570639,0.652588,-0.191754,-0.460141,85.363235,22.440287,-57.029338
13440,NaN,-4.979710,6.699599,0.680796,-1.257534,1.619320,-1.692248,-0.539888,2.172748,0.474573,0.575479,0.655581,-0.185852,-0.452214,85.578216,22.272853,-55.666797
13441,NaN,-4.634039,6.904278,0.275444,-0.763568,1.524725,-1.669527,-0.392843,1.758315,0.522478,0.579505,0.657941,-0.181649,-0.445299,85.778064,22.050696,-54.560764
13442,NaN,-4.110554,7.234149,-0.030436,-0.209278,1.232761,-1.586710,-0.333692,1.447688,0.579444,0.583131,0.659682,-0.178614,-0.439176,85.934500,21.784840,-53.645653
13443,NaN,-4.006217,7.197077,-0.216904,-0.071310,1.298502,-1.676148,-0.295083,1.188659,0.610595,0.586442,0.660900,-0.176549,-0.433736,86.051047,21.484033,-52.891502
13444,NaN,-3.998638,7.097982,-0.360747,-0.034412,1.433032,-1.784889,-0.233981,0.945574,0.636346,0.589362,0.661724,-0.175369,-0.428975,86.142806,21.162507,-52.287087
13445,NaN,-3.984929,7.143806,-0.279537,-0.128895,1.390895,-1.747934,-0.142726,0.731282,0.690684,0.591898,0.662288,-0.175228,-0.424649,86.237883,20.796216,-51.814164
13446,NaN,-4.119916,7.282886,-0.221540,-0.265919,1.452734,-1.573651,-0.052388,0.521596,0.712409,0.593977,0.662642,-0.175931,-0.420885,86.335112,20.413608,-51.469748
13447,NaN,-4.378953,7.341111,-0.122859,-0.531082,1.602535,-1.432253,0.031759,0.302916,0.772332,0.595707,0.662720,-0.177691,-0.417566,86.433812,19.983809,-51.258385
13448,NaN,-4.462482,7.330602,0.055150,-0.774463,1.593352,-1.415337,0.114711,0.111473,0.842206,0.597121,0.662573,-0.180388,-0.414613,86.538265,19.511451,-51.161630
13449,NaN,-4.320482,7.299796,0.237725,-0.897264,1.425269,-1.495651,0.203980,-0.011106,0.922675,0.598289,0.662351,-0.183933,-0.411716,86.670433,18.984451,-51.138059
13450,NaN,-4.177294,7.289778,0.389487,-0.994432,1.272784,-1.558422,0.295818,-0.079798,0.960116,0.599147,0.662214,-0.187958,-0.408861,86.840290,18.438018,-51.155740
13451,NaN,-4.114599,7.332653,0.578259,-1.161053,1.144518,-1.543861,0.393834,-0.121308,0.991113,0.599694,0.662237,-0.192437,-0.405928,87.059726,17.868582,-51.199785
13452,NaN,-4.154740,7.413128,0.751032,-1.374333,1.093964,-1.464388,0.480129,-0.149332,1.008554,0.599940,0.662427,-0.197195,-0.402960,87.322060,17.292621,-51.262023
13453,NaN,-4.217546,7.475805,0.926315,-1.614118,1.062099,-1.398461,0.547029,-0.153794,1.012662,0.599954,0.662781,-0.202139,-0.399896,87.623050,16.710640,-51.330050
13454,NaN,-4.297703,7.747121,1.148035,-1.862092,0.970727,-1.129626,0.620069,-0.158744,0.992072,0.599654,0.663344,-0.207139,-0.396842,87.963389,16.144564,-51.404212
13455,NaN,-4.580403,8.083721,1.311221,-2.182121,1.055713,-0.747986,0.664124,-0.177061,0.956892,0.599103,0.664015,-0.212185,-0.393876,88.326760,15.595118,-51.493822
13456,NaN,-4.870603,8.387754,1.547992,-2.576342,1.107626,-0.399498,0.679380,-0.210581,0.912886,0.598354,0.664690,-0.217180,-0.391142,88.692144,15.074557,-51.606925
13457,NaN,-5.188853,8.609278,1.750352,-2.978489,1.221339,-0.130560,0.675878,-0.278865,0.854635,0.597413,0.665262,-0.222198,-0.388784,89.046223,14.583941,-51.764738
13458,NaN,-5.469026,8.895707,1.868478,-3.279525,1.348951,0.185273,0.687243,-0.363109,0.782445,0.596178,0.665765,-0.227216,-0.386913,89.393812,14.138313,-51.975241
13459,NaN,-5.673710,9.300366,1.873740,-3.427544,1.469565,0.593570,0.694001,-0.458985,0.717964,0.594672,0.666154,-0.232335,-0.385519,89.733428,13.727438,-52.245421
13460,NaN,-5.825268,9.763159,1.834095,-3.497996,1.568917,1.046350,0.680257,-0.577053,0.654371,0.592931,0.666329,-0.237536,-0.384727,90.049295,13.357377,-52.586762
13461,NaN,-5.825302,10.428949,1.771511,-3.430669,1.530307,1.664392,0.659415,-0.675757,0.580495,0.590984,0.666318,-0.242757,-0.384482,90.342395,13.028983,-52.987968
13462,NaN,-5.787333,11.144622,1.739627,-3.358044,1.433689,2.327725,0.603856,-0.733598,0.503501,0.588984,0.666108,-0.247758,-0.384727,90.597266,12.749466,-53.423494
13463,NaN,-5.763843,11.644896,1.571345,-3.205734,1.467534,2.791432,0.497450,-0.747033,0.413102,0.587135,0.665650,-0.252302,-0.385392,90.791871,12.521246,-53.867318
13464,NaN,-5.701966,11.880131,1.402506,-3.046759,1.514969,2.995079,0.359676,-0.711587,0.304373,0.585563,0.664981,-0.256093,-0.386436,90.913080,12.358462,-54.289328
13465,NaN,-5.567948,11.852152,1.113703,-2.760880,1.614985,2.934279,0.245391,-0.638779,0.192459,0.584243,0.664248,-0.259088,-0.387696,90.979475,12.257866,-54.667951
13466,NaN,-5.174625,11.905469,0.901514,-2.365756,1.435548,2.902345,0.143300,-0.523943,0.066757,0.583157,0.663599,-0.261116,-0.389080,91.001939,12.230342,-54.977641
13467,NaN,-4.743890,11.696522,0.921273,-2.155990,1.127140,2.606778,0.030943,-0.371158,-0.061997,0.582393,0.663080,-0.262062,-0.390469,90.979552,12.273458,-55.196753
13468,NaN,-4.605867,11.061716,1.008475,-2.198689,1.081021,1.959725,-0.080574,-0.203693,-0.194069,0.581956,0.662738,-0.261853,-0.391840,90.913911,12.392092,-55.316199
13469,NaN,-4.601452,10.012848,1.174837,-2.417852,1.163142,0.939601,-0.135814,-0.061648,-0.331804,0.581619,0.662690,-0.260675,-0.393206,90.834708,12.586874,-55.351544
13470,NaN,-4.474219,9.192950,1.197743,-2.424855,1.173682,0.122397,-0.094520,0.008409,-0.462893,0.580973,0.663069,-0.258929,-0.394671,90.788107,12.857521,-55.344650
13471,NaN,-4.407979,9.109342,1.097100,-2.283136,1.151264,0.040009,0.019489,0.003440,-0.584577,0.579702,0.663920,-0.257025,-0.396352,90.806437,13.196807,-55.339969
13472,NaN,-4.564779,9.626631,0.972838,-2.173579,1.189753,0.594775,0.102282,-0.093935,-0.684648,0.577823,0.664942,-0.255224,-0.398540,90.859178,13.595347,-55.391326
13473,NaN,-4.859032,10.038233,0.706794,-2.026038,1.428501,1.083636,0.083074,-0.225977,-0.744164,0.575715,0.665709,-0.253571,-0.401354,90.882021,14.028292,-55.520069
13474,NaN,-4.925754,10.469566,0.458935,-1.751791,1.465272,1.539362,0.062071,-0.369921,-0.779765,0.573411,0.666164,-0.252161,-0.404773,90.871045,14.483781,-55.733576
13475,NaN,-5.028528,11.312486,0.115492,-1.351712,1.490148,2.403011,0.060494,-0.522396,-0.785403,0.570898,0.666295,-0.251166,-0.408707,90.834247,14.943082,-56.038151
13476,NaN,-5.149581,12.328740,-0.118336,-1.010834,1.423220,3.434263,-0.008419,-0.688605,-0.764425,0.568433,0.665850,-0.250563,-0.413214,90.729633,15.391934,-56.442619
13477,NaN,-5.162502,12.978898,-0.251679,-0.718805,1.297790,4.078473,-0.146768,-0.883490,-0.748356,0.566202,0.664567,-0.250277,-0.418483,90.510724,15.831250,-56.965431
13478,NaN,-4.751045,13.170546,-0.423580,-0.213481,0.967487,4.159861,-0.288007,-0.993403,-0.678806,0.564425,0.662544,-0.250226,-0.424083,90.188348,16.229154,-57.557125
13479,NaN,-4.468093,13.056620,-0.600869,0.194379,0.824098,3.974325,-0.375899,-1.065789,-0.672842,0.562840,0.660084,-0.250204,-0.429998,89.798257,16.619785,-58.195910
13480,NaN,-4.198092,12.858411,-0.560673,0.403372,0.599116,3.705955,-0.465436,-1.085699,-0.685136,0.561472,0.657316,-0.249992,-0.436106,89.348133,17.013180,-58.850851
13481,NaN,-4.004067,12.269065,-0.630738,0.605855,0.591779,3.080773,-0.535053,-1.073880,-0.707034,0.560274,0.654373,-0.249513,-0.442303,88.854326,17.413787,-59.503741
13482,NaN,-3.681636,11.843185,-0.619734,0.822118,0.396675,2.571358,-0.576350,-1.036216,-0.742848,0.559151,0.651412,-0.248706,-0.448507,88.337635,17.830184,-60.139596
13483,NaN,-3.409042,11.348596,-0.793811,1.152018,0.350893,2.002151,-0.595231,-1.007433,-0.767719,0.558042,0.648460,-0.247685,-0.454687,87.809216,18.255580,-60.764139
13484,NaN,-2.760542,10.650952,-1.036070,1.663649,0.070399,1.112632,-0.580494,-0.910129,-0.874026,0.556737,0.645872,-0.246067,-0.460809,87.300483,18.739070,-61.338314
13485,NaN,-2.174554,10.016679,-1.134829,2.010465,-0.257822,0.298720,-0.552902,-0.667069,-0.993454,0.555340,0.644037,-0.243441,-0.466422,86.847570,19.293116,-61.775130
13486,NaN,-2.208073,9.471848,-0.811529,1.708237,-0.308090,-0.208739,-0.497064,-0.384767,-1.098195,0.553840,0.643117,-0.239812,-0.471331,86.476577,19.913808,-62.050022
13487,NaN,-2.797906,8.883920,-0.429644,1.084859,0.084028,-0.552462,-0.422618,-0.236434,-1.161158,0.552107,0.642802,-0.235740,-0.475826,86.174388,20.574000,-62.241967
13488,NaN,-3.280751,8.215091,-0.107167,0.529799,0.437597,-0.992862,-0.301373,-0.242690,-1.206660,0.549847,0.642834,-0.231813,-0.480307,85.935671,21.259513,-62.443857
13489,NaN,-3.272465,7.808441,-0.065744,0.479236,0.447331,-1.371458,-0.162931,-0.314276,-1.245180,0.546943,0.643095,-0.228286,-0.484941,85.756252,21.962951,-62.695064
13490,NaN,-3.238390,7.593394,-0.152934,0.586989,0.440832,-1.588920,-0.057243,-0.356193,-1.283072,0.543536,0.643556,-0.224995,-0.489675,85.622274,22.686015,-62.977316
13491,NaN,-3.397202,7.505350,-0.231016,0.630622,0.548273,-1.613579,0.009440,-0.382448,-1.284343,0.539856,0.644108,-0.221928,-0.494396,85.516108,23.407694,-63.278977
13492,NaN,-3.616164,7.324662,-0.301709,0.619274,0.731063,-1.694840,0.032708,-0.439205,-1.275025,0.536038,0.644542,-0.219087,-0.499229,85.403929,24.121348,-63.618829
13493,NaN,-3.691035,7.223625,-0.453397,0.758699,0.811452,-1.764390,0.046403,-0.515030,-1.243665,0.532145,0.644761,-0.216579,-0.504182,85.275924,24.812550,-64.008021
13494,NaN,-3.554562,7.239245,-0.567747,0.979921,0.665139,-1.815163,0.051097,-0.589882,-1.208530,0.528221,0.644734,-0.214380,-0.509257,85.124826,25.479599,-64.446703
13495,NaN,-3.260236,7.243769,-0.752082,1.320235,0.428169,-1.955222,0.035840,-0.656557,-1.184278,0.524310,0.644444,-0.212392,-0.514472,84.941390,26.128018,-64.930679
13496,NaN,-3.003903,7.168437,-0.891135,1.581984,0.231589,-2.154559,0.013715,-0.695515,-1.163876,0.520459,0.643940,-0.210500,-0.519763,84.726816,26.761585,-65.443696
13497,NaN,-2.812805,7.103933,-0.896928,1.699916,0.026337,-2.309952,0.002396,-0.708815,-1.144987,0.516652,0.643328,-0.208670,-0.525030,84.495775,27.381537,-65.969405
13498,NaN,-2.720241,7.097016,-0.853337,1.749782,-0.140247,-2.368670,-0.001674,-0.698429,-1.128312,0.512893,0.642681,-0.206841,-0.530206,84.257360,27.990974,-66.493452
13499,NaN,-2.741074,7.245858,-0.715177,1.714957,-0.315819,-2.230741,0.005007,-0.657996,-1.103654,0.509194,0.642110,-0.205002,-0.535154,84.029492,28.586434,-66.995073
13500,NaN,-2.878094,7.482951,-0.389523,1.495072,-0.514167,-1.943161,0.017660,-0.602116,-1.070508,0.505583,0.641657,-0.203147,-0.539808,83.819282,29.165097,-67.463816
13501,NaN,-3.045452,7.612731,-0.262275,1.410827,-0.558456,-1.750782,0.028507,-0.551376,-1.012231,0.502125,0.641291,-0.201380,-0.544116,83.628527,29.711831,-67.899645
13502,NaN,-3.170793,7.646234,-0.145241,1.319522,-0.590101,-1.660999,0.052549,-0.513327,-0.944644,0.498799,0.640995,-0.199786,-0.548097,83.459617,30.221817,-68.310163
13503,NaN,-3.204232,7.761523,-0.112963,1.353646,-0.690803,-1.553688,0.075347,-0.488140,-0.870123,0.495612,0.640739,-0.198433,-0.551767,83.311636,30.689504,-68.701527
13504,NaN,-3.196683,7.880032,-0.123085,1.435811,-0.805085,-1.468903,0.091419,-0.468914,-0.795324,0.492591,0.640480,-0.197304,-0.555168,83.176739,31.115656,-69.077928
13505,NaN,-3.119947,7.987729,-0.089549,1.492458,-0.984380,-1.425248,0.090892,-0.460906,-0.724062,0.489764,0.640165,-0.196386,-0.558348,83.045142,31.500404,-69.445482
13506,NaN,-3.149013,8.116039,-0.142453,1.599004,-1.048731,-1.318588,0.087904,-0.460131,-0.650309,0.487147,0.639755,-0.195682,-0.561347,82.910421,31.843199,-69.809487
13507,NaN,-3.101309,8.196876,-0.131006,1.653258,-1.174561,-1.285614,0.085523,-0.471201,-0.572135,0.484737,0.639228,-0.195255,-0.564175,82.772707,32.139230,-70.175946
13508,NaN,-3.047109,8.339756,-0.130885,1.736038,-1.323203,-1.205209,0.059423,-0.458871,-0.488187,0.482655,0.638576,-0.194980,-0.566788,82.624072,32.388466,-70.529471
13509,NaN,-3.025112,8.393280,-0.138440,1.787916,-1.395553,-1.182897,0.036162,-0.446382,-0.396416,0.480912,0.637813,-0.194912,-0.569146,82.470792,32.584756,-70.867491
13510,NaN,-3.001607,8.519326,-0.104189,1.821206,-1.511432,-1.094996,0.028620,-0.422274,-0.296371,0.479500,0.636992,-0.195071,-0.571199,82.323441,32.726254,-71.182151
13511,NaN,-3.079428,8.770264,-0.074113,1.863806,-1.595044,-0.846756,0.031453,-0.391520,-0.185453,0.478420,0.636161,-0.195529,-0.572872,82.195546,32.805391,-71.465960
13512,NaN,-3.184935,9.182137,-0.069366,1.966473,-1.713649,-0.450175,0.032952,-0.349959,-0.072995,0.477699,0.635333,-0.196235,-0.574150,82.086979,32.824586,-71.712272
13513,NaN,-3.204103,9.565447,0.027375,1.993868,-1.913611,-0.110761,0.032106,-0.307633,0.044461,0.477356,0.634514,-0.197226,-0.575000,82.001641,32.778814,-71.918196
13514,NaN,-3.351813,9.927943,0.101859,1.996749,-1.981731,0.281607,0.027362,-0.254865,0.163981,0.477424,0.633709,-0.198441,-0.575413,81.937154,32.670554,-72.077649
13515,NaN,-3.471880,10.263744,0.171442,1.996764,-2.045520,0.639896,0.033345,-0.193484,0.281976,0.477871,0.632983,-0.199917,-0.575330,81.907271,32.498634,-72.183399
13516,NaN,-3.597979,10.529070,0.319225,1.895849,-2.088802,0.955376,0.032838,-0.131182,0.395638,0.478709,0.632313,-0.201585,-0.574789,81.903471,32.268796,-72.236894
13517,NaN,-3.674696,10.758498,0.465256,1.791182,-2.142647,1.217526,0.036329,-0.061760,0.490053,0.479873,0.631759,-0.203413,-0.573782,81.933878,31.989199,-72.234078
13518,NaN,-3.755235,10.863925,0.676962,1.581762,-2.152420,1.387745,0.055540,0.002919,0.560878,0.481244,0.631353,-0.205344,-0.572392,81.998986,31.676401,-72.182416
13519,NaN,-3.727986,11.029610,0.770218,1.519269,-2.226259,1.539782,0.074941,0.060109,0.615305,0.482763,0.631103,-0.207384,-0.570650,82.099650,31.335133,-72.087638
13520,NaN,-3.592369,11.251518,0.588331,1.748680,-2.306998,1.653231,0.101594,0.117274,0.647193,0.484343,0.631034,-0.209440,-0.568632,82.233096,30.982120,-71.953895
13521,NaN,-3.365111,11.815809,0.348898,2.145921,-2.588924,2.008942,0.129245,0.186928,0.675236,0.485984,0.631200,-0.211515,-0.566275,82.408278,30.615891,-71.772566
13522,NaN,-3.294238,12.336150,0.022140,2.565438,-2.684400,2.403897,0.077195,0.275087,0.691176,0.487921,0.631457,-0.213253,-0.563665,82.579190,30.249056,-71.534383
13523,NaN,-3.308730,12.329683,-0.106175,2.634396,-2.546565,2.416553,-0.046388,0.382076,0.709657,0.490408,0.631691,-0.214462,-0.560778,82.715606,29.876365,-71.225815
13524,NaN,-3.521875,11.856494,-0.077985,2.382838,-2.100353,2.141226,-0.155452,0.459619,0.730151,0.493370,0.631837,-0.215211,-0.557721,82.810077,29.499735,-70.867429
13525,NaN,-3.755337,11.299455,0.217405,1.860299,-1.706090,1.825844,-0.205415,0.501285,0.745630,0.496570,0.631952,-0.215790,-0.554517,82.889576,29.113839,-70.482056
13526,NaN,-3.916250,10.781802,0.466551,1.412975,-1.378492,1.496805,-0.209823,0.504668,0.741958,0.499766,0.632050,-0.216305,-0.551324,82.961452,28.732793,-70.097351
13527,NaN,-3.893047,10.235280,0.637963,1.082468,-1.170996,1.039977,-0.188236,0.477872,0.712869,0.502776,0.632153,-0.216880,-0.548235,83.035991,28.362809,-69.733740
13528,NaN,-3.745966,9.992601,0.654843,1.014508,-1.139118,0.769654,-0.105996,0.438532,0.663078,0.505337,0.632392,-0.217588,-0.545316,83.138129,28.021120,-69.401772
13529,NaN,-3.662893,10.100067,0.620167,1.067422,-1.181510,0.830482,-0.027996,0.388406,0.594878,0.507405,0.632763,-0.218448,-0.542616,83.267743,27.710913,-69.108642
13530,NaN,-3.575740,10.225742,0.589452,1.122491,-1.243609,0.906098,0.019732,0.338497,0.521641,0.509062,0.633186,-0.219299,-0.540221,83.402476,27.441799,-68.855063
13531,NaN,-3.422998,10.319134,0.547154,1.198684,-1.349522,0.922420,0.083532,0.304663,0.459233,0.510309,0.633749,-0.220241,-0.537997,83.562899,27.201951,-68.628710
13532,NaN,-3.494880,10.425102,0.504457,1.204723,-1.280375,1.052877,0.120110,0.293876,0.420472,0.511319,0.634409,-0.221152,-0.535882,83.735711,26.986391,-68.413637
13533,NaN,-3.574971,10.355630,0.551367,1.077454,-1.177527,1.039770,0.120728,0.317772,0.404216,0.512308,0.635153,-0.221984,-0.533708,83.916858,26.777329,-68.185238
13534,NaN,-3.622405,10.205236,0.617725,0.921071,-1.082050,0.940490,0.141933,0.341381,0.408267,0.513261,0.636001,-0.222790,-0.531442,84.112948,26.570344,-67.943028
13535,NaN,-3.528665,10.133892,0.750265,0.769554,-1.161606,0.853538,0.158877,0.383132,0.429067,0.514260,0.636979,-0.223633,-0.528945,84.332614,26.349345,-67.673893
13536,NaN,-3.504878,9.971211,0.834897,0.612178,-1.130181,0.711283,0.172974,0.427131,0.455330,0.515326,0.638070,-0.224447,-0.526242,84.569021,26.118632,-67.376947
13537,NaN,-3.651459,9.810398,0.906501,0.406001,-0.951983,0.643288,0.167195,0.437381,0.483365,0.516492,0.639138,-0.225341,-0.523412,84.806595,25.867457,-67.073286
13538,NaN,-3.706262,9.447745,0.946624,0.210183,-0.762413,0.349332,0.153702,0.417310,0.504726,0.517727,0.640084,-0.226283,-0.520623,85.026697,25.605896,-66.783124
13539,NaN,-3.675492,9.009570,0.929683,0.080509,-0.591508,-0.056188,0.125287,0.388336,0.520065,0.519057,0.640859,-0.227308,-0.517890,85.223707,25.329220,-66.512000
13540,NaN,-3.523793,8.580944,0.809307,0.096662,-0.481188,-0.514106,0.092295,0.362768,0.515059,0.520442,0.641479,-0.228260,-0.515308,85.390319,25.057428,-66.259006
13541,NaN,-3.376448,8.150207,0.694171,0.112277,-0.370346,-0.971973,0.061082,0.347091,0.501414,0.521873,0.641990,-0.229161,-0.512819,85.535528,24.788054,-66.017837
13542,NaN,-3.301165,7.836568,0.659645,0.064728,-0.279237,-1.288467,0.010951,0.344198,0.468790,0.523370,0.642391,-0.229800,-0.510500,85.646536,24.540744,-65.781327
13543,NaN,-3.248114,7.672962,0.707170,-0.020735,-0.259941,-1.454662,-0.080415,0.314167,0.416433,0.524991,0.642534,-0.230149,-0.508493,85.697666,24.317680,-65.566919
13544,NaN,-3.245406,7.413555,0.617792,-0.016122,-0.107682,-1.697073,-0.141364,0.253814,0.380266,0.526641,0.642399,-0.230349,-0.506865,85.694238,24.116668,-65.392540
13545,NaN,-2.728827,7.216394,0.439704,0.282267,-0.364336,-2.098824,-0.163007,0.264382,0.373838,0.528357,0.642239,-0.230480,-0.505220,85.682770,23.915741,-65.212081
13546,NaN,-1.755201,7.243237,0.128510,0.934976,-1.017052,-2.487861,-0.261309,0.445550,0.334060,0.530489,0.642317,-0.229719,-0.503229,85.656885,23.749494,-64.920554
13547,NaN,-1.064845,7.398172,0.138276,1.235156,-1.621885,-2.620345,-0.381777,0.908287,0.218085,0.533242,0.643363,-0.227087,-0.500168,85.677576,23.665400,-64.346069
13548,NaN,-1.291757,7.387992,0.402974,0.920914,-1.537144,-2.518682,-0.522352,1.489556,0.127450,0.536854,0.645561,-0.222217,-0.495639,85.758646,23.661639,-63.413462
13549,NaN,-2.666132,7.127632,0.733158,0.008589,-0.483132,-2.182784,-0.596236,1.920860,0.092391,0.541058,0.648617,-0.215911,-0.489831,85.907294,23.689783,-62.213364
13550,NaN,-3.992058,7.008825,1.010292,-0.844826,0.470894,-1.741429,-0.576327,2.042256,0.098397,0.545282,0.651948,-0.209285,-0.483561,86.096367,23.720479,-60.936744
