// General information: 
//  MT Manager version: 2019.0.1 
//  XDA version: 2019.0.1 build 2740 rev 84096 built on 2019-01-30
// Device information: 
//  DeviceId: 00B4381A
//  ProductCode: MTW2-3A7G6
//  Firmware Version: 4.3.4
//  Hardware Version: 1.1.0
// Device settings: 
//  Filter Profile: human(46.1)
//  Option Flags: Orientation Smoother Disabled, AHS Disabled, ICC Disabled
// Coordinate system: ENU
PacketCounter,SampleTimeFine,Acc_X,Acc_Y,Acc_Z,FreeAcc_E,FreeAcc_N,FreeAcc_U,Gyr_X,Gyr_Y,Gyr_Z,Quat_q0,Quat_q1,Quat_q2,Quat_q3,Roll,Pitch,Yaw
14913,NaN,-2.138476,7.763833,2.136408,-1.196738,0.995055,-1.627819,0.220200,-0.010341,0.164165,-0.733065,-0.348981,-0.415250,-0.410361,64.229001,18.807760,70.348387
14914,NaN,-2.735937,7.034160,1.650272,-1.576280,0.221913,-2.252649,0.328906,0.032733,0.158585,-0.732101,-0.350480,-0.415795,-0.410252,64.442040,18.737796,70.403569
14915,NaN,-3.773056,7.284317,2.787942,-0.931829,-0.815067,-1.237314,0.490305,0.142178,0.186709,-0.730569,-0.352395,-0.417018,-0.410101,64.768095,18.680226,70.525384
14916,NaN,-5.284524,8.159275,4.329622,-0.242739,-2.095507,0.617805,0.555787,0.146739,0.186187,-0.728903,-0.354543,-0.418393,-0.409814,65.133120,18.623124,70.649302
14917,NaN,-6.368470,8.994014,5.060000,-0.124091,-2.879267,1.966422,0.518695,-0.011327,0.136668,-0.727732,-0.356767,-0.419197,-0.409142,65.444035,18.553458,70.673356
14918,NaN,-6.116691,8.907759,4.868080,-0.156605,-2.689409,1.728659,0.417520,-0.228499,0.116407,-0.727230,-0.359026,-0.419041,-0.408217,65.658176,18.442849,70.572741
14919,NaN,-5.120255,8.548655,4.412214,-0.134057,-1.896913,0.918007,0.337139,-0.398812,0.117520,-0.727226,-0.361336,-0.418093,-0.407157,65.796098,18.291746,70.378199
14920,NaN,-4.369987,8.426272,3.826348,-0.386809,-1.203084,0.343229,0.281026,-0.515055,0.166303,-0.727458,-0.363779,-0.416522,-0.406176,65.886944,18.088624,70.131840
14921,NaN,-3.096776,8.141925,3.021242,-0.622295,-0.064287,-0.613918,0.270317,-0.557211,0.231492,-0.727660,-0.366400,-0.414648,-0.405376,65.969613,17.841531,69.878080
14922,NaN,-1.822590,7.964542,2.356384,-0.752025,1.095744,-1.413760,0.264095,-0.478883,0.301905,-0.727558,-0.368982,-0.412919,-0.404982,66.068880,17.576671,69.684772
14923,NaN,-1.283853,7.924128,2.139781,-0.752122,1.565935,-1.688602,0.260250,-0.344760,0.372213,-0.727039,-0.371420,-0.411530,-0.405098,66.193160,17.305957,69.581713
14924,NaN,-1.511398,8.398352,3.314587,0.101785,1.264257,-0.746584,0.254295,-0.159116,0.425447,-0.726034,-0.373569,-0.410708,-0.405758,66.349126,17.050711,69.593108
14925,NaN,-2.482820,9.334716,5.253320,1.273515,0.310033,1.104296,0.275476,0.124100,0.410889,-0.724435,-0.375186,-0.410976,-0.406852,66.560370,16.867556,69.755442
14926,NaN,-4.472332,10.633596,6.551689,1.443051,-1.297012,3.311137,0.254310,0.071326,0.466162,-0.722864,-0.376948,-0.410908,-0.408085,66.754961,16.643011,69.901222
14927,NaN,-3.889460,10.871377,5.991567,1.077779,-0.618134,3.136047,0.163415,-0.139482,0.300000,-0.722236,-0.378464,-0.410198,-0.408507,66.851772,16.457828,69.891123
14928,NaN,-2.505031,9.743039,4.629700,0.633157,0.445730,1.234321,0.258608,-0.078055,0.262115,-0.721374,-0.380122,-0.409980,-0.408709,67.010699,16.306700,69.905649
14929,NaN,-1.706029,9.380942,3.856130,0.325915,1.158567,0.401697,0.388608,0.166523,0.286605,-0.719712,-0.381795,-0.410856,-0.409199,67.282495,16.196743,70.059595
14930,NaN,-1.706694,9.289246,3.856091,0.390313,1.090188,0.322955,0.436036,0.315769,0.315957,-0.717585,-0.383393,-0.412311,-0.409977,67.606370,16.103441,70.301924
14931,NaN,-1.861996,8.965220,3.638808,0.278102,0.844308,0.000195,0.504008,0.341380,0.274523,-0.715355,-0.385090,-0.414068,-0.410512,67.969384,16.036120,70.548237
14932,NaN,-2.496472,8.621173,3.227690,-0.152101,0.194999,-0.277835,0.605025,0.335468,0.345656,-0.712785,-0.387307,-0.415872,-0.411074,68.393802,15.928097,70.806539
14933,NaN,-2.405236,8.169113,2.498248,-0.611181,0.226651,-0.961954,0.670524,0.308874,0.366412,-0.710091,-0.389845,-0.417666,-0.411518,68.851547,15.801520,71.053475
14934,NaN,-2.605070,7.683391,1.723846,-1.199980,-0.010349,-1.605858,0.715471,0.228838,0.416978,-0.707357,-0.392809,-0.419165,-0.411882,69.325602,15.629588,71.265494
14935,NaN,-2.944992,7.127163,0.911055,-1.856872,-0.392561,-2.282949,0.800628,0.080981,0.460264,-0.704666,-0.396459,-0.420221,-0.411924,69.826975,15.403118,71.402269
14936,NaN,-3.878858,6.815520,1.939759,-1.061398,-1.630169,-1.972105,1.086058,0.060368,0.592900,-0.701154,-0.401427,-0.421520,-0.411777,70.495433,15.099906,71.551820
14937,NaN,-6.761128,7.088756,4.439226,0.381919,-4.798834,-0.195333,1.312798,0.064111,0.681006,-0.696968,-0.407346,-0.423098,-0.411453,71.295996,14.747789,71.716164
14938,NaN,-7.304870,7.328154,5.299497,1.052443,-5.507605,0.370850,1.325883,-0.182910,0.567028,-0.693472,-0.413556,-0.424058,-0.410174,72.062224,14.411506,71.715417
14939,NaN,-5.269860,7.791696,4.939537,1.314063,-3.498627,0.132800,1.241244,-0.482224,0.298774,-0.691304,-0.419496,-0.424333,-0.407509,72.724683,14.169417,71.493488
14940,NaN,-3.441877,8.531761,4.940098,1.791443,-1.655435,0.340716,1.117436,-0.762304,-0.104162,-0.690778,-0.424701,-0.424221,-0.403103,73.260922,14.104364,71.041480
14941,NaN,-1.402935,9.568841,4.783122,2.166885,0.510511,0.744389,1.225976,-0.815158,-0.020030,-0.689929,-0.430547,-0.423938,-0.398628,73.855683,13.987897,70.572874
14942,NaN,-0.175496,9.230215,3.437374,1.481310,1.795985,-0.240755,1.322176,-0.692836,0.102538,-0.688332,-0.436713,-0.423986,-0.394610,74.527966,13.828909,70.192644
14943,NaN,-0.000066,9.016612,1.949564,0.309190,2.225362,-0.865570,1.373159,-0.401505,-0.005356,-0.686180,-0.442231,-0.425345,-0.390731,75.265219,13.776729,69.959736
14944,NaN,-2.000890,10.121049,1.042101,-1.256264,0.942019,0.437103,1.321225,-0.302498,-0.058431,-0.684003,-0.447240,-0.427042,-0.386978,75.984388,13.771616,69.775145
14945,NaN,-1.984236,10.576769,0.187909,-1.990469,1.304376,0.683783,1.252051,-0.389073,-0.121133,-0.682255,-0.452028,-0.428426,-0.382949,76.649889,13.791196,69.531967
14946,NaN,-1.232030,10.797232,-0.234919,-2.034195,2.155789,0.645158,1.226256,-0.321871,-0.171862,-0.680489,-0.456471,-0.430090,-0.378934,77.308437,13.851081,69.321044
14947,NaN,-2.480656,11.794451,-0.064720,-2.298003,1.251961,1.952398,1.156289,-0.293411,-0.227442,-0.678901,-0.460485,-0.431824,-0.374934,77.928696,13.947266,69.119959
14948,NaN,-2.760017,11.941432,0.362426,-1.886043,0.902157,2.269304,1.087099,-0.314101,-0.236460,-0.677506,-0.464268,-0.433369,-0.370988,78.506697,14.048606,68.906961
14949,NaN,-2.546405,12.009311,0.958547,-1.140141,0.915180,2.413833,1.075286,-0.276478,-0.168832,-0.675912,-0.468071,-0.434842,-0.367375,79.084410,14.117725,68.724334
14950,NaN,-2.831217,11.612523,1.272850,-0.789908,0.409020,2.174555,1.147603,-0.167598,-0.000496,-0.673577,-0.472272,-0.436414,-0.364412,79.724375,14.105833,68.624151
14951,NaN,-2.185922,10.834840,0.631827,-0.980639,0.915765,1.176831,1.183941,-0.011712,0.220298,-0.670393,-0.476773,-0.438034,-0.362473,80.411864,13.985420,68.636851
14952,NaN,-2.180251,10.289881,0.687191,-0.777691,0.685439,0.676898,1.171390,0.159454,0.212868,-0.666849,-0.480892,-0.440212,-0.360926,81.116596,13.885213,68.747255
14953,NaN,-3.778105,9.218605,1.984450,0.043731,-1.537830,0.228562,1.207196,0.198953,0.207539,-0.663120,-0.485026,-0.442578,-0.359369,81.845765,13.789643,68.878704
14954,NaN,-4.797454,9.126429,3.029906,0.774677,-2.887452,0.509564,1.169480,0.091475,0.200989,-0.659704,-0.489198,-0.444524,-0.357595,82.538747,13.688309,68.945733
14955,NaN,-6.004872,8.793381,3.674809,1.065063,-4.343882,0.525664,1.108892,0.032081,0.209142,-0.656535,-0.493275,-0.446125,-0.355829,83.187558,13.576898,68.977155
14956,NaN,-6.097861,8.640099,3.991858,1.419730,-4.636192,0.398052,1.089332,-0.019733,0.242176,-0.653448,-0.497437,-0.447433,-0.354071,83.818936,13.443808,68.979390
14957,NaN,-5.310251,8.607773,4.281131,2.045698,-4.093642,0.171137,1.088978,-0.050176,0.294394,-0.650318,-0.501753,-0.448489,-0.352403,84.445648,13.278341,68.965178
14958,NaN,-4.957513,8.967628,4.432298,2.384474,-3.812352,0.405900,1.118892,-0.111938,0.389424,-0.647063,-0.506467,-0.449151,-0.350804,85.082355,13.056810,68.918307
14959,NaN,-3.925807,9.526804,4.316241,2.715648,-2.796619,0.656524,1.213387,-0.225866,0.523343,-0.643562,-0.511972,-0.449245,-0.349129,85.759024,12.752900,68.808112
14960,NaN,-2.862633,10.373143,4.087772,2.970366,-1.679445,1.180970,1.347634,-0.360848,0.714876,-0.639656,-0.518538,-0.448633,-0.347399,86.496836,12.337097,68.623086
14961,NaN,-1.443233,11.056935,3.528343,3.065048,-0.200488,1.472241,1.496780,-0.453324,0.920555,-0.635164,-0.526174,-0.447411,-0.345733,87.310654,11.801779,68.384737
14962,NaN,-0.336371,11.696889,2.534325,2.672782,1.108283,1.805252,1.605652,-0.408546,1.069574,-0.629976,-0.534355,-0.446092,-0.344379,88.193061,11.187088,68.168681
14963,NaN,0.274558,11.807251,1.736968,2.287490,1.774986,1.768134,1.677425,-0.197875,1.165083,-0.623892,-0.542567,-0.445254,-0.343698,89.141074,10.522537,68.066999
14964,NaN,0.532299,11.702902,1.278325,2.084924,1.958631,1.619169,1.706500,0.035721,1.171310,-0.617138,-0.550416,-0.445135,-0.343567,90.128259,9.858196,68.090373
14965,NaN,0.817608,10.763004,0.550070,1.584706,2.149103,0.660090,1.773859,0.333592,1.201300,-0.609409,-0.557975,-0.445913,-0.344161,91.181083,9.173281,68.274298
14966,NaN,0.262143,10.996597,0.347743,1.353016,1.563429,0.996342,1.914154,1.015639,1.080069,-0.599902,-0.564435,-0.449293,-0.345930,92.370449,8.543094,68.841938
14967,NaN,-2.460779,12.027371,0.923573,1.180259,-1.232240,2.379429,1.889809,1.025311,1.177372,-0.590178,-0.570948,-0.452316,-0.348021,93.538545,7.844711,69.397874
14968,NaN,-0.220499,12.311111,0.235231,1.518230,0.897667,2.375430,1.790944,0.819947,1.346300,-0.580827,-0.577817,-0.454013,-0.350198,94.623697,7.048245,69.813730
14969,NaN,1.692360,12.651349,-0.417067,1.749040,2.706194,2.544732,1.760206,1.054136,1.375576,-0.570890,-0.584177,-0.456184,-0.353155,95.699828,6.214599,70.346480
14970,NaN,0.929643,13.876664,-0.875850,1.364988,1.988844,3.912009,1.666087,1.436316,1.316119,-0.560377,-0.589357,-0.459382,-0.357218,96.734144,5.382011,71.085529
14971,NaN,-0.478219,14.838281,-0.928569,1.144379,0.475559,5.010357,1.435060,1.683050,1.182014,-0.550121,-0.593054,-0.463179,-0.362104,97.638471,4.595131,71.959626
14972,NaN,-1.938248,15.384959,-1.057945,0.802692,-1.095042,5.670299,1.164615,1.826640,1.083447,-0.540436,-0.595421,-0.467102,-0.367720,98.380710,3.840635,72.911080
14973,NaN,-1.949164,15.258448,-0.856820,1.106036,-1.392471,5.490462,0.926897,2.122450,0.932703,-0.530957,-0.596168,-0.471767,-0.374305,98.986148,3.134460,74.033530
14974,NaN,-1.998177,14.714062,-0.970178,1.013647,-1.598287,4.947131,0.692338,2.465590,0.728631,-0.521669,-0.595061,-0.477434,-0.381865,99.453005,2.502247,75.361862
14975,NaN,-1.784893,14.277135,-1.105518,0.961938,-1.505913,4.506860,0.444295,2.900883,0.526555,-0.512354,-0.591884,-0.484269,-0.390706,99.775116,1.932901,76.950419
14976,NaN,-0.662498,13.406762,-1.321351,0.912484,-0.472179,3.636094,0.153683,3.419076,0.339475,-0.502886,-0.586334,-0.492292,-0.401207,99.923289,1.412579,78.847391
14977,NaN,0.609057,11.976931,-1.531821,0.694871,0.747431,2.233980,-0.110869,3.925351,0.138066,-0.493173,-0.578418,-0.501480,-0.413196,99.911261,0.952988,81.048736
14978,NaN,1.346757,10.699070,-1.706865,0.345794,1.456883,1.001844,-0.305258,4.351125,-0.070282,-0.483181,-0.568362,-0.511703,-0.426217,99.773849,0.572969,83.511498
14979,NaN,1.597551,9.702143,-1.686314,0.116311,1.667064,0.022627,-0.432178,4.668501,-0.284707,-0.472938,-0.556493,-0.522770,-0.439723,99.552314,0.290476,86.174879
14980,NaN,1.383572,9.052600,-1.448437,0.110524,1.411515,-0.649935,-0.521644,4.887547,-0.484531,-0.462545,-0.543077,-0.534410,-0.453349,99.268048,0.112902,88.982229
14981,NaN,0.943510,8.499583,-1.122322,0.230530,0.955778,-1.243831,-0.564171,4.947298,-0.656072,-0.452202,-0.528642,-0.546227,-0.466569,98.954629,0.040901,91.839552
14982,NaN,0.436685,8.148250,-0.702593,0.525988,0.474480,-1.653271,-0.542882,4.858312,-0.794134,-0.442095,-0.513749,-0.557917,-0.478898,98.651122,0.070972,94.659180
14983,NaN,-0.056339,8.014591,-0.251548,0.935946,0.059611,-1.849010,-0.502621,4.638731,-0.898246,-0.432479,-0.498886,-0.569159,-0.490035,98.375357,0.192238,97.362797
14984,NaN,-0.554356,8.026243,0.118596,1.331366,-0.318776,-1.883802,-0.466294,4.373600,-0.956427,-0.423445,-0.484309,-0.579756,-0.500023,98.125794,0.381474,99.920532
14985,NaN,-1.003429,8.007810,0.370286,1.636207,-0.632222,-1.926535,-0.405434,4.088233,-0.965240,-0.414903,-0.470328,-0.589648,-0.508883,97.920208,0.607910,102.316127
14986,NaN,-1.563248,7.746529,0.385682,1.743137,-1.090271,-2.172455,-0.228040,3.802015,-0.968707,-0.406634,-0.457227,-0.599160,-0.516333,97.823026,0.866064,104.549282
14987,NaN,-2.048973,7.941169,0.336030,1.877564,-1.463090,-1.957343,-0.020528,3.551944,-0.911742,-0.398337,-0.445209,-0.608354,-0.522515,97.853335,1.111759,106.635777
14988,NaN,-2.226662,8.689602,0.173074,1.921567,-1.535838,-1.184544,0.124327,3.332401,-0.791614,-0.389956,-0.434267,-0.617030,-0.527846,97.970461,1.305154,108.588928
14989,NaN,-2.120651,9.451022,-0.056372,1.824324,-1.364250,-0.398233,0.130792,3.122046,-0.688407,-0.381820,-0.424103,-0.624920,-0.532753,98.095384,1.451456,110.414686
14990,NaN,-1.718735,9.809962,-0.300546,1.543104,-0.966370,-0.016553,0.000897,2.926121,-0.632157,-0.374342,-0.414273,-0.631820,-0.537632,98.145798,1.580474,112.125383
14991,NaN,-1.276902,9.652590,-0.695817,1.011669,-0.657260,-0.126021,-0.146820,2.759735,-0.615781,-0.367561,-0.404592,-0.637845,-0.542548,98.114118,1.711844,113.740138
14992,NaN,-1.045220,9.368575,-1.122861,0.493642,-0.599586,-0.351174,-0.295448,2.630043,-0.636182,-0.361491,-0.394831,-0.643147,-0.547535,97.997686,1.869059,115.283226
14993,NaN,-1.003918,9.184348,-1.521258,0.080038,-0.723916,-0.477603,-0.455609,2.543261,-0.663679,-0.356013,-0.384873,-0.647791,-0.552715,97.793833,2.051250,116.778553
14994,NaN,-1.029158,8.978040,-1.573737,-0.007645,-0.777261,-0.672846,-0.617319,2.474496,-0.697143,-0.351112,-0.374626,-0.651817,-0.558131,97.499808,2.266088,118.237106
14995,NaN,-1.125767,8.791656,-1.548623,-0.000003,-0.861805,-0.856355,-0.756851,2.410136,-0.723474,-0.346681,-0.364179,-0.655277,-0.563736,97.131436,2.507096,119.659576
14996,NaN,-1.292381,8.575721,-1.415920,0.127567,-0.957379,-1.078561,-0.870416,2.326445,-0.756853,-0.342780,-0.353583,-0.658222,-0.569408,96.701128,2.784801,121.035652
14997,NaN,-1.565557,8.414120,-1.149812,0.428225,-1.063016,-1.253669,-0.912470,2.208356,-0.767364,-0.339303,-0.343175,-0.660755,-0.574898,96.251285,3.084631,122.342881
14998,NaN,-1.939836,8.426553,-0.875403,0.803285,-1.215761,-1.244582,-0.927010,2.039162,-0.776596,-0.336399,-0.333130,-0.662879,-0.580045,95.793706,3.412404,123.552487
14999,NaN,-2.315695,8.462692,-0.635350,1.155172,-1.369559,-1.200324,-0.898582,1.820965,-0.762592,-0.334073,-0.323786,-0.664608,-0.584683,95.352472,3.751605,124.634052
15000,NaN,-2.588171,8.580663,-0.401382,1.448748,-1.419651,-1.073531,-0.847757,1.566183,-0.746234,-0.332443,-0.315275,-0.665966,-0.588704,94.935778,4.105020,125.567347
15001,NaN,-2.825449,8.598028,-0.135411,1.744638,-1.424388,-1.046015,-0.769692,1.284394,-0.719864,-0.331510,-0.307802,-0.666988,-0.592018,94.558197,4.460789,126.335540
15002,NaN,-3.000380,8.612847,0.054977,1.943325,-1.416831,-1.014841,-0.663658,0.976001,-0.687817,-0.331342,-0.301488,-0.667728,-0.594522,94.230684,4.819130,126.924223
15003,NaN,-2.981121,8.540750,0.120004,1.926460,-1.336898,-1.075012,-0.547559,0.660744,-0.666219,-0.331961,-0.296384,-0.668230,-0.596178,93.958290,5.178452,127.329104
15004,NaN,-2.668127,8.469178,-0.009624,1.578226,-1.142603,-1.149589,-0.433808,0.372192,-0.657165,-0.333356,-0.292329,-0.668565,-0.597024,93.737058,5.548315,127.567163
15005,NaN,-2.371940,8.387384,-0.090717,1.280579,-0.935685,-1.241408,-0.328050,0.140280,-0.667481,-0.335381,-0.289126,-0.668831,-0.597153,93.565508,5.930457,127.670679
15006,NaN,-2.147055,8.274335,-0.041877,1.131415,-0.708716,-1.369139,-0.253616,-0.017229,-0.688492,-0.337900,-0.286421,-0.669078,-0.596759,93.426633,6.333463,127.683925
15007,NaN,-1.867882,8.119929,0.462175,1.314592,-0.166329,-1.573774,-0.192413,-0.067593,-0.729162,-0.340599,-0.283852,-0.669469,-0.596013,93.320646,6.758388,127.668151
15008,NaN,-1.810337,7.969021,0.778919,1.488165,0.093239,-1.740161,-0.099361,-0.064672,-0.761320,-0.343265,-0.281297,-0.670181,-0.594894,93.267064,7.204758,127.655067
15009,NaN,-1.922883,7.893695,0.829973,1.557609,0.073919,-1.796155,-0.025192,0.041229,-0.793351,-0.345544,-0.278466,-0.671326,-0.593614,93.264933,7.662819,127.703347
15010,NaN,-1.807103,8.019852,0.575721,1.243166,0.084193,-1.666389,0.025292,0.254661,-0.801886,-0.347074,-0.275031,-0.672993,-0.592434,93.307919,8.121981,127.875903
15011,NaN,-1.596187,8.310380,0.262578,0.819959,0.162310,-1.387720,0.015456,0.535462,-0.809506,-0.347670,-0.270741,-0.675112,-0.591650,93.371502,8.572726,128.211150
15012,NaN,-1.531544,8.562264,-0.093391,0.451407,0.095549,-1.126295,-0.075120,0.865062,-0.811146,-0.347289,-0.265279,-0.677520,-0.591595,93.413831,9.016225,128.738524
15013,NaN,-1.616163,8.584321,-0.388469,0.233143,-0.090958,-1.072524,-0.192554,1.185432,-0.805545,-0.345928,-0.258698,-0.680097,-0.592349,93.423941,9.442041,129.451681
15014,NaN,-1.742744,8.583068,-0.770818,-0.022976,-0.376290,-1.028728,-0.301332,1.480188,-0.808823,-0.343711,-0.251004,-0.682826,-0.593808,93.404573,9.863061,130.337284
15015,NaN,-1.686922,8.743104,-1.119841,-0.375468,-0.487774,-0.859338,-0.411882,1.731479,-0.825878,-0.340779,-0.242319,-0.685620,-0.595883,93.355231,10.282546,131.369838
15016,NaN,-1.327627,8.895555,-1.209100,-0.733534,-0.222122,-0.770136,-0.533258,1.960342,-0.852297,-0.337269,-0.232603,-0.688402,-0.598538,93.267464,10.714152,132.537810
15017,NaN,-1.228461,8.851374,-1.130852,-0.792681,-0.083182,-0.840554,-0.651107,2.131742,-0.880472,-0.333328,-0.222074,-0.691060,-0.601674,93.141196,11.155169,133.806922
15018,NaN,-1.541399,8.655060,-0.991764,-0.520644,-0.224019,-0.983872,-0.735968,2.230302,-0.900253,-0.329166,-0.210980,-0.693548,-0.605086,92.986916,11.610867,135.135562
15019,NaN,-2.073342,8.445168,-0.660960,0.047479,-0.371233,-1.099705,-0.780459,2.239526,-0.892969,-0.324928,-0.199801,-0.695795,-0.608580,92.819458,12.062453,136.469704
15020,NaN,-2.494254,8.208816,-0.322339,0.552331,-0.418418,-1.255273,-0.781556,2.178267,-0.866480,-0.320790,-0.188843,-0.697808,-0.611961,92.653407,12.507692,137.768675
15021,NaN,-2.641782,7.932574,-0.091217,0.797743,-0.353336,-1.496953,-0.740611,2.087934,-0.838681,-0.316779,-0.178321,-0.699670,-0.615073,92.509467,12.939439,139.014312
15022,NaN,-2.767851,7.743784,0.064634,0.969834,-0.305321,-1.651976,-0.664152,1.986741,-0.792126,-0.312886,-0.168345,-0.701476,-0.617814,92.404322,13.353086,140.201040
15023,NaN,-2.874552,7.719178,0.167894,1.075353,-0.248280,-1.648219,-0.548707,1.873633,-0.747282,-0.309100,-0.159063,-0.703338,-0.620058,92.358315,13.741849,141.320879
15024,NaN,-3.052933,7.781172,0.277423,1.231149,-0.208187,-1.543189,-0.450610,1.758502,-0.656761,-0.305346,-0.150565,-0.705187,-0.621937,92.358646,14.085465,142.372841
15025,NaN,-3.340054,7.803801,0.370067,1.475382,-0.248632,-1.448873,-0.360911,1.602210,-0.535902,-0.301657,-0.143129,-0.706923,-0.623520,92.393189,14.359763,143.330438
15026,NaN,-3.505166,7.843913,0.408839,1.599904,-0.254710,-1.365467,-0.255535,1.425251,-0.411352,-0.298128,-0.136808,-0.708589,-0.624744,92.465145,14.569850,144.182251
15027,NaN,-3.573056,8.109979,0.350899,1.561786,-0.243147,-1.085537,-0.133586,1.268891,-0.294319,-0.294672,-0.131592,-0.710283,-0.625579,92.585911,14.711853,144.938887
15028,NaN,-3.440651,8.534698,0.246924,1.318156,-0.127921,-0.703021,0.012297,1.171643,-0.243962,-0.291314,-0.127041,-0.712234,-0.625876,92.776828,14.829450,145.638090
15029,NaN,-3.578360,9.032170,0.144651,1.285275,-0.142014,-0.182874,0.131209,1.124169,-0.213474,-0.287926,-0.122944,-0.714440,-0.625747,93.030160,14.924558,146.308388
15030,NaN,-4.127987,9.382897,0.026948,1.612645,-0.408633,0.302243,0.215818,1.041064,-0.138019,-0.284556,-0.119466,-0.716725,-0.625348,93.319405,14.979982,146.928384
15031,NaN,-5.022256,9.695767,-0.153178,2.208652,-0.908557,0.843314,0.299149,0.831845,-0.031917,-0.281529,-0.117166,-0.718890,-0.624668,93.624008,14.974969,147.420356
15032,NaN,-5.571053,10.080230,-0.429000,2.473026,-1.293549,1.369540,0.383555,0.483557,0.082102,-0.279365,-0.116452,-0.720754,-0.623625,93.922143,14.919518,147.702407
15033,NaN,-5.561883,10.511076,-0.711206,2.277278,-1.398867,1.796792,0.429497,0.094838,0.172860,-0.278269,-0.117370,-0.722157,-0.622318,94.186410,14.822493,147.749660
15034,NaN,-5.168008,10.859868,-1.056634,1.744302,-1.389654,2.052709,0.414974,-0.217820,0.228674,-0.278157,-0.119409,-0.723045,-0.620947,94.394194,14.711197,147.610047
15035,NaN,-4.730017,11.004194,-1.246368,1.290892,-1.280982,2.091571,0.363927,-0.435273,0.250059,-0.278771,-0.122161,-0.723451,-0.619663,94.540451,14.593405,147.339981
15036,NaN,-4.553957,10.741852,-1.201922,1.238973,-1.205910,1.788228,0.277359,-0.588105,0.234327,-0.280060,-0.125174,-0.723381,-0.618562,94.614858,14.496695,146.981210
15037,NaN,-4.525786,10.031139,-1.094572,1.404179,-1.258005,1.084572,0.214909,-0.718277,0.191284,-0.281965,-0.128378,-0.722948,-0.617544,94.635598,14.426265,146.546937
15038,NaN,-4.454295,9.385498,-0.899156,1.558498,-1.208255,0.426842,0.178596,-0.875881,0.124466,-0.284688,-0.131739,-0.722215,-0.616444,94.613253,14.406044,146.023873
15039,NaN,-4.323063,9.118553,-0.762821,1.560369,-1.106078,0.125144,0.121578,-1.096439,0.123155,-0.288217,-0.135725,-0.720971,-0.615394,94.526375,14.391382,145.370018
15040,NaN,-3.733054,8.982402,-0.906116,1.002956,-0.952125,-0.141716,0.108614,-1.286525,0.017023,-0.292782,-0.139854,-0.719463,-0.614079,94.404723,14.449633,144.609786
15041,NaN,-2.991274,9.242951,-0.747752,0.437005,-0.375705,-0.086087,0.060085,-1.370053,-0.071635,-0.297916,-0.143879,-0.717709,-0.612731,94.243145,14.555364,143.802920
15042,NaN,-3.089691,9.485904,-0.731244,0.443688,-0.384106,0.173237,0.032793,-1.447226,-0.162903,-0.303635,-0.147728,-0.715790,-0.611250,94.052834,14.719080,142.954427
15043,NaN,-3.137614,9.964543,-0.742712,0.343271,-0.331179,0.649651,0.038456,-1.489429,-0.315839,-0.309927,-0.151196,-0.713893,-0.609460,93.858223,14.964092,142.085019
15044,NaN,-3.053159,10.378713,-0.776696,0.123254,-0.217413,1.030736,0.044926,-1.447112,-0.454570,-0.316493,-0.154004,-0.712147,-0.607421,93.669900,15.289062,141.244912
15045,NaN,-3.088185,10.715129,-0.818808,-0.008700,-0.180767,1.367115,0.084576,-1.326386,-0.598520,-0.322993,-0.156024,-0.710781,-0.605080,93.519780,15.684568,140.478548
15046,NaN,-3.493206,10.914263,-0.862015,0.146618,-0.387678,1.671834,0.093907,-1.220966,-0.655103,-0.329291,-0.157494,-0.709624,-0.602658,93.385939,16.111978,139.775131
15047,NaN,-3.811141,10.890562,-0.984385,0.214406,-0.647632,1.747241,0.097237,-1.200430,-0.697720,-0.335601,-0.158786,-0.708507,-0.600148,93.252787,16.556492,139.082063
15048,NaN,-3.633082,10.678542,-1.172374,-0.095421,-0.685839,1.506531,0.092592,-1.207835,-0.711113,-0.341989,-0.159999,-0.707341,-0.597589,93.108925,17.012311,138.383037
15049,NaN,-3.169563,10.421491,-1.336017,-0.581291,-0.530665,1.133464,0.068118,-1.156725,-0.723441,-0.348211,-0.161004,-0.706162,-0.595116,92.954934,17.466875,137.711329
15050,NaN,-2.745418,10.030646,-1.453151,-0.975779,-0.391825,0.635105,0.024335,-1.024549,-0.760849,-0.354122,-0.161363,-0.705084,-0.592804,92.793301,17.942262,137.117865
15051,NaN,-2.492324,9.397845,-1.456322,-1.115571,-0.337591,-0.050882,-0.004749,-0.826445,-0.812403,-0.359473,-0.160932,-0.704283,-0.590648,92.647941,18.435262,136.641515
15052,NaN,-2.443068,8.917210,-1.343822,-1.053652,-0.295016,-0.534046,-0.008343,-0.616487,-0.864161,-0.364253,-0.159651,-0.703871,-0.588555,92.535930,18.956309,136.291612
15053,NaN,-2.563209,8.570939,-1.196345,-0.868319,-0.305022,-0.834121,0.016325,-0.453655,-0.888939,-0.368479,-0.157881,-0.703826,-0.586451,92.467977,19.482063,136.038375
15054,NaN,-2.697274,8.370087,-1.013003,-0.671884,-0.260826,-0.990001,0.045451,-0.360746,-0.895675,-0.372389,-0.155829,-0.704028,-0.584284,92.432381,20.013968,135.841224
15055,NaN,-2.770500,8.209264,-0.866693,-0.544867,-0.192640,-1.124517,0.089382,-0.326792,-0.894492,-0.376111,-0.153795,-0.704402,-0.581984,92.427941,20.539518,135.663164
15056,NaN,-2.749117,8.094930,-0.871654,-0.594174,-0.155449,-1.241364,0.138650,-0.332559,-0.887435,-0.379807,-0.151857,-0.704888,-0.579498,92.447898,21.065914,135.481583
15057,NaN,-2.736425,8.071681,-0.890043,-0.663121,-0.107446,-1.269827,0.178123,-0.354009,-0.869154,-0.383465,-0.150152,-0.705415,-0.576886,92.484621,21.577736,135.285245
15058,NaN,-2.778984,7.963543,-0.900145,-0.667723,-0.114074,-1.357412,0.202555,-0.384325,-0.845048,-0.387155,-0.148628,-0.705923,-0.574190,92.525656,22.081291,135.069970
15059,NaN,-2.837036,7.810725,-0.876065,-0.624046,-0.123757,-1.480910,0.212569,-0.438504,-0.803977,-0.390880,-0.147455,-0.706305,-0.571492,92.558161,22.558194,134.818918
15060,NaN,-2.961544,7.597444,-0.884219,-0.543957,-0.222663,-1.631739,0.223729,-0.510372,-0.750015,-0.394709,-0.146663,-0.706525,-0.568786,92.576343,23.010730,134.521837
15061,NaN,-3.008435,7.490395,-0.989218,-0.607186,-0.310561,-1.708996,0.240337,-0.580658,-0.689979,-0.398573,-0.146346,-0.706591,-0.566085,92.584445,23.426207,134.177739
15062,NaN,-2.978493,7.468657,-1.047804,-0.705279,-0.293234,-1.740112,0.239153,-0.642687,-0.619738,-0.402471,-0.146414,-0.706465,-0.563460,92.572215,23.807579,133.792563
15063,NaN,-2.944905,7.503450,-1.154640,-0.852462,-0.292417,-1.719790,0.230631,-0.687564,-0.552023,-0.406313,-0.146860,-0.706158,-0.560966,92.540908,24.146693,133.375450
15064,NaN,-2.892710,7.489012,-1.268359,-1.003392,-0.302972,-1.752723,0.205611,-0.714978,-0.489145,-0.410105,-0.147519,-0.705666,-0.558647,92.484073,24.454649,132.938744
15065,NaN,-2.873855,7.434096,-1.402122,-1.136659,-0.366341,-1.808663,0.186048,-0.722746,-0.431382,-0.413750,-0.148393,-0.705045,-0.556509,92.411456,24.724840,132.493512
15066,NaN,-2.827028,7.529575,-1.399960,-1.221816,-0.272563,-1.745519,0.173598,-0.700083,-0.385092,-0.417207,-0.149306,-0.704392,-0.554507,92.334192,24.971812,132.060763
15067,NaN,-2.794503,7.737221,-1.400004,-1.324177,-0.152443,-1.575149,0.187638,-0.649824,-0.357855,-0.420375,-0.150235,-0.703848,-0.552550,92.276677,25.197222,131.657232
15068,NaN,-2.807036,8.148625,-1.315600,-1.383391,0.065111,-1.205004,0.210189,-0.584421,-0.344162,-0.423271,-0.151046,-0.703487,-0.550575,92.247265,25.417270,131.294575
15069,NaN,-2.903120,8.434042,-1.198450,-1.331397,0.205721,-0.914238,0.226042,-0.519856,-0.329808,-0.425865,-0.151792,-0.703283,-0.548627,92.243463,25.623320,130.971085
15070,NaN,-3.033136,8.454844,-1.101176,-1.205017,0.219000,-0.846264,0.239087,-0.473517,-0.328044,-0.428294,-0.152413,-0.703209,-0.546655,92.258120,25.831435,130.677190
15071,NaN,-3.091732,8.416513,-1.003721,-1.101828,0.260672,-0.861605,0.286655,-0.435861,-0.325144,-0.430525,-0.153073,-0.703332,-0.544556,92.309859,26.033094,130.406084
15072,NaN,-3.117659,8.474953,-0.942400,-1.065859,0.339185,-0.802608,0.338550,-0.401163,-0.321513,-0.432596,-0.153731,-0.703665,-0.542294,92.399654,26.236110,130.157544
15073,NaN,-3.142234,8.430780,-0.899289,-1.013632,0.371733,-0.835235,0.378566,-0.363280,-0.311011,-0.434454,-0.154438,-0.704170,-0.539947,92.522642,26.428647,129.932174
15074,NaN,-3.222608,8.468266,-0.910469,-0.988480,0.363343,-0.767443,0.409488,-0.338561,-0.290471,-0.436158,-0.155188,-0.704794,-0.537540,92.669143,26.613075,129.722874
15075,NaN,-3.292129,8.416741,-0.853270,-0.889737,0.370899,-0.786149,0.430884,-0.323967,-0.252244,-0.437670,-0.156107,-0.705466,-0.535157,92.831512,26.771915,129.521262
15076,NaN,-3.368103,8.387920,-0.727977,-0.735935,0.422011,-0.784317,0.452719,-0.331279,-0.200107,-0.439064,-0.157248,-0.706138,-0.532791,93.002801,26.905346,129.314219
15077,NaN,-3.405834,8.421757,-0.616658,-0.624954,0.509550,-0.743196,0.470210,-0.353519,-0.125921,-0.440305,-0.158775,-0.706738,-0.530513,93.176587,26.993890,129.089864
15078,NaN,-3.474226,8.473234,-0.533450,-0.518177,0.559980,-0.671115,0.490884,-0.393272,-0.041638,-0.441457,-0.160723,-0.707235,-0.528301,93.348702,27.039693,128.837742
15079,NaN,-3.602417,8.696583,-0.401615,-0.374442,0.657900,-0.421406,0.504719,-0.447924,0.051043,-0.442526,-0.163198,-0.707563,-0.526205,93.511504,27.031449,128.546382
15080,NaN,-3.698255,8.903551,-0.225591,-0.203083,0.790662,-0.203591,0.520332,-0.498836,0.144013,-0.443528,-0.166143,-0.707737,-0.524202,93.666483,26.976046,128.219293
15081,NaN,-3.802798,9.209605,-0.195569,-0.159273,0.860231,0.114592,0.518936,-0.541269,0.234112,-0.444423,-0.169538,-0.707725,-0.522369,93.807485,26.868010,127.860658
15082,NaN,-3.873636,9.499249,-0.120892,-0.087855,0.964668,0.400879,0.510329,-0.575458,0.329346,-0.445206,-0.173312,-0.707525,-0.520733,93.932135,26.710941,127.476703
15083,NaN,-4.004476,9.726280,-0.066126,0.020839,0.979042,0.660209,0.493196,-0.605141,0.420326,-0.445848,-0.177469,-0.707119,-0.519333,94.038371,26.500399,127.069421
15084,NaN,-4.111466,9.921083,-0.044969,0.099721,0.966342,0.882640,0.448930,-0.637263,0.509899,-0.446416,-0.181900,-0.706435,-0.518243,94.109409,26.243761,126.638518
15085,NaN,-4.132841,9.967725,0.018063,0.199927,0.967151,0.932569,0.393484,-0.646568,0.592244,-0.446829,-0.186542,-0.705493,-0.517519,94.147267,25.937592,126.198205
15086,NaN,-4.167811,9.874419,0.180671,0.416106,0.947580,0.856707,0.327850,-0.665083,0.652144,-0.447218,-0.191268,-0.704269,-0.517125,94.143156,25.601190,125.744877
15087,NaN,-4.270226,9.718969,0.333892,0.669552,0.837818,0.753955,0.271270,-0.670450,0.701479,-0.447527,-0.196075,-0.702820,-0.517029,94.108100,25.233561,125.286973
15088,NaN,-4.335868,9.625370,0.476557,0.879316,0.765320,0.690415,0.233596,-0.684687,0.727659,-0.447858,-0.200897,-0.701199,-0.517091,94.049667,24.854249,124.820949
15089,NaN,-4.317694,9.596820,0.582172,0.999839,0.754342,0.652068,0.197701,-0.702095,0.727363,-0.448261,-0.205702,-0.699428,-0.517252,93.970650,24.472261,124.345624
15090,NaN,-4.192447,9.607860,0.500985,0.897592,0.737803,0.617463,0.176168,-0.709930,0.697705,-0.448794,-0.210346,-0.697595,-0.517397,93.880315,24.109889,123.868899
15091,NaN,-3.770794,9.975582,0.162894,0.364521,0.949320,0.804429,0.160639,-0.689330,0.633526,-0.449410,-0.214696,-0.695820,-0.517466,93.791938,23.779745,123.409451
15092,NaN,-3.211687,10.695059,-0.526409,-0.594771,1.224878,1.283346,0.126889,-0.623954,0.548433,-0.450063,-0.218478,-0.694180,-0.517517,93.703587,23.498075,122.996055
15093,NaN,-2.722974,11.570154,-1.212795,-1.545668,1.517632,1.937267,0.000387,-0.485268,0.443786,-0.450621,-0.221273,-0.692631,-0.517920,93.582224,23.267583,122.674441
15094,NaN,-2.251255,12.110864,-1.400339,-2.023200,1.936594,2.264488,-0.209267,-0.297865,0.350817,-0.451014,-0.222765,-0.691057,-0.519039,93.388244,23.085604,122.474213
15095,NaN,-2.355594,11.802803,-1.240149,-1.805505,1.775322,2.018668,-0.475535,-0.102160,0.247994,-0.451277,-0.222813,-0.689345,-0.521064,93.092912,22.952639,122.400242
15096,NaN,-2.926792,10.882193,-0.771595,-1.015537,1.191167,1.373597,-0.675256,0.089805,0.155087,-0.451351,-0.221570,-0.687640,-0.523775,92.729980,22.869218,122.449403
15097,NaN,-3.258369,10.443240,-0.094117,-0.250702,1.084753,1.070657,-0.702153,0.231557,0.071000,-0.451169,-0.219621,-0.686272,-0.526540,92.388107,22.828224,122.589439
15098,NaN,-3.363495,10.663995,0.489732,0.209831,1.353705,1.295729,-0.621242,0.329075,0.006625,-0.450739,-0.217357,-0.685396,-0.528982,92.115532,22.824776,122.791852
15099,NaN,-3.472520,11.182525,0.916584,0.487063,1.655014,1.805010,-0.534433,0.390337,-0.058889,-0.450161,-0.214917,-0.684953,-0.531041,91.909290,22.856196,123.033787
15100,NaN,-3.490734,11.638452,0.886155,0.343646,1.775119,2.235332,-0.437863,0.456552,-0.125994,-0.449439,-0.212270,-0.684979,-0.532683,91.773788,22.927553,123.318139
15101,NaN,-3.371291,12.026623,1.008964,0.269134,2.072503,2.542691,-0.446112,0.546807,-0.236049,-0.448691,-0.209001,-0.685296,-0.534195,91.658096,23.058901,123.660814
15102,NaN,-4.122060,12.062327,0.800361,0.414964,1.411401,2.874594,-0.512500,0.467865,-0.327748,-0.448534,-0.205461,-0.685341,-0.535641,91.485082,23.246698,123.955738
15103,NaN,-3.853633,12.066852,0.130157,-0.346362,1.260274,2.787619,-0.630130,0.606497,-0.303369,-0.447937,-0.201382,-0.685348,-0.537676,91.280980,23.417612,124.336692
15104,NaN,-2.452899,11.864824,0.034396,-1.184546,2.195600,2.043431,-0.882689,1.087700,-0.291303,-0.445910,-0.195462,-0.685713,-0.541070,91.051351,23.579102,125.017577
15105,NaN,-2.445361,11.212464,0.135293,-1.053352,2.026786,1.434504,-1.091441,1.683400,-0.368888,-0.442207,-0.187200,-0.686869,-0.545546,90.855714,23.779904,126.072459
15106,NaN,-3.335028,10.549976,0.096803,-0.538762,1.126208,1.181616,-1.191443,2.189794,-0.454918,-0.437046,-0.177002,-0.688857,-0.550579,90.734468,24.030176,127.446308
15107,NaN,-3.842031,10.331026,0.023956,-0.328312,0.661978,1.184837,-1.216613,2.521294,-0.499038,-0.430798,-0.165666,-0.691420,-0.555794,90.692392,24.303624,129.031420
15108,NaN,-3.800481,10.142212,-0.010009,-0.387423,0.636754,0.992513,-1.247133,2.691470,-0.522266,-0.423969,-0.153663,-0.694131,-0.561089,90.684264,24.591326,130.726830
15109,NaN,-3.817238,9.716642,-0.116898,-0.399688,0.447980,0.610239,-1.266542,2.720790,-0.561804,-0.417057,-0.141376,-0.696726,-0.566259,90.684028,24.900113,132.445411
15110,NaN,-4.117162,9.076779,-0.089262,-0.066354,0.097319,0.153895,-1.231089,2.615143,-0.606952,-0.410533,-0.129262,-0.699071,-0.571011,90.685282,25.236943,134.101665
15111,NaN,-4.412027,8.578999,-0.001994,0.285498,-0.145747,-0.170999,-1.155302,2.385951,-0.623590,-0.404714,-0.117885,-0.701038,-0.575200,90.679912,25.583455,135.617675
15112,NaN,-4.603612,8.147751,0.233181,0.664351,-0.184444,-0.476856,-1.080066,2.052939,-0.610981,-0.399927,-0.107631,-0.702420,-0.578861,90.634354,25.927064,136.925634
15113,NaN,-4.622534,7.689404,0.412676,0.900923,-0.160415,-0.878072,-0.975038,1.636732,-0.579663,-0.396396,-0.098901,-0.703177,-0.581920,90.541713,26.255061,137.971479
15114,NaN,-4.474511,7.155057,0.450583,0.956081,-0.169381,-1.417683,-0.838259,1.171653,-0.541046,-0.394299,-0.091910,-0.703331,-0.584300,90.399940,26.566686,138.721411
15115,NaN,-4.158900,6.870701,0.351493,0.728382,-0.119402,-1.807593,-0.700546,0.741092,-0.505396,-0.393520,-0.086582,-0.702995,-0.586041,90.218121,26.859463,139.196382
15116,NaN,-3.816419,6.682379,0.216793,0.429133,-0.066434,-2.126497,-0.579046,0.388278,-0.437873,-0.393732,-0.082749,-0.702269,-0.587321,90.003689,27.117151,139.444094
15117,NaN,-3.535926,6.480704,0.113328,0.200806,-0.041743,-2.432109,-0.515414,0.102843,-0.362931,-0.394684,-0.080154,-0.701133,-0.588399,89.743516,27.330709,139.507668
15118,NaN,-3.266281,6.235311,0.042045,0.019975,-0.020175,-2.773615,-0.475339,-0.092909,-0.293322,-0.396109,-0.078445,-0.699688,-0.589390,89.446674,27.505636,139.443800
15119,NaN,-3.139178,5.958166,-0.123243,-0.107629,-0.166463,-3.079934,-0.438666,-0.164367,-0.207074,-0.397501,-0.077333,-0.698177,-0.590391,89.150433,27.628584,139.333689
15120,NaN,-3.242890,5.927997,-0.239935,-0.130301,-0.339237,-3.061175,-0.403445,-0.142714,-0.111427,-0.398530,-0.076548,-0.696767,-0.591465,88.879553,27.698226,139.237513
15121,NaN,-3.451544,5.958667,-0.282009,-0.049474,-0.500406,-2.939152,-0.404826,-0.046192,-0.015056,-0.398926,-0.075823,-0.695510,-0.592769,88.638595,27.711724,139.205111
15122,NaN,-3.600259,5.845514,-0.280351,0.078877,-0.636323,-2.971684,-0.422892,0.077605,0.067029,-0.398664,-0.074966,-0.694407,-0.594344,88.423885,27.681683,139.253778
15123,NaN,-3.667083,5.657599,-0.377960,0.123776,-0.821219,-3.111268,-0.401482,0.181102,0.123120,-0.397855,-0.074053,-0.693556,-0.595993,88.254229,27.619608,139.370831
15124,NaN,-3.596797,5.556441,-0.459612,0.061233,-0.887913,-3.237730,-0.368211,0.272135,0.157090,-0.396626,-0.073038,-0.692963,-0.597624,88.129959,27.541826,139.547241
15125,NaN,-3.471202,5.528108,-0.599817,-0.097217,-0.945118,-3.326834,-0.332378,0.384943,0.173681,-0.394930,-0.071828,-0.692696,-0.599202,88.060945,27.455122,139.797108
15126,NaN,-3.348245,5.559820,-0.702717,-0.248052,-0.955963,-3.359724,-0.311016,0.525178,0.169680,-0.392760,-0.070211,-0.692762,-0.600743,88.044380,27.375506,140.137061
15127,NaN,-3.473761,5.543699,-0.688900,-0.133269,-1.027092,-3.316420,-0.290688,0.678722,0.172533,-0.390027,-0.068196,-0.693184,-0.602266,88.085424,27.295260,140.575960
15128,NaN,-3.808452,5.442207,-0.631370,0.190425,-1.198319,-3.251569,-0.263647,0.798287,0.183513,-0.386841,-0.065897,-0.693904,-0.603746,88.175721,27.212478,141.091612
15129,NaN,-4.216678,5.439753,-0.562220,0.542999,-1.367019,-3.065562,-0.214047,0.855904,0.209110,-0.383344,-0.063621,-0.694866,-0.605113,88.311457,27.113181,141.644318
15130,NaN,-4.630286,5.458895,-0.447706,0.926709,-1.489314,-2.858368,-0.159711,0.853801,0.254355,-0.379703,-0.061596,-0.695957,-0.606362,88.476025,26.988745,142.195680
15131,NaN,-5.103774,5.689132,-0.302575,1.299392,-1.559504,-2.438024,-0.089009,0.798715,0.298180,-0.376081,-0.060040,-0.697134,-0.607422,88.664416,26.834810,142.711201
15132,NaN,-5.483774,5.836577,-0.197732,1.618885,-1.628976,-2.137925,-0.037246,0.707050,0.350819,-0.372609,-0.059024,-0.698267,-0.608360,88.853784,26.650387,143.167466
15133,NaN,-5.751958,5.971307,-0.138506,1.840604,-1.679355,-1.903676,0.030493,0.557515,0.392651,-0.369495,-0.058752,-0.699307,-0.609090,89.037907,26.436781,143.526840
15134,NaN,-5.841655,6.172146,-0.096841,1.901256,-1.635709,-1.692393,0.124324,0.387313,0.432838,-0.366834,-0.059292,-0.700299,-0.609507,89.225302,26.200232,143.776596
15135,NaN,-5.894541,6.583343,0.083612,1.942019,-1.412618,-1.308225,0.215917,0.208236,0.457970,-0.364682,-0.060653,-0.701230,-0.609594,89.413995,25.944735,143.910670
15136,NaN,-5.810322,7.039649,0.056959,1.748205,-1.277960,-0.945323,0.299469,0.050585,0.478187,-0.363006,-0.062696,-0.702115,-0.609369,89.605352,25.679367,143.943611
15137,NaN,-5.665506,7.545754,0.009453,1.484809,-1.118290,-0.561688,0.370791,-0.059299,0.485131,-0.361656,-0.065248,-0.703011,-0.608871,89.807366,25.406717,143.905372
15138,NaN,-5.424965,8.159560,-0.057993,1.107868,-0.895743,-0.118254,0.438538,-0.131150,0.493459,-0.360522,-0.068147,-0.703973,-0.608114,90.028016,25.132476,143.820975
15139,NaN,-5.421771,8.834888,-0.121879,0.894490,-0.779766,0.485722,0.483445,-0.189486,0.511723,-0.359503,-0.071391,-0.704951,-0.607210,90.259233,24.845047,143.698279
15140,NaN,-5.386031,9.519945,-0.245626,0.627549,-0.690928,1.088113,0.494047,-0.225945,0.526759,-0.358574,-0.074793,-0.705881,-0.606269,90.486569,24.552837,143.551969
15141,NaN,-4.991381,10.323261,-0.517798,-0.019888,-0.494757,1.654924,0.473770,-0.160383,0.523264,-0.357411,-0.077970,-0.706859,-0.605416,90.720101,24.259523,143.445551
15142,NaN,-4.483824,11.637316,-0.687500,-0.839305,-0.015420,2.649221,0.473286,0.072286,0.525068,-0.355432,-0.080423,-0.708242,-0.604644,91.012564,23.966911,143.484376
15143,NaN,-4.740999,13.110213,-0.566991,-0.948233,0.326427,4.103836,0.394286,0.324303,0.568803,-0.352440,-0.082152,-0.709806,-0.604329,91.322755,23.642820,143.678186
15144,NaN,-6.237866,13.915053,-0.059957,0.319590,0.125392,5.432781,0.253462,0.382621,0.641986,-0.349087,-0.083692,-0.711007,-0.604651,91.563987,23.278307,143.905516
15145,NaN,-7.807338,13.635933,0.309217,1.893896,-0.520240,5.779953,0.121113,0.166135,0.622887,-0.346597,-0.085609,-0.711429,-0.605318,91.674966,22.924413,143.996076
15146,NaN,-8.079635,12.633401,0.493051,2.591673,-0.818996,4.943262,0.058180,-0.097548,0.681192,-0.344907,-0.088398,-0.711171,-0.606185,91.684999,22.544762,143.921656
15147,NaN,-7.383154,11.932497,0.562348,2.393007,-0.620490,4.011184,0.136690,-0.341405,0.667504,-0.344072,-0.092036,-0.710727,-0.606639,91.683596,22.173768,143.696177
15148,NaN,-6.596744,12.257551,0.483931,1.728989,-0.230263,4.005988,0.206264,-0.534681,0.566986,-0.344208,-0.095995,-0.710197,-0.606569,91.678860,21.867150,143.354146
15149,NaN,-5.708277,12.652871,0.146680,0.803874,0.033976,4.045641,0.141394,-0.654560,0.516210,-0.344932,-0.100050,-0.709276,-0.606580,91.612447,21.587816,142.939553
15150,NaN,-5.118575,12.773102,-0.281168,0.105097,-0.000198,3.950294,0.091355,-0.801911,0.395980,-0.346580,-0.104010,-0.707996,-0.606471,91.486249,21.382653,142.437890
15151,NaN,-4.695118,13.144078,-0.659990,-0.532536,-0.016420,4.150209,0.075380,-1.005071,0.232907,-0.349423,-0.108006,-0.706383,-0.606021,91.308771,21.268825,141.814468
15152,NaN,-4.535094,13.621331,-0.846437,-0.914254,0.003668,4.539597,0.006225,-1.209566,0.079559,-0.353497,-0.111930,-0.704264,-0.605413,91.047006,21.246642,141.068451
15153,NaN,-4.367954,13.629121,-1.019832,-1.197792,-0.073392,4.485262,-0.126516,-1.401538,-0.069361,-0.358739,-0.115696,-0.701456,-0.604880,90.667429,21.303911,140.205458
15154,NaN,-4.057952,13.223784,-0.777012,-1.232602,0.152081,3.985713,-0.277335,-1.514782,-0.164662,-0.364752,-0.119169,-0.698006,-0.604602,90.173931,21.413610,139.272672
15155,NaN,-3.899555,12.436472,-0.563743,-1.081463,0.167939,3.186981,-0.351941,-1.568070,-0.220304,-0.371122,-0.122490,-0.694222,-0.604418,89.623960,21.543739,138.304870
15156,NaN,-3.496503,11.287339,-0.323848,-0.979466,0.279955,1.964232,-0.317204,-1.519421,-0.390059,-0.377808,-0.125107,-0.690692,-0.603784,89.100046,21.766306,137.363785
15157,NaN,-3.150816,10.189633,-0.021141,-0.793680,0.443546,0.814137,-0.181562,-1.323025,-0.611149,-0.384359,-0.126641,-0.688039,-0.602355,88.693295,22.107265,136.537277
15158,NaN,-3.305407,9.342940,0.307233,-0.305110,0.388632,0.090140,-0.069931,-1.109901,-0.695598,-0.390357,-0.127428,-0.686152,-0.600482,88.392648,22.498121,135.837261
15159,NaN,-3.517132,8.467956,0.313355,0.023668,0.058218,-0.638249,0.020552,-1.028309,-0.704179,-0.396012,-0.128134,-0.684673,-0.598313,88.158254,22.889106,135.183510
15160,NaN,-3.512326,7.610559,-0.041104,-0.035280,-0.387656,-1.439704,0.123468,-1.051764,-0.691043,-0.401642,-0.129132,-0.683419,-0.595775,87.970844,23.272985,134.512237
15161,NaN,-2.939090,7.104357,-0.578855,-0.686741,-0.498236,-2.149460,0.175231,-1.015583,-0.679931,-0.407050,-0.130181,-0.682358,-0.593086,87.817808,23.646334,133.860429
15162,NaN,-2.060156,6.928474,-0.984127,-1.526672,-0.213398,-2.682473,0.211171,-0.813893,-0.692209,-0.411784,-0.130636,-0.681798,-0.590356,87.730250,24.033006,133.332041
15163,NaN,-1.963585,7.050632,-1.165211,-1.794262,-0.198117,-2.624791,0.213383,-0.487479,-0.745462,-0.415535,-0.129971,-0.681934,-0.587711,87.724292,24.454123,133.005041
15164,NaN,-3.086278,7.057179,-1.044158,-1.050975,-0.811746,-2.154008,0.142896,-0.204065,-0.752815,-0.418393,-0.128276,-0.682444,-0.585459,87.748943,24.888825,132.855635
15165,NaN,-4.559425,7.031444,-0.692210,0.079682,-1.508488,-1.540656,0.096553,-0.108951,-0.721400,-0.420844,-0.126334,-0.682987,-0.583488,87.772539,25.304812,132.766564
15166,NaN,-5.495254,7.053090,-0.416395,0.803972,-1.889434,-1.100589,0.104397,-0.198449,-0.654477,-0.423409,-0.124873,-0.683313,-0.581562,87.775605,25.683472,132.622521
15167,NaN,-5.517880,6.993154,-0.280732,0.889832,-1.792963,-1.128033,0.118499,-0.396656,-0.610731,-0.426496,-0.124190,-0.683224,-0.579554,87.731813,26.029630,132.352551
15168,NaN,-5.095159,6.812887,-0.278957,0.643176,-1.536551,-1.465295,0.139218,-0.611797,-0.617645,-0.430332,-0.124123,-0.682731,-0.577310,87.636560,26.377647,131.944263
15169,NaN,-4.673553,6.616035,-0.287293,0.394303,-1.296032,-1.821375,0.184293,-0.797621,-0.670497,-0.434902,-0.124531,-0.681982,-0.574676,87.510725,26.747527,131.413197
15170,NaN,-4.383695,6.463854,-0.403875,0.128031,-1.200625,-2.085914,0.237312,-0.955141,-0.745687,-0.440192,-0.125221,-0.681069,-0.571574,87.363332,27.158601,130.776445
15171,NaN,-4.047391,6.446357,-0.463077,-0.168401,-0.987214,-2.253062,0.289384,-1.077661,-0.833754,-0.446084,-0.126096,-0.680058,-0.568005,87.202831,27.611900,130.053888
15172,NaN,-3.711576,6.435327,-0.444619,-0.407344,-0.711903,-2.415817,0.331029,-1.167125,-0.920727,-0.452492,-0.126989,-0.678986,-0.564006,87.029696,28.113913,129.266397
15173,NaN,-3.456438,6.523240,-0.447335,-0.646317,-0.464411,-2.459744,0.371245,-1.210707,-0.993779,-0.459186,-0.127866,-0.677930,-0.559651,86.856587,28.650894,128.442032
15174,NaN,-3.298369,6.740561,-0.429924,-0.856533,-0.216293,-2.348224,0.426161,-1.209158,-1.037088,-0.465943,-0.128683,-0.677017,-0.554965,86.704181,29.214010,127.611466
15175,NaN,-3.306646,7.143781,-0.345135,-0.985259,0.034935,-1.995141,0.454983,-1.166859,-1.063823,-0.472568,-0.129377,-0.676250,-0.550116,86.571802,29.788657,126.800988
15176,NaN,-3.332977,7.562591,-0.338483,-1.169431,0.240543,-1.627947,0.450116,-1.093917,-1.046174,-0.478882,-0.129885,-0.675588,-0.545329,86.450469,30.357468,126.033747
15177,NaN,-3.374101,7.871320,-0.341144,-1.313320,0.395694,-1.352393,0.418619,-1.008712,-0.998659,-0.484757,-0.130262,-0.674971,-0.540793,86.332215,30.897511,125.318951
15178,NaN,-3.431498,8.064030,-0.291585,-1.364519,0.528479,-1.167053,0.388536,-0.913500,-0.918820,-0.490103,-0.130549,-0.674419,-0.536578,86.222620,31.397347,124.666495
15179,NaN,-3.518087,8.214362,-0.263224,-1.398532,0.608058,-1.003836,0.354127,-0.810869,-0.821018,-0.494830,-0.130823,-0.673931,-0.532771,86.125444,31.841060,124.082584
15180,NaN,-3.705443,8.329368,-0.171529,-1.316113,0.634488,-0.812519,0.325842,-0.712234,-0.700553,-0.498917,-0.131144,-0.673514,-0.529397,86.044371,32.221937,123.567699
15181,NaN,-3.906677,8.340528,0.006934,-1.113557,0.650050,-0.693270,0.306151,-0.617156,-0.559005,-0.502299,-0.131661,-0.673171,-0.526500,85.986649,32.522223,123.120968
15182,NaN,-4.093685,8.335374,0.172635,-0.913933,0.650363,-0.592701,0.311234,-0.550199,-0.412316,-0.505068,-0.132484,-0.672902,-0.523982,85.957081,32.743843,122.725492
15183,NaN,-4.179485,8.401688,0.370948,-0.748171,0.759187,-0.482206,0.339813,-0.507474,-0.264537,-0.507269,-0.133784,-0.672708,-0.521769,85.962460,32.879890,122.364947
15184,NaN,-4.188226,8.569383,0.499356,-0.698298,0.915986,-0.331218,0.374473,-0.481042,-0.126693,-0.509004,-0.135545,-0.672574,-0.519795,85.999879,32.940941,122.028991
15185,NaN,-4.133507,8.678379,0.490902,-0.758028,1.007851,-0.270636,0.397322,-0.470197,-0.009385,-0.510367,-0.137749,-0.672438,-0.518052,86.057739,32.932991,121.705582
15186,NaN,-3.991344,8.826349,0.617452,-0.748599,1.248269,-0.215923,0.431405,-0.457766,0.077694,-0.511443,-0.140281,-0.672358,-0.516413,86.141638,32.878530,121.395077
15187,NaN,-3.932963,9.125905,0.723233,-0.760296,1.477060,0.011445,0.476428,-0.460255,0.153353,-0.512286,-0.143206,-0.672325,-0.514815,86.253192,32.778720,121.086161
15188,NaN,-3.987712,9.401912,0.822341,-0.710733,1.606669,0.281241,0.509309,-0.476533,0.215051,-0.513003,-0.146445,-0.672284,-0.513241,86.379159,32.645803,120.769267
15189,NaN,-3.963657,9.736974,0.865514,-0.752826,1.783388,0.556543,0.541850,-0.512821,0.270386,-0.513660,-0.150062,-0.672181,-0.511671,86.513086,32.478327,120.430027
15190,NaN,-3.922586,10.102257,0.956196,-0.763575,2.006795,0.852493,0.559614,-0.540643,0.320380,-0.514269,-0.153946,-0.672004,-0.510135,86.648622,32.283964,120.074321
15191,NaN,-3.943296,10.421303,0.877574,-0.870305,2.069560,1.136398,0.534510,-0.569291,0.373627,-0.514841,-0.158030,-0.671635,-0.508794,86.762428,32.056870,119.701510
15192,NaN,-3.988247,10.546116,0.809106,-0.897009,2.028739,1.271564,0.474949,-0.581675,0.428622,-0.515358,-0.162160,-0.671027,-0.507772,86.839763,31.800139,119.323001
15193,NaN,-3.988058,10.489701,0.619996,-0.993554,1.872562,1.224924,0.397864,-0.569744,0.484896,-0.515739,-0.166261,-0.670196,-0.507157,86.880830,31.510227,118.955351
15194,NaN,-4.197795,10.363261,0.488332,-0.939080,1.551170,1.231260,0.306754,-0.515393,0.552132,-0.515840,-0.170200,-0.669206,-0.507055,86.891463,31.185085,118.627575
15195,NaN,-4.445266,10.213150,0.264981,-0.947065,1.134002,1.230668,0.201841,-0.439464,0.641407,-0.515535,-0.173983,-0.668059,-0.507593,86.872785,30.809811,118.354998
15196,NaN,-4.506717,10.134878,0.008939,-1.084503,0.860580,1.192267,0.120137,-0.378969,0.736510,-0.514855,-0.177708,-0.666766,-0.508692,86.831205,30.383096,118.127397
15197,NaN,-4.233154,10.225518,-0.176797,-1.346483,0.938454,1.133439,0.054267,-0.329427,0.820575,-0.513839,-0.181423,-0.665347,-0.510263,86.772845,29.908517,117.937226
15198,NaN,-4.090674,10.258960,-0.223860,-1.419437,0.952849,1.100903,-0.045268,-0.252286,0.885124,-0.512487,-0.184888,-0.663800,-0.512389,86.685442,29.400333,117.801837
15199,NaN,-4.254150,9.934371,-0.095080,-1.118950,0.664882,0.915946,-0.157096,-0.174667,0.920302,-0.510875,-0.187990,-0.662119,-0.515039,86.561856,28.873427,117.720447
15200,NaN,-4.554228,9.314731,0.223201,-0.521421,0.245652,0.542117,-0.216101,-0.115858,0.925816,-0.509102,-0.190796,-0.660416,-0.517941,86.423975,28.346100,117.679341
15201,NaN,-4.868228,8.880642,0.617615,0.095358,-0.067491,0.332879,-0.196106,-0.084995,0.906304,-0.507243,-0.193511,-0.658849,-0.520746,86.308085,27.830141,117.658990
15202,NaN,-4.884990,8.625211,0.969665,0.505838,-0.090228,0.133820,-0.123142,-0.084227,0.850003,-0.505452,-0.196214,-0.657514,-0.523158,86.233363,27.347176,117.637815
15203,NaN,-4.447567,8.715493,1.326615,0.643466,0.389451,0.032838,0.013299,-0.098929,0.765209,-0.503784,-0.199025,-0.656572,-0.524885,86.231649,26.911318,117.604073
15204,NaN,-3.384118,9.046931,1.504302,0.307200,1.378806,-0.139722,0.143897,-0.151879,0.671457,-0.502405,-0.201986,-0.655923,-0.525887,86.287430,26.527912,117.532365
15205,NaN,-2.511032,9.115961,0.959313,-0.508855,1.785523,-0.491794,0.189765,-0.160163,0.530177,-0.501368,-0.204626,-0.655510,-0.526370,86.365325,26.224243,117.449337
15206,NaN,-2.152925,9.354653,0.409436,-1.163426,1.858710,-0.458344,0.198241,-0.065086,0.423806,-0.500291,-0.206681,-0.655461,-0.526653,86.472467,25.985551,117.422140
15207,NaN,-2.154333,10.036011,-0.001190,-1.661400,1.881961,0.140227,0.185642,0.107800,0.340316,-0.498874,-0.207980,-0.655896,-0.526944,86.619423,25.800004,117.501231
15208,NaN,-2.521127,11.074877,-0.195454,-1.907385,1.847765,1.232433,0.096597,0.323617,0.311526,-0.496919,-0.208390,-0.656659,-0.527678,86.773344,25.638198,117.715474
15209,NaN,-3.167936,11.783557,-0.181997,-1.773302,1.563662,2.159421,-0.112079,0.542544,0.343746,-0.494370,-0.207811,-0.657380,-0.529401,86.867722,25.464165,118.069138
15210,NaN,-3.761736,11.686265,-0.146664,-1.447542,1.032974,2.335495,-0.355979,0.752164,0.391925,-0.491252,-0.206229,-0.657910,-0.532255,86.878195,25.268866,118.556301
15211,NaN,-4.030670,11.123328,-0.144146,-1.176780,0.572731,1.946666,-0.531887,0.933340,0.443912,-0.487566,-0.203899,-0.658348,-0.535987,86.835804,25.049600,119.159180
15212,NaN,-4.219495,10.690620,-0.192966,-1.016289,0.191634,1.635492,-0.650232,1.075894,0.493969,-0.483380,-0.201055,-0.658738,-0.540356,86.761388,24.806691,119.852707
15213,NaN,-4.370386,10.283041,-0.241464,-0.875207,-0.152067,1.327781,-0.769735,1.188133,0.515117,-0.478861,-0.197679,-0.659024,-0.545254,86.645514,24.556551,120.616879
15214,NaN,-4.282970,9.539939,-0.358436,-0.813328,-0.452014,0.609241,-0.891256,1.286690,0.481560,-0.474200,-0.193621,-0.659206,-0.550538,86.481721,24.330504,121.440799
15215,NaN,-3.899900,8.820004,-0.305361,-0.755979,-0.411752,-0.202606,-0.993871,1.506057,0.405422,-0.469090,-0.188450,-0.659651,-0.556149,86.311720,24.158259,122.398830
15216,NaN,-3.763215,8.015487,0.082069,-0.279687,-0.382108,-0.970050,-1.041104,1.809696,0.349969,-0.463130,-0.182124,-0.660664,-0.562018,86.188758,24.031149,123.544042
15217,NaN,-4.122995,7.194058,0.660850,0.613483,-0.584985,-1.537925,-0.976316,2.031287,0.234600,-0.456649,-0.174920,-0.662399,-0.567540,86.155556,23.980077,124.822560
15218,NaN,-4.825604,6.566885,1.200812,1.615767,-0.950905,-1.791639,-0.785644,2.142036,0.109642,-0.449930,-0.167403,-0.664952,-0.572170,86.257284,24.003830,126.164982
15219,NaN,-5.444721,6.424347,1.656351,2.387156,-1.106152,-1.643359,-0.531817,2.153663,-0.020789,-0.443277,-0.159967,-0.668283,-0.575599,86.506916,24.098946,127.510264
15220,NaN,-5.345512,6.540423,1.986015,2.593417,-0.703786,-1.562000,-0.319338,2.095038,-0.134015,-0.436924,-0.152773,-0.672106,-0.577954,86.864766,24.250519,128.816456
15221,NaN,-4.539235,6.498210,2.180637,2.323183,0.081218,-1.927135,-0.138056,1.949018,-0.273075,-0.431279,-0.145915,-0.676172,-0.579223,87.292086,24.469087,130.029535
15222,NaN,-3.524455,6.420310,1.708368,1.412593,0.549529,-2.446370,0.018771,1.813207,-0.424002,-0.426378,-0.139261,-0.680445,-0.579485,87.778272,24.762272,131.157243
15223,NaN,-2.804837,6.394949,1.086643,0.536481,0.702730,-2.801190,0.136309,1.753516,-0.568127,-0.421977,-0.132532,-0.684975,-0.578947,88.323356,25.127202,132.250123
15224,NaN,-2.620618,6.640873,0.511171,-0.068362,0.587674,-2.679696,0.185328,1.694036,-0.681843,-0.418045,-0.125675,-0.689536,-0.577915,88.889029,25.547238,133.310749
15225,NaN,-2.992786,6.826789,0.102397,-0.188722,0.196147,-2.363009,0.131996,1.540007,-0.723277,-0.414760,-0.119001,-0.693595,-0.576836,89.392570,25.980302,134.281266
15226,NaN,-3.615460,6.795439,-0.333304,-0.099933,-0.446568,-2.121728,-0.003992,1.240405,-0.693517,-0.412487,-0.113002,-0.696577,-0.576078,89.742802,26.388879,135.067479
15227,NaN,-4.016545,6.494362,-0.479939,0.138166,-0.840011,-2.209083,-0.150019,0.845257,-0.613757,-0.411423,-0.108117,-0.698254,-0.575745,89.903570,26.747516,135.605569
15228,NaN,-4.320264,6.088727,-0.532379,0.407807,-1.157717,-2.429328,-0.249983,0.388744,-0.486036,-0.411635,-0.104781,-0.698620,-0.575767,89.877603,27.032358,135.852375
15229,NaN,-4.651068,5.867910,-0.530970,0.665764,-1.417733,-2.471472,-0.307807,-0.044110,-0.316840,-0.412895,-0.103165,-0.697836,-0.576108,89.693005,27.219281,135.821031
15230,NaN,-4.717582,5.814511,-0.346315,0.822356,-1.350673,-2.485795,-0.315109,-0.376279,-0.138844,-0.414807,-0.103107,-0.696247,-0.576666,89.405680,27.303221,135.575501
15231,NaN,-4.690982,5.982539,-0.071442,0.908883,-1.110646,-2.346671,-0.284981,-0.639544,0.051695,-0.417062,-0.104538,-0.694097,-0.577374,89.058604,27.274158,135.161419
15232,NaN,-4.685696,6.174260,0.141474,0.961984,-0.938055,-2.177793,-0.249799,-0.819268,0.219220,-0.419438,-0.107134,-0.691573,-0.578205,88.680082,27.145557,134.634174
15233,NaN,-4.526349,6.194859,0.362871,0.989959,-0.727247,-2.230697,-0.189767,-0.920530,0.348521,-0.421743,-0.110600,-0.688927,-0.579033,88.309900,26.937521,134.045785
15234,NaN,-4.500173,6.391504,0.409212,0.926948,-0.677297,-2.069817,-0.103953,-0.978311,0.445127,-0.423914,-0.114736,-0.686335,-0.579721,87.976042,26.670814,133.424998
15235,NaN,-4.536260,6.851621,0.459265,0.827113,-0.589879,-1.645628,0.014316,-0.998087,0.535310,-0.425806,-0.119494,-0.683972,-0.580166,87.709956,26.348208,132.796923
15236,NaN,-4.678646,7.408729,0.590461,0.830849,-0.492715,-1.083762,0.118842,-1.021748,0.607570,-0.427498,-0.124778,-0.681794,-0.580373,87.502351,25.982410,132.159030
15237,NaN,-4.760921,7.938243,0.631517,0.754122,-0.432292,-0.575542,0.200477,-1.036626,0.647809,-0.429051,-0.130420,-0.679773,-0.580358,87.343624,25.590307,131.516198
15238,NaN,-4.739678,8.326076,0.566727,0.592270,-0.415978,-0.242681,0.273740,-1.031278,0.630148,-0.430579,-0.136130,-0.677959,-0.580036,87.232821,25.208252,130.879315
15239,NaN,-4.514310,8.410794,0.532525,0.432292,-0.320070,-0.267301,0.319954,-0.996433,0.558709,-0.432143,-0.141600,-0.676380,-0.579407,87.162128,24.865989,130.264804
15240,NaN,-4.452233,8.285638,0.552061,0.473356,-0.348918,-0.408809,0.374093,-0.959858,0.453248,-0.433843,-0.146710,-0.675087,-0.578372,87.133952,24.585856,129.671890
15241,NaN,-4.406046,8.172825,0.494131,0.459226,-0.423538,-0.535722,0.439584,-0.913287,0.354548,-0.435603,-0.151500,-0.674137,-0.576920,87.157586,24.362296,129.106375
15242,NaN,-4.451242,8.207656,0.431068,0.447586,-0.511565,-0.490516,0.494982,-0.872577,0.275427,-0.437406,-0.156012,-0.673476,-0.575123,87.223941,24.186835,128.564673
15243,NaN,-4.513554,8.331449,0.402272,0.444829,-0.555296,-0.355375,0.526742,-0.833995,0.206121,-0.439236,-0.160255,-0.673028,-0.573083,87.319636,24.051517,128.045484
15244,NaN,-4.615072,8.590351,0.479947,0.507037,-0.514236,-0.076066,0.543147,-0.812191,0.152970,-0.441128,-0.164277,-0.672699,-0.570872,87.430107,23.949388,127.538650
15245,NaN,-4.866958,9.002555,0.851623,0.838837,-0.353213,0.416198,0.514879,-0.843492,0.104685,-0.443267,-0.168171,-0.672245,-0.568612,87.517308,23.873563,127.011032
15246,NaN,-4.862617,9.707026,1.216212,0.941103,0.073588,1.071221,0.448254,-0.845950,0.035444,-0.445665,-0.171677,-0.671636,-0.566405,87.564786,23.839299,126.480141
15247,NaN,-4.177864,10.481037,1.073346,0.254570,0.718884,1.495590,0.351828,-0.642899,-0.020975,-0.447608,-0.174210,-0.671244,-0.564561,87.608618,23.841200,126.074878
15248,NaN,-3.388336,11.645277,0.896190,-0.618064,1.560167,2.232240,0.203762,-0.119349,-0.107806,-0.448172,-0.174631,-0.671674,-0.563471,87.698305,23.906929,125.994995
15249,NaN,-2.991235,12.784297,0.825406,-1.195851,2.191621,3.103721,-0.031884,0.767696,-0.269071,-0.446405,-0.171493,-0.673565,-0.563581,87.878140,24.083369,126.467255
15250,NaN,-3.455607,13.004110,0.826358,-1.018537,1.981961,3.482605,-0.253672,1.843332,-0.462953,-0.441735,-0.164156,-0.677358,-0.564897,88.208205,24.391111,127.612452
15251,NaN,-5.780221,11.940133,0.742906,0.504537,0.033799,3.464074,-0.387100,2.599536,-0.522847,-0.434716,-0.154174,-0.682405,-0.567076,88.668341,24.736623,129.238228
15252,NaN,-8.694978,10.927869,1.035730,2.742850,-1.972661,3.776835,-0.210312,2.479269,-0.569918,-0.428037,-0.144722,-0.687609,-0.568361,89.209112,25.095952,130.795197
15253,NaN,-9.845988,10.493150,1.184791,3.739569,-2.612990,3.885432,-0.083705,1.804986,-0.397498,-0.423035,-0.138040,-0.691522,-0.569021,89.652237,25.339446,131.933582
15254,NaN,-8.461204,10.022786,1.197339,3.103259,-1.692086,2.875407,-0.022351,1.010267,-0.249995,-0.420304,-0.134239,-0.693785,-0.569199,89.918455,25.491909,132.571587
15255,NaN,-5.891815,10.400686,0.790497,1.142674,-0.073637,2.112134,0.009404,0.527325,-0.206297,-0.419085,-0.132040,-0.695085,-0.569025,90.073432,25.615620,132.904340
15256,NaN,-5.322197,11.261543,1.172854,0.823136,0.879316,2.640137,0.051505,0.435210,-0.195415,-0.418136,-0.130214,-0.696297,-0.568662,90.227086,25.734267,133.179105
15257,NaN,-5.334193,11.165486,1.238563,0.901681,0.928158,2.555864,0.055519,0.252037,-0.288566,-0.418074,-0.128607,-0.697197,-0.567970,90.334292,25.904393,133.338318
15258,NaN,-5.895912,10.852852,0.554207,0.821767,0.034194,2.523303,0.127823,-0.107197,-0.399391,-0.419543,-0.127770,-0.697617,-0.566560,90.382204,26.140933,133.269252
15259,NaN,-6.083592,11.601154,-0.247340,0.095333,-0.352599,3.284045,0.204315,-0.470174,-0.408285,-0.422238,-0.128104,-0.697495,-0.564628,90.372237,26.382135,132.968477
15260,NaN,-5.193682,12.225825,-0.966979,-1.209992,-0.016587,3.450626,0.150794,-0.703351,-0.395412,-0.425751,-0.129012,-0.696708,-0.562752,90.262229,26.618276,132.517235
15261,NaN,-4.472343,12.261157,-1.347689,-1.995042,0.243349,3.153203,0.058521,-0.813234,-0.379196,-0.429641,-0.130101,-0.695407,-0.561151,90.066507,26.842372,131.994099
15262,NaN,-4.557632,12.117084,-1.529297,-2.101444,0.040629,3.052627,0.034330,-0.937660,-0.367891,-0.433947,-0.131511,-0.693745,-0.559565,89.816885,27.059780,131.388791
15263,NaN,-4.641622,11.935750,-1.684402,-2.183809,-0.163087,2.917117,0.012145,-1.054263,-0.309206,-0.438486,-0.133411,-0.691713,-0.558090,89.518605,27.238917,130.706608
15264,NaN,-4.299484,11.630762,-1.781534,-2.432588,-0.092794,2.475826,-0.020234,-1.119611,-0.217631,-0.443012,-0.135724,-0.689361,-0.556867,89.179320,27.363256,129.980775
15265,NaN,-3.764481,11.102760,-1.794575,-2.648884,0.081092,1.747573,-0.071446,-1.077621,-0.144408,-0.447202,-0.138066,-0.686891,-0.555993,88.822616,27.440675,129.281519
15266,NaN,-3.379150,10.403973,-1.704968,-2.634734,0.157289,0.939124,-0.113207,-0.914955,-0.092282,-0.450712,-0.140029,-0.684614,-0.555477,88.489042,27.487921,128.687092
15267,NaN,-3.165407,9.719234,-1.538727,-2.454598,0.167051,0.227129,-0.128642,-0.687162,-0.058460,-0.453344,-0.141447,-0.682773,-0.555241,88.214918,27.515511,128.239971
15268,NaN,-3.275567,9.055403,-1.250498,-1.994245,0.035647,-0.309263,-0.103376,-0.462166,-0.034986,-0.455127,-0.142368,-0.681490,-0.555124,88.022000,27.533283,127.938441
15269,NaN,-3.494887,8.400678,-1.072780,-1.552564,-0.237527,-0.786637,-0.076965,-0.296113,-0.028335,-0.456299,-0.142919,-0.680650,-0.555051,87.894131,27.548880,127.744179
15270,NaN,-3.565573,7.712810,-0.860146,-1.145997,-0.393901,-1.358569,-0.029476,-0.178364,-0.010928,-0.456991,-0.143304,-0.680198,-0.554936,87.828600,27.557608,127.626425
15271,NaN,-3.597984,7.147718,-0.626014,-0.773950,-0.464843,-1.836963,0.051470,-0.122914,-0.006012,-0.457420,-0.143743,-0.680092,-0.554599,87.826234,27.563793,127.544494
15272,NaN,-3.634795,6.761167,-0.411491,-0.464663,-0.485867,-2.154852,0.152753,-0.109420,-0.012600,-0.457750,-0.144347,-0.680304,-0.553909,87.885810,27.574909,127.471279
15273,NaN,-3.737705,6.515981,-0.290725,-0.232907,-0.559303,-2.319631,0.254701,-0.131529,-0.032116,-0.458132,-0.145186,-0.680759,-0.552813,87.996996,27.596008,127.383172
15274,NaN,-3.849174,6.407169,-0.211660,-0.069390,-0.614184,-2.360795,0.344387,-0.184401,-0.054561,-0.458693,-0.146293,-0.681357,-0.551318,88.143528,27.629969,127.260649
15275,NaN,-3.978511,6.348373,-0.121766,0.097448,-0.655981,-2.349083,0.407331,-0.257082,-0.070014,-0.459493,-0.147698,-0.681968,-0.549519,88.304083,27.670926,127.090676
15276,NaN,-4.060965,6.239786,0.195346,0.433031,-0.543139,-2.397703,0.451037,-0.333677,-0.088156,-0.460570,-0.149344,-0.682533,-0.547467,88.466499,27.722375,126.871133
15277,NaN,-4.041776,6.111949,0.346135,0.588602,-0.469109,-2.515760,0.507731,-0.422201,-0.106011,-0.461949,-0.151307,-0.683054,-0.545111,88.634324,27.782416,126.593809
15278,NaN,-4.053019,6.104865,0.291459,0.559388,-0.498744,-2.517510,0.547717,-0.531350,-0.131015,-0.463736,-0.153565,-0.683444,-0.542467,88.791687,27.857070,126.245703
15279,NaN,-4.001840,6.115112,0.199936,0.460014,-0.499699,-2.533404,0.563744,-0.629221,-0.141963,-0.465864,-0.156093,-0.683645,-0.539662,88.927989,27.936669,125.833733
15280,NaN,-3.843911,6.190062,0.030480,0.220634,-0.445479,-2.543141,0.549727,-0.706165,-0.160723,-0.468310,-0.158721,-0.683632,-0.536788,89.032163,28.028077,125.371749
15281,NaN,-3.765418,6.337346,-0.163955,-0.022101,-0.432992,-2.452034,0.515875,-0.743585,-0.178143,-0.470944,-0.161315,-0.683437,-0.533950,89.104584,28.128664,124.884778
15282,NaN,-3.676841,6.491164,-0.375453,-0.289058,-0.416823,-2.360304,0.459082,-0.735641,-0.189242,-0.473620,-0.163705,-0.683107,-0.531272,89.145932,28.237233,124.402763
15283,NaN,-3.605115,6.656250,-0.557463,-0.529015,-0.388432,-2.250775,0.400695,-0.700368,-0.192919,-0.476221,-0.165855,-0.682692,-0.528807,89.163635,28.347298,123.942965
15284,NaN,-3.603170,6.942459,-0.700003,-0.737808,-0.339319,-2.001731,0.336814,-0.662748,-0.195336,-0.478749,-0.167734,-0.682192,-0.526573,89.155467,28.460231,123.507471
15285,NaN,-3.823842,7.358727,-0.587830,-0.664951,-0.259902,-1.529667,0.291521,-0.647417,-0.186730,-0.481229,-0.169500,-0.681590,-0.524523,89.125090,28.567103,123.081263
15286,NaN,-4.074711,7.798667,-0.354372,-0.484987,-0.128607,-1.020857,0.266290,-0.663676,-0.181669,-0.483769,-0.171255,-0.680871,-0.522546,89.074447,28.671775,122.644320
15287,NaN,-4.216981,8.102436,-0.133128,-0.331654,0.018639,-0.683627,0.253846,-0.733324,-0.176973,-0.486534,-0.173182,-0.679934,-0.520560,88.993695,28.771533,122.161030
15288,NaN,-4.346468,8.332062,0.129176,-0.131078,0.164074,-0.416539,0.274905,-0.823508,-0.172706,-0.489570,-0.175400,-0.678820,-0.518420,88.895796,28.868319,121.618543
15289,NaN,-4.352448,8.474732,0.279247,-0.058243,0.302824,-0.286526,0.316259,-0.922745,-0.166781,-0.492878,-0.178000,-0.677547,-0.516060,88.788904,28.958628,121.010159
15290,NaN,-4.332518,8.592056,0.369321,-0.039281,0.417194,-0.192140,0.366263,-1.019901,-0.156667,-0.496433,-0.180995,-0.676138,-0.513451,88.678922,29.041954,120.337912
15291,NaN,-4.225792,8.620957,0.349256,-0.126169,0.503054,-0.219398,0.420575,-1.102916,-0.137512,-0.500152,-0.184405,-0.674620,-0.510618,88.572468,29.111008,119.610559
15292,NaN,-4.023891,8.609185,0.337737,-0.231005,0.649895,-0.328590,0.470210,-1.148740,-0.116030,-0.503908,-0.188114,-0.673072,-0.507607,88.479156,29.166962,118.853226
15293,NaN,-3.772866,8.732998,0.313204,-0.394328,0.886143,-0.343943,0.522903,-1.160102,-0.089781,-0.507563,-0.192073,-0.671574,-0.504456,88.411734,29.205788,118.088183
15294,NaN,-3.637891,8.904473,0.374803,-0.435349,1.097525,-0.259140,0.574252,-1.141397,-0.053138,-0.510996,-0.196224,-0.670192,-0.501220,88.379688,29.224228,117.336077
15295,NaN,-3.604785,9.111238,0.495811,-0.380876,1.271500,-0.091928,0.601364,-1.102094,0.000631,-0.514112,-0.200523,-0.668897,-0.498052,88.376117,29.211425,116.610494
15296,NaN,-3.686371,9.406818,0.569112,-0.334402,1.367627,0.208248,0.643164,-1.031310,0.071011,-0.516757,-0.204977,-0.667793,-0.494974,88.420272,29.160389,115.933038
15297,NaN,-3.893666,9.990129,0.574538,-0.355600,1.452193,0.820184,0.677609,-0.902615,0.167732,-0.518676,-0.209522,-0.666982,-0.492149,88.526998,29.055980,115.341894
15298,NaN,-4.126403,10.657782,0.459308,-0.479648,1.493881,1.517118,0.671732,-0.736009,0.277244,-0.519763,-0.213997,-0.666455,-0.489784,88.685473,28.892893,114.862178
15299,NaN,-4.289575,11.242931,0.334684,-0.605153,1.543007,2.110756,0.615555,-0.548284,0.392730,-0.519988,-0.218249,-0.666138,-0.488098,88.873208,28.666682,114.506987
15300,NaN,-4.383339,11.662359,0.087128,-0.820844,1.512948,2.527027,0.523165,-0.353632,0.504722,-0.519383,-0.222153,-0.665967,-0.487213,89.070593,28.379686,114.280075
15301,NaN,-4.529556,11.900202,-0.142689,-0.959380,1.358090,2.812155,0.386405,-0.156595,0.589073,-0.518060,-0.225502,-0.665871,-0.487216,89.251487,28.046357,114.181603
15302,NaN,-4.539367,12.016313,-0.426380,-1.172991,1.226137,2.926993,0.239012,0.043210,0.655007,-0.516071,-0.228198,-0.665851,-0.488098,89.408830,27.676955,114.212340
15303,NaN,-4.427549,12.325030,-0.750495,-1.509684,1.244484,3.158209,0.099929,0.216223,0.698269,-0.513552,-0.230255,-0.665879,-0.489747,89.537459,27.283504,114.353899
15304,NaN,-4.518312,12.588128,-0.935437,-1.643127,1.123963,3.445788,-0.067326,0.337717,0.722903,-0.510752,-0.231664,-0.665773,-0.492149,89.604541,26.876139,114.572511
15305,NaN,-4.850193,12.208449,-0.927103,-1.401677,0.612232,3.267440,-0.289955,0.358522,0.731644,-0.508112,-0.232478,-0.665150,-0.495330,89.548209,26.463944,114.803651
15306,NaN,-5.076133,11.384478,-0.572035,-0.818917,0.150316,2.637478,-0.455472,0.280688,0.730194,-0.505915,-0.233058,-0.663909,-0.498958,89.373831,26.052287,114.985199
15307,NaN,-4.648044,10.328895,-0.242720,-0.481081,0.125995,1.505491,-0.557841,0.056643,0.728326,-0.504578,-0.233924,-0.661834,-0.502649,89.077747,25.640928,115.025305
15308,NaN,-3.916540,9.049637,-0.168349,-0.462449,0.171588,0.037163,-0.650499,-0.168995,0.649555,-0.504281,-0.234861,-0.659036,-0.506175,88.667831,25.272041,114.924007
15309,NaN,-3.360287,7.970166,-0.088020,-0.418391,0.178223,-1.174661,-0.625485,-0.376590,0.553435,-0.504873,-0.236062,-0.655876,-0.509121,88.217476,24.954635,114.693030
15310,NaN,-2.990722,7.536930,0.041073,-0.387157,0.316366,-1.719413,-0.496193,-0.517955,0.437654,-0.506059,-0.237568,-0.652814,-0.511174,87.805420,24.698773,114.373569
15311,NaN,-2.569294,7.955327,0.216842,-0.501179,0.844937,-1.507856,-0.298749,-0.632340,0.329098,-0.507656,-0.239505,-0.650085,-0.512165,87.477137,24.500868,113.981610
15312,NaN,-2.273847,8.913594,0.258552,-0.792282,1.416000,-0.754184,-0.154294,-0.668336,0.259972,-0.509364,-0.241677,-0.647708,-0.512460,87.223622,24.339306,113.566739
15313,NaN,-2.166890,9.733575,0.140415,-1.124518,1.717126,-0.053361,-0.133236,-0.608457,0.231226,-0.510923,-0.243648,-0.645564,-0.512679,86.998388,24.194806,113.189730
15314,NaN,-2.111633,10.136604,-0.060186,-1.425068,1.793045,0.285205,-0.164286,-0.459636,0.230188,-0.512033,-0.245159,-0.643717,-0.513174,86.795171,24.053548,112.907015
15315,NaN,-2.187702,10.253163,-0.226560,-1.587625,1.669913,0.417437,-0.208281,-0.230620,0.259836,-0.512386,-0.246059,-0.642302,-0.514163,86.626019,23.902707,112.769541
15316,NaN,-2.395397,10.381486,-0.464981,-1.769326,1.405666,0.609540,-0.253859,0.045331,0.313119,-0.511764,-0.246310,-0.641410,-0.515774,86.502338,23.729592,112.807176
15317,NaN,-2.725604,10.499345,-0.607892,-1.813173,1.065523,0.846184,-0.307180,0.338899,0.383219,-0.510087,-0.245882,-0.641041,-0.518092,86.422115,23.527785,113.031040
15318,NaN,-3.083589,10.556286,-0.593833,-1.683297,0.736737,1.046400,-0.367500,0.599207,0.451492,-0.507461,-0.244853,-0.641087,-0.521093,86.372687,23.295355,113.419673
15319,NaN,-3.328415,10.382392,-0.605810,-1.560283,0.408852,0.987195,-0.417979,0.792660,0.501515,-0.504141,-0.243336,-0.641418,-0.524607,86.340071,23.042806,113.930073
15320,NaN,-3.491685,9.954648,-0.876918,-1.635980,-0.045653,0.645660,-0.414678,0.939649,0.508691,-0.500305,-0.241470,-0.642101,-0.528293,86.343383,22.790308,114.531148
15321,NaN,-3.198110,10.046539,-0.280984,-1.218725,0.434942,0.654647,-0.505408,1.109919,0.470851,-0.496121,-0.238785,-0.642991,-0.532360,86.331308,22.567059,115.235185
15322,NaN,-4.130378,9.396486,-0.145647,-0.578285,-0.536649,0.422187,-0.598381,1.068801,0.361330,-0.492443,-0.235629,-0.643638,-0.536385,86.252990,22.403973,115.908639
15323,NaN,-4.939222,8.813328,0.048517,0.063138,-1.334284,0.201735,-0.537683,0.992665,0.294174,-0.489109,-0.232590,-0.644314,-0.539939,86.187835,22.278632,116.531761
15324,NaN,-4.014185,8.492696,0.172083,-0.120883,-0.633539,-0.439687,-0.502212,1.120097,0.342334,-0.485167,-0.229452,-0.645320,-0.543625,86.172894,22.129660,117.235124
15325,NaN,-2.697186,7.996892,0.231837,-0.499453,0.309159,-1.390468,-0.497778,1.445310,0.270230,-0.480350,-0.225185,-0.647175,-0.547467,86.232202,22.035363,118.135423
15326,NaN,-2.001848,7.500249,0.390322,-0.543407,0.800683,-2.100548,-0.463039,1.899033,0.082556,-0.474495,-0.219146,-0.650378,-0.551215,86.414014,22.061909,119.307834
15327,NaN,-1.662450,6.993514,0.437550,-0.534894,0.961810,-2.695582,-0.422540,2.415871,-0.109465,-0.467393,-0.211116,-0.655048,-0.554875,86.737653,22.212564,120.793051
15328,NaN,-1.783896,6.742952,0.635553,-0.247545,0.931190,-2.875466,-0.368912,2.918497,-0.295663,-0.459011,-0.201182,-0.661118,-0.558353,87.215005,22.473790,122.586429
15329,NaN,-2.450821,6.614736,0.802483,0.264510,0.531142,-2.737902,-0.319469,3.267171,-0.449716,-0.449753,-0.189815,-0.668117,-0.561526,87.812751,22.817855,124.598411
15330,NaN,-3.361589,6.538383,0.919954,0.881912,-0.016758,-2.456205,-0.282397,3.372255,-0.567699,-0.440303,-0.177803,-0.675380,-0.564253,88.472676,23.209379,126.682774
15331,NaN,-4.251586,6.601183,0.904210,1.382839,-0.537657,-2.049561,-0.244822,3.234008,-0.647749,-0.431397,-0.165929,-0.682323,-0.566392,89.136608,23.624581,128.690952
15332,NaN,-4.884828,6.707163,0.801190,1.686027,-0.885358,-1.697199,-0.236506,2.906232,-0.648293,-0.423488,-0.154970,-0.688414,-0.568091,89.740299,24.016257,130.504829
15333,NaN,-5.067313,6.727297,0.661172,1.725658,-0.966740,-1.599434,-0.260994,2.472031,-0.614594,-0.416923,-0.145267,-0.693357,-0.569498,90.232341,24.374245,132.055407
15334,NaN,-5.101191,6.725563,0.562980,1.704446,-0.946469,-1.580402,-0.289732,2.004717,-0.532607,-0.411702,-0.137109,-0.697090,-0.570761,90.596896,24.675251,133.318123
15335,NaN,-5.055659,6.689973,0.549167,1.692226,-0.853315,-1.625818,-0.321687,1.490871,-0.434031,-0.407984,-0.130673,-0.699546,-0.571934,90.813814,24.918917,134.260346
15336,NaN,-4.845878,6.677737,0.435245,1.483608,-0.745007,-1.718993,-0.339015,0.980498,-0.321606,-0.405717,-0.126056,-0.700806,-0.573040,90.888259,25.099220,134.881032
15337,NaN,-4.468735,6.696281,0.306199,1.136928,-0.560388,-1.856755,-0.349832,0.530261,-0.209900,-0.404711,-0.123089,-0.701037,-0.574112,90.836548,25.220416,135.216624
15338,NaN,-4.097717,6.745950,0.070968,0.703054,-0.469512,-1.964795,-0.348604,0.208682,-0.092094,-0.404486,-0.121466,-0.700543,-0.575219,90.698799,25.276155,135.347402
15339,NaN,-3.788406,6.771425,-0.009409,0.424225,-0.332046,-2.072271,-0.335854,0.007111,0.015438,-0.404653,-0.120817,-0.699610,-0.576371,90.513421,25.272777,135.349743
15340,NaN,-3.662094,6.819171,-0.015426,0.310976,-0.260862,-2.083040,-0.315710,-0.105916,0.107353,-0.404934,-0.120863,-0.698449,-0.577572,90.308949,25.216366,135.279950
15341,NaN,-3.719866,6.867545,0.035595,0.360259,-0.271707,-2.015369,-0.271503,-0.153371,0.192845,-0.405109,-0.121427,-0.697267,-0.578759,90.117072,25.111699,135.180306
15342,NaN,-3.768522,7.038321,0.079542,0.368183,-0.248138,-1.840934,-0.199540,-0.179596,0.263162,-0.405124,-0.122463,-0.696193,-0.579821,89.959854,24.965696,135.064379
15343,NaN,-3.809135,7.283111,0.412612,0.560424,0.005937,-1.602372,-0.107327,-0.187058,0.321753,-0.404940,-0.123906,-0.695335,-0.580673,89.853961,24.786658,134.944444
15344,NaN,-3.878241,7.526263,0.612314,0.686698,0.146836,-1.352953,0.006468,-0.186571,0.367246,-0.404548,-0.125740,-0.694776,-0.581220,89.814017,24.580692,134.825209
15345,NaN,-3.992566,7.819515,0.689395,0.750241,0.188365,-1.039877,0.124163,-0.199004,0.395967,-0.404042,-0.127943,-0.694513,-0.581405,89.838750,24.358960,134.698562
15346,NaN,-4.053747,8.059477,0.662222,0.729996,0.177140,-0.798134,0.210007,-0.222423,0.410660,-0.403515,-0.130442,-0.694438,-0.581305,89.907056,24.128202,134.557092
15347,NaN,-4.050072,8.174366,0.550069,0.648839,0.114201,-0.697220,0.260029,-0.245485,0.408102,-0.403043,-0.133094,-0.694460,-0.581005,89.998659,23.899749,134.401213
15348,NaN,-4.067161,8.237214,0.382465,0.556821,-0.014669,-0.635030,0.263649,-0.271837,0.393851,-0.402696,-0.135784,-0.694443,-0.580645,90.086068,23.679079,134.228539
15349,NaN,-4.067451,8.291112,0.271715,0.496360,-0.094827,-0.587448,0.282878,-0.311171,0.395936,-0.402465,-0.138629,-0.694396,-0.580188,90.175364,23.458125,134.031378
15350,NaN,-4.112356,8.474363,0.098247,0.384702,-0.210820,-0.402938,0.308467,-0.346121,0.414162,-0.402280,-0.141693,-0.694333,-0.579651,90.271190,23.226537,133.812123
15351,NaN,-4.081995,8.984715,-0.052805,0.155674,-0.168336,0.053307,0.301614,-0.362489,0.436319,-0.402090,-0.144862,-0.694196,-0.579164,90.360053,22.983193,133.582769
15352,NaN,-4.079640,9.664409,0.083480,0.112905,0.097848,0.676770,0.236334,-0.307300,0.461147,-0.401679,-0.147828,-0.693954,-0.578989,90.425582,22.725173,133.387513
15353,NaN,-4.142285,10.240917,0.397991,0.272477,0.407773,1.230527,0.136627,-0.136635,0.446884,-0.400789,-0.150046,-0.693774,-0.579252,90.475710,22.475256,133.298501
15354,NaN,-4.532552,10.826795,0.608161,0.564606,0.426704,1.918992,0.049479,0.130318,0.432833,-0.399075,-0.151270,-0.693881,-0.579988,90.538934,22.231594,133.374634
15355,NaN,-5.276148,11.494285,0.791225,1.048901,0.211278,2.814158,-0.057172,0.438972,0.481050,-0.396230,-0.151549,-0.694255,-0.581417,90.612447,21.958968,133.641064
15356,NaN,-5.728802,12.092799,0.945593,1.355280,0.156473,3.532257,-0.152063,0.813507,0.458005,-0.392216,-0.150471,-0.695099,-0.583407,90.715769,21.696202,134.137619
15357,NaN,-6.278408,12.301642,0.977222,1.740897,-0.134846,3.922469,-0.185467,1.151013,0.347480,-0.387366,-0.147952,-0.696572,-0.585530,90.874748,21.493490,134.841859
15358,NaN,-7.296122,12.093568,0.695647,2.324804,-1.038123,4.097337,-0.200798,1.330088,0.254842,-0.382159,-0.144552,-0.698384,-0.587638,91.062462,21.339807,135.655463
15359,NaN,-8.193481,11.885934,0.374541,2.819038,-1.872292,4.226396,-0.158740,1.126617,0.241311,-0.377657,-0.141776,-0.699916,-0.589401,91.226978,21.194204,136.343092
15360,NaN,-8.601279,11.676620,0.099872,3.013550,-2.369725,4.174384,-0.121559,0.545170,0.237030,-0.375169,-0.140764,-0.700444,-0.590603,91.281621,21.057169,136.672516
15361,NaN,-8.191753,11.233926,-0.366781,2.547325,-2.577484,3.615195,-0.109142,-0.129756,0.229715,-0.375055,-0.141743,-0.699748,-0.591266,91.194832,20.932720,136.587926
15362,NaN,-7.074990,10.508148,-0.679767,1.743366,-2.317053,2.537634,-0.066989,-0.587390,0.184586,-0.376647,-0.143991,-0.698343,-0.591372,91.032036,20.839562,136.223479
15363,NaN,-6.033631,10.130305,-0.541740,1.203087,-1.680974,1.808328,0.087229,-0.881805,0.035044,-0.379588,-0.146880,-0.696940,-0.590435,90.894978,20.833503,135.680643
15364,NaN,-5.306428,10.371065,-0.316911,0.785870,-1.001057,1.771691,0.267200,-0.984238,-0.105903,-0.383166,-0.149912,-0.695959,-0.588515,90.838234,20.909035,135.076126
15365,NaN,-4.902203,10.952496,-0.245476,0.398226,-0.527113,2.171156,0.294773,-0.941227,-0.238326,-0.386949,-0.152412,-0.695225,-0.586262,90.806407,21.058830,134.498721
15366,NaN,-4.551770,11.268559,-0.127652,0.143836,-0.111885,2.339761,0.223808,-0.853632,-0.279894,-0.390599,-0.154363,-0.694465,-0.584228,90.751119,21.232264,133.974671
15367,NaN,-4.408219,11.348782,-0.246911,-0.094646,-0.057743,2.364164,0.170269,-0.903822,-0.347941,-0.394649,-0.156122,-0.693489,-0.582195,90.652676,21.443463,133.419380
15368,NaN,-4.392652,11.546853,-0.715924,-0.546536,-0.295273,2.546583,0.129020,-1.051618,-0.352053,-0.399251,-0.158205,-0.692083,-0.580164,90.494207,21.657616,132.771699
15369,NaN,-4.432334,11.804701,-1.075273,-0.914298,-0.479948,2.800243,0.059530,-1.234580,-0.343548,-0.404495,-0.160711,-0.690080,-0.578225,90.251761,21.864561,132.009425
15370,NaN,-4.522330,12.054069,-1.157891,-1.063085,-0.523443,3.059295,-0.059792,-1.404998,-0.323064,-0.410350,-0.163525,-0.687338,-0.576575,89.897800,22.057075,131.139606
15371,NaN,-4.765843,11.970495,-1.054559,-0.912258,-0.667712,3.065164,-0.230336,-1.540666,-0.194257,-0.416411,-0.166819,-0.683682,-0.575632,89.412137,22.168539,130.183967
15372,NaN,-4.705990,11.264273,-0.994992,-0.831195,-0.829767,2.379094,-0.373088,-1.653358,-0.116043,-0.422728,-0.170391,-0.679269,-0.575206,88.816335,22.226658,129.157697
15373,NaN,-3.980299,10.398697,-0.821075,-1.004958,-0.491748,1.295735,-0.405335,-1.661205,-0.108477,-0.429041,-0.173937,-0.674691,-0.574858,88.199404,22.269445,128.125707
15374,NaN,-3.776702,9.624888,-0.647596,-0.878009,-0.497120,0.497624,-0.377385,-1.576817,-0.077609,-0.434931,-0.177385,-0.670300,-0.574514,87.617580,22.287126,127.146051
15375,NaN,-3.772270,9.038385,-0.459927,-0.658206,-0.584622,-0.047528,-0.317461,-1.492448,-0.039458,-0.440345,-0.180845,-0.666190,-0.574093,87.090405,22.275629,126.219448
15376,NaN,-3.463207,8.421671,-0.272693,-0.580983,-0.449515,-0.732340,-0.249085,-1.388607,-0.026256,-0.445292,-0.184186,-0.662457,-0.573534,86.627132,22.253213,125.357853
15377,NaN,-2.899145,7.738637,-0.261956,-0.742389,-0.233196,-1.581378,-0.156270,-1.213508,-0.047799,-0.449613,-0.187158,-0.659371,-0.572757,86.258151,22.242766,124.603809
15378,NaN,-2.586931,7.119872,-0.125461,-0.665093,-0.098483,-2.266270,-0.024337,-0.973773,-0.117806,-0.453210,-0.189497,-0.657247,-0.571593,86.019564,22.278654,123.995073
15379,NaN,-2.735319,6.660799,0.010511,-0.377784,-0.260502,-2.626749,0.102401,-0.748942,-0.200329,-0.456171,-0.191212,-0.656059,-0.570028,85.904263,22.368273,123.521118
15380,NaN,-3.211937,6.324657,0.222079,0.112276,-0.590822,-2.741235,0.233218,-0.596006,-0.271155,-0.458704,-0.192549,-0.655653,-0.568009,85.897777,22.504907,123.138258
15381,NaN,-3.660570,6.157557,0.329641,0.459755,-0.907623,-2.714184,0.341661,-0.526949,-0.327286,-0.461057,-0.193757,-0.655757,-0.565568,85.967792,22.675882,122.795168
15382,NaN,-3.885170,6.022150,0.402568,0.658213,-1.058085,-2.743737,0.432047,-0.540232,-0.375950,-0.463500,-0.195043,-0.656126,-0.562694,86.084543,22.875495,122.441772
15383,NaN,-3.948430,5.969371,0.378496,0.674220,-1.111010,-2.764441,0.505457,-0.587703,-0.420815,-0.466142,-0.196488,-0.656621,-0.559422,86.229855,23.098844,122.056785
15384,NaN,-4.017709,6.030685,0.304001,0.619425,-1.159035,-2.679916,0.562326,-0.668319,-0.475304,-0.469138,-0.198100,-0.657129,-0.555741,86.385637,23.352293,121.619620
15385,NaN,-4.032249,6.180191,0.152260,0.447516,-1.174761,-2.539688,0.607002,-0.761441,-0.521002,-0.472506,-0.199928,-0.657566,-0.551701,86.541244,23.628688,121.122291
15386,NaN,-3.887200,6.355501,-0.055532,0.143157,-1.079822,-2.442536,0.631407,-0.832263,-0.570553,-0.476208,-0.201830,-0.657933,-0.547371,86.689834,23.933379,120.578808
15387,NaN,-3.539428,6.521745,-0.273852,-0.262278,-0.823943,-2.437878,0.636053,-0.855230,-0.615427,-0.480081,-0.203660,-0.658277,-0.542878,86.831587,24.263115,120.018604
15388,NaN,-3.302634,6.790428,-0.498725,-0.646700,-0.613931,-2.297993,0.603096,-0.829290,-0.670062,-0.484036,-0.205143,-0.658627,-0.538365,86.957124,24.627339,119.472436
15389,NaN,-3.197227,6.970427,-0.630631,-0.870334,-0.479954,-2.182573,0.542155,-0.774702,-0.706184,-0.487949,-0.206214,-0.658954,-0.534004,87.058009,25.013613,118.958355
15390,NaN,-3.117651,7.177084,-0.703027,-1.039920,-0.321177,-2.031968,0.464193,-0.707587,-0.742946,-0.491807,-0.206780,-0.659256,-0.529858,87.128301,25.424809,118.484840
15391,NaN,-3.104110,7.443935,-0.604839,-1.050088,-0.104732,-1.793993,0.397503,-0.651949,-0.769787,-0.495603,-0.206947,-0.659522,-0.525911,87.171472,25.852135,118.044262
15392,NaN,-3.145756,7.802111,-0.502999,-1.058606,0.105761,-1.452694,0.334793,-0.617763,-0.782887,-0.499373,-0.206812,-0.659706,-0.522153,87.184800,26.289311,117.624049
15393,NaN,-3.030291,8.134557,-0.396815,-1.125173,0.435659,-1.207170,0.261952,-0.605981,-0.773550,-0.503139,-0.206497,-0.659697,-0.518662,87.156003,26.720233,117.209647
15394,NaN,-2.793582,8.343132,-0.292898,-1.213284,0.813816,-1.131500,0.202462,-0.604825,-0.746790,-0.506883,-0.206106,-0.659497,-0.515417,87.090625,27.136666,116.795312
15395,NaN,-2.720491,8.562350,-0.260017,-1.299627,1.029723,-0.979069,0.166534,-0.610723,-0.698181,-0.510543,-0.205801,-0.659119,-0.512400,86.999700,27.523511,116.376259
15396,NaN,-2.857815,8.837358,-0.213037,-1.305504,1.102559,-0.680813,0.111056,-0.632468,-0.619024,-0.514120,-0.205661,-0.658452,-0.509730,86.868810,27.864599,115.944073
15397,NaN,-3.028535,9.067888,-0.111690,-1.241905,1.148139,-0.402569,0.054325,-0.641634,-0.508780,-0.517494,-0.205763,-0.657487,-0.507517,86.700924,28.140406,115.507314
15398,NaN,-3.163850,9.150687,0.069896,-1.083988,1.187153,-0.264630,0.010610,-0.668052,-0.375086,-0.520651,-0.206251,-0.656199,-0.505753,86.500348,28.338333,115.056999
15399,NaN,-3.233043,9.127563,0.241218,-0.930664,1.216094,-0.248271,-0.009707,-0.681147,-0.227163,-0.523492,-0.207206,-0.654659,-0.504424,86.284643,28.449033,114.602357
15400,NaN,-3.252846,9.028817,0.399680,-0.781330,1.233153,-0.319053,0.008677,-0.689697,-0.074869,-0.525949,-0.208724,-0.652981,-0.503415,86.079754,28.471412,114.148412
15401,NaN,-3.306136,9.092682,0.472714,-0.728665,1.238844,-0.233275,0.070722,-0.687213,0.070435,-0.527963,-0.210874,-0.651302,-0.502586,85.913873,28.409008,113.702307
15402,NaN,-3.403368,9.413749,0.491154,-0.763192,1.279510,0.098072,0.156462,-0.664774,0.210375,-0.529453,-0.213645,-0.649747,-0.501861,85.808753,28.266998,113.278305
15403,NaN,-3.612357,9.888663,0.462135,-0.826768,1.261742,0.616727,0.243657,-0.636579,0.338991,-0.530430,-0.216992,-0.648334,-0.501220,85.766098,28.051836,112.879275
15404,NaN,-3.799213,10.379500,0.345622,-0.967898,1.221317,1.135318,0.289142,-0.579293,0.447029,-0.530891,-0.220663,-0.647064,-0.500770,85.771869,27.777435,112.523770
15405,NaN,-3.909341,10.771049,0.244541,-1.084251,1.201269,1.533645,0.329309,-0.490190,0.531865,-0.530801,-0.224489,-0.646023,-0.500508,85.830515,27.458287,112.230211
15406,NaN,-3.898292,11.125065,0.238273,-1.134972,1.298114,1.851224,0.332057,-0.391795,0.579387,-0.530260,-0.228228,-0.645191,-0.500464,85.923139,27.116381,112.002840
15407,NaN,-3.711173,11.301346,0.189969,-1.232600,1.450503,1.930633,0.333666,-0.268953,0.585935,-0.529300,-0.231680,-0.644669,-0.500567,86.052995,26.776048,111.854165
15408,NaN,-3.462940,11.592649,0.092961,-1.414715,1.682051,2.085165,0.341494,-0.130153,0.570602,-0.527912,-0.234756,-0.644547,-0.500758,86.228080,26.449980,111.793291
15409,NaN,-3.348478,12.106487,-0.088423,-1.673040,1.858893,2.497149,0.345275,-0.007289,0.546299,-0.526182,-0.237450,-0.644776,-0.501012,86.438671,26.142703,111.808438
15410,NaN,-3.350138,12.534167,-0.335647,-1.931289,1.879819,2.882877,0.261718,0.108006,0.519226,-0.524238,-0.239552,-0.645129,-0.501596,86.633340,25.854373,111.894928
15411,NaN,-3.357441,12.296345,-0.430533,-1.914933,1.697508,2.681671,0.063206,0.221645,0.499084,-0.522216,-0.240776,-0.645297,-0.502901,86.743551,25.581602,112.051501
15412,NaN,-3.513514,11.237001,-0.258526,-1.447900,1.183351,1.814212,-0.138583,0.329868,0.476748,-0.520133,-0.241134,-0.645266,-0.504924,86.767319,25.324173,112.275396
15413,NaN,-3.707323,10.049780,0.271498,-0.626354,0.740590,0.858537,-0.227014,0.412840,0.471160,-0.517905,-0.241026,-0.645225,-0.507313,86.760548,25.073374,112.550775
15414,NaN,-3.775039,9.039048,0.761907,0.076078,0.468268,0.001110,-0.201830,0.446512,0.445121,-0.515591,-0.240819,-0.645362,-0.509589,86.776547,24.837597,112.846150
15415,NaN,-3.668595,8.562367,1.183184,0.543273,0.525736,-0.453146,-0.080107,0.433485,0.401286,-0.513286,-0.240807,-0.645819,-0.511339,86.855790,24.627201,113.130790
15416,NaN,-3.482003,8.590922,1.410414,0.703744,0.766284,-0.494157,0.103384,0.354090,0.331471,-0.511185,-0.241250,-0.646623,-0.512217,87.018178,24.452789,113.362417
15417,NaN,-3.418022,9.095234,1.373052,0.574418,0.974527,-0.065296,0.253040,0.228150,0.250573,-0.509522,-0.242127,-0.647581,-0.512251,87.230670,24.321347,113.511261
15418,NaN,-3.383689,9.669421,1.130001,0.261628,1.103041,0.431271,0.344197,0.084898,0.187063,-0.508366,-0.243405,-0.648483,-0.511652,87.457941,24.220883,113.567751
15419,NaN,-3.421778,10.247963,0.723814,-0.168638,1.108719,0.957427,0.386591,0.010642,0.165699,-0.507458,-0.244902,-0.649326,-0.510769,87.689067,24.131692,113.576474
15420,NaN,-3.420660,10.761478,0.430875,-0.492612,1.171376,1.415893,0.365942,0.026524,0.190228,-0.506453,-0.246393,-0.650124,-0.510034,87.913257,24.027611,113.595424
15421,NaN,-3.314287,10.838121,0.201274,-0.711525,1.188675,1.437669,0.283824,0.105687,0.215507,-0.505231,-0.247547,-0.650879,-0.509723,88.109801,23.911730,113.664031
15422,NaN,-3.144318,10.805559,0.124642,-0.798242,1.278906,1.340315,0.202536,0.179844,0.230692,-0.503822,-0.248365,-0.651594,-0.509807,88.279111,23.786973,113.778939
15423,NaN,-3.258231,10.683869,0.093741,-0.726353,1.114852,1.277819,0.142181,0.260591,0.254247,-0.502169,-0.248891,-0.652326,-0.510245,88.433124,23.651076,113.944249
15424,NaN,-3.035689,10.595013,0.246281,-0.623937,1.318700,1.114436,0.045468,0.382572,0.229763,-0.500292,-0.248794,-0.653146,-0.511087,88.562299,23.529173,114.184872
15425,NaN,-2.888880,10.486427,0.542337,-0.374097,1.516103,0.965364,-0.120226,0.488300,0.126926,-0.498543,-0.247663,-0.653931,-0.512341,88.620957,23.468789,114.489562
15426,NaN,-3.546685,10.173134,0.492003,-0.110980,0.829511,0.939675,-0.262702,0.510879,0.034460,-0.497121,-0.245828,-0.654516,-0.513856,88.603567,23.459914,114.806804
15427,NaN,-3.603936,9.623997,0.353290,-0.121473,0.525624,0.455878,-0.388425,0.572563,0.012786,-0.495712,-0.243435,-0.654952,-0.515797,88.528601,23.466240,115.162271
15428,NaN,-2.848503,9.055117,0.509271,-0.188552,1.018178,-0.363023,-0.547783,0.732065,-0.063885,-0.494155,-0.239995,-0.655454,-0.518259,88.402398,23.517754,115.616053
15429,NaN,-2.945105,8.764538,1.058461,0.360287,1.083759,-0.576532,-0.743593,0.852069,-0.190615,-0.492764,-0.235324,-0.655882,-0.521177,88.193091,23.646854,116.142689
15430,NaN,-3.996337,8.356424,1.398447,1.120341,0.243477,-0.515297,-0.884714,0.802270,-0.237313,-0.491798,-0.230289,-0.655849,-0.524370,87.891739,23.802015,116.636976
15431,NaN,-4.287546,7.733236,1.480650,1.391652,-0.160288,-0.957425,-0.944690,0.648260,-0.182470,-0.491254,-0.225667,-0.655196,-0.527695,87.517909,23.926762,117.035879
15432,NaN,-3.600064,7.207230,1.408106,1.105695,0.187902,-1.711498,-0.913693,0.494017,-0.134483,-0.491032,-0.221693,-0.654169,-0.530851,87.124001,24.020575,117.338794
15433,NaN,-2.810909,6.805695,1.071276,0.523046,0.527766,-2.409037,-0.812718,0.461800,-0.103219,-0.490716,-0.218135,-0.653284,-0.533700,86.779976,24.099081,117.622284
15434,NaN,-2.154569,6.553092,0.783346,0.013457,0.828557,-2.919792,-0.721039,0.542508,-0.080608,-0.489958,-0.214670,-0.652799,-0.536387,86.509954,24.166983,117.956638
15435,NaN,-1.945441,6.342865,0.538427,-0.270121,0.802073,-3.210398,-0.640790,0.675771,-0.082210,-0.488681,-0.211020,-0.652848,-0.538935,86.320231,24.243563,118.374608
15436,NaN,-2.041508,6.223992,0.389106,-0.351656,0.609758,-3.288752,-0.541075,0.828929,-0.091601,-0.486806,-0.207180,-0.653531,-0.541289,86.227745,24.330307,118.888034
15437,NaN,-2.488048,6.306281,0.346697,-0.226592,0.262427,-3.033341,-0.443072,0.918533,-0.079453,-0.484498,-0.203357,-0.654672,-0.543427,86.215459,24.415764,119.458754
15438,NaN,-2.964462,6.466173,0.364781,-0.043596,-0.046279,-2.690297,-0.354880,0.921768,-0.053937,-0.482001,-0.199831,-0.656014,-0.545333,86.255979,24.484727,120.032619
15439,NaN,-3.218010,6.624054,0.405597,0.068090,-0.163633,-2.439305,-0.275969,0.874484,-0.011494,-0.479462,-0.196745,-0.657404,-0.547017,86.330617,24.529045,120.579151
15440,NaN,-3.427230,6.808059,0.385878,0.107575,-0.269730,-2.186408,-0.234413,0.816171,0.037322,-0.476923,-0.194088,-0.658703,-0.548620,86.415082,24.540771,121.090840
15441,NaN,-3.516608,6.876074,0.432675,0.181852,-0.285844,-2.084858,-0.214538,0.771172,0.083008,-0.474387,-0.191736,-0.659898,-0.550208,86.499813,24.525964,121.576358
15442,NaN,-3.750728,6.731055,0.495071,0.398442,-0.475544,-2.116244,-0.171125,0.687034,0.119054,-0.471974,-0.189847,-0.660965,-0.551655,86.587857,24.485146,122.009903
15443,NaN,-4.040878,6.640945,0.433936,0.527460,-0.759514,-2.081967,-0.096298,0.485083,0.144611,-0.470090,-0.188762,-0.661735,-0.552712,86.666109,24.424153,122.317590
15444,NaN,-4.340553,6.765654,0.262866,0.512555,-1.048035,-1.855146,-0.025803,0.210109,0.171557,-0.468966,-0.188703,-0.662022,-0.553343,86.713452,24.336628,122.452999
15445,NaN,-4.431217,7.116178,0.100708,0.339100,-1.107009,-1.509354,0.007185,-0.044332,0.209633,-0.468553,-0.189538,-0.661771,-0.553708,86.714281,24.220629,122.430283
15446,NaN,-4.330867,7.426280,0.013443,0.139913,-0.998722,-1.275172,0.010949,-0.276158,0.232678,-0.468833,-0.191112,-0.660960,-0.553899,86.658307,24.082198,122.262888
15447,NaN,-4.532780,7.729168,0.085890,0.216003,-1.045551,-0.915857,0.035089,-0.545549,0.252912,-0.469928,-0.193542,-0.659564,-0.553791,86.548342,23.924391,121.928265
15448,NaN,-4.900647,8.156626,0.258147,0.413410,-1.138762,-0.370988,0.055931,-0.842722,0.252787,-0.471970,-0.196852,-0.657516,-0.553323,86.376591,23.753965,121.408472
15449,NaN,-5.054240,8.541335,0.362413,0.450419,-1.129464,0.043895,0.053364,-1.138936,0.264156,-0.474950,-0.200997,-0.654735,-0.552580,86.131253,23.565653,120.705857
15450,NaN,-4.771450,8.674255,0.571609,0.427431,-0.810537,0.061323,0.017023,-1.366896,0.255108,-0.478713,-0.205656,-0.651293,-0.551685,85.811559,23.368893,119.862692
15451,NaN,-4.371715,8.500882,0.672039,0.336689,-0.551518,-0.251800,0.003948,-1.487357,0.205166,-0.482999,-0.210434,-0.647545,-0.550558,85.457108,23.192136,118.944855
15452,NaN,-4.070209,8.350943,0.802346,0.314197,-0.341912,-0.499651,0.026125,-1.489633,0.148700,-0.487393,-0.215086,-0.643875,-0.549191,85.117239,23.041251,118.024891
15453,NaN,-3.813415,8.453396,1.091528,0.393130,-0.004155,-0.483235,0.083024,-1.399552,0.092241,-0.491570,-0.219427,-0.640608,-0.547569,84.833021,22.923666,117.159641
15454,NaN,-3.690562,8.838188,1.327235,0.424148,0.290698,-0.157075,0.160983,-1.254850,0.045485,-0.495299,-0.223412,-0.637931,-0.545719,84.629422,22.835876,116.382418
15455,NaN,-3.742186,9.296678,1.492626,0.459849,0.438473,0.299500,0.224730,-1.056953,0.015730,-0.498394,-0.226905,-0.635931,-0.543791,84.510080,22.774877,115.726706
15456,NaN,-3.870190,9.685295,1.597565,0.502812,0.481997,0.715863,0.272333,-0.768254,0.001784,-0.500539,-0.229689,-0.634779,-0.541995,84.487608,22.735834,115.248896
15457,NaN,-4.023971,9.898748,1.600174,0.523758,0.414734,0.971178,0.328501,-0.385699,0.016129,-0.501365,-0.231612,-0.634715,-0.540487,84.589099,22.710883,115.008711
15458,NaN,-4.157659,10.129513,1.540006,0.496629,0.355026,1.227781,0.414617,0.043620,0.037065,-0.500666,-0.232664,-0.635929,-0.539255,84.843053,22.696207,115.035014
15459,NaN,-4.370102,10.615003,1.443549,0.428618,0.306789,1.745067,0.464823,0.440603,0.066392,-0.498566,-0.232854,-0.638236,-0.538392,85.220965,22.685474,115.308591
15460,NaN,-4.979101,11.033451,1.472159,0.664713,-0.022992,2.363221,0.451396,0.727765,0.061695,-0.495568,-0.232228,-0.641216,-0.537889,85.659639,22.687582,115.759399
15461,NaN,-5.056246,11.236905,1.108222,0.402889,-0.146164,2.551675,0.366488,0.951881,0.020964,-0.492052,-0.230645,-0.644558,-0.537803,86.102666,22.720112,116.347500
15462,NaN,-3.910612,11.106025,0.754879,-0.277931,0.641297,1.965154,0.164147,1.444831,-0.001761,-0.487219,-0.227163,-0.648568,-0.538864,86.548162,22.778453,117.240558
15463,NaN,-3.070389,10.344381,0.819578,-0.343082,1.176062,0.939234,0.098869,2.162649,-0.141332,-0.480471,-0.221109,-0.654256,-0.540562,87.129566,22.933019,118.575942
15464,NaN,-4.106875,9.599068,0.760257,0.303061,0.159278,0.649995,0.184664,2.700908,-0.306440,-0.472237,-0.213242,-0.661549,-0.542101,87.895246,23.179837,120.245314
15465,NaN,-6.391329,9.244971,0.904183,1.675709,-1.559575,1.227795,0.272203,2.696352,-0.390680,-0.464068,-0.205266,-0.669039,-0.543041,88.719164,23.454670,121.917410
15466,NaN,-7.699582,9.134444,1.022203,2.568328,-2.388489,1.652985,0.323459,2.215699,-0.405664,-0.457419,-0.198639,-0.675458,-0.543200,89.461957,23.711663,123.295913
15467,NaN,-7.814937,9.604361,1.508108,3.029108,-1.907292,2.136217,0.195034,1.480760,-0.338430,-0.453157,-0.193915,-0.679721,-0.543161,89.952897,23.915384,124.220053
15468,NaN,-8.342778,10.545558,1.946182,3.494844,-1.648197,3.212960,0.098157,0.488465,-0.287148,-0.452207,-0.191839,-0.681397,-0.542591,90.138569,24.084570,124.524154
15469,NaN,-8.227796,11.540676,1.630929,2.919650,-1.368147,4.085051,-0.056877,-0.621386,-0.374194,-0.455418,-0.192120,-0.680222,-0.541278,89.951281,24.304738,124.131922
15470,NaN,-7.422794,12.084863,0.803896,1.589257,-1.055062,4.263792,-0.238017,-1.499499,-0.432708,-0.461932,-0.194160,-0.676584,-0.539588,89.428540,24.553254,123.184359
15471,NaN,-6.764693,12.534762,-0.048782,0.279035,-0.917825,4.398584,-0.395705,-2.077363,-0.328437,-0.470230,-0.197729,-0.671029,-0.538059,88.659609,24.727016,121.869391
15472,NaN,-5.773308,12.741471,-0.712646,-0.997194,-0.505032,4.149078,-0.540647,-2.374137,-0.197143,-0.479254,-0.202170,-0.664163,-0.536964,87.725340,24.802335,120.365541
15473,NaN,-4.378800,12.717170,-1.187500,-2.225667,0.269359,3.502012,-0.630311,-2.424694,-0.166394,-0.488378,-0.206603,-0.656807,-0.536104,86.725326,24.835701,118.829220
15474,NaN,-3.549860,12.564451,-1.535145,-3.019271,0.652818,2.965384,-0.667763,-2.162721,-0.094982,-0.496420,-0.210449,-0.649819,-0.535737,85.773566,24.814086,117.460159
15475,NaN,-2.965107,12.340724,-1.752083,-3.536439,0.902109,2.468737,-0.668709,-1.660251,-0.044707,-0.502643,-0.213087,-0.643958,-0.535969,84.956488,24.768064,116.410888
15476,NaN,-2.622498,11.852748,-1.545016,-3.474076,1.079510,1.871351,-0.633996,-1.017490,-0.010387,-0.506638,-0.214191,-0.639729,-0.536831,84.330248,24.724366,115.768339
15477,NaN,-2.747165,11.046013,-1.143270,-2.932009,0.866796,1.210921,-0.546552,-0.359653,-0.022552,-0.508456,-0.213703,-0.637402,-0.538072,83.927021,24.721404,115.538491
15478,NaN,-2.674690,10.161331,-0.629847,-2.311101,0.857123,0.420953,-0.353735,0.253019,-0.066861,-0.508229,-0.211921,-0.637193,-0.539239,83.794018,24.779495,115.689887
15479,NaN,-2.740460,9.451002,-0.320776,-1.829109,0.720197,-0.165402,-0.100579,0.692024,-0.154144,-0.506568,-0.209312,-0.638870,-0.539836,83.919462,24.914990,116.111157
15480,NaN,-3.302603,8.721073,-0.343084,-1.405246,0.041954,-0.587433,0.149909,0.950010,-0.298672,-0.504197,-0.206184,-0.642015,-0.539528,84.255236,25.145595,116.686489
15481,NaN,-3.679356,8.330653,-0.271726,-1.045348,-0.304630,-0.766957,0.347466,1.081807,-0.373997,-0.501392,-0.202942,-0.646083,-0.538514,84.740960,25.423604,117.343413
15482,NaN,-4.023306,7.950583,-0.158295,-0.650220,-0.587220,-0.943889,0.478427,1.040275,-0.385431,-0.498595,-0.200104,-0.650389,-0.536988,85.295351,25.699668,117.977742
15483,NaN,-4.341402,7.362679,0.001391,-0.165238,-0.893026,-1.313780,0.559632,0.824189,-0.404780,-0.496461,-0.197972,-0.654371,-0.534914,85.840208,25.972716,118.478327
15484,NaN,-4.547231,6.808331,-0.023542,0.096766,-1.196350,-1.713912,0.631070,0.490208,-0.401619,-0.495322,-0.196923,-0.657697,-0.532271,86.336899,26.225848,118.770408
15485,NaN,-4.515598,6.487324,-0.112224,0.125681,-1.273861,-2.012059,0.682952,0.087696,-0.385984,-0.495410,-0.197113,-0.660136,-0.529090,86.751373,26.454991,118.808987
15486,NaN,-4.172147,6.463930,-0.245680,-0.112151,-1.033550,-2.185853,0.674301,-0.294391,-0.363799,-0.496696,-0.198370,-0.661574,-0.525606,87.053515,26.658587,118.605765
15487,NaN,-3.736826,6.395238,-0.353285,-0.367446,-0.733994,-2.442890,0.602127,-0.608818,-0.327006,-0.498993,-0.200385,-0.661990,-0.522131,87.223168,26.833686,118.202701
15488,NaN,-3.201880,6.265794,-0.410261,-0.613413,-0.361354,-2.800297,0.485523,-0.817073,-0.299732,-0.502007,-0.202745,-0.661542,-0.518888,87.265523,26.987396,117.666804
15489,NaN,-2.810148,6.137057,-0.465417,-0.802562,-0.105927,-3.095423,0.364765,-0.948619,-0.265456,-0.505482,-0.205244,-0.660396,-0.515984,87.198458,27.118457,117.046522
15490,NaN,-2.499880,5.979542,-0.430207,-0.873569,0.112027,-3.377341,0.238165,-0.977814,-0.226151,-0.509062,-0.207629,-0.658794,-0.513552,87.050159,27.224446,116.408051
15491,NaN,-2.266399,5.876689,-0.361649,-0.897641,0.300927,-3.575182,0.133321,-0.914023,-0.200226,-0.512468,-0.209658,-0.657039,-0.511586,86.858738,27.316562,115.810355
15492,NaN,-2.107916,5.908316,-0.257414,-0.891757,0.495341,-3.617758,0.059407,-0.769069,-0.178144,-0.515402,-0.211202,-0.655434,-0.510060,86.668037,27.398213,115.306306
15493,NaN,-2.196019,6.114806,-0.144015,-0.825185,0.562578,-3.391111,0.007438,-0.590852,-0.171946,-0.517791,-0.212168,-0.654137,-0.508904,86.498670,27.481746,114.916389
15494,NaN,-2.411843,6.483126,0.018237,-0.706336,0.612003,-2.958873,-0.006965,-0.398503,-0.171834,-0.519555,-0.212614,-0.653300,-0.507994,86.378661,27.570355,114.650283
15495,NaN,-2.758004,6.878054,0.112622,-0.605475,0.538263,-2.445833,-0.017046,-0.220301,-0.173869,-0.520758,-0.212565,-0.652897,-0.507300,86.304528,27.667073,114.498383
15496,NaN,-3.084111,7.179835,0.268955,-0.431004,0.473959,-2.020146,-0.013538,-0.050376,-0.173334,-0.521393,-0.212105,-0.652947,-0.506775,86.284225,27.768752,114.456348
15497,NaN,-3.514382,7.461767,0.381019,-0.248693,0.302089,-1.565209,0.043664,0.034224,-0.166139,-0.521680,-0.211595,-0.653351,-0.506173,86.321183,27.870363,114.468963
15498,NaN,-3.886732,7.783944,0.387132,-0.186626,0.149850,-1.106998,0.123437,0.028141,-0.155219,-0.521866,-0.211352,-0.653932,-0.505330,86.403410,27.964531,114.478541
15499,NaN,-4.004433,8.120775,0.332322,-0.270509,0.184188,-0.758087,0.201429,-0.006591,-0.137290,-0.522045,-0.211450,-0.654596,-0.504243,86.519085,28.048170,114.466216
15500,NaN,-4.086690,8.375374,0.317785,-0.304836,0.231802,-0.495917,0.251821,-0.036641,-0.087190,-0.522135,-0.211928,-0.655259,-0.503088,86.656586,28.101166,114.436873
15501,NaN,-4.130413,8.411265,0.289750,-0.306347,0.213438,-0.444966,0.298601,-0.089284,-0.030280,-0.522210,-0.212837,-0.655836,-0.501873,86.804721,28.120940,114.375317
15502,NaN,-4.103355,8.530583,0.240683,-0.368030,0.273247,-0.354562,0.360483,-0.138519,0.018474,-0.522250,-0.214200,-0.656389,-0.500527,86.975240,28.110426,114.283930
15503,NaN,-3.949044,8.665912,0.175278,-0.489164,0.432513,-0.310199,0.412996,-0.188616,0.067172,-0.522281,-0.215975,-0.656884,-0.499080,87.160192,28.071845,114.161328
15504,NaN,-4.050925,8.770493,0.032787,-0.575018,0.336782,-0.174821,0.450534,-0.249645,0.123785,-0.522319,-0.218195,-0.657252,-0.497588,87.350123,27.998481,114.001166
15505,NaN,-4.220188,8.808503,0.000626,-0.519734,0.201335,-0.061331,0.471996,-0.342836,0.192818,-0.522472,-0.220917,-0.657346,-0.496101,87.523999,27.884729,113.782179
15506,NaN,-4.459277,8.948115,-0.092404,-0.518455,0.016983,0.171964,0.487115,-0.488473,0.268056,-0.522885,-0.224295,-0.657009,-0.494593,87.665180,27.723836,113.471247
15507,NaN,-4.583894,9.238000,-0.239102,-0.643748,-0.044672,0.482621,0.474220,-0.662107,0.339546,-0.523706,-0.228290,-0.656091,-0.493112,87.747547,27.519672,113.049804
15508,NaN,-4.598004,9.748762,-0.300544,-0.780514,0.099326,0.941434,0.453683,-0.802844,0.408555,-0.524822,-0.232810,-0.654665,-0.491706,87.780252,27.272124,112.540340
15509,NaN,-4.618790,10.476886,-0.465012,-1.055464,0.275433,1.594527,0.402652,-0.874456,0.467746,-0.526081,-0.237549,-0.652835,-0.490527,87.764713,26.990263,111.987099
15510,NaN,-4.512787,11.247456,-0.461722,-1.227146,0.627751,2.236522,0.280424,-0.850708,0.520748,-0.527253,-0.242085,-0.650690,-0.489900,87.691369,26.677082,111.452536
15511,NaN,-4.440419,11.572104,-0.338973,-1.190624,0.804452,2.503184,0.119190,-0.738260,0.555088,-0.528167,-0.246016,-0.648386,-0.490013,87.560386,26.347194,110.992563
15512,NaN,-4.319527,11.564815,-0.210726,-1.104411,0.881449,2.453141,-0.025248,-0.548112,0.562472,-0.528604,-0.249131,-0.646213,-0.490837,87.405140,26.015605,110.656714
15513,NaN,-4.177832,11.304982,0.049328,-0.857213,0.924177,2.173554,-0.141939,-0.288521,0.541182,-0.528403,-0.251216,-0.644454,-0.492301,87.255774,25.703562,110.486839
15514,NaN,-3.938374,10.970567,0.107405,-0.813143,0.952825,1.776371,-0.209404,0.022111,0.493417,-0.527389,-0.252216,-0.643408,-0.494240,87.155039,25.425843,110.514105
15515,NaN,-3.649904,10.710092,0.011829,-0.937366,1.007678,1.418240,-0.225830,0.363470,0.429514,-0.525462,-0.252108,-0.643293,-0.496492,87.134827,25.195815,110.755320
15516,NaN,-3.711570,10.672668,-0.055251,-0.959011,0.872760,1.412421,-0.231018,0.689446,0.387072,-0.522581,-0.251052,-0.644072,-0.499053,87.199036,24.997721,111.201037
15517,NaN,-4.034040,10.414161,0.000748,-0.727332,0.489388,1.321026,-0.248751,0.970191,0.364601,-0.518873,-0.249157,-0.645549,-0.501954,87.324034,24.821006,111.821828
15518,NaN,-4.324820,9.894275,0.232523,-0.277810,0.115114,0.983803,-0.229019,1.165231,0.359778,-0.514494,-0.246815,-0.647570,-0.505005,87.511045,24.648923,112.564328
15519,NaN,-5.066470,9.506608,0.677777,0.513573,-0.486708,0.957790,-0.153489,1.187748,0.361166,-0.509938,-0.244590,-0.649810,-0.507824,87.742856,24.475748,113.318984
15520,NaN,-5.814102,9.239797,1.202907,1.372407,-0.999377,1.038213,-0.067183,0.999022,0.369771,-0.505839,-0.243099,-0.651759,-0.510137,87.973872,24.289207,113.953661
15521,NaN,-6.364895,8.792963,1.722820,2.191555,-1.407246,0.864986,0.019611,0.607119,0.359003,-0.502941,-0.242773,-0.652934,-0.511653,88.149547,24.100817,114.340113
15522,NaN,-6.514592,8.472903,1.800042,2.421359,-1.627069,0.625689,0.151157,0.093809,0.299752,-0.501696,-0.243908,-0.653226,-0.511963,88.268989,23.934843,114.402782
15523,NaN,-5.937280,8.859398,1.444501,1.829485,-1.181412,0.726951,0.279324,-0.366942,0.229898,-0.501986,-0.246302,-0.652768,-0.511116,88.342897,23.802394,114.174958
15524,NaN,-5.252496,9.549196,0.913585,0.967734,-0.612997,1.063808,0.278760,-0.718959,0.165298,-0.503577,-0.249391,-0.651501,-0.509668,88.328978,23.700046,113.726072
15525,NaN,-4.432568,10.044809,0.591869,0.271242,0.095035,1.178832,0.122958,-0.828651,0.065848,-0.505972,-0.252028,-0.649670,-0.508333,88.196978,23.653372,113.206859
15526,NaN,-3.835210,10.414405,0.704424,0.062372,0.757446,1.281776,-0.123488,-0.748419,-0.038853,-0.508668,-0.253504,-0.647541,-0.507625,87.944414,23.665542,112.736080
15527,NaN,-3.954155,10.475809,1.031270,0.344353,0.794613,1.398518,-0.349863,-0.591404,-0.121035,-0.511352,-0.253726,-0.645329,-0.507634,87.599283,23.727075,112.361036
15528,NaN,-4.104446,10.505950,1.203861,0.486030,0.733232,1.496445,-0.501857,-0.385282,-0.149454,-0.513622,-0.252952,-0.643289,-0.508317,87.219123,23.806920,112.113684
15529,NaN,-3.768691,10.564048,1.404779,0.472148,1.107619,1.426767,-0.643669,-0.100013,-0.165086,-0.515197,-0.251026,-0.641632,-0.509771,86.827929,23.903786,112.043332
15530,NaN,-3.621028,10.626076,1.570787,0.482943,1.316912,1.435629,-0.795477,0.227677,-0.223611,-0.516044,-0.247692,-0.640498,-0.511966,86.432765,24.043536,112.175314
15531,NaN,-3.835514,10.466275,1.732087,0.652655,1.151655,1.390047,-0.932264,0.582745,-0.289762,-0.516088,-0.242869,-0.639994,-0.514855,86.048083,24.236444,112.525985
15532,NaN,-4.122349,10.209873,2.146111,1.098057,1.011804,1.305353,-1.035316,0.900621,-0.345723,-0.515356,-0.236782,-0.640088,-0.518295,85.687268,24.475245,113.072823
15533,NaN,-4.626067,9.648931,2.439738,1.584706,0.557377,1.033135,-1.097982,1.038253,-0.445945,-0.514496,-0.229833,-0.640456,-0.521811,85.325843,24.781896,113.700614
15534,NaN,-5.097191,8.905718,2.427050,1.843597,-0.044218,0.569130,-1.067676,1.051565,-0.525594,-0.513728,-0.222669,-0.640989,-0.525010,84.987261,25.136829,114.332142
15535,NaN,-4.844660,8.554595,2.264629,1.621157,0.028714,0.144758,-1.010111,1.069300,-0.510190,-0.512773,-0.215631,-0.641663,-0.528049,84.689577,25.488376,114.975369
15536,NaN,-4.264551,7.994139,1.862878,1.129312,0.178266,-0.633616,-0.935563,1.088222,-0.501589,-0.511619,-0.208758,-0.642534,-0.530863,84.443956,25.837565,115.631044
15537,NaN,-3.562746,7.321951,1.344044,0.531689,0.317392,-1.583058,-0.847278,1.144742,-0.518200,-0.510212,-0.201887,-0.643765,-0.533378,84.267732,26.202817,116.322148
15538,NaN,-3.117250,6.874526,0.990800,0.130696,0.392972,-2.210960,-0.729955,1.190098,-0.552674,-0.508599,-0.195080,-0.645422,-0.535445,84.175456,26.590580,117.041060
15539,NaN,-3.047208,6.707041,0.726152,-0.112883,0.302795,-2.417249,-0.625289,1.152817,-0.589993,-0.507081,-0.188500,-0.647267,-0.537012,84.136458,26.999388,117.735854
15540,NaN,-3.237608,6.615329,0.599469,-0.146840,0.099384,-2.425376,-0.561672,0.963421,-0.617340,-0.506162,-0.182501,-0.648798,-0.538103,84.083206,27.411903,118.309498
15541,NaN,-3.694535,6.358863,0.520904,0.025506,-0.348185,-2.448315,-0.483673,0.618349,-0.616649,-0.506277,-0.177615,-0.649645,-0.538608,83.975897,27.805412,118.662867
15542,NaN,-3.799889,6.235217,0.336575,-0.082236,-0.536590,-2.523277,-0.401088,0.199085,-0.570891,-0.507543,-0.174222,-0.649598,-0.538581,83.792731,28.146829,118.748869
15543,NaN,-3.429440,6.207153,0.054519,-0.509061,-0.384998,-2.749739,-0.328694,-0.201642,-0.512653,-0.509890,-0.172270,-0.648672,-0.538107,83.529850,28.431249,118.578784
15544,NaN,-3.008979,6.222677,-0.103612,-0.867250,-0.123195,-2.955652,-0.279581,-0.469856,-0.445338,-0.512873,-0.171390,-0.647129,-0.537412,83.213099,28.657677,118.237852
15545,NaN,-2.858135,6.194449,-0.218165,-1.059373,-0.067982,-3.070233,-0.244590,-0.613640,-0.360985,-0.516062,-0.171247,-0.645230,-0.536686,82.872458,28.825613,117.808304
15546,NaN,-2.910479,6.112867,-0.247479,-1.074555,-0.150077,-3.125239,-0.209453,-0.670321,-0.271525,-0.519151,-0.171643,-0.643194,-0.536025,82.536425,28.935144,117.347665
15547,NaN,-2.991011,6.195753,-0.113755,-0.991076,-0.115400,-3.004545,-0.169801,-0.687773,-0.174956,-0.522001,-0.172487,-0.641127,-0.535461,82.220214,28.987422,116.883051
15548,NaN,-3.276053,6.421859,0.117747,-0.787747,-0.145220,-2.647149,-0.122972,-0.716275,-0.071726,-0.524613,-0.173869,-0.639014,-0.534988,81.926590,28.975466,116.408896
15549,NaN,-3.653724,6.536771,0.415097,-0.452308,-0.265681,-2.330968,-0.054161,-0.804090,0.037790,-0.527151,-0.176003,-0.636749,-0.534495,81.649760,28.893389,115.888337
15550,NaN,-3.898529,6.571906,0.684286,-0.162052,-0.338347,-2.150059,0.055360,-0.957491,0.155275,-0.529751,-0.179217,-0.634258,-0.533819,81.395458,28.728438,115.281022
15551,NaN,-3.597852,6.596084,0.805669,-0.193583,-0.065139,-2.258872,0.196357,-1.107519,0.233582,-0.532482,-0.183437,-0.631656,-0.532752,81.181361,28.505170,114.586476
15552,NaN,-3.012041,6.823638,0.846451,-0.451941,0.472786,-2.334516,0.330707,-1.114296,0.262240,-0.535010,-0.188127,-0.629347,-0.531314,81.047817,28.262040,113.892859
15553,NaN,-2.870807,7.160330,0.904236,-0.553947,0.709654,-2.097833,0.430498,-0.991935,0.240720,-0.537105,-0.192676,-0.627629,-0.529600,81.010153,28.042301,113.277419
15554,NaN,-3.319069,7.420641,1.244329,-0.166402,0.573813,-1.610647,0.479056,-0.868093,0.217436,-0.538804,-0.196959,-0.626378,-0.527777,81.039674,27.845519,112.740274
15555,NaN,-3.835260,7.539942,1.467791,0.190013,0.272340,-1.233411,0.533749,-0.851534,0.228988,-0.540359,-0.201365,-0.625287,-0.525814,81.107271,27.645326,112.215570
15556,NaN,-3.763327,7.740039,1.478816,0.138508,0.381594,-1.089569,0.587310,-0.862641,0.285858,-0.541724,-0.206129,-0.624232,-0.523814,81.207721,27.411364,111.690227
15557,NaN,-3.419686,7.988407,1.411247,-0.079045,0.697821,-1.037316,0.602266,-0.849002,0.318707,-0.542935,-0.210983,-0.623200,-0.521852,81.323724,27.162141,111.177351
15558,NaN,-3.325978,8.274693,1.308289,-0.252544,0.808272,-0.839002,0.559968,-0.783764,0.326900,-0.543944,-0.215583,-0.622209,-0.520101,81.437688,26.913485,110.707413
15559,NaN,-3.645205,8.436670,1.374511,-0.105870,0.597997,-0.539866,0.495335,-0.707971,0.356865,-0.544702,-0.219886,-0.621209,-0.518699,81.538943,26.656373,110.288889
15560,NaN,-3.870001,8.614231,1.440013,0.003657,0.465153,-0.271255,0.440063,-0.654675,0.393401,-0.545243,-0.224022,-0.620157,-0.517618,81.627821,26.382272,109.908104
15561,NaN,-3.983166,8.749903,1.543231,0.125592,0.421100,-0.085681,0.425543,-0.576258,0.417766,-0.545491,-0.227974,-0.619243,-0.516725,81.732383,26.102805,109.579476
15562,NaN,-4.314210,8.997659,1.695371,0.331127,0.250097,0.300279,0.446611,-0.465730,0.426835,-0.545333,-0.231735,-0.618664,-0.515912,81.882086,25.826478,109.321522
15563,NaN,-4.870929,9.485641,1.826166,0.525872,-0.035396,0.992871,0.472271,-0.333994,0.424180,-0.544744,-0.235203,-0.618506,-0.515154,82.082580,25.564292,109.145891
15564,NaN,-5.587366,10.055265,1.782180,0.595384,-0.496727,1.802027,0.459810,-0.210211,0.437928,-0.543739,-0.238369,-0.618628,-0.514615,82.310940,25.303148,109.048565
15565,NaN,-6.175161,10.588539,1.807372,0.707146,-0.839191,2.528773,0.394075,-0.095421,0.464934,-0.542388,-0.241130,-0.618855,-0.514481,82.532588,25.037065,109.024597
15566,NaN,-6.292684,11.050349,1.742240,0.621335,-0.840012,2.979943,0.331426,0.057156,0.443597,-0.540684,-0.243272,-0.619354,-0.514665,82.758125,24.793114,109.093415
15567,NaN,-6.254394,11.603584,1.732647,0.519500,-0.645963,3.456645,0.235429,0.267256,0.358348,-0.538669,-0.244337,-0.620274,-0.515166,82.979501,24.613601,109.285870
15568,NaN,-6.569874,12.170020,1.848722,0.630827,-0.687505,4.109224,0.052167,0.515385,0.205244,-0.536492,-0.243802,-0.621573,-0.516124,83.155363,24.536560,109.620990
15569,NaN,-7.006748,12.418782,2.272684,1.119911,-0.803324,4.560419,-0.286650,0.767136,0.019597,-0.534425,-0.241120,-0.622892,-0.517935,83.196057,24.582862,110.099475
15570,NaN,-6.329151,11.309031,2.218311,1.142332,-0.601107,3.271918,-0.555747,1.127757,-0.056777,-0.531737,-0.236548,-0.624552,-0.520804,83.175477,24.696005,110.798264
15571,NaN,-4.913266,9.827363,1.648527,0.551972,-0.093743,1.283312,-0.538313,1.676794,-0.116486,-0.527443,-0.230385,-0.627751,-0.524076,83.308897,24.880565,111.837683
15572,NaN,-3.731729,8.980522,1.171483,-0.033045,0.475401,-0.029013,-0.293541,2.327555,-0.294484,-0.521230,-0.222585,-0.633445,-0.526805,83.756132,25.202709,113.276463
15573,NaN,-4.199472,8.591650,0.896484,0.042224,-0.073090,-0.208149,-0.071285,2.762733,-0.486424,-0.513813,-0.213566,-0.640966,-0.528724,84.455117,25.647793,114.985456
15574,NaN,-6.130500,8.643479,0.944012,0.895027,-1.476734,0.684887,0.075796,2.683759,-0.601323,-0.506693,-0.204732,-0.648670,-0.529692,85.232033,26.133454,116.650616
15575,NaN,-8.064289,8.582071,1.311338,2.121000,-2.714324,1.524637,0.169289,1.979732,-0.581557,-0.501637,-0.198025,-0.654724,-0.529606,85.881221,26.558881,117.881173
15576,NaN,-9.819670,8.661968,2.005957,3.508675,-3.597020,2.444111,0.228746,0.660359,-0.489289,-0.500563,-0.195256,-0.657493,-0.528219,86.197557,26.869312,118.279427
15577,NaN,-11.829414,9.319552,2.149344,4.259365,-4.830221,3.968969,0.223325,-1.236441,-0.409899,-0.505507,-0.197733,-0.655402,-0.525178,85.962655,27.060537,117.465859
15578,NaN,-11.132709,10.606133,1.458429,2.821370,-4.242843,4.767563,0.099362,-2.992041,-0.162300,-0.515608,-0.205291,-0.648216,-0.521363,85.148197,27.025630,115.536128
15579,NaN,-6.791531,10.673969,0.373599,-0.071730,-1.396263,2.766540,-0.042956,-3.968407,0.252764,-0.527777,-0.216308,-0.637515,-0.517915,83.989379,26.671466,113.011726
15580,NaN,-2.506754,10.106627,-1.085691,-2.876545,1.192906,0.182724,0.123958,-4.007057,0.322925,-0.539497,-0.228000,-0.626814,-0.513871,82.940630,26.231773,110.484737
15581,NaN,-0.079923,10.496465,-1.279849,-3.951401,3.298273,-0.575376,0.273498,-3.225021,0.220515,-0.548678,-0.237692,-0.618512,-0.509801,82.214261,25.872929,108.460428
15582,NaN,-0.653511,11.582329,-1.066316,-3.863099,3.311221,0.667136,0.294345,-2.191146,0.079097,-0.554890,-0.244324,-0.613150,-0.506409,81.790880,25.658442,107.084073
15583,NaN,-2.645671,12.131857,-0.821539,-3.246348,1.896727,2.049863,0.271883,-1.279511,0.036758,-0.558397,-0.248434,-0.610259,-0.504041,81.605345,25.536902,106.280083
15584,NaN,-3.497229,11.668225,-0.425617,-2.534601,1.127326,2.055933,0.294267,-0.552697,0.047575,-0.559613,-0.250806,-0.609426,-0.502523,81.631757,25.468443,105.934524
15585,NaN,-3.489174,10.753851,-0.162855,-2.027021,0.893418,1.275098,0.418671,0.003595,0.013082,-0.559064,-0.252017,-0.610500,-0.501224,81.877894,25.466477,105.934994
15586,NaN,-3.703216,10.294404,-0.039497,-1.688563,0.601419,0.979752,0.557168,0.360862,-0.067329,-0.557442,-0.252478,-0.613017,-0.499723,82.297902,25.537662,106.153262
15587,NaN,-3.951229,9.972253,-0.031290,-1.470829,0.308336,0.808048,0.621488,0.526790,-0.181274,-0.555511,-0.252345,-0.616291,-0.497910,82.795793,25.684992,106.467304
15588,NaN,-3.804739,9.566685,-0.021377,-1.329317,0.334638,0.391148,0.630567,0.607806,-0.231151,-0.553427,-0.251884,-0.619866,-0.496023,83.322082,25.863003,106.830809
15589,NaN,-3.472682,8.980751,0.039581,-1.151901,0.468011,-0.264467,0.599431,0.679987,-0.234755,-0.551162,-0.251134,-0.623552,-0.494303,83.851496,26.045425,107.241886
15590,NaN,-3.246935,8.346743,0.216279,-0.838426,0.524734,-0.908826,0.530924,0.738738,-0.243752,-0.548802,-0.250025,-0.627231,-0.492833,84.361220,26.232220,107.692431
15591,NaN,-3.131560,7.687644,0.289466,-0.599324,0.435925,-1.539794,0.459521,0.741769,-0.250292,-0.546533,-0.248678,-0.630734,-0.491564,84.832035,26.420296,108.146728
15592,NaN,-2.874087,7.186435,0.385336,-0.425405,0.530796,-2.093183,0.404899,0.715391,-0.231570,-0.544351,-0.247309,-0.633998,-0.490475,85.267992,26.592216,108.587890
15593,NaN,-2.692160,6.800420,0.524890,-0.224494,0.616266,-2.509361,0.374224,0.674938,-0.218002,-0.542300,-0.245986,-0.637046,-0.489462,85.675983,26.752582,109.005636
15594,NaN,-2.737199,6.515710,0.568663,-0.075457,0.511519,-2.741435,0.357581,0.575192,-0.196602,-0.540520,-0.244937,-0.639750,-0.488430,86.048991,26.893033,109.362559
15595,NaN,-2.889562,6.332291,0.571933,0.040739,0.337733,-2.837104,0.324522,0.416820,-0.165283,-0.539212,-0.244272,-0.641898,-0.487390,86.357796,27.008688,109.620294
15596,NaN,-2.917770,6.206575,0.461636,-0.002879,0.244437,-2.943317,0.294107,0.259593,-0.119618,-0.538323,-0.244064,-0.643490,-0.486376,86.605982,27.090522,109.780003
15597,NaN,-3.130170,6.140355,0.256127,-0.096966,-0.019810,-2.916479,0.256623,0.132771,-0.068275,-0.537769,-0.244217,-0.644582,-0.485464,86.795661,27.139323,109.860286
15598,NaN,-3.377155,6.126433,0.140453,-0.111304,-0.265100,-2.821593,0.198428,0.075523,0.001433,-0.537293,-0.244588,-0.645296,-0.484856,86.937547,27.145174,109.906667
15599,NaN,-3.468423,6.197348,0.075833,-0.144474,-0.331988,-2.719611,0.166520,0.073721,0.057889,-0.536732,-0.245049,-0.645855,-0.484501,87.060385,27.119644,109.953535
15600,NaN,-3.484282,6.325584,0.095902,-0.132405,-0.284702,-2.597161,0.155939,0.107685,0.089431,-0.535990,-0.245510,-0.646443,-0.484305,87.188629,27.075913,110.023457
15601,NaN,-3.706783,6.616126,0.093408,-0.108486,-0.352359,-2.237324,0.169295,0.159458,0.093137,-0.535062,-0.245884,-0.647194,-0.484138,87.338476,27.032362,110.126339
15602,NaN,-3.990148,6.944875,0.211312,0.043384,-0.409299,-1.810952,0.206787,0.196664,0.066276,-0.534024,-0.246190,-0.648170,-0.483823,87.521310,27.003874,110.252467
15603,NaN,-4.186036,7.307192,0.265797,0.107366,-0.397848,-1.397301,0.245261,0.214803,0.025830,-0.532984,-0.246414,-0.649332,-0.483297,87.729767,26.999591,110.388757
15604,NaN,-4.132636,7.453691,0.314387,0.133906,-0.264747,-1.289371,0.261784,0.217713,-0.007396,-0.531985,-0.246576,-0.650585,-0.482630,87.949306,27.012986,110.526394
15605,NaN,-3.931354,7.409674,0.290529,0.082467,-0.110284,-1.420775,0.268841,0.174616,-0.047875,-0.531221,-0.246718,-0.651784,-0.481779,88.158861,27.049218,110.635235
15606,NaN,-3.990895,7.277232,0.280111,0.138298,-0.203736,-1.511896,0.274002,0.069932,-0.078700,-0.530858,-0.247035,-0.652758,-0.480698,88.341720,27.100012,110.676616
15607,NaN,-4.005900,7.252384,0.190717,0.081235,-0.244838,-1.529325,0.281043,-0.067955,-0.084584,-0.530956,-0.247672,-0.653385,-0.479408,88.487111,27.152813,110.629049
15608,NaN,-3.852962,7.502017,0.081334,-0.101844,-0.041483,-1.379415,0.268404,-0.174229,-0.050215,-0.531326,-0.248652,-0.653659,-0.478116,88.595403,27.183581,110.514039
15609,NaN,-3.701277,7.865539,0.094688,-0.192703,0.247787,-1.124962,0.221177,-0.227821,0.026101,-0.531753,-0.249874,-0.653577,-0.477115,88.660312,27.170946,110.365444
15610,NaN,-3.826180,8.131047,0.106409,-0.182219,0.255219,-0.831232,0.157930,-0.257324,0.138498,-0.532079,-0.251373,-0.653127,-0.476580,88.682329,27.092743,110.199889
15611,NaN,-3.889595,8.289802,0.170038,-0.123718,0.275770,-0.659148,0.125636,-0.285920,0.254304,-0.532268,-0.253223,-0.652373,-0.476421,88.677512,26.948745,110.017513
15612,NaN,-4.006010,8.456523,0.261094,-0.022007,0.252700,-0.455091,0.139985,-0.312847,0.375800,-0.532228,-0.255580,-0.651428,-0.476502,88.675682,26.733874,109.820245
15613,NaN,-4.274700,8.775545,0.344870,0.096652,0.150223,-0.046926,0.170188,-0.363816,0.474966,-0.532081,-0.258450,-0.650284,-0.476680,88.677021,26.462438,109.591924
15614,NaN,-4.639399,9.180480,0.426915,0.233590,-0.011721,0.479664,0.236886,-0.431869,0.565308,-0.531841,-0.261960,-0.648996,-0.476788,88.700285,26.137487,109.322241
15615,NaN,-4.939964,9.701239,0.480107,0.311747,-0.095389,1.079561,0.305035,-0.502416,0.630838,-0.531583,-0.266018,-0.647584,-0.476749,88.743947,25.775157,109.008854
15616,NaN,-5.071128,10.394311,0.429271,0.223268,-0.012059,1.758474,0.368476,-0.544295,0.672266,-0.531259,-0.270483,-0.646146,-0.476549,88.815874,25.387984,108.670267
15617,NaN,-4.961271,11.112948,0.375605,0.069083,0.278266,2.359824,0.388208,-0.531822,0.692602,-0.530815,-0.275021,-0.644743,-0.476345,88.903826,24.990616,108.340084
15618,NaN,-4.738109,11.555349,0.260901,-0.124774,0.532084,2.667076,0.333257,-0.443582,0.694543,-0.530140,-0.279211,-0.643430,-0.476435,88.986936,24.592637,108.066246
15619,NaN,-4.345250,11.533308,0.240128,-0.210285,0.782041,2.487706,0.220643,-0.299426,0.659933,-0.529238,-0.282636,-0.642266,-0.476989,89.043615,24.217085,107.882805
15620,NaN,-3.793415,11.081257,0.356035,-0.156204,1.056314,1.856521,0.113168,-0.103092,0.583583,-0.528026,-0.285068,-0.641468,-0.477957,89.090704,23.886318,107.822092
15621,NaN,-3.149131,10.712304,0.437447,-0.179855,1.448102,1.265771,0.046724,0.124229,0.489460,-0.526409,-0.286469,-0.641238,-0.479211,89.155849,23.612458,107.902343
15622,NaN,-2.586387,10.940095,0.335728,-0.438949,1.951027,1.254762,0.042322,0.380753,0.408711,-0.524157,-0.286992,-0.641786,-0.480631,89.282494,23.385672,108.141667
15623,NaN,-2.555912,11.735079,0.128576,-0.724762,2.173637,1.977611,-0.032605,0.646578,0.362592,-0.521273,-0.286519,-0.642907,-0.482547,89.429452,23.187565,108.545340
15624,NaN,-3.001619,11.919034,-0.096788,-0.813435,1.741716,2.327619,-0.262193,0.902066,0.371256,-0.517857,-0.284865,-0.644117,-0.485581,89.506512,22.983821,109.107261
15625,NaN,-3.500141,11.121682,-0.117601,-0.568593,0.962353,1.793647,-0.496281,1.061156,0.407473,-0.514166,-0.282315,-0.645098,-0.489673,89.484729,22.761187,109.767209
15626,NaN,-3.968606,10.241279,0.248580,0.043567,0.313759,1.168883,-0.601542,1.064238,0.437677,-0.510511,-0.279586,-0.645761,-0.494169,89.401552,22.520342,110.428421
15627,NaN,-4.432080,9.938937,0.655001,0.613687,-0.097707,1.071635,-0.603108,0.886636,0.444118,-0.507405,-0.277289,-0.645934,-0.498418,89.271804,22.277244,110.978881
15628,NaN,-4.528724,9.864415,1.039767,1.007559,-0.112316,1.044070,-0.555876,0.591033,0.417642,-0.505233,-0.275768,-0.645493,-0.502026,89.098692,22.046772,111.346042
15629,NaN,-4.299075,9.963528,1.117462,0.971766,0.105464,1.052257,-0.459203,0.263680,0.351323,-0.504151,-0.275083,-0.644551,-0.504693,88.903121,21.853598,111.510511
