// General information: 
//  MT Manager version: 2019.0.1 
//  XDA version: 2019.0.1 build 2740 rev 84096 built on 2019-01-30
// Device information: 
//  DeviceId: 00B4381A
//  ProductCode: MTW2-3A7G6
//  Firmware Version: 4.3.4
//  Hardware Version: 1.1.0
// Device settings: 
//  Filter Profile: human(46.1)
//  Option Flags: Orientation Smoother Disabled, AHS Disabled, ICC Disabled
// Coordinate system: ENU
PacketCounter,SampleTimeFine,Acc_X,Acc_Y,Acc_Z,FreeAcc_E,FreeAcc_N,FreeAcc_U,Gyr_X,Gyr_Y,Gyr_Z,Quat_q0,Quat_q1,Quat_q2,Quat_q3,Roll,Pitch,Yaw
39939,NaN,-1.991837,-6.069554,7.423456,-0.051070,0.055230,-0.019376,-0.033980,-0.110379,0.041773,0.842854,-0.348121,-0.047566,0.407610,-39.716742,11.748289,47.361334
39940,NaN,-2.039478,-6.158134,7.445448,-0.038619,-0.008475,0.062292,-0.062741,-0.110619,0.038400,0.842680,-0.348118,-0.048102,0.407911,-39.735730,11.708514,47.416039
39941,NaN,-2.172481,-6.169299,7.404516,-0.111255,-0.134511,0.065385,-0.059389,-0.108624,0.039661,0.842509,-0.348105,-0.048622,0.408213,-39.752921,11.669922,47.470522
39942,NaN,-2.307675,-6.160684,7.430673,-0.222443,-0.218021,0.106853,-0.051962,-0.126705,0.042028,0.842341,-0.348025,-0.049197,0.408559,-39.764240,11.624421,47.532898
39943,NaN,-2.311836,-6.133088,7.439048,-0.254202,-0.210569,0.096391,-0.063041,-0.164669,0.035062,0.842158,-0.347912,-0.049969,0.408938,-39.779816,11.559488,47.606285
39944,NaN,-2.223153,-6.116125,7.543295,-0.256014,-0.090071,0.146079,-0.078941,-0.201559,0.027793,0.841953,-0.347788,-0.050939,0.409347,-39.802434,11.475886,47.690264
39945,NaN,-1.967024,-6.144050,7.556527,-0.088007,0.082543,0.122354,-0.104937,-0.220419,0.015855,0.841721,-0.347731,-0.052064,0.409730,-39.839791,11.379434,47.775911
39946,NaN,-1.679783,-6.175503,7.551647,0.107683,0.267317,0.081897,-0.102793,-0.209545,0.013358,0.841499,-0.347687,-0.053141,0.410085,-39.877005,11.287105,47.856462
39947,NaN,-1.533798,-6.224917,7.619382,0.197028,0.382524,0.135777,-0.072148,-0.163578,0.020952,0.841326,-0.347609,-0.053951,0.410399,-39.899530,11.217613,47.923162
39948,NaN,-1.565510,-6.214354,7.576925,0.176287,0.335306,0.103728,-0.038599,-0.115548,0.024504,0.841217,-0.347490,-0.054482,0.410654,-39.906001,11.170727,47.973518
39949,NaN,-1.753287,-6.168201,7.539950,0.031772,0.193277,0.083433,-0.021196,-0.087328,0.035440,0.841123,-0.347358,-0.054842,0.410909,-39.903715,11.140094,48.018140
39950,NaN,-2.002017,-6.126437,7.502996,-0.148712,0.005715,0.077414,-0.038602,-0.094465,0.040777,0.840986,-0.347287,-0.055256,0.411196,-39.910372,11.108461,48.067857
39951,NaN,-2.098096,-6.110034,7.494166,-0.224768,-0.065794,0.078834,-0.059304,-0.114938,0.039868,0.840809,-0.347259,-0.055802,0.411507,-39.927601,11.067333,48.124804
39952,NaN,-2.165728,-6.175329,7.401024,-0.198795,-0.197191,0.062626,-0.067753,-0.150454,0.040432,0.840605,-0.347194,-0.056512,0.411881,-39.947026,11.011006,48.195360
39953,NaN,-2.197844,-6.146177,7.426170,-0.258149,-0.201868,0.068943,-0.068023,-0.196456,0.037490,0.840393,-0.347035,-0.057422,0.412321,-39.963750,10.933236,48.281799
39954,NaN,-2.021479,-6.178317,7.544693,-0.179618,-0.032072,0.144574,-0.081675,-0.240098,0.035440,0.840148,-0.346842,-0.058546,0.412824,-39.985419,10.835768,48.383733
39955,NaN,-1.802602,-6.213807,7.591648,-0.046634,0.128424,0.161038,-0.091938,-0.246815,0.027236,0.839900,-0.346675,-0.059735,0.413300,-40.013448,10.732184,48.484477
39956,NaN,-1.551833,-6.280090,7.520650,0.171806,0.237348,0.103058,-0.088502,-0.234740,0.020063,0.839673,-0.346515,-0.060877,0.413727,-40.041013,10.631492,48.577560
39957,NaN,-1.348355,-6.281213,7.429966,0.325953,0.330128,-0.001426,-0.076596,-0.187460,0.015065,0.839492,-0.346402,-0.061806,0.414052,-40.065669,10.549545,48.650646
39958,NaN,-1.360585,-6.251931,7.346472,0.320333,0.282627,-0.079960,-0.060808,-0.140870,0.014022,0.839353,-0.346318,-0.062507,0.414298,-40.084538,10.487844,48.705839
39959,NaN,-1.509789,-6.291149,7.316765,0.251675,0.135764,-0.049937,-0.063928,-0.113918,0.015456,0.839214,-0.346304,-0.063100,0.414501,-40.107070,10.438327,48.751532
39960,NaN,-1.776689,-6.352655,7.399699,0.077418,-0.047083,0.099940,-0.068001,-0.119060,0.016197,0.839065,-0.346295,-0.063721,0.414716,-40.131468,10.386993,48.799532
39961,NaN,-2.066233,-6.379479,7.402527,-0.102632,-0.276158,0.171183,-0.056225,-0.145267,0.021477,0.838916,-0.346185,-0.064420,0.415000,-40.147068,10.326003,48.859700
39962,NaN,-2.160011,-6.313435,7.419035,-0.222130,-0.317784,0.158112,-0.046352,-0.193130,0.021366,0.838769,-0.345934,-0.065297,0.415371,-40.153795,10.244176,48.937824
39963,NaN,-2.038921,-6.258502,7.494162,-0.220269,-0.176688,0.157707,-0.053392,-0.225016,0.022401,0.838596,-0.345646,-0.066322,0.415798,-40.162567,10.148626,49.028333
39964,NaN,-1.954890,-6.238939,7.506727,-0.195837,-0.111290,0.139506,-0.059086,-0.226967,0.021492,0.838412,-0.345377,-0.067368,0.416223,-40.174602,10.052068,49.119208
39965,NaN,-1.917847,-6.246419,7.543678,-0.194961,-0.078993,0.165223,-0.070856,-0.230924,0.017084,0.838216,-0.345147,-0.068463,0.416630,-40.193708,9.952006,49.209560
39966,NaN,-1.891749,-6.364497,7.609976,-0.141622,-0.084858,0.285332,-0.076252,-0.231383,0.029541,0.837982,-0.344942,-0.069549,0.417089,-40.214982,9.856571,49.305672
39967,NaN,-1.876186,-6.378241,7.576638,-0.122332,-0.107365,0.266050,-0.063908,-0.240405,0.037708,0.837749,-0.344670,-0.070634,0.417601,-40.228240,9.760050,49.408755
39968,NaN,-1.778884,-6.343379,7.369775,-0.010721,-0.139801,0.071481,-0.048705,-0.260531,0.043010,0.837522,-0.344292,-0.071760,0.418175,-40.231197,9.656897,49.521778
39969,NaN,-1.454894,-6.259424,7.165101,0.213313,0.018768,-0.190323,-0.050876,-0.275747,0.039216,0.837292,-0.343891,-0.072963,0.418757,-40.235039,9.545496,49.638750
39970,NaN,-1.272839,-6.245794,7.068919,0.347528,0.099287,-0.301167,-0.060090,-0.260302,0.040241,0.837048,-0.343559,-0.074117,0.419313,-40.245170,9.441438,49.750406
39971,NaN,-1.333635,-6.209288,6.969481,0.313342,0.006248,-0.388821,-0.062613,-0.254430,0.033284,0.836816,-0.343248,-0.075265,0.419828,-40.257903,9.337200,49.856714
39972,NaN,-1.580643,-6.186737,6.931632,0.144199,-0.202032,-0.391433,-0.067224,-0.279555,0.035491,0.836559,-0.342903,-0.076522,0.420393,-40.271735,9.222986,49.973463
39973,NaN,-1.716909,-6.189818,7.042242,-0.001517,-0.263920,-0.284565,-0.084330,-0.325149,0.024934,0.836276,-0.342529,-0.078026,0.420984,-40.293712,9.084801,50.102596
39974,NaN,-1.599203,-6.214889,7.329981,-0.050724,-0.054823,-0.070753,-0.121777,-0.369834,0.027532,0.835903,-0.342218,-0.079789,0.421647,-40.334594,8.928306,50.249725
39975,NaN,-1.505674,-6.382110,7.652701,-0.043434,0.094928,0.264576,-0.159058,-0.386195,0.035770,0.835440,-0.342029,-0.081686,0.422355,-40.395790,8.767675,50.406664
39976,NaN,-1.408930,-6.610580,7.916583,0.026510,0.193480,0.594951,-0.171828,-0.370020,0.035675,0.834957,-0.341927,-0.083541,0.423029,-40.465574,8.614423,50.557646
39977,NaN,-1.290935,-6.743686,7.975402,0.136049,0.245125,0.707398,-0.131596,-0.336877,0.037110,0.834551,-0.341726,-0.085171,0.423667,-40.514491,8.476119,50.696848
39978,NaN,-1.186778,-6.642888,7.798130,0.192668,0.263769,0.494616,-0.068924,-0.289452,0.040713,0.834262,-0.341365,-0.086463,0.424265,-40.530108,8.360054,50.819864
39979,NaN,-1.206462,-6.429145,7.458296,0.177383,0.153561,0.105002,-0.009503,-0.229393,0.052683,0.834074,-0.340888,-0.087358,0.424834,-40.514477,8.274438,50.925478
39980,NaN,-1.270662,-6.171578,7.181990,0.083521,0.061351,-0.258988,-0.022948,-0.189566,0.056942,0.833871,-0.340553,-0.088108,0.425348,-40.508501,8.207880,51.017988
39981,NaN,-1.456259,-6.156939,6.972350,0.042288,-0.186392,-0.399627,-0.070293,-0.183558,0.056070,0.833590,-0.340427,-0.088936,0.425826,-40.530204,8.143483,51.107813
39982,NaN,-1.697663,-6.306398,6.948435,-0.011176,-0.450614,-0.287444,-0.112206,-0.223407,0.063198,0.833204,-0.340394,-0.090006,0.426382,-40.573414,8.064584,51.215822
39983,NaN,-1.685359,-6.404249,6.987534,0.029654,-0.469184,-0.197104,-0.095123,-0.266400,0.061785,0.832829,-0.340197,-0.091222,0.427013,-40.604887,7.966382,51.339389
39984,NaN,-1.685264,-6.438548,7.281137,-0.091542,-0.351416,0.045207,-0.069959,-0.306578,0.055233,0.832491,-0.339806,-0.092561,0.427695,-40.620441,7.848480,51.475261
39985,NaN,-1.546607,-6.361092,7.450631,-0.146941,-0.146697,0.103170,-0.063719,-0.342638,0.030342,0.832198,-0.339299,-0.094081,0.428337,-40.632415,7.705474,51.613726
39986,NaN,-1.096642,-6.285948,7.331879,0.116135,0.158104,-0.094988,-0.089976,-0.344680,0.017960,0.831882,-0.338890,-0.095684,0.428917,-40.660363,7.557191,51.747584
39987,NaN,-0.964617,-6.285973,7.086827,0.287082,0.129270,-0.295971,-0.133409,-0.281387,-0.005711,0.831573,-0.338785,-0.097158,0.429269,-40.718008,7.427479,51.847240
39988,NaN,-1.279110,-6.642651,6.990443,0.343171,-0.312610,-0.096122,-0.255875,-0.246614,-0.057560,0.831181,-0.339238,-0.098838,0.429286,-40.850576,7.293778,51.911327
39989,NaN,-1.397336,-7.134641,7.065926,0.519830,-0.568092,0.296214,-0.319054,-0.226442,-0.097532,0.830775,-0.339976,-0.100637,0.429070,-41.022640,7.153805,51.950633
39990,NaN,-1.411211,-7.375935,6.929012,0.696486,-0.743826,0.354353,-0.207406,-0.203949,-0.085294,0.830541,-0.340304,-0.102081,0.428922,-41.131189,7.028419,51.987120
39991,NaN,-1.280878,-7.142316,6.912087,0.617247,-0.567949,0.173638,0.051518,-0.183469,-0.043863,0.830669,-0.339620,-0.102816,0.429041,-41.090195,6.927335,52.033865
39992,NaN,-1.022370,-6.410660,6.992267,0.269681,-0.052585,-0.275493,0.182058,-0.125554,-0.000528,0.830953,-0.338542,-0.102955,0.429310,-40.974932,6.867697,52.077452
39993,NaN,-0.936925,-6.070341,7.019279,0.095364,0.150090,-0.487156,0.052117,-0.070783,0.000853,0.831042,-0.338120,-0.103144,0.429424,-40.936492,6.832041,52.100771
39994,NaN,-0.899426,-6.271564,6.903993,0.296525,0.041055,-0.446954,-0.119024,-0.059444,0.010561,0.830826,-0.338440,-0.103637,0.429471,-40.996209,6.805109,52.124100
39995,NaN,-0.926711,-6.791487,6.720766,0.687223,-0.272238,-0.241618,-0.161191,-0.069126,0.015033,0.830525,-0.338915,-0.104253,0.429531,-41.079348,6.775536,52.153011
39996,NaN,-1.010521,-7.242609,7.149081,0.716287,-0.312677,0.384128,-0.092746,-0.074895,0.038153,0.830285,-0.339107,-0.104706,0.429732,-41.121953,6.752363,52.194258
39997,NaN,-1.036375,-7.015277,7.022106,0.609850,-0.303597,0.143923,0.019623,-0.082918,0.046616,0.830215,-0.338818,-0.104937,0.430040,-41.099289,6.728771,52.242165
39998,NaN,-1.081910,-6.799907,7.511499,0.217832,-0.026996,0.374742,0.039502,-0.052709,0.043449,0.830199,-0.338511,-0.105006,0.430295,-41.066916,6.717149,52.277295
39999,NaN,-1.698003,-6.340545,6.670901,-0.056021,-0.729962,-0.482593,0.074928,-0.080923,0.060391,0.830193,-0.338004,-0.105087,0.430685,-41.011983,6.699543,52.330409
40000,NaN,-1.144526,-6.175511,7.626148,-0.270234,0.209092,0.060926,0.042828,-0.194395,0.012604,0.830174,-0.337362,-0.105788,0.431053,-40.973109,6.615016,52.405706
40001,NaN,-1.007826,-6.312738,7.490368,-0.041053,0.187485,0.032878,-0.042695,-0.111189,0.015598,0.830049,-0.337255,-0.106323,0.431246,-40.986605,6.567432,52.450733
40002,NaN,-1.573249,-6.480769,7.383409,-0.230698,-0.380450,0.126741,-0.028816,-0.124858,0.052726,0.829859,-0.337081,-0.106822,0.431625,-40.989914,6.528047,52.517166
40003,NaN,-1.571602,-6.519816,7.591146,-0.305733,-0.305605,0.307420,0.000411,-0.174593,0.058339,0.829680,-0.336680,-0.107456,0.432125,-40.973966,6.469101,52.604771
40004,NaN,-1.469339,-6.493754,7.722925,-0.325956,-0.164343,0.377411,0.014014,-0.198726,0.075740,0.829471,-0.336180,-0.108130,0.432746,-40.948610,6.406399,52.709121
40005,NaN,-1.418385,-6.467003,7.752488,-0.328887,-0.111158,0.376252,0.014761,-0.180799,0.080825,0.829262,-0.335718,-0.108720,0.433356,-40.923279,6.353138,52.808795
40006,NaN,-1.677729,-6.399314,7.641518,-0.476797,-0.352590,0.277265,0.042475,-0.184176,0.081710,0.829094,-0.335135,-0.109262,0.433992,-40.882131,6.298892,52.910172
40007,NaN,-1.905547,-6.261956,7.745920,-0.751276,-0.445721,0.290746,0.051119,-0.253987,0.100448,0.828862,-0.334372,-0.110043,0.434825,-40.832244,6.221135,53.045901
40008,NaN,-1.794176,-6.261809,8.065826,-0.839008,-0.228458,0.518369,0.008675,-0.288146,0.105528,0.828526,-0.333715,-0.111049,0.435714,-40.805389,6.130629,53.196735
40009,NaN,-1.678859,-6.138952,8.049032,-0.846477,-0.112014,0.412924,0.005634,-0.260488,0.127521,0.828152,-0.333141,-0.111910,0.436644,-40.780451,6.060034,53.346591
40010,NaN,-1.660723,-5.984988,8.015354,-0.922767,-0.065460,0.285243,0.001306,-0.234026,0.133548,0.827769,-0.332647,-0.112660,0.437552,-40.759019,6.003411,53.489178
40011,NaN,-1.629215,-5.959571,7.867467,-0.854061,-0.109258,0.153581,-0.024638,-0.247166,0.130748,0.827342,-0.332227,-0.113527,0.438454,-40.752131,5.939708,53.635352
40012,NaN,-1.342384,-5.979518,7.807709,-0.649691,0.074800,0.091314,-0.045720,-0.250471,0.133226,0.826869,-0.331890,-0.114447,0.439361,-40.757283,5.875832,53.783940
40013,NaN,-1.161413,-5.987610,7.718635,-0.502606,0.167704,0.010598,-0.047529,-0.223942,0.120716,0.826436,-0.331609,-0.115284,0.440168,-40.765164,5.818469,53.916978
40014,NaN,-0.995872,-5.973828,7.606455,-0.368037,0.248421,-0.099841,-0.056388,-0.218365,0.118858,0.825993,-0.331376,-0.116119,0.440955,-40.778543,5.763206,54.047213
40015,NaN,-0.777496,-6.054099,7.634336,-0.209918,0.399227,-0.048659,-0.067348,-0.193749,0.110099,0.825566,-0.331237,-0.116892,0.441655,-40.799627,5.715032,54.164266
40016,NaN,-0.659165,-6.061898,7.637055,-0.144779,0.489051,-0.053303,-0.060926,-0.150760,0.104872,0.825184,-0.331163,-0.117480,0.442268,-40.818911,5.683927,54.262973
40017,NaN,-0.637633,-5.991307,7.507306,-0.119343,0.475425,-0.199067,-0.036823,-0.080653,0.105772,0.824881,-0.331145,-0.117726,0.442781,-40.827019,5.683236,54.335588
40018,NaN,-0.706786,-5.826283,7.311540,-0.171831,0.400856,-0.447137,-0.045859,0.012512,0.109904,0.824608,-0.331372,-0.117599,0.443153,-40.843524,5.724814,54.375017
40019,NaN,-1.006124,-5.835426,7.326115,-0.345118,0.172117,-0.400584,-0.089101,0.086537,0.112279,0.824302,-0.331943,-0.117261,0.443384,-40.887526,5.799059,54.387482
40020,NaN,-1.341177,-6.091902,7.293468,-0.356336,-0.198200,-0.224235,-0.126054,0.053154,0.119221,0.823899,-0.332597,-0.117128,0.443679,-40.951017,5.861778,54.415575
40021,NaN,-1.267003,-6.115288,6.994296,-0.154838,-0.268891,-0.441138,-0.103862,-0.042039,0.137496,0.823436,-0.332957,-0.117310,0.444219,-40.997372,5.889901,54.487429
40022,NaN,-0.988519,-6.124426,7.132944,-0.061052,0.021022,-0.359620,-0.119750,-0.095448,0.116540,0.822961,-0.333253,-0.117780,0.444754,-41.051585,5.887452,54.570433
40023,NaN,-1.103362,-6.313633,7.396022,-0.143361,-0.022329,-0.027012,-0.182445,-0.138291,0.125197,0.822336,-0.333715,-0.118553,0.445356,-41.139782,5.869533,54.673329
40024,NaN,-0.568242,-6.630045,7.462396,0.321870,0.323108,0.175291,-0.170845,-0.238431,0.092076,0.821743,-0.333887,-0.119765,0.445997,-41.218911,5.796420,54.799948
40025,NaN,0.525928,-6.732948,8.032023,0.716250,1.422452,0.559688,-0.117443,-0.193756,0.043714,0.821373,-0.333909,-0.120757,0.446395,-41.271501,5.724094,54.888646
40026,NaN,0.573994,-6.712186,8.138095,0.667849,1.517922,0.620978,-0.063847,0.021418,0.065095,0.821174,-0.334205,-0.120707,0.446554,-41.300553,5.752816,54.904954
40027,NaN,0.787773,-6.399283,8.051230,0.632512,1.782626,0.327129,-0.030994,0.222580,-0.003101,0.821303,-0.334772,-0.119875,0.446115,-41.321579,5.842063,54.815206
40028,NaN,-0.581188,-6.084792,7.522792,-0.085596,0.574046,-0.137051,-0.052447,0.395079,-0.029134,0.821556,-0.335796,-0.118424,0.445267,-41.362887,5.995751,54.648521
40029,NaN,-1.697654,-6.362568,7.907212,-0.732174,-0.239762,0.448632,-0.136400,0.267044,-0.017286,0.821563,-0.336886,-0.117667,0.444632,-41.447145,6.098584,54.535512
40030,NaN,-1.900091,-6.943519,8.402795,-0.721790,-0.379886,1.222005,-0.169039,0.109069,-0.026223,0.821440,-0.337753,-0.117644,0.444206,-41.544078,6.130198,54.478805
40031,NaN,-1.270673,-7.054153,8.123206,-0.159859,-0.025936,1.019483,-0.133235,0.033670,-0.022091,0.821324,-0.338307,-0.117847,0.443945,-41.617412,6.130839,54.452644
40032,NaN,-1.032100,-6.775230,7.684388,0.007930,0.081842,0.483527,-0.046562,0.085782,-0.001857,0.821340,-0.338633,-0.117606,0.443730,-41.642114,6.161652,54.415276
40033,NaN,-1.209328,-6.461071,7.328577,-0.121403,-0.098488,0.030662,0.001830,0.074555,0.006208,0.821414,-0.338741,-0.117293,0.443595,-41.638455,6.190546,54.385644
40034,NaN,-0.682799,-6.220602,6.854306,0.263365,0.206749,-0.537370,-0.022283,0.049666,0.013780,0.821415,-0.338896,-0.117121,0.443520,-41.647061,6.211842,54.368831
40035,NaN,-0.484315,-6.080801,6.705509,0.361766,0.360140,-0.762054,-0.074731,0.146494,0.019459,0.821371,-0.339485,-0.116659,0.443273,-41.689684,6.276559,54.317320
40036,NaN,-1.143539,-6.118843,6.638731,0.035442,-0.204858,-0.714477,-0.118857,0.099588,0.021956,0.821219,-0.340151,-0.116482,0.443090,-41.755377,6.322269,54.284833
40037,NaN,-1.107951,-6.458114,7.303535,-0.059531,0.008549,-0.000818,-0.151732,-0.020978,0.018169,0.820948,-0.340684,-0.116881,0.443077,-41.835181,6.314843,54.296958
40038,NaN,-0.740275,-6.663735,7.345745,0.252506,0.255982,0.126328,-0.197921,-0.008867,0.013183,0.820617,-0.341430,-0.117340,0.442996,-41.942026,6.310846,54.302317
40039,NaN,-1.085226,-6.730707,6.992033,0.257174,-0.196426,-0.052365,-0.196760,0.059294,0.025995,0.820298,-0.342330,-0.117495,0.442850,-42.050666,6.340644,54.286861
40040,NaN,-1.670177,-6.802398,6.897976,-0.001372,-0.725005,-0.008682,-0.185211,0.018162,0.026942,0.819972,-0.343091,-0.117791,0.442786,-42.150742,6.353430,54.287672
40041,NaN,-1.583620,-6.910840,6.808375,0.149226,-0.729131,-0.011279,-0.174736,-0.101798,0.018394,0.819612,-0.343538,-0.118571,0.442898,-42.240255,6.311869,54.331239
40042,NaN,-1.120276,-6.965809,7.128623,0.277512,-0.227811,0.210578,-0.146215,-0.156958,0.021995,0.819259,-0.343748,-0.119507,0.443137,-42.310832,6.248549,54.397821
40043,NaN,-0.850681,-6.966733,7.354798,0.305911,0.091712,0.348517,-0.123405,-0.150853,0.040855,0.818906,-0.343890,-0.120335,0.443455,-42.367907,6.194988,54.470094
40044,NaN,-0.642044,-7.017969,7.421011,0.413652,0.272090,0.409365,-0.118170,-0.105195,0.055609,0.818556,-0.344119,-0.120939,0.443758,-42.423160,6.166687,54.530989
40045,NaN,-0.610889,-7.072680,7.313247,0.511422,0.231503,0.363973,-0.107620,-0.053937,0.061241,0.818243,-0.344423,-0.121301,0.444002,-42.474370,6.162121,54.574329
40046,NaN,-0.866703,-7.027483,7.221018,0.375399,0.003008,0.293689,-0.069057,-0.048847,0.067814,0.817984,-0.344584,-0.121544,0.444287,-42.503314,6.162412,54.618514
40047,NaN,-1.316072,-7.012168,7.251334,0.088731,-0.340870,0.353941,-0.029004,-0.089698,0.078018,0.817747,-0.344496,-0.121848,0.444709,-42.507228,6.149278,54.682911
40048,NaN,-1.593661,-6.907196,7.443126,-0.236247,-0.445580,0.453513,0.014376,-0.163181,0.078958,0.817536,-0.344069,-0.122354,0.445287,-42.483157,6.105584,54.776339
40049,NaN,-1.470425,-6.720810,7.608381,-0.370483,-0.213800,0.436016,0.023336,-0.222396,0.079935,0.817303,-0.343473,-0.123081,0.445976,-42.451633,6.037065,54.893154
40050,NaN,-1.249871,-6.525195,7.351302,-0.242918,-0.093197,0.092577,0.015414,-0.247702,0.074905,0.817049,-0.342849,-0.123936,0.446682,-42.423934,5.956002,55.017656
40051,NaN,-1.032091,-6.474557,7.388753,-0.175891,0.105475,0.063380,-0.010444,-0.247563,0.064932,0.816773,-0.342324,-0.124867,0.447331,-42.411744,5.870938,55.137777
40052,NaN,-0.710983,-6.445750,7.360728,-0.005577,0.352758,-0.009167,-0.029735,-0.233659,0.047460,0.816509,-0.341898,-0.125813,0.447872,-42.412010,5.785166,55.245079
40053,NaN,-0.473436,-6.550927,7.349410,0.192268,0.493769,0.029661,-0.074557,-0.195081,0.035767,0.816219,-0.341734,-0.126722,0.448270,-42.440185,5.711042,55.332390
40054,NaN,-0.407603,-6.697142,7.347034,0.312886,0.489242,0.120062,-0.113426,-0.124398,0.035984,0.815906,-0.341886,-0.127429,0.448524,-42.493337,5.667081,55.392388
40055,NaN,-0.518961,-7.024323,7.223779,0.512423,0.227145,0.261003,-0.143152,-0.062740,0.060420,0.815526,-0.342313,-0.127910,0.448752,-42.564982,5.658540,55.438774
40056,NaN,-0.940363,-7.333512,7.297922,0.426395,-0.189957,0.565484,-0.120630,-0.033340,0.090420,0.815136,-0.342733,-0.128168,0.449066,-42.623513,5.674190,55.486448
40057,NaN,-1.177482,-7.388728,7.335503,0.305458,-0.382406,0.653918,-0.030722,-0.058553,0.093369,0.814876,-0.342732,-0.128323,0.449493,-42.629508,5.680277,55.545176
40058,NaN,-1.245374,-7.081580,7.446419,0.016524,-0.280469,0.534774,0.086170,-0.075631,0.089732,0.814814,-0.342214,-0.128290,0.450010,-42.567969,5.677828,55.609045
40059,NaN,-1.172621,-6.593044,7.382883,-0.215526,-0.080716,0.152113,0.116156,-0.081813,0.071420,0.814840,-0.341548,-0.128247,0.450481,-42.489839,5.665494,55.667523
40060,NaN,-1.121572,-6.322899,7.169793,-0.244159,-0.044503,-0.190769,0.069304,-0.097586,0.049582,0.814824,-0.341023,-0.128410,0.450860,-42.438838,5.638095,55.722869
40061,NaN,-0.972959,-6.416061,7.368518,-0.201515,0.123138,0.003206,0.018391,-0.112606,0.033185,0.814749,-0.340661,-0.128778,0.451165,-42.417201,5.597857,55.777031
40062,NaN,-0.662789,-6.624023,7.528541,0.021577,0.366266,0.230284,-0.010175,-0.114548,0.027566,0.814636,-0.340408,-0.129227,0.451432,-42.412066,5.554739,55.829573
40063,NaN,-0.272649,-6.797041,7.702083,0.258017,0.697182,0.436388,-0.034994,-0.054523,0.030267,0.814514,-0.340392,-0.129483,0.451591,-42.423384,5.537931,55.859928
40064,NaN,-0.222193,-7.035680,7.651448,0.465083,0.631674,0.554545,-0.028866,0.020141,0.031025,0.814448,-0.340520,-0.129420,0.451631,-42.433883,5.553082,55.861628
40065,NaN,-0.352889,-7.234715,7.708826,0.493301,0.481120,0.742729,0.002771,0.059365,0.029310,0.814466,-0.340608,-0.129129,0.451617,-42.427884,5.584073,55.847347
40066,NaN,-0.664685,-7.344971,7.671730,0.417242,0.170540,0.819465,0.073771,0.068891,0.028546,0.814612,-0.340426,-0.128640,0.451629,-42.381534,5.618841,55.829056
40067,NaN,-0.674931,-7.159861,7.626248,0.328403,0.206181,0.662446,0.148403,0.051134,0.019344,0.814894,-0.339895,-0.128070,0.451682,-42.292207,5.642524,55.813775
40068,NaN,-0.606504,-6.800661,7.468149,0.233547,0.315470,0.298494,0.214536,0.061997,0.009713,0.815317,-0.339112,-0.127324,0.451719,-42.165753,5.667144,55.790223
40069,NaN,-0.704915,-6.337935,7.367155,-0.049278,0.349366,-0.075297,0.221671,0.096868,-0.008559,0.815813,-0.338367,-0.126449,0.451627,-42.037380,5.699613,55.745463
40070,NaN,-0.886000,-6.187528,7.392731,-0.242102,0.260731,-0.138167,0.172878,0.127071,-0.021198,0.816274,-0.337880,-0.125583,0.451400,-41.938624,5.740172,55.683708
40071,NaN,-1.003377,-6.256661,7.325854,-0.213181,0.107999,-0.129528,0.117855,0.141313,-0.035447,0.816682,-0.337642,-0.124807,0.451056,-41.872655,5.781455,55.610435
40072,NaN,-0.963036,-6.444738,7.276638,-0.030361,0.051621,-0.044988,0.092195,0.158996,-0.042428,0.817073,-0.337542,-0.124029,0.450637,-41.822346,5.827680,55.527392
40073,NaN,-0.898566,-6.594976,7.339546,0.083882,0.079789,0.094716,0.085243,0.186694,-0.047905,0.817481,-0.337530,-0.123162,0.450144,-41.777500,5.883723,55.431413
40074,NaN,-1.056439,-6.728441,7.482140,0.022094,-0.031566,0.305064,0.084731,0.205125,-0.053059,0.817910,-0.337558,-0.122229,0.449598,-41.733918,5.945729,55.326167
40075,NaN,-0.901965,-6.823428,7.432541,0.210325,0.042523,0.314963,0.107028,0.238224,-0.063821,0.818419,-0.337562,-0.121129,0.448965,-41.679564,6.017903,55.203661
40076,NaN,-0.554819,-6.745221,7.250304,0.465333,0.281288,0.090698,0.114762,0.340156,-0.058289,0.818989,-0.337765,-0.119584,0.448186,-41.624780,6.135913,55.044533
40077,NaN,-0.928828,-6.695571,7.076556,0.329185,-0.067408,-0.032194,0.115150,0.485418,-0.034733,0.819590,-0.338306,-0.117404,0.447257,-41.575199,6.325291,54.840052
40078,NaN,-1.784394,-6.403559,6.547170,-0.064980,-0.870832,-0.523317,0.128437,0.518663,-0.025621,0.820206,-0.338868,-0.115041,0.446313,-41.519620,6.532527,54.626866
40079,NaN,-1.951919,-6.115467,6.411238,-0.261236,-0.939802,-0.792635,0.114149,0.451360,-0.010601,0.820721,-0.339346,-0.112961,0.445534,-41.469283,6.716824,54.446019
40080,NaN,-1.719794,-6.106565,6.556003,-0.186373,-0.662947,-0.715726,0.044690,0.397371,-0.016836,0.821098,-0.339984,-0.111266,0.444780,-41.457123,6.875676,54.283147
40081,NaN,-1.492221,-6.379994,6.815973,0.010946,-0.442496,-0.368506,0.000795,0.341780,-0.012032,0.821355,-0.340680,-0.109889,0.444114,-41.467748,7.012479,54.143543
40082,NaN,-1.196052,-6.553195,6.923156,0.256948,-0.199865,-0.210658,0.015388,0.357295,0.000429,0.821616,-0.341356,-0.108394,0.443479,-41.470421,7.160694,54.003358
40083,NaN,-0.815783,-6.632764,6.968096,0.526295,0.119115,-0.173074,0.034976,0.483201,-0.003816,0.821984,-0.342227,-0.106345,0.442621,-41.468629,7.361313,53.813104
40084,NaN,-0.898520,-6.794776,6.953169,0.613231,0.014012,-0.068639,0.029521,0.592819,-0.007846,0.822404,-0.343359,-0.103864,0.441553,-41.476409,7.607473,53.579070
40085,NaN,-1.163526,-7.010727,6.930732,0.634047,-0.257918,0.090366,0.066760,0.586347,-0.011501,0.822885,-0.344318,-0.101333,0.440496,-41.463732,7.849458,53.345785
40086,NaN,-1.262384,-6.956592,6.961419,0.554621,-0.274222,0.090150,0.152364,0.582809,-0.007887,0.823497,-0.344916,-0.098620,0.439499,-41.402613,8.091450,53.115461
40087,NaN,-1.450426,-6.561752,7.158936,0.127982,-0.155920,0.004126,0.238465,0.605164,-0.012176,0.824270,-0.345203,-0.095633,0.438484,-41.294560,8.341762,52.874928
40088,NaN,-1.553149,-6.151356,7.453072,-0.299012,0.083250,-0.029885,0.234113,0.584402,-0.025059,0.825044,-0.345454,-0.092763,0.437446,-41.189757,8.578688,52.637044
40089,NaN,-1.610142,-6.249238,8.175421,-0.558610,0.381071,0.580848,0.179461,0.600860,-0.016408,0.825705,-0.345966,-0.089928,0.436385,-41.117475,8.826356,52.396865
40090,NaN,-1.783470,-6.393325,8.396446,-0.625639,0.335457,0.866798,0.161918,0.695431,0.031158,0.826265,-0.346774,-0.086658,0.435344,-41.058812,9.133017,52.141572
40091,NaN,-1.917730,-6.172242,7.798944,-0.542709,0.059519,0.301629,0.157788,0.737260,0.035987,0.826814,-0.347687,-0.083214,0.434243,-41.006077,9.459847,51.872488
40092,NaN,-0.815378,-6.200175,7.824806,0.180371,0.956895,0.156571,0.168632,0.762589,-0.019990,0.827502,-0.348583,-0.079738,0.432864,-40.954389,9.776843,51.569251
40093,NaN,-1.079817,-6.176977,7.601557,0.148262,0.690277,0.016140,0.156432,0.904236,0.003334,0.828160,-0.349839,-0.075660,0.431322,-40.919053,10.164131,51.222187
40094,NaN,-1.778052,-6.336530,7.356832,-0.024668,0.013840,0.058225,0.160914,0.874346,-0.019026,0.828846,-0.350995,-0.071735,0.429733,-40.883136,10.530259,50.876514
40095,NaN,-1.926932,-6.512293,7.131407,0.135541,-0.242035,0.031234,0.150051,0.805610,-0.041284,0.829521,-0.352035,-0.068154,0.428161,-40.852499,10.858497,50.547078
40096,NaN,-1.704305,-6.620533,7.134261,0.381604,-0.077720,0.060607,0.150238,0.720901,-0.064968,0.830205,-0.352878,-0.064967,0.426633,-40.819309,11.141178,50.239451
40097,NaN,-1.096212,-6.655040,7.266111,0.766620,0.464931,0.060691,0.159617,0.632949,-0.085348,0.830911,-0.353485,-0.062159,0.425173,-40.777363,11.378423,49.956210
40098,NaN,-0.160300,-6.747217,7.529825,1.345614,1.291020,0.125692,0.166857,0.573080,-0.127893,0.831692,-0.353917,-0.059660,0.423641,-40.731578,11.573760,49.677038
40099,NaN,-0.951469,-6.659957,7.603290,0.794198,0.793474,0.277396,0.178486,0.693249,-0.093697,0.832449,-0.354562,-0.056574,0.422036,-40.686406,11.834507,49.367013
40100,NaN,-2.652997,-6.705066,7.965659,-0.359567,-0.254445,0.922936,0.170895,0.848614,-0.019148,0.833065,-0.355581,-0.052728,0.420458,-40.652852,12.190455,49.030686
40101,NaN,-2.043109,-6.998674,8.437892,0.094816,0.393276,1.331348,0.143855,0.995087,-0.030571,0.833677,-0.357011,-0.048344,0.418555,-40.650045,12.606278,48.632870
40102,NaN,-1.000549,-7.243833,8.368714,1.020153,1.092379,1.199786,0.067009,1.331438,-0.015945,0.834175,-0.359455,-0.042695,0.416079,-40.722170,13.173080,48.111778
40103,NaN,-1.299754,-7.373322,7.778158,1.212937,0.584169,0.899028,0.112774,1.747945,0.070191,0.834613,-0.362572,-0.035052,0.413199,-40.803079,13.952568,47.466527
40104,NaN,-1.939562,-7.156601,7.109493,0.990682,-0.066236,0.411590,0.294805,2.024765,0.139133,0.835213,-0.365479,-0.025757,0.410099,-40.808870,14.876727,46.742265
40105,NaN,-2.504903,-6.738955,7.206127,0.425569,-0.128592,0.356683,0.467896,2.216267,0.160746,0.836011,-0.368018,-0.015258,0.406714,-40.745048,15.893146,45.950486
40106,NaN,-3.327385,-6.133312,7.066937,-0.350844,-0.421420,0.103316,0.617654,2.284488,0.172397,0.836954,-0.370020,-0.004154,0.403207,-40.616162,16.943975,45.135155
40107,NaN,-4.173983,-5.433583,6.884907,-1.203209,-0.707135,-0.200328,0.690796,2.212506,0.177721,0.837904,-0.371520,0.006815,0.399803,-40.450496,17.968313,44.348649
40108,NaN,-4.571054,-5.046084,7.024087,-1.648711,-0.609658,-0.189645,0.645506,2.034791,0.158804,0.838711,-0.372810,0.016906,0.396600,-40.305189,18.909275,43.621502
40109,NaN,-4.482658,-5.043465,7.328194,-1.553058,-0.243641,0.023961,0.529098,1.870082,0.141245,0.839260,-0.374223,0.026047,0.393600,-40.218985,19.773926,42.948962
40110,NaN,-3.819506,-5.136811,7.267520,-0.903895,0.211878,-0.172751,0.441258,1.849239,0.160655,0.839534,-0.375926,0.034964,0.390691,-40.187670,20.637155,42.290262
40111,NaN,-3.338436,-5.427247,7.561680,-0.321707,0.699823,0.045477,0.386467,2.011987,0.209268,0.839497,-0.378132,0.044543,0.387656,-40.213895,21.589744,41.586661
40112,NaN,-3.501181,-5.574435,7.627290,-0.211312,0.705425,0.235330,0.433037,2.204896,0.288641,0.839255,-0.380454,0.055170,0.384528,-40.241904,22.655752,40.837352
40113,NaN,-4.597857,-5.579286,7.442074,-0.780700,0.055768,0.533151,0.538694,2.426072,0.381743,0.838852,-0.382678,0.067095,0.381292,-40.243265,23.852809,40.037476
40114,NaN,-4.788116,-5.018024,7.166312,-1.092099,0.124189,0.099486,0.684782,2.224534,0.322060,0.838788,-0.383867,0.078331,0.378080,-40.156010,24.940123,39.284003
40115,NaN,-3.956083,-4.623052,7.428523,-0.667929,1.070174,-0.293674,0.670525,2.184211,0.279871,0.838677,-0.385006,0.089277,0.374729,-40.093601,25.995106,38.522217
40116,NaN,-3.655467,-4.351031,6.533682,-0.373281,0.825956,-1.201142,0.606533,2.296305,0.262368,0.838310,-0.386576,0.100527,0.371065,-40.107917,27.092994,37.699081
40117,NaN,-3.604592,-4.141914,6.434038,-0.333906,0.978620,-1.417828,0.579693,2.304662,0.215113,0.837855,-0.388245,0.111657,0.367148,-40.168345,28.176666,36.840246
40118,NaN,-3.840576,-3.968397,6.389086,-0.488430,1.003025,-1.441801,0.503450,2.226447,0.106018,0.837383,-0.390095,0.122094,0.362917,-40.301320,29.184415,35.949365
40119,NaN,-3.954259,-3.939154,6.235382,-0.463505,0.948347,-1.511056,0.395558,2.047760,0.031128,0.836844,-0.392074,0.131424,0.358744,-40.495928,30.084197,35.085735
40120,NaN,-4.500043,-4.131682,5.663668,-0.591845,0.263737,-1.507433,0.199548,1.776952,-0.075098,0.836211,-0.394417,0.139049,0.354755,-40.786704,30.823307,34.274543
40121,NaN,-4.772893,-4.324515,5.082696,-0.569155,-0.305080,-1.633562,0.110836,1.403564,-0.243881,0.835907,-0.396563,0.144614,0.350833,-41.100950,31.333839,33.531551
40122,NaN,-4.865798,-4.593705,4.680465,-0.406226,-0.702885,-1.687085,-0.010048,1.108175,-0.288140,0.835619,-0.398709,0.148637,0.347390,-41.435567,31.696720,32.891139
40123,NaN,-5.445924,-5.060333,4.657535,-0.487030,-1.130397,-1.126932,-0.101262,0.894179,-0.353494,0.835398,-0.400905,0.151475,0.344153,-41.795176,31.939846,32.308117
40124,NaN,-6.259380,-5.910539,5.589670,-0.507756,-1.090612,0.380993,-0.206805,0.665182,-0.367973,0.835148,-0.403148,0.153142,0.341390,-42.167069,32.076731,31.818698
40125,NaN,-6.598508,-6.672264,6.125023,-0.254448,-1.106895,1.335636,-0.216973,0.399717,-0.355230,0.835049,-0.404968,0.153708,0.339217,-42.478945,32.103583,31.454733
40126,NaN,-5.812581,-7.180846,6.504997,0.638624,-0.639064,1.450046,-0.207631,0.468576,-0.259818,0.834746,-0.406787,0.154767,0.337299,-42.777068,32.194874,31.107209
40127,NaN,-5.214466,-7.572271,6.822145,1.343377,-0.245850,1.554199,-0.051089,0.854193,-0.136384,0.834245,-0.408505,0.157951,0.334980,-43.050105,32.494634,30.640750
40128,NaN,-5.497668,-7.360861,6.743607,1.040589,-0.272274,1.533023,0.213675,1.180689,0.018982,0.833742,-0.409529,0.163250,0.332430,-43.216114,32.990245,30.096980
40129,NaN,-5.746206,-6.669467,6.580077,0.462603,-0.138370,1.167477,0.408294,1.255200,0.109556,0.833394,-0.409777,0.169365,0.329927,-43.272024,33.551637,29.558077
40130,NaN,-5.084653,-5.927852,6.662529,0.519584,0.580709,0.423250,0.454438,1.180265,0.114336,0.833161,-0.409687,0.175244,0.327550,-43.286540,34.083334,29.053964
40131,NaN,-4.513439,-5.863841,6.934998,0.985012,1.103120,0.220352,0.396234,1.270056,0.124999,0.832678,-0.409961,0.181418,0.325064,-43.362011,34.656358,28.507863
40132,NaN,-4.669105,-5.892193,6.286431,0.957332,0.563738,-0.076030,0.322097,1.356072,0.099661,0.831966,-0.410686,0.187767,0.322355,-43.518269,35.254162,27.903114
40133,NaN,-5.272989,-5.933239,5.411447,0.589764,-0.329362,-0.229664,0.333697,1.385034,0.126942,0.831167,-0.411365,0.194304,0.319667,-43.677419,35.873505,27.290784
40134,NaN,-5.786455,-5.884867,5.052341,0.242783,-0.728512,-0.166423,0.411105,1.350373,0.125885,0.830519,-0.411645,0.200807,0.316958,-43.791364,36.476758,26.688921
40135,NaN,-6.433757,-5.558883,4.867162,-0.391117,-0.911032,-0.065883,0.462889,1.121431,0.069005,0.830263,-0.411388,0.206318,0.314415,-43.833500,36.962260,26.165174
40136,NaN,-7.062741,-5.216562,4.741030,-1.035120,-1.039172,0.057500,0.430303,0.787049,0.028141,0.830324,-0.410770,0.210296,0.312419,-43.811124,37.293133,25.784430
40137,NaN,-7.295488,-5.013687,4.942313,-1.289612,-0.843117,0.207975,0.357828,0.387116,-0.043683,0.830758,-0.409899,0.212354,0.311014,-43.733953,37.430450,25.564197
40138,NaN,-6.956065,-4.941676,5.286485,-1.053783,-0.417895,0.160718,0.260617,-0.012384,-0.141613,0.831564,-0.408912,0.212397,0.310128,-43.622395,37.363748,25.492793
40139,NaN,-5.499458,-4.868111,5.701170,-0.032332,0.433760,-0.525243,0.112520,-0.215294,-0.227128,0.832415,-0.408317,0.211193,0.309452,-43.561828,37.179159,25.476776
40140,NaN,-4.273932,-5.249665,6.130684,1.135185,1.009525,-0.806970,0.028641,-0.000236,-0.221406,0.832855,-0.408396,0.210764,0.308454,-43.611547,37.086110,25.357874
40141,NaN,-3.875975,-5.504240,5.932671,1.579190,0.874901,-1.023089,0.036733,0.544543,-0.114721,0.832571,-0.409167,0.212835,0.306773,-43.786878,37.260744,25.023274
40142,NaN,-3.562410,-5.446998,5.881993,1.795867,1.002946,-1.284680,0.062562,1.104159,-0.020269,0.831582,-0.410580,0.217463,0.304309,-44.090721,37.702636,24.455569
40143,NaN,-3.539805,-5.282346,5.563601,1.727827,0.888445,-1.590073,0.058787,1.597201,0.075280,0.829866,-0.412637,0.224322,0.301218,-44.530028,38.382052,23.678644
40144,NaN,-4.065300,-5.396753,5.774499,1.545964,0.925096,-1.109307,0.057033,2.015834,0.147711,0.827499,-0.415215,0.233044,0.297543,-45.100720,39.255262,22.706947
40145,NaN,-4.858404,-5.595742,5.788312,1.236156,0.716005,-0.518744,0.079949,2.345810,0.218728,0.824590,-0.418058,0.243287,0.293412,-45.775750,40.282055,21.571092
40146,NaN,-6.244620,-5.632271,5.713458,0.407997,0.386311,0.338260,0.130347,2.469897,0.290695,0.821410,-0.420724,0.254228,0.289215,-46.479645,41.376985,20.371349
40147,NaN,-7.811702,-5.559296,4.464064,-0.823143,-0.881284,0.694389,0.192070,2.271816,0.209859,0.818610,-0.422895,0.264241,0.284982,-47.143425,42.349839,19.203177
40148,NaN,-8.885548,-5.491524,3.837283,-1.627497,-1.495558,1.093585,0.273887,1.807459,0.144354,0.816603,-0.424109,0.272301,0.281325,-47.635657,43.105843,18.237809
40149,NaN,-10.003501,-5.388169,4.746235,-2.205230,-0.828820,2.273597,0.383050,1.093293,-0.009940,0.815968,-0.424059,0.277258,0.278386,-47.854051,43.517093,17.591040
40150,NaN,-9.329845,-4.896033,4.636951,-2.062211,-0.487084,1.502278,0.320132,0.394817,-0.111573,0.816292,-0.423426,0.279053,0.276600,-47.867793,43.615561,17.296835
40151,NaN,-7.348130,-4.563566,3.615339,-1.143737,-0.749317,-0.537872,0.160871,0.166356,-0.205838,0.816725,-0.423256,0.279497,0.275129,-47.915449,43.586211,17.085669
40152,NaN,-6.858219,-4.950983,3.971426,-0.467780,-0.523027,-0.494574,0.093577,0.231177,-0.238132,0.816966,-0.423494,0.280043,0.273487,-48.039213,43.567741,16.820171
40153,NaN,-7.335113,-5.226833,4.444974,-0.512083,-0.348147,0.212183,0.120910,0.132789,-0.201079,0.817351,-0.423434,0.280304,0.272161,-48.094076,43.527100,16.631572
40154,NaN,-7.349630,-5.196115,4.554883,-0.532913,-0.240202,0.258157,0.047643,-0.024749,-0.217544,0.817821,-0.423480,0.279784,0.271208,-48.132484,43.419087,16.527988
40155,NaN,-7.048782,-5.305682,4.241563,-0.343675,-0.495744,-0.042195,-0.061246,-0.104492,-0.237775,0.818200,-0.423892,0.278749,0.270489,-48.208351,43.271863,16.460136
40156,NaN,-7.131960,-5.541999,4.034077,-0.312433,-0.800685,0.041938,-0.112377,-0.067779,-0.180535,0.818339,-0.424481,0.277915,0.270001,-48.307032,43.163106,16.401927
40157,NaN,-7.553623,-5.579033,4.243892,-0.554515,-0.723051,0.451967,-0.084218,-0.058715,-0.139336,0.818470,-0.424910,0.277244,0.269619,-48.378524,43.075307,16.359446
40158,NaN,-8.031950,-5.396115,4.572964,-0.957902,-0.455851,0.837048,-0.020304,-0.173539,-0.096358,0.818835,-0.424863,0.276279,0.269573,-48.351850,42.962293,16.407569
40159,NaN,-7.700868,-5.375876,5.004135,-0.669426,-0.028648,0.807845,-0.083198,-0.391961,-0.121886,0.819403,-0.424813,0.274281,0.269967,-48.284040,42.755003,16.568820
40160,NaN,-6.703300,-5.387079,4.804648,-0.039452,-0.015213,0.038077,-0.072563,-0.445925,-0.160376,0.820113,-0.424698,0.271993,0.270308,-48.203295,42.510684,16.741271
40161,NaN,-6.375298,-5.491126,4.420403,0.147104,-0.336661,-0.315224,-0.097637,-0.285555,-0.136303,0.820517,-0.424867,0.270379,0.270434,-48.192378,42.337626,16.831784
40162,NaN,-7.987737,-5.474436,3.491672,-1.225187,-1.465711,0.302437,-0.152887,-0.244917,-0.040447,0.820616,-0.425187,0.269059,0.270946,-48.195716,42.221192,16.948831
40163,NaN,-7.567865,-5.805224,4.130698,-0.591452,-1.012088,0.515026,-0.181079,-0.434396,-0.028256,0.820892,-0.425348,0.266950,0.271943,-48.138501,42.037346,17.180147
40164,NaN,-6.910608,-5.912123,4.040527,-0.095436,-1.014429,0.086673,-0.148676,-0.402455,-0.011357,0.821165,-0.425396,0.265050,0.272902,-48.070163,41.872997,17.401591
40165,NaN,-7.127852,-5.880407,4.080002,-0.281074,-1.033530,0.231447,-0.065466,-0.361643,0.036206,0.821494,-0.425092,0.263531,0.273853,-47.954502,41.744026,17.622658
40166,NaN,-7.566542,-5.530452,4.392477,-0.780325,-0.726971,0.482690,0.025559,-0.424166,0.071610,0.822045,-0.424282,0.261953,0.274968,-47.751833,41.605866,17.897468
40167,NaN,-7.159315,-5.100061,4.740527,-0.729701,-0.168929,0.146120,0.028099,-0.540942,0.054567,0.822775,-0.423319,0.259863,0.276249,-47.511411,41.414345,18.227189
40168,NaN,-6.301033,-4.883207,5.068562,-0.226215,0.375146,-0.376217,-0.037325,-0.574359,0.006638,0.823467,-0.422639,0.257440,0.277493,-47.314560,41.189031,18.549850
40169,NaN,-6.313122,-5.098814,5.612823,-0.017453,0.690415,0.030079,-0.090166,-0.550631,-0.020559,0.824051,-0.422240,0.254982,0.278634,-47.168283,40.960461,18.842282
40170,NaN,-6.455387,-5.219066,5.840293,-0.032011,0.755399,0.308964,-0.108197,-0.607077,-0.028048,0.824670,-0.421843,0.252250,0.279889,-47.016459,40.706498,19.160941
40171,NaN,-5.748259,-5.243322,5.871598,0.457519,0.916458,-0.119330,-0.147038,-0.562887,-0.055586,0.825184,-0.421699,0.249584,0.280979,-46.914358,40.457408,19.438479
40172,NaN,-5.756607,-5.512807,5.958496,0.611824,0.835294,0.084841,-0.174834,-0.468499,-0.047567,0.825502,-0.421789,0.247284,0.281941,-46.860612,40.248634,19.667807
40173,NaN,-5.618231,-5.727486,5.923442,0.817940,0.723040,0.100128,-0.178807,-0.406313,-0.030182,0.825709,-0.421958,0.245270,0.282841,-46.826661,40.071075,19.870316
40174,NaN,-5.231141,-5.847892,5.883941,1.147439,0.724719,-0.099728,-0.160732,-0.252955,0.008780,0.825705,-0.422221,0.243995,0.283562,-46.823759,39.970078,20.009605
40175,NaN,-5.621703,-5.950735,5.886060,0.924461,0.573173,0.211151,-0.106465,-0.096546,0.046550,0.825572,-0.422435,0.243523,0.284036,-46.832578,39.945974,20.081827
40176,NaN,-6.166273,-5.846526,5.646275,0.421591,0.278502,0.377009,-0.034919,-0.056962,0.078364,0.825495,-0.422371,0.243382,0.284476,-46.803564,39.950805,20.149627
40177,NaN,-6.834343,-5.522778,5.447252,-0.308438,0.083709,0.520740,0.008038,-0.133346,0.097806,0.825575,-0.421997,0.243029,0.285099,-46.717118,39.933584,20.268070
40178,NaN,-7.531608,-5.203693,5.353424,-1.043346,-0.045478,0.740606,0.014456,-0.282654,0.093303,0.825854,-0.421388,0.242058,0.286015,-46.576370,39.855709,20.465975
40179,NaN,-7.893369,-4.941447,5.187567,-1.520179,-0.186071,0.736640,-0.051813,-0.475815,0.073360,0.826254,-0.420799,0.240153,0.287330,-46.414291,39.692829,20.756655
40180,NaN,-7.589578,-4.880277,4.970240,-1.402110,-0.291702,0.388827,-0.206958,-0.624755,0.049680,0.826531,-0.420662,0.237356,0.289052,-46.299071,39.460884,21.115053
40181,NaN,-6.699035,-5.308437,5.367801,-0.446550,0.052900,0.270343,-0.360719,-0.642019,0.039831,0.826512,-0.421142,0.234244,0.290941,-46.271793,39.217492,21.474972
40182,NaN,-5.828692,-6.002266,5.681044,0.659707,0.217908,0.276530,-0.409256,-0.512798,0.052641,0.826209,-0.421991,0.231619,0.292671,-46.313121,39.030867,21.772298
40183,NaN,-5.441938,-6.516328,5.776006,1.272873,0.165912,0.375133,-0.321820,-0.338899,0.064712,0.825866,-0.422715,0.229864,0.293973,-46.360011,38.917945,21.981689
40184,NaN,-5.079142,-6.677580,5.767558,1.627787,0.190267,0.235526,-0.158415,-0.213935,0.082568,0.825694,-0.422926,0.228901,0.294902,-46.349430,38.862093,22.134287
40185,NaN,-4.711139,-6.527596,5.681838,1.776239,0.293265,-0.125242,-0.001646,-0.100186,0.086072,0.825719,-0.422654,0.228647,0.295420,-46.286334,38.852432,22.227121
40186,NaN,-4.703722,-6.204534,5.507818,1.546071,0.293540,-0.406265,0.132802,0.034135,0.096381,0.825857,-0.422012,0.229165,0.295549,-46.187387,38.900230,22.254841
40187,NaN,-5.057937,-6.010501,5.979741,1.237023,0.663020,-0.040467,0.241344,0.166049,0.091672,0.826080,-0.421123,0.230381,0.295248,-46.071993,38.998361,22.209211
40188,NaN,-5.351850,-5.641577,5.892234,0.787764,0.665711,-0.110921,0.344975,0.225686,0.080342,0.826466,-0.419904,0.231968,0.294661,-45.920455,39.115602,22.127354
40189,NaN,-5.448824,-5.115570,5.417541,0.323192,0.481713,-0.600092,0.366881,0.309517,0.054626,0.826835,-0.418747,0.233882,0.293759,-45.793131,39.255918,21.986999
40190,NaN,-6.055364,-4.709802,4.728692,-0.459021,-0.075283,-0.813034,0.337604,0.368504,0.017132,0.827123,-0.417838,0.235914,0.292617,-45.714626,39.404532,21.797011
40191,NaN,-7.198238,-4.310634,4.165713,-1.618069,-0.679587,-0.611091,0.221893,0.113739,-0.049939,0.827565,-0.417112,0.236585,0.291858,-45.639187,39.423952,21.706457
40192,NaN,-6.660274,-4.384520,5.199223,-1.029427,0.283430,-0.353559,0.189228,-0.117039,-0.071442,0.828241,-0.416210,0.236205,0.291537,-45.511612,39.342137,21.727981
40193,NaN,-6.827433,-4.077546,3.933813,-1.549983,-0.667324,-1.102503,-0.113038,0.061474,-0.010062,0.827988,-0.416747,0.236254,0.291448,-45.597261,39.357049,21.685901
40194,NaN,-8.245889,-5.275161,4.684158,-1.656772,-1.020405,0.863321,-0.272739,-0.142903,-0.109758,0.827787,-0.417763,0.235015,0.291566,-45.738195,39.249304,21.701297
40195,NaN,-7.938557,-5.700456,5.302542,-1.093653,-0.637760,1.234020,-0.211142,-0.643586,-0.110595,0.828299,-0.417794,0.231791,0.292647,-45.677579,38.940799,21.980066
40196,NaN,-6.366503,-5.741781,4.837516,-0.046771,-0.619427,0.011557,-0.199253,-0.739081,-0.155641,0.828999,-0.417681,0.228092,0.293729,-45.595363,38.575525,22.284855
40197,NaN,-8.201802,-5.201112,3.801559,-1.938753,-1.820385,0.271923,-0.019280,-1.155314,-0.261647,0.830687,-0.416322,0.222705,0.295022,-45.313872,37.998711,22.747627
40198,NaN,-5.621323,-4.898918,6.170507,-0.069833,0.951592,-0.181453,0.178197,-1.918985,-0.411470,0.833799,-0.413156,0.214109,0.297051,-44.738887,37.049474,23.515110
40199,NaN,-1.360904,-4.177933,5.819267,2.424782,2.282869,-3.325834,-0.060630,-1.321901,-0.360502,0.835645,-0.411787,0.207739,0.298285,-44.483475,36.359649,23.990854
40200,NaN,-3.420278,-4.947446,5.608316,1.347925,1.049134,-1.768370,-0.261061,-0.231810,-0.286661,0.835812,-0.412794,0.205770,0.297791,-44.646907,36.144350,23.958022
40201,NaN,-6.724718,-5.713689,5.811544,-0.603787,-0.240611,0.733375,-0.244572,-0.425895,-0.269412,0.836183,-0.413422,0.203050,0.297743,-44.738776,35.856731,24.030264
40202,NaN,-6.057308,-5.699101,5.818370,-0.181983,-0.028288,0.335698,-0.288425,-0.790848,-0.292374,0.836855,-0.413708,0.198687,0.298400,-44.756976,35.411528,24.273043
40203,NaN,-5.494694,-5.930441,5.626517,0.301729,-0.130418,0.031652,-0.320341,-0.675331,-0.341468,0.837406,-0.414341,0.194656,0.298633,-44.842731,34.993518,24.432617
40204,NaN,-6.768336,-6.052994,4.902487,-0.690640,-1.229770,0.409533,-0.253491,-0.678974,-0.303926,0.838028,-0.414645,0.190784,0.298965,-44.879380,34.589491,24.612944
40205,NaN,-7.845165,-5.924596,4.723841,-1.662477,-1.727204,0.827532,-0.172399,-0.987670,-0.286264,0.839070,-0.414122,0.185772,0.299923,-44.781691,34.066934,24.951047
40206,NaN,-8.060896,-5.843483,4.921517,-1.949228,-1.684471,0.990420,-0.178987,-1.395728,-0.314076,0.840482,-0.413024,0.178972,0.301612,-44.590524,33.366455,25.470342
40207,NaN,-7.346404,-5.855211,5.239496,-1.487320,-1.284850,0.762774,-0.174578,-1.690356,-0.306471,0.842105,-0.411431,0.170947,0.303910,-44.328456,32.546622,26.125277
40208,NaN,-6.552094,-5.777022,5.512775,-1.037194,-0.852951,0.428847,-0.170723,-1.848532,-0.303010,0.843794,-0.409545,0.162255,0.306526,-44.037453,31.660931,26.846456
40209,NaN,-5.668345,-5.812214,5.833415,-0.450526,-0.394037,0.166304,-0.184773,-1.907979,-0.269104,0.845376,-0.407561,0.153345,0.309384,-43.747758,30.760684,27.598599
40210,NaN,-4.792155,-5.874535,6.249881,0.144181,0.141513,0.010402,-0.186203,-1.886750,-0.242762,0.846817,-0.405559,0.144562,0.312289,-43.473360,29.876951,28.342519
40211,NaN,-4.145922,-6.041744,6.936177,0.623175,0.759668,0.228952,-0.160246,-1.776548,-0.215250,0.848118,-0.403564,0.136330,0.315035,-43.217378,29.046548,29.037842
40212,NaN,-3.583705,-6.101429,7.350920,0.971326,1.198013,0.273252,-0.136917,-1.583684,-0.144934,0.849159,-0.401696,0.129083,0.317659,-42.985692,28.322184,29.672425
40213,NaN,-3.761641,-5.886473,6.729691,0.626840,0.670707,-0.156314,-0.150178,-1.361102,-0.074609,0.849874,-0.400170,0.122895,0.320117,-42.802065,27.716276,30.234129
40214,NaN,-3.705751,-5.917467,6.798336,0.611097,0.669056,-0.109872,-0.157468,-1.177995,-0.047524,0.850381,-0.398935,0.117523,0.322322,-42.660534,27.196876,30.724553
40215,NaN,-3.439849,-5.877080,6.599992,0.736365,0.607506,-0.377605,-0.141494,-0.972544,-0.044673,0.850772,-0.397950,0.113052,0.324104,-42.555205,26.763970,31.122626
40216,NaN,-3.998875,-5.984925,6.713751,0.314925,0.338830,0.019423,-0.164377,-0.914270,-0.033356,0.851044,-0.397140,0.108813,0.325826,-42.475297,26.359793,31.498975
40217,NaN,-4.019533,-6.230906,6.742316,0.398397,0.187748,0.199566,-0.153039,-0.954334,-0.050707,0.851372,-0.396218,0.104384,0.327537,-42.388407,25.931167,31.881991
40218,NaN,-3.754974,-6.144009,6.352632,0.522119,0.017098,-0.224606,-0.122026,-0.936719,-0.042375,0.851717,-0.395179,0.100094,0.329232,-42.288532,25.512878,32.260087
40219,NaN,-3.798482,-6.145185,6.393049,0.437712,-0.019945,-0.175752,-0.103357,-0.855260,-0.017484,0.852001,-0.394174,0.096229,0.330849,-42.191311,25.137925,32.612252
40220,NaN,-3.872499,-6.220314,6.660656,0.359880,0.063096,0.082722,-0.101018,-0.774309,-0.003908,0.852212,-0.393279,0.092738,0.332363,-42.107018,24.802279,32.935492
40221,NaN,-3.818551,-6.269811,6.736238,0.384681,0.084703,0.142884,-0.116831,-0.676084,-0.001979,0.852334,-0.392610,0.089642,0.333690,-42.051084,24.508584,33.216139
40222,NaN,-3.628372,-6.547897,7.031490,0.638545,0.234564,0.435190,-0.113680,-0.550032,-0.014407,0.852417,-0.392139,0.087065,0.334712,-42.019129,24.263832,33.437013
40223,NaN,-3.377334,-6.611394,7.106770,0.832783,0.360816,0.424465,-0.033289,-0.417016,0.003445,0.852565,-0.391537,0.085223,0.335511,-41.961660,24.082148,33.609774
40224,NaN,-3.047887,-6.368509,6.964292,0.929092,0.516926,0.047253,0.046101,-0.236054,0.013358,0.852771,-0.390895,0.084303,0.335968,-41.888084,23.981359,33.711467
40225,NaN,-3.341331,-6.167615,6.873695,0.586418,0.383123,-0.016720,0.078653,-0.045211,0.045347,0.852908,-0.390422,0.084315,0.336170,-41.822579,23.973994,33.747499
40226,NaN,-4.192237,-6.046454,6.909588,-0.132922,0.027155,0.279807,0.093627,0.041889,0.091688,0.852957,-0.390010,0.084813,0.336398,-41.754299,24.021558,33.769376
40227,NaN,-4.890228,-6.051255,7.199341,-0.680588,-0.126207,0.764806,0.096236,-0.000181,0.115816,0.852989,-0.389507,0.085183,0.336805,-41.672897,24.060238,33.819609
40228,NaN,-5.318148,-6.088144,7.215540,-0.972438,-0.356949,0.973376,0.013141,-0.085785,0.153117,0.852832,-0.389198,0.085122,0.337575,-41.617238,24.076548,33.923308
40229,NaN,-4.942014,-6.468923,7.427559,-0.465406,-0.198051,1.195640,-0.090604,-0.194212,0.148445,0.852527,-0.389150,0.084414,0.338577,-41.603634,24.044439,34.069783
40230,NaN,-4.309602,-7.383090,8.515456,0.465353,0.476504,2.235219,-0.105397,-0.204056,0.140614,0.852209,-0.389151,0.083626,0.339571,-41.598365,24.005344,34.216450
40231,NaN,-3.697370,-8.163446,9.265681,1.342539,0.963795,2.971440,0.021391,-0.052290,0.199975,0.851972,-0.388844,0.083812,0.340469,-41.534896,24.053560,34.327977
40232,NaN,-3.193345,-8.276236,8.977796,1.869618,0.960457,2.632234,0.302127,0.291736,0.296884,0.851968,-0.387884,0.086130,0.340996,-41.349897,24.286162,34.342811
40233,NaN,-4.442184,-7.967329,8.819730,0.830261,0.341821,2.844008,0.565808,0.520449,0.356913,0.852265,-0.386161,0.089988,0.341214,-41.040978,24.639867,34.291945
40234,NaN,-4.369050,-7.077595,8.995565,0.394059,0.905136,2.399005,0.735829,0.481114,0.440899,0.852746,-0.383600,0.094128,0.341782,-40.610166,25.008275,34.299906
40235,NaN,-6.012185,-9.005346,11.739270,0.265624,1.116799,6.116345,0.467426,0.542347,0.344933,0.852831,-0.382326,0.097884,0.341943,-40.362554,25.367612,34.238812
40236,NaN,-6.001198,-8.559412,8.419247,0.410622,-1.100081,3.558215,1.049585,0.061036,0.411422,0.854130,-0.377703,0.100707,0.343016,-39.681811,25.540613,34.409849
40237,NaN,-2.562115,-6.309491,7.310970,1.689479,0.835320,-0.000950,1.555992,0.095724,0.373280,0.856392,-0.370980,0.104471,0.343588,-38.723522,25.713065,34.550823
40238,NaN,-2.386566,-4.189160,6.560003,0.579548,1.336346,-1.803000,1.638724,0.492459,0.391351,0.858508,-0.364547,0.110100,0.343434,-37.779984,26.068134,34.548096
40239,NaN,-5.073053,-3.180636,6.044773,-1.943040,0.043390,-1.529382,1.453729,0.360692,0.415092,0.860260,-0.358645,0.114884,0.343699,-36.911917,26.371600,34.614507
40240,NaN,-4.485107,-2.491399,5.464767,-1.871781,0.223901,-2.557853,1.126202,-0.278809,0.317032,0.861918,-0.353090,0.116171,0.344860,-36.143414,26.346165,34.878781
40241,NaN,-2.473959,-2.643749,5.904706,-0.278561,1.417516,-3.038602,0.654342,-0.437052,0.162655,0.863078,-0.349378,0.115688,0.345901,-35.655073,26.192972,35.121965
40242,NaN,-1.803795,-3.750913,6.208707,0.957035,1.359886,-2.525314,0.214822,-0.293224,0.038359,0.863595,-0.347877,0.114848,0.346403,-35.471413,26.064019,35.245812
40243,NaN,-0.845000,-4.806078,6.424769,2.365955,1.439956,-2.235165,0.091621,-0.025892,-0.055648,0.863904,-0.347426,0.114784,0.346106,-35.423709,26.028483,35.221698
40244,NaN,-0.049342,-5.382476,6.950626,3.334153,1.908293,-1.905323,0.150691,0.522300,-0.081556,0.864045,-0.347681,0.117146,0.344705,-35.437319,26.240098,34.980740
40245,NaN,0.790119,-5.532653,7.585465,4.091106,2.708550,-1.769095,0.282683,1.397702,-0.000623,0.863735,-0.348818,0.123654,0.342049,-35.504188,26.887136,34.456065
40246,NaN,-0.692881,-6.387844,9.616205,3.670194,2.965902,0.745946,0.339276,2.356941,0.014596,0.862826,-0.351306,0.134416,0.337709,-35.710797,27.984577,33.572002
40247,NaN,-4.162852,-6.602971,7.503352,1.462186,-0.204134,0.913206,0.550122,2.717354,0.113617,0.861730,-0.353370,0.147240,0.332974,-35.860360,29.280690,32.590061
40248,NaN,-5.928293,-5.952016,5.708057,-0.138205,-1.841154,0.174357,0.851753,2.481011,0.204350,0.861037,-0.353607,0.159679,0.328757,-35.792539,30.496155,31.734065
40249,NaN,-6.383947,-4.744855,4.087894,-1.235972,-2.473695,-1.307905,0.985873,1.927708,0.058860,0.861131,-0.352424,0.169679,0.324744,-35.594478,31.407880,31.009608
40250,NaN,-7.043468,-3.746233,3.456946,-2.369548,-2.619598,-1.868020,0.752282,1.198014,-0.140041,0.861688,-0.351200,0.175791,0.321325,-35.446485,31.914428,30.458522
40251,NaN,-7.668925,-4.120220,4.941832,-2.438022,-1.996042,-0.310994,0.324002,0.350410,-0.271720,0.862420,-0.350566,0.177328,0.319201,-35.409417,31.982820,30.166796
40252,NaN,-6.956464,-5.744419,6.677918,-0.697458,-1.344536,1.308955,0.098994,-0.255992,-0.357320,0.863429,-0.350007,0.175740,0.317964,-35.400429,31.739396,30.064860
40253,NaN,-4.925779,-7.017824,6.524549,1.592038,-1.330931,0.759752,0.273976,-0.415542,-0.503486,0.865106,-0.348565,0.173484,0.316222,-35.300200,31.373347,29.945346
40254,NaN,-2.828349,-7.210529,6.226990,3.208809,-0.823727,-0.442996,0.747639,-0.171649,-0.592272,0.867524,-0.345531,0.172874,0.313250,-35.002685,31.092354,29.681383
40255,NaN,-1.507743,-6.455104,6.609204,3.722031,0.343403,-1.230673,1.182153,0.349804,-0.647306,0.870293,-0.341463,0.175105,0.308756,-34.574568,31.040440,29.187216
40256,NaN,-1.467566,-5.359648,7.151286,3.130530,1.284772,-1.412169,1.304948,0.940272,-0.707181,0.872795,-0.337804,0.179979,0.302860,-34.209959,31.250773,28.435150
40257,NaN,-2.178378,-4.808187,7.584824,2.368021,1.562181,-1.018106,1.257136,1.313026,-0.732971,0.874841,-0.334911,0.186351,0.296245,-33.956997,31.633656,27.528150
40258,NaN,-3.044891,-4.341367,6.807562,1.404201,0.930145,-1.349582,1.162968,1.425478,-0.737296,0.876549,-0.332568,0.193047,0.289471,-33.788718,32.070842,26.572819
40259,NaN,-4.036795,-4.167162,6.513377,0.570578,0.452672,-1.120492,0.972061,1.306916,-0.815990,0.878084,-0.330936,0.198801,0.282717,-33.736576,32.428708,25.615933
40260,NaN,-4.588342,-4.310463,6.111518,0.215620,-0.106379,-1.041954,0.787602,1.003483,-0.939547,0.879729,-0.329782,0.202740,0.276074,-33.771643,32.602067,24.699717
40261,NaN,-4.325662,-4.733931,6.060771,0.674915,-0.310612,-1.020509,0.698163,0.720609,-1.107270,0.881688,-0.328782,0.205026,0.269245,-33.852604,32.587243,23.796090
40262,NaN,-3.900317,-4.932601,5.763630,1.047858,-0.504817,-1.362272,0.686052,0.575890,-1.265116,0.883941,-0.327783,0.206383,0.261941,-33.957901,32.451174,22.857336
40263,NaN,-3.687663,-5.015480,5.931565,1.258478,-0.389727,-1.315539,0.722092,0.487426,-1.410738,0.886472,-0.326637,0.207147,0.254098,-34.064272,32.225696,21.874207
40264,NaN,-3.509570,-4.818726,5.677937,1.182726,-0.401800,-1.675393,0.776223,0.364118,-1.579599,0.889371,-0.325245,0.207139,0.245619,-34.159469,31.885181,20.845214
40265,NaN,-3.354289,-4.453410,5.218807,0.937281,-0.450793,-2.247117,0.782050,0.190230,-1.771434,0.892611,-0.323783,0.206037,0.236555,-34.263290,31.399778,19.782160
40266,NaN,-3.232462,-3.965790,4.815305,0.597372,-0.382483,-2.822721,0.710222,-0.029549,-1.983452,0.896124,-0.322567,0.203501,0.226936,-34.413369,30.738980,18.690954
40267,NaN,-3.013447,-3.660312,4.567089,0.461801,-0.297424,-3.252624,0.562051,-0.253460,-2.179623,0.899735,-0.321921,0.199456,0.216936,-34.641728,29.906580,17.589336
40268,NaN,-2.495948,-3.544761,4.869596,0.790066,0.106322,-3.341865,0.365003,-0.343612,-2.332263,0.903165,-0.322173,0.194516,0.206546,-34.985655,28.976187,16.451648
40269,NaN,-2.598923,-3.985187,5.761618,1.002195,0.358106,-2.416848,0.086366,-0.235778,-2.400782,0.905977,-0.323813,0.189639,0.195929,-35.500899,28.067118,15.256873
40270,NaN,-3.277852,-4.756168,5.914618,0.691525,-0.225559,-1.577569,-0.171735,-0.124900,-2.397695,0.908134,-0.326681,0.184986,0.185345,-36.157548,27.198921,14.039947
40271,NaN,-3.917823,-5.484454,6.038172,0.342759,-0.755466,-0.801736,-0.311139,-0.106060,-2.385543,0.909897,-0.330140,0.180285,0.174905,-36.868017,26.331750,12.845378
40272,NaN,-4.648454,-6.101055,6.069659,-0.196379,-1.257970,-0.114884,-0.336130,-0.139124,-2.344587,0.911486,-0.333600,0.175451,0.164684,-37.553393,25.449734,11.702804
40273,NaN,-5.425553,-6.410478,6.087133,-0.949682,-1.536700,0.400857,-0.300385,-0.291822,-2.379196,0.913162,-0.336753,0.169870,0.154524,-38.174844,24.475860,10.624432
40274,NaN,-5.518715,-6.408059,6.052634,-1.262623,-1.503253,0.399808,-0.179315,-0.546256,-2.434916,0.915164,-0.339154,0.163099,0.144391,-38.672765,23.357455,9.634814
40275,NaN,-4.557410,-6.105967,6.145555,-0.716555,-1.024917,-0.104322,-0.062727,-0.746591,-2.464559,0.917396,-0.340844,0.155421,0.134365,-39.053039,22.133115,8.729302
40276,NaN,-3.625697,-5.717268,6.483133,-0.161015,-0.350667,-0.447286,-0.110341,-0.786558,-2.601208,0.919510,-0.342775,0.147266,0.123772,-39.454831,20.834917,7.788806
40277,NaN,-2.352021,-5.639127,6.583765,0.799476,-0.035092,-0.866521,-0.190716,-0.659570,-2.577531,0.921208,-0.345071,0.139660,0.113127,-39.889516,19.595956,6.830400
40278,NaN,-1.850109,-5.757975,6.907021,1.177643,0.182238,-0.709858,-0.281179,-0.262628,-2.498150,0.922272,-0.347897,0.133943,0.102186,-40.391777,18.551916,5.768669
40279,NaN,-2.586540,-5.879790,7.057276,0.387224,0.176224,-0.279368,-0.357780,0.142437,-2.379720,0.922727,-0.351147,0.130241,0.091143,-40.948407,17.719875,4.620460
40280,NaN,-3.838441,-6.100212,7.151021,-0.866468,0.067934,0.302919,-0.451323,0.305501,-2.264794,0.922731,-0.354782,0.127431,0.080370,-41.544098,16.989538,3.470915
40281,NaN,-4.879716,-6.578978,7.094899,-1.895908,-0.262700,0.853400,-0.594313,0.210081,-2.125679,0.922364,-0.358900,0.124355,0.070511,-42.174785,16.261031,2.436556
40282,NaN,-5.623365,-7.084703,6.945030,-2.678629,-0.628163,1.254163,-0.659365,-0.020978,-1.973018,0.921863,-0.363104,0.120451,0.061778,-42.783359,15.482330,1.571496
40283,NaN,-5.615987,-7.352883,6.665918,-2.837692,-0.884418,1.196399,-0.617078,-0.349557,-1.867287,0.921507,-0.366905,0.115223,0.054122,-43.305480,14.600206,0.899699
40284,NaN,-5.049038,-7.385614,6.422949,-2.507647,-0.959963,0.868177,-0.547908,-0.613999,-1.753219,0.921309,-0.370219,0.108996,0.047408,-43.737590,13.647093,0.392125
40285,NaN,-4.369753,-7.221206,6.211617,-2.093237,-0.901292,0.416075,-0.456763,-0.783426,-1.652526,0.921264,-0.372980,0.102184,0.041441,-44.080996,12.661527,0.007693
40286,NaN,-3.786076,-7.052457,6.511956,-1.681492,-0.506756,0.355397,-0.398710,-0.860787,-1.571966,0.921268,-0.375389,0.095173,0.035936,-44.370151,11.673747,-0.306627
40287,NaN,-3.000850,-7.236242,7.365553,-0.934809,0.013079,0.899123,-0.433953,-0.782411,-1.477459,0.921079,-0.377894,0.088683,0.030753,-44.671030,10.754991,-0.605024
40288,NaN,-2.457718,-7.657795,8.190979,-0.392843,0.350463,1.654440,-0.458934,-0.487335,-1.353262,0.920629,-0.380484,0.083780,0.025572,-44.994253,10.004215,-0.969879
40289,NaN,-2.373454,-7.933212,8.680027,-0.341469,0.565634,2.165380,-0.410217,-0.146884,-1.179478,0.920065,-0.382798,0.080774,0.020543,-45.295596,9.460179,-1.396400
40290,NaN,-2.642383,-7.851401,8.605626,-0.712483,0.641867,2.093746,-0.343025,0.155602,-1.001660,0.919455,-0.384753,0.079507,0.015706,-45.563782,9.107791,-1.874530
40291,NaN,-3.080750,-7.559347,8.326597,-1.259262,0.725850,1.756839,-0.319944,0.368112,-0.852036,0.918770,-0.386544,0.079501,0.011158,-45.819779,8.900134,-2.375983
40292,NaN,-3.364875,-7.474251,8.077104,-1.608411,0.683725,1.561475,-0.338961,0.434590,-0.752601,0.917994,-0.388382,0.079994,0.006928,-46.083658,8.757254,-2.865976
40293,NaN,-3.411532,-7.407900,7.580834,-1.749393,0.441532,1.174983,-0.334228,0.404388,-0.685473,0.917219,-0.390158,0.080473,0.003080,-46.336991,8.628399,-3.313454
40294,NaN,-3.240036,-7.216285,7.017123,-1.696402,0.217459,0.622220,-0.283854,0.297484,-0.630210,0.916568,-0.391676,0.080574,-0.000344,-46.550864,8.478192,-3.695439
40295,NaN,-2.808442,-6.992574,6.686448,-1.358168,0.153664,0.168474,-0.266760,0.193662,-0.570703,0.915983,-0.393084,0.080309,-0.003281,-46.743421,8.310900,-4.007186
40296,NaN,-2.666907,-6.897577,6.481345,-1.279611,0.102605,-0.063396,-0.280644,0.140150,-0.493369,0.915382,-0.394525,0.079957,-0.005770,-46.935859,8.153741,-4.267112
40297,NaN,-3.012843,-6.968790,6.292737,-1.670644,-0.018296,-0.094240,-0.288174,0.047313,-0.426443,0.914800,-0.395970,0.079306,-0.007750,-47.122057,7.987720,-4.458601
40298,NaN,-3.076291,-7.095667,6.425414,-1.735726,0.032384,0.091051,-0.298285,-0.107174,-0.357262,0.914254,-0.397440,0.078091,-0.009118,-47.301102,7.789990,-4.558546
40299,NaN,-2.920152,-7.391552,6.778215,-1.548489,0.109944,0.516707,-0.343199,-0.223720,-0.280009,0.913664,-0.399085,0.076492,-0.009868,-47.494294,7.579392,-4.576126
40300,NaN,-2.481619,-7.961492,7.354447,-1.040042,0.150339,1.256507,-0.461857,-0.268881,-0.203194,0.912851,-0.401245,0.074853,-0.010149,-47.749419,7.383846,-4.545719
40301,NaN,-2.432393,-8.609515,7.580016,-0.956365,-0.071836,1.873920,-0.540292,-0.132994,-0.099528,0.911829,-0.403712,0.074039,-0.010183,-48.051232,7.284681,-4.530410
40302,NaN,-2.735485,-9.066222,7.385990,-1.274013,-0.444144,2.120943,-0.411504,-0.052912,-0.015953,0.911034,-0.405557,0.073759,-0.010061,-48.280032,7.251987,-4.518971
40303,NaN,-2.464372,-9.083516,7.270427,-1.021690,-0.524483,2.024689,-0.265054,-0.020107,0.032128,0.910525,-0.406711,0.073711,-0.009825,-48.423839,7.252294,-4.501066
40304,NaN,-1.971135,-8.768518,7.135952,-0.560996,-0.432521,1.641233,-0.098925,0.031034,0.067318,0.910335,-0.407096,0.073966,-0.009607,-48.474026,7.287372,-4.493501
40305,NaN,-1.411149,-8.288929,6.915819,-0.048574,-0.315725,1.069600,0.019389,0.105364,0.087659,0.910361,-0.406928,0.074588,-0.009478,-48.459041,7.359198,-4.508580
40306,NaN,-0.887741,-7.831224,6.516199,0.409089,-0.352405,0.399335,0.071905,0.236629,0.099223,0.910442,-0.406513,0.075835,-0.009596,-48.421242,7.486120,-4.577587
40307,NaN,-0.559155,-7.678941,6.764806,0.791881,-0.102352,0.405126,0.071497,0.400918,0.132394,0.910460,-0.406075,0.077891,-0.009884,-48.391065,7.689546,-4.703196
40308,NaN,-0.521537,-7.986694,7.400152,0.983580,0.147621,1.042359,0.049431,0.593018,0.163930,0.910352,-0.405717,0.080893,-0.010424,-48.384304,7.979797,-4.901613
40309,NaN,-0.977118,-8.558098,7.590571,0.654711,-0.064584,1.649393,0.028237,0.759715,0.199380,0.910127,-0.405424,0.084718,-0.011118,-48.398577,8.348463,-5.156879
40310,NaN,-1.907335,-9.273901,7.523963,-0.156946,-0.519555,2.268618,0.087360,0.880207,0.250689,0.909954,-0.404828,0.089198,-0.011861,-48.386163,8.785065,-5.446648
40311,NaN,-2.881151,-9.971876,7.521194,-0.986022,-0.920883,2.934332,0.283079,0.910227,0.329056,0.910151,-0.403294,0.093952,-0.012382,-48.260624,9.266867,-5.717248
40312,NaN,-3.489352,-10.474980,7.577011,-1.442317,-1.212014,3.444808,0.567953,0.900445,0.441119,0.910904,-0.400402,0.098874,-0.012520,-47.966690,9.793845,-5.940537
40313,NaN,-3.790633,-10.481012,7.499471,-1.639800,-1.338569,3.453039,0.914571,0.877778,0.581408,0.912336,-0.395844,0.103941,-0.012131,-47.463744,10.372912,-6.093991
40314,NaN,-4.103202,-9.923714,7.616646,-1.836359,-0.981625,3.186941,1.237945,0.850311,0.735826,0.914375,-0.389713,0.109171,-0.011165,-46.763240,11.007878,-6.170462
40315,NaN,-4.428127,-8.931724,7.605962,-2.093288,-0.437152,2.542779,1.400680,0.833820,0.904046,0.916680,-0.382712,0.114627,-0.009472,-45.953199,11.706750,-6.161817
40316,NaN,-4.868005,-7.946869,7.006495,-2.591373,-0.288701,1.551237,1.371264,0.795736,1.048992,0.918873,-0.375736,0.120187,-0.007039,-45.142882,12.449806,-6.069726
40317,NaN,-5.315935,-7.449183,6.282454,-3.102821,-0.547385,0.831005,1.293913,0.688687,1.157975,0.920911,-0.369015,0.125442,-0.003842,-44.352480,13.191530,-5.874887
40318,NaN,-5.901356,-6.989748,5.538249,-3.769206,-0.821119,0.160796,1.336884,0.446118,1.260454,0.923097,-0.362010,0.129770,0.000230,-43.500126,13.871641,-5.528559
40319,NaN,-5.899175,-6.096085,4.726286,-3.955278,-0.869855,-0.986779,1.343257,0.067095,1.331759,0.925462,-0.354890,0.132454,0.005330,-42.591688,14.415092,-4.984272
40320,NaN,-5.753390,-5.885642,5.333953,-3.620610,-0.492221,-0.711068,1.186539,-0.257993,1.429345,0.927676,-0.348397,0.133805,0.011544,-41.723813,14.850598,-4.260961
40321,NaN,-5.846405,-6.062283,5.777393,-3.517377,-0.505435,-0.237744,1.036473,-0.386188,1.611580,0.929623,-0.342433,0.134844,0.018944,-40.899081,15.288593,-3.395322
40322,NaN,-6.359922,-5.899893,5.943935,-3.914546,-0.430281,-0.062042,0.991752,-0.385531,1.857527,0.931367,-0.336482,0.136306,0.027491,-40.062382,15.807313,-2.413649
40323,NaN,-7.145051,-5.565211,5.950708,-4.624864,-0.340558,-0.018600,0.945292,-0.461355,2.078852,0.932944,-0.330537,0.137746,0.037247,-39.202986,16.358247,-1.287575
40324,NaN,-7.242868,-5.308688,6.539231,-4.532907,0.008061,0.328831,0.837641,-0.689206,2.241761,0.934330,-0.324898,0.138374,0.048186,-38.347484,16.851096,0.007676
40325,NaN,-6.479393,-5.203976,7.047101,-3.625242,0.183016,0.460835,0.713390,-0.850194,2.334277,0.935458,-0.319679,0.138327,0.059920,-37.518344,17.283943,1.420139
40326,NaN,-5.554646,-5.023161,7.346671,-2.640037,0.330038,0.335104,0.623965,-0.905078,2.370570,0.936309,-0.314788,0.138054,0.071940,-36.717869,17.686873,2.875887
40327,NaN,-4.925200,-4.853029,7.522006,-1.974719,0.424556,0.202683,0.546480,-0.906246,2.350395,0.936893,-0.310215,0.137670,0.083932,-35.951210,18.061489,4.334569
40328,NaN,-4.252406,-4.553101,7.569217,-1.338057,0.586001,-0.118826,0.505028,-0.875912,2.313914,0.937262,-0.305813,0.137374,0.095644,-35.206006,18.421766,5.762801
40329,NaN,-3.459886,-4.005419,7.078657,-0.774302,0.674854,-1.034005,0.464299,-0.778370,2.305690,0.937355,-0.301617,0.137439,0.107258,-34.484631,18.805671,7.171126
40330,NaN,-2.844209,-3.311663,6.556378,-0.438158,0.889750,-1.998710,0.361287,-0.613117,2.313205,0.937033,-0.297947,0.138241,0.118687,-33.828136,19.256472,8.531308
40331,NaN,-2.399791,-2.778997,6.136198,-0.210879,1.055706,-2.743370,0.191784,-0.428126,2.316554,0.936198,-0.295131,0.139767,0.129982,-33.273835,19.780816,9.844012
40332,NaN,-2.126538,-2.572636,5.800626,-0.031510,1.020980,-3.198753,-0.051300,-0.246419,2.326452,0.934742,-0.293527,0.142009,0.141181,-32.863427,20.387318,11.106665
40333,NaN,-1.942380,-2.635848,5.707904,0.201393,0.929059,-3.301414,-0.286480,-0.124330,2.316096,0.932737,-0.293073,0.144593,0.152327,-32.586752,21.040068,12.336538
40334,NaN,-2.097497,-2.840988,5.553556,0.172016,0.643392,-3.265263,-0.483103,-0.042552,2.305864,0.930276,-0.293551,0.147418,0.163350,-32.417780,21.726778,13.532402
40335,NaN,-2.579537,-3.123010,5.810345,-0.037021,0.479149,-2.746154,-0.625703,-0.035249,2.260756,0.927500,-0.294705,0.150030,0.174312,-32.324537,22.398540,14.719612
40336,NaN,-3.130900,-3.544689,6.288387,-0.201031,0.323935,-1.953591,-0.744223,-0.180459,2.135332,0.924658,-0.296322,0.151704,0.184896,-32.291359,22.962390,15.885398
40337,NaN,-3.020328,-3.952754,6.802566,0.218635,0.370983,-1.396281,-0.820079,-0.419939,1.936441,0.921946,-0.298198,0.151845,0.195028,-32.301315,23.347108,17.040276
40338,NaN,-2.343441,-4.216883,7.290255,1.043176,0.682448,-1.160084,-0.865622,-0.631841,1.731569,0.919428,-0.300203,0.150670,0.204521,-32.346105,23.569210,18.156751
40339,NaN,-1.505319,-4.291939,7.551128,1.854627,1.073474,-1.262015,-0.935592,-0.671263,1.568178,0.916912,-0.302581,0.148956,0.213378,-32.455981,23.721215,19.204900
40340,NaN,-1.008959,-4.436203,7.692541,2.367792,1.270721,-1.289106,-0.989316,-0.572190,1.428349,0.914309,-0.305388,0.147437,0.221450,-32.636994,23.882471,20.144190
40341,NaN,-0.931363,-4.672972,7.816578,2.562835,1.283327,-1.118592,-1.052541,-0.392463,1.333040,0.911511,-0.308730,0.146489,0.228857,-32.896268,24.102007,20.975430
40342,NaN,-1.442744,-4.962124,7.266000,2.210428,0.652393,-1.199518,-1.059274,-0.236730,1.253891,0.908614,-0.312315,0.146132,0.235637,-33.194879,24.377133,21.709795
40343,NaN,-2.043045,-5.009822,6.226973,1.621306,-0.164493,-1.726195,-1.035608,-0.198104,1.128790,0.905816,-0.315911,0.145753,0.241770,-33.509782,24.633100,22.367168
40344,NaN,-2.547850,-4.977233,5.781426,1.146411,-0.535121,-1.869872,-1.039969,-0.290757,0.968803,0.903224,-0.319513,0.144708,0.247301,-33.846662,24.799141,22.970134
40345,NaN,-2.553805,-5.326274,5.934525,1.345112,-0.611294,-1.570942,-1.069382,-0.521383,0.756837,0.900967,-0.323101,0.142219,0.252266,-34.212382,24.789389,23.545284
40346,NaN,-2.167337,-5.987860,6.861181,2.086780,-0.245071,-0.690601,-1.003295,-0.762363,0.552021,0.899204,-0.326216,0.138408,0.256629,-34.549766,24.604168,24.097554
40347,NaN,-1.435667,-6.461936,7.574812,2.960076,0.237657,-0.201421,-0.824777,-0.890898,0.398733,0.897978,-0.328457,0.133975,0.260387,-34.800984,24.309456,24.618193
40348,NaN,-0.792706,-6.443158,8.272126,3.466412,0.998363,0.064430,-0.692279,-0.795134,0.319942,0.896978,-0.330268,0.130026,0.263527,-35.009121,24.037176,25.062321
40349,NaN,-1.083682,-6.523441,8.516574,3.227149,1.041998,0.422595,-0.686560,-0.509099,0.282272,0.895828,-0.332448,0.127285,0.266025,-35.265223,23.886783,25.386035
40350,NaN,-1.900795,-6.666918,8.237349,2.577633,0.499364,0.628615,-0.701169,-0.259371,0.250523,0.894522,-0.335037,0.125602,0.267963,-35.572942,23.844983,25.602135
40351,NaN,-2.628890,-6.882023,8.202328,2.070718,0.110751,1.015564,-0.645536,-0.114042,0.229847,0.893233,-0.337584,0.124595,0.269534,-35.874752,23.863850,25.756079
40352,NaN,-3.122109,-6.911545,8.130244,1.659683,-0.098226,1.180649,-0.558153,-0.100902,0.189257,0.892130,-0.339777,0.123705,0.270837,-36.136579,23.876699,25.883224
40353,NaN,-3.247522,-6.818552,7.824302,1.472404,-0.253722,0.958861,-0.483581,-0.174196,0.129236,0.891272,-0.341576,0.122475,0.271956,-36.357217,23.834971,26.008424
40354,NaN,-3.017546,-6.680874,7.520010,1.546870,-0.248438,0.571701,-0.479943,-0.252407,0.076637,0.890535,-0.343279,0.120820,0.272965,-36.574519,23.740509,26.135445
40355,NaN,-2.722606,-6.780335,7.335450,1.809822,-0.285085,0.377379,-0.476442,-0.251809,0.050712,0.889831,-0.344983,0.119118,0.273859,-36.795500,23.637118,26.250441
40356,NaN,-2.608590,-7.011830,7.306712,2.007487,-0.370170,0.443598,-0.407450,-0.165716,0.050862,0.889191,-0.346494,0.117902,0.274555,-36.989729,23.574312,26.332427
40357,NaN,-3.018012,-6.912574,7.312002,1.598776,-0.447206,0.560418,-0.271715,-0.060111,0.089479,0.888666,-0.347524,0.117399,0.275166,-37.114517,23.572639,26.395177
40358,NaN,-3.575981,-6.631522,7.676841,0.983163,-0.236527,0.896002,-0.170324,0.005220,0.119744,0.888238,-0.348175,0.117387,0.275730,-37.185021,23.611943,26.447128
40359,NaN,-4.082937,-6.484440,8.280507,0.495851,0.072313,1.458250,-0.136341,0.016443,0.126309,0.887851,-0.348687,0.117475,0.276291,-37.236423,23.658124,26.499302
40360,NaN,-4.339614,-6.276738,8.177829,0.168052,0.032629,1.371107,-0.106023,-0.026970,0.124213,0.887547,-0.349005,0.117416,0.276893,-37.264272,23.684346,26.565603
40361,NaN,-4.291234,-6.034344,8.133398,0.067422,0.173842,1.184829,-0.112488,-0.073312,0.098191,0.887292,-0.349303,0.117088,0.277472,-37.293945,23.679907,26.637751
40362,NaN,-4.068927,-5.957527,8.060023,0.198341,0.265377,0.999459,-0.125425,-0.098770,0.057354,0.887087,-0.349645,0.116565,0.277916,-37.335240,23.650166,26.698369
40363,NaN,-3.685543,-5.782826,7.610624,0.396922,0.221556,0.421533,-0.070536,-0.114967,0.015669,0.887044,-0.349747,0.115967,0.278177,-37.351064,23.598145,26.745264
40364,NaN,-2.643226,-5.480762,7.502815,1.065724,0.756650,-0.241410,-0.014653,-0.057057,-0.077364,0.887195,-0.349734,0.115548,0.277885,-37.362106,23.540623,26.722968
40365,NaN,-2.447349,-5.438574,7.349787,1.196153,0.761190,-0.454441,-0.051825,0.152637,-0.097712,0.887186,-0.350190,0.115965,0.277164,-37.430346,23.571000,26.612007
40366,NaN,-2.967779,-5.609354,6.904084,0.866722,0.153002,-0.476506,-0.075031,0.272552,-0.072051,0.887032,-0.350899,0.116933,0.276352,-37.525186,23.665055,26.466902
40367,NaN,-3.241786,-5.854837,7.133786,0.795079,0.068447,-0.063722,-0.043179,0.265831,-0.033990,0.886882,-0.351435,0.117975,0.275709,-37.593505,23.768810,26.344140
40368,NaN,-3.291057,-5.959719,7.588331,0.835868,0.313854,0.342845,-0.012537,0.278749,0.008421,0.886720,-0.351827,0.119197,0.275205,-37.638052,23.893473,26.236103
40369,NaN,-3.609076,-5.940881,7.811795,0.588874,0.369473,0.620924,-0.040636,0.353297,0.051889,0.886400,-0.352420,0.120781,0.274786,-37.701918,24.066749,26.121982
40370,NaN,-4.643914,-5.992041,7.394309,-0.213943,-0.337863,0.769667,-0.137765,0.372629,0.113117,0.885811,-0.353430,0.122429,0.274657,-37.812438,24.270276,26.029569
40371,NaN,-5.431039,-6.253433,7.248625,-0.690606,-0.877775,1.137045,-0.208258,0.238734,0.150987,0.885124,-0.354545,0.123449,0.274980,-37.934909,24.426223,26.007869
40372,NaN,-5.706889,-6.375015,6.833628,-0.842027,-1.327909,1.024079,-0.136243,0.022486,0.178353,0.884659,-0.355026,0.123663,0.275757,-37.975954,24.494256,26.082343
40373,NaN,-4.185418,-6.036596,7.219060,0.216996,-0.251712,0.481125,0.015982,-0.230968,0.084925,0.884747,-0.354543,0.122797,0.276482,-37.908398,24.414670,26.209408
40374,NaN,-2.495504,-5.968755,8.141069,1.572916,1.096493,0.407597,0.059793,-0.068239,-0.007731,0.884942,-0.354147,0.122551,0.276475,-37.860894,24.376239,26.226531
40375,NaN,-2.432946,-5.803489,7.629882,1.523826,0.861149,-0.078666,0.067410,0.187046,0.001763,0.884979,-0.354064,0.123457,0.276059,-37.847820,24.456344,26.150697
40376,NaN,-3.122155,-5.485993,6.930584,0.778995,0.294365,-0.475481,0.060245,0.326069,-0.005410,0.884928,-0.354208,0.124959,0.275363,-37.862801,24.596896,26.016626
40377,NaN,-3.617384,-5.474363,6.855409,0.385756,0.065268,-0.331251,0.015136,0.369558,-0.019114,0.884783,-0.354619,0.126564,0.274563,-37.913915,24.752142,25.859522
40378,NaN,-4.251252,-5.453672,6.526538,-0.134403,-0.382757,-0.312859,-0.024390,0.388700,-0.014943,0.884550,-0.355228,0.128209,0.273764,-37.990614,24.917407,25.695512
40379,NaN,-4.836402,-5.405796,6.329293,-0.631749,-0.700113,-0.232289,-0.079671,0.273951,-0.007279,0.884277,-0.355918,0.129281,0.273245,-38.078935,25.033320,25.580714
40380,NaN,-4.752448,-5.462762,6.198251,-0.529260,-0.774002,-0.327613,-0.123934,0.139456,-0.029089,0.884043,-0.356634,0.129662,0.272890,-38.175291,25.080855,25.506328
40381,NaN,-4.383684,-5.611337,6.385955,-0.138126,-0.571799,-0.266057,-0.144662,0.063661,-0.037518,0.883829,-0.357343,0.129661,0.272653,-38.272745,25.091049,25.458290
40382,NaN,-4.262125,-6.140241,7.505952,0.303642,-0.034046,0.775711,-0.170203,0.166941,0.024900,0.883419,-0.358265,0.130197,0.272518,-38.388945,25.169949,25.399848
40383,NaN,-5.006443,-6.492801,7.596977,-0.087517,-0.444329,1.355563,-0.113447,0.246440,0.096216,0.882958,-0.358997,0.131285,0.272525,-38.471063,25.309650,25.346107
40384,NaN,-5.156932,-6.118525,7.312206,-0.418835,-0.468024,1.008781,0.046037,0.114872,0.102314,0.882862,-0.358842,0.132023,0.272684,-38.438457,25.392527,25.346548
40385,NaN,-4.370589,-5.710598,7.578357,0.012820,0.265574,0.631151,0.074906,0.080979,0.076838,0.882873,-0.358530,0.132602,0.272778,-38.388965,25.451062,25.348357
40386,NaN,-3.685762,-5.701991,7.708939,0.587211,0.627809,0.423830,0.061077,0.171228,0.069017,0.882811,-0.358407,0.133550,0.272678,-38.364442,25.547447,25.309992
40387,NaN,-3.189124,-5.679633,7.732073,1.003669,0.856104,0.210952,0.071248,0.342718,0.067573,0.882652,-0.358473,0.135263,0.272263,-38.363673,25.720271,25.204006
40388,NaN,-2.777705,-5.576834,7.723134,1.317004,1.083029,-0.037420,0.113808,0.568422,0.091462,0.882379,-0.358639,0.138074,0.271514,-38.372677,26.003014,25.019892
40389,NaN,-2.616341,-5.393496,7.505435,1.386016,1.121293,-0.374051,0.135556,0.808907,0.108727,0.881944,-0.359021,0.142002,0.270396,-38.408806,26.399794,24.749027
40390,NaN,-3.141958,-5.228793,7.265564,0.916433,0.883140,-0.411610,0.137239,0.972856,0.122492,0.881361,-0.359598,0.146679,0.269031,-38.472704,26.874705,24.417485
40391,NaN,-4.072831,-5.171796,6.929737,0.178177,0.375298,-0.263685,0.108291,1.023242,0.149897,0.880627,-0.360343,0.151583,0.267717,-38.559547,27.381729,24.078247
40392,NaN,-5.083070,-5.221295,6.852694,-0.546491,-0.027590,0.175251,0.058191,0.938911,0.161076,0.879832,-0.361177,0.156067,0.266627,-38.660592,27.854259,23.775160
40393,NaN,-5.844545,-5.359972,6.712145,-1.029611,-0.435518,0.516430,0.031018,0.765818,0.166907,0.879096,-0.361889,0.159759,0.265900,-38.745594,28.251285,23.544296
40394,NaN,-6.227291,-5.407687,6.692886,-1.260087,-0.574609,0.718158,0.024754,0.543901,0.172219,0.878512,-0.362324,0.162476,0.265593,-38.791817,28.550620,23.404427
40395,NaN,-6.198431,-5.462101,6.871859,-1.150412,-0.444779,0.862338,0.030142,0.291819,0.141355,0.878176,-0.362425,0.164035,0.265608,-38.793664,28.726479,23.352442
40396,NaN,-5.715848,-5.382872,7.059667,-0.770292,-0.087186,0.717468,0.018517,0.044523,0.101971,0.878075,-0.362280,0.164422,0.265901,-38.763338,28.777578,23.380755
40397,NaN,-5.153186,-5.421198,7.353756,-0.261857,0.292771,0.669113,0.029194,-0.101155,0.074392,0.878147,-0.361917,0.164133,0.266334,-38.704850,28.753841,23.455486
40398,NaN,-4.473818,-5.332550,7.287935,0.226561,0.525520,0.249003,0.032101,-0.076759,0.078692,0.878201,-0.361570,0.163962,0.266735,-38.648530,28.742212,23.521775
40399,NaN,-3.689974,-5.129993,6.967894,0.711168,0.686499,-0.458157,-0.023088,0.045435,0.079549,0.878051,-0.361628,0.164256,0.266968,-38.647547,28.785819,23.539259
40400,NaN,-3.173008,-5.182128,6.924285,1.166360,0.817548,-0.711078,-0.108057,0.317150,0.100053,0.877498,-0.362402,0.165669,0.266864,-38.743805,28.958230,23.455264
40401,NaN,-3.493015,-5.396817,6.645456,1.039865,0.409173,-0.634462,-0.163682,0.650943,0.173828,0.876460,-0.363804,0.168602,0.266529,-38.921116,29.306011,23.271777
40402,NaN,-4.392838,-5.712161,6.546288,0.545804,-0.111404,-0.093180,-0.132064,0.845860,0.228426,0.875232,-0.365273,0.172528,0.266044,-39.108302,29.759532,23.033006
40403,NaN,-5.607170,-5.941249,6.883771,-0.187077,-0.358889,0.862547,-0.034980,0.848186,0.261696,0.874115,-0.366287,0.176651,0.265615,-39.234915,30.225771,22.808220
40404,NaN,-6.498135,-5.618985,6.166564,-1.105650,-0.950070,0.661079,0.039266,0.627897,0.259952,0.873320,-0.366678,0.179904,0.265508,-39.274718,30.593250,22.672905
40405,NaN,-6.703397,-5.310677,6.178624,-1.403418,-0.801890,0.613311,0.006032,0.332700,0.230054,0.872760,-0.366848,0.181768,0.265844,-39.278885,30.819022,22.646623
40406,NaN,-6.301499,-5.369644,6.553971,-0.973651,-0.414855,0.693327,-0.038929,0.136087,0.209916,0.872323,-0.366968,0.182678,0.266489,-39.271493,30.950278,22.692529
40407,NaN,-5.782053,-5.513784,6.736222,-0.433774,-0.187464,0.627011,-0.057296,0.059175,0.208417,0.871921,-0.367069,0.183223,0.267289,-39.258244,31.046873,22.770738
40408,NaN,-5.420028,-5.657548,6.970456,-0.013745,0.025028,0.674016,-0.027783,0.081535,0.219483,0.871539,-0.367059,0.183928,0.268066,-39.229702,31.157444,22.844967
40409,NaN,-5.041909,-5.710762,7.198996,0.369833,0.292566,0.658069,0.022768,0.171151,0.249317,0.871124,-0.366922,0.185143,0.268764,-39.183723,31.318499,22.897294
40410,NaN,-4.786322,-5.694756,7.273370,0.608422,0.449912,0.563644,0.073060,0.351475,0.291727,0.870575,-0.366766,0.187290,0.269267,-39.136830,31.575032,22.895234
40411,NaN,-4.764590,-5.733956,7.449233,0.726263,0.579735,0.685252,0.100807,0.543378,0.334707,0.869832,-0.366706,0.190385,0.269578,-39.105226,31.932346,22.834519
40412,NaN,-5.170533,-5.681606,7.064702,0.395393,0.214571,0.614303,0.141463,0.693519,0.383627,0.868945,-0.366618,0.194276,0.269783,-39.070921,32.374116,22.735194
40413,NaN,-5.703475,-5.475937,6.627070,-0.129409,-0.141756,0.502166,0.215925,0.668457,0.407577,0.868170,-0.366146,0.198199,0.270064,-38.982153,32.813479,22.659553
40414,NaN,-6.012118,-5.154886,6.239819,-0.549242,-0.330037,0.249258,0.283571,0.518061,0.405502,0.867661,-0.365172,0.201555,0.270536,-38.819959,33.185168,22.647708
40415,NaN,-6.056218,-5.035713,6.718969,-0.522577,0.079677,0.526609,0.259880,0.297293,0.360569,0.867381,-0.364046,0.203835,0.271241,-38.632003,33.442102,22.708262
40416,NaN,-5.782650,-5.085061,6.705500,-0.235168,0.118324,0.394719,0.236542,0.182654,0.328716,0.867215,-0.362894,0.205529,0.272037,-38.438694,33.636128,22.801779
40417,NaN,-5.062054,-5.206778,6.935775,0.473219,0.437170,0.208524,0.253828,0.209976,0.310982,0.867071,-0.361722,0.207330,0.272689,-38.246676,33.835854,22.875221
40418,NaN,-4.430285,-5.377398,7.249101,1.162215,0.764254,0.145135,0.271707,0.387645,0.289090,0.866800,-0.360733,0.209886,0.272903,-38.092424,34.107667,22.861734
40419,NaN,-4.372836,-5.527219,7.212988,1.354418,0.667631,0.158193,0.296203,0.586416,0.311097,0.866325,-0.359885,0.213374,0.272827,-37.965096,34.476991,22.776215
40420,NaN,-4.944764,-5.742725,7.182221,1.123901,0.339261,0.562045,0.374827,0.694021,0.329377,0.865840,-0.358816,0.217465,0.272545,-37.813107,34.901476,22.655017
40421,NaN,-4.860236,-5.761168,7.278131,1.303038,0.428061,0.574914,0.485410,0.777409,0.343583,0.865423,-0.357360,0.222088,0.272053,-37.614225,35.369137,22.507257
40422,NaN,-4.584656,-5.522105,7.168830,1.438712,0.577709,0.212292,0.551517,0.986828,0.381417,0.864817,-0.355849,0.227768,0.271264,-37.417872,35.945392,22.291351
40423,NaN,-5.348554,-5.352213,6.731902,0.780925,0.129438,0.284047,0.572016,1.055849,0.400812,0.864108,-0.354309,0.233800,0.270407,-37.222389,36.560623,22.057890
40424,NaN,-6.081740,-5.203609,6.631830,0.228473,-0.070221,0.579050,0.635516,0.927457,0.375777,0.863665,-0.352335,0.239310,0.269581,-36.966839,37.108979,21.866393
40425,NaN,-6.306544,-4.836339,6.524449,-0.093010,0.003127,0.469415,0.674124,0.796306,0.374682,0.863417,-0.350010,0.244296,0.268930,-36.655456,37.597830,21.733449
40426,NaN,-6.028674,-4.613486,6.665014,0.095606,0.314285,0.283995,0.633177,0.698275,0.339039,0.863244,-0.347761,0.248735,0.268333,-36.353590,38.029686,21.623766
40427,NaN,-5.073913,-4.252143,6.972271,0.725705,1.031746,-0.281364,0.471949,0.702464,0.390471,0.862694,-0.346143,0.253059,0.268151,-36.126047,38.481548,21.545172
40428,NaN,-5.530162,-4.741748,6.626853,0.699938,0.348162,0.004155,0.388144,0.740036,0.282803,0.862081,-0.345064,0.257241,0.267534,-35.996132,38.914381,21.387097
40429,NaN,-5.208562,-4.931925,6.401975,1.069604,0.160789,-0.259261,0.459652,0.698451,0.229702,0.861696,-0.343686,0.261243,0.266669,-35.834626,39.310691,21.216447
40430,NaN,-4.869901,-4.939964,6.046024,1.293521,-0.014265,-0.702267,0.555681,0.711884,0.231796,0.861441,-0.341899,0.265429,0.265653,-35.621330,39.713996,21.041317
40431,NaN,-4.811040,-4.822310,6.222532,1.380695,0.193495,-0.692575,0.669824,0.767371,0.187014,0.861344,-0.339748,0.269923,0.264198,-35.375980,40.129204,20.816568
40432,NaN,-4.950247,-4.761784,6.536397,1.408149,0.406789,-0.444917,0.768967,0.820977,0.114487,0.861416,-0.337326,0.274646,0.262190,-35.118236,40.545800,20.524225
40433,NaN,-5.051670,-4.524765,6.331284,1.203014,0.363158,-0.620390,0.877352,0.875013,0.058913,0.861636,-0.334575,0.279642,0.259701,-34.837362,40.971017,20.175593
40434,NaN,-5.029005,-4.100282,6.009896,0.927121,0.388623,-1.025710,0.980257,0.877555,-0.022151,0.862098,-0.331481,0.284633,0.256695,-34.533091,41.371783,19.774853
40435,NaN,-5.162705,-3.845359,6.093315,0.766245,0.560273,-0.999775,0.952248,0.816781,-0.189330,0.862774,-0.328656,0.289040,0.253107,-34.299110,41.691656,19.296119
40436,NaN,-5.362784,-3.789941,6.478463,0.771575,0.804272,-0.655657,0.909855,0.670914,-0.376304,0.863799,-0.326084,0.292442,0.248995,-34.128405,41.882806,18.760285
40437,NaN,-5.488312,-3.540811,6.486080,0.567903,0.921676,-0.671790,0.989691,0.478640,-0.490546,0.865342,-0.323086,0.294919,0.244586,-33.906392,41.948028,18.235106
40438,NaN,-5.573250,-3.018340,6.353974,0.163864,1.128388,-0.910764,1.048850,0.301086,-0.555991,0.867294,-0.319695,0.296582,0.240073,-33.627623,41.908869,17.742978
40439,NaN,-5.609258,-2.612206,6.032473,-0.215841,1.140929,-1.249408,0.961599,0.134143,-0.675087,0.869461,-0.316651,0.297216,0.235442,-33.401506,41.754570,17.247228
40440,NaN,-5.640102,-2.445223,5.600849,-0.510375,0.924770,-1.563834,0.843223,-0.079483,-0.813511,0.871894,-0.314060,0.296551,0.230703,-33.240127,41.454983,16.752457
40441,NaN,-5.758420,-2.461474,5.179415,-0.781640,0.575336,-1.744084,0.770264,-0.322237,-0.943825,0.874685,-0.311693,0.294529,0.225888,-33.105049,40.999769,16.278974
40442,NaN,-5.966553,-2.401852,4.782284,-1.180873,0.278440,-1.890168,0.741306,-0.602791,-1.107159,0.877993,-0.309356,0.290978,0.220815,-32.973499,40.358965,15.818621
40443,NaN,-6.147757,-2.244585,4.645200,-1.545221,0.231368,-1.940665,0.721619,-0.903824,-1.245703,0.881799,-0.306960,0.285852,0.215627,-32.824334,39.531723,15.397956
40444,NaN,-5.975426,-2.079435,4.942293,-1.510424,0.548413,-1.946778,0.677832,-1.138167,-1.365730,0.885934,-0.304646,0.279437,0.210302,-32.681246,38.554638,14.997654
40445,NaN,-5.664091,-1.895870,5.072529,-1.451523,0.793222,-2.153106,0.664059,-1.262739,-1.479208,0.890248,-0.302395,0.272255,0.204675,-32.551739,37.483670,14.580769
40446,NaN,-5.405286,-1.591186,5.361400,-1.437071,1.221368,-2.267143,0.617429,-1.271934,-1.543341,0.894478,-0.300391,0.264860,0.198804,-32.461578,36.388715,14.130519
40447,NaN,-5.395744,-1.644942,5.778394,-1.386180,1.423606,-1.985815,0.464804,-1.277311,-1.629434,0.898467,-0.299150,0.257128,0.192749,-32.477743,35.265336,13.638034
40448,NaN,-5.806587,-2.018150,6.345448,-1.481435,1.407009,-1.217493,0.286400,-1.374151,-1.725218,0.902302,-0.298699,0.248618,0.186599,-32.594200,34.064879,13.132219
40449,NaN,-6.331401,-2.375623,6.686275,-1.804215,1.237198,-0.558126,0.189734,-1.618214,-1.813989,0.906251,-0.298531,0.238748,0.180523,-32.729621,32.718661,12.678124
40450,NaN,-6.336093,-2.515237,6.677005,-1.971787,1.103770,-0.542120,0.023245,-1.994133,-1.884242,0.910313,-0.298805,0.226883,0.174842,-32.892671,31.168420,12.331172
40451,NaN,-5.472452,-2.592027,6.057361,-1.654856,0.797316,-1.447390,-0.264521,-2.315429,-1.960733,0.914180,-0.300138,0.213137,0.169598,-33.168907,29.439053,12.072646
40452,NaN,-4.442034,-3.075974,5.483469,-0.980494,0.250780,-2.181679,-0.565753,-2.472704,-2.010367,0.917583,-0.302686,0.198296,0.164625,-33.588437,27.617400,11.857844
40453,NaN,-3.967897,-3.746032,5.256444,-0.591371,-0.311905,-2.265817,-0.734719,-2.451611,-1.943533,0.920409,-0.305889,0.183456,0.160069,-34.077816,25.825756,11.692891
40454,NaN,-4.221720,-4.409348,5.827478,-0.658209,-0.494216,-1.413776,-0.861543,-2.309903,-1.850326,0.922613,-0.309621,0.169270,0.155782,-34.627180,24.130017,11.543968
40455,NaN,-4.469362,-5.123567,6.773622,-0.661418,-0.463982,-0.249793,-0.962925,-2.155283,-1.708507,0.924205,-0.313758,0.155894,0.151980,-35.216311,22.552199,11.434996
40456,NaN,-4.611989,-5.814866,7.614815,-0.644976,-0.442214,0.791563,-1.044398,-1.946759,-1.588632,0.925236,-0.318267,0.143583,0.148419,-35.847310,21.110608,11.328460
40457,NaN,-4.694464,-6.489554,8.117339,-0.670046,-0.590040,1.555662,-1.090087,-1.812639,-1.478154,0.925849,-0.322959,0.132002,0.145181,-36.494053,19.767362,11.248460
40458,NaN,-5.192078,-7.078525,7.961367,-1.224425,-1.160600,1.917345,-1.040511,-1.768820,-1.362305,0.926284,-0.327319,0.120834,0.142333,-37.091846,18.483366,11.222423
40459,NaN,-5.785675,-7.283071,7.553848,-2.033342,-1.637852,1.881519,-0.909336,-1.877132,-1.239982,0.926770,-0.330878,0.109431,0.140148,-37.580280,17.192253,11.309907
40460,NaN,-5.982709,-7.210775,7.328417,-2.540503,-1.748213,1.675425,-0.775190,-2.117335,-1.199864,0.927441,-0.333568,0.097068,0.138434,-37.960383,15.807364,11.511664
40461,NaN,-5.205208,-6.885847,7.148261,-2.204456,-1.482227,1.075080,-0.688149,-2.360297,-1.157685,0.928180,-0.335613,0.083683,0.137271,-38.265761,14.328787,11.831395
40462,NaN,-3.793003,-6.436277,7.035875,-1.283460,-0.956630,0.323765,-0.728887,-2.441753,-1.159455,0.928711,-0.337724,0.069883,0.136213,-38.593964,12.815218,12.184477
40463,NaN,-0.708201,-6.184027,6.107253,1.304919,-0.727276,-1.221617,-0.927901,-2.363128,-1.005150,0.928594,-0.340698,0.056550,0.135797,-39.034923,11.394047,12.589405
40464,NaN,0.237461,-6.714411,6.685550,2.173826,-0.493725,-0.600529,-1.039788,-1.697600,-0.783368,0.927809,-0.344527,0.046610,0.135272,-39.573778,10.352354,12.857048
40465,NaN,-0.521340,-7.664868,7.631857,1.548464,-0.663027,0.884398,-1.039072,-1.081660,-0.513222,0.926615,-0.348678,0.039979,0.134944,-40.133742,9.682877,13.027148
40466,NaN,-2.550343,-8.476788,8.025138,-0.308172,-1.360470,2.053888,-0.952284,-0.755727,-0.318025,0.925331,-0.352589,0.035266,0.134908,-40.650481,9.230058,13.164643
40467,NaN,-3.251833,-8.889440,7.984781,-0.975883,-1.768061,2.405072,-0.824872,-0.801800,-0.252797,0.924198,-0.355857,0.030528,0.135247,-41.087622,8.782543,13.354239
40468,NaN,-2.295572,-9.018662,7.985713,-0.123387,-1.586207,2.346477,-0.657297,-0.848003,-0.172937,0.923290,-0.358294,0.025841,0.135993,-41.421855,8.346978,13.597185
40469,NaN,-1.900678,-8.836311,7.887780,0.123424,-1.394503,2.101572,-0.453521,-0.725729,-0.133837,0.922679,-0.359861,0.021917,0.136684,-41.645128,7.979484,13.813939
40470,NaN,-1.991920,-8.329797,7.666802,-0.159566,-1.190951,1.619239,-0.271975,-0.678317,-0.099518,0.922354,-0.360613,0.018406,0.137414,-41.766020,7.646430,14.026388
40471,NaN,-1.844552,-7.633629,7.410687,-0.249452,-0.839623,0.949536,-0.134267,-0.696154,-0.084520,0.922254,-0.360712,0.014925,0.138243,-41.807488,7.311352,14.254284
40472,NaN,-1.481817,-6.976426,7.262845,-0.123471,-0.400828,0.357810,-0.070686,-0.714068,-0.092325,0.922265,-0.360498,0.011395,0.139063,-41.813067,6.966096,14.485623
40473,NaN,-1.127961,-6.523051,7.291904,0.035174,0.010538,0.035800,-0.081764,-0.729688,-0.106155,0.922253,-0.360324,0.007756,0.139846,-41.826774,6.608563,14.716969
40474,NaN,-0.699378,-6.292703,7.221830,0.331658,0.224841,-0.216792,-0.159584,-0.712316,-0.124670,0.922101,-0.360513,0.004113,0.140513,-41.887780,6.251880,14.933687
40475,NaN,-0.258825,-6.216781,6.964684,0.697508,0.222037,-0.502153,-0.283128,-0.669117,-0.159368,0.921736,-0.361301,0.000517,0.140943,-42.024542,5.900320,15.119430
40476,NaN,0.125098,-6.346286,6.577741,1.079926,-0.011166,-0.735738,-0.401895,-0.570051,-0.168924,0.921152,-0.362702,-0.002716,0.141136,-42.234588,5.588163,15.262125
40477,NaN,0.210687,-6.676145,6.609201,1.190812,-0.169858,-0.493372,-0.490478,-0.434288,-0.148415,0.920382,-0.364602,-0.005357,0.141186,-42.500132,5.341575,15.363773
40478,NaN,-0.001206,-7.197199,6.558303,1.082070,-0.583691,-0.153539,-0.537821,-0.281239,-0.108286,0.919494,-0.366826,-0.007245,0.141126,-42.797041,5.175898,15.422179
40479,NaN,-0.379862,-7.498614,6.488002,0.770156,-0.897420,0.039671,-0.496653,-0.163257,-0.051531,0.918637,-0.368942,-0.008466,0.141124,-43.072350,5.081829,15.460820
40480,NaN,-0.794058,-7.645885,6.630948,0.370338,-0.972723,0.285633,-0.413675,-0.091914,-0.004138,0.917899,-0.370728,-0.009207,0.141201,-43.300920,5.036574,15.490263
40481,NaN,-0.987497,-7.572553,6.879379,0.120098,-0.771706,0.435947,-0.343241,-0.081375,0.014186,0.917274,-0.372197,-0.009823,0.141355,-43.488766,5.002775,15.524764
40482,NaN,-0.977057,-7.446059,7.119463,0.054049,-0.491432,0.523689,-0.288968,-0.105822,0.007134,0.916753,-0.373400,-0.010518,0.141515,-43.645095,4.956404,15.564680
40483,NaN,-0.920197,-7.238238,7.177325,0.032710,-0.271908,0.418528,-0.269303,-0.125280,-0.015239,0.916280,-0.374496,-0.011338,0.141619,-43.790171,4.892967,15.604586
40484,NaN,-0.766764,-7.091269,7.135954,0.129065,-0.138022,0.274933,-0.267806,-0.148435,-0.042957,0.915826,-0.375565,-0.012312,0.141640,-43.934474,4.809229,15.642355
40485,NaN,-0.428601,-7.061291,7.136372,0.423282,-0.004996,0.226937,-0.293979,-0.147637,-0.085186,0.915351,-0.376752,-0.013382,0.141463,-44.095435,4.708940,15.662591
40486,NaN,-0.247956,-7.118044,7.041612,0.599471,-0.036750,0.184888,-0.296337,-0.088127,-0.122045,0.914899,-0.377990,-0.014246,0.140997,-44.261071,4.618672,15.642874
40487,NaN,-0.020002,-7.434062,7.523365,0.811753,0.168848,0.731465,-0.320695,0.006287,-0.128205,0.914409,-0.379403,-0.014712,0.140330,-44.443717,4.564334,15.584165
40488,NaN,-0.226407,-7.779092,7.211001,0.728076,-0.303490,0.767566,-0.310262,0.165988,-0.096648,0.913927,-0.380882,-0.014375,0.139497,-44.624598,4.587883,15.473055
40489,NaN,-0.742993,-8.065109,7.158106,0.306972,-0.640165,0.973062,-0.227364,0.221077,-0.074433,0.913588,-0.382021,-0.013692,0.138674,-44.758986,4.642355,15.349810
40490,NaN,-0.693326,-8.257117,7.481528,0.364531,-0.507848,1.333752,-0.148086,0.264533,-0.056984,0.913388,-0.382827,-0.012721,0.137853,-44.848889,4.721358,15.215944
40491,NaN,-0.861105,-8.387914,7.631122,0.231071,-0.515207,1.545733,-0.106870,0.372574,-0.013753,0.913242,-0.383521,-0.011146,0.137025,-44.917705,4.861455,15.055737
40492,NaN,-1.029295,-8.445130,7.318204,0.149090,-0.796943,1.380093,-0.054256,0.447044,0.036927,0.913163,-0.384030,-0.009093,0.136278,-44.957958,5.052245,14.884448
40493,NaN,-1.016829,-8.494143,7.016153,0.245553,-1.022622,1.201150,-0.005562,0.504040,0.092986,0.913136,-0.384354,-0.006643,0.135689,-44.970711,5.288630,14.713952
40494,NaN,-0.847084,-8.593735,6.591297,0.527292,-1.332802,0.955804,0.053201,0.566490,0.153554,0.913176,-0.384452,-0.003749,0.135251,-44.950920,5.574978,14.541730
40495,NaN,-0.900553,-8.809118,6.687041,0.575174,-1.415757,1.177877,0.113526,0.669886,0.244346,0.913262,-0.384341,-0.000171,0.135034,-44.897755,5.940003,14.365505
40496,NaN,-1.245148,-9.267467,7.043921,0.394613,-1.553318,1.784037,0.202319,0.750397,0.335057,0.913444,-0.383876,0.004014,0.135066,-44.794908,6.374738,14.192727
40497,NaN,-1.817860,-9.521138,7.333460,-0.029456,-1.666603,2.227123,0.352617,0.740425,0.408468,0.913848,-0.382706,0.008391,0.135456,-44.602763,6.835319,14.056337
40498,NaN,-1.962215,-9.532813,7.498486,-0.079560,-1.617054,2.366391,0.483332,0.677650,0.434821,0.914466,-0.380890,0.012623,0.136072,-44.332634,7.281458,13.957129
40499,NaN,-1.598803,-9.551436,7.599948,0.371258,-1.507415,2.399359,0.538608,0.688789,0.451918,0.915156,-0.378816,0.016973,0.136745,-44.030475,7.739377,13.863477
40500,NaN,-1.165195,-9.628437,7.391068,0.937860,-1.643192,2.233527,0.598106,0.827119,0.509719,0.915882,-0.376554,0.022110,0.137401,-43.699828,8.278046,13.739594
40501,NaN,-1.079350,-9.718112,7.283577,1.184355,-1.805857,2.186953,0.719445,1.017687,0.590601,0.916723,-0.373837,0.028349,0.138060,-43.305946,8.928419,13.578273
40502,NaN,-1.364534,-9.703211,7.239591,1.062716,-1.949247,2.166227,0.856055,1.155288,0.661005,0.917700,-0.370566,0.035447,0.138748,-42.839854,9.665197,13.395735
40503,NaN,-1.566726,-9.579715,7.312891,0.999817,-1.928593,2.144812,0.976330,1.192440,0.709198,0.918800,-0.366728,0.042883,0.139567,-42.304185,10.437779,13.226524
40504,NaN,-1.602131,-9.641805,7.433626,1.157659,-1.975332,2.251496,1.041146,1.194784,0.746769,0.919921,-0.362567,0.050444,0.140519,-41.730562,11.227398,13.078398
40505,NaN,-1.653984,-9.759045,7.327715,1.326489,-2.226383,2.226833,1.088785,1.221064,0.786279,0.921024,-0.358158,0.058223,0.141592,-41.127471,12.044668,12.946784
40506,NaN,-1.871146,-9.870974,7.073676,1.339344,-2.617790,2.117256,1.195998,1.242946,0.827202,0.922200,-0.353239,0.066251,0.142758,-40.462214,12.888127,12.832047
40507,NaN,-2.030673,-9.831522,7.096247,1.367491,-2.716810,2.098805,1.341923,1.223741,0.855220,0.923535,-0.347579,0.074333,0.144039,-39.706574,13.734803,12.749364
40508,NaN,-2.013535,-9.592776,7.014089,1.494921,-2.721184,1.833291,1.501071,1.184786,0.835963,0.925075,-0.341139,0.082313,0.145208,-38.858345,14.558208,12.682340
40509,NaN,-1.934790,-9.056190,7.157794,1.587759,-2.364815,1.539565,1.694018,1.153438,0.812910,0.926869,-0.333742,0.090235,0.146244,-37.895074,15.360274,12.631423
40510,NaN,-1.814902,-8.249874,7.576232,1.641873,-1.638172,1.294475,1.840993,1.080774,0.761820,0.928861,-0.325606,0.097835,0.147062,-36.845847,16.112104,12.594749
40511,NaN,-1.970812,-7.525079,8.061880,1.462953,-0.994631,1.249430,1.867964,0.954106,0.683942,0.930901,-0.317234,0.104723,0.147710,-35.773357,16.779634,12.582085
40512,NaN,-2.005893,-7.071383,8.292049,1.451972,-0.687064,1.150967,1.789349,0.800391,0.597909,0.932853,-0.309141,0.110694,0.148203,-34.741459,17.346712,12.590247
40513,NaN,-1.696453,-6.848939,8.049149,1.766885,-0.762673,0.716695,1.680722,0.684401,0.491365,0.934692,-0.301480,0.115864,0.148447,-33.770274,17.824421,12.598187
40514,NaN,-1.141639,-6.661387,7.675088,2.278754,-0.876403,0.118119,1.623148,0.641642,0.375596,0.936474,-0.294116,0.120610,0.148206,-32.845809,18.244751,12.566586
40515,NaN,-0.737106,-6.434737,7.474494,2.642778,-0.875171,-0.322450,1.589719,0.679163,0.296903,0.938171,-0.286943,0.125379,0.147579,-31.952329,18.659731,12.493401
40516,NaN,-0.859306,-6.197516,7.303804,2.511923,-0.946161,-0.577649,1.586248,0.756212,0.220428,0.939796,-0.279887,0.130390,0.146440,-31.082900,19.089998,12.358544
40517,NaN,-1.373591,-6.055980,7.320225,2.078046,-1.060196,-0.501247,1.598418,0.764433,0.138327,0.941420,-0.272793,0.135320,0.144917,-30.217219,19.502617,12.189239
40518,NaN,-2.002809,-5.792111,7.452880,1.509803,-1.034950,-0.338912,1.691990,0.648830,0.046964,0.943249,-0.265217,0.139652,0.142965,-29.303223,19.833366,12.002950
40519,NaN,-2.070802,-5.162863,7.510938,1.307664,-0.647823,-0.580910,1.818242,0.458366,-0.080078,0.945379,-0.256971,0.142980,0.140647,-28.317885,20.036941,11.820409
40520,NaN,-1.776815,-4.237667,7.931636,1.397898,0.241083,-0.756682,1.896948,0.273987,-0.226416,0.947767,-0.248309,0.145304,0.137723,-27.297726,20.110007,11.604948
40521,NaN,-1.446517,-3.488868,8.471243,1.604525,1.048608,-0.737979,1.823741,0.167251,-0.376768,0.950149,-0.240003,0.146858,0.134342,-26.335157,20.093885,11.348447
40522,NaN,-1.414192,-3.141416,8.539053,1.566302,1.235597,-0.823681,1.615839,0.110938,-0.517177,0.952350,-0.232733,0.147834,0.130421,-25.514803,20.016252,11.019691
40523,NaN,-1.510625,-3.067939,8.263762,1.409797,1.021728,-1.040491,1.415430,0.050549,-0.666855,0.954386,-0.226470,0.148198,0.126079,-24.829836,19.875839,10.633290
40524,NaN,-1.372816,-3.076932,7.989062,1.479127,0.799198,-1.306817,1.290036,-0.010391,-0.812381,0.956357,-0.220876,0.148006,0.121197,-24.239962,19.671858,10.180403
40525,NaN,-1.284902,-3.087142,8.074048,1.573569,0.742417,-1.248603,1.227094,-0.025739,-0.965978,0.958307,-0.215659,0.147536,0.115636,-23.710388,19.429484,9.644599
40526,NaN,-1.424998,-3.018196,8.123437,1.418935,0.706646,-1.174581,1.192390,-0.018408,-1.091581,0.960224,-0.210706,0.146923,0.109484,-23.224423,19.165394,9.035613
40527,NaN,-1.408399,-2.815431,8.022668,1.335876,0.753642,-1.332109,1.170633,-0.015941,-1.205878,0.962113,-0.205913,0.146193,0.102790,-22.767777,18.883151,8.361066
40528,NaN,-1.464292,-2.540746,7.953455,1.174330,0.876463,-1.463487,1.154916,-0.017513,-1.326543,0.963976,-0.201282,0.145297,0.095520,-22.340436,18.576938,7.618354
40529,NaN,-1.765494,-2.308192,7.861213,0.789256,0.931088,-1.520943,1.143771,-0.022962,-1.427985,0.965803,-0.196745,0.144270,0.087767,-21.931745,18.252618,6.819205
40530,NaN,-2.229002,-2.021042,7.526388,0.179625,0.936053,-1.763417,1.130898,-0.046403,-1.490110,0.967576,-0.192300,0.143035,0.079738,-21.536981,17.906290,5.989692
40531,NaN,-2.587615,-1.764082,7.437873,-0.265127,1.045252,-1.814778,1.070023,-0.128386,-1.550811,0.969287,-0.188131,0.141323,0.071532,-21.175493,17.510435,5.143479
40532,NaN,-2.862045,-1.668159,7.621259,-0.539037,1.136683,-1.598387,0.966940,-0.279211,-1.599933,0.970938,-0.184436,0.138769,0.063295,-20.866925,17.026824,4.301906
40533,NaN,-3.019098,-1.665588,7.666831,-0.732494,1.111588,-1.512273,0.827953,-0.429424,-1.636681,0.972488,-0.181366,0.135410,0.055110,-20.625973,16.460841,3.471503
40534,NaN,-3.016721,-1.750437,7.867655,-0.736920,1.083649,-1.306996,0.699530,-0.538959,-1.658916,0.973915,-0.178899,0.131436,0.046998,-20.448519,15.832829,2.652100
40535,NaN,-3.023806,-1.830778,7.899243,-0.802921,1.005098,-1.254783,0.597035,-0.574055,-1.672998,0.975190,-0.176906,0.127258,0.038912,-20.319709,15.186959,1.832867
40536,NaN,-3.029660,-1.866509,7.917781,-0.881642,0.971186,-1.231726,0.533613,-0.576361,-1.685450,0.976327,-0.175224,0.123020,0.030804,-20.220741,14.537287,1.008494
40537,NaN,-2.934640,-1.903169,8.010210,-0.847035,0.968884,-1.167408,0.488325,-0.562220,-1.705905,0.977332,-0.173752,0.118829,0.022609,-20.140786,13.894082,0.171128
40538,NaN,-2.855274,-1.833025,8.038715,-0.849881,1.045610,-1.191932,0.477256,-0.521639,-1.706618,0.978219,-0.172333,0.114810,0.014380,-20.060848,13.272094,-0.673338
40539,NaN,-2.832916,-1.531006,8.186859,-0.889690,1.383014,-1.170386,0.432936,-0.489469,-1.678424,0.978965,-0.171093,0.110974,0.006285,-19.994283,12.675617,-1.507557
40540,NaN,-2.883792,-1.353680,8.177540,-1.015960,1.559090,-1.236115,0.308828,-0.434783,-1.642982,0.979496,-0.170437,0.107410,-0.001614,-19.989228,12.114484,-2.331525
40541,NaN,-2.887624,-1.502409,8.039982,-1.102644,1.397121,-1.323354,0.136382,-0.368353,-1.605345,0.979773,-0.170584,0.104211,-0.009293,-20.072674,11.597499,-3.146226
40542,NaN,-2.989110,-1.809574,7.804936,-1.300513,1.071888,-1.429032,0.014298,-0.304319,-1.548350,0.979850,-0.171292,0.101359,-0.016684,-20.215669,11.123160,-3.939883
40543,NaN,-3.140921,-2.089358,7.735346,-1.516695,0.840594,-1.383040,-0.041538,-0.292056,-1.484289,0.979820,-0.172224,0.098634,-0.023741,-20.377081,10.667550,-4.698588
40544,NaN,-3.135799,-2.194065,7.749915,-1.564637,0.795531,-1.349419,-0.088329,-0.300805,-1.420631,0.979706,-0.173349,0.095909,-0.030455,-20.552829,10.216450,-5.418099
40545,NaN,-3.123646,-2.292634,7.955787,-1.569178,0.821910,-1.142651,-0.133623,-0.313872,-1.356341,0.979518,-0.174654,0.093190,-0.036819,-20.741517,9.770440,-6.097627
40546,NaN,-3.156785,-2.226523,7.963315,-1.652173,0.942374,-1.168681,-0.156769,-0.339093,-1.275287,0.979291,-0.176035,0.090407,-0.042752,-20.930097,9.324021,-6.725365
40547,NaN,-3.083069,-1.969215,7.851831,-1.640463,1.188580,-1.390689,-0.181419,-0.374122,-1.205493,0.979030,-0.177501,0.087526,-0.048299,-21.120041,8.872395,-7.305869
40548,NaN,-2.945685,-1.830718,8.093627,-1.501284,1.435510,-1.255797,-0.259168,-0.377245,-1.137052,0.978680,-0.179314,0.084696,-0.053473,-21.344352,8.430158,-7.846238
40549,NaN,-2.930315,-1.898474,8.227062,-1.512042,1.475035,-1.128622,-0.376183,-0.331103,-1.072980,0.978186,-0.181650,0.082187,-0.058323,-21.627536,8.024681,-8.359450
40550,NaN,-2.783163,-2.097941,8.187526,-1.432542,1.321688,-1.130329,-0.480639,-0.290014,-1.020837,0.977561,-0.184460,0.079946,-0.062910,-21.964302,7.648483,-8.850646
40551,NaN,-2.837785,-2.293696,8.217089,-1.535920,1.231202,-1.040053,-0.540731,-0.266136,-0.947124,0.976862,-0.187519,0.077914,-0.067133,-22.327418,7.298845,-9.304974
40552,NaN,-2.947800,-2.472792,8.254613,-1.688798,1.173273,-0.940617,-0.600701,-0.239160,-0.865779,0.976094,-0.190825,0.076100,-0.070958,-22.717356,6.977593,-9.719116
40553,NaN,-3.067675,-2.642087,8.168578,-1.870370,1.085931,-0.956121,-0.643125,-0.241696,-0.779180,0.975289,-0.194299,0.074377,-0.074341,-23.123432,6.672271,-10.084229
40554,NaN,-2.954748,-2.815279,8.299181,-1.788924,1.037103,-0.798463,-0.691741,-0.305961,-0.683931,0.974471,-0.197994,0.072444,-0.077176,-23.547721,6.351515,-10.381690
40555,NaN,-2.311506,-3.129520,8.541174,-1.189481,0.810067,-0.538161,-0.755966,-0.313009,-0.583058,0.973606,-0.201962,0.070604,-0.079488,-24.000985,6.048733,-10.621724
40556,NaN,-1.693736,-3.528737,8.681738,-0.633463,0.474989,-0.322390,-0.838140,-0.102918,-0.454264,0.972611,-0.206197,0.069944,-0.081354,-24.498162,5.883559,-10.841136
40557,NaN,-2.027359,-4.061614,8.198382,-1.107494,-0.044097,-0.507248,-0.896527,0.159311,-0.337248,0.971489,-0.210564,0.070706,-0.082898,-25.028584,5.881431,-11.061129
40558,NaN,-3.434112,-4.930958,8.993963,-2.443680,-0.145281,0.723217,-0.893971,0.098775,-0.318953,0.970377,-0.214931,0.071188,-0.084290,-25.554915,5.849998,-11.256629
40559,NaN,-4.236150,-5.888321,10.054482,-3.184040,-0.318862,2.165178,-0.660838,-0.398312,-0.315743,0.969675,-0.218372,0.069164,-0.085213,-25.934633,5.561694,-11.325864
40560,NaN,-2.250217,-5.482158,10.507409,-1.174105,-0.082390,2.193021,-0.393238,-0.651403,-0.321884,0.969332,-0.220622,0.065790,-0.085980,-26.154792,5.141030,-11.332747
40561,NaN,-0.390832,-5.183813,11.398774,0.761549,0.238104,2.690099,-0.181755,-0.423415,-0.319822,0.969137,-0.221745,0.063434,-0.087057,-26.258572,4.838242,-11.395294
40562,NaN,-0.759316,-4.431912,10.842488,0.379561,0.763855,1.894165,-0.010590,-0.040912,-0.246165,0.969038,-0.221847,0.062936,-0.088256,-26.269001,4.750447,-11.516844
40563,NaN,-1.016313,-3.830365,10.013191,0.073697,1.000412,0.909361,0.057649,0.102560,-0.201806,0.968987,-0.221542,0.063154,-0.089419,-26.241366,4.747790,-11.652033
40564,NaN,-0.757205,-3.456478,9.062747,0.234230,0.877495,-0.126145,0.025204,0.241139,-0.199622,0.968855,-0.221330,0.064058,-0.090716,-26.235162,4.816788,-11.821327
40565,NaN,-1.022006,-3.463063,8.581538,-0.087034,0.725614,-0.531202,-0.076696,0.309470,-0.211065,0.968581,-0.221584,0.065328,-0.092110,-26.289652,4.918080,-12.013960
40566,NaN,-1.757422,-4.020401,8.861777,-0.825071,0.512694,0.028025,-0.139927,0.182847,-0.232455,0.968265,-0.222208,0.065989,-0.093447,-26.378627,4.948526,-12.185473
40567,NaN,-1.589622,-4.329633,9.166156,-0.656174,0.346875,0.421575,-0.099368,0.006158,-0.250587,0.968041,-0.222724,0.065757,-0.094689,-26.441390,4.883604,-12.321154
40568,NaN,-1.017726,-4.300158,9.577439,-0.034429,0.433997,0.726047,-0.020889,0.010761,-0.267343,0.967894,-0.222863,0.065490,-0.096042,-26.459686,4.816594,-12.466605
40569,NaN,-0.313972,-4.016169,9.556838,0.688905,0.525315,0.522244,0.030932,0.182196,-0.260626,0.967749,-0.222666,0.066036,-0.097571,-26.451809,4.839301,-12.652479
40570,NaN,-0.224538,-4.028834,9.319671,0.751800,0.388844,0.307673,0.013291,0.460950,-0.229924,0.967504,-0.222407,0.067973,-0.099255,-26.458917,5.012742,-12.894018
40571,NaN,-1.228393,-4.158426,9.010698,-0.258433,0.361487,0.177132,-0.005205,0.611091,-0.160672,0.967212,-0.222138,0.070722,-0.100764,-26.478032,5.280914,-13.138485
40572,NaN,-1.963144,-4.364927,8.947396,-0.971060,0.315453,0.282846,-0.018208,0.531236,-0.129367,0.966942,-0.221958,0.073125,-0.102028,-26.501986,5.515940,-13.346559
40573,NaN,-2.071544,-4.613325,9.056989,-1.065316,0.166222,0.504315,-0.003407,0.293302,-0.146368,0.966762,-0.221834,0.074351,-0.103114,-26.513263,5.624665,-13.502359
40574,NaN,-1.406681,-4.464768,9.165334,-0.369147,0.186669,0.470559,0.043171,0.051261,-0.185038,0.966702,-0.221623,0.074341,-0.104137,-26.493581,5.599395,-13.615943
40575,NaN,-0.576123,-4.137153,8.769347,0.406151,0.114429,-0.108496,0.061725,-0.009984,-0.205742,0.966673,-0.221362,0.074002,-0.105197,-26.462944,5.537489,-13.724437
40576,NaN,-0.633572,-3.963852,8.496654,0.321829,0.167286,-0.422527,-0.011599,0.066724,-0.187027,0.966543,-0.221407,0.074092,-0.106226,-26.474947,5.519712,-13.843014
40577,NaN,-1.115754,-4.066087,8.104605,-0.238032,0.034124,-0.680066,-0.039918,0.059868,-0.162197,0.966396,-0.221585,0.074192,-0.107116,-26.502008,5.504736,-13.946986
40578,NaN,-0.756859,-4.032637,8.319379,0.151506,0.071599,-0.538046,-0.042402,0.000625,-0.182576,0.966258,-0.221811,0.073985,-0.108038,-26.529707,5.454112,-14.046262
40579,NaN,-0.677093,-3.807885,8.126103,0.229832,0.177717,-0.817823,-0.110832,0.088277,-0.127725,0.966039,-0.222303,0.074299,-0.108766,-26.596306,5.462393,-14.139771
40580,NaN,-0.845976,-4.030593,8.309417,0.069717,0.114187,-0.539618,-0.243432,0.107063,-0.082825,0.965689,-0.223405,0.074825,-0.109250,-26.736883,5.491645,-14.215100
40581,NaN,-0.563115,-4.317899,8.502169,0.338776,-0.103431,-0.266867,-0.291049,0.067031,-0.050991,0.965316,-0.224749,0.075219,-0.109517,-26.902504,5.508481,-14.263716
40582,NaN,-0.267804,-4.425144,8.758861,0.665989,-0.134879,-0.019351,-0.335240,0.080330,-0.011162,0.964909,-0.226282,0.075746,-0.109590,-27.091548,5.542276,-14.295476
40583,NaN,-0.867189,-4.613323,8.768424,0.076624,-0.116582,0.132181,-0.399349,0.172331,0.074176,0.964437,-0.228042,0.076849,-0.109330,-27.315765,5.645232,-14.307838
40584,NaN,-2.170604,-4.846349,8.262524,-1.289163,-0.182477,-0.077571,-0.407046,0.249494,0.183182,0.963981,-0.229752,0.078451,-0.108629,-27.540657,5.816075,-14.285398
40585,NaN,-4.073114,-4.770615,7.622884,-3.197898,0.098408,-0.473473,-0.346246,0.283791,0.363814,0.963672,-0.231080,0.080394,-0.107120,-27.722399,6.052479,-14.180502
40586,NaN,-4.455578,-4.367160,7.622858,-3.468031,0.551176,-0.609364,-0.293075,-0.037389,0.398921,0.963567,-0.232307,0.080801,-0.105091,-27.862157,6.135872,-13.972105
40587,NaN,-2.935251,-4.463586,9.040462,-1.726414,0.726961,0.519796,-0.323911,-0.363258,0.314727,0.963506,-0.233887,0.079555,-0.103076,-28.015096,6.032132,-13.718762
40588,NaN,-0.922773,-4.777080,9.300003,0.202486,0.123948,0.680431,-0.375279,-0.431851,0.273068,0.963382,-0.235762,0.077958,-0.101161,-28.198025,5.883561,-13.467803
40589,NaN,0.799558,-4.817228,9.648158,1.920921,-0.117677,0.828178,-0.337072,-0.228433,0.258995,0.963209,-0.237357,0.077302,-0.099567,-28.366083,5.834230,-13.279006
40590,NaN,1.415484,-4.763207,10.052922,2.628809,0.001227,1.088783,-0.346375,0.281347,0.301757,0.962845,-0.238722,0.079158,-0.098367,-28.551164,6.054190,-13.208377
40591,NaN,0.180650,-5.060914,9.783937,1.410176,-0.072050,1.113253,-0.389136,0.801902,0.369806,0.962241,-0.240009,0.083619,-0.097444,-28.772668,6.554559,-13.247921
40592,NaN,-2.047488,-5.493196,8.921522,-0.881218,-0.305282,0.821699,-0.399467,0.892716,0.402220,0.961580,-0.241279,0.088560,-0.096466,-29.001464,7.109377,-13.298475
40593,NaN,-3.507678,-5.972850,8.561333,-2.343527,-0.532708,0.934344,-0.323963,0.565634,0.394641,0.961130,-0.242345,0.091880,-0.095162,-29.176770,7.498061,-13.262975
40594,NaN,-2.788268,-5.897680,8.294937,-1.640947,-0.743584,0.585260,-0.168084,0.161697,0.348690,0.961025,-0.242871,0.093129,-0.093660,-29.250493,7.672174,-13.137582
40595,NaN,-1.149243,-5.110307,8.036200,0.017417,-0.550232,-0.235976,-0.026612,0.101530,0.288665,0.961088,-0.242774,0.093949,-0.092438,-29.244853,7.799274,-13.025483
40596,NaN,-0.965018,-4.562947,8.090926,0.309559,-0.096487,-0.479436,-0.105683,0.298116,0.294254,0.960962,-0.242962,0.095758,-0.091391,-29.291286,8.026496,-12.966207
40597,NaN,-2.074006,-4.846154,7.747688,-0.831112,-0.244693,-0.481958,-0.262513,0.401216,0.329190,0.960606,-0.243839,0.098174,-0.090226,-29.429166,8.314851,-12.918848
40598,NaN,-2.692104,-5.381891,7.861609,-1.419219,-0.508534,-0.027798,-0.292884,0.288644,0.350612,0.960271,-0.244899,0.100091,-0.088805,-29.577906,8.553508,-12.829323
40599,NaN,-2.160174,-5.513264,8.124028,-0.815129,-0.606472,0.188803,-0.298253,0.237466,0.370206,0.959957,-0.245998,0.101786,-0.087224,-29.725893,8.772189,-12.715779
40600,NaN,-1.965754,-5.799199,8.747481,-0.459218,-0.597341,0.838381,-0.320365,0.364459,0.435351,0.959571,-0.247111,0.104182,-0.085474,-29.886648,9.073220,-12.606626
40601,NaN,-2.221476,-6.088003,8.633324,-0.694261,-0.829187,0.928025,-0.339706,0.505954,0.509730,0.959107,-0.248216,0.107352,-0.083531,-30.058608,9.465723,-12.501837
40602,NaN,-2.746431,-6.369946,8.513707,-1.175936,-1.006495,1.059562,-0.278225,0.535487,0.565437,0.958712,-0.248979,0.110710,-0.081389,-30.191510,9.889548,-12.378638
40603,NaN,-3.098397,-6.029599,7.818914,-1.576449,-0.960469,0.369816,-0.161576,0.450113,0.592265,0.958506,-0.249199,0.113639,-0.079076,-30.250067,10.278651,-12.217462
40604,NaN,-2.974681,-5.546471,7.412815,-1.450027,-0.767175,-0.227780,-0.119296,0.338710,0.614638,0.958411,-0.249246,0.116048,-0.076539,-30.275549,10.619692,-12.012470
40605,NaN,-2.708794,-5.245472,7.495459,-1.089291,-0.536215,-0.349068,-0.118269,0.283571,0.633241,0.958345,-0.249294,0.118210,-0.073844,-30.294365,10.938413,-11.781755
40606,NaN,-2.712662,-5.282966,8.048912,-0.894092,-0.324739,0.144626,-0.140002,0.278091,0.668869,0.958257,-0.249425,0.120402,-0.070957,-30.320755,11.265403,-11.531396
40607,NaN,-2.935527,-5.343259,8.216028,-1.008967,-0.266423,0.364814,-0.176893,0.273287,0.701808,0.958124,-0.249711,0.122618,-0.067885,-30.363083,11.599110,-11.262859
40608,NaN,-2.913782,-5.462922,8.449926,-0.871446,-0.276343,0.622769,-0.161887,0.270222,0.721695,0.958003,-0.249911,0.124843,-0.064720,-30.393241,11.937895,-10.983328
40609,NaN,-2.729087,-5.393655,8.488958,-0.615056,-0.244490,0.587475,-0.141306,0.293845,0.747241,0.957888,-0.249983,0.127199,-0.061475,-30.408432,12.295206,-10.697606
40610,NaN,-2.376094,-5.240495,8.404212,-0.221893,-0.229159,0.367546,-0.098227,0.387976,0.774859,0.957758,-0.249800,0.130031,-0.058241,-30.400260,12.707781,-10.425534
40611,NaN,-2.165695,-5.046692,8.535994,0.105309,-0.055947,0.336581,-0.034839,0.554906,0.803207,0.957587,-0.249240,0.133670,-0.055121,-30.361152,13.210248,-10.187987
40612,NaN,-2.348955,-4.794673,8.659649,0.067102,0.226967,0.357814,0.009624,0.692147,0.826525,0.957361,-0.248408,0.137986,-0.052087,-30.301188,13.787857,-9.978515
40613,NaN,-3.023365,-4.488038,8.527933,-0.509154,0.517178,0.261104,0.025183,0.697285,0.832145,0.957126,-0.247488,0.142320,-0.049043,-30.229372,14.368671,-9.766431
40614,NaN,-3.633405,-4.369116,8.508020,-1.002781,0.680730,0.346423,-0.001971,0.577377,0.840950,0.956917,-0.246716,0.146099,-0.045787,-30.160883,14.893139,-9.512947
40615,NaN,-2.090567,-4.647205,9.019810,0.695975,0.401368,0.515819,-0.034720,0.394026,0.749385,0.956761,-0.246202,0.148887,-0.042719,-30.106659,15.299402,-9.250629
40616,NaN,-1.831779,-4.660303,8.580669,0.883116,0.130034,0.081974,-0.022264,0.554683,0.753930,0.956483,-0.245587,0.152449,-0.039834,-30.055449,15.787158,-9.032991
40617,NaN,-3.172651,-4.573690,8.995915,-0.177698,0.572650,0.749064,0.071300,0.591415,0.748926,0.956270,-0.244516,0.156153,-0.037090,-29.952048,16.290653,-8.827591
40618,NaN,-1.276774,-4.806981,9.221235,1.771434,0.162683,0.512208,0.085833,0.468945,0.622865,0.956129,-0.243491,0.159117,-0.034809,-29.846661,16.697693,-8.649656
40619,NaN,-0.586855,-4.621185,9.577897,2.600517,0.352924,0.509529,0.338896,0.455987,0.471581,0.956267,-0.241376,0.161783,-0.033437,-29.616265,17.054057,-8.544853
40620,NaN,1.109083,-3.975818,11.052341,4.721537,1.273640,0.923955,0.771969,0.363780,0.241979,0.956947,-0.237387,0.163660,-0.033400,-29.163995,17.299776,-8.530553
40621,NaN,1.121040,-3.120108,9.952794,4.407856,1.462033,-0.406173,0.488970,0.671737,0.201782,0.957015,-0.234729,0.167003,-0.033690,-28.906573,17.687947,-8.625483
40622,NaN,-4.389021,-3.540382,7.603639,-1.477563,0.807096,-0.497248,0.076527,1.142578,0.452047,0.956221,-0.233749,0.172959,-0.032990,-28.887560,18.381977,-8.724799
40623,NaN,-7.434695,-4.694089,7.017844,-4.417390,-0.048332,0.533465,-0.206428,0.634687,0.560114,0.955527,-0.234106,0.176653,-0.030934,-28.966299,18.851046,-8.619113
40624,NaN,-6.544806,-5.313716,6.910629,-3.547535,-0.795412,0.463934,-0.061448,0.010192,0.653185,0.955554,-0.233781,0.177450,-0.027829,-28.885809,19.033165,-8.280927
40625,NaN,-5.377341,-4.594343,7.554778,-2.227942,-0.078599,0.293168,0.139375,-0.211170,0.700881,0.956008,-0.232482,0.177213,-0.024416,-28.659976,19.115981,-7.851986
40626,NaN,-4.964362,-3.679896,7.892503,-1.753400,0.778776,0.025861,0.082800,-0.343059,0.765311,0.956505,-0.231409,0.176430,-0.020490,-28.442171,19.149168,-7.350066
40627,NaN,-4.488531,-3.638551,8.032146,-1.268523,0.776604,-0.030614,-0.076769,-0.450381,0.847561,0.956903,-0.231034,0.175235,-0.015907,-28.291102,19.148436,-6.773109
40628,NaN,-3.510242,-3.822322,8.130025,-0.322280,0.511903,-0.186513,-0.022930,-0.575188,0.865150,0.957449,-0.230388,0.173463,-0.011140,-28.094609,19.088597,-6.151165
40629,NaN,-2.218775,-3.626338,8.545173,0.995712,0.714030,-0.347388,-0.072775,-0.674613,0.847839,0.957997,-0.229997,0.171185,-0.006300,-27.921666,18.971100,-5.510670
40630,NaN,-1.135455,-3.714700,9.165724,2.199314,0.805592,-0.137321,-0.188177,-0.619861,0.831405,0.958337,-0.230162,0.169156,-0.001502,-27.823888,18.876283,-4.895227
40631,NaN,-0.830885,-4.106155,9.564071,2.625909,0.623140,0.273866,-0.312362,-0.490168,0.799294,0.958400,-0.230944,0.167702,0.003098,-27.815643,18.837281,-4.333919
40632,NaN,-1.180738,-4.417864,9.478511,2.286525,0.356522,0.453688,-0.340195,-0.385455,0.746327,0.958324,-0.231898,0.166689,0.007347,-27.841967,18.837817,-3.830637
40633,NaN,-1.633408,-4.497072,9.260888,1.795378,0.239605,0.452540,-0.323148,-0.350271,0.683754,0.958222,-0.232823,0.165764,0.011240,-27.872830,18.839097,-3.370778
40634,NaN,-2.216206,-4.517850,8.919418,1.138316,0.116253,0.364211,-0.297304,-0.346111,0.635520,0.958135,-0.233657,0.164806,0.014875,-27.897298,18.830144,-2.937916
40635,NaN,-2.791702,-4.467257,8.699915,0.516567,0.099679,0.344168,-0.274828,-0.379781,0.600281,0.958090,-0.234409,0.163641,0.018363,-27.912400,18.794459,-2.514420
40636,NaN,-3.036602,-4.551135,8.817211,0.320861,0.093100,0.558685,-0.244478,-0.420049,0.583481,0.958102,-0.235020,0.162266,0.021792,-27.909357,18.734219,-2.088610
40637,NaN,-3.141395,-4.599836,8.938868,0.251147,0.109331,0.716091,-0.213909,-0.447584,0.595139,0.958158,-0.235472,0.160772,0.025284,-27.885174,18.662769,-1.648965
40638,NaN,-3.409498,-4.524887,9.199223,0.050577,0.297473,0.987031,-0.175959,-0.454815,0.630516,0.958245,-0.235706,0.159290,0.028923,-27.832760,18.597113,-1.188580
40639,NaN,-3.726637,-4.493844,9.350591,-0.224509,0.390014,1.201552,-0.173244,-0.467596,0.690030,0.958320,-0.235877,0.157811,0.032860,-27.768418,18.540176,-0.693023
40640,NaN,-3.856760,-4.384707,9.141015,-0.437788,0.375765,1.019003,-0.167377,-0.499961,0.731833,0.958404,-0.235973,0.156228,0.037030,-27.690896,18.477652,-0.166242
40641,NaN,-3.408859,-4.226638,8.877788,-0.128731,0.376563,0.586422,-0.184201,-0.581370,0.741645,0.958509,-0.236126,0.154257,0.041355,-27.615369,18.375489,0.388249
40642,NaN,-2.922989,-4.122303,8.758890,0.259826,0.404547,0.288014,-0.200739,-0.634515,0.762176,0.958608,-0.236322,0.152051,0.045854,-27.541958,18.251379,0.968086
40643,NaN,-2.739188,-3.993219,8.590465,0.341677,0.433927,0.033121,-0.212958,-0.658791,0.766211,0.958686,-0.236565,0.149724,0.050408,-27.474642,18.115043,1.556230
40644,NaN,-2.768431,-3.984534,8.481642,0.254880,0.382349,-0.052168,-0.241479,-0.697235,0.761671,0.958735,-0.236928,0.147198,0.055006,-27.422263,17.957621,2.152003
40645,NaN,-2.513873,-4.052903,8.548702,0.494463,0.357089,-0.042642,-0.237567,-0.717367,0.744647,0.958780,-0.237277,0.144551,0.059542,-27.371055,17.784713,2.743526
40646,NaN,-2.464427,-4.060164,8.500811,0.500114,0.325211,-0.093316,-0.215646,-0.672229,0.726681,0.958800,-0.237537,0.142103,0.063921,-27.315308,17.629723,3.312294
40647,NaN,-2.923500,-4.080590,8.491664,0.039170,0.269336,0.047956,-0.198113,-0.613937,0.745551,0.958768,-0.237717,0.139958,0.068307,-27.253329,17.508618,3.874453
40648,NaN,-3.902719,-4.163375,8.872194,-0.805632,0.297270,0.701268,-0.171431,-0.553274,0.801711,0.958685,-0.237740,0.138177,0.072869,-27.172577,17.432629,4.449510
40649,NaN,-4.291316,-4.193819,8.789240,-1.202865,0.178316,0.759706,-0.192354,-0.551154,0.821051,0.958544,-0.237849,0.136417,0.077535,-27.102242,17.361893,5.033958
40650,NaN,-3.936949,-4.152976,8.279971,-1.003451,-0.022934,0.202162,-0.213509,-0.596441,0.824260,0.958384,-0.238029,0.134434,0.082282,-27.040163,17.268485,5.632167
40651,NaN,-3.290177,-4.045871,8.021480,-0.485972,-0.012386,-0.257474,-0.209124,-0.651623,0.832181,0.958235,-0.238158,0.132192,0.087128,-26.971650,17.148077,6.249154
40652,NaN,-2.587804,-3.922919,7.917458,0.109946,0.102466,-0.606737,-0.200123,-0.696472,0.820701,0.958105,-0.238220,0.129724,0.091964,-26.897165,17.001353,6.871608
40653,NaN,-1.881232,-3.852038,7.956035,0.746139,0.255285,-0.809702,-0.223800,-0.717590,0.777204,0.957952,-0.238412,0.127086,0.096629,-26.843782,16.831599,7.475819
40654,NaN,-1.678248,-3.952419,8.095280,0.962715,0.259118,-0.703480,-0.244105,-0.695943,0.740257,0.957753,-0.238724,0.124497,0.101102,-26.810665,16.663197,8.053823
40655,NaN,-1.335263,-4.061132,8.176617,1.303257,0.253785,-0.681979,-0.245419,-0.641164,0.668835,0.957529,-0.239113,0.122078,0.105165,-26.795777,16.503852,8.578342
40656,NaN,-1.974497,-4.099984,8.557399,0.749718,0.316078,-0.154761,-0.232175,-0.607181,0.625632,0.957304,-0.239473,0.119777,0.108971,-26.783311,16.350767,9.070228
40657,NaN,-2.008253,-4.107244,8.512824,0.687323,0.283971,-0.178497,-0.216823,-0.510955,0.586868,0.957043,-0.239836,0.117894,0.112464,-26.776902,16.236662,9.515196
40658,NaN,-2.726330,-4.019767,8.528382,-0.030752,0.251729,-0.001450,-0.198827,-0.408976,0.562912,0.956744,-0.240175,0.116480,0.115709,-26.771448,16.168573,9.919827
40659,NaN,-2.941543,-3.906359,8.233109,-0.328262,0.164854,-0.243913,-0.180086,-0.417371,0.556434,0.956463,-0.240426,0.115027,0.118920,-26.756799,16.094372,10.323053
40660,NaN,-3.222334,-3.866147,8.252800,-0.613376,0.153455,-0.166992,-0.192270,-0.389033,0.569310,0.956133,-0.240736,0.113717,0.122164,-26.749119,16.038028,10.725425
40661,NaN,-3.422829,-3.910868,8.366036,-0.782390,0.126447,0.004291,-0.191803,-0.406265,0.585047,0.955790,-0.241027,0.112341,0.125503,-26.738720,15.976749,11.140624
40662,NaN,-2.936479,-3.972633,8.194171,-0.341081,0.075278,-0.250933,-0.241647,-0.359657,0.583705,0.955350,-0.241577,0.111155,0.128805,-26.760156,15.939206,11.542550
40663,NaN,-3.370820,-4.171733,8.317282,-0.682053,-0.118819,0.059680,-0.252954,-0.420379,0.563356,0.954930,-0.242156,0.109644,0.132088,-26.787700,15.865319,11.949815
40664,NaN,-2.778435,-4.221616,8.132050,-0.153546,-0.136660,-0.240347,-0.266868,-0.543565,0.565301,0.954546,-0.242708,0.107539,0.135535,-26.813903,15.729331,12.391082
40665,NaN,-2.525064,-4.411634,8.536243,0.180832,-0.045720,0.120645,-0.252697,-0.459722,0.561967,0.954120,-0.243255,0.105835,0.138855,-26.840248,15.635332,12.807805
40666,NaN,-2.770398,-4.587999,8.784475,0.023807,-0.123750,0.476916,-0.230320,-0.448892,0.559431,0.953705,-0.243694,0.104197,0.142135,-26.854890,15.546541,13.220157
