// General information: 
//  MT Manager version: 2019.0.1 
//  XDA version: 2019.0.1 build 2740 rev 84096 built on 2019-01-30
// Device information: 
//  DeviceId: 00B43876
//  ProductCode: MTW2-3A7G6
//  Firmware Version: 4.3.4
//  Hardware Version: 1.1.0
// Device settings: 
//  Filter Profile: human(46.1)
//  Option Flags: Orientation Smoother Disabled, AHS Disabled, ICC Disabled
// Coordinate system: ENU
PacketCounter,SampleTimeFine,Acc_X,Acc_Y,Acc_Z,FreeAcc_E,FreeAcc_N,FreeAcc_U,Gyr_X,Gyr_Y,Gyr_Z,Quat_q0,Quat_q1,Quat_q2,Quat_q3,Roll,Pitch,Yaw
32817,NaN,1.555318,9.681153,-0.983428,0.010909,-0.031998,0.041739,-0.000280,-0.006942,-0.004807,0.273204,0.190727,-0.715500,-0.614038,95.614967,-9.017001,-141.971083
32818,NaN,1.554847,9.681234,-0.983372,0.010968,-0.031429,0.041741,-0.002998,-0.006330,-0.003559,0.273162,0.190685,-0.715519,-0.614048,95.616209,-9.016935,-141.978438
32819,NaN,1.539929,9.690041,-0.965712,0.011558,-0.006870,0.046354,0.003692,-0.004462,-0.008447,0.273103,0.190671,-0.715553,-0.614039,95.621232,-9.014196,-141.984963
32820,NaN,1.528408,9.715461,-0.986983,0.034555,-0.011680,0.071594,0.001961,-0.002410,-0.009416,0.273052,0.190668,-0.715576,-0.614036,95.624907,-9.011010,-141.989722
32821,NaN,1.552611,9.681539,-0.983903,0.011123,-0.029688,0.041746,-0.000834,-0.001679,-0.004706,0.273020,0.190646,-0.715594,-0.614035,95.627044,-9.010569,-141.994504
32822,NaN,1.519420,9.693019,-0.982055,0.036100,-0.005961,0.047655,-0.000489,-0.000145,-0.008341,0.272983,0.190643,-0.715608,-0.614036,95.629121,-9.008123,-141.998017
32823,NaN,1.504357,9.701865,-0.964162,0.036695,0.018585,0.052260,-0.002385,-0.003145,-0.007368,0.272940,0.190625,-0.715621,-0.614046,95.630502,-9.006010,-142.003326
32824,NaN,1.514938,9.741232,-1.007763,0.057709,-0.014761,0.096837,-0.000384,-0.003544,-0.006574,0.272896,0.190606,-0.715641,-0.614048,95.632962,-9.004380,-142.008902
32825,NaN,1.496132,9.743963,-1.023823,0.082114,-0.014987,0.098138,0.001703,0.001228,-0.004260,0.272872,0.190593,-0.715665,-0.614035,95.636376,-9.004315,-142.012300
32826,NaN,1.535167,9.701260,-1.038444,0.058124,-0.056982,0.063695,-0.001627,-0.001347,0.000799,0.272860,0.190552,-0.715685,-0.614029,95.637991,-9.007012,-142.017027
32827,NaN,1.539249,9.707304,-1.004650,0.034345,-0.031604,0.066998,0.001446,0.004865,0.000896,0.272864,0.190531,-0.715709,-0.614006,95.641022,-9.010060,-142.018731
32828,NaN,1.535866,9.690651,-0.966058,0.012031,-0.001686,0.046355,0.002729,0.004679,0.003733,0.272879,0.190504,-0.715737,-0.613975,95.644615,-9.014769,-142.020147
32829,NaN,1.521915,9.699294,-0.948443,0.012650,0.022873,0.050952,0.002892,0.009730,0.001791,0.272903,0.190497,-0.715759,-0.613942,95.647932,-9.018702,-142.018947
32830,NaN,1.518213,9.693163,-0.982500,0.036515,-0.001352,0.047655,0.005715,0.005719,0.002310,0.272914,0.190482,-0.715793,-0.613901,95.653129,-9.022659,-142.019682
32831,NaN,1.511878,9.724422,-0.970258,0.035672,0.018649,0.076192,0.007447,0.003667,0.003279,0.272916,0.190459,-0.715838,-0.613855,95.659731,-9.026942,-142.021995
32832,NaN,1.508092,9.718263,-1.004688,0.059533,-0.005579,0.072898,0.007255,0.001895,-0.000008,0.272905,0.190443,-0.715881,-0.613815,95.666136,-9.029361,-142.024806
32833,NaN,1.548332,9.729472,-1.012052,0.033216,-0.032701,0.090950,0.005628,0.000548,0.000791,0.272893,0.190419,-0.715921,-0.613781,95.671812,-9.032130,-142.028365
32834,NaN,1.522441,9.709438,-1.023406,0.059073,-0.028410,0.068308,0.001627,0.001347,-0.000799,0.272882,0.190396,-0.715946,-0.613763,95.675035,-9.034066,-142.031447
32835,NaN,1.518711,9.692850,-0.984817,0.036763,0.001524,0.047654,0.001359,-0.000306,-0.000624,0.272865,0.190366,-0.715974,-0.613748,95.678358,-9.036030,-142.035771
32836,NaN,1.540612,9.706761,-1.007795,0.034819,-0.026429,0.067011,0.003628,0.000947,-0.000004,0.272854,0.190342,-0.716007,-0.613722,95.682771,-9.038396,-142.039130
32837,NaN,1.569301,9.678817,-0.971096,-0.012436,-0.019636,0.040469,0.002240,0.004532,-0.004609,0.272842,0.190343,-0.716026,-0.613704,95.686138,-9.038312,-142.040301
32838,NaN,1.554301,9.698116,-1.025787,0.034346,-0.049252,0.062430,-0.000851,0.006890,-0.004954,0.272841,0.190349,-0.716032,-0.613696,95.687401,-9.038193,-142.039945
32839,NaN,1.557921,9.704274,-0.991704,0.010593,-0.023872,0.065716,-0.003301,0.009154,-0.003881,0.272854,0.190357,-0.716029,-0.613692,95.687163,-9.038720,-142.038107
32840,NaN,1.557703,9.704353,-0.991273,0.010653,-0.023303,0.065717,-0.002928,0.007408,-0.002287,0.272865,0.190352,-0.716030,-0.613687,95.687213,-9.040151,-142.037605
32841,NaN,1.535270,9.701014,-1.040590,0.058847,-0.048369,0.063737,-0.003569,0.007501,-0.003706,0.272872,0.190351,-0.716029,-0.613685,95.686994,-9.040762,-142.037172
32842,NaN,1.557064,9.704554,-0.990315,0.010758,-0.022149,0.065720,-0.004315,0.010992,-0.006892,0.272883,0.190371,-0.716017,-0.613688,95.685883,-9.039771,-142.034336
32843,NaN,1.552652,9.698627,-1.023448,0.034580,-0.046381,0.062443,-0.004497,0.014510,-0.005198,0.272910,0.190396,-0.716002,-0.613685,95.684493,-9.039910,-142.029740
32844,NaN,1.545387,9.730158,-1.009958,0.033790,-0.026374,0.090967,-0.004256,0.019439,-0.010600,0.272940,0.190456,-0.715975,-0.613685,95.682616,-9.037284,-142.021815
32845,NaN,1.529452,9.685048,-0.999153,0.036690,-0.016720,0.043076,-0.009302,0.010348,-0.006265,0.272954,0.190465,-0.715951,-0.613705,95.678884,-9.036549,-142.019655
32846,NaN,1.536384,9.707898,-1.003290,0.035316,-0.020686,0.067023,-0.004236,0.010870,-0.010352,0.272954,0.190498,-0.715936,-0.613712,95.677798,-9.033578,-142.016691
32847,NaN,1.539484,9.714161,-0.968812,0.011576,0.004727,0.070297,-0.007223,0.009828,-0.008931,0.272954,0.190515,-0.715916,-0.613729,95.675306,-9.031324,-142.014947
32848,NaN,1.520403,9.717010,-0.984101,0.036002,0.004449,0.071595,-0.004772,0.007565,-0.010004,0.272944,0.190536,-0.715905,-0.613741,95.674217,-9.028364,-142.013912
32849,NaN,1.511980,9.694539,-0.978536,0.037489,0.009571,0.047647,-0.005491,0.007777,-0.007961,0.272937,0.190545,-0.715894,-0.613753,95.672867,-9.026636,-142.013559
32850,NaN,1.540887,9.731337,-1.005469,0.034086,-0.022890,0.090975,-0.007654,0.003125,-0.006817,0.272924,0.190537,-0.715883,-0.613775,95.670558,-9.025242,-142.015269
32851,NaN,1.528803,9.692242,-0.961293,0.013232,0.011573,0.046347,-0.001947,0.003556,-0.009484,0.272897,0.190546,-0.715887,-0.613780,95.671578,-9.022330,-142.016786
32852,NaN,1.499253,9.720326,-0.997939,0.060587,0.005908,0.072891,-0.003386,0.003981,-0.005399,0.272886,0.190541,-0.715889,-0.613784,95.671648,-9.021792,-142.018084
32853,NaN,1.502101,9.737101,-1.036339,0.082963,-0.022860,0.093575,-0.001601,0.005088,-0.013118,0.272852,0.190568,-0.715888,-0.613791,95.672720,-9.016915,-142.018728
32854,NaN,1.508944,9.749375,-0.968601,0.035497,0.027376,0.100102,-0.001307,0.003463,-0.008064,0.272830,0.190574,-0.715895,-0.613792,95.674005,-9.014829,-142.020172
32855,NaN,1.548576,9.760822,-0.975037,0.009128,0.000326,0.118192,-0.001677,0.010497,-0.004674,0.272841,0.190587,-0.715895,-0.613782,95.674654,-9.014999,-142.018042
32856,NaN,1.555102,9.729552,-0.987350,0.010020,-0.018561,0.089683,-0.005383,0.009666,-0.001212,0.272866,0.190582,-0.715887,-0.613782,95.673104,-9.017170,-142.016298
32857,NaN,1.535910,9.678248,-1.010633,0.036698,-0.033771,0.038525,-0.004023,0.009361,-0.001835,0.272883,0.190576,-0.715885,-0.613779,95.672519,-9.019011,-142.015395
32858,NaN,1.553891,9.675722,-0.993921,0.012393,-0.032341,0.037229,-0.007571,0.008291,-0.005296,0.272892,0.190578,-0.715868,-0.613794,95.669803,-9.018777,-142.014210
32859,NaN,1.532515,9.715862,-0.962789,0.012220,0.011685,0.070290,-0.002640,0.000490,-0.002215,0.272877,0.190551,-0.715881,-0.613794,95.670768,-9.019850,-142.017972
32860,NaN,1.528505,9.709866,-0.996257,0.036036,-0.012590,0.067034,-0.004162,-0.004255,0.000347,0.272856,0.190499,-0.715897,-0.613801,95.671192,-9.022122,-142.024354
32861,NaN,1.514125,9.718599,-0.978065,0.036693,0.011980,0.071586,-0.005627,-0.000553,-0.000795,0.272842,0.190458,-0.715904,-0.613811,95.670593,-9.023968,-142.029107
32862,NaN,1.553502,9.675973,-0.992082,0.012600,-0.030030,0.037236,-0.005974,-0.002086,0.002839,0.272838,0.190401,-0.715914,-0.613819,95.669804,-9.027784,-142.034379
32863,NaN,1.567854,9.667350,-1.009264,0.012034,-0.053427,0.032689,-0.006267,-0.000460,-0.002214,0.272823,0.190366,-0.715917,-0.613833,95.668752,-9.028817,-142.038606
32864,NaN,1.560910,9.698810,-0.995672,0.011272,-0.033386,0.061191,-0.009627,0.000241,-0.002387,0.272815,0.190331,-0.715908,-0.613859,95.665613,-9.029786,-142.042236
32865,NaN,1.524297,9.704257,-1.026390,0.060035,-0.034549,0.063788,-0.016799,0.003509,-0.000862,0.272827,0.190289,-0.715875,-0.613905,95.658246,-9.031760,-142.044366
32866,NaN,1.546477,9.707842,-0.974546,0.011987,-0.008251,0.065740,-0.023971,0.006775,0.000662,0.272865,0.190242,-0.715815,-0.613972,95.646324,-9.034836,-142.044398
32867,NaN,1.546416,9.708055,-0.972525,0.012035,-0.007667,0.065740,-0.015010,0.009905,-0.003594,0.272891,0.190233,-0.715776,-0.614009,95.639325,-9.035648,-142.042564
32868,NaN,1.532024,9.716896,-0.953083,0.012719,0.016882,0.070282,-0.016450,0.010326,0.000490,0.272934,0.190208,-0.715734,-0.614046,95.631389,-9.038827,-142.040535
32869,NaN,1.524267,9.705006,-1.019323,0.060246,-0.032262,0.063794,-0.007116,0.011713,-0.002174,0.272965,0.190212,-0.715717,-0.614051,95.628728,-9.040523,-142.037448
32870,NaN,1.531984,9.717107,-0.950999,0.012831,0.018029,0.070280,-0.004849,0.012968,-0.001551,0.273000,0.190219,-0.715706,-0.614046,95.627180,-9.042686,-142.033776
32871,NaN,1.546298,9.708534,-0.967915,0.012258,-0.005371,0.065741,-0.009010,0.008712,-0.001207,0.273025,0.190205,-0.715688,-0.614060,95.623709,-9.044805,-142.032618
32872,NaN,1.495338,9.722605,-0.981473,0.061676,0.017410,0.072871,-0.003303,0.009148,-0.003871,0.273038,0.190211,-0.715685,-0.614056,95.623372,-9.045430,-142.031020
32873,NaN,1.502803,9.745340,-0.985981,0.060296,0.013497,0.096824,-0.001489,0.012266,-0.001377,0.273067,0.190219,-0.715686,-0.614040,95.623880,-9.047671,-142.027847
32874,NaN,1.527475,9.711445,-0.982348,0.036801,-0.004537,0.067038,-0.004314,0.010986,-0.006881,0.273079,0.190240,-0.715673,-0.614043,95.622770,-9.046683,-142.025016
32875,NaN,1.508931,9.714209,-0.997818,0.061220,-0.004839,0.068335,-0.003756,0.011010,-0.002001,0.273102,0.190241,-0.715669,-0.614037,95.622130,-9.048523,-142.022863
32876,NaN,1.574035,9.691639,-1.000822,0.011284,-0.050454,0.056681,-0.002024,0.008961,-0.001032,0.273122,0.190238,-0.715672,-0.614025,95.622569,-9.050756,-142.021534
32877,NaN,1.592143,9.689032,-0.984488,-0.013024,-0.048985,0.055388,-0.000769,0.012054,-0.003418,0.273144,0.190255,-0.715673,-0.614009,95.623467,-9.051812,-142.018205
32878,NaN,1.565932,9.669102,-0.995368,0.012836,-0.044823,0.032731,-0.001221,0.008633,-0.006535,0.273145,0.190271,-0.715674,-0.614002,95.624346,-9.050889,-142.016753
32879,NaN,1.550824,9.677893,-0.977442,0.013529,-0.020243,0.037260,0.000222,0.008211,-0.010618,0.273126,0.190298,-0.715679,-0.613997,95.626211,-9.047696,-142.016124
32880,NaN,1.531657,9.680725,-0.993207,0.037952,-0.020571,0.038557,-0.003672,0.005607,-0.010449,0.273107,0.190316,-0.715672,-0.614008,95.625926,-9.044372,-142.016197
32881,NaN,1.538446,9.703571,-0.997720,0.036546,-0.024472,0.062514,-0.002394,0.005421,-0.007610,0.273093,0.190325,-0.715674,-0.614009,95.626565,-9.042575,-142.016637
32882,NaN,1.563546,9.723755,-0.986154,0.010803,-0.027483,0.085176,-0.004393,0.005817,-0.008407,0.273081,0.190335,-0.715667,-0.614019,95.625866,-9.040426,-142.016704
32883,NaN,1.536867,9.703913,-0.996826,0.036637,-0.023316,0.062517,-0.002605,0.012214,-0.011134,0.273079,0.190375,-0.715656,-0.614020,95.625779,-9.037022,-142.013319
32884,NaN,1.528379,9.681398,-0.991696,0.038137,-0.018272,0.038561,-0.000206,0.001510,-0.008512,0.273047,0.190378,-0.715668,-0.614020,95.627868,-9.034571,-142.015867
32885,NaN,1.531401,9.687543,-0.957701,0.014483,0.007207,0.041784,-0.002766,0.007164,-0.009200,0.273033,0.190393,-0.715666,-0.614024,95.628089,-9.032135,-142.015741
32886,NaN,1.534276,9.704411,-0.995963,0.036817,-0.021587,0.062520,-0.003938,0.003953,-0.010277,0.273008,0.190405,-0.715661,-0.614037,95.627803,-9.028816,-142.016778
32887,NaN,1.544781,9.733284,-0.966550,0.011714,-0.000592,0.089699,-0.006098,-0.000700,-0.009140,0.272972,0.190397,-0.715658,-0.614059,95.626781,-9.025850,-142.020462
32888,NaN,1.525612,9.725437,-0.909661,-0.009838,0.053325,0.073473,-0.004016,-0.001213,-0.011804,0.272924,0.190398,-0.715659,-0.614079,95.626904,-9.021370,-142.024395
32889,NaN,1.553410,9.708366,-0.944700,-0.011084,0.005956,0.064445,-0.004927,0.002511,-0.008063,0.272899,0.190391,-0.715657,-0.614095,95.626326,-9.019332,-142.027119
32890,NaN,1.508565,9.691167,-0.971190,0.039144,0.009171,0.043076,-0.009458,-0.000003,-0.009314,0.272868,0.190380,-0.715642,-0.614130,95.623243,-9.016340,-142.030495
32891,NaN,1.544058,9.686098,-0.938422,-0.009535,0.011579,0.040485,-0.004205,0.002300,-0.010104,0.272836,0.190384,-0.715640,-0.614144,95.623085,-9.013006,-142.032754
32892,NaN,1.565008,9.700352,-0.960737,-0.011574,-0.016300,0.059936,-0.002548,-0.004913,-0.010664,0.272777,0.190372,-0.715652,-0.614161,95.624393,-9.008968,-142.038888
32893,NaN,1.556893,9.731877,-0.947843,-0.012302,0.003817,0.088403,0.001587,0.002624,-0.016225,0.272721,0.190405,-0.715662,-0.614164,95.627481,-9.002220,-142.040911
32894,NaN,1.511467,9.714684,-0.975062,0.037926,0.007016,0.067033,-0.000762,0.001484,-0.013390,0.272675,0.190425,-0.715668,-0.614172,95.629209,-8.996987,-142.043197
32895,NaN,1.514014,9.720862,-0.941345,0.014254,0.032504,0.070241,0.001801,-0.004169,-0.012702,0.272606,0.190428,-0.715691,-0.614174,95.633128,-8.991710,-142.049025
32896,NaN,1.490672,9.717659,-0.991651,0.062375,0.007247,0.068326,0.006522,-0.005169,-0.013150,0.272530,0.190436,-0.715728,-0.614162,95.639632,-8.986239,-142.055164
32897,NaN,1.467423,9.703700,-0.969837,0.064536,0.036279,0.048866,0.008787,-0.003912,-0.012524,0.272454,0.190445,-0.715773,-0.614140,95.647480,-8.981224,-142.061219
32898,NaN,1.513236,9.683893,-0.990559,0.038898,-0.010205,0.038569,0.016678,-0.002093,-0.011099,0.272386,0.190469,-0.715839,-0.614086,95.659542,-8.977094,-142.065698
32899,NaN,1.483405,9.701118,-0.956820,0.040284,0.038364,0.047566,0.017616,-0.009096,-0.009616,0.272291,0.190463,-0.715922,-0.614034,95.672991,-8.973436,-142.075153
32900,NaN,1.471939,9.726337,-0.979866,0.063268,0.033552,0.072819,0.023955,-0.003461,-0.005871,0.272226,0.190474,-0.716017,-0.613947,95.689392,-8.972208,-142.080720
32901,NaN,1.464654,9.757460,-0.969637,0.062546,0.053668,0.101274,0.027532,-0.010950,-0.002171,0.272142,0.190453,-0.716138,-0.613850,95.708673,-8.972620,-142.090990
32902,NaN,1.493433,9.729256,-0.935929,0.015330,0.060544,0.074720,0.036436,-0.010968,0.002264,0.272064,0.190429,-0.716290,-0.613716,95.732974,-8.975597,-142.101359
32903,NaN,1.493726,9.728838,-0.939800,0.015389,0.061124,0.074717,0.038919,-0.016504,0.006417,0.271975,0.190376,-0.716461,-0.613571,95.759314,-8.980626,-142.115307
32904,NaN,1.526630,9.727709,-1.018077,0.036334,-0.015648,0.086496,0.040279,-0.016812,0.005797,0.271883,0.190327,-0.716636,-0.613423,95.786378,-8.985270,-142.129258
32905,NaN,1.530194,9.679246,-0.996370,0.014881,-0.005232,0.037277,0.040654,-0.018559,0.007391,0.271785,0.190263,-0.716818,-0.613274,95.814089,-8.990636,-142.145024
32906,NaN,1.556285,9.709373,-1.061791,0.035052,-0.062462,0.077521,0.037185,-0.014471,0.005453,0.271703,0.190218,-0.716980,-0.613135,95.839169,-8.995207,-142.157608
32907,NaN,1.566984,9.683731,-1.044310,0.012175,-0.056490,0.052268,0.031422,-0.008367,-0.002336,0.271621,0.190208,-0.717110,-0.613023,95.860501,-8.995713,-142.166919
32908,NaN,1.534234,9.694677,-1.045609,0.037280,-0.032873,0.058050,0.027715,-0.009199,0.001124,0.271554,0.190181,-0.717231,-0.612919,95.879641,-8.998116,-142.176208
32909,NaN,1.570397,9.699734,-1.088639,0.034479,-0.084698,0.073048,0.023606,-0.005017,-0.002236,0.271491,0.190171,-0.717333,-0.612830,95.896274,-8.998756,-142.183518
32910,NaN,1.552725,9.756191,-1.098379,0.056698,-0.069957,0.126757,0.005816,-0.002960,-0.000895,0.271461,0.190141,-0.717377,-0.612802,95.902285,-9.000371,-142.189089
32911,NaN,1.570042,9.699586,-1.090471,0.034582,-0.083549,0.073057,0.000721,-0.000215,-0.002041,0.271440,0.190116,-0.717401,-0.612791,95.905222,-9.001513,-142.193304
32912,NaN,1.526524,9.736128,-1.109578,0.082608,-0.065315,0.104093,-0.004906,-0.000773,-0.002838,0.271422,0.190085,-0.717407,-0.612801,95.904875,-9.002150,-142.197497
32913,NaN,1.526193,9.736283,-1.108674,0.082659,-0.064736,0.104096,-0.013627,0.001019,-0.003984,0.271414,0.190051,-0.717384,-0.612843,95.899441,-9.002264,-142.200811
32914,NaN,1.525982,9.736488,-1.107158,0.082716,-0.064170,0.104100,-0.016804,0.003494,-0.000873,0.271428,0.190010,-0.717349,-0.612889,95.891910,-9.004272,-142.202659
32915,NaN,1.551650,9.756869,-1.093867,0.056954,-0.067061,0.126775,-0.026200,0.013939,-0.003687,0.271478,0.189995,-0.717271,-0.612963,95.878177,-9.005315,-142.198881
32916,NaN,1.529263,9.699605,-1.148352,0.107226,-0.107520,0.072485,-0.033246,0.015828,0.009804,0.271585,0.189931,-0.717180,-0.613043,95.860210,-9.014133,-142.194243
32917,NaN,1.570516,9.711351,-1.150927,0.080783,-0.134404,0.090691,-0.044001,0.026572,0.007617,0.271732,0.189891,-0.717040,-0.613153,95.835140,-9.022439,-142.183663
32918,NaN,1.521023,9.715051,-1.087592,0.084387,-0.057441,0.080146,-0.052837,0.037041,0.009690,0.271934,0.189866,-0.716859,-0.613283,95.804023,-9.032419,-142.166767
32919,NaN,1.515990,9.746761,-1.068867,0.083652,-0.037285,0.108586,-0.056553,0.041486,0.018135,0.272176,0.189818,-0.716671,-0.613410,95.770736,-9.047313,-142.148322
32920,NaN,1.543480,9.713151,-1.059126,0.060090,-0.055331,0.078859,-0.063281,0.048155,0.022775,0.272468,0.189766,-0.716456,-0.613548,95.732735,-9.065371,-142.125758
32921,NaN,1.496449,9.781342,-1.058448,0.107353,-0.017529,0.138316,-0.066914,0.052468,0.027765,0.272792,0.189706,-0.716229,-0.613687,95.692471,-9.086359,-142.100942
32922,NaN,1.514462,9.762260,-0.995977,0.060846,0.013369,0.116230,-0.074632,0.057683,0.034623,0.273165,0.189625,-0.715977,-0.613841,95.647182,-9.111680,-142.073527
32923,NaN,1.464072,9.759663,-0.963388,0.088118,0.065398,0.102482,-0.079066,0.057029,0.040129,0.273553,0.189514,-0.715718,-0.614003,95.599605,-9.140075,-142.047235
32924,NaN,1.436291,9.771077,-0.953177,0.113255,0.088996,0.108233,-0.080840,0.047324,0.048078,0.273935,0.189345,-0.715474,-0.614170,95.551798,-9.172447,-142.026516
32925,NaN,1.505927,9.694516,-0.956163,0.065326,0.028354,0.044322,-0.079171,0.036806,0.052738,0.274291,0.189130,-0.715254,-0.614334,95.506097,-9.206784,-142.012183
32926,NaN,1.525754,9.685860,-0.965963,0.064674,0.004929,0.039860,-0.074695,0.025577,0.052689,0.274604,0.188886,-0.715062,-0.614493,95.463833,-9.240563,-142.004229
32927,NaN,1.553130,9.688809,-0.908649,0.016704,0.031437,0.041733,-0.071136,0.018061,0.056384,0.274896,0.188610,-0.714895,-0.614641,95.424490,-9.275960,-142.000983
32928,NaN,1.573012,9.680002,-0.919384,0.016050,0.008015,0.037274,-0.068494,0.012283,0.053607,0.275158,0.188330,-0.714741,-0.614788,95.387011,-9.309534,-142.000715
32929,NaN,1.560112,9.682560,-0.928959,0.040452,0.007629,0.038566,-0.062412,0.010966,0.052547,0.275406,0.188058,-0.714607,-0.614917,95.353257,-9.342383,-142.001271
32930,NaN,1.627595,9.707732,-0.951526,0.011818,-0.047629,0.076303,-0.063047,0.011048,0.051134,0.275650,0.187791,-0.714469,-0.615049,95.318985,-9.374481,-142.001542
32931,NaN,1.596183,9.701909,-0.905474,0.014750,0.005344,0.061242,-0.054334,0.009234,0.052291,0.275884,0.187527,-0.714361,-0.615150,95.289975,-9.407076,-142.002773
32932,NaN,1.609237,9.724201,-0.904902,0.013365,0.001515,0.085211,-0.050794,0.010272,0.055771,0.276129,0.187257,-0.714266,-0.615233,95.262832,-9.441778,-142.003706
32933,NaN,1.657615,9.686770,-0.880821,-0.034608,-0.015540,0.054207,-0.046717,0.017913,0.053712,0.276390,0.187026,-0.714171,-0.615296,95.237456,-9.475564,-142.000094
32934,NaN,1.647219,9.640943,-0.867056,-0.031651,-0.006161,0.006267,-0.039458,0.014550,0.048726,0.276618,0.186810,-0.714098,-0.615344,95.216336,-9.506471,-141.998150
32935,NaN,1.659573,9.663183,-0.867804,-0.033073,-0.009961,0.030238,-0.036374,0.015493,0.043859,0.276827,0.186617,-0.714030,-0.615387,95.197080,-9.534569,-141.995931
32936,NaN,1.641584,9.648662,-0.842043,-0.030834,0.019008,0.010713,-0.027392,0.018636,0.039639,0.277030,0.186463,-0.713980,-0.615401,95.182396,-9.560501,-141.991124
32937,NaN,1.645114,9.648279,-0.839546,-0.030805,0.019604,0.010712,-0.019502,0.009931,0.031050,0.277165,0.186322,-0.713960,-0.615406,95.173204,-9.580991,-141.991289
32938,NaN,1.659413,9.676239,-0.808887,-0.055818,0.040764,0.037834,-0.007527,0.005573,0.025612,0.277260,0.186206,-0.713976,-0.615381,95.171034,-9.598242,-141.993298
32939,NaN,1.657901,9.670260,-0.842274,-0.032165,0.016365,0.034682,-0.001452,-0.000979,0.019524,0.277307,0.186103,-0.714013,-0.615347,95.173062,-9.611513,-141.998483
32940,NaN,1.641468,9.672915,-0.858328,-0.007743,0.015958,0.035973,0.000546,0.001927,0.015113,0.277349,0.186024,-0.714049,-0.615310,95.175779,-9.622586,-142.002053
32941,NaN,1.642656,9.672686,-0.858629,-0.007704,0.016564,0.035972,0.004712,-0.007625,0.009972,0.277333,0.185935,-0.714109,-0.615275,95.181981,-9.630220,-142.011652
32942,NaN,1.643000,9.672533,-0.859699,-0.007641,0.017141,0.035971,0.014144,-0.011572,-0.001151,0.277264,0.185892,-0.714190,-0.615225,95.193655,-9.631312,-142.022183
32943,NaN,1.636077,9.703662,-0.848583,-0.008353,0.037325,0.064379,0.022943,-0.013482,-0.003465,0.277172,0.185867,-0.714299,-0.615147,95.210757,-9.630675,-142.033286
32944,NaN,1.641858,9.672309,-0.864386,-0.007581,0.018293,0.035969,0.027020,-0.019634,-0.010350,0.277034,0.185850,-0.714423,-0.615071,95.230507,-9.626092,-142.047996
32945,NaN,1.644580,9.689253,-0.906003,0.014621,-0.010478,0.056800,0.030467,-0.020438,-0.013637,0.276876,0.185843,-0.714557,-0.614988,95.252496,-9.619547,-142.063635
32946,NaN,1.635029,9.666545,-0.905005,0.016132,-0.005519,0.032827,0.037994,-0.022148,-0.018792,0.276693,0.185863,-0.714710,-0.614887,95.278698,-9.610004,-142.079346
32947,NaN,1.648539,9.711850,-0.918290,0.013281,-0.013707,0.080775,0.035453,-0.025052,-0.019259,0.276501,0.185874,-0.714858,-0.614798,95.303753,-9.599972,-142.096373
32948,NaN,1.646412,9.711823,-0.922383,0.013342,-0.013129,0.080776,0.040443,-0.024413,-0.019869,0.276304,0.185894,-0.715020,-0.614691,95.331559,-9.589680,-142.113326
32949,NaN,1.636216,9.689154,-0.922057,0.014822,-0.008168,0.056802,0.042074,-0.019766,-0.025866,0.276104,0.185954,-0.715176,-0.614582,95.359931,-9.576085,-142.127172
32950,NaN,1.641291,9.711852,-0.931164,0.013433,-0.011969,0.080777,0.042346,-0.018121,-0.026028,0.275908,0.186018,-0.715329,-0.614472,95.388158,-9.562600,-142.140139
32951,NaN,1.627128,9.683470,-0.964553,0.038494,-0.032014,0.053669,0.039898,-0.015872,-0.024945,0.275726,0.186085,-0.715474,-0.614365,95.414988,-9.549595,-142.151629
32952,NaN,1.598691,9.663681,-0.979957,0.064364,-0.028070,0.030987,0.037994,-0.018878,-0.023988,0.275539,0.186134,-0.715617,-0.614268,95.440804,-9.537220,-142.165132
32953,NaN,1.647877,9.703364,-0.961123,0.012781,-0.034215,0.076357,0.035361,-0.018381,-0.026203,0.275345,0.186185,-0.715751,-0.614183,95.465212,-9.523580,-142.178707
32954,NaN,1.615471,9.677849,-1.009841,0.062254,-0.055278,0.050545,0.031461,-0.020984,-0.026043,0.275150,0.186226,-0.715875,-0.614114,95.487459,-9.509907,-142.193303
32955,NaN,1.624351,9.706442,-0.983782,0.037239,-0.034049,0.077652,0.024565,-0.016074,-0.024681,0.274979,0.186264,-0.715974,-0.614063,95.505464,-9.497262,-142.205627
32956,NaN,1.615226,9.737859,-0.973637,0.036607,-0.013844,0.106047,0.028560,-0.016880,-0.023085,0.274810,0.186302,-0.716086,-0.613996,95.525677,-9.485492,-142.218004
32957,NaN,1.627472,9.729322,-0.993994,0.035875,-0.037251,0.101632,0.020216,-0.011561,-0.017639,0.274682,0.186325,-0.716172,-0.613947,95.540840,-9.477036,-142.227938
32958,NaN,1.588169,9.681080,-1.036284,0.086793,-0.053970,0.051847,0.016763,-0.007458,-0.019567,0.274569,0.186363,-0.716238,-0.613909,95.553424,-9.467787,-142.235058
32959,NaN,1.605514,9.732391,-1.013559,0.060304,-0.037102,0.102927,0.012411,-0.008203,-0.017531,0.274461,0.186387,-0.716295,-0.613884,95.563835,-9.459477,-142.242870
32960,NaN,1.614124,9.707105,-0.994022,0.037456,-0.031153,0.077661,0.012315,-0.004803,-0.019286,0.274362,0.186426,-0.716344,-0.613859,95.573618,-9.450534,-142.248467
32961,NaN,1.612463,9.707289,-0.994915,0.037472,-0.030557,0.077662,0.005331,0.000217,-0.014465,0.274298,0.186452,-0.716371,-0.613847,95.579237,-9.444502,-142.252022
32962,NaN,1.586310,9.741551,-0.998319,0.061206,-0.011359,0.107341,0.000979,-0.000527,-0.012429,0.274246,0.186464,-0.716386,-0.613850,95.582182,-9.439706,-142.255533
32963,NaN,1.565792,9.690602,-1.022371,0.087705,-0.027069,0.056269,-0.004474,0.003975,-0.015156,0.274202,0.186491,-0.716378,-0.613871,95.581861,-9.433433,-142.256857
32964,NaN,1.558984,9.776142,-1.000266,0.084950,0.008435,0.137017,-0.014169,0.001040,-0.008874,0.274180,0.186475,-0.716347,-0.613921,95.576011,-9.430752,-142.259662
32965,NaN,1.605245,9.756403,-1.018065,0.059079,-0.037945,0.126917,-0.018973,0.002151,-0.004963,0.274175,0.186437,-0.716307,-0.613982,95.567569,-9.430335,-142.262783
32966,NaN,1.601014,9.739855,-0.977144,0.037008,-0.007993,0.106052,-0.026964,0.009014,-0.003148,0.274211,0.186407,-0.716231,-0.614063,95.553685,-9.431363,-142.261302
32967,NaN,1.607646,9.708877,-0.987191,0.037720,-0.027071,0.077672,-0.029869,0.013123,-0.000194,0.274276,0.186379,-0.716144,-0.614145,95.537862,-9.434171,-142.257229
32968,NaN,1.636440,9.680896,-0.947290,-0.009483,-0.020097,0.051113,-0.027871,0.012721,0.000604,0.274338,0.186346,-0.716064,-0.614220,95.523142,-9.437542,-142.253815
32969,NaN,1.582077,9.689574,-0.992320,0.063601,-0.022604,0.054985,-0.032957,0.015471,-0.000533,0.274411,0.186322,-0.715964,-0.614311,95.505426,-9.440181,-142.248457
32970,NaN,1.625205,9.653017,-0.969927,0.015618,-0.039632,0.024028,-0.029599,0.014767,-0.000357,0.274479,0.186296,-0.715875,-0.614392,95.489513,-9.443114,-142.243804
32971,NaN,1.585832,9.696009,-0.952092,0.040125,0.003572,0.058093,-0.029609,0.018061,-0.005570,0.274544,0.186301,-0.715777,-0.614476,95.473322,-9.443169,-142.236757
32972,NaN,1.607721,9.710439,-0.971581,0.037950,-0.024201,0.077678,-0.027687,0.009205,-0.001103,0.274588,0.186263,-0.715701,-0.614556,95.459024,-9.445370,-142.235277
32973,NaN,1.596209,9.682297,-0.997761,0.062988,-0.044318,0.050595,-0.029954,0.007951,-0.001734,0.274627,0.186224,-0.715620,-0.614645,95.443739,-9.446928,-142.234317
32974,NaN,1.599851,9.688370,-0.960966,0.039476,-0.018710,0.053699,-0.028593,0.007648,-0.002356,0.274663,0.186185,-0.715542,-0.614732,95.429059,-9.448330,-142.233667
32975,NaN,1.595832,9.671720,-0.919563,0.017385,0.011259,0.032820,-0.027417,0.010850,-0.001265,0.274709,0.186152,-0.715466,-0.614810,95.414980,-9.450424,-142.231619
32976,NaN,1.621656,9.691854,-0.905358,-0.008364,0.008532,0.055511,-0.027686,0.009197,-0.001100,0.274753,0.186114,-0.715390,-0.614890,95.400683,-9.452626,-142.230141
32977,NaN,1.610129,9.663690,-0.931982,0.016702,-0.011582,0.028430,-0.021337,0.009548,-0.002335,0.274787,0.186089,-0.715333,-0.614949,95.390128,-9.454123,-142.228754
32978,NaN,1.587532,9.649836,-0.907396,0.019012,0.017329,0.008835,-0.020069,0.007393,-0.009717,0.274791,0.186087,-0.715275,-0.615015,95.380289,-9.451311,-142.227849
32979,NaN,1.642571,9.706783,-0.921532,-0.010485,-0.018040,0.075106,-0.012156,-0.002660,-0.002869,0.274770,0.186039,-0.715263,-0.615053,95.376250,-9.451738,-142.233553
32980,NaN,1.584648,9.752419,-0.921772,0.038429,0.024127,0.110437,-0.010168,0.000242,-0.007282,0.274746,0.186021,-0.715247,-0.615087,95.372785,-9.449931,-142.236916
32981,NaN,1.602252,9.749798,-0.904354,0.014104,0.025749,0.109145,-0.018050,-0.004868,-0.003511,0.274724,0.185964,-0.715218,-0.615148,95.365443,-9.449860,-142.243174
32982,NaN,1.591436,9.775537,-0.923521,0.037071,0.020952,0.134417,-0.015514,-0.001964,-0.003042,0.274711,0.185916,-0.715193,-0.615198,95.359163,-9.450355,-142.248043
32983,NaN,1.630318,9.733158,-0.936632,0.012619,-0.021101,0.100384,-0.018969,0.002136,-0.004962,0.274711,0.185884,-0.715150,-0.615258,95.350566,-9.449925,-142.250303
32984,NaN,1.585811,9.705062,-0.889775,0.017197,0.036136,0.061173,-0.021594,-0.000670,-0.001969,0.274711,0.185827,-0.715105,-0.615326,95.340689,-9.451102,-142.254482
32985,NaN,1.621180,9.656981,-0.936621,0.016253,-0.030959,0.024058,-0.015430,0.003188,-0.001489,0.274717,0.185788,-0.715077,-0.615369,95.334284,-9.452583,-142.256962
32986,NaN,1.624646,9.662851,-0.901234,-0.007237,-0.005329,0.027145,-0.015342,0.003089,-0.004951,0.274716,0.185762,-0.715044,-0.615416,95.327606,-9.452260,-142.258806
32987,NaN,1.590714,9.620500,-0.906574,0.020047,0.002841,-0.019534,-0.013344,0.002690,-0.004155,0.274713,0.185737,-0.715018,-0.615454,95.322329,-9.452174,-142.260900
32988,NaN,1.605504,9.666118,-0.914617,0.017198,-0.005228,0.028435,-0.011357,0.005595,-0.008566,0.274706,0.185737,-0.714991,-0.615489,95.317664,-9.449922,-142.261100
32989,NaN,1.586749,9.669166,-0.929669,0.041559,-0.005694,0.029725,-0.008087,0.004997,-0.004930,0.274702,0.185727,-0.714979,-0.615508,95.315255,-9.449505,-142.262181
32990,NaN,1.572863,9.731732,-0.902712,0.040331,0.034258,0.086434,-0.003921,0.009255,-0.005246,0.274711,0.185737,-0.714972,-0.615508,95.314532,-9.449342,-142.260443
32991,NaN,1.568663,9.726207,-0.935939,0.063865,0.009763,0.083353,-0.006187,0.008001,-0.005879,0.274716,0.185748,-0.714959,-0.615518,95.312874,-9.448388,-142.258903
32992,NaN,1.616184,9.760399,-0.946148,0.035845,-0.021237,0.125668,-0.006374,0.011503,-0.004162,0.274740,0.185758,-0.714943,-0.615523,95.310542,-9.448962,-142.255924
32993,NaN,1.638000,9.763288,-0.895428,-0.012011,0.005479,0.127456,-0.006096,0.009849,0.000883,0.274772,0.185746,-0.714934,-0.615523,95.308681,-9.452263,-142.254179
32994,NaN,1.572006,9.732153,-0.899665,0.040499,0.036561,0.086425,-0.009536,0.005392,-0.000846,0.274786,0.185720,-0.714920,-0.615541,95.305147,-9.454405,-142.254912
32995,NaN,1.600683,9.703823,-0.861814,-0.006714,0.043588,0.059858,-0.011338,-0.001017,0.001847,0.274786,0.185662,-0.714912,-0.615568,95.301366,-9.457685,-142.259754
32996,NaN,1.600704,9.703871,-0.861241,-0.006647,0.044164,0.059855,-0.001982,-0.008158,-0.000608,0.274745,0.185605,-0.714939,-0.615571,95.303450,-9.459245,-142.268337
32997,NaN,1.607352,9.684169,-0.946340,0.039639,-0.029397,0.049352,-0.010224,-0.016775,-0.003442,0.274670,0.185518,-0.714952,-0.615616,95.301803,-9.458671,-142.282201
32998,NaN,1.609468,9.636039,-0.920689,0.018261,-0.019147,0.000090,-0.002058,-0.018563,-0.007181,0.274573,0.185452,-0.714987,-0.615639,95.304774,-9.455930,-142.296448
32999,NaN,1.612462,9.653274,-0.959079,0.040367,-0.047936,0.021011,-0.006321,-0.019420,-0.008610,0.274468,0.185380,-0.715011,-0.615680,95.305578,-9.452262,-142.311601
33000,NaN,1.597011,9.661948,-0.941231,0.041254,-0.023357,0.025369,-0.001064,-0.017111,-0.009385,0.274368,0.185328,-0.715045,-0.615700,95.308959,-9.448340,-142.324890
33001,NaN,1.633121,9.710331,-0.900712,-0.009499,-0.005210,0.075123,-0.000356,-0.008751,-0.011616,0.274288,0.185307,-0.715069,-0.615714,95.312071,-9.443596,-142.333665
33002,NaN,1.613791,9.713359,-0.916987,0.014922,-0.005708,0.076412,0.001104,-0.012453,-0.010496,0.274199,0.185276,-0.715103,-0.615724,95.316240,-9.439285,-142.344199
33003,NaN,1.620445,9.736236,-0.921654,0.013503,-0.009403,0.100401,-0.002997,-0.003003,-0.008813,0.274149,0.185259,-0.715114,-0.615738,95.317385,-9.436416,-142.350027
33004,NaN,1.592821,9.662627,-0.941364,0.041469,-0.021028,0.025373,-0.002459,0.000301,-0.009138,0.274113,0.185258,-0.715121,-0.615747,95.318315,-9.433556,-142.353258
33005,NaN,1.625387,9.705376,-0.934392,0.014200,-0.027951,0.072064,-0.000562,0.003308,-0.010087,0.274080,0.185272,-0.715129,-0.615747,95.320309,-9.430101,-142.354893
33006,NaN,1.627494,9.657228,-0.909046,-0.007174,-0.017711,0.022798,0.001617,0.004661,-0.005992,0.274066,0.185278,-0.715145,-0.615734,95.323189,-9.429268,-142.355772
33007,NaN,1.612604,9.677223,-0.963886,0.039269,-0.047585,0.045021,0.006237,0.007073,-0.008187,0.274046,0.185305,-0.715171,-0.615704,95.328673,-9.427206,-142.355475
33008,NaN,1.600987,9.691449,-0.912874,0.016652,0.002090,0.052423,0.008778,0.004727,-0.012734,0.274005,0.185345,-0.715202,-0.615674,95.335589,-9.422530,-142.355952
33009,NaN,1.611312,9.731372,-0.956678,0.037266,-0.030973,0.097349,0.005707,-0.001485,-0.012879,0.273937,0.185358,-0.715236,-0.615661,95.341655,-9.417349,-142.360965
33010,NaN,1.588159,9.717247,-0.934997,0.039632,-0.002102,0.077701,0.008978,-0.002081,-0.009245,0.273882,0.185365,-0.715280,-0.615632,95.349361,-9.414300,-142.365566
33011,NaN,1.584094,9.765631,-0.961124,0.061077,-0.011166,0.126971,0.006700,-0.000032,-0.015084,0.273815,0.185395,-0.715312,-0.615616,95.355801,-9.407849,-142.369091
33012,NaN,1.607958,9.731728,-0.958707,0.037401,-0.029229,0.097354,0.002731,-0.005848,-0.006263,0.273761,0.185372,-0.715345,-0.615608,95.360310,-9.406299,-142.376032
33013,NaN,1.585101,9.717594,-0.936575,0.039748,-0.000350,0.077701,0.002261,-0.000694,-0.009589,0.273714,0.185375,-0.715368,-0.615602,95.364172,-9.403059,-142.379950
33014,NaN,1.591066,9.686531,-0.949676,0.040426,-0.019507,0.049374,-0.003719,-0.002809,-0.006769,0.273676,0.185353,-0.715377,-0.615615,95.364693,-9.401381,-142.385106
33015,NaN,1.597167,9.655458,-0.962673,0.041076,-0.038659,0.021049,-0.000092,-0.001851,-0.006760,0.273636,0.185340,-0.715396,-0.615614,95.367331,-9.399682,-142.389773
33016,NaN,1.597114,9.709527,-0.954164,0.039068,-0.022631,0.073368,-0.000642,-0.001851,-0.011640,0.273583,0.185344,-0.715408,-0.615622,95.369481,-9.395277,-142.394110
33017,NaN,1.545325,9.723803,-0.968608,0.088654,-0.000216,0.080276,0.003063,0.004262,-0.010077,0.273549,0.185362,-0.715428,-0.615609,95.373456,-9.391995,-142.395655
33018,NaN,1.592017,9.758142,-0.979579,0.060586,-0.031106,0.122643,-0.001938,0.006903,-0.014668,0.273520,0.185401,-0.715421,-0.615618,95.374009,-9.386332,-142.394765
33019,NaN,1.609119,9.755541,-0.963101,0.036249,-0.029401,0.121357,-0.004112,0.007498,-0.008541,0.273507,0.185413,-0.715416,-0.615626,95.373620,-9.384101,-142.394717
33020,NaN,1.597156,9.727329,-0.991620,0.061272,-0.049668,0.094326,-0.007826,0.006637,-0.005089,0.273512,0.185410,-0.715401,-0.615643,95.370911,-9.383888,-142.394502
33021,NaN,1.570717,9.696191,-0.929641,0.041587,0.008575,0.053705,-0.011287,0.010732,-0.007005,0.273528,0.185423,-0.715368,-0.615670,95.365951,-9.382655,-142.391629
33022,NaN,1.620954,9.682295,-0.914049,-0.007918,-0.012656,0.046805,-0.011185,0.007329,-0.005261,0.273537,0.185417,-0.715341,-0.615699,95.361251,-9.382381,-142.391005
33023,NaN,1.620603,9.693933,-0.985161,0.037613,-0.066568,0.064730,-0.012890,0.000818,-0.006031,0.273519,0.185391,-0.715319,-0.615740,95.356465,-9.381126,-142.394475
33024,NaN,1.557767,9.668437,-0.955147,0.066682,-0.010547,0.026675,-0.012356,0.004122,-0.006355,0.273514,0.185378,-0.715293,-0.615777,95.351386,-9.380057,-142.395646
33025,NaN,1.564907,9.691388,-0.958306,0.065220,-0.014224,0.050670,-0.016440,0.005011,-0.004485,0.273519,0.185355,-0.715256,-0.615825,95.344213,-9.379874,-142.396773
33026,NaN,1.597913,9.734272,-0.949630,0.038004,-0.021066,0.097372,-0.020333,0.002397,-0.004333,0.273522,0.185318,-0.715208,-0.615890,95.334744,-9.379866,-142.399051
33027,NaN,1.593632,9.717393,-0.909475,0.016022,0.008911,0.076407,-0.013348,0.002666,-0.004150,0.273517,0.185289,-0.715184,-0.615929,95.329412,-9.379934,-142.401522
33028,NaN,1.593405,9.717603,-0.907624,0.016088,0.009486,0.076407,-0.023247,0.006488,-0.001366,0.273547,0.185251,-0.715125,-0.615996,95.317914,-9.381837,-142.401594
33029,NaN,1.633011,9.675335,-0.920288,-0.008526,-0.032582,0.042496,-0.020434,0.007743,0.004148,0.273593,0.185200,-0.715079,-0.616044,95.308184,-9.386785,-142.401413
33030,NaN,1.592906,9.664046,-0.911949,0.018228,-0.004853,0.024102,-0.018628,0.008904,-0.003558,0.273620,0.185183,-0.715029,-0.616095,95.299086,-9.387565,-142.399970
33031,NaN,1.567739,9.698261,-0.912919,0.041997,0.014395,0.053696,-0.017992,0.008804,-0.002139,0.273644,0.185157,-0.714985,-0.616143,95.290761,-9.388986,-142.399644
33032,NaN,1.600234,9.687193,-0.912679,0.016832,-0.007927,0.048098,-0.018285,0.015707,-0.002159,0.273699,0.185156,-0.714928,-0.616185,95.281229,-9.390923,-142.394342
33033,NaN,1.585532,9.695830,-0.893110,0.017728,0.016664,0.052407,-0.014009,0.011319,-0.005749,0.273723,0.185163,-0.714887,-0.616219,95.274714,-9.390373,-142.391196
33034,NaN,1.579352,9.792667,-0.942021,0.060646,-0.002006,0.150967,-0.015269,0.008210,-0.003385,0.273745,0.185148,-0.714849,-0.616259,95.267608,-9.391214,-142.390163
33035,NaN,1.527416,9.741490,-0.890951,0.066784,0.059379,0.087587,-0.018259,0.007147,-0.001978,0.273763,0.185117,-0.714807,-0.616308,95.259350,-9.392537,-142.390730
33036,NaN,1.600429,9.741844,-0.897037,0.014916,0.009925,0.100398,-0.017905,0.010642,0.004624,0.273821,0.185077,-0.714764,-0.616344,95.250573,-9.398075,-142.388717
33037,NaN,1.632610,9.676799,-0.905490,-0.008258,-0.027901,0.042510,-0.018348,0.007241,0.001484,0.273856,0.185038,-0.714723,-0.616389,95.242063,-9.401458,-142.388625
33038,NaN,1.610587,9.662622,-0.881418,-0.005844,0.000934,0.022815,-0.015700,0.001500,-0.001325,0.273860,0.184994,-0.714694,-0.616433,95.235361,-9.403123,-142.391581
33039,NaN,1.621098,9.648832,-0.931649,0.016767,-0.047633,0.015503,-0.013346,0.002662,-0.004150,0.273855,0.184965,-0.714670,-0.616472,95.230099,-9.403153,-142.394225
33040,NaN,1.602088,9.640243,-0.874469,-0.004281,0.006344,-0.001183,-0.005544,0.002647,-0.009469,0.273829,0.184967,-0.714663,-0.616491,95.229037,-9.400232,-142.396087
33041,NaN,1.612714,9.680364,-0.917116,0.016295,-0.026698,0.043804,-0.000824,0.001663,-0.009920,0.273793,0.184974,-0.714673,-0.616494,95.230911,-9.396946,-142.398700
33042,NaN,1.608588,9.717227,-0.869966,-0.007677,0.018807,0.075108,0.000005,-0.001936,-0.010224,0.273743,0.184973,-0.714689,-0.616498,95.233454,-9.393354,-142.403172
33043,NaN,1.607612,9.717377,-0.870096,-0.007669,0.019398,0.075107,0.003069,0.004278,-0.010066,0.273711,0.184995,-0.714708,-0.616484,95.237447,-9.389951,-142.404288
33044,NaN,1.595449,9.689183,-0.899846,0.017323,-0.000945,0.048101,0.007063,0.003490,-0.008475,0.273679,0.185014,-0.714739,-0.616455,95.243538,-9.387640,-142.405715
33045,NaN,1.627023,9.678052,-0.902151,-0.007905,-0.023234,0.042523,0.006252,0.001842,-0.013195,0.273626,0.185043,-0.714768,-0.616437,95.249509,-9.382402,-142.408136
33046,NaN,1.582517,9.715067,-0.921540,0.040298,-0.005154,0.073387,0.003352,0.000683,-0.015250,0.273567,0.185073,-0.714786,-0.616433,95.253678,-9.376079,-142.410825
33047,NaN,1.617403,9.709572,-0.889882,-0.008410,-0.002298,0.070814,0.006548,-0.005061,-0.013179,0.273491,0.185086,-0.714824,-0.616419,95.260470,-9.370321,-142.416594
33048,NaN,1.597933,9.712560,-0.906685,0.016010,-0.002865,0.072101,0.007081,-0.001758,-0.013498,0.273425,0.185106,-0.714858,-0.616402,95.267020,-9.364867,-142.420786
33049,NaN,1.568047,9.741093,-0.944202,0.063255,-0.008789,0.098675,0.008352,-0.001957,-0.010660,0.273363,0.185118,-0.714901,-0.616376,95.274633,-9.360805,-142.425556
33050,NaN,1.566848,9.741227,-0.944814,0.063321,-0.008215,0.098675,0.003189,-0.004376,-0.013351,0.273293,0.185125,-0.714928,-0.616375,95.279200,-9.355297,-142.431269
33051,NaN,1.576302,9.715790,-0.924567,0.040446,-0.002238,0.073388,0.003735,-0.004379,-0.008471,0.273230,0.185111,-0.714963,-0.616366,95.284470,-9.352436,-142.438169
33052,NaN,1.583263,9.738599,-0.929594,0.039045,-0.005887,0.097389,0.004014,-0.006034,-0.003431,0.273183,0.185078,-0.715003,-0.616350,95.289751,-9.352499,-142.445371
33053,NaN,1.571602,9.710274,-0.959553,0.063980,-0.026269,0.070395,0.007905,-0.003417,-0.003579,0.273143,0.185065,-0.715051,-0.616316,95.297125,-9.352384,-142.450406
33054,NaN,1.603790,9.699072,-0.961811,0.038783,-0.048565,0.064831,0.002282,-0.003989,-0.004387,0.273102,0.185039,-0.715082,-0.616306,95.301213,-9.352008,-142.456374
33055,NaN,1.560108,9.735938,-0.980776,0.086917,-0.030474,0.095686,-0.002543,0.000395,-0.005675,0.273072,0.185024,-0.715094,-0.616310,95.302500,-9.350857,-142.460324
33056,NaN,1.642395,9.656885,-0.976495,0.014121,-0.090064,0.030997,-0.002368,0.002144,-0.002374,0.273064,0.185004,-0.715104,-0.616308,95.303365,-9.351954,-142.462853
33057,NaN,1.588235,9.707696,-0.943515,0.039790,-0.022783,0.069113,-0.001837,0.005448,-0.002694,0.273063,0.184994,-0.715113,-0.616302,95.304390,-9.353029,-142.463960
33058,NaN,1.584329,9.702218,-0.976787,0.063291,-0.047387,0.066128,-0.008556,0.006822,-0.003039,0.273074,0.184982,-0.715097,-0.616318,95.301265,-9.353994,-142.463749
33059,NaN,1.612515,9.673997,-0.939220,0.016087,-0.040283,0.039554,-0.005846,0.009540,-0.009485,0.273074,0.185008,-0.715080,-0.616331,95.299504,-9.351293,-142.461418
33060,NaN,1.597420,9.682565,-0.920641,0.017069,-0.015690,0.043826,-0.007830,0.006626,-0.005081,0.273078,0.185004,-0.715065,-0.616348,95.296795,-9.351083,-142.461211
33061,NaN,1.586254,9.708319,-0.940433,0.039987,-0.020461,0.069117,-0.008801,-0.000080,-0.007902,0.273046,0.184984,-0.715056,-0.616378,95.294377,-9.348860,-142.465470
33062,NaN,1.552834,9.719743,-0.937778,0.065326,0.002969,0.074671,-0.010798,0.000312,-0.008697,0.273019,0.184970,-0.715036,-0.616417,95.290529,-9.346253,-142.468720
33063,NaN,1.606395,9.711538,-0.888362,-0.007685,0.007048,0.070812,-0.013061,-0.000949,-0.009333,0.272987,0.184950,-0.715012,-0.616465,95.285629,-9.343160,-142.472809
33064,NaN,1.587469,9.714595,-0.903258,0.016734,0.006457,0.072098,-0.011259,0.002158,-0.006815,0.272973,0.184934,-0.714991,-0.616501,95.281359,-9.341725,-142.475092
33065,NaN,1.579323,9.692031,-0.897610,0.018249,0.011267,0.048093,-0.010624,0.002059,-0.005396,0.272957,0.184908,-0.714976,-0.616533,95.277701,-9.341111,-142.478415
33066,NaN,1.575218,9.686632,-0.930627,0.041740,-0.013351,0.045117,-0.006363,0.002927,-0.003964,0.272950,0.184891,-0.714971,-0.616546,95.276190,-9.341342,-142.480406
33067,NaN,1.596743,9.689482,-0.879860,-0.006007,0.013607,0.046805,-0.008822,0.005165,-0.002877,0.272953,0.184871,-0.714959,-0.616565,95.273317,-9.342215,-142.481729
33068,NaN,1.560329,9.695204,-0.911400,0.042764,0.011837,0.049376,-0.002564,0.005642,-0.000650,0.272962,0.184855,-0.714966,-0.616558,95.273756,-9.344481,-142.482328
33069,NaN,1.574756,9.686887,-0.928754,0.041846,-0.011587,0.045118,-0.004032,0.009338,-0.001764,0.272978,0.184850,-0.714964,-0.616555,95.273313,-9.346160,-142.481447
33070,NaN,1.571670,9.735298,-0.953393,0.063323,-0.020581,0.094417,-0.003766,0.010990,-0.001923,0.273004,0.184854,-0.714959,-0.616549,95.272550,-9.347981,-142.478886
33071,NaN,1.567778,9.718131,-0.914394,0.041401,0.009394,0.073379,-0.003963,0.014489,-0.000199,0.273046,0.184863,-0.714950,-0.616537,95.271558,-9.350803,-142.474445
33072,NaN,1.560321,9.695408,-0.909243,0.042938,0.014160,0.049372,-0.004758,0.009532,0.000278,0.273074,0.184853,-0.714945,-0.616533,95.270383,-9.353803,-142.472844
33073,NaN,1.633247,9.695835,-0.916547,-0.009080,-0.035109,0.062304,-0.005023,0.007879,0.000437,0.273091,0.184831,-0.714945,-0.616532,95.269493,-9.356782,-142.473242
33074,NaN,1.578695,9.692628,-0.892261,0.018690,0.016520,0.048084,0.001696,0.006510,0.000783,0.273104,0.184819,-0.714965,-0.616507,95.272304,-9.359912,-142.473415
33075,NaN,1.600750,9.707028,-0.914579,0.016253,-0.011100,0.067842,0.000160,0.005055,-0.001895,0.273101,0.184810,-0.714982,-0.616492,95.274754,-9.361084,-142.474634
33076,NaN,1.582579,9.709869,-0.930578,0.040670,-0.011710,0.069129,-0.000832,0.003597,0.000305,0.273104,0.184787,-0.714997,-0.616479,95.276387,-9.363787,-142.476466
33077,NaN,1.608438,9.729830,-0.918500,0.014897,-0.014118,0.091851,-0.008809,0.001856,0.002318,0.273113,0.184739,-0.714994,-0.616494,95.273768,-9.367533,-142.479787
33078,NaN,1.597324,9.701606,-0.946902,0.039838,-0.034570,0.064885,-0.009548,0.005358,-0.000837,0.273127,0.184714,-0.714979,-0.616512,95.270232,-9.369677,-142.480540
33079,NaN,1.571689,9.681762,-0.957426,0.065680,-0.031005,0.042165,-0.010011,0.007203,0.001046,0.273155,0.184690,-0.714962,-0.616527,95.266429,-9.372776,-142.479982
33080,NaN,1.583105,9.710133,-0.926915,0.040872,-0.009401,0.069130,-0.011108,0.009148,0.001510,0.273191,0.184666,-0.714939,-0.616544,95.261662,-9.376458,-142.478669
33081,NaN,1.575662,9.687461,-0.921205,0.042387,-0.004609,0.045122,-0.010115,0.010606,-0.000690,0.273219,0.184648,-0.714919,-0.616561,95.257577,-9.379002,-142.477644
33082,NaN,1.615957,9.699128,-0.926285,0.015677,-0.031045,0.063607,-0.009480,0.010506,0.000730,0.273256,0.184633,-0.714899,-0.616572,95.253608,-9.382310,-142.475502
33083,NaN,1.623527,9.722014,-0.929548,0.014225,-0.034622,0.087618,-0.012216,0.014400,-0.003221,0.273293,0.184638,-0.714863,-0.616595,95.247938,-9.383453,-142.471529
33084,NaN,1.572739,9.736174,-0.942631,0.063949,-0.012414,0.094426,-0.011477,0.010896,-0.000066,0.273332,0.184624,-0.714836,-0.616615,95.242781,-9.386327,-142.469119
33085,NaN,1.586733,9.716225,-0.886871,0.017704,0.018772,0.072080,-0.009595,0.017217,-0.006200,0.273369,0.184653,-0.714801,-0.616629,95.238284,-9.385912,-142.463141
33086,NaN,1.600794,9.708048,-0.903613,0.016811,-0.004678,0.067847,-0.007296,0.009925,-0.005394,0.273383,0.184661,-0.714783,-0.616642,95.235568,-9.385695,-142.461011
33087,NaN,1.585829,9.716525,-0.885206,0.017776,0.019954,0.072078,-0.003370,0.003993,-0.005369,0.273366,0.184653,-0.714788,-0.616646,95.236042,-9.385002,-142.463227
33088,NaN,1.610195,9.682718,-0.882047,-0.005998,0.001875,0.042551,-0.002443,0.000304,-0.009136,0.273331,0.184651,-0.714795,-0.616655,95.236981,-9.382147,-142.466462
33089,NaN,1.620438,9.711142,-0.852722,-0.030840,0.023521,0.069505,0.003376,-0.002615,-0.010049,0.273275,0.184653,-0.714823,-0.616646,95.241735,-9.378414,-142.471319
33090,NaN,1.608193,9.683014,-0.882449,-0.005914,0.003032,0.042551,0.002212,-0.005820,-0.011152,0.273206,0.184646,-0.714850,-0.616647,95.245901,-9.374087,-142.477988
33091,NaN,1.614374,9.705937,-0.887810,-0.007365,-0.000535,0.066562,0.013378,-0.006504,-0.016289,0.273106,0.184669,-0.714910,-0.616616,95.256739,-9.366667,-142.485294
33092,NaN,1.586942,9.686180,-0.900517,0.018526,0.002995,0.043836,0.007652,-0.003681,-0.018836,0.273016,0.184704,-0.714944,-0.616605,95.263752,-9.358067,-142.490316
33093,NaN,1.592117,9.655253,-0.914949,0.019068,-0.016273,0.015601,0.015006,-0.005146,-0.017068,0.272916,0.184734,-0.715006,-0.616568,95.275345,-9.350364,-142.496948
33094,NaN,1.583301,9.686508,-0.903393,0.018633,0.004166,0.043835,0.018459,-0.005924,-0.020354,0.272804,0.184782,-0.715075,-0.616524,95.288745,-9.340778,-142.503182
33095,NaN,1.556154,9.720580,-0.908201,0.042508,0.023402,0.073352,0.019822,-0.006218,-0.020975,0.272687,0.184834,-0.715148,-0.616475,95.303129,-9.330650,-142.509524
33096,NaN,1.564851,9.695110,-0.889680,0.019700,0.029345,0.048053,0.021726,-0.006514,-0.016718,0.272581,0.184872,-0.715232,-0.616414,95.318485,-9.323103,-142.516289
33097,NaN,1.592820,9.732390,-0.918591,0.015804,-0.002382,0.091860,0.019001,-0.005932,-0.015473,0.272477,0.184897,-0.715310,-0.616361,95.332540,-9.316250,-142.523866
33098,NaN,1.569320,9.717998,-0.898355,0.018325,0.026374,0.072062,0.022161,-0.003117,-0.013574,0.272392,0.184934,-0.715393,-0.616292,95.347853,-9.310674,-142.528833
33099,NaN,1.564453,9.712438,-0.934404,0.041679,0.001709,0.069131,0.020905,-0.006228,-0.011215,0.272302,0.184955,-0.715479,-0.616225,95.363090,-9.305918,-142.535701
33100,NaN,1.567275,9.729628,-0.974824,0.063638,-0.027117,0.090217,0.018180,-0.005645,-0.009970,0.272224,0.184966,-0.715556,-0.616167,95.376389,-9.302260,-142.542322
33101,NaN,1.559188,9.706786,-0.971845,0.065153,-0.022363,0.066204,0.013070,-0.000977,-0.000880,0.272188,0.184946,-0.715623,-0.616111,95.386653,-9.304050,-142.547770
33102,NaN,1.573536,9.698337,-0.990868,0.064233,-0.045821,0.061995,0.012435,-0.000880,-0.002299,0.272156,0.184937,-0.715683,-0.616059,95.396282,-9.305022,-142.552054
33103,NaN,1.573268,9.698266,-0.991987,0.064252,-0.045206,0.061998,0.010701,0.001161,-0.003255,0.272120,0.184926,-0.715738,-0.616013,95.405093,-9.305524,-142.556579
33104,NaN,1.580584,9.720991,-0.997360,0.062840,-0.048779,0.086015,0.006613,0.002038,-0.001389,0.272106,0.184915,-0.715777,-0.615978,95.411122,-9.307172,-142.559227
33105,NaN,1.566083,9.729307,-0.979930,0.063867,-0.024143,0.090223,0.000898,0.001555,0.001259,0.272097,0.184878,-0.715805,-0.615960,95.414215,-9.310313,-142.563409
33106,NaN,1.573711,9.752068,-0.984451,0.062455,-0.027711,0.114239,-0.000572,0.005248,0.000143,0.272106,0.184861,-0.715818,-0.615945,95.415841,-9.313008,-142.564286
33107,NaN,1.584471,9.726553,-0.963268,0.039562,-0.021765,0.088941,-0.009602,-0.003105,0.002792,0.272099,0.184801,-0.715819,-0.615965,95.413414,-9.316376,-142.569920
33108,NaN,1.588169,9.689920,-1.009101,0.063461,-0.066346,0.057808,-0.015733,0.006714,0.003686,0.272138,0.184755,-0.715788,-0.615999,95.406248,-9.321171,-142.570144
33109,NaN,1.599734,9.718387,-0.977972,0.038651,-0.044603,0.084743,-0.019620,0.004090,0.003830,0.272163,0.184688,-0.715752,-0.616049,95.397465,-9.325871,-142.573316
33110,NaN,1.592645,9.695762,-0.971216,0.040192,-0.039896,0.060730,-0.023553,0.010019,0.003801,0.272221,0.184641,-0.715692,-0.616107,95.385510,-9.330909,-142.571634
33111,NaN,1.600673,9.718707,-0.973242,0.038738,-0.043439,0.084748,-0.024388,0.013613,0.004106,0.272291,0.184602,-0.715626,-0.616164,95.372969,-9.336190,-142.568268
33112,NaN,1.619425,9.716096,-0.954330,0.014453,-0.041626,0.083466,-0.027686,0.019443,0.005496,0.272392,0.184573,-0.715542,-0.616226,95.357776,-9.342700,-142.561227
33113,NaN,1.598052,9.701841,-0.928931,0.016957,-0.012874,0.063646,-0.028892,0.024785,0.004225,0.272506,0.184562,-0.715448,-0.616289,95.341606,-9.348641,-142.551402
33114,NaN,1.595068,9.696511,-0.959693,0.040366,-0.037573,0.060738,-0.028320,0.019534,0.004079,0.272604,0.184537,-0.715360,-0.616355,95.326026,-9.354344,-142.544228
33115,NaN,1.584744,9.710545,-0.905074,0.018046,0.012306,0.067838,-0.025795,0.022446,0.004562,0.272711,0.184526,-0.715277,-0.616407,95.311804,-9.360252,-142.535146
33116,NaN,1.606844,9.713450,-0.852163,-0.029575,0.039401,0.069458,-0.027125,0.017491,0.000157,0.272788,0.184510,-0.715193,-0.616476,95.297065,-9.363605,-142.528939
33117,NaN,1.610168,9.677104,-0.896629,-0.005750,-0.005183,0.038346,-0.022940,0.016522,-0.005167,0.272836,0.184515,-0.715120,-0.616538,95.285056,-9.363715,-142.523579
33118,NaN,1.562613,9.696793,-0.875151,0.020687,0.042205,0.048004,-0.015649,0.009914,-0.004966,0.272860,0.184510,-0.715076,-0.616579,95.277561,-9.363743,-142.521479
33119,NaN,1.602508,9.708639,-0.879725,-0.006131,0.015895,0.066550,-0.013282,0.007773,-0.002592,0.272877,0.184492,-0.715047,-0.616611,95.271903,-9.364855,-142.521170
33120,NaN,1.576472,9.730933,-0.809058,-0.027368,0.089817,0.077817,-0.009994,0.005254,-0.009179,0.272866,0.184495,-0.715023,-0.616643,95.268050,-9.362234,-142.521539
33121,NaN,1.575415,9.689098,-0.889299,0.019811,0.019928,0.043813,-0.005904,0.004382,-0.011044,0.272840,0.184507,-0.715012,-0.616663,95.266757,-9.358467,-142.522672
33122,NaN,1.585724,9.717522,-0.859596,-0.004930,0.041671,0.070728,0.001353,0.003018,-0.005814,0.272820,0.184507,-0.715030,-0.616651,95.269644,-9.357648,-142.524514
33123,NaN,1.599331,9.709356,-0.877593,-0.005883,0.018228,0.066546,0.004009,0.000598,-0.013819,0.272764,0.184530,-0.715052,-0.616643,95.274283,-9.352163,-142.527573
33124,NaN,1.572473,9.689518,-0.889930,0.020011,0.021660,0.043809,0.010263,0.001083,-0.011584,0.272711,0.184557,-0.715094,-0.616610,95.282407,-9.347949,-142.530225
33125,NaN,1.560820,9.715187,-0.911628,0.042933,0.016880,0.069112,0.011470,-0.004261,-0.010316,0.272640,0.184562,-0.715150,-0.616575,95.291868,-9.344169,-142.536444
33126,NaN,1.552124,9.692466,-0.908429,0.044480,0.021563,0.045090,0.013036,-0.008048,-0.012664,0.272549,0.184569,-0.715212,-0.616541,95.302428,-9.338855,-142.544317
33127,NaN,1.583977,9.735308,-0.902828,0.017210,0.015205,0.091846,0.016923,-0.005424,-0.012802,0.272459,0.184585,-0.715285,-0.616492,95.315207,-9.333549,-142.551437
33128,NaN,1.593700,9.721549,-0.956154,0.039572,-0.033548,0.084783,0.014770,-0.010090,-0.011708,0.272362,0.184584,-0.715356,-0.616452,95.326959,-9.328669,-142.560539
33129,NaN,1.566847,9.701574,-0.969554,0.065423,-0.030126,0.062048,0.018920,-0.005815,-0.012004,0.272274,0.184604,-0.715435,-0.616394,95.340865,-9.323687,-142.567211
33130,NaN,1.594672,9.685024,-1.006569,0.063428,-0.077622,0.053710,0.009939,-0.005722,-0.012995,0.272194,0.184614,-0.715484,-0.616369,95.349426,-9.318303,-142.573716
33131,NaN,1.582711,9.698904,-0.955954,0.041188,-0.027701,0.060767,0.010536,-0.000575,-0.006549,0.272148,0.184616,-0.715535,-0.616329,95.358041,-9.316847,-142.577973
33132,NaN,1.574820,9.730061,-0.943466,0.040806,-0.007196,0.088957,0.005799,0.003698,-0.011296,0.272110,0.184644,-0.715560,-0.616309,95.363363,-9.312934,-142.579123
33133,NaN,1.588532,9.721875,-0.961421,0.039796,-0.030637,0.084792,-0.000121,0.006705,-0.006928,0.272098,0.184656,-0.715569,-0.616300,95.365293,-9.311550,-142.579256
33134,NaN,1.584428,9.716461,-0.995059,0.063171,-0.055370,0.081913,-0.002323,0.010589,-0.006000,0.272109,0.184675,-0.715564,-0.616295,95.365364,-9.311027,-142.576710
33135,NaN,1.594688,9.691004,-0.973918,0.040357,-0.049399,0.056610,-0.004153,0.012724,-0.003496,0.272132,0.184684,-0.715556,-0.616292,95.364380,-9.312104,-142.573916
33136,NaN,1.565317,9.707731,-0.937533,0.042500,-0.000759,0.064935,-0.009249,0.015440,-0.004627,0.272170,0.184704,-0.715525,-0.616305,95.360041,-9.312623,-142.568640
33137,NaN,1.601557,9.714141,-0.976031,0.038927,-0.052323,0.080639,-0.016603,0.016892,-0.006399,0.272209,0.184722,-0.715470,-0.616346,95.351730,-9.311952,-142.563126
33138,NaN,1.561038,9.702648,-0.968179,0.065861,-0.024902,0.062059,-0.014235,0.014755,-0.004024,0.272252,0.184731,-0.715425,-0.616377,95.344603,-9.312778,-142.558279
33139,NaN,1.597141,9.697318,-0.933762,0.017195,-0.021762,0.059495,-0.024414,0.016880,-0.001095,0.272318,0.184722,-0.715350,-0.616438,95.331652,-9.315251,-142.552505
33140,NaN,1.600495,9.661023,-0.978275,0.040996,-0.066451,0.028444,-0.025737,0.011926,-0.005502,0.272357,0.184711,-0.715272,-0.616514,95.318186,-9.315081,-142.549214
33141,NaN,1.669363,9.698622,-0.935922,-0.035012,-0.070189,0.072647,-0.029097,0.012600,-0.005678,0.272396,0.184699,-0.715185,-0.616602,95.303060,-9.314595,-142.545920
33142,NaN,1.567143,9.672806,-0.970643,0.066448,-0.042541,0.033887,-0.032818,0.011717,-0.002238,0.272450,0.184666,-0.715088,-0.616700,95.285585,-9.316274,-142.542925
33143,NaN,1.592564,9.693181,-0.955556,0.040645,-0.044728,0.056631,-0.033451,0.011812,-0.003656,0.272493,0.184631,-0.714992,-0.616803,95.268065,-9.317126,-142.541165
33144,NaN,1.573889,9.684445,-0.896072,0.019950,0.009286,0.039625,-0.030873,0.019871,-0.001595,0.272576,0.184624,-0.714891,-0.616885,95.250946,-9.319599,-142.533488
33145,NaN,1.570310,9.679309,-0.926721,0.043297,-0.015480,0.036759,-0.030667,0.016374,-0.003323,0.272646,0.184618,-0.714792,-0.616971,95.234238,-9.320787,-142.526935
33146,NaN,1.624647,9.683138,-0.947822,0.015424,-0.065771,0.051209,-0.018968,0.019018,-0.008755,0.272693,0.184650,-0.714722,-0.617021,95.223959,-9.319126,-142.519371
33147,NaN,1.583708,9.671716,-0.939699,0.042326,-0.038364,0.032615,-0.019810,0.008917,-0.009865,0.272700,0.184655,-0.714664,-0.617084,95.214348,-9.316129,-142.517708
33148,NaN,1.560486,9.657509,-0.915674,0.044932,-0.009679,0.012736,-0.014569,0.014565,-0.015805,0.272705,0.184705,-0.714607,-0.617133,95.206947,-9.310211,-142.512348
33149,NaN,1.599277,9.669608,-0.920552,0.018059,-0.035942,0.031336,-0.006584,-0.000670,-0.014036,0.272657,0.184719,-0.714596,-0.617162,95.205675,-9.304219,-142.515043
33150,NaN,1.594090,9.706388,-0.872743,-0.005582,0.009926,0.062364,-0.004596,0.002253,-0.018424,0.272602,0.184754,-0.714585,-0.617190,95.205117,-9.296166,-142.516665
33151,NaN,1.581759,9.732340,-0.892776,0.017306,0.005126,0.087673,-0.007270,-0.005718,-0.017031,0.272526,0.184760,-0.714576,-0.617231,95.203904,-9.288271,-142.522446
33152,NaN,1.590709,9.665168,-0.952966,0.041494,-0.059566,0.028486,-0.003177,-0.006581,-0.018893,0.272436,0.184771,-0.714581,-0.617262,95.204979,-9.279491,-142.529150
33153,NaN,1.606965,9.662704,-0.936467,0.017160,-0.057690,0.027207,-0.006690,-0.010962,-0.017188,0.272337,0.184760,-0.714583,-0.617307,95.204679,-9.271237,-142.538433
33154,NaN,1.590063,9.617413,-0.927409,0.020191,-0.048982,-0.020844,-0.002650,-0.016970,-0.020627,0.272205,0.184745,-0.714601,-0.617348,95.207006,-9.260928,-142.551051
33155,NaN,1.649504,9.590373,-0.964671,-0.007341,-0.119191,-0.034525,-0.001499,-0.024148,-0.026128,0.272022,0.184726,-0.714631,-0.617400,95.210928,-9.247016,-142.568498
33156,NaN,1.661202,9.582620,-0.982859,-0.008351,-0.142659,-0.038651,0.003265,-0.016655,-0.030181,0.271855,0.184755,-0.714659,-0.617433,95.216528,-9.231270,-142.580428
33157,NaN,1.639914,9.573802,-0.927735,-0.029024,-0.088630,-0.055690,0.010373,-0.023059,-0.023069,0.271679,0.184747,-0.714724,-0.617437,95.226964,-9.219236,-142.596696
33158,NaN,1.616295,9.625219,-0.970705,0.016762,-0.098798,-0.005064,0.021288,-0.014973,-0.021429,0.271529,0.184774,-0.714813,-0.617392,95.242802,-9.208567,-142.608111
33159,NaN,1.527157,9.728420,-0.857286,0.021349,0.061936,0.071897,0.019814,-0.000901,-0.015927,0.271444,0.184822,-0.714885,-0.617331,95.256723,-9.201695,-142.612022
33160,NaN,1.536646,9.744727,-0.757809,-0.048386,0.138556,0.080428,0.027284,0.004646,-0.005820,0.271407,0.184862,-0.714980,-0.617226,95.274313,-9.200957,-142.612922
33161,NaN,1.467800,9.814890,-0.782424,0.023892,0.175150,0.140575,0.032854,0.010482,0.000030,0.271406,0.184913,-0.715089,-0.617085,95.294617,-9.203727,-142.610023
33162,NaN,1.417088,9.828353,-0.800034,0.073740,0.197141,0.147253,0.032334,0.007175,0.000343,0.271392,0.184945,-0.715202,-0.616951,95.314919,-9.206639,-142.609792
33163,NaN,1.399578,9.884652,-0.810682,0.096258,0.212356,0.200704,0.036814,0.001257,0.005243,0.271363,0.184945,-0.715343,-0.616799,95.338575,-9.212018,-142.613952
33164,NaN,1.487628,9.876935,-0.839343,0.042920,0.139392,0.209793,0.029100,0.001138,0.007086,0.271351,0.184930,-0.715461,-0.616673,95.357642,-9.218454,-142.617577
33165,NaN,1.455425,9.833674,-0.849440,0.070287,0.146759,0.163007,0.028692,-0.005567,0.009131,0.271322,0.184890,-0.715588,-0.616550,95.377199,-9.225597,-142.625012
33166,NaN,1.583781,9.783836,-0.892490,-0.008095,0.031091,0.138560,0.026126,-0.003244,0.013675,0.271317,0.184834,-0.715708,-0.616429,95.395027,-9.235553,-142.631533
33167,NaN,1.592295,9.710230,-0.989395,0.039231,-0.059020,0.076592,0.026534,0.003456,0.011630,0.271327,0.184807,-0.715820,-0.616303,95.412710,-9.244492,-142.634335
33168,NaN,1.585884,9.687073,-0.986620,0.040780,-0.054402,0.052565,0.011762,0.014885,0.007919,0.271383,0.184809,-0.715866,-0.616225,95.420578,-9.252142,-142.630070
33169,NaN,1.586264,9.632953,-0.996595,0.042710,-0.069761,0.000392,0.017950,0.013535,0.003398,0.271411,0.184828,-0.715930,-0.616132,95.432214,-9.257151,-142.626868
33170,NaN,1.557703,9.703162,-0.953819,0.043076,-0.005160,0.060797,0.016684,0.013725,0.000561,0.271435,0.184859,-0.715986,-0.616047,95.442944,-9.260543,-142.622870
33171,NaN,1.590815,9.745919,-0.947848,0.015802,-0.011352,0.107578,0.013994,0.022750,-0.001822,0.271488,0.184926,-0.716019,-0.615965,95.451346,-9.262938,-142.613186
33172,NaN,1.565385,9.725698,-0.960724,0.041698,-0.008063,0.084828,0.017466,0.018677,0.000091,0.271528,0.184975,-0.716070,-0.615874,95.462059,-9.266333,-142.606302
33173,NaN,1.586897,9.728401,-0.912030,-0.005829,0.019212,0.086374,0.017716,0.023625,-0.005257,0.271569,0.185059,-0.716111,-0.615783,95.472427,-9.266969,-142.596250
33174,NaN,1.572087,9.736585,-0.895621,-0.004664,0.043828,0.090480,0.016723,0.022166,-0.003060,0.271612,0.185129,-0.716152,-0.615695,95.482361,-9.268760,-142.587176
33175,NaN,1.593699,9.697135,-0.927798,-0.005301,0.000394,0.058234,0.015569,0.018957,-0.004164,0.271636,0.185183,-0.716196,-0.615617,95.492073,-9.269907,-142.581092
33176,NaN,1.556603,9.648632,-0.970296,0.045323,-0.017670,0.008627,0.018562,0.009634,-0.012149,0.271605,0.185250,-0.716251,-0.615547,95.504145,-9.265829,-142.578755
33177,NaN,1.625095,9.697829,-1.004569,0.014338,-0.075953,0.071239,0.015933,0.010111,-0.014369,0.271571,0.185325,-0.716296,-0.615487,95.514797,-9.260305,-142.575731
33178,NaN,1.601598,9.683386,-0.983834,0.016988,-0.047307,0.051312,0.018552,0.012927,-0.017341,0.271536,0.185420,-0.716342,-0.615420,95.526511,-9.253449,-142.571201
33179,NaN,1.596302,9.720160,-0.938338,-0.006590,-0.001343,0.082267,0.019333,0.017877,-0.017813,0.271516,0.185535,-0.716383,-0.615346,95.538288,-9.246508,-142.563615
33180,NaN,1.580003,9.728558,-0.922271,-0.005418,0.023273,0.086366,0.019286,0.012727,-0.019377,0.271473,0.185638,-0.716430,-0.615279,95.550424,-9.238482,-142.559082
33181,NaN,1.570971,9.705833,-0.919586,-0.003874,0.027878,0.062331,0.022545,0.012154,-0.015736,0.271436,0.185732,-0.716491,-0.615196,95.564556,-9.232474,-142.554975
33182,NaN,1.533361,9.711214,-0.954127,0.044880,0.025768,0.064891,0.024756,0.008272,-0.016655,0.271381,0.185818,-0.716563,-0.615111,95.580263,-9.225754,-142.553165
33183,NaN,1.495530,9.716571,-0.988988,0.093627,0.023650,0.067450,0.027960,0.005843,-0.019771,0.271305,0.185915,-0.716645,-0.615020,95.598015,-9.217087,-142.552310
33184,NaN,1.588261,9.678110,-1.030220,0.040557,-0.069266,0.048515,0.033680,0.006332,-0.022400,0.271216,0.186029,-0.716742,-0.614912,95.618963,-9.206984,-142.551292
33185,NaN,1.615097,9.703911,-0.987925,-0.008428,-0.045958,0.074084,0.036456,0.010897,-0.022073,0.271139,0.186153,-0.716843,-0.614790,95.641151,-9.197486,-142.548436
33186,NaN,1.591600,9.700883,-1.041383,0.039205,-0.072122,0.072557,0.038789,0.025744,-0.023502,0.271112,0.186337,-0.716928,-0.614647,95.663224,-9.187851,-142.536134
33187,NaN,1.592927,9.760542,-1.001699,0.014156,-0.030143,0.127529,0.027588,0.032980,-0.028791,0.271103,0.186547,-0.716965,-0.614544,95.678307,-9.175531,-142.519521
33188,NaN,1.509940,9.683023,-1.000440,0.069971,0.007842,0.038037,0.029100,0.037725,-0.031304,0.271104,0.186783,-0.716997,-0.614435,95.693659,-9.162135,-142.499847
33189,NaN,1.477852,9.753730,-0.959109,0.070381,0.072523,0.098366,0.034192,0.038298,-0.035347,0.271086,0.187041,-0.717041,-0.614313,95.712059,-9.146346,-142.479982
33190,NaN,1.423476,9.767517,-0.976396,0.120257,0.094429,0.105006,0.026750,0.032706,-0.045449,0.271028,0.187308,-0.717059,-0.614236,95.726405,-9.124610,-142.462382
33191,NaN,1.517606,9.789216,-0.974126,0.042000,0.042945,0.141065,0.022689,0.019882,-0.044971,0.270927,0.187534,-0.717083,-0.614184,95.739869,-9.102065,-142.451934
33192,NaN,1.647791,9.698011,-0.956065,-0.081171,-0.037858,0.070261,0.019556,0.013767,-0.041677,0.270819,0.187720,-0.717108,-0.614146,95.751867,-9.081401,-142.445479
33193,NaN,1.618607,9.678236,-0.969302,-0.055312,-0.034656,0.047507,0.016681,0.009303,-0.038543,0.270712,0.187886,-0.717130,-0.614116,95.762655,-9.062032,-142.440656
33194,NaN,1.597039,9.627265,-0.995775,-0.029060,-0.051470,-0.003363,0.022670,0.008163,-0.036127,0.270598,0.188040,-0.717178,-0.614064,95.777000,-9.044212,-142.437752
33195,NaN,1.520648,9.680427,-0.981758,0.021585,0.014504,0.035471,0.016681,0.009294,-0.038539,0.270487,0.188198,-0.717202,-0.614035,95.787774,-9.025087,-142.433802
33196,NaN,1.459204,9.671316,-0.993521,0.072951,0.040399,0.018069,0.016467,0.009515,-0.031626,0.270397,0.188331,-0.717233,-0.613998,95.798486,-9.009912,-142.430374
33197,NaN,1.467553,9.711483,-1.038357,0.093225,0.007563,0.063346,0.022820,0.009915,-0.032826,0.270296,0.188477,-0.717283,-0.613940,95.812963,-8.994021,-142.427091
33198,NaN,1.494094,9.749099,-1.066938,0.089178,-0.023922,0.107347,0.018153,0.021166,-0.029292,0.270254,0.188639,-0.717305,-0.613882,95.823612,-8.980854,-142.417070
33199,NaN,1.509112,9.735533,-0.979507,0.019930,0.032831,0.087615,0.014742,0.032241,-0.022920,0.270274,0.188811,-0.717308,-0.613817,95.831511,-8.971774,-142.400800
33200,NaN,1.536968,9.719116,-1.015792,0.017722,-0.014691,0.079471,0.016492,0.026941,-0.016755,0.270292,0.188944,-0.717329,-0.613744,95.840807,-8.966093,-142.388183
33201,NaN,1.583424,9.700073,-1.036193,-0.008850,-0.060866,0.070053,0.022117,0.024275,-0.010720,0.270318,0.189062,-0.717374,-0.613643,95.853585,-8.963550,-142.376535
33202,NaN,1.487734,9.684224,-1.008050,0.046286,0.017095,0.036743,0.012656,0.026181,-0.009874,0.270359,0.189163,-0.717391,-0.613574,95.860816,-8.961751,-142.364761
33203,NaN,1.457510,9.700814,-0.973705,0.048621,0.065773,0.044875,0.011379,0.017935,-0.009069,0.270370,0.189230,-0.717418,-0.613517,95.868198,-8.959966,-142.358415
33204,NaN,1.518783,9.727468,-1.002726,0.019083,0.011631,0.083539,0.010813,0.004339,-0.011850,0.270328,0.189269,-0.717457,-0.613479,95.876318,-8.955764,-142.359126
33205,NaN,1.463372,9.723704,-0.979895,0.047231,0.062887,0.068906,0.004129,0.004281,-0.000290,0.270331,0.189265,-0.717484,-0.613447,95.880719,-8.957918,-142.359473
33206,NaN,1.497093,9.724107,-1.053861,0.066715,-0.014052,0.082034,0.001859,-0.005408,0.002711,0.270307,0.189209,-0.717522,-0.613430,95.884719,-8.961442,-142.366673
33207,NaN,1.519546,9.684645,-1.084613,0.065952,-0.057590,0.049873,-0.000275,-0.010066,0.003808,0.270272,0.189134,-0.717561,-0.613423,95.888006,-8.965221,-142.376476
33208,NaN,1.574560,9.688398,-1.108112,0.037883,-0.107730,0.064517,-0.002899,-0.009604,0.001580,0.270234,0.189063,-0.717589,-0.613428,95.889647,-8.967853,-142.386030
33209,NaN,1.527123,9.707484,-1.088784,0.064544,-0.060468,0.073919,-0.008742,-0.006712,0.002454,0.270218,0.188997,-0.717595,-0.613449,95.887722,-8.970920,-142.393036
33210,NaN,1.515652,9.721639,-1.036672,0.042560,-0.010428,0.080757,-0.006125,-0.003906,-0.000516,0.270197,0.188947,-0.717603,-0.613464,95.886984,-8.972692,-142.399177
33211,NaN,1.577255,9.737075,-0.991536,-0.031920,-0.009722,0.100959,-0.012816,-0.000696,0.005848,0.270217,0.188882,-0.717591,-0.613489,95.882185,-8.978076,-142.402872
33212,NaN,1.556794,9.679867,-1.048570,0.017498,-0.052046,0.047328,-0.018285,0.000460,0.008304,0.270250,0.188797,-0.717565,-0.613531,95.874169,-8.985132,-142.407017
33213,NaN,1.539648,9.682427,-1.062943,0.041921,-0.052855,0.048610,-0.021275,-0.000612,0.009694,0.270287,0.188698,-0.717533,-0.613584,95.864504,-8.993057,-142.411967
33214,NaN,1.547995,9.705361,-1.065115,0.040489,-0.056268,0.072655,-0.027718,0.007514,0.010703,0.270361,0.188614,-0.717470,-0.613650,95.850470,-9.001894,-142.412182
33215,NaN,1.541820,9.682661,-1.057649,0.042039,-0.051705,0.048616,-0.028829,0.009449,0.011158,0.270443,0.188528,-0.717404,-0.613718,95.835713,-9.011177,-142.411805
33216,NaN,1.579015,9.731711,-1.013497,-0.008406,-0.032266,0.098193,-0.032931,0.010313,0.013001,0.270540,0.188437,-0.717323,-0.613797,95.818460,-9.021487,-142.410535
33217,NaN,1.565713,9.686191,-1.000813,-0.005345,-0.023737,0.050111,-0.036805,0.007677,0.013130,0.270631,0.188330,-0.717235,-0.613893,95.799193,-9.031839,-142.410912
33218,NaN,1.523775,9.668563,-1.025173,0.044887,-0.021978,0.028627,-0.036688,0.004287,0.014871,0.270715,0.188209,-0.717154,-0.613988,95.780349,-9.042867,-142.413222
33219,NaN,1.550634,9.635040,-1.018793,0.021002,-0.040057,-0.000738,-0.027996,-0.002569,0.014505,0.270761,0.188068,-0.717110,-0.614062,95.767050,-9.053758,-142.420825
33220,NaN,1.526319,9.668753,-1.019576,0.045078,-0.020808,0.028629,-0.023784,-0.003546,0.009207,0.270788,0.187960,-0.717073,-0.614126,95.756259,-9.061107,-142.427322
33221,NaN,1.560121,9.657990,-1.018984,0.019620,-0.042898,0.023310,-0.016656,-0.001469,0.012728,0.270828,0.187858,-0.717058,-0.614158,95.749423,-9.070519,-142.432497
33222,NaN,1.534857,9.680152,-0.948754,-0.001155,0.031213,0.034154,-0.006574,-0.000188,0.008108,0.270847,0.187787,-0.717068,-0.614159,95.748179,-9.077436,-142.436990
33223,NaN,1.474057,9.718812,-0.984420,0.071624,0.047688,0.066070,0.004394,0.002654,0.004750,0.270853,0.187748,-0.717107,-0.614123,95.752977,-9.082733,-142.440204
33224,NaN,1.466844,9.749804,-0.972024,0.071371,0.068340,0.094147,0.010229,0.003040,-0.001323,0.270839,0.187744,-0.717155,-0.614073,95.760980,-9.084458,-142.442286
33225,NaN,1.492407,9.769954,-0.961294,0.045617,0.066352,0.116909,0.011120,0.001323,0.005133,0.270839,0.187713,-0.717215,-0.614013,95.769692,-9.089827,-142.445700
33226,NaN,1.525917,9.704991,-0.972350,0.021976,0.028148,0.059469,0.015398,0.007363,0.008145,0.270865,0.187695,-0.717283,-0.613929,95.780350,-9.097199,-142.445840
33227,NaN,1.523469,9.698998,-1.007764,0.045162,0.003270,0.056712,0.017876,0.005136,0.007075,0.270875,0.187679,-0.717361,-0.613838,95.792809,-9.103669,-142.447309
33228,NaN,1.531451,9.721588,-1.013678,0.043734,-0.000121,0.080757,0.012659,0.011214,0.004180,0.270905,0.187684,-0.717411,-0.613764,95.801509,-9.109003,-142.444996
33229,NaN,1.491932,9.655458,-1.017284,0.072607,0.010900,0.009899,0.011035,0.009854,0.004953,0.270936,0.187683,-0.717458,-0.613696,95.809376,-9.114652,-142.442982
33230,NaN,1.528309,9.704100,-0.977478,0.022188,0.030421,0.059462,0.017872,0.008409,0.001883,0.270944,0.187694,-0.717526,-0.613610,95.821299,-9.118515,-142.442154
33231,NaN,1.518101,9.729240,-0.999940,0.045077,0.025632,0.084783,0.017504,0.006871,0.005498,0.270957,0.187688,-0.717598,-0.613521,95.833292,-9.124267,-142.442449
33232,NaN,1.500496,9.677588,-1.026672,0.071280,0.008642,0.033942,0.025336,0.006873,0.000234,0.270948,0.187711,-0.717690,-0.613411,95.849617,-9.127100,-142.442412
33233,NaN,1.551201,9.717914,-1.005607,0.019665,0.004140,0.079477,0.025562,0.003374,-0.001481,0.270919,0.187729,-0.717785,-0.613307,95.866465,-9.128720,-142.444432
33234,NaN,1.573014,9.678354,-1.038271,0.018845,-0.039443,0.047384,0.018063,0.003034,-0.006584,0.270881,0.187754,-0.717853,-0.613236,95.878910,-9.127443,-142.446209
33235,NaN,1.580165,9.701045,-1.044405,0.017390,-0.042814,0.071433,0.015363,0.005486,0.001395,0.270878,0.187755,-0.717918,-0.613162,95.889778,-9.130787,-142.447185
33236,NaN,1.544059,9.705987,-1.078193,0.066127,-0.045080,0.073991,0.011626,0.011161,-0.005575,0.270879,0.187793,-0.717955,-0.613105,95.897799,-9.130561,-142.444329
33237,NaN,1.554277,9.680603,-1.058253,0.043369,-0.039126,0.048668,0.012139,0.014457,-0.005895,0.270888,0.187837,-0.717992,-0.613046,95.905815,-9.130581,-142.440307
33238,NaN,1.546336,9.711716,-1.046085,0.043129,-0.018450,0.076735,0.009516,0.014922,-0.008124,0.270896,0.187893,-0.718016,-0.612997,95.912260,-9.129127,-142.435129
33239,NaN,1.556337,9.686403,-1.025875,0.020335,-0.012516,0.051411,0.009516,0.014921,-0.008123,0.270905,0.187949,-0.718040,-0.612947,95.918742,-9.127653,-142.429874
33240,NaN,1.555818,9.740388,-1.017763,0.018606,0.004224,0.103522,0.001311,0.016657,-0.004444,0.270938,0.187986,-0.718040,-0.612921,95.920362,-9.128399,-142.423914
33241,NaN,1.548264,9.717625,-1.012904,0.020167,0.008740,0.079473,-0.001168,0.018884,-0.003378,0.270986,0.188022,-0.718030,-0.612900,95.920373,-9.129941,-142.416805
33242,NaN,1.533169,9.726011,-0.994940,0.021428,0.033362,0.083485,-0.002081,0.012177,-0.006192,0.271001,0.188047,-0.718024,-0.612893,95.920442,-9.129425,-142.413326
33243,NaN,1.522283,9.697492,-1.023916,0.046115,0.012411,0.056701,-0.000570,0.013649,-0.003510,0.271025,0.188064,-0.718025,-0.612876,95.921412,-9.130586,-142.409886
33244,NaN,1.514627,9.674739,-1.019106,0.047669,0.016912,0.032651,-0.001112,0.005207,-0.004744,0.271019,0.188064,-0.718033,-0.612870,95.922688,-9.130484,-142.410518
33245,NaN,1.543753,9.712163,-1.045752,0.043540,-0.014444,0.076740,0.000113,-0.000114,-0.003455,0.270998,0.188046,-0.718052,-0.612862,95.925150,-9.130788,-142.413965
33246,NaN,1.535936,9.689399,-1.041285,0.045093,-0.009946,0.052691,0.002991,0.004339,-0.006582,0.270979,0.188056,-0.718072,-0.612844,95.928840,-9.129587,-142.414987
33247,NaN,1.557482,9.704022,-1.063487,0.042430,-0.037339,0.072736,-0.000371,0.005005,-0.006778,0.270962,0.188059,-0.718082,-0.612839,95.930726,-9.128297,-142.416279
33248,NaN,1.571640,9.695858,-1.080833,0.041280,-0.060825,0.068735,-0.001597,0.010325,-0.008066,0.270964,0.188086,-0.718079,-0.612834,95.931225,-9.126605,-142.413757
33249,NaN,1.596461,9.716295,-1.068759,0.015455,-0.062777,0.091511,-0.001198,0.013735,-0.004931,0.270993,0.188122,-0.718072,-0.612818,95.931712,-9.126563,-142.408175
33250,NaN,1.555842,9.704379,-1.062625,0.042555,-0.035666,0.072742,-0.000572,0.016916,-0.008705,0.271016,0.188173,-0.718062,-0.612804,95.932188,-9.124896,-142.401810
33251,NaN,1.576470,9.707792,-1.011902,-0.004884,-0.008153,0.074190,-0.004049,0.017695,-0.005446,0.271053,0.188208,-0.718044,-0.612797,95.930815,-9.125025,-142.395472
33252,NaN,1.557949,9.656496,-1.036316,0.021287,-0.025233,0.023368,0.002394,0.012839,-0.011643,0.271050,0.188261,-0.718046,-0.612780,95.933336,-9.121444,-142.391284
33253,NaN,1.545501,9.670677,-0.984998,-0.000578,0.024892,0.030085,0.004017,0.010929,-0.007219,0.271051,0.188294,-0.718060,-0.612753,95.937107,-9.120219,-142.388567
33254,NaN,1.534257,9.696075,-1.006210,0.022327,0.020097,0.055412,0.004617,0.005697,-0.007351,0.271034,0.188312,-0.718082,-0.612730,95.941596,-9.118660,-142.388759
33255,NaN,1.536722,9.701909,-0.972915,-0.000701,0.046177,0.058127,0.008324,-0.001848,-0.007127,0.270985,0.188309,-0.718126,-0.612700,95.948861,-9.116961,-142.393629
33256,NaN,1.580251,9.731043,-1.017980,-0.006068,-0.009195,0.098243,0.007442,-0.003409,-0.008389,0.270929,0.188306,-0.718169,-0.612676,95.955791,-9.114270,-142.399014
33257,NaN,1.546930,9.687904,-1.025928,0.021289,-0.002229,0.051417,0.006815,-0.006590,-0.004614,0.270871,0.188279,-0.718218,-0.612652,95.962855,-9.113451,-142.406742
33258,NaN,1.532510,9.653503,-1.090097,0.069071,-0.048758,0.021938,0.009755,-0.015811,-0.009105,0.270766,0.188245,-0.718283,-0.612632,95.972238,-9.109612,-142.419241
33259,NaN,1.563997,9.696722,-1.084158,0.041772,-0.054531,0.068769,0.011520,-0.009423,-0.011778,0.270668,0.188236,-0.718346,-0.612605,95.982292,-9.104629,-142.429029
33260,NaN,1.540751,9.682207,-1.063340,0.044551,-0.025999,0.048706,0.013285,-0.006302,-0.009256,0.270593,0.188236,-0.718409,-0.612564,95.992824,-9.101268,-142.436029
33261,NaN,1.547041,9.705073,-1.069121,0.043103,-0.029333,0.072760,0.009550,-0.003903,-0.011034,0.270524,0.188244,-0.718457,-0.612536,96.001067,-9.097013,-142.441674
33262,NaN,1.563934,9.702670,-1.053701,0.018824,-0.027310,0.071485,0.008949,0.001329,-0.010903,0.270475,0.188267,-0.718495,-0.612506,96.008402,-9.093168,-142.444169
33263,NaN,1.533533,9.719281,-1.019407,0.021332,0.021358,0.079452,0.008859,0.006591,-0.005896,0.270464,0.188293,-0.718529,-0.612463,96.015251,-9.092395,-142.443361
33264,NaN,1.537224,9.736296,-1.058587,0.043003,-0.007492,0.100799,0.007236,0.005232,-0.005123,0.270449,0.188305,-0.718562,-0.612427,96.021304,-9.092078,-142.443954
33265,NaN,1.547500,9.710985,-1.038298,0.020232,-0.001573,0.075469,0.008118,0.006793,-0.003862,0.270446,0.188323,-0.718595,-0.612384,96.027634,-9.092576,-142.443063
33266,NaN,1.547095,9.710973,-1.039019,0.020292,-0.001005,0.075469,0.008604,0.004942,-0.005735,0.270427,0.188339,-0.718632,-0.612345,96.034492,-9.091893,-142.443786
33267,NaN,1.506557,9.698860,-1.034173,0.047400,0.026055,0.056668,0.012339,0.002544,-0.003955,0.270402,0.188348,-0.718685,-0.612291,96.043794,-9.091975,-142.445747
33268,NaN,1.510230,9.715819,-1.073763,0.069064,-0.002798,0.078021,0.010575,-0.000580,-0.006476,0.270358,0.188352,-0.718735,-0.612250,96.052278,-9.090535,-142.449611
33269,NaN,1.578582,9.700122,-1.043095,-0.005130,-0.021890,0.070219,0.006100,-0.001242,-0.001025,0.270334,0.188329,-0.718777,-0.612219,96.058340,-9.092157,-142.454132
33270,NaN,1.509695,9.715791,-1.074762,0.069180,-0.001664,0.078021,-0.002111,0.003756,-0.002553,0.270330,0.188315,-0.718785,-0.612215,96.059197,-9.093215,-142.455734
33271,NaN,1.557202,9.696782,-1.093365,0.042434,-0.047732,0.068802,0.000000,0.000000,0.000000,0.270330,0.188312,-0.718786,-0.612215,96.059195,-9.093341,-142.456006
33272,NaN,1.556996,9.696825,-1.093272,0.042434,-0.047732,0.068802,-0.001880,0.000257,-0.004264,0.270308,0.188294,-0.718798,-0.612216,96.060488,-9.093212,-142.459523
33273,NaN,1.549369,9.674088,-1.088268,0.043976,-0.043274,0.044749,-0.004964,0.007715,-0.003072,0.270320,0.188292,-0.718792,-0.612218,96.059385,-9.094159,-142.458612
33274,NaN,1.556302,9.697048,-1.092283,0.042537,-0.046600,0.068807,-0.004849,0.007597,-0.006527,0.270321,0.188300,-0.718784,-0.612225,96.058285,-9.093185,-142.457755
33275,NaN,1.573884,9.694740,-1.075170,0.018231,-0.044591,0.067533,-0.007308,0.014968,-0.003913,0.270364,0.188327,-0.718757,-0.612229,96.055089,-9.093912,-142.451528
33276,NaN,1.554459,9.686184,-1.018274,-0.002055,0.009453,0.050136,-0.005314,0.017856,-0.008300,0.270396,0.188373,-0.718732,-0.612231,96.052769,-9.092547,-142.444642
33277,NaN,1.568806,9.678055,-1.035078,-0.003260,-0.014054,0.046171,-0.004571,0.014389,-0.005136,0.270429,0.188403,-0.718714,-0.612227,96.051196,-9.092642,-142.439127
33278,NaN,1.542745,9.711776,-1.037977,0.020890,0.005210,0.075467,-0.001463,0.015341,-0.009973,0.270443,0.188452,-0.718702,-0.612220,96.051296,-9.090172,-142.433590
33279,NaN,1.541835,9.711957,-1.037637,0.020903,0.005793,0.075466,-0.000975,0.013490,-0.011845,0.270442,0.188502,-0.718694,-0.612214,96.052064,-9.086362,-142.429350
33280,NaN,1.508065,9.722862,-1.036268,0.046554,0.028940,0.080702,0.000765,0.011467,-0.010874,0.270438,0.188545,-0.718694,-0.612204,96.053786,-9.083144,-142.425993
33281,NaN,1.557976,9.709832,-1.020931,-0.003305,0.008380,0.074190,0.000022,0.011670,-0.008841,0.270448,0.188589,-0.718689,-0.612191,96.054922,-9.081029,-142.421401
33282,NaN,1.494812,9.683316,-0.992884,0.026599,0.063343,0.035265,-0.001134,0.003315,-0.011494,0.270414,0.188607,-0.718693,-0.612196,96.056292,-9.076965,-142.422709
33283,NaN,1.548558,9.687338,-1.016278,-0.001711,0.013375,0.050131,0.004087,0.000513,-0.013777,0.270363,0.188639,-0.718712,-0.612186,96.060870,-9.071251,-142.424531
33284,NaN,1.529275,9.689952,-1.033031,0.022685,0.012459,0.051406,0.003578,-0.002782,-0.013457,0.270297,0.188652,-0.718737,-0.612182,96.065475,-9.065700,-142.429237
33285,NaN,1.550032,9.704667,-1.055848,0.019922,-0.014856,0.071510,0.009933,-0.002373,-0.014639,0.270213,0.188670,-0.718785,-0.612158,96.074153,-9.059387,-142.435352
33286,NaN,1.496848,9.706729,-0.999808,0.025268,0.061761,0.059308,0.012808,-0.001185,-0.012567,0.270146,0.188697,-0.718836,-0.612118,96.083909,-9.054438,-142.439189
33287,NaN,1.517931,9.721314,-1.023358,0.022571,0.034424,0.079412,0.016055,-0.001728,-0.008912,0.270083,0.188708,-0.718904,-0.612063,96.095729,-9.051643,-142.444372
33288,NaN,1.512838,9.704272,-0.986686,0.001062,0.064411,0.058025,0.021041,-0.001032,-0.009483,0.270019,0.188735,-0.718984,-0.611990,96.110218,-9.048458,-142.448309
33289,NaN,1.517377,9.732278,-1.099720,0.067331,-0.019423,0.098122,0.022665,-0.002934,-0.005057,0.269963,0.188747,-0.719074,-0.611905,96.125802,-9.047644,-142.453073
33290,NaN,1.491658,9.711747,-1.113074,0.093223,-0.016483,0.075338,0.009836,-0.000373,-0.004436,0.269927,0.188743,-0.719123,-0.611865,96.133860,-9.047374,-142.456940
33291,NaN,1.560021,9.696148,-1.082653,0.019029,-0.035506,0.067569,0.014588,0.003823,-0.003297,0.269909,0.188757,-0.719180,-0.611801,96.144145,-9.048081,-142.457947
33292,NaN,1.555624,9.679078,-1.045364,-0.002479,-0.005519,0.046180,0.012357,0.007695,-0.002398,0.269906,0.188774,-0.719228,-0.611740,96.152936,-9.049466,-142.457287
33293,NaN,1.555334,9.679014,-1.046380,-0.002433,-0.004948,0.046180,0.010598,0.004568,-0.004919,0.269886,0.188788,-0.719272,-0.611692,96.161048,-9.049179,-142.458271
33294,NaN,1.540085,9.687248,-1.029922,-0.001099,0.019679,0.050121,0.012593,0.004195,-0.004107,0.269865,0.188801,-0.719324,-0.611637,96.170274,-9.049375,-142.459524
33295,NaN,1.525896,9.706554,-1.085929,0.044820,-0.010652,0.072791,0.011713,0.002631,-0.005367,0.269832,0.188809,-0.719376,-0.611588,96.179356,-9.048679,-142.462268
33296,NaN,1.537231,9.692341,-1.138278,0.066656,-0.059709,0.066190,0.008722,0.001561,-0.003985,0.269805,0.188808,-0.719419,-0.611549,96.186604,-9.048782,-142.465049
33297,NaN,1.544373,9.661191,-1.151943,0.066917,-0.079331,0.038196,0.007588,-0.001650,-0.005084,0.269762,0.188797,-0.719464,-0.611519,96.193617,-9.048068,-142.470120
33298,NaN,1.554563,9.635971,-1.131459,0.044135,-0.073410,0.012864,0.002602,-0.002347,-0.004513,0.269726,0.188778,-0.719494,-0.611506,96.197707,-9.047628,-142.475121
33299,NaN,1.534567,9.681303,-1.067896,0.022173,-0.003009,0.047456,0.011577,0.000861,-0.008659,0.269680,0.188797,-0.719543,-0.611463,96.206746,-9.044883,-142.477958
33300,NaN,1.496452,9.729040,-1.020887,0.024586,0.065886,0.083314,0.006590,0.000164,-0.008088,0.269638,0.188803,-0.719578,-0.611438,96.212858,-9.042561,-142.481287
33301,NaN,1.528624,9.718369,-1.022891,-0.000986,0.043887,0.078105,0.010699,-0.003959,-0.004720,0.269591,0.188796,-0.719633,-0.611397,96.221723,-9.041783,-142.486539
33302,NaN,1.532324,9.735289,-1.062276,0.020622,0.015034,0.099509,0.005206,-0.007950,-0.003825,0.269534,0.188760,-0.719678,-0.611379,96.227820,-9.041384,-142.494815
33303,NaN,1.514303,9.683694,-1.087521,0.046699,-0.002234,0.048730,0.006338,-0.004739,-0.002728,0.269484,0.188724,-0.719728,-0.611354,96.234582,-9.041834,-142.502685
33304,NaN,1.551004,9.689926,-1.127801,0.042676,-0.053640,0.064939,0.004716,-0.006098,-0.001955,0.269440,0.188687,-0.719771,-0.611333,96.240249,-9.042613,-142.510010
33305,NaN,1.535913,9.698218,-1.110607,0.043996,-0.028989,0.068868,-0.000017,-0.005148,-0.001546,0.269401,0.188641,-0.719802,-0.611329,96.243343,-9.043647,-142.517574
33306,NaN,1.513654,9.683679,-1.088557,0.046847,-0.000519,0.048730,0.001622,0.001358,-0.000772,0.269391,0.188618,-0.719827,-0.611311,96.246574,-9.045564,-142.520674
33307,NaN,1.517886,9.700615,-1.126944,0.068405,-0.029344,0.070145,-0.004107,0.000867,0.001831,0.269385,0.188571,-0.719840,-0.611312,96.246890,-9.048884,-142.525313
33308,NaN,1.539228,9.704145,-1.076251,0.021093,-0.001679,0.071518,-0.005103,-0.000574,0.004025,0.269389,0.188516,-0.719852,-0.611314,96.246490,-9.053413,-142.529831
33309,NaN,1.540685,9.715167,-1.148163,0.065679,-0.056102,0.090292,-0.004597,0.002720,0.003701,0.269399,0.188471,-0.719862,-0.611311,96.246308,-9.057838,-142.532885
33310,NaN,1.511629,9.731726,-1.112443,0.068336,-0.007413,0.098131,-0.007554,0.011946,0.008176,0.269463,0.188436,-0.719853,-0.611304,96.243410,-9.065512,-142.530445
33311,NaN,1.527276,9.723445,-1.128804,0.067060,-0.030891,0.094215,-0.011916,0.014420,0.004970,0.269526,0.188412,-0.719827,-0.611315,96.237959,-9.071436,-142.526901
33312,NaN,1.531384,9.729330,-1.093633,0.044089,-0.004738,0.096857,-0.010409,0.012644,0.012851,0.269610,0.188359,-0.719812,-0.611312,96.233406,-9.081816,-142.524351
33313,NaN,1.515084,9.677717,-1.116771,0.070211,-0.022101,0.046088,-0.016022,0.012029,0.012000,0.269696,0.188300,-0.719780,-0.611330,96.225540,-9.091815,-142.521756
33314,NaN,1.526681,9.706431,-1.085923,0.045742,0.000222,0.072792,-0.013537,0.009804,0.010942,0.269766,0.188241,-0.719758,-0.611343,96.219434,-9.100929,-142.520721
33315,NaN,1.535013,9.729302,-1.088788,0.044318,-0.003009,0.096857,-0.021552,-0.002256,0.009798,0.269792,0.188130,-0.719730,-0.611399,96.209922,-9.108852,-142.527649
33316,NaN,1.572159,9.670582,-1.062341,-0.002597,-0.015784,0.042268,-0.019811,-0.004277,0.010771,0.269817,0.188019,-0.719708,-0.611448,96.201506,-9.116997,-142.534724
33317,NaN,1.590769,9.668258,-1.044129,-0.026882,-0.013647,0.040995,-0.018813,0.000423,0.003381,0.269829,0.187944,-0.719678,-0.611500,96.193366,-9.121307,-142.539785
33318,NaN,1.577582,9.687802,-1.096864,0.019026,-0.044039,0.063703,-0.025033,0.001780,0.007855,0.269872,0.187855,-0.719629,-0.611566,96.181375,-9.128168,-142.543181
33319,NaN,1.530945,9.652972,-1.084128,0.047740,-0.013300,0.020753,-0.023155,0.004785,0.006924,0.269922,0.187784,-0.719581,-0.611623,96.170141,-9.134704,-142.544518
33320,NaN,1.564158,9.696383,-1.074546,0.020462,-0.018844,0.067612,-0.025404,0.003509,0.006274,0.269967,0.187706,-0.719527,-0.611691,96.157764,-9.140771,-142.546815
33321,NaN,1.550012,9.704812,-1.054542,0.021857,0.005806,0.071515,-0.024524,0.005070,0.007536,0.270018,0.187625,-0.719476,-0.611753,96.145783,-9.147803,-142.548786
33322,NaN,1.540251,9.730227,-1.073008,0.044748,0.001013,0.096855,-0.025268,0.005271,0.009569,0.270078,0.187541,-0.719423,-0.611814,96.133355,-9.155857,-142.550268
33323,NaN,1.519378,9.715736,-1.048255,0.047635,0.029471,0.076688,-0.026990,0.009172,0.015347,0.270172,0.187445,-0.719365,-0.611870,96.119664,-9.167489,-142.549958
33324,NaN,1.528206,9.738623,-1.050206,0.046195,0.026221,0.100753,-0.024761,0.005300,0.014446,0.270247,0.187343,-0.719318,-0.611923,96.107572,-9.178323,-142.551721
33325,NaN,1.516399,9.704227,-1.110697,0.093764,-0.020614,0.071437,-0.029866,0.004716,0.018471,0.270337,0.187220,-0.719261,-0.611989,96.092692,-9.191392,-142.554011
33326,NaN,1.568949,9.691074,-1.092564,0.043833,-0.041020,0.064995,-0.028242,0.006073,0.017702,0.270428,0.187105,-0.719205,-0.612049,96.078566,-9.204130,-142.555524
33327,NaN,1.606635,9.686146,-1.056907,-0.004839,-0.037344,0.062450,-0.029101,0.009652,0.017997,0.270530,0.186999,-0.719144,-0.612108,96.063919,-9.216993,-142.555262
33328,NaN,1.604077,9.669075,-1.015824,-0.026281,-0.007349,0.041003,-0.021746,0.011506,0.014626,0.270626,0.186920,-0.719098,-0.612144,96.052982,-9.228307,-142.553443
33329,NaN,1.550627,9.665212,-0.990327,0.002289,0.043597,0.025992,-0.022001,0.009857,0.014786,0.270719,0.186839,-0.719053,-0.612181,96.041939,-9.239643,-142.551971
33330,NaN,1.574082,9.679814,-1.010322,-0.000483,0.016291,0.046168,-0.018541,0.003938,0.009974,0.270770,0.186758,-0.719022,-0.612219,96.033493,-9.247849,-142.554233
33331,NaN,1.597239,9.694457,-1.030427,-0.003261,-0.010982,0.066347,-0.021556,-0.002277,0.009795,0.270796,0.186649,-0.718994,-0.612274,96.024039,-9.255670,-142.560944
33332,NaN,1.565177,9.705300,-1.027300,0.022465,0.012098,0.071508,-0.020068,-0.002678,0.005730,0.270812,0.186562,-0.718964,-0.612329,96.015291,-9.261061,-142.566765
33333,NaN,1.576442,9.680013,-1.004725,-0.000372,0.018055,0.046165,-0.016478,-0.010105,0.009405,0.270802,0.186439,-0.718961,-0.612374,96.009710,-9.267878,-142.577943
33334,NaN,1.581418,9.697144,-1.041926,0.021178,-0.010802,0.067622,-0.012371,-0.010968,0.007572,0.270786,0.186330,-0.718968,-0.612406,96.006162,-9.273823,-142.588661
33335,NaN,1.596787,9.688945,-1.058305,0.019846,-0.034298,0.063740,-0.014735,-0.008859,0.005182,0.270771,0.186235,-0.718963,-0.612448,96.001231,-9.278295,-142.597861
33336,NaN,1.611947,9.680793,-1.074595,0.018562,-0.057795,0.059860,-0.013991,-0.009058,0.003150,0.270750,0.186145,-0.718958,-0.612490,95.996536,-9.281836,-142.607207
33337,NaN,1.597133,9.689174,-1.055682,0.019894,-0.033137,0.063744,-0.016724,-0.005213,-0.000819,0.270728,0.186076,-0.718938,-0.612544,95.990232,-9.283115,-142.614741
33338,NaN,1.582057,9.697588,-1.036807,0.021298,-0.008501,0.067624,-0.012362,-0.004427,-0.002810,0.270703,0.186024,-0.718926,-0.612585,95.985981,-9.283538,-142.621052
33339,NaN,1.585967,9.661010,-1.082703,0.044474,-0.053803,0.037073,-0.010619,-0.003178,-0.007034,0.270663,0.185987,-0.718917,-0.612625,95.982823,-9.281642,-142.627452
33340,NaN,1.625374,9.673327,-1.087411,0.017349,-0.079528,0.055997,-0.010619,-0.003178,-0.007034,0.270628,0.185956,-0.718905,-0.612663,95.979414,-9.279734,-142.632787
33341,NaN,1.554719,9.677899,-1.045929,0.047244,-0.004529,0.044828,-0.004377,0.000617,-0.009951,0.270591,0.185957,-0.718905,-0.612680,95.979396,-9.276211,-142.635843
33342,NaN,1.576137,9.692722,-1.067301,0.044449,-0.031819,0.065026,-0.008716,0.004970,-0.006397,0.270586,0.185952,-0.718888,-0.612703,95.976324,-9.275152,-142.636512
33343,NaN,1.538537,9.686504,-1.026784,0.048697,0.020675,0.048699,-0.008716,0.004970,-0.006397,0.270581,0.185947,-0.718872,-0.612726,95.973349,-9.274010,-142.637176
33344,NaN,1.560119,9.701324,-1.047976,0.045900,-0.006612,0.068899,-0.007092,0.006331,-0.007165,0.270577,0.185951,-0.718857,-0.612744,95.971073,-9.272595,-142.637012
33345,NaN,1.555245,9.684343,-1.008778,0.024456,0.023421,0.047423,-0.007092,0.006331,-0.007165,0.270566,0.185948,-0.718846,-0.612762,95.969108,-9.271146,-142.638024
33346,NaN,1.551713,9.678798,-1.042070,0.047490,-0.001656,0.044827,-0.003592,0.007427,-0.003668,0.270573,0.185947,-0.718845,-0.612761,95.968769,-9.271789,-142.637439
33347,NaN,1.609187,9.688513,-1.031014,-0.003982,-0.025780,0.062487,-0.001361,0.006833,-0.009768,0.270558,0.185971,-0.718845,-0.612761,95.969746,-9.268883,-142.636715
33348,NaN,1.593488,9.696877,-1.013327,-0.002561,-0.001141,0.066353,0.000889,0.008105,-0.009114,0.270547,0.185998,-0.718850,-0.612750,95.971859,-9.266463,-142.635409
33349,NaN,1.563220,9.659497,-0.986857,0.001837,0.031028,0.022071,0.002883,0.007731,-0.008304,0.270541,0.186032,-0.718861,-0.612730,95.975155,-9.264224,-142.633198
33350,NaN,1.595136,9.648859,-0.988523,-0.023793,0.009110,0.016934,0.009472,0.004653,-0.011204,0.270503,0.186067,-0.718896,-0.612695,95.982487,-9.260407,-142.633759
33351,NaN,1.572771,9.645826,-1.039670,0.023518,-0.017542,0.015620,0.009456,0.002784,-0.017956,0.270435,0.186121,-0.718929,-0.612671,95.990147,-9.252476,-142.635345
33352,NaN,1.593119,9.660650,-1.062850,0.020705,-0.044819,0.035835,0.013913,-0.004951,-0.019774,0.270332,0.186164,-0.718983,-0.612640,96.000830,-9.243201,-142.640929
33353,NaN,1.590935,9.714719,-1.055837,0.019105,-0.027686,0.087843,0.015907,-0.005326,-0.018963,0.270221,0.186197,-0.719047,-0.612603,96.012951,-9.234450,-142.648148
33354,NaN,1.559053,9.731325,-1.022198,0.021905,0.021021,0.095556,0.011783,-0.006340,-0.023881,0.270103,0.186247,-0.719092,-0.612587,96.022500,-9.222749,-142.654281
33355,NaN,1.574836,9.729041,-1.007094,-0.002392,0.023232,0.094282,0.011781,-0.009612,-0.018690,0.269980,0.186259,-0.719151,-0.612569,96.032744,-9.213843,-142.664231
33356,NaN,1.519492,9.682752,-1.065990,0.072296,0.002494,0.046097,0.010274,-0.014356,-0.016185,0.269858,0.186256,-0.719209,-0.612555,96.042241,-9.206042,-142.675457
33357,NaN,1.583032,9.715448,-1.060998,0.019292,-0.025358,0.087849,0.010919,-0.006033,-0.018392,0.269759,0.186288,-0.719256,-0.612534,96.051386,-9.197386,-142.681518
33358,NaN,1.548768,9.672389,-1.069284,0.046694,-0.018853,0.040973,0.006812,-0.005176,-0.016558,0.269672,0.186309,-0.719291,-0.612525,96.058046,-9.189924,-142.687419
33359,NaN,1.539560,9.703618,-1.057100,0.046581,0.002051,0.068898,0.009568,-0.000607,-0.016220,0.269593,0.186341,-0.719332,-0.612501,96.066180,-9.182847,-142.691749
33360,NaN,1.520168,9.706229,-1.074301,0.070971,0.001019,0.070171,0.007708,0.001526,-0.013733,0.269538,0.186374,-0.719363,-0.612479,96.072763,-9.177399,-142.693953
33361,NaN,1.526192,9.729204,-1.079580,0.069539,-0.002147,0.094246,0.008334,0.001439,-0.012312,0.269483,0.186395,-0.719400,-0.612454,96.079822,-9.172922,-142.697212
33362,NaN,1.540084,9.721079,-1.097831,0.068217,-0.025651,0.090401,0.006846,0.001838,-0.008247,0.269446,0.186408,-0.719433,-0.612427,96.085935,-9.170618,-142.699572
33363,NaN,1.557307,9.718673,-1.081960,0.043919,-0.023446,0.089129,0.003854,0.000762,-0.006866,0.269407,0.186402,-0.719464,-0.612410,96.090721,-9.169028,-142.703765
33364,NaN,1.539065,9.721171,-1.098444,0.068307,-0.024483,0.090403,-0.001369,0.000286,0.000611,0.269400,0.186367,-0.719482,-0.612402,96.092357,-9.171676,-142.707566
33365,NaN,1.531792,9.698346,-1.093580,0.069859,-0.020136,0.066328,-0.004345,0.007619,-0.001640,0.269410,0.186354,-0.719482,-0.612402,96.091774,-9.173514,-142.707826
33366,NaN,1.564703,9.687731,-1.094198,0.044201,-0.042034,0.061217,-0.004464,0.007733,0.001814,0.269436,0.186333,-0.719482,-0.612397,96.090963,-9.177300,-142.707404
33367,NaN,1.557729,9.664890,-1.089053,0.045755,-0.037716,0.037142,-0.005327,0.011314,0.002110,0.269477,0.186322,-0.719475,-0.612390,96.089376,-9.181411,-142.704778
33368,NaN,1.542996,9.727031,-1.062159,0.045584,0.003489,0.092970,-0.008556,0.013732,0.005207,0.269539,0.186302,-0.719458,-0.612389,96.085701,-9.187494,-142.701102
33369,NaN,1.554304,9.701727,-1.040052,0.022736,0.009477,0.067620,-0.012426,0.011093,0.005323,0.269583,0.186259,-0.719438,-0.612406,96.080654,-9.193276,-142.700922
33370,NaN,1.569927,9.693548,-1.056334,0.021401,-0.014026,0.063786,-0.009300,0.013930,0.007240,0.269653,0.186231,-0.719420,-0.612405,96.076554,-9.200530,-142.697257
33371,NaN,1.603520,9.682897,-1.056161,-0.004326,-0.035861,0.058683,-0.013035,0.016320,0.005462,0.269719,0.186203,-0.719391,-0.612419,96.070533,-9.206819,-142.693796
33372,NaN,1.553570,9.696085,-1.069845,0.045788,-0.014457,0.065060,-0.015048,0.008281,0.008280,0.269777,0.186146,-0.719364,-0.612442,96.063671,-9.214322,-142.693453
33373,NaN,1.576232,9.710838,-1.090438,0.042942,-0.041700,0.085310,-0.012068,0.007484,0.000151,0.269804,0.186120,-0.719340,-0.612466,96.058515,-9.217178,-142.693047
33374,NaN,1.597717,9.660257,-1.047342,-0.002636,-0.030409,0.034610,-0.013321,0.004388,0.002497,0.269829,0.186075,-0.719318,-0.612495,96.052945,-9.221151,-142.694595
33375,NaN,1.572464,9.693915,-1.049169,0.021613,-0.011141,0.063789,-0.016430,0.006692,0.002140,0.269865,0.186038,-0.719283,-0.612532,96.045449,-9.224870,-142.694269
33376,NaN,1.580124,9.663025,-1.060654,0.021776,-0.030906,0.035886,-0.013317,0.007657,-0.002691,0.269885,0.186021,-0.719252,-0.612564,96.039528,-9.226084,-142.693613
33377,NaN,1.557702,9.648537,-1.037199,0.024719,-0.002547,0.015632,-0.013942,0.007743,-0.004113,0.269905,0.186015,-0.719216,-0.612600,96.033275,-9.226284,-142.692101
33378,NaN,1.571979,9.694484,-1.044629,0.021762,-0.009451,0.063791,-0.014804,0.011322,-0.003814,0.269936,0.186012,-0.719174,-0.612636,96.026153,-9.227079,-142.689261
33379,NaN,1.546186,9.728237,-1.046358,0.046008,0.009848,0.092964,-0.015565,0.006379,-0.003346,0.269948,0.185988,-0.719139,-0.612678,96.019298,-9.227717,-142.689828
33380,NaN,1.538283,9.759471,-1.031928,0.045973,0.030757,0.120862,-0.010578,0.007085,-0.003912,0.269960,0.185978,-0.719116,-0.612703,96.014988,-9.228201,-142.689428
33381,NaN,1.556031,9.703276,-1.022885,0.023296,0.016356,0.067610,-0.012451,0.007345,-0.008176,0.269960,0.185980,-0.719084,-0.612740,96.009658,-9.226212,-142.688814
33382,NaN,1.548278,9.680599,-1.017287,0.024868,0.020653,0.043528,-0.008838,0.005065,-0.002945,0.269966,0.185963,-0.719070,-0.612760,96.006541,-9.227126,-142.689638
33383,NaN,1.577438,9.718311,-1.042953,0.020489,-0.010273,0.087873,-0.006099,0.004496,-0.004166,0.269959,0.185945,-0.719067,-0.612772,96.005211,-9.227402,-142.691741
33384,NaN,1.559419,9.667041,-1.067323,0.046477,-0.027960,0.037171,-0.005353,0.004298,-0.006198,0.269949,0.185941,-0.719061,-0.612784,96.004130,-9.226416,-142.692810
33385,NaN,1.576690,9.664690,-1.050545,0.022151,-0.025739,0.035900,-0.000737,0.006740,-0.008341,0.269933,0.185958,-0.719067,-0.612780,96.005748,-9.224147,-142.692824
33386,NaN,1.553478,9.704009,-1.019807,0.023545,0.019251,0.067604,-0.000366,0.005005,-0.006764,0.269919,0.185965,-0.719075,-0.612773,96.007453,-9.222881,-142.693451
33387,NaN,1.534963,9.706612,-1.036092,0.047881,0.018225,0.068875,0.000394,0.009947,-0.007230,0.269912,0.185982,-0.719084,-0.612762,96.009541,-9.221566,-142.692731
33388,NaN,1.555376,9.709878,-0.985610,0.000718,0.046149,0.070137,0.000408,0.015085,-0.005664,0.269937,0.186017,-0.719082,-0.612742,96.010768,-9.221532,-142.687606
33389,NaN,1.545778,9.746870,-1.078421,0.067821,-0.013770,0.114503,-0.003838,0.010909,-0.001945,0.269957,0.186018,-0.719079,-0.612737,96.010318,-9.223166,-142.685806
33390,NaN,1.566910,9.696218,-1.036118,0.022253,-0.002478,0.063794,-0.004968,0.007701,-0.003056,0.269969,0.186014,-0.719073,-0.612740,96.009174,-9.224175,-142.685102
33391,NaN,1.581713,9.688150,-1.052999,0.020867,-0.025991,0.059991,-0.005461,0.009545,-0.001179,0.269995,0.186012,-0.719064,-0.612739,96.007618,-9.226257,-142.682999
33392,NaN,1.571471,9.659713,-1.081556,0.045332,-0.047430,0.033380,-0.009941,0.012131,-0.000925,0.270034,0.186007,-0.719039,-0.612753,96.003234,-9.228745,-142.679867
33393,NaN,1.574334,9.665497,-1.046648,0.022454,-0.021109,0.035911,-0.005948,0.014659,-0.004487,0.270060,0.186023,-0.719022,-0.612756,96.001182,-9.229267,-142.676069
33394,NaN,1.560283,9.685376,-1.100642,0.068217,-0.051629,0.058740,-0.005572,0.016196,-0.008096,0.270088,0.186062,-0.718999,-0.612760,95.998856,-9.227912,-142.670155
33395,NaN,1.573280,9.719698,-1.036282,0.020940,-0.003295,0.087877,-0.008306,0.018629,-0.000123,0.270146,0.186074,-0.718973,-0.612761,95.995101,-9.231113,-142.664030
33396,NaN,1.540372,9.730448,-1.034302,0.046764,0.019695,0.092946,-0.004072,0.017667,-0.005406,0.270185,0.186110,-0.718954,-0.612755,95.993524,-9.231378,-142.657430
33397,NaN,1.540396,9.730524,-1.033551,0.046775,0.020265,0.092945,-0.005943,0.016523,0.002267,0.270244,0.186115,-0.718939,-0.612745,95.991246,-9.235712,-142.651837
33398,NaN,1.573816,9.719884,-1.033724,0.021072,-0.001583,0.087877,-0.006931,0.020209,0.006021,0.270331,0.186114,-0.718918,-0.612731,95.987906,-9.242641,-142.644462
33399,NaN,1.582374,9.688844,-1.045595,0.021171,-0.021379,0.060001,-0.010536,0.024352,0.007542,0.270439,0.186116,-0.718883,-0.612724,95.982270,-9.250559,-142.634837
33400,NaN,1.562353,9.685704,-1.094803,0.068435,-0.048204,0.058756,-0.005677,0.023303,0.003682,0.270528,0.186135,-0.718861,-0.612706,95.979336,-9.256338,-142.625532
33401,NaN,1.576425,9.665957,-1.039224,0.022763,-0.016553,0.035919,-0.003443,0.019442,0.002773,0.270600,0.186153,-0.718848,-0.612683,95.978118,-9.261138,-142.617804
33402,NaN,1.594431,9.663516,-1.021986,-0.001501,-0.014323,0.034647,-0.005541,0.026463,-0.004955,0.270673,0.186213,-0.718813,-0.612673,95.974884,-9.262183,-142.606152
33403,NaN,1.568572,9.697189,-1.024444,0.022760,0.004976,0.063792,-0.005299,0.022972,-0.006678,0.270725,0.186267,-0.718784,-0.612668,95.972379,-9.261823,-142.596810
33404,NaN,1.600865,9.686697,-1.024885,-0.002953,-0.016865,0.058734,0.000184,0.021838,-0.009113,0.270764,0.186335,-0.718769,-0.612647,95.972814,-9.260222,-142.587577
33405,NaN,1.557326,9.668956,-1.052939,0.047205,-0.015927,0.037194,-0.003709,0.010792,-0.005395,0.270776,0.186353,-0.718762,-0.612645,95.972337,-9.259819,-142.585017
33406,NaN,1.559550,9.674731,-1.018684,0.024394,0.010383,0.039705,0.000277,0.008187,-0.010521,0.270762,0.186384,-0.718765,-0.612639,95.974081,-9.256601,-142.583580
33407,NaN,1.547928,9.700287,-1.039495,0.047235,0.005595,0.065063,0.001027,0.007991,-0.012552,0.270739,0.186424,-0.718768,-0.612632,95.976382,-9.252097,-142.582156
33408,NaN,1.542447,9.683205,-1.001211,0.025942,0.035599,0.043483,0.003019,0.007620,-0.011738,0.270716,0.186462,-0.718779,-0.612618,95.979737,-9.248152,-142.580973
33409,NaN,1.544113,9.688983,-0.967790,0.003064,0.061935,0.045986,0.008862,-0.000380,-0.014165,0.270647,0.186491,-0.718819,-0.612594,95.987526,-9.242070,-142.584808
33410,NaN,1.557103,9.734895,-0.977672,0.000101,0.055131,0.094156,0.012100,-0.002789,-0.017259,0.270561,0.186529,-0.718866,-0.612565,95.996996,-9.234357,-142.589299
33411,NaN,1.537971,9.737466,-0.995299,0.024457,0.054040,0.095425,0.010590,-0.005666,-0.008013,0.270493,0.186522,-0.718922,-0.612531,96.006124,-9.231644,-142.596310
33412,NaN,1.559901,9.698301,-1.027156,0.023110,0.010142,0.063787,0.014069,-0.009698,-0.006077,0.270415,0.186501,-0.718996,-0.612486,96.017470,-9.229886,-142.605466
33413,NaN,1.553565,9.686932,-1.096440,0.068882,-0.040797,0.058786,0.012202,-0.007573,-0.003591,0.270354,0.186476,-0.719062,-0.612441,96.027610,-9.229646,-142.613481
33414,NaN,1.568066,9.678757,-1.114954,0.067474,-0.064308,0.055017,0.007098,-0.004905,-0.004765,0.270304,0.186456,-0.719109,-0.612415,96.034531,-9.228921,-142.619951
33415,NaN,1.565951,9.667197,-1.043515,0.023262,-0.008535,0.035928,0.009471,-0.003739,-0.007558,0.270243,0.186453,-0.719160,-0.612382,96.042991,-9.226388,-142.625875
33416,NaN,1.587440,9.681969,-1.066341,0.020338,-0.035723,0.056248,0.008353,-0.001810,-0.007104,0.270196,0.186452,-0.719204,-0.612352,96.050320,-9.224516,-142.630414
33417,NaN,1.576157,9.707329,-1.088170,0.043165,-0.040479,0.081610,0.010850,0.001113,-0.006599,0.270151,0.186456,-0.719256,-0.612310,96.059125,-9.223059,-142.634454
33418,NaN,1.557679,9.709844,-1.105084,0.067545,-0.041597,0.082885,0.000145,0.008291,-0.007071,0.270148,0.186475,-0.719261,-0.612299,96.060817,-9.221816,-142.633165
33419,NaN,1.549596,9.687107,-1.100505,0.069093,-0.037347,0.058799,-0.000854,0.004973,-0.011637,0.270118,0.186499,-0.719265,-0.612301,96.062337,-9.217692,-142.633726
33420,NaN,1.558828,9.715808,-1.071012,0.044789,-0.014687,0.085379,0.002130,0.002786,-0.007824,0.270091,0.186506,-0.719283,-0.612290,96.065669,-9.215686,-142.635568
33421,NaN,1.568669,9.690595,-1.050013,0.021999,-0.008737,0.060018,-0.004235,-0.002778,-0.008225,0.270044,0.186487,-0.719291,-0.612307,96.066118,-9.212994,-142.641171
33422,NaN,1.582930,9.682606,-1.067256,0.020580,-0.032247,0.056259,-0.001368,-0.001587,-0.006143,0.270009,0.186471,-0.719305,-0.612310,96.067865,-9.211681,-142.645639
33423,NaN,1.585068,9.688416,-1.033151,-0.002232,-0.005878,0.058747,-0.002612,-0.001415,-0.008988,0.269963,0.186459,-0.719316,-0.612321,96.069096,-9.208728,-142.650710
33424,NaN,1.558536,9.722079,-1.036235,0.022116,0.013408,0.087866,-0.004604,-0.001047,-0.009802,0.269922,0.186453,-0.719317,-0.612340,96.068903,-9.205363,-142.654643
33425,NaN,1.558111,9.668375,-1.044341,0.023657,-0.002731,0.035930,-0.006227,-0.002411,-0.009039,0.269871,0.186431,-0.719320,-0.612366,96.068354,-9.202184,-142.660749
33426,NaN,1.556572,9.722496,-1.035271,0.022171,0.014589,0.087864,-0.002848,0.005340,-0.012450,0.269844,0.186457,-0.719315,-0.612376,96.068552,-9.197697,-142.660833
33427,NaN,1.563281,9.691656,-1.048256,0.022240,-0.005244,0.060020,0.002627,0.000943,-0.009699,0.269801,0.186464,-0.719336,-0.612368,96.072469,-9.194464,-142.664049
33428,NaN,1.551777,9.717131,-1.069250,0.045105,-0.010037,0.085384,0.000388,0.004801,-0.008791,0.269779,0.186479,-0.719345,-0.612362,96.074607,-9.192029,-142.664669
33429,NaN,1.568873,9.714814,-1.052686,0.020781,-0.007699,0.084112,-0.000731,0.006729,-0.008337,0.269754,0.186484,-0.719355,-0.612360,96.076467,-9.189921,-142.666448
33430,NaN,1.545896,9.700153,-1.030832,0.023851,0.020604,0.063769,0.004507,0.009089,-0.009048,0.269744,0.186519,-0.719371,-0.612335,96.080566,-9.187600,-142.664577
33431,NaN,1.560100,9.692130,-1.048607,0.022404,-0.002913,0.060021,0.003752,0.004150,-0.008585,0.269719,0.186539,-0.719391,-0.612317,96.084713,-9.185147,-142.665169
33432,NaN,1.574311,9.684089,-1.066550,0.020969,-0.026425,0.056275,0.007116,0.003499,-0.008379,0.269688,0.186557,-0.719423,-0.612287,96.090830,-9.182868,-142.666565
33433,NaN,1.573331,9.684189,-1.067092,0.020987,-0.025824,0.056277,0.005252,0.003754,-0.012646,0.269640,0.186584,-0.719448,-0.612271,96.096115,-9.178106,-142.668597
33434,NaN,1.547113,9.663837,-1.079830,0.046884,-0.023318,0.033459,0.011111,0.006029,-0.011934,0.269604,0.186628,-0.719485,-0.612230,96.104252,-9.173955,-142.668313
33435,NaN,1.534869,9.743148,-1.092992,0.068183,-0.011310,0.110750,0.007615,0.001655,-0.010254,0.269555,0.186645,-0.719521,-0.612203,96.111015,-9.170452,-142.671348
33436,NaN,1.537422,9.694985,-1.068320,0.046958,-0.001734,0.061293,0.006614,0.000206,-0.008069,0.269514,0.186652,-0.719556,-0.612178,96.117149,-9.168147,-142.674662
33437,NaN,1.540442,9.766182,-1.098518,0.066776,-0.013794,0.134843,0.002381,0.004430,-0.007977,0.269487,0.186660,-0.719575,-0.612165,96.120635,-9.166204,-142.676393
33438,NaN,1.528380,9.726149,-1.055714,0.047056,0.019860,0.089123,-0.001243,0.000169,-0.002845,0.269469,0.186637,-0.719591,-0.612162,96.122322,-9.166873,-142.680052
33439,NaN,1.550990,9.687088,-1.085881,0.045605,-0.024070,0.057557,-0.005106,0.002662,-0.001176,0.269465,0.186608,-0.719595,-0.612168,96.121734,-9.168634,-142.682923
33440,NaN,1.540343,9.712499,-1.106047,0.068466,-0.028866,0.082924,-0.009722,0.000216,0.000957,0.269467,0.186560,-0.719588,-0.612189,96.118597,-9.171472,-142.686790
33441,NaN,1.548359,9.681574,-1.118025,0.068562,-0.048740,0.055099,-0.011843,0.000696,0.003595,0.269481,0.186501,-0.719577,-0.612215,96.114126,-9.175978,-142.690434
33442,NaN,1.573656,9.702143,-1.104776,0.042781,-0.050090,0.077923,-0.012334,0.005804,0.000288,0.269503,0.186470,-0.719554,-0.612241,96.108971,-9.178776,-142.691035
33443,NaN,1.558773,9.710404,-1.085777,0.044395,-0.025404,0.081655,-0.016567,0.010026,0.000381,0.269540,0.186435,-0.719515,-0.612281,96.101034,-9.182225,-142.690498
33444,NaN,1.574187,9.702456,-1.101269,0.042939,-0.048917,0.077928,-0.020308,0.014276,0.005349,0.269615,0.186400,-0.719461,-0.612322,96.090579,-9.188423,-142.686521
33445,NaN,1.566976,9.733608,-1.086060,0.042953,-0.027897,0.105752,-0.018805,0.019016,0.002858,0.269697,0.186392,-0.719404,-0.612356,96.080702,-9.193313,-142.679691
33446,NaN,1.570905,9.685537,-1.058390,0.021730,-0.018334,0.056292,-0.023541,0.019944,0.003260,0.269789,0.186377,-0.719331,-0.612405,96.067851,-9.198662,-142.672311
33447,NaN,1.530944,9.727253,-1.041737,0.047546,0.025059,0.089108,-0.023419,0.021699,0.006560,0.269891,0.186354,-0.719262,-0.612449,96.055364,-9.205709,-142.664913
33448,NaN,1.554580,9.688328,-1.069561,0.046085,-0.018905,0.057566,-0.025913,0.018772,0.006052,0.269990,0.186323,-0.719185,-0.612504,96.041288,-9.212575,-142.658378
33449,NaN,1.555238,9.688520,-1.066865,0.046123,-0.018338,0.057567,-0.023540,0.019938,0.003263,0.270082,0.186311,-0.719112,-0.612554,96.028512,-9.217827,-142.650836
33450,NaN,1.540874,9.696776,-1.046873,0.047707,0.006310,0.061288,-0.023806,0.009889,0.007025,0.270150,0.186252,-0.719055,-0.612609,96.016472,-9.224710,-142.649485
33451,NaN,1.548925,9.719805,-1.048892,0.046209,0.003315,0.085383,-0.021311,0.012813,0.007536,0.270216,0.186191,-0.719008,-0.612653,96.006043,-9.232103,-142.648629
33452,NaN,1.560470,9.694494,-1.025959,0.023471,0.009247,0.060015,-0.017830,0.008785,0.009471,0.270282,0.186127,-0.718973,-0.612685,95.997552,-9.240313,-142.648061
33453,NaN,1.576435,9.686467,-1.041529,0.021919,-0.014232,0.056299,-0.018450,0.008870,0.008049,0.270336,0.186065,-0.718938,-0.612720,95.989145,-9.247454,-142.648441
33454,NaN,1.569911,9.663634,-1.035411,0.023499,-0.010044,0.032203,-0.015206,0.006468,0.004956,0.270377,0.186014,-0.718910,-0.612751,95.982329,-9.252953,-142.648935
33455,NaN,1.595320,9.684154,-1.021792,-0.002280,-0.011355,0.055028,-0.014458,0.001141,0.001351,0.270390,0.185964,-0.718887,-0.612787,95.976380,-9.256060,-142.651941
33456,NaN,1.588199,9.661371,-1.016081,-0.000700,-0.007168,0.030932,-0.012835,0.002506,0.000592,0.270401,0.185920,-0.718868,-0.612818,95.971248,-9.258836,-142.654458
33457,NaN,1.584653,9.709839,-1.040050,0.020612,-0.015544,0.080398,-0.011951,0.002204,-0.004891,0.270388,0.185890,-0.718849,-0.612855,95.966848,-9.258469,-142.657859
33458,NaN,1.587572,9.661711,-1.013824,-0.000605,-0.005997,0.030932,-0.008588,0.001556,-0.004683,0.270376,0.185868,-0.718839,-0.612879,95.964186,-9.258183,-142.660606
33459,NaN,1.554118,9.672439,-1.012164,0.025302,0.016935,0.035912,-0.004589,0.004093,-0.008231,0.270353,0.185866,-0.718837,-0.612892,95.963738,-9.256088,-142.662682
33460,NaN,1.565288,9.712846,-1.054104,0.045099,-0.015553,0.081672,-0.008333,0.008332,-0.003258,0.270369,0.185860,-0.718820,-0.612906,95.960607,-9.257018,-142.661603
33461,NaN,1.575365,9.687596,-1.032605,0.022337,-0.009576,0.056303,-0.002714,0.007104,-0.009141,0.270350,0.185871,-0.718820,-0.612912,95.961055,-9.254564,-142.662325
33462,NaN,1.559754,9.695785,-1.014787,0.023942,0.015075,0.060006,-0.002478,0.005478,-0.004114,0.270348,0.185867,-0.718824,-0.612909,95.961535,-9.254835,-142.662843
33463,NaN,1.566508,9.718795,-1.018916,0.022415,0.012087,0.084104,-0.000354,0.005004,-0.006752,0.270324,0.185866,-0.718837,-0.612904,95.963728,-9.253431,-142.665075
33464,NaN,1.591670,9.685435,-1.015319,-0.001868,-0.006062,0.055033,-0.002226,0.007123,-0.004265,0.270327,0.185869,-0.718839,-0.612899,95.964198,-9.253715,-142.664633
33465,NaN,1.588520,9.679941,-1.049187,0.020869,-0.031338,0.052607,0.002761,0.007842,-0.004816,0.270326,0.185887,-0.718856,-0.612875,95.967764,-9.253294,-142.663425
33466,NaN,1.575947,9.693594,-0.997937,-0.000286,0.019158,0.058730,0.003129,0.006109,-0.003242,0.270323,0.185890,-0.718877,-0.612851,95.971406,-9.254100,-142.663631
33467,NaN,1.544419,9.715972,-1.069251,0.069633,-0.013215,0.082949,-0.000603,0.008488,-0.005024,0.270323,0.185896,-0.718884,-0.612841,95.972884,-9.254050,-142.663297
33468,NaN,1.558876,9.707986,-1.086936,0.068138,-0.036730,0.079255,0.007127,0.003516,-0.008365,0.270292,0.185914,-0.718916,-0.612811,95.979008,-9.251782,-142.664690
33469,NaN,1.553882,9.690694,-1.048951,0.046886,-0.006707,0.057578,0.001137,0.006476,-0.004057,0.270287,0.185920,-0.718931,-0.612794,95.981772,-9.251843,-142.664796
33470,NaN,1.571344,9.688257,-1.032527,0.022630,-0.004372,0.056306,0.002258,0.004550,-0.004513,0.270276,0.185921,-0.718950,-0.612776,95.985048,-9.251832,-142.665825
33471,NaN,1.563536,9.665416,-1.028402,0.024201,-0.000200,0.032206,0.004014,0.005808,-0.008724,0.270254,0.185943,-0.718970,-0.612756,95.989261,-9.249475,-142.666086
33472,NaN,1.562760,9.665492,-1.028867,0.024262,0.000367,0.032206,0.007378,0.005161,-0.008515,0.270228,0.185967,-0.719000,-0.612725,95.995375,-9.247219,-142.666520
33473,NaN,1.561851,9.665578,-1.029440,0.024265,0.000950,0.032206,0.005637,0.002042,-0.011058,0.270181,0.185988,-0.719029,-0.612705,96.001037,-9.243115,-142.669022
33474,NaN,1.555772,9.702220,-0.982985,0.001615,0.047868,0.062406,0.008381,0.006612,-0.010696,0.270153,0.186026,-0.719059,-0.612672,96.007570,-9.239704,-142.668486
33475,NaN,1.559141,9.719651,-1.022050,0.022884,0.019002,0.084092,0.007630,-0.003456,-0.011817,0.270084,0.186036,-0.719099,-0.612651,96.014722,-9.234980,-142.673911
33476,NaN,1.603120,9.695602,-1.075204,0.018244,-0.052680,0.073042,0.008131,-0.000165,-0.012120,0.270027,0.186058,-0.719136,-0.612627,96.021726,-9.230350,-142.677199
33477,NaN,1.547012,9.691336,-1.053163,0.047219,-0.002072,0.057579,0.007127,0.003514,-0.008363,0.269983,0.186064,-0.719174,-0.612599,96.028370,-9.228041,-142.680815
33478,NaN,1.553413,9.714304,-1.058225,0.045756,-0.005088,0.081680,0.008749,0.004880,-0.009121,0.269954,0.186092,-0.719208,-0.612564,96.035290,-9.225423,-142.681373
33479,NaN,1.552542,9.714369,-1.058899,0.045730,-0.004490,0.081681,0.007008,0.006890,-0.010089,0.269922,0.186124,-0.719237,-0.612534,96.041465,-9.222084,-142.681608
33480,NaN,1.541051,9.739828,-1.080275,0.068583,-0.009286,0.107055,0.005636,0.007170,-0.009482,0.269902,0.186156,-0.719258,-0.612508,96.046385,-9.219398,-142.680822
33481,NaN,1.548226,9.708939,-1.093625,0.068556,-0.029213,0.079277,0.001638,0.004633,-0.005936,0.269886,0.186161,-0.719275,-0.612494,96.049459,-9.218460,-142.681952
33482,NaN,1.565418,9.706572,-1.077236,0.044300,-0.026859,0.078006,0.002891,0.007729,-0.008269,0.269874,0.186187,-0.719289,-0.612476,96.052767,-9.216499,-142.680917
33483,NaN,1.549972,9.714667,-1.059936,0.045895,-0.002179,0.081681,0.002874,0.009593,-0.001516,0.269884,0.186189,-0.719308,-0.612447,96.056242,-9.218401,-142.680096
33484,NaN,1.524882,9.694209,-1.072123,0.071795,0.000173,0.058850,0.001132,0.011603,-0.002484,0.269906,0.186203,-0.719317,-0.612424,96.058241,-9.219970,-142.677179
33485,NaN,1.542772,9.691762,-1.055461,0.047516,0.002563,0.057577,-0.000625,0.010347,0.001726,0.269932,0.186190,-0.719328,-0.612403,96.059639,-9.223868,-142.676317
33486,NaN,1.547671,9.709055,-1.093384,0.068783,-0.026320,0.079284,-0.004123,0.011101,0.004968,0.269979,0.186169,-0.719328,-0.612389,96.058746,-9.229654,-142.674146
33487,NaN,1.561583,9.689246,-1.038041,0.023285,0.005506,0.056304,-0.002751,0.010820,0.004362,0.270020,0.186149,-0.719333,-0.612371,96.058867,-9.234956,-142.672503
33488,NaN,1.574024,9.729425,-1.080130,0.043023,-0.026943,0.102118,-0.005130,0.014779,0.008724,0.270093,0.186124,-0.719328,-0.612352,96.057093,-9.243103,-142.668439
33489,NaN,1.550055,9.708886,-1.091505,0.068921,-0.024588,0.079288,-0.007003,0.011768,0.009633,0.270158,0.186081,-0.719323,-0.612342,96.054614,-9.251651,-142.666657
33490,NaN,1.583850,9.698352,-1.091317,0.043075,-0.046307,0.074354,-0.011605,0.012583,0.006576,0.270222,0.186048,-0.719300,-0.612351,96.049312,-9.258441,-142.663728
33491,NaN,1.584787,9.698367,-1.089817,0.043090,-0.045713,0.074356,-0.015104,0.013336,0.009817,0.270298,0.185998,-0.719270,-0.612368,96.042240,-9.267024,-142.661351
33492,NaN,1.588621,9.703978,-1.053940,0.020427,-0.019257,0.076746,-0.020091,0.012615,0.010363,0.270382,0.185940,-0.719223,-0.612403,96.032108,-9.275973,-142.658633
33493,NaN,1.597490,9.673091,-1.064825,0.020373,-0.039223,0.048984,-0.021077,0.014430,0.007367,0.270467,0.185903,-0.719168,-0.612442,96.021315,-9.283085,-142.654096
33494,NaN,1.605536,9.696132,-1.066784,0.018905,-0.042213,0.073091,-0.023068,0.014794,0.006550,0.270550,0.185861,-0.719106,-0.612491,96.009236,-9.289991,-142.649885
33495,NaN,1.550943,9.691960,-1.041574,0.047963,0.008348,0.057572,-0.025424,0.011761,0.002582,0.270600,0.185808,-0.719044,-0.612558,95.996510,-9.294534,-142.649543
33496,NaN,1.584223,9.681664,-1.039748,0.022109,-0.013362,0.052645,-0.026044,0.016973,0.002738,0.270682,0.185783,-0.718966,-0.612621,95.982484,-9.299397,-142.643840
33497,NaN,1.551771,9.692374,-1.036476,0.048041,0.009522,0.057570,-0.018697,0.010468,0.003006,0.270727,0.185740,-0.718924,-0.612663,95.973622,-9.303964,-142.643185
33498,NaN,1.607178,9.696954,-1.056792,0.019054,-0.039822,0.073101,-0.024785,0.014940,-0.001169,0.270789,0.185724,-0.718849,-0.612728,95.960469,-9.306477,-142.638418
33499,NaN,1.587936,9.687769,-0.998767,-0.000485,0.014317,0.055024,-0.018583,0.012215,0.006310,0.270852,0.185676,-0.718807,-0.612764,95.951421,-9.313102,-142.636663
33500,NaN,1.566055,9.672990,-0.975161,0.002711,0.042524,0.034565,-0.015063,0.019863,-0.000523,0.270925,0.185687,-0.718756,-0.612789,95.943383,-9.316274,-142.629091
33501,NaN,1.588562,9.688032,-0.995207,-0.000405,0.015462,0.055022,-0.012821,0.021141,0.000146,0.271001,0.185704,-0.718711,-0.612802,95.936681,-9.319717,-142.620761
33502,NaN,1.588558,9.688180,-0.993774,-0.000343,0.016033,0.055022,-0.009937,0.020478,-0.004516,0.271058,0.185737,-0.718672,-0.612813,95.931483,-9.320648,-142.612593
33503,NaN,1.596111,9.657406,-1.005837,-0.000405,-0.003892,0.027269,-0.006570,0.014707,-0.005886,0.271079,0.185754,-0.718653,-0.612821,95.929090,-9.320442,-142.609163
33504,NaN,1.572601,9.696510,-0.974609,0.001356,0.041308,0.058662,-0.002451,0.013871,-0.007702,0.271097,0.185789,-0.718642,-0.612815,95.928768,-9.319166,-142.604620
33505,NaN,1.569246,9.691144,-1.008345,0.024073,0.016020,0.056291,0.000665,0.006457,-0.008923,0.271071,0.185800,-0.718655,-0.612809,95.931312,-9.316738,-142.606010
33506,NaN,1.611263,9.709163,-0.979660,-0.026018,0.016701,0.077853,0.004144,0.002437,-0.006988,0.271043,0.185807,-0.718680,-0.612789,95.935844,-9.315191,-142.608113
33507,NaN,1.549770,9.693867,-1.025450,0.048417,0.015343,0.057561,0.004171,0.000583,-0.013744,0.270983,0.185833,-0.718704,-0.612779,95.940876,-9.309300,-142.611099
33508,NaN,1.581431,9.683480,-1.027001,0.022544,-0.006347,0.052651,0.009390,-0.005446,-0.010843,0.270911,0.185837,-0.718753,-0.612753,95.949113,-9.305089,-142.617523
33509,NaN,1.605262,9.704005,-1.015618,-0.003243,-0.007510,0.075487,0.007149,-0.006726,-0.011512,0.270838,0.185842,-0.718793,-0.612736,95.956086,-9.300294,-142.623610
33510,NaN,1.546321,9.694169,-1.027800,0.048592,0.017023,0.057558,0.006393,-0.006535,-0.009483,0.270768,0.185833,-0.718836,-0.612720,95.962720,-9.296791,-142.630743
33511,NaN,1.575442,9.678223,-1.063635,0.045347,-0.030573,0.050291,0.011886,-0.007649,-0.011904,0.270679,0.185837,-0.718895,-0.612688,95.972838,-9.291620,-142.638638
33512,NaN,1.541528,9.688754,-1.063967,0.071344,-0.007751,0.055196,0.010875,-0.003976,-0.008144,0.270618,0.185837,-0.718949,-0.612652,95.981813,-9.289030,-142.644373
33513,NaN,1.603125,9.716143,-1.091710,0.040786,-0.060578,0.094882,0.006138,-0.003056,-0.007752,0.270566,0.185830,-0.718988,-0.612632,95.988001,-9.286779,-142.649741
33514,NaN,1.557749,9.686342,-1.049025,0.047159,-0.004775,0.053924,0.009129,0.003159,-0.007530,0.270534,0.185848,-0.719027,-0.612594,95.995317,-9.284964,-142.651393
33515,NaN,1.602701,9.662298,-1.101998,0.042271,-0.076467,0.043043,0.006861,0.003735,-0.001445,0.270524,0.185844,-0.719065,-0.612555,96.001553,-9.286418,-142.653052
33516,NaN,1.594317,9.693256,-1.089395,0.042431,-0.055337,0.070783,0.005899,0.008821,-0.009614,0.270510,0.185881,-0.719085,-0.612527,96.006469,-9.283755,-142.651308
33517,NaN,1.611410,9.690865,-1.073085,0.018133,-0.052900,0.069513,0.002896,0.012858,-0.006674,0.270516,0.185913,-0.719096,-0.612502,96.009598,-9.282910,-142.648212
33518,NaN,1.537863,9.688987,-1.067139,0.071613,-0.004317,0.055197,0.002279,0.012944,-0.008098,0.270524,0.185953,-0.719100,-0.612481,96.012071,-9.281359,-142.644179
33519,NaN,1.584532,9.724454,-1.076695,0.042624,-0.033054,0.098524,0.004019,0.010935,-0.007130,0.270529,0.185992,-0.719112,-0.612453,96.015810,-9.279980,-142.640561
33520,NaN,1.579377,9.707172,-1.038303,0.021539,-0.003031,0.076762,-0.002958,0.010574,-0.007408,0.270536,0.186015,-0.719105,-0.612452,96.015510,-9.278680,-142.637938
33521,NaN,1.536189,9.689294,-1.066761,0.071732,-0.002609,0.055196,-0.002724,0.003824,-0.003964,0.270524,0.186001,-0.719113,-0.612452,96.016201,-9.278954,-142.640287
33522,NaN,1.548281,9.723411,-1.002608,0.024926,0.046315,0.083997,-0.006838,-0.000468,-0.003731,0.270506,0.185972,-0.719111,-0.612470,96.014742,-9.279085,-142.644262
33523,NaN,1.570888,9.684610,-1.032511,0.023202,0.002221,0.052651,-0.005581,0.002629,-0.006058,0.270490,0.185964,-0.719108,-0.612484,96.013792,-9.277939,-142.646182
33524,NaN,1.560035,9.710107,-1.052914,0.046043,-0.002574,0.078035,-0.003114,0.002286,-0.000363,0.270489,0.185936,-0.719117,-0.612481,96.014244,-9.280155,-142.648773
33525,NaN,1.625678,9.689216,-1.054352,-0.005824,-0.046474,0.068264,-0.000484,0.005105,-0.003294,0.270486,0.185931,-0.719129,-0.612471,96.015980,-9.280829,-142.649617
33526,NaN,1.574727,9.702227,-1.069862,0.044502,-0.025521,0.074423,-0.002475,0.005468,-0.004113,0.270484,0.185927,-0.719133,-0.612468,96.016466,-9.281099,-142.650142
33527,NaN,1.554484,9.692940,-1.013937,0.025049,0.028632,0.056260,-0.000711,0.006728,-0.008318,0.270464,0.185937,-0.719140,-0.612465,96.018109,-9.279056,-142.651064
33528,NaN,1.601920,9.674567,-1.032227,-0.002502,-0.017121,0.047768,0.003886,0.005916,-0.005256,0.270454,0.185947,-0.719162,-0.612441,96.022186,-9.278702,-142.651261
33529,NaN,1.579276,9.659664,-1.010710,0.000726,0.011064,0.027264,0.001756,0.006386,-0.002624,0.270453,0.185944,-0.719181,-0.612421,96.025167,-9.279877,-142.651895
33530,NaN,1.590756,9.700016,-1.053542,0.020381,-0.021326,0.073155,0.005877,0.005552,-0.004437,0.270442,0.185953,-0.719210,-0.612389,96.030426,-9.279968,-142.652353
33531,NaN,1.565409,9.679567,-1.066213,0.046194,-0.019087,0.050316,0.003886,0.005915,-0.005256,0.270426,0.185960,-0.719235,-0.612365,96.034945,-9.279325,-142.653433
33532,NaN,1.557004,9.710542,-1.053387,0.046380,0.002069,0.078033,0.003886,0.005915,-0.005256,0.270416,0.185971,-0.719256,-0.612340,96.039022,-9.278971,-142.653631
33533,NaN,1.574168,9.708154,-1.037031,0.022083,0.004499,0.076760,0.002404,0.004441,-0.007954,0.270394,0.185988,-0.719273,-0.612325,96.042516,-9.276756,-142.654251
33534,NaN,1.555853,9.710703,-1.053600,0.046452,0.003203,0.078032,-0.001101,0.005189,-0.004718,0.270387,0.185987,-0.719281,-0.612319,96.043809,-9.276665,-142.654901
33535,NaN,1.598849,9.674940,-1.033495,-0.002272,-0.013038,0.047775,0.000898,-0.000300,-0.005479,0.270348,0.185966,-0.719306,-0.612313,96.047097,-9.275821,-142.660274
33536,NaN,1.570059,9.702869,-1.070903,0.044874,-0.019703,0.074434,-0.001600,0.001900,-0.004420,0.270332,0.185954,-0.719317,-0.612311,96.048413,-9.275701,-142.662841
33537,NaN,1.595367,9.669569,-1.067245,0.020483,-0.037849,0.045453,-0.001849,0.000256,-0.004271,0.270309,0.185934,-0.719330,-0.612312,96.049815,-9.275581,-142.666626
33538,NaN,1.601962,9.692641,-1.071189,0.019009,-0.040773,0.069569,-0.004823,0.002433,-0.008087,0.270286,0.185932,-0.719327,-0.612326,96.049198,-9.273403,-142.668661
33539,NaN,1.576378,9.672325,-1.082940,0.044855,-0.038529,0.046730,-0.005580,0.002625,-0.006059,0.270259,0.185911,-0.719329,-0.612342,96.048610,-9.272370,-142.672694
33540,NaN,1.534942,9.713852,-1.068433,0.071032,0.004854,0.079302,-0.006079,-0.000664,-0.005761,0.270233,0.185890,-0.719329,-0.612360,96.047585,-9.271331,-142.676660
33541,NaN,1.569938,9.709103,-1.034549,0.022478,0.009183,0.076756,-0.008328,0.003180,-0.004850,0.270226,0.185873,-0.719317,-0.612382,96.044944,-9.271075,-142.678554
33542,NaN,1.561728,9.740148,-1.020666,0.022682,0.030358,0.104460,-0.006479,0.002924,-0.000579,0.270229,0.185844,-0.719316,-0.612391,96.043407,-9.273205,-142.680765
