// General information: 
//  MT Manager version: 2019.0.1 
//  XDA version: 2019.0.1 build 2740 rev 84096 built on 2019-01-30
// Device information: 
//  DeviceId: 00B43876
//  ProductCode: MTW2-3A7G6
//  Firmware Version: 4.3.4
//  Hardware Version: 1.1.0
// Device settings: 
//  Filter Profile: human(46.1)
//  Option Flags: Orientation Smoother Disabled, AHS Disabled, ICC Disabled
// Coordinate system: ENU
PacketCounter,SampleTimeFine,Acc_X,Acc_Y,Acc_Z,FreeAcc_E,FreeAcc_N,FreeAcc_U,Gyr_X,Gyr_Y,Gyr_Z,Quat_q0,Quat_q1,Quat_q2,Quat_q3,Roll,Pitch,Yaw
21981,NaN,0.038478,-9.576516,-1.671830,0.015436,-0.049779,-0.091400,0.031859,0.010027,-0.028304,0.056201,-0.062143,-0.764450,0.639215,-100.165616,-0.371306,170.394485
21982,NaN,0.021916,-9.563306,-1.662685,0.033450,-0.055780,-0.106112,0.038449,0.005670,-0.026228,0.056288,-0.062047,-0.764322,0.639369,-100.141570,-0.384043,170.396541
21983,NaN,0.093351,-9.564960,-1.633776,-0.038821,-0.068854,-0.109072,0.030669,0.006582,-0.030663,0.056391,-0.061939,-0.764218,0.639496,-100.121367,-0.399379,170.398394
21984,NaN,0.106635,-9.582545,-1.658873,-0.045033,-0.042351,-0.087227,0.033947,0.007691,-0.030137,0.056496,-0.061835,-0.764105,0.639631,-100.099897,-0.414526,170.399694
21985,NaN,0.090349,-9.569324,-1.649719,-0.027001,-0.048245,-0.101938,0.036699,0.014540,-0.029297,0.056627,-0.061757,-0.763978,0.639779,-100.076163,-0.429861,170.396815
21986,NaN,0.069661,-9.609648,-1.630833,-0.007406,-0.073720,-0.065672,0.034280,0.019320,-0.028583,0.056772,-0.061696,-0.763861,0.639912,-100.054451,-0.445296,170.391387
21987,NaN,0.104028,-9.604068,-1.641011,-0.036166,-0.053860,-0.069092,0.034180,0.018426,-0.031101,0.056921,-0.061623,-0.763741,0.640048,-100.032244,-0.462005,170.386665
21988,NaN,0.065764,-9.593654,-1.595768,-0.002318,-0.098900,-0.087503,0.040458,0.016500,-0.030121,0.057062,-0.061545,-0.763606,0.640205,-100.007003,-0.478022,170.382968
21989,NaN,0.090880,-9.591492,-1.627937,-0.018513,-0.059342,-0.083798,0.037301,0.009734,-0.027112,0.057168,-0.061460,-0.763477,0.640357,-99.982942,-0.491631,170.382622
21990,NaN,0.074655,-9.578315,-1.618629,-0.000490,-0.065345,-0.098503,0.037347,0.018654,-0.033103,0.057326,-0.061379,-0.763351,0.640501,-99.959474,-0.509541,170.377992
21991,NaN,0.013665,-9.524530,-1.650502,0.069475,-0.031761,-0.146500,0.038278,0.011407,-0.029801,0.057446,-0.061287,-0.763220,0.640655,-99.934910,-0.524831,170.377080
21992,NaN,0.071936,-9.582823,-1.634157,0.011318,-0.044737,-0.091370,0.029829,0.008222,-0.030456,0.057553,-0.061185,-0.763121,0.640774,-99.915799,-0.540214,170.378062
21993,NaN,0.039556,-9.642977,-1.607826,0.040911,-0.083030,-0.036947,0.032736,0.004288,-0.032513,0.057653,-0.061061,-0.763010,0.640908,-99.894482,-0.556347,170.381371
21994,NaN,0.066455,-9.603711,-1.620222,0.020559,-0.056753,-0.073224,0.032951,0.000974,-0.033927,0.057744,-0.060922,-0.762904,0.641040,-99.873625,-0.572977,170.386775
21995,NaN,0.116995,-9.628215,-1.606327,-0.029171,-0.063100,-0.050942,0.026221,-0.005935,-0.025068,0.057780,-0.060796,-0.762814,0.641155,-99.856008,-0.583896,170.395125
21996,NaN,0.177344,-9.612167,-1.549904,-0.095593,-0.102426,-0.075758,0.028290,-0.003153,-0.020452,0.057811,-0.060696,-0.762720,0.641274,-99.837835,-0.592518,170.401527
21997,NaN,0.174302,-9.562498,-1.579547,-0.084977,-0.062781,-0.119620,0.027939,0.004397,-0.015127,0.057854,-0.060642,-0.762619,0.641395,-99.819205,-0.598820,170.402986
21998,NaN,0.166593,-9.566353,-1.599366,-0.072806,-0.042683,-0.112496,0.026460,0.001914,-0.011103,0.057874,-0.060594,-0.762526,0.641508,-99.802042,-0.602663,170.405610
21999,NaN,0.127436,-9.576387,-1.605702,-0.032227,-0.041826,-0.101925,0.027899,0.009532,-0.008699,0.057917,-0.060580,-0.762422,0.641629,-99.783449,-0.605887,170.403550
22000,NaN,0.101869,-9.633009,-1.557274,-0.015193,-0.099886,-0.054607,0.025299,0.011055,-0.005544,0.057954,-0.060584,-0.762329,0.641737,-99.766891,-0.607481,170.400468
22001,NaN,0.044483,-9.649964,-1.608592,0.050464,-0.059606,-0.029781,0.026012,0.008564,-0.008294,0.057991,-0.060569,-0.762230,0.641851,-99.749277,-0.610306,170.398884
22002,NaN,0.097519,-9.620865,-1.604912,-0.000842,-0.046637,-0.058502,0.026771,0.013546,-0.009576,0.058050,-0.060565,-0.762132,0.641963,-99.731865,-0.614417,170.394786
22003,NaN,0.102826,-9.567830,-1.612065,-0.002767,-0.026698,-0.109494,0.032243,0.013224,-0.008354,0.058108,-0.060564,-0.762013,0.642099,-99.710729,-0.617773,170.390502
22004,NaN,0.098228,-9.601096,-1.548643,-0.008256,-0.091526,-0.087434,0.028203,0.021172,-0.007181,0.058189,-0.060592,-0.761908,0.642214,-99.692446,-0.621265,170.381863
22005,NaN,0.091777,-9.567912,-1.548121,-0.000199,-0.084502,-0.120273,0.028108,0.020270,-0.009696,0.058276,-0.060610,-0.761800,0.642333,-99.673590,-0.625999,170.373745
22006,NaN,0.100589,-9.601927,-1.543335,-0.009004,-0.090600,-0.087426,0.025370,0.013413,-0.010518,0.058338,-0.060602,-0.761707,0.642438,-99.656981,-0.630623,170.369808
22007,NaN,0.082231,-9.588577,-1.535286,0.009052,-0.096507,-0.102111,0.024968,0.013494,-0.006664,0.058388,-0.060609,-0.761610,0.642547,-99.640033,-0.633066,170.365342
22008,NaN,0.069911,-9.645927,-1.545436,0.022765,-0.095812,-0.043989,0.020842,0.006489,-0.008417,0.058415,-0.060588,-0.761533,0.642639,-99.626059,-0.635837,170.365112
22009,NaN,0.092918,-9.643653,-1.579071,0.006523,-0.056275,-0.040332,0.025779,-0.002135,-0.007309,0.058407,-0.060542,-0.761439,0.642755,-99.608728,-0.637073,170.369639
22010,NaN,0.057747,-9.600232,-1.595739,0.045532,-0.036068,-0.080740,0.024028,-0.007339,-0.010814,0.058390,-0.060467,-0.761356,0.642862,-99.593018,-0.639877,170.377449
22011,NaN,0.103388,-9.640841,-1.552141,-0.006763,-0.075054,-0.047445,0.019862,-0.009207,-0.006140,0.058351,-0.060406,-0.761282,0.642959,-99.579098,-0.639780,170.385617
22012,NaN,0.108282,-9.587732,-1.559909,-0.008688,-0.055238,-0.098444,0.029179,-0.005237,-0.010704,0.058343,-0.060336,-0.761182,0.643084,-99.560423,-0.642727,170.392227
22013,NaN,0.119380,-9.605459,-1.585107,-0.014940,-0.028624,-0.076641,0.029902,-0.009158,-0.005973,0.058307,-0.060272,-0.761076,0.643219,-99.540817,-0.642628,170.400457
22014,NaN,0.118477,-9.585047,-1.532054,-0.021953,-0.074041,-0.105557,0.024696,-0.004686,-0.007142,0.058288,-0.060218,-0.760989,0.643328,-99.524705,-0.643619,170.406416
22015,NaN,0.150379,-9.637298,-1.613631,-0.040018,0.004828,-0.040159,0.026842,0.000443,-0.007500,0.058291,-0.060181,-0.760891,0.643448,-99.506711,-0.645175,170.409366
22016,NaN,0.118558,-9.622992,-1.547181,-0.018619,-0.059905,-0.065592,0.025757,0.011926,-0.006927,0.058336,-0.060181,-0.760795,0.643557,-99.489884,-0.647618,170.405915
22017,NaN,0.088118,-9.629554,-1.531035,0.009417,-0.078698,-0.062105,0.029384,0.018115,-0.003842,0.058395,-0.060213,-0.760682,0.643682,-99.470302,-0.648817,170.398620
22018,NaN,0.088936,-9.630014,-1.528088,0.009041,-0.078288,-0.062101,0.031436,0.022338,-0.006715,0.058480,-0.060246,-0.760565,0.643809,-99.450154,-0.652119,170.389263
22019,NaN,0.072029,-9.579586,-1.499303,0.023009,-0.097402,-0.116732,0.033183,0.014931,-0.011090,0.058551,-0.060240,-0.760443,0.643948,-99.428434,-0.657060,170.384441
22020,NaN,0.043650,-9.607100,-1.533274,0.057663,-0.070464,-0.084332,0.028519,0.013659,-0.012548,0.058621,-0.060224,-0.760340,0.644065,-99.410019,-0.662838,170.380535
22021,NaN,0.061648,-9.637566,-1.505448,0.036338,-0.096152,-0.058596,0.034981,0.000959,-0.014402,0.058652,-0.060159,-0.760217,0.644214,-99.387372,-0.668464,170.383736
22022,NaN,0.114896,-9.608451,-1.501153,-0.014951,-0.083259,-0.087368,0.032607,-0.000842,-0.012646,0.058669,-0.060095,-0.760105,0.644350,-99.366710,-0.672941,170.388033
22023,NaN,0.126742,-9.626308,-1.525755,-0.021238,-0.056630,-0.065578,0.037345,0.002772,-0.016167,0.058712,-0.060028,-0.759974,0.644506,-99.342751,-0.679641,170.390546
22024,NaN,0.147716,-9.640575,-1.527742,-0.040045,-0.049814,-0.050904,0.036306,0.007691,-0.014545,0.058768,-0.059983,-0.759848,0.644654,-99.319915,-0.685988,170.390191
22025,NaN,0.092603,-9.620971,-1.557829,0.021481,-0.022681,-0.066021,0.039743,0.012067,-0.016491,0.058849,-0.059945,-0.759707,0.644817,-99.294473,-0.693775,170.387300
22026,NaN,0.045439,-9.576755,-1.514966,0.063888,-0.061213,-0.117142,0.040537,0.011902,-0.024209,0.058953,-0.059876,-0.759569,0.644976,-99.269194,-0.705975,170.385451
22027,NaN,0.010557,-9.570991,-1.550248,0.106970,-0.027653,-0.117583,0.043537,0.008887,-0.023741,0.059046,-0.059799,-0.759418,0.645152,-99.241533,-0.717477,170.385063
22028,NaN,0.030009,-9.601588,-1.521038,0.085632,-0.053442,-0.091846,0.047278,0.012269,-0.032060,0.059179,-0.059699,-0.759261,0.645335,-99.212398,-0.734149,170.383716
22029,NaN,0.023027,-9.643209,-1.559121,0.101836,-0.019971,-0.044776,0.041833,-0.001471,-0.033649,0.059264,-0.059551,-0.759122,0.645504,-99.185928,-0.750415,170.390143
22030,NaN,0.050961,-9.707356,-1.527257,0.072040,-0.052235,0.013805,0.051324,0.013251,-0.039275,0.059426,-0.059426,-0.758953,0.645699,-99.154474,-0.771256,170.388883
22031,NaN,0.061445,-9.720552,-1.469358,0.056625,-0.104048,0.017769,0.053499,0.013244,-0.046068,0.059610,-0.059275,-0.758776,0.645905,-99.121192,-0.795828,170.388066
22032,NaN,0.082196,-9.648039,-1.482544,0.044742,-0.071396,-0.051425,0.055672,0.013240,-0.052864,0.059817,-0.059097,-0.758597,0.646112,-99.087264,-0.824355,170.388020
22033,NaN,0.039933,-9.625213,-1.488512,0.093737,-0.063961,-0.073637,0.058395,0.007498,-0.059929,0.060025,-0.058874,-0.758409,0.646334,-99.051197,-0.856161,170.391728
22034,NaN,0.046583,-9.626071,-1.482761,0.093365,-0.063550,-0.073630,0.061033,0.009738,-0.075573,0.060293,-0.058596,-0.758220,0.646556,-99.014258,-0.897222,170.395672
22035,NaN,-0.070784,-9.607368,-1.536413,0.226754,-0.022626,-0.085656,0.067085,0.007476,-0.087114,0.060593,-0.058269,-0.758011,0.646802,-98.973260,-0.944512,170.401475
22036,NaN,0.045692,-9.635537,-1.515019,0.117626,-0.023164,-0.059403,0.065325,0.011178,-0.096693,0.060936,-0.057915,-0.757814,0.647033,-98.933885,-0.997661,170.406431
22037,NaN,-0.035588,-9.676599,-1.518158,0.209092,-0.034618,-0.019950,0.073124,0.010419,-0.118676,0.061352,-0.057475,-0.757593,0.647291,-98.889416,-1.063122,170.413295
22038,NaN,0.028614,-9.647802,-1.509573,0.157810,-0.021777,-0.048759,0.086471,0.025298,-0.134116,0.061876,-0.057018,-0.757333,0.647586,-98.837845,-1.138710,170.413477
22039,NaN,-0.025406,-9.730999,-1.433500,0.213282,-0.111754,0.020415,0.077197,0.045195,-0.159233,0.062555,-0.056536,-0.757099,0.647836,-98.790758,-1.230143,170.404269
22040,NaN,-0.138736,-9.745687,-1.423874,0.341628,-0.136110,0.030574,0.101758,0.053468,-0.185070,0.063354,-0.055972,-0.756794,0.648164,-98.730169,-1.337044,170.392806
22041,NaN,-0.274049,-9.698147,-1.440750,0.499408,-0.127680,-0.017833,0.107967,0.038213,-0.220925,0.064217,-0.055225,-0.756478,0.648511,-98.665609,-1.462837,170.392465
22042,NaN,-0.355960,-9.695953,-1.495729,0.614344,-0.080404,-0.015164,0.110714,0.020024,-0.262362,0.065143,-0.054258,-0.756174,0.648856,-98.600517,-1.610618,170.406365
22043,NaN,-0.305923,-9.696208,-1.520292,0.598013,-0.040844,-0.011567,0.122536,-0.004719,-0.307397,0.066125,-0.053040,-0.755845,0.649240,-98.528523,-1.781545,170.437512
22044,NaN,-0.234398,-9.688299,-1.499190,0.556716,-0.040878,-0.022185,0.127627,-0.027445,-0.349642,0.067159,-0.051583,-0.755521,0.649629,-98.454935,-1.974804,170.485352
22045,NaN,-0.068983,-9.713307,-1.507161,0.431620,-0.002338,0.007608,0.128095,-0.034607,-0.385602,0.068283,-0.049970,-0.755200,0.650010,-98.380962,-2.187673,170.539736
22046,NaN,0.084121,-9.788972,-1.445268,0.311499,-0.041969,0.077758,0.137130,-0.030853,-0.423563,0.069546,-0.048219,-0.754858,0.650406,-98.302592,-2.422679,170.595166
22047,NaN,0.161892,-9.885979,-1.400200,0.273175,-0.080536,0.169199,0.143099,-0.014689,-0.455710,0.070976,-0.046401,-0.754491,0.650809,-98.220030,-2.676956,170.643332
22048,NaN,0.061045,-9.950653,-1.447792,0.430517,-0.052086,0.233558,0.166858,0.010110,-0.493456,0.072627,-0.044509,-0.754046,0.651275,-98.124224,-2.955100,170.680526
22049,NaN,-0.093643,-9.887112,-1.469332,0.637664,-0.036688,0.163006,0.191719,0.023689,-0.531823,0.074461,-0.042511,-0.753514,0.651817,-98.013431,-3.255923,170.712069
22050,NaN,-0.184621,-9.864510,-1.505115,0.789478,-0.002180,0.136404,0.199680,0.029643,-0.574026,0.076454,-0.040366,-0.752960,0.652362,-97.898869,-3.581472,170.743531
22051,NaN,-0.157202,-9.929384,-1.459362,0.818968,-0.040206,0.191033,0.217668,0.023625,-0.624091,0.078590,-0.038010,-0.752349,0.652955,-97.774002,-3.934541,170.781339
22052,NaN,-0.143909,-10.019672,-1.424638,0.870988,-0.071457,0.270961,0.251134,0.006052,-0.664269,0.080797,-0.035427,-0.751638,0.653649,-97.631706,-4.309654,170.831761
22053,NaN,-0.257243,-10.146707,-1.355553,1.049204,-0.159891,0.372227,0.254931,-0.027530,-0.707710,0.083019,-0.032571,-0.750923,0.654341,-97.488730,-4.706801,170.903629
22054,NaN,-0.156271,-10.246812,-1.452972,1.047384,-0.047968,0.484540,0.250636,-0.074871,-0.734019,0.085148,-0.029461,-0.750238,0.655000,-97.351652,-5.115798,171.003575
22055,NaN,0.374273,-10.613345,-1.066207,0.565412,-0.383550,0.838725,0.194767,-0.058075,-0.769430,0.087446,-0.026298,-0.749719,0.655426,-97.246059,-5.546070,171.095647
22056,NaN,0.281631,-11.040145,-1.087554,0.779123,-0.424410,1.248914,0.272192,-0.024481,-0.801094,0.089983,-0.023091,-0.748927,0.656109,-97.095548,-5.997231,171.169973
22057,NaN,-0.119678,-10.900996,-1.277890,1.285650,-0.262638,1.084854,0.292845,-0.016978,-0.834315,0.092656,-0.019776,-0.748050,0.656845,-96.932915,-6.467693,171.241084
22058,NaN,-0.236778,-11.092389,-1.443669,1.541742,-0.127942,1.268249,0.249626,-0.027471,-0.877423,0.095427,-0.016283,-0.747312,0.657384,-96.797097,-6.962457,171.320094
22059,NaN,-0.238357,-11.378716,-1.305421,1.652526,-0.287960,1.519627,0.260562,-0.013527,-0.928336,0.098414,-0.012643,-0.746516,0.657927,-96.654456,-7.486932,171.393327
22060,NaN,-0.318902,-11.497944,-1.333646,1.860675,-0.271655,1.612983,0.299885,-0.017765,-0.988160,0.101585,-0.008743,-0.745582,0.658568,-96.491198,-8.045757,171.471728
22061,NaN,-0.421168,-11.465537,-1.361027,2.080227,-0.236342,1.549697,0.316014,-0.011890,-1.053253,0.104987,-0.004614,-0.744570,0.659221,-96.318835,-8.641773,171.549297
22062,NaN,-0.445738,-11.575792,-1.376145,2.247449,-0.220504,1.632411,0.309868,-0.030112,-1.116791,0.108529,-0.000189,-0.743569,0.659793,-96.153359,-9.273541,171.639837
22063,NaN,-0.458949,-11.629738,-1.514123,2.424532,-0.074150,1.670711,0.338708,-0.027097,-1.185353,0.112302,0.004493,-0.742441,0.660416,-95.971954,-9.944244,171.730936
22064,NaN,-0.569218,-11.746294,-1.620236,2.709476,0.021289,1.745035,0.352749,-0.036815,-1.246660,0.116240,0.009446,-0.741245,0.661026,-95.785422,-10.650182,171.829457
22065,NaN,-0.660982,-12.061971,-1.641947,3.006231,0.013605,2.001888,0.365772,-0.055983,-1.305610,0.120292,0.014683,-0.739979,0.661624,-95.594500,-11.388255,171.940234
22066,NaN,-0.649387,-11.985140,-2.081867,3.208241,0.485840,1.929043,0.437224,-0.095746,-1.341879,0.124310,0.020233,-0.738465,0.662426,-95.369216,-12.145928,172.073907
22067,NaN,-0.442166,-11.958369,-2.282850,3.192051,0.740759,1.920569,0.317674,-0.140713,-1.369375,0.128254,0.025953,-0.737332,0.662736,-95.219243,-12.916487,172.233022
22068,NaN,0.072573,-12.342628,-2.629173,2.989634,1.120129,2.396459,0.293845,-0.140043,-1.377758,0.132229,0.031690,-0.736243,0.662915,-95.085179,-13.693097,172.390886
22069,NaN,0.181510,-12.076725,-3.636678,3.141182,2.178551,2.207719,0.379979,-0.133220,-1.381985,0.136218,0.037469,-0.734824,0.663381,-94.902086,-14.471891,172.543080
22070,NaN,0.188372,-11.569636,-3.907408,3.211515,2.529351,1.695840,0.345253,-0.132761,-1.390412,0.140242,0.043258,-0.733483,0.663675,-94.740880,-15.256949,172.693714
22071,NaN,0.908659,-11.321168,-3.558809,2.559740,2.319466,1.577019,0.281486,-0.147404,-1.399472,0.144242,0.049075,-0.732322,0.663694,-94.619994,-16.045726,172.851869
22072,NaN,1.954473,-11.126088,-4.148989,1.746798,3.061612,1.693712,0.320945,-0.151761,-1.379608,0.148149,0.054867,-0.731003,0.663835,-94.478977,-16.824432,173.010579
22073,NaN,1.670053,-10.269095,-4.801948,2.009961,3.784392,0.814595,0.347127,-0.255183,-1.349087,0.151556,0.060899,-0.729644,0.664034,-94.342337,-17.580303,173.228266
22074,NaN,1.962957,-10.099346,-4.355032,1.741761,3.395901,0.687276,0.081333,-0.368695,-1.319116,0.154529,0.067003,-0.729228,0.663217,-94.381480,-18.315493,173.513099
22075,NaN,3.133814,-10.790019,-3.374548,0.836858,2.451445,1.629401,-0.060126,-0.337470,-1.305548,0.157605,0.072833,-0.729229,0.661877,-94.499670,-19.042669,173.780663
22076,NaN,3.522345,-11.260229,-1.820557,0.549880,0.871827,2.080583,-0.001936,-0.198789,-1.262213,0.161022,0.078096,-0.728912,0.660803,-94.559842,-19.752248,173.964610
22077,NaN,5.169488,-11.380151,-1.824226,-0.808800,1.003519,2.752990,0.140025,-0.249414,-1.212436,0.164020,0.083449,-0.728158,0.660242,-94.551045,-20.429721,174.178025
22078,NaN,3.487234,-11.064813,-3.629867,1.010432,2.658909,2.005735,0.305706,-0.499244,-1.087892,0.165630,0.089314,-0.727085,0.660255,-94.501460,-21.026159,174.538552
22079,NaN,0.572637,-9.719606,-4.739836,3.460557,3.667224,-0.229348,0.395838,-0.762500,-0.869090,0.165506,0.095316,-0.726005,0.660636,-94.458508,-21.484822,175.050667
22080,NaN,1.080690,-8.711213,-4.557096,2.643922,3.646681,-1.007487,0.006209,-0.913965,-0.799503,0.164791,0.101247,-0.726340,0.659563,-94.676201,-21.897389,175.654769
22081,NaN,2.963393,-9.500065,-3.341539,1.098299,2.448596,0.336026,-0.343910,-0.909707,-0.795331,0.164238,0.106848,-0.727805,0.657197,-95.099418,-22.303213,176.260293
22082,NaN,3.374527,-10.161942,-2.678860,0.949204,1.681284,1.054723,-0.213955,-0.793423,-0.701695,0.163735,0.111838,-0.728769,0.655422,-95.423736,-22.659476,176.793157
22083,NaN,3.058326,-9.765734,-2.660851,1.134100,1.648201,0.569994,-0.129143,-0.626250,-0.547551,0.163276,0.115777,-0.729392,0.654159,-95.660200,-22.933203,177.216550
22084,NaN,2.708763,-9.736480,-3.062558,1.510980,1.998171,0.445957,-0.223320,-0.480298,-0.395720,0.162913,0.118615,-0.730276,0.652753,-95.913421,-23.128608,177.541930
22085,NaN,2.435660,-9.826571,-3.223573,1.830869,2.100128,0.440245,-0.235796,-0.407637,-0.294969,0.162484,0.120828,-0.731200,0.651419,-96.155411,-23.268161,177.817105
22086,NaN,2.396811,-9.551221,-2.816059,1.740486,1.692883,0.137461,-0.247407,-0.447063,-0.229221,0.161711,0.122927,-0.732222,0.650068,-96.412275,-23.368221,178.113036
22087,NaN,2.519737,-9.434201,-2.244790,1.544134,1.102634,0.025603,-0.354447,-0.547335,-0.153435,0.160379,0.124978,-0.733719,0.648317,-96.754300,-23.415527,178.466606
22088,NaN,2.276573,-9.728834,-1.713594,1.841844,0.480850,0.144498,-0.415464,-0.614258,-0.052982,0.158522,0.126836,-0.735515,0.646375,-97.144333,-23.400597,178.854292
22089,NaN,1.620453,-9.928225,-1.405137,2.487573,0.083854,0.034882,-0.403617,-0.697965,0.089956,0.155875,0.128436,-0.737425,0.644525,-97.543770,-23.294167,179.282235
22090,NaN,0.832864,-9.775136,-1.154134,3.111062,-0.197987,-0.439275,-0.336656,-0.808050,0.199246,0.152434,0.130048,-0.739255,0.642926,-97.925885,-23.116215,179.767617
22091,NaN,0.523697,-9.242482,-0.958226,3.144570,-0.357707,-1.060579,-0.366352,-0.965843,0.304953,0.148074,0.131740,-0.741357,0.641177,-98.357442,-22.860505,-179.661149
22092,NaN,0.464314,-9.115691,-0.900745,3.107642,-0.436984,-1.194449,-0.416368,-1.128006,0.387450,0.142888,0.133615,-0.743762,0.639177,-98.848532,-22.541770,-179.001555
22093,NaN,0.581617,-9.135221,-0.899235,2.956256,-0.490438,-1.116787,-0.470030,-1.287436,0.523834,0.136690,0.135436,-0.746515,0.636937,-99.397108,-22.123893,-178.262689
22094,NaN,0.682894,-9.473370,-1.208258,2.931824,-0.292179,-0.702847,-0.454769,-1.400568,0.699355,0.129504,0.136976,-0.749364,0.634760,-99.947026,-21.591449,-177.480066
22095,NaN,0.141300,-8.842894,-1.307099,3.121218,-0.117797,-1.436018,-0.306383,-1.446998,0.834286,0.121592,0.138233,-0.751817,0.633149,-100.406969,-20.969687,-176.692161
22096,NaN,0.089416,-8.336997,-1.148267,2.898426,-0.227703,-1.914684,-0.408330,-1.506374,0.931368,0.113224,0.139251,-0.754633,0.631125,-100.921964,-20.282883,-175.888649
22097,NaN,0.016764,-8.416810,-0.936962,2.905192,-0.488188,-1.872825,-0.475296,-1.588518,1.015783,0.104302,0.140147,-0.757703,0.628782,-101.475953,-19.530214,-175.056630
22098,NaN,-0.496475,-8.357005,-0.686119,3.277568,-0.725976,-2.112927,-0.448690,-1.663092,1.109276,0.094789,0.140936,-0.760712,0.626473,-102.010490,-18.711295,-174.203454
22099,NaN,-0.943715,-7.876044,-0.362732,3.456335,-0.949048,-2.727038,-0.407109,-1.771213,1.196825,0.084535,0.141721,-0.763624,0.624218,-102.522029,-17.820429,-173.310057
22100,NaN,-0.984144,-7.521728,-0.176086,3.299913,-1.089938,-3.067488,-0.417360,-1.871812,1.262055,0.073705,0.142562,-0.766555,0.621801,-103.036682,-16.875241,-172.379293
22101,NaN,-0.897295,-7.195978,-0.018822,3.038281,-1.218844,-3.341980,-0.377884,-2.012323,1.335993,0.062052,0.143537,-0.769364,0.619376,-103.529907,-15.859949,-171.390691
22102,NaN,-0.897074,-6.858466,-0.046684,2.846386,-1.151023,-3.614471,-0.379526,-2.178260,1.429400,0.049479,0.144657,-0.772167,0.616753,-104.024505,-14.764484,-170.333645
22103,NaN,-0.549561,-6.812701,-0.162177,2.394413,-1.117018,-3.507195,-0.434205,-2.342866,1.561844,0.035874,0.145717,-0.775133,0.613717,-104.544341,-13.560504,-169.217484
22104,NaN,0.175108,-7.106053,-0.388949,1.643416,-1.136603,-2.980134,-0.399822,-2.329977,1.684550,0.021928,0.146253,-0.777916,0.610718,-105.011649,-12.283866,-168.143291
22105,NaN,0.794158,-7.013590,-0.644498,0.865845,-1.054735,-2.857643,-0.261575,-2.191964,1.771054,0.008131,0.146000,-0.780166,0.608242,-105.354428,-10.969956,-167.175038
22106,NaN,1.794489,-6.807436,-0.894092,-0.315201,-1.057035,-2.802545,-0.209375,-1.997672,1.848131,-0.005164,0.144846,-0.782152,0.605996,-105.621950,-9.640974,-166.338972
22107,NaN,2.516454,-6.803928,-1.096471,-1.184372,-1.106913,-2.657411,-0.130516,-1.762302,1.896761,-0.017760,0.142744,-0.783803,0.604120,-105.801740,-8.315734,-165.650786
22108,NaN,2.954161,-6.743417,-0.958683,-1.729631,-1.401796,-2.730248,-0.048795,-1.509931,1.928895,-0.029502,0.139740,-0.785125,0.602644,-105.899362,-7.013403,-165.113288
22109,NaN,3.416915,-6.868295,-0.698131,-2.232718,-1.858531,-2.678623,-0.014074,-1.262232,1.900741,-0.040225,0.136060,-0.786250,0.601399,-105.949560,-5.762186,-164.712086
22110,NaN,3.966963,-7.229086,-0.532905,-2.799054,-2.301592,-2.386633,0.045229,-1.023201,1.835043,-0.049828,0.131907,-0.787104,0.600488,-105.946712,-4.587286,-164.433835
22111,NaN,4.080440,-7.599336,-0.187196,-2.904289,-2.791162,-2.183296,0.125479,-0.798095,1.692491,-0.058182,0.127591,-0.787599,0.600019,-105.884683,-3.523970,-164.257481
22112,NaN,4.061744,-8.217334,0.014173,-2.879628,-3.159756,-1.704372,0.170735,-0.607724,1.433037,-0.065016,0.123718,-0.787790,0.599878,-105.790920,-2.636164,-164.144088
22113,NaN,4.228465,-8.848768,-0.044839,-3.090283,-3.328568,-1.120598,0.231432,-0.445642,1.106929,-0.070283,0.120603,-0.787610,0.600155,-105.658637,-1.951311,-164.068011
22114,NaN,4.352030,-9.150810,-0.265993,-3.322474,-3.238333,-0.800360,0.333927,-0.362601,0.782217,-0.074293,0.118492,-0.786933,0.600979,-105.467730,-1.460961,-163.985739
22115,NaN,4.425663,-8.920475,-0.573774,-3.562631,-2.909776,-0.962199,0.393640,-0.398134,0.544261,-0.077775,0.117387,-0.785906,0.602099,-105.242456,-1.094910,-163.846148
22116,NaN,4.561365,-8.299438,-1.039525,-3.922211,-2.356666,-1.456281,0.372857,-0.516704,0.430217,-0.081353,0.117106,-0.784819,0.603098,-105.030449,-0.776814,-163.622338
22117,NaN,5.037928,-7.736589,-1.396684,-4.562918,-2.029137,-1.922916,0.280174,-0.663206,0.352746,-0.085229,0.117595,-0.783890,0.603675,-104.870461,-0.478825,-163.305131
22118,NaN,5.834403,-7.557857,-1.713110,-5.454833,-1.944382,-2.030642,0.211336,-0.750116,0.198954,-0.088928,0.118988,-0.783033,0.603981,-104.749837,-0.255925,-162.916373
22119,NaN,6.177474,-7.348567,-1.958306,-5.882935,-1.801269,-2.187469,0.166429,-0.774452,0.035257,-0.092209,0.121104,-0.782186,0.604166,-104.652897,-0.119385,-162.490055
22120,NaN,6.741707,-7.469804,-2.059258,-6.441189,-1.951876,-2.054456,0.006991,-0.785323,-0.095678,-0.095029,0.123846,-0.781728,0.603766,-104.647552,-0.055792,-162.038472
22121,NaN,7.357966,-7.956007,-2.366867,-7.066825,-2.028901,-1.507085,-0.016771,-0.726570,-0.263899,-0.097104,0.127069,-0.781249,0.603385,-104.654743,-0.092740,-161.595201
22122,NaN,8.095317,-8.201017,-2.731379,-7.828967,-2.037519,-1.163600,-0.000352,-0.630410,-0.440026,-0.098272,0.130689,-0.780648,0.603201,-104.654131,-0.242449,-161.179579
22123,NaN,8.783433,-8.491304,-3.271890,-8.578801,-1.882050,-0.712265,-0.004144,-0.567738,-0.636557,-0.098605,0.134881,-0.779943,0.603136,-104.656209,-0.509366,-160.770298
22124,NaN,8.771363,-8.788843,-3.584490,-8.576011,-1.703269,-0.295376,0.009358,-0.449459,-0.831102,-0.097891,0.139471,-0.779113,0.603281,-104.653400,-0.902083,-160.398264
22125,NaN,7.629272,-8.992095,-3.481694,-7.368171,-1.482479,-0.081443,0.018044,-0.276654,-0.961542,-0.096117,0.144037,-0.778228,0.603635,-104.646040,-1.391818,-160.103203
22126,NaN,5.844083,-9.065332,-2.821422,-5.378369,-1.493991,-0.162086,-0.030626,-0.104717,-1.035226,-0.093411,0.148394,-0.777504,0.603938,-104.667695,-1.947649,-159.892596
22127,NaN,5.399330,-9.051085,-4.414753,-5.386700,0.133696,0.263500,0.150730,-0.073409,-1.080239,-0.090580,0.152741,-0.776187,0.604979,-104.586243,-2.533046,-159.693130
22128,NaN,10.224470,-8.239946,-13.521723,-12.930199,6.961026,2.003723,0.938625,-0.681142,-1.142317,-0.090517,0.158804,-0.772131,0.608607,-104.072950,-3.067780,-159.149968
22129,NaN,7.798540,-7.013673,-8.415846,-9.054514,3.378140,-0.462120,-1.130574,-0.302581,-1.746702,-0.085500,0.166972,-0.773991,0.604771,-104.744047,-3.991480,-158.729863
22130,NaN,2.470789,-13.658893,-4.728942,-1.583203,0.381647,4.760103,-2.306648,0.387750,-1.659914,-0.077080,0.173193,-0.779657,0.596824,-106.066858,-4.964506,-158.688922
22131,NaN,-3.856094,-14.881467,-1.410910,5.867061,-0.700230,4.449204,-0.211547,0.713907,-1.297396,-0.070272,0.176199,-0.779406,0.597111,-106.168350,-5.789871,-158.874023
22132,NaN,-3.546068,-7.213647,-1.373741,4.251087,0.943386,-2.918081,1.207589,0.702949,-1.026265,-0.065564,0.177669,-0.775105,0.602783,-105.450264,-6.462483,-159.100311
22133,NaN,0.622474,-4.357524,-4.278541,-1.035364,2.775178,-4.436139,-0.095351,0.774355,-1.070406,-0.059284,0.179512,-0.774667,0.603450,-105.471148,-7.169320,-159.363996
22134,NaN,3.526644,-8.801393,-2.657554,-2.197004,-0.658910,-0.236630,-1.368201,0.749746,-1.162787,-0.051676,0.182151,-0.777929,0.599147,-106.222714,-7.924649,-159.594983
22135,NaN,3.600558,-12.285469,2.198681,0.102229,-5.910611,1.753801,-0.722854,0.812156,-1.116675,-0.044545,0.184245,-0.779253,0.597357,-106.596104,-8.667324,-159.861134
22136,NaN,1.373756,-10.666123,3.120162,2.164517,-5.620615,-0.372800,0.285945,0.476621,-1.021449,-0.039934,0.186735,-0.777542,0.599136,-106.415492,-9.303137,-159.955549
22137,NaN,3.598299,-7.994692,-0.609131,-1.533496,-2.341088,-1.481960,0.247085,-0.209533,-0.965530,-0.038119,0.191066,-0.775837,0.600098,-106.317238,-9.797619,-159.678436
22138,NaN,5.450030,-7.809383,-2.100585,-3.640868,-1.565548,-0.902348,-0.145090,-0.468278,-0.981991,-0.036885,0.196306,-0.775225,0.599274,-106.472346,-10.258754,-159.253440
22139,NaN,3.039748,-6.974485,-3.186473,-1.890815,0.431600,-1.795490,0.179495,-0.535661,-0.884914,-0.036517,0.201308,-0.773697,0.599612,-106.448048,-10.655710,-158.805820
22140,NaN,1.435038,-4.834853,-4.751777,-1.433670,2.866155,-3.669051,0.266138,-0.608619,-0.752377,-0.036919,0.205993,-0.772013,0.600167,-106.381115,-10.967781,-158.338913
22141,NaN,2.175952,-5.650941,-4.165586,-1.691899,1.882187,-2.912358,-0.556308,-0.832159,-0.658847,-0.037612,0.211136,-0.772825,0.597285,-106.808300,-11.191107,-157.761195
22142,NaN,2.322818,-9.833952,-3.755421,-0.478317,0.549932,0.942442,-0.942237,-0.921495,-0.455328,-0.038852,0.215820,-0.774958,0.592750,-107.462094,-11.281926,-157.166119
22143,NaN,2.129481,-13.415644,-4.860029,0.429336,0.778158,4.586722,-0.725208,-0.740848,-0.213043,-0.040339,0.218982,-0.776712,0.589185,-107.963564,-11.266776,-156.713730
22144,NaN,1.678585,-15.966108,-4.438079,1.763711,-0.080749,6.749680,-0.796242,-0.355604,-0.100086,-0.040589,0.220577,-0.778861,0.585725,-108.460291,-11.254601,-156.495865
22145,NaN,2.271439,-16.560825,-2.096405,2.218477,-2.625619,6.679709,-0.445184,0.006452,-0.249730,-0.039373,0.221623,-0.779878,0.584058,-108.721731,-11.389025,-156.450753
22146,NaN,2.474882,-11.840202,-1.364570,0.892518,-2.318337,2.103934,0.478442,-0.056085,-0.272838,-0.039360,0.222756,-0.778157,0.585920,-108.462291,-11.523961,-156.366588
22147,NaN,2.310674,-8.654487,-2.383434,-0.234332,-0.624415,-0.567403,0.110514,-0.212940,-0.242578,-0.039633,0.224304,-0.777509,0.586172,-108.429470,-11.614814,-156.201428
22148,NaN,2.273638,-9.001398,-3.883798,-0.566896,0.655065,0.213675,-0.156221,-0.220837,-0.225399,-0.039691,0.225858,-0.777661,0.585368,-108.550599,-11.694182,-156.034843
22149,NaN,2.100513,-8.406793,-3.809617,-0.553218,0.775171,-0.395015,-0.046388,-0.144664,-0.181021,-0.039703,0.226997,-0.777552,0.585071,-108.598171,-11.763719,-155.918724
22150,NaN,1.999587,-8.008139,-3.029725,-0.316752,0.193581,-1.028041,-0.219861,-0.175334,-0.136670,-0.039771,0.228085,-0.777997,0.584051,-108.747651,-11.802751,-155.793661
22151,NaN,2.409461,-8.748003,-2.162029,-0.152778,-0.929268,-0.532579,-0.389336,-0.249073,-0.102706,-0.040027,0.229291,-0.778955,0.582283,-109.000789,-11.809892,-155.634136
22152,NaN,2.798535,-9.216514,-2.558472,-0.469954,-0.870926,0.104078,-0.282315,-0.311767,-0.046672,-0.040817,0.230436,-0.779652,0.580841,-109.198030,-11.773707,-155.450551
22153,NaN,2.747983,-9.095873,-3.112273,-0.639713,-0.363990,0.158810,-0.205557,-0.283740,0.001471,-0.041723,0.231299,-0.780180,0.579723,-109.345478,-11.716897,-155.291994
22154,NaN,2.669956,-9.306806,-3.772710,-0.725348,0.179102,0.551693,-0.160199,-0.235992,0.048695,-0.042634,0.231826,-0.780644,0.578821,-109.460126,-11.642647,-155.169035
22155,NaN,2.100743,-9.418108,-3.879907,-0.226357,0.461247,0.574976,-0.111893,-0.166782,0.083708,-0.043429,0.232008,-0.781018,0.578185,-109.537275,-11.563206,-155.091327
22156,NaN,2.050208,-9.612370,-3.927891,-0.145247,0.463844,0.760537,-0.092018,-0.091674,0.105127,-0.044020,0.231882,-0.781378,0.577703,-109.594382,-11.485839,-155.059220
22157,NaN,1.892244,-10.009236,-3.470542,0.264856,0.021439,0.945539,-0.106506,0.004366,0.119718,-0.044257,0.231428,-0.781815,0.577277,-109.648114,-11.419727,-155.083032
22158,NaN,1.811199,-10.306610,-3.438081,0.432760,-0.052442,1.193539,-0.062042,0.085156,0.123952,-0.044245,0.230711,-0.782149,0.577112,-109.667988,-11.366236,-155.152097
22159,NaN,2.048105,-10.147093,-3.359248,0.191075,-0.187443,1.067162,-0.012748,0.175344,0.126062,-0.043940,0.229717,-0.782358,0.577248,-109.649269,-11.329652,-155.271287
22160,NaN,2.217720,-9.658813,-3.431143,-0.144044,-0.077996,0.673344,0.055050,0.249350,0.142032,-0.043473,0.228429,-0.782409,0.577725,-109.583734,-11.297937,-155.434213
22161,NaN,2.286665,-9.215956,-3.405141,-0.344023,-0.018593,0.268927,0.064360,0.285967,0.169769,-0.042950,0.226927,-0.782467,0.578277,-109.507407,-11.258726,-155.622749
22162,NaN,2.164432,-9.106487,-3.157355,-0.199472,-0.154792,0.062433,0.047979,0.302887,0.202596,-0.042440,0.225248,-0.782615,0.578771,-109.438138,-11.204119,-155.826824
22163,NaN,2.222629,-9.170389,-3.089150,-0.225773,-0.246063,0.110387,0.050336,0.310120,0.245918,-0.042027,0.223379,-0.782800,0.579275,-109.364804,-11.127896,-156.043260
22164,NaN,2.241900,-9.269697,-3.043405,-0.217547,-0.310581,0.190906,0.043616,0.355538,0.280895,-0.041533,0.221241,-0.783053,0.579790,-109.290111,-11.040432,-156.291228
22165,NaN,2.031217,-9.486870,-3.040600,0.015771,-0.272908,0.350826,0.055211,0.413301,0.317427,-0.040927,0.218790,-0.783316,0.580407,-109.201215,-10.944445,-156.577936
22166,NaN,1.766353,-9.706974,-2.979688,0.314688,-0.267108,0.485538,0.066593,0.477751,0.344296,-0.040163,0.216040,-0.783586,0.581125,-109.099219,-10.844884,-156.904965
22167,NaN,1.915415,-9.883779,-3.047632,0.184182,-0.293548,0.700438,0.110527,0.543428,0.359356,-0.039228,0.213032,-0.783747,0.582082,-108.964736,-10.749439,-157.270847
22168,NaN,1.690342,-9.865062,-3.034572,0.359134,-0.199747,0.637977,0.147114,0.569904,0.363395,-0.038245,0.209920,-0.783805,0.583198,-108.807699,-10.655136,-157.651643
22169,NaN,1.650557,-9.506830,-3.001174,0.275587,-0.112023,0.287937,0.203053,0.564780,0.357831,-0.037319,0.206833,-0.783681,0.584527,-108.619385,-10.562429,-158.028255
22170,NaN,1.774561,-8.987569,-2.936151,0.009002,-0.074038,-0.192875,0.197994,0.554509,0.356374,-0.036427,0.203778,-0.783562,0.585814,-108.436365,-10.466800,-158.398404
22171,NaN,1.375573,-9.037703,-2.863746,0.384608,0.010228,-0.240580,0.103808,0.540980,0.351277,-0.035474,0.200800,-0.783698,0.586718,-108.308871,-10.371143,-158.759852
22172,NaN,1.333576,-9.427764,-3.162625,0.420348,0.216465,0.209276,0.085846,0.560578,0.359928,-0.034454,0.197729,-0.783895,0.587558,-108.190739,-10.272904,-159.133301
22173,NaN,1.239314,-9.711142,-3.263601,0.533318,0.285843,0.489114,0.076141,0.603457,0.356662,-0.033244,0.194546,-0.784112,0.588401,-108.074073,-10.183934,-159.529662
22174,NaN,1.047695,-10.117002,-3.226208,0.808647,0.234165,0.824560,0.082111,0.678002,0.351310,-0.031734,0.191159,-0.784311,0.589328,-107.948137,-10.109663,-159.965934
22175,NaN,1.160845,-10.489165,-3.045599,0.830901,-0.043507,1.139640,0.085464,0.713329,0.358651,-0.030106,0.187638,-0.784497,0.590296,-107.816577,-10.037190,-160.422908
22176,NaN,0.675249,-10.729109,-2.912572,1.357515,-0.047009,1.242072,0.144828,0.726253,0.337545,-0.028425,0.184148,-0.784482,0.591498,-107.651630,-9.976777,-160.882920
22177,NaN,0.686426,-10.445823,-3.279011,1.156533,0.373077,1.089672,0.251906,0.704110,0.335336,-0.026918,0.180715,-0.784127,0.593096,-107.427387,-9.912695,-161.330068
22178,NaN,0.935568,-9.982679,-3.053242,0.843597,0.221144,0.631967,0.242258,0.682412,0.318567,-0.025441,0.177409,-0.783774,0.594623,-107.212452,-9.851911,-161.761823
22179,NaN,0.373230,-10.136212,-2.529019,1.518727,-0.100953,0.529519,0.211613,0.662497,0.291958,-0.023933,0.174269,-0.783471,0.596013,-107.017524,-9.801240,-162.177767
22180,NaN,0.020963,-10.533492,-2.513428,1.929943,-0.078565,0.842888,0.255876,0.645217,0.270964,-0.022471,0.171253,-0.783008,0.597549,-106.800534,-9.757304,-162.580193
22181,NaN,-0.497691,-10.932999,-2.746744,2.440479,0.226629,1.201639,0.314739,0.632678,0.208579,-0.020919,0.168511,-0.782300,0.599310,-106.552281,-9.744265,-162.965129
22182,NaN,-1.189265,-11.018116,-2.840410,3.078879,0.524626,1.193054,0.338607,0.551614,0.128115,-0.019465,0.166322,-0.781439,0.601092,-106.300967,-9.760332,-163.291452
22183,NaN,0.050844,-11.017580,-2.820973,1.905577,0.187151,1.398075,0.281696,0.452438,0.079753,-0.018205,0.164623,-0.780688,0.602573,-106.092122,-9.786044,-163.554779
22184,NaN,0.457557,-11.364590,-2.075421,1.766354,-0.668402,1.593618,0.244240,0.362696,0.034748,-0.017130,0.163373,-0.780004,0.603829,-105.915087,-9.821316,-163.760708
22185,NaN,1.285879,-11.202758,-2.161032,0.916796,-0.747478,1.607732,0.311409,0.279398,0.069155,-0.016538,0.162234,-0.779130,0.605279,-105.705724,-9.824016,-163.925766
22186,NaN,1.945889,-10.997308,-1.544751,0.366734,-1.430573,1.364630,0.185883,0.331972,0.124700,-0.015808,0.160729,-0.778687,0.606270,-105.562581,-9.803603,-164.128819
22187,NaN,1.838722,-11.291828,-1.347287,0.560846,-1.627660,1.577553,0.139517,0.464825,0.193171,-0.014730,0.158556,-0.778441,0.607185,-105.430823,-9.765304,-164.417039
22188,NaN,1.457634,-11.267497,-1.047200,0.957186,-1.785116,1.415620,0.125459,0.628529,0.250231,-0.013178,0.155665,-0.778292,0.608159,-105.291171,-9.719593,-164.805521
22189,NaN,0.136518,-11.715154,-0.734131,2.354083,-1.825257,1.542007,0.038885,0.743185,0.265265,-0.011157,0.152370,-0.778410,0.608882,-105.189272,-9.682068,-165.260638
22190,NaN,-1.378396,-12.053100,-0.903218,3.817334,-1.361877,1.657545,0.057218,0.744452,0.219855,-0.009007,0.149245,-0.778430,0.609665,-105.079054,-9.668983,-165.709287
22191,NaN,-2.507252,-12.406873,-0.819181,4.977203,-1.255657,1.786391,-0.008228,0.656154,0.143370,-0.006919,0.146685,-0.778574,0.610129,-105.015553,-9.684300,-166.097028
22192,NaN,-3.391741,-12.766860,-0.550974,5.953578,-1.394171,1.909571,-0.015326,0.458377,-0.026496,-0.005077,0.145392,-0.778607,0.610415,-104.979911,-9.764085,-166.348017
22193,NaN,-3.953427,-12.435324,-1.048309,6.339600,-0.716905,1.618028,0.191363,0.222704,-0.183886,-0.003826,0.145421,-0.777880,0.611343,-104.850810,-9.895520,-166.443482
22194,NaN,-3.252656,-11.728659,-1.623435,5.434071,-0.154457,1.197468,0.187272,-0.016403,-0.405593,-0.002820,0.147046,-0.777003,0.612076,-104.753978,-10.114960,-166.371547
22195,NaN,-2.269792,-12.093893,-3.068712,4.362931,0.950242,2.057127,0.057562,-0.176353,-0.712252,-0.001407,0.150347,-0.776281,0.612194,-104.754769,-10.480366,-166.164494
22196,NaN,-3.042150,-13.381915,-3.516490,5.416893,1.323723,3.210339,-0.137325,-0.174898,-1.126269,0.001430,0.155254,-0.775833,0.611537,-104.881734,-11.075747,-165.895452
22197,NaN,-1.989011,-14.689433,-5.310248,4.563164,2.544156,5.041103,-0.128991,-0.155583,-1.545553,0.005612,0.161714,-0.774992,0.610904,-105.016759,-11.904570,-165.572398
22198,NaN,-1.244417,-15.129495,-6.145078,4.054708,3.115502,5.745519,-0.140529,0.025447,-1.948615,0.011741,0.169177,-0.773801,0.610306,-105.156792,-12.983514,-165.286804
22199,NaN,0.937092,-15.662239,-5.810382,2.532579,2.195427,6.579346,-0.383771,0.263924,-2.260979,0.019943,0.177079,-0.772981,0.608889,-105.421472,-14.268987,-165.083389
22200,NaN,9.568123,-17.226094,-8.219610,-5.064252,2.063155,10.825091,-0.512931,0.766910,-2.563562,0.031129,0.184587,-0.772118,0.607283,-105.706135,-15.798972,-165.111191
22201,NaN,14.007562,-18.179000,-9.788969,-8.487587,2.396428,13.525451,-0.663175,1.746719,-2.920054,0.047303,0.190419,-0.771040,0.605806,-105.931288,-17.677517,-165.638411
22202,NaN,16.823980,-19.639503,-10.503759,-9.771384,2.336105,16.226536,-1.237926,2.361959,-3.275696,0.067463,0.195560,-0.770935,0.602383,-106.375144,-19.853891,-166.457304
22203,NaN,17.619737,-22.091366,-12.329600,-8.624615,3.668294,19.555708,-1.492810,3.053060,-3.383925,0.090822,0.198846,-0.770864,0.598315,-106.796763,-22.207865,-167.658320
22204,NaN,6.704413,-24.852348,-6.042603,4.246530,-0.678392,16.273547,-1.805155,3.022739,-3.693075,0.115248,0.203156,-0.770965,0.592502,-107.381266,-24.736477,-168.782633
22205,NaN,4.356187,-25.681205,-5.742600,7.841482,-0.762224,15.668778,-0.818355,2.490251,-3.682542,0.136519,0.209448,-0.768012,0.589620,-107.493674,-27.173486,-169.591190
22206,NaN,6.031452,-22.852434,-5.144935,6.053750,-0.888319,13.587260,-0.364980,2.579333,-3.772652,0.157856,0.216031,-0.763173,0.588200,-107.288313,-29.675073,-170.457538
22207,NaN,4.453491,-21.447349,-4.240569,7.609253,-1.055531,11.132934,-0.096769,2.783230,-3.650323,0.179232,0.221638,-0.757115,0.587818,-106.796375,-32.138235,-171.517906
22208,NaN,0.888288,-19.171347,-3.996096,10.097618,-0.168816,6.987816,0.542314,2.718414,-3.462102,0.199017,0.227190,-0.749061,0.589648,-105.869413,-34.477014,-172.636059
22209,NaN,-1.528992,-16.366455,-3.925402,11.014532,0.769393,2.980324,0.748411,2.388547,-3.289174,0.216723,0.233158,-0.740582,0.591783,-104.852561,-36.652503,-173.642361
22210,NaN,-3.106544,-14.702605,-2.946862,11.627777,0.393053,0.143136,0.568228,2.020443,-3.090182,0.232613,0.239203,-0.732980,0.592802,-104.002057,-38.652859,-174.498152
22211,NaN,-4.735038,-13.415970,-1.895155,12.305699,-0.208337,-2.429526,0.603931,1.577049,-2.830627,0.245982,0.245565,-0.725873,0.593548,-103.245331,-40.437046,-175.139169
22212,NaN,-6.172278,-11.049780,-1.151318,11.978894,-0.369188,-5.584153,0.776280,1.070396,-2.539802,0.256391,0.252542,-0.719061,0.594506,-102.561680,-41.989701,-175.498565
22213,NaN,-7.277946,-8.145821,-0.265228,10.864659,-0.636597,-8.841797,0.801302,0.649469,-2.108349,0.263914,0.259191,-0.713140,0.595483,-102.003663,-43.243766,-175.640992
22214,NaN,-7.543407,-5.765298,0.348996,9.391780,-0.810492,-10.995594,0.563902,0.251621,-1.542765,0.268631,0.264685,-0.709107,0.595774,-101.719734,-44.135755,-175.581347
22215,NaN,-7.122273,-4.146979,0.001328,7.972181,-0.210066,-11.892077,0.514839,-0.086609,-0.917460,0.270320,0.268871,-0.706472,0.596266,-101.575444,-44.634653,-175.362412
22216,NaN,-7.733044,-1.908731,-0.245631,6.834479,0.432413,-13.887770,0.667429,-0.318772,-0.298208,0.269149,0.271782,-0.704508,0.597798,-101.404309,-44.763016,-175.059155
22217,NaN,-8.613223,1.271120,-0.037585,5.207869,0.758630,-16.748621,0.774967,-0.611120,0.212340,0.265251,0.273885,-0.703301,0.599997,-101.275164,-44.568601,-174.607719
22218,NaN,-8.862206,3.267900,0.219532,4.012497,0.835371,-18.325450,0.297361,-0.976625,0.777227,0.259037,0.274478,-0.704756,0.600734,-101.554397,-44.018652,-173.960991
22219,NaN,-7.820570,2.529823,-0.238544,3.884170,1.202961,-16.959870,-0.288950,-1.413755,1.315743,0.250432,0.273684,-0.709234,0.599473,-102.324371,-43.106980,-173.080333
22220,NaN,-7.075479,2.173842,-0.801828,3.707447,1.755572,-16.025654,-0.317528,-1.709380,1.771664,0.239441,0.272114,-0.714697,0.598190,-103.176686,-41.897978,-172.085163
22221,NaN,-6.867465,2.788219,-1.158549,3.267709,2.288136,-16.165722,-0.362295,-1.970629,2.226449,0.226148,0.269570,-0.721095,0.596834,-104.079083,-40.385395,-171.025260
22222,NaN,-6.018786,3.086284,-1.804148,2.572621,2.991275,-15.595029,-0.430619,-2.274575,2.629802,0.210611,0.266354,-0.728386,0.595107,-105.053016,-38.596406,-169.878783
22223,NaN,-4.751925,3.667870,-2.524327,1.352581,3.730520,-14.975680,-0.384396,-2.501317,2.975336,0.193061,0.262486,-0.735993,0.593416,-105.983440,-36.563341,-168.710137
22224,NaN,-2.998905,4.352400,-3.028469,-0.342135,4.154844,-14.254138,-0.449042,-2.599612,3.269811,0.174306,0.257681,-0.743962,0.591387,-106.880364,-34.342082,-167.604159
22225,NaN,-0.511888,4.415886,-3.831192,-2.329790,4.567256,-12.667826,-0.571465,-2.540063,3.543992,0.155013,0.251429,-0.752255,0.588953,-107.719312,-31.963502,-166.664132
22226,NaN,2.599722,4.466628,-4.716624,-4.940747,4.838805,-10.875734,-0.652609,-2.325921,3.808017,0.135798,0.243391,-0.760573,0.586386,-108.443017,-29.472809,-165.975684
22227,NaN,5.721248,4.070236,-5.496185,-7.438430,4.839275,-8.943536,-0.909482,-1.837016,3.963339,0.118205,0.233009,-0.769123,0.583253,-109.104992,-26.977121,-165.672480
22228,NaN,8.003649,2.567714,-6.153292,-8.783087,4.635609,-6.669825,-1.109352,-1.166451,3.932369,0.103483,0.220584,-0.777451,0.579831,-109.682764,-24.626953,-165.800878
22229,NaN,9.959910,0.484666,-6.564124,-9.694220,4.121893,-4.195981,-1.295039,-0.476058,3.756469,0.092091,0.206631,-0.785441,0.576112,-110.214721,-22.504114,-166.320459
22230,NaN,12.992405,-1.903861,-6.462047,-11.543868,2.823679,-1.272176,-1.379258,0.276197,3.450722,0.084610,0.191616,-0.792711,0.572480,-110.671634,-20.703708,-167.220393
22231,NaN,15.668343,-3.455599,-6.021044,-13.529580,1.573041,0.586970,-1.417335,0.879398,3.101193,0.080508,0.176164,-0.799245,0.568940,-111.081421,-19.216867,-168.392960
22232,NaN,18.634180,-4.169381,-5.530878,-16.183920,0.577848,1.717064,-1.462650,1.264959,2.782473,0.078890,0.160834,-0.805228,0.565259,-111.495989,-17.991421,-169.714043
22233,NaN,22.230819,-3.757283,-5.222293,-19.874298,0.150081,2.043295,-1.385124,1.475921,2.411129,0.079071,0.146379,-0.810399,0.561760,-111.879684,-17.014803,-171.071238
22234,NaN,24.081015,-2.772905,-4.189125,-22.056233,-0.317930,1.074391,-1.372090,1.764543,1.915337,0.081803,0.133105,-0.814864,0.558200,-112.259767,-16.374535,-172.477769
22235,NaN,24.146947,-2.541656,-3.315165,-22.265391,-0.549994,0.407448,-1.563994,2.043292,1.400796,0.087208,0.121037,-0.819237,0.553710,-112.750778,-16.076861,-173.922029
22236,NaN,22.485222,-2.742539,-1.450771,-20.679884,-1.670336,-0.607105,-1.628246,2.297318,0.884865,0.095110,0.110331,-0.823185,0.548770,-113.275384,-16.121658,-175.387240
22237,NaN,19.555871,-2.091740,0.739069,-18.170264,-2.736182,-2.763685,-1.261801,2.592367,0.440800,0.105222,0.100793,-0.825567,0.545168,-113.569566,-16.477200,-176.909652
22238,NaN,14.801234,0.601405,4.405485,-14.669466,-4.405694,-7.756270,-0.702331,2.644152,0.041758,0.116333,0.093036,-0.826030,0.543586,-113.549224,-17.057675,-178.367998
22239,NaN,8.673528,4.257644,7.439380,-10.233908,-5.321137,-13.768485,-0.080638,2.316750,-0.247129,0.126575,0.087713,-0.824726,0.544162,-113.230508,-17.712377,-179.583516
22240,NaN,7.497582,4.450875,-3.913733,-7.947040,5.306503,-9.976150,1.005905,0.735323,-0.020665,0.129186,0.086434,-0.821494,0.548623,-112.529630,-17.883950,-179.984292
22241,NaN,-1.871322,12.606388,4.593727,-2.366346,0.486024,-23.142567,1.521814,0.016144,-0.461137,0.129831,0.089273,-0.817079,0.554577,-111.686206,-18.130510,-179.886411
22242,NaN,13.979312,4.512603,-18.800169,-12.787071,18.902261,-2.857303,-0.423214,-3.460160,0.923168,0.113270,0.094809,-0.820773,0.551827,-112.444387,-16.892343,-178.166093
22243,NaN,-0.854403,-5.903353,-1.927901,2.616569,-0.568554,-4.145613,-6.027379,-1.653678,0.044933,0.109141,0.095739,-0.837955,0.526074,-116.153027,-16.477642,-177.273382
22244,NaN,-13.691763,-67.016991,-7.910955,31.512473,-24.751994,46.134720,-12.629488,-3.552272,1.226232,0.096816,0.092847,-0.871852,0.471041,-123.784231,-14.849942,-175.806093
22245,NaN,15.467635,-73.401221,-13.401543,4.729344,-28.696542,60.618356,2.230108,-0.821357,-0.009709,0.092189,0.095899,-0.866927,0.480356,-122.609319,-14.594370,-175.394232
22246,NaN,-2.034821,-15.045547,3.561372,5.682780,-10.173965,0.542112,9.197780,0.320215,-0.687723,0.090687,0.102245,-0.843439,0.519550,-117.347770,-15.023853,-175.353365
22247,NaN,-9.109604,-9.044476,-6.390335,11.471007,2.610678,-1.614143,2.549949,-0.116036,-0.346010,0.089757,0.105155,-0.836611,0.530064,-115.924341,-15.168661,-175.198127
22248,NaN,-2.470341,-17.734861,-7.471815,7.541546,-0.598033,8.053748,-2.084657,-0.199406,-0.753256,0.091976,0.107892,-0.841773,0.520882,-117.198160,-15.500339,-174.890240
22249,NaN,5.212735,-17.254327,-2.783165,0.002053,-5.344768,7.624548,1.202773,-0.002280,-1.112283,0.094179,0.113129,-0.838005,0.525434,-116.588438,-16.065002,-174.587895
22250,NaN,6.842747,-4.905510,1.492109,-5.155689,-3.965857,-4.262902,3.843330,0.184905,-0.671098,0.094491,0.117243,-0.827277,0.541238,-114.405246,-16.454418,-174.513205
22251,NaN,6.674254,0.898360,2.040638,-6.691221,-2.153723,-9.487730,1.817473,0.121122,-0.414480,0.095013,0.119484,-0.822012,0.548628,-113.371086,-16.696804,-174.477384
22252,NaN,4.782546,-3.191546,-1.072499,-3.565136,-0.639813,-5.220375,-0.509582,-0.022853,-0.332076,0.096099,0.120670,-0.823213,0.546373,-113.688129,-16.862858,-174.383499
22253,NaN,4.485532,-7.686869,-3.699466,-1.829456,0.101409,-0.350307,-0.435840,0.026724,-0.186918,0.096953,0.121159,-0.824265,0.544525,-113.944139,-16.964460,-174.351241
22254,NaN,3.879083,-7.078967,-3.863622,-1.415579,0.528646,-0.992072,0.107174,0.212643,-0.103633,0.098013,0.121059,-0.823802,0.545058,-113.854560,-17.064929,-174.440581
22255,NaN,2.471096,-7.394091,-3.134529,0.014414,-0.137695,-1.411204,-0.417157,0.190962,-0.095069,0.099282,0.120729,-0.824775,0.543428,-114.067035,-17.156662,-174.520347
22256,NaN,2.756178,-9.604882,-3.760374,0.457029,-0.475043,0.843567,-0.640749,0.027867,-0.074243,0.099951,0.120641,-0.826448,0.540776,-114.433610,-17.198816,-174.515325
22257,NaN,3.536859,-10.469718,-4.670781,0.022585,-0.093434,2.184446,-0.282335,-0.035481,-0.058825,0.100105,0.120842,-0.827183,0.539579,-114.602844,-17.218536,-174.479657
22258,NaN,4.309521,-9.152632,-5.386806,-1.087007,0.995046,1.553429,0.101185,0.118131,0.005904,0.100482,0.120550,-0.826849,0.540085,-114.523891,-17.240398,-174.543625
22259,NaN,4.274274,-8.033776,-5.520782,-1.386610,1.575330,0.622139,0.083884,0.354586,0.089364,0.101627,0.119268,-0.826486,0.540710,-114.409232,-17.275453,-174.757791
22260,NaN,3.395484,-8.521647,-5.154173,-0.402814,1.145257,0.639077,-0.084438,0.556834,0.136344,0.103576,0.117156,-0.826505,0.540774,-114.355587,-17.332817,-175.093966
22261,NaN,2.449667,-9.405178,-4.257324,0.739582,0.067027,0.771809,-0.084268,0.631872,0.178491,0.105725,0.114669,-0.826495,0.540906,-114.285091,-17.386278,-175.482034
22262,NaN,2.287066,-10.210548,-3.805154,1.122116,-0.638756,1.246155,-0.031979,0.632192,0.195641,0.107792,0.112134,-0.826351,0.541250,-114.183989,-17.429556,-175.874430
22263,NaN,2.335873,-10.484383,-3.864827,1.163449,-0.674186,1.523418,0.103801,0.600609,0.201246,0.109641,0.109736,-0.825844,0.542142,-114.008496,-17.462288,-176.251349
22264,NaN,2.623272,-9.862901,-4.144106,0.719514,-0.157334,1.177734,0.283616,0.575641,0.235499,0.111190,0.107359,-0.824880,0.543769,-113.732486,-17.469191,-176.622776
22265,NaN,2.664607,-8.857132,-4.062873,0.371943,0.200194,0.280739,0.309392,0.550920,0.254930,0.112573,0.104983,-0.823854,0.545500,-113.443288,-17.459087,-176.985583
22266,NaN,2.574189,-8.286941,-4.016764,0.281730,0.422237,-0.264051,0.241052,0.510678,0.274395,0.113768,0.102597,-0.823044,0.546927,-113.199771,-17.427395,-177.330437
22267,NaN,2.571572,-7.907427,-4.298183,0.188045,0.862491,-0.494136,0.230091,0.445686,0.289950,0.114661,0.100318,-0.822296,0.548286,-112.971399,-17.372127,-177.643119
22268,NaN,2.683578,-7.641893,-4.703966,0.029494,1.368046,-0.546896,0.227684,0.442079,0.303105,0.115499,0.097991,-0.821562,0.549630,-112.745590,-17.307351,-177.956250
22269,NaN,2.839350,-7.617811,-5.023994,-0.104270,1.699733,-0.408783,0.136171,0.488843,0.323030,0.116523,0.095402,-0.821050,0.550634,-112.562572,-17.241853,-178.299792
22270,NaN,3.095966,-7.826237,-4.747181,-0.315295,1.383668,-0.254616,0.012308,0.617592,0.346854,0.118063,0.092286,-0.820812,0.551192,-112.429239,-17.190504,-178.719587
22271,NaN,3.396999,-8.452612,-4.391360,-0.457616,0.837387,0.255064,-0.039581,0.803957,0.366664,0.120340,0.088544,-0.820598,0.551632,-112.293143,-17.168894,-179.247290
22272,NaN,3.258412,-8.917391,-4.063328,-0.223934,0.394363,0.504383,0.070111,0.980618,0.360157,0.123304,0.084404,-0.819958,0.552577,-112.066643,-17.186799,-179.871307
22273,NaN,2.611690,-8.905459,-4.063554,0.400510,0.445106,0.300762,0.194458,1.050107,0.329065,0.126587,0.080276,-0.818889,0.554032,-111.758201,-17.233861,179.472547
22274,NaN,1.962284,-8.677734,-4.430237,1.018531,0.912722,0.031597,0.285547,1.025850,0.285338,0.129847,0.076447,-0.817546,0.555800,-111.404640,-17.294934,178.839352
22275,NaN,1.724574,-8.131923,-4.444627,1.121508,1.171327,-0.526836,0.329103,0.942202,0.226035,0.132914,0.073121,-0.816086,0.557666,-111.042129,-17.367046,178.265001
22276,NaN,1.619226,-7.696388,-4.111481,1.082241,1.061453,-1.068406,0.299638,0.847083,0.171078,0.135749,0.070261,-0.814737,0.559321,-110.715949,-17.445365,177.755325
22277,NaN,2.135565,-7.444596,-3.768322,0.495190,0.891118,-1.260293,0.249005,0.771359,0.115566,0.138450,0.067805,-0.813541,0.560701,-110.433358,-17.536048,177.299076
22278,NaN,2.345417,-7.812714,-3.010307,0.300484,0.092262,-1.123468,0.113752,0.733520,0.043825,0.141238,0.065651,-0.812719,0.561454,-110.239071,-17.655510,176.878699
22279,NaN,2.176315,-8.563600,-2.287601,0.568142,-0.838069,-0.741883,0.064709,0.720194,-0.022022,0.144174,0.063768,-0.812007,0.561954,-110.077369,-17.806896,176.478582
22280,NaN,2.373762,-9.283203,-2.145959,0.570694,-1.197181,-0.083415,0.083876,0.695138,-0.071210,0.147136,0.062166,-0.811237,0.562477,-109.911632,-17.978384,176.102165
22281,NaN,2.053013,-9.776517,-2.567284,1.106143,-0.978653,0.395380,0.171999,0.651700,-0.137751,0.150083,0.061022,-0.810217,0.563293,-109.704939,-18.176480,175.762752
22282,NaN,2.081242,-9.412352,-3.582133,1.194797,0.133140,0.400542,0.350821,0.539880,-0.176304,0.152625,0.060481,-0.808761,0.564760,-109.417525,-18.372209,175.493666
22283,NaN,2.388047,-8.704455,-4.595034,0.933609,1.392142,0.176040,0.354754,0.423401,-0.215710,0.154808,0.060431,-0.807358,0.566176,-109.149216,-18.566229,175.297296
22284,NaN,2.089356,-8.491842,-5.069642,1.282783,1.920664,0.028216,0.279137,0.320375,-0.247982,0.156686,0.060744,-0.806238,0.567222,-108.945041,-18.757434,175.165383
22285,NaN,2.159223,-8.282484,-4.925192,1.167741,1.890493,-0.190755,0.238231,0.226998,-0.252408,0.158213,0.061307,-0.805297,0.568073,-108.780421,-18.933540,175.086806
22286,NaN,3.818338,-8.929843,-3.644610,-0.420119,0.623503,0.533307,0.107201,0.313654,-0.205879,0.159995,0.061333,-0.804675,0.568452,-108.672114,-19.099959,174.949149
22287,NaN,3.815611,-9.844395,-1.811237,-0.474634,-1.385019,0.799000,0.153008,0.423461,-0.159677,0.162074,0.060897,-0.803842,0.569088,-108.512622,-19.261225,174.738659
22288,NaN,4.017853,-10.203824,-0.830624,-0.727865,-2.374785,0.900928,0.246177,0.463968,-0.060366,0.164002,0.060022,-0.802740,0.570184,-108.285716,-19.374972,174.485264
22289,NaN,3.940168,-10.746973,0.389969,-0.727230,-3.672156,1.011394,0.158247,0.483884,-0.004248,0.165878,0.058792,-0.801879,0.570980,-108.100388,-19.461074,174.208888
22290,NaN,3.225321,-11.114425,0.338088,0.060909,-3.777725,1.131368,0.294898,0.414561,0.065906,0.167232,0.057592,-0.800705,0.572353,-107.846146,-19.495487,173.959235
22291,NaN,3.000520,-10.670456,-0.128006,0.237627,-3.169539,0.806894,0.302874,0.356858,0.124953,0.168185,0.056327,-0.799564,0.573793,-107.593662,-19.486758,173.731555
22292,NaN,2.487284,-10.938426,-0.370062,0.836755,-3.050369,0.956144,0.163467,0.306551,0.138408,0.168934,0.055035,-0.798870,0.574664,-107.431098,-19.461039,173.530963
22293,NaN,1.684701,-11.347387,-1.107697,1.848670,-2.554811,1.272606,0.168652,0.270777,0.118266,0.169599,0.053930,-0.798177,0.575535,-107.272552,-19.439820,173.354478
22294,NaN,1.144160,-11.340642,-2.057416,2.549764,-1.696347,1.357509,0.197720,0.244804,0.046269,0.170356,0.053212,-0.797407,0.576445,-107.107958,-19.453016,173.206465
22295,NaN,-0.050481,-12.184871,-2.603003,4.028643,-1.586542,1.870726,-0.039029,0.219323,-0.076585,0.171430,0.052854,-0.797301,0.576307,-107.089784,-19.528954,173.094700
22296,NaN,-0.419369,-14.096734,-3.975288,5.225644,-0.992321,3.840315,-0.188613,0.162039,-0.215511,0.172714,0.053088,-0.797643,0.575428,-107.177989,-19.671374,173.041542
22297,NaN,0.187411,-14.098036,-4.125950,4.732586,-0.804134,4.071437,-0.048194,0.332505,-0.314786,0.174925,0.053345,-0.797397,0.575076,-107.156653,-19.896693,172.906592
22298,NaN,1.560953,-12.971537,-4.495717,3.272363,0.073551,3.610969,0.056947,0.643944,-0.354386,0.178463,0.052960,-0.796566,0.575177,-107.015904,-20.196255,172.597098
22299,NaN,2.913244,-11.416829,-6.077267,2.014191,2.254139,3.095630,0.185416,1.057464,-0.467861,0.183933,0.051946,-0.794941,0.575794,-106.720278,-20.625120,172.063352
22300,NaN,2.518444,-10.362334,-7.794191,2.629804,4.180573,2.437754,0.070887,1.580910,-0.750391,0.192319,0.050444,-0.793054,0.575791,-106.392862,-21.292458,171.267257
22301,NaN,-0.028075,-10.897855,-9.483046,5.798628,5.177590,2.363194,-0.352028,2.038378,-1.134116,0.203707,0.048729,-0.791757,0.573803,-106.217546,-22.240449,170.258733
22302,NaN,1.373223,-14.204919,-10.775267,6.263671,5.323451,6.067395,-1.014508,2.483632,-1.540377,0.218148,0.046667,-0.791665,0.568771,-106.326074,-23.483538,169.047165
22303,NaN,5.115908,-17.464681,-13.001723,5.188080,6.660846,10.897172,-0.991424,3.086060,-1.985032,0.236162,0.044656,-0.790507,0.563323,-106.270936,-25.067565,167.537777
22304,NaN,10.337847,-18.669044,-13.964012,2.188442,7.908564,14.331971,-1.182572,3.841323,-2.430424,0.258356,0.042039,-0.788539,0.556500,-106.104461,-27.015765,165.620027
22305,NaN,17.255353,-21.683411,-12.544010,-1.978966,6.781226,19.770896,-2.251395,4.733140,-2.830400,0.285209,0.037100,-0.787744,0.544738,-106.240604,-29.324919,163.180521
22306,NaN,23.142287,-26.502110,-14.824375,-2.416758,8.024454,27.430797,-2.322625,5.645938,-3.244740,0.316507,0.031174,-0.784946,0.531706,-106.034447,-32.007628,160.171563
22307,NaN,17.711911,-28.636976,-12.514861,3.781014,3.174119,25.763151,-1.834986,6.431998,-3.805431,0.351874,0.026084,-0.778477,0.519113,-105.119374,-35.094860,156.617805
22308,NaN,2.564323,-28.722915,-7.831015,14.393004,-6.322967,15.594687,-1.376045,5.771599,-4.139656,0.384996,0.024784,-0.770848,0.506910,-103.968084,-38.219261,153.373461
22309,NaN,0.942424,-25.403445,-8.146564,15.346464,-5.783066,11.245636,-0.548892,4.551830,-4.285484,0.413236,0.028693,-0.762575,0.496882,-102.644305,-41.205459,150.812645
22310,NaN,5.918342,-20.605071,-6.387270,9.799902,-3.505140,9.984819,-0.743576,3.901266,-4.581608,0.439377,0.034926,-0.755358,0.484935,-101.560166,-44.238563,148.590431
22311,NaN,5.432006,-19.139070,-5.477550,9.697279,-4.134525,7.923776,-0.796650,3.872693,-4.428304,0.464639,0.040489,-0.747689,0.472686,-100.278469,-47.145959,146.164027
22312,NaN,-0.086298,-16.926662,-3.951849,11.312386,-6.583132,1.622829,-0.366397,3.872381,-3.997686,0.488426,0.045421,-0.738466,0.462651,-98.438560,-49.764805,143.428795
22313,NaN,-3.314604,-13.541215,-2.239041,10.316685,-7.482498,-3.737142,-0.513388,3.689433,-3.545660,0.510157,0.048701,-0.729611,0.452808,-96.480300,-52.048996,140.528774
22314,NaN,-4.375427,-11.325995,-0.906515,8.714134,-7.820833,-6.477441,-0.879247,3.504460,-3.095453,0.529990,0.049810,-0.721710,0.442453,-94.556952,-54.005622,137.493910
22315,NaN,-6.055570,-9.343122,0.788326,7.005874,-8.679619,-9.420444,-0.876322,3.374418,-2.681187,0.548139,0.049673,-0.713885,0.432949,-92.458168,-55.652204,134.313742
22316,NaN,-8.083455,-6.816529,2.901020,4.598595,-9.494018,-12.800629,-0.833215,3.153679,-2.259813,0.564358,0.048627,-0.706353,0.424501,-90.273144,-56.987936,131.117130
22317,NaN,-10.121769,-4.487452,4.973340,2.128586,-10.281421,-15.901169,-0.986866,2.805653,-1.713475,0.578011,0.045916,-0.700032,0.416833,-88.305539,-57.944134,128.113757
22318,NaN,-11.756307,-2.313127,6.399269,-0.011494,-10.481352,-18.452176,-1.225470,2.278313,-1.162040,0.588604,0.041697,-0.695674,0.409689,-86.857652,-58.552385,125.587803
22319,NaN,-11.871002,-0.324949,7.461440,-2.224276,-9.846092,-19.549156,-1.632182,1.683015,-0.531590,0.595796,0.035272,-0.693924,0.402805,-86.187846,-58.791877,123.709840
22320,NaN,-11.455563,0.631865,6.991022,-2.711006,-8.690807,-19.693024,-1.924906,1.109839,0.112212,0.599697,0.026920,-0.694481,0.396654,-86.255753,-58.683890,122.501430
22321,NaN,-12.487611,1.402772,5.738361,-1.912781,-7.864545,-21.007641,-1.936059,0.556566,0.772826,0.600275,0.017304,-0.696735,0.392340,-86.895875,-58.216450,121.951985
22322,NaN,-13.780503,1.877318,4.791054,-0.986587,-7.609565,-22.362625,-2.102746,0.008295,1.463160,0.597541,0.005887,-0.700914,0.389398,-88.153547,-57.376714,122.016861
22323,NaN,-12.910122,1.293938,4.152808,-0.295977,-7.341494,-21.284517,-2.522893,-0.473160,2.134179,0.591671,-0.008233,-0.707221,0.386907,-90.047075,-56.151460,122.553697
22324,NaN,-10.808389,-0.237885,3.506810,0.464791,-7.184411,-18.606993,-2.664413,-0.685904,2.773810,0.583632,-0.024587,-0.714163,0.385669,-92.101534,-54.552930,123.197626
22325,NaN,-8.707891,-0.680244,3.070204,0.491938,-6.372221,-16.510811,-2.445913,-0.664829,3.388575,0.574243,-0.042561,-0.720256,0.386864,-93.884652,-52.586715,123.673349
22326,NaN,-7.280091,-0.344544,2.933939,0.112848,-5.482030,-15.439143,-2.326620,-0.472450,3.939811,0.564249,-0.062496,-0.725091,0.389820,-95.330477,-50.312600,123.819889
22327,NaN,-5.873191,-0.238802,2.839437,-0.255502,-4.747690,-14.285374,-2.430350,-0.241228,4.417888,0.553775,-0.084905,-0.728907,0.393471,-96.581245,-47.772747,123.633746
22328,NaN,-4.353458,-0.604014,2.936136,-0.752304,-4.293028,-12.802779,-2.601014,0.099563,4.838906,0.543281,-0.109896,-0.731424,0.397224,-97.652446,-45.026242,123.057622
22329,NaN,-3.854004,-1.120805,3.079034,-0.946400,-4.471696,-11.979836,-2.668209,0.456370,5.132842,0.533009,-0.136801,-0.732362,0.401040,-98.542218,-42.143214,122.132550
22330,NaN,-4.191973,-1.500582,3.980169,-1.590151,-5.367315,-11.892877,-2.817116,0.641162,5.257873,0.522624,-0.164776,-0.732380,0.404143,-99.440168,-39.222512,121.036874
22331,NaN,-3.606252,-2.661201,5.583810,-3.178555,-6.351772,-10.714995,-3.153845,0.650769,5.299307,0.511397,-0.193683,-0.732337,0.405762,-100.555678,-36.288507,119.909396
22332,NaN,-1.730666,-4.319066,6.486940,-4.744525,-6.251900,-8.355233,-3.270553,0.547589,5.335698,0.499136,-0.222588,-0.732046,0.406726,-101.803341,-33.347564,118.815777
22333,NaN,1.487699,-5.168163,7.265374,-6.953701,-4.392378,-6.065208,-3.108988,0.530191,5.432729,0.486270,-0.251226,-0.730635,0.408167,-102.985536,-30.363704,117.683020
22334,NaN,5.584494,-5.891909,7.285490,-8.870475,-1.224965,-3.587032,-2.795158,0.660434,5.529590,0.473630,-0.279438,-0.727434,0.410401,-103.976637,-27.368172,116.422434
22335,NaN,9.092720,-5.973264,6.471467,-9.727830,2.362425,-2.068094,-2.107651,0.963512,5.519606,0.462599,-0.306380,-0.721432,0.414330,-104.545689,-24.430103,114.964363
22336,NaN,11.605632,-4.327964,5.760402,-10.016166,6.041764,-2.760942,-1.428552,1.246828,5.422545,0.453464,-0.331692,-0.712903,0.419667,-104.736014,-21.601658,113.362952
22337,NaN,13.459672,-3.084995,4.227200,-9.084584,9.190678,-3.370961,-1.255798,1.486451,5.284849,0.445362,-0.356384,-0.703109,0.424595,-104.865574,-18.883085,111.663445
22338,NaN,14.119118,-3.489742,3.177936,-8.212417,10.448397,-3.107441,-1.428947,1.717044,4.970546,0.438115,-0.380544,-0.693200,0.427452,-105.146655,-16.383986,109.895246
22339,NaN,14.020012,-5.431722,3.409015,-8.499555,10.175130,-1.947747,-1.730490,1.914301,4.633681,0.431356,-0.404368,-0.683632,0.427863,-105.656569,-14.107890,108.070907
22340,NaN,14.066997,-7.690853,2.831331,-8.216960,10.235771,-0.184278,-1.663012,1.989552,4.326442,0.425383,-0.426862,-0.673931,0.427382,-106.195596,-12.033924,106.249795
22341,NaN,13.228866,-8.755781,3.140782,-8.341928,9.669218,0.107343,-1.466097,2.122046,3.922603,0.420866,-0.447626,-0.663979,0.426187,-106.679777,-10.215293,104.415522
22342,NaN,11.788622,-9.930911,4.335632,-9.250306,8.349968,0.240435,-1.515810,2.173340,3.538188,0.417029,-0.467076,-0.654550,0.423664,-107.250770,-8.636589,102.610930
22343,NaN,10.142376,-12.445074,5.571448,-10.652582,6.597728,1.665405,-1.707161,1.927446,3.118254,0.412626,-0.484835,-0.646716,0.420039,-108.004582,-7.261945,101.004195
22344,NaN,9.477466,-14.964706,5.221340,-10.943564,6.081394,3.761347,-1.391861,1.235622,2.689894,0.407527,-0.498927,-0.640478,0.418068,-108.665657,-6.018686,99.841793
22345,NaN,10.286325,-14.600258,3.403842,-9.307060,7.604980,3.828750,-0.643027,0.600281,2.301015,0.402977,-0.508826,-0.634793,0.419217,-108.960013,-4.875839,99.089833
22346,NaN,11.266757,-12.426441,1.404919,-6.913443,9.420443,2.302621,-0.167275,0.028055,1.935432,0.398549,-0.515334,-0.630127,0.422527,-109.025364,-3.829512,98.714831
22347,NaN,12.113758,-10.661558,-0.174266,-4.999882,10.875059,1.011831,0.018721,-0.320613,1.697841,0.393963,-0.519948,-0.626311,0.426828,-109.003292,-2.844774,98.573491
22348,NaN,12.362839,-10.194881,-1.627732,-3.528942,11.529920,0.865664,-0.030948,-0.326035,1.519269,0.389592,-0.524048,-0.623043,0.430591,-109.014600,-1.957917,98.468658
22349,NaN,10.666261,-10.672756,-2.518872,-2.594621,10.091668,1.387498,-0.092710,-0.068477,1.373499,0.386153,-0.528342,-0.619746,0.433192,-109.058448,-1.196800,98.251194
22350,NaN,7.515342,-11.701052,-2.571976,-2.412958,7.065266,2.198441,-0.086844,0.145580,1.272030,0.383596,-0.532749,-0.616273,0.435018,-109.101422,-0.532277,97.936254
22351,NaN,5.010893,-13.021033,-2.911853,-2.171075,4.705778,3.464184,-0.068999,0.154385,1.150038,0.381367,-0.536743,-0.613038,0.436635,-109.136380,0.065151,97.639107
22352,NaN,4.725728,-13.763278,-3.761756,-1.579151,4.641735,4.395406,-0.022160,0.147492,1.038026,0.379473,-0.540275,-0.610003,0.438177,-109.148633,0.602309,97.366402
22353,NaN,5.971810,-14.481214,-4.698940,-1.087030,6.102889,5.320711,-0.077660,0.407554,0.969501,0.378366,-0.544254,-0.606759,0.438715,-109.195475,1.053806,96.965656
22354,NaN,7.369034,-15.455046,-5.229672,-1.034186,7.645762,6.342246,-0.016133,0.949728,0.936218,0.379127,-0.549189,-0.602428,0.437875,-109.217331,1.384366,96.277327
22355,NaN,6.990411,-15.030201,-5.138659,-0.811469,7.346024,5.889324,0.378642,1.570703,0.793977,0.383136,-0.554267,-0.596404,0.436231,-109.022214,1.522480,95.280003
22356,NaN,4.554657,-13.729339,-4.506007,-0.578761,4.893301,4.514270,0.591897,1.976713,0.493637,0.389558,-0.558878,-0.589917,0.433471,-108.710928,1.426879,94.118612
22357,NaN,1.844103,-12.442702,-4.547130,0.223447,2.157556,3.385465,0.688918,1.893818,0.097059,0.396834,-0.561885,-0.584423,0.430417,-108.336080,1.137546,93.074155
22358,NaN,1.426001,-10.850441,-5.625998,1.890601,1.714568,2.224810,0.717978,1.525127,-0.210906,0.403733,-0.563098,-0.580415,0.427829,-107.935718,0.753674,92.283456
22359,NaN,4.940524,-12.471250,-26.026815,20.837878,5.998553,9.862755,1.391219,0.131624,-0.307026,0.408674,-0.559651,-0.578013,0.430903,-107.135376,0.565743,92.266908
22360,NaN,7.019591,-5.200198,-18.793423,16.050821,7.885594,0.660644,-0.135041,-1.655934,-1.300905,0.406277,-0.552561,-0.585288,0.432497,-107.203801,0.136596,93.395720
22361,NaN,15.776604,-14.098149,-2.660971,-2.842622,15.596361,4.448559,-4.599291,0.840074,-0.883162,0.397815,-0.560968,-0.595797,0.414831,-109.836026,-0.493923,93.102273
22362,NaN,-10.317301,-25.281153,-4.350256,-3.992899,-11.056883,15.212744,-0.354135,1.821898,-2.001689,0.406350,-0.559429,-0.598459,0.404679,-110.024491,-1.924922,92.513870
22363,NaN,-17.485432,-15.398571,-0.993349,-3.459868,-18.246182,4.291905,2.872986,2.026641,-1.264693,0.422931,-0.553799,-0.591957,0.404996,-108.339215,-2.988841,91.656665
22364,NaN,-7.576464,-11.391623,-0.255754,-3.118287,-8.306151,0.604501,0.060138,0.991108,-1.419091,0.428876,-0.551451,-0.593641,0.399447,-108.285697,-3.936190,91.374722
22365,NaN,-4.081638,-13.237022,-0.301387,-3.722999,-5.129316,2.507828,0.275568,0.266657,-1.495413,0.433391,-0.546928,-0.596616,0.396347,-108.134714,-4.794944,91.499915
22366,NaN,-6.595597,-12.186929,3.601346,-6.993012,-7.719592,0.010500,0.253658,0.200350,-1.553537,0.437734,-0.542117,-0.599903,0.393210,-108.002842,-5.673796,91.669783
22367,NaN,-11.236154,-14.527413,-0.219124,-3.816431,-12.783436,2.810865,0.345647,-0.755063,-1.682203,0.439684,-0.534797,-0.605399,0.392634,-107.877265,-6.454195,92.384430
22368,NaN,-8.030106,-14.691792,-8.406703,4.068859,-9.736609,5.667439,0.885504,-1.872945,-1.972428,0.440195,-0.523142,-0.612985,0.395979,-107.531678,-7.201525,93.762395
22369,NaN,-1.246651,-10.446075,-8.942256,5.643522,-2.446931,2.548482,1.158584,-2.311804,-1.879007,0.439790,-0.510183,-0.620603,0.401435,-107.074121,-7.831399,95.363148
22370,NaN,3.602750,-9.992457,-4.807640,1.408342,2.164870,1.557019,-0.414629,-1.507900,-1.689852,0.437401,-0.502784,-0.629015,0.400285,-107.469591,-8.496522,96.489284
22371,NaN,4.599202,-15.173493,-3.521069,-1.535950,1.979573,6.234104,-0.991073,-0.830249,-1.656552,0.435573,-0.498048,-0.636933,0.395653,-108.150930,-9.250577,97.243662
22372,NaN,3.241721,-17.351453,-2.508896,-3.037442,-0.099486,7.755290,0.119082,-0.446399,-1.642464,0.437666,-0.491650,-0.641731,0.393585,-108.172306,-10.062069,97.789963
22373,NaN,1.268006,-13.596102,-3.036764,-1.094337,-1.445261,4.057840,1.147912,-0.335984,-1.676252,0.442669,-0.483068,-0.644283,0.394449,-107.600419,-10.912951,98.278389
22374,NaN,1.078348,-8.750972,-2.841701,0.214224,-0.732317,-0.580515,1.048066,-0.313220,-1.758328,0.447620,-0.474434,-0.647117,0.394701,-107.093139,-11.818133,98.761790
22375,NaN,4.813867,-6.571552,-1.529646,-0.970678,3.157538,-2.211077,0.375119,-0.384869,-1.843494,0.450866,-0.466843,-0.651569,0.392727,-106.988883,-12.759361,99.296504
22376,NaN,5.790158,-6.355944,-0.149438,-2.396792,3.893441,-2.529773,0.091986,-0.364046,-1.780655,0.453356,-0.460095,-0.656335,0.389878,-107.051645,-13.670942,99.810462
22377,NaN,6.427433,-6.095591,-1.182184,-1.466422,4.548373,-2.261120,0.420814,-0.375887,-1.543908,0.456071,-0.453320,-0.659886,0.388654,-106.924131,-14.450296,100.291336
22378,NaN,2.923627,-5.602218,-1.568849,-0.369171,1.296206,-3.442698,0.375899,-0.490964,-1.390969,0.457976,-0.446900,-0.663405,0.387856,-106.839493,-15.128312,100.811459
22379,NaN,0.591443,-8.497533,-4.710183,2.366485,-1.520922,-0.494430,-0.099804,-0.700422,-1.100571,0.457541,-0.442103,-0.667638,0.386603,-107.050002,-15.611092,101.402275
22380,NaN,-0.418728,-12.967019,-4.627342,1.401856,-3.957750,3.306038,-0.467350,-0.571294,-1.041272,0.456587,-0.438577,-0.672133,0.383948,-107.455339,-16.080840,101.913504
22381,NaN,0.444885,-16.309422,-5.831579,1.564596,-4.206642,6.922210,-0.083731,-0.424680,-1.071058,0.457009,-0.434341,-0.675591,0.382188,-107.622910,-16.588949,102.350049
22382,NaN,3.027690,-13.650839,-4.638659,0.612352,-1.199099,4.857455,0.855811,-0.154064,-1.333727,0.460864,-0.427566,-0.677180,0.382386,-107.226558,-17.288676,102.679649
22383,NaN,3.763472,-8.587550,-2.809806,-0.003840,0.861291,-0.062779,1.164259,-0.002923,-1.466063,0.466110,-0.419891,-0.678055,0.382981,-106.635479,-18.087872,102.940172
22384,NaN,3.571791,-6.126437,-1.813805,-0.304724,1.325394,-2.620311,0.766150,-0.061573,-1.515845,0.470378,-0.412827,-0.679887,0.382193,-106.288898,-18.907882,103.237800
22385,NaN,4.720603,-5.993624,-0.381108,-1.853010,2.145562,-2.719404,0.400010,0.031917,-1.489034,0.474127,-0.406869,-0.682092,0.380016,-106.134593,-19.728443,103.473698
22386,NaN,4.166948,-7.290703,-0.424061,-1.913794,1.043277,-1.692008,0.188956,0.094703,-1.388779,0.477443,-0.401849,-0.684315,0.377198,-106.086927,-20.505072,103.655799
22387,NaN,3.948164,-8.317513,-1.656628,-0.848725,0.488875,-0.509312,0.149116,0.227926,-1.316596,0.480980,-0.397404,-0.686110,0.374140,-106.030697,-21.262509,103.746888
22388,NaN,3.196462,-8.709429,-2.091676,-0.303938,-0.413860,-0.316287,0.044628,0.321195,-1.298597,0.484571,-0.393428,-0.687818,0.370556,-106.015322,-22.025555,103.780038
22389,NaN,3.671118,-9.259457,-2.366787,-0.217519,-0.308465,0.418261,-0.088843,0.315427,-1.301947,0.487868,-0.389736,-0.689755,0.366509,-106.077105,-22.788815,103.817234
22390,NaN,4.134252,-9.397805,-2.227156,-0.457641,-0.107923,0.682466,-0.145587,0.341377,-1.298937,0.491112,-0.386222,-0.691704,0.362196,-106.167512,-23.555205,103.840164
22391,NaN,3.940852,-9.583105,-2.447918,-0.221028,-0.477453,0.821216,-0.222783,0.342860,-1.325299,0.494242,-0.382793,-0.693800,0.357543,-106.303167,-24.335575,103.868079
22392,NaN,3.867380,-10.464588,-2.897117,0.074830,-1.043682,1.666002,-0.367172,0.368743,-1.363480,0.497224,-0.379614,-0.696136,0.352216,-106.520895,-25.141751,103.890499
22393,NaN,2.619601,-11.329854,-3.221836,0.502811,-2.678829,1.942153,-0.391215,0.487071,-1.430958,0.500667,-0.376448,-0.698301,0.346404,-106.726838,-26.003512,103.856030
22394,NaN,2.338481,-11.355283,-3.737620,1.060414,-3.068281,1.927781,-0.300781,0.585234,-1.510948,0.504726,-0.372921,-0.700177,0.340490,-106.863001,-26.926265,103.779417
22395,NaN,2.747484,-12.235001,-3.580255,0.677367,-3.371440,2.766342,-0.400319,0.733706,-1.657559,0.509333,-0.369359,-0.702060,0.333567,-107.024856,-27.953312,103.640086
22396,NaN,2.413538,-13.290052,-3.625341,0.612734,-4.432678,3.437339,-0.417981,0.875070,-1.795369,0.514582,-0.365557,-0.703808,0.325926,-107.167472,-29.080993,103.441436
22397,NaN,2.341299,-13.947759,-3.861131,0.751677,-5.099387,3.911469,-0.433713,1.040374,-1.979021,0.520625,-0.361380,-0.705402,0.317431,-107.280307,-30.336242,103.174350
22398,NaN,2.472030,-14.768623,-3.983919,0.710391,-5.748970,4.558375,-0.545581,1.213334,-2.169533,0.527302,-0.357040,-0.706974,0.307673,-107.416010,-31.727100,102.835150
22399,NaN,2.239424,-16.651043,-3.578419,0.010066,-7.393783,5.691878,-0.826637,1.384070,-2.346465,0.534257,-0.353021,-0.708706,0.296111,-107.663867,-33.243218,102.420895
22400,NaN,1.238826,-19.470181,-3.716947,-0.265595,-10.282020,7.176098,-1.105895,1.612006,-2.529789,0.541676,-0.349349,-0.710414,0.282584,-108.002551,-34.902937,101.898039
22401,NaN,-1.813872,-21.969612,-4.092867,0.000730,-14.726654,7.092553,-1.169443,1.823858,-2.695600,0.549819,-0.345473,-0.711721,0.267956,-108.301137,-36.690525,101.268694
22402,NaN,-4.517368,-22.275322,-5.195445,1.255244,-17.557354,5.474647,-1.008367,1.931881,-2.727755,0.558505,-0.341071,-0.712368,0.253523,-108.448945,-38.519697,100.567456
22403,NaN,-4.679307,-18.774869,-6.195670,2.803882,-15.916096,2.498252,-0.759707,1.887242,-2.571530,0.567092,-0.336395,-0.712342,0.240446,-108.422119,-40.252436,99.844598
22404,NaN,-2.819885,-13.642133,-7.037715,4.324272,-11.524295,-0.217726,-0.827812,1.670462,-2.230270,0.574253,-0.332769,-0.712281,0.228372,-108.458260,-41.764455,99.179958
22405,NaN,-2.419983,-10.349368,-4.936236,2.776874,-9.149568,-3.038093,-2.001077,1.510340,-1.922113,0.578397,-0.333375,-0.713331,0.213254,-109.178887,-43.077731,98.553264
22406,NaN,0.592988,-10.070435,3.621272,-5.988405,-6.182766,-3.426477,-2.873029,2.939910,-2.014492,0.586073,-0.337544,-0.711069,0.192259,-109.665708,-44.723461,96.884289
22407,NaN,4.074599,-8.601484,-4.162817,1.556368,-3.742998,-0.248289,0.914381,2.070293,-1.728187,0.596550,-0.330704,-0.706960,0.187005,-108.329856,-46.036885,95.748089
22408,NaN,5.945092,2.239325,-3.690455,3.758372,5.195506,-6.226863,2.994183,2.863587,-1.469983,0.612836,-0.319173,-0.697886,0.188456,-105.206463,-47.313846,93.816041
22409,NaN,-0.804598,13.165514,-0.811839,3.471884,8.986151,-18.858064,2.575382,3.938247,-1.408002,0.631799,-0.310014,-0.685424,0.186858,-101.501293,-48.611419,90.818402
22410,NaN,-20.949505,22.657627,9.764383,-5.663953,4.604781,-41.342716,0.769424,4.744793,-1.330694,0.650282,-0.307357,-0.671575,0.177911,-98.105516,-49.823584,86.919596
22411,NaN,-30.279113,18.099625,2.959449,-0.881022,-5.672961,-44.743994,-0.438843,1.393629,1.283492,0.653087,-0.314345,-0.665426,0.178527,-97.315278,-49.193866,85.552919
22412,NaN,-17.760635,6.669277,-1.756574,2.188300,-7.233732,-27.301287,-3.167601,-0.948004,2.711873,0.642370,-0.332788,-0.666943,0.178325,-99.480739,-47.574912,86.024325
22413,NaN,-7.879263,-2.040729,-4.967237,4.000698,-7.819250,-13.521702,-3.360133,-1.103437,3.511608,0.629740,-0.354229,-0.667428,0.180250,-101.672526,-45.472342,86.394382
22414,NaN,-5.680483,-4.241894,-3.225869,1.769610,-7.565688,-10.349795,-1.704333,-0.120009,3.637633,0.622901,-0.371550,-0.662771,0.186225,-102.291142,-43.416557,85.886095
22415,NaN,-5.375766,-2.044468,0.161671,-1.013637,-5.229712,-11.986049,-0.737747,0.530690,3.746042,0.619650,-0.386718,-0.654716,0.194499,-102.030172,-41.372831,84.875063
22416,NaN,-4.017248,-1.201652,0.233036,-0.846987,-3.729162,-11.547621,-0.986925,0.464748,4.128010,0.615093,-0.403648,-0.646111,0.203148,-101.959282,-39.111860,83.893252
22417,NaN,-2.012992,-2.596810,-0.616497,-0.311442,-3.211976,-8.941078,-1.480754,0.384499,4.552173,0.608508,-0.423214,-0.637049,0.211605,-102.216222,-36.597590,82.932292
22418,NaN,0.757565,-4.389668,-1.074005,-0.154745,-1.981839,-5.684670,-1.632809,0.434264,5.089608,0.600820,-0.444693,-0.626462,0.220927,-102.539196,-33.799782,81.873099
22419,NaN,3.203917,-5.660240,-1.917846,0.555735,-0.557086,-3.078247,-1.413763,0.482885,5.462537,0.592874,-0.466436,-0.614164,0.231821,-102.745940,-30.796081,80.746876
22420,NaN,4.600470,-5.789877,-2.554124,1.351810,0.748747,-2.143851,-1.272199,0.489957,5.372992,0.584945,-0.487087,-0.601424,0.242643,-102.936168,-27.854131,79.651160
22421,NaN,5.619331,-5.679270,-2.823004,1.871780,1.978950,-1.789793,-1.381887,0.461462,5.487112,0.576032,-0.508021,-0.588130,0.253388,-103.248114,-24.841540,78.572526
22422,NaN,7.193523,-7.071576,-4.157006,3.064527,2.930891,0.238738,-1.747579,0.483492,5.666233,0.565571,-0.530095,-0.574302,0.263261,-103.805670,-21.747032,77.455339
22423,NaN,9.851910,-9.010399,-6.594172,5.368378,4.581127,3.297870,-1.894443,0.406682,5.737758,0.553862,-0.552246,-0.560158,0.272919,-104.513229,-18.606364,76.361182
22424,NaN,11.310751,-11.175069,-7.101412,5.581911,5.876874,5.598590,-2.413082,0.694531,5.275508,0.541700,-0.574406,-0.546723,0.278769,-105.533336,-15.787293,75.141324
22425,NaN,9.744949,-13.986867,-4.652209,2.082127,5.386279,6.885793,-3.075019,1.105983,4.977879,0.528668,-0.597652,-0.533460,0.280611,-106.932740,-13.216557,73.692485
22426,NaN,8.514842,-17.446774,-3.554731,-0.451564,4.999992,9.272615,-3.024362,1.140008,4.802375,0.515705,-0.619794,-0.520116,0.281749,-108.354659,-10.789410,72.205946
22427,NaN,9.253124,-18.708276,-3.196445,-0.940506,6.632033,10.209647,-1.975006,1.109313,4.640695,0.505715,-0.638332,-0.505467,0.285108,-109.239813,-8.468064,70.729408
22428,NaN,9.031638,-17.409730,-2.406904,-1.045140,7.562608,8.411382,-1.591489,1.137501,4.457599,0.497000,-0.655046,-0.490481,0.288677,-109.959738,-6.277529,69.248690
22429,NaN,9.442187,-17.420044,-2.762219,-0.380021,8.554169,8.266835,-1.803091,1.096690,4.223471,0.487508,-0.671301,-0.476373,0.291135,-110.861938,-4.220345,67.812246
22430,NaN,11.542306,-17.849283,-4.282092,1.790384,10.621952,9.004232,-1.721566,1.336681,3.993660,0.478969,-0.686773,-0.462089,0.292243,-111.757668,-2.363736,66.266773
22431,NaN,12.790743,-17.621427,-5.561826,3.755725,11.782902,8.950906,-1.520562,1.885564,3.678181,0.472577,-0.701514,-0.447038,0.291044,-112.579641,-0.812246,64.472521
22432,NaN,12.730621,-16.657422,-5.440898,4.330510,11.998296,7.691699,-1.416609,2.510578,3.363175,0.468205,-0.715851,-0.431256,0.286983,-113.381981,0.403444,62.397898
22433,NaN,12.072440,-15.646174,-4.173101,3.743240,11.990393,6.003722,-1.343930,3.101255,3.098175,0.465483,-0.729948,-0.414712,0.280207,-114.187729,1.317355,60.057635
22434,NaN,11.509275,-14.288475,-3.332714,3.698551,11.681959,4.243059,-0.969445,3.637754,2.755546,0.465498,-0.742807,-0.397429,0.271293,-114.812697,1.892957,57.507187
22435,NaN,10.289017,-12.703982,-2.059058,3.045938,10.854933,2.202735,-0.739842,4.181126,2.299424,0.467780,-0.754558,-0.380039,0.259604,-115.331536,2.075878,54.779087
22436,NaN,9.007772,-12.223378,-1.094913,2.160913,10.102242,1.368192,-0.706686,4.535636,1.764662,0.471299,-0.765214,-0.363571,0.245235,-115.830198,1.868948,51.998697
22437,NaN,6.500200,-11.471477,0.616410,-0.017795,8.780698,0.042161,-0.432824,4.658391,1.231750,0.476448,-0.773963,-0.348303,0.229488,-116.154056,1.337038,49.290919
22438,NaN,2.455661,-10.147037,2.950772,-3.580900,6.685687,-2.055454,-0.148481,4.301718,0.635418,0.482523,-0.780168,-0.335679,0.214078,-116.276730,0.578027,46.920371
22439,NaN,-1.314670,-8.974469,4.385768,-6.593806,4.549701,-3.703311,0.033417,3.336186,-0.017845,0.488196,-0.783518,-0.327616,0.201077,-116.261530,-0.274260,45.212525
22440,NaN,-4.368692,-8.392235,5.658418,-9.333013,3.110145,-4.837354,0.103979,1.854062,-0.660404,0.492283,-0.784000,-0.325552,0.192398,-116.190653,-1.079897,44.428520
22441,NaN,2.933653,-10.298987,-8.258446,3.933047,-0.211205,3.124203,0.809694,-0.510102,-0.983513,0.495559,-0.779892,-0.329873,0.193324,-115.736618,-1.455377,44.939898
22442,NaN,16.097646,-4.680971,-7.698125,14.635483,7.916148,-1.848149,1.150574,-2.219167,-1.413525,0.497702,-0.772476,-0.339732,0.200388,-115.115758,-1.637691,46.438309
22443,NaN,37.600509,-14.253855,-6.201466,24.729300,27.613667,6.956714,-2.345831,-1.973393,-1.954775,0.487163,-0.772884,-0.354487,0.199154,-116.508777,-2.151352,47.946386
22444,NaN,2.510279,-21.739841,-2.718434,-4.514821,5.891756,10.951865,-0.056762,-0.435204,-3.556153,0.489636,-0.766155,-0.369283,0.192078,-116.598898,-3.859271,49.083565
22445,NaN,-21.079486,-16.317094,-14.198285,-10.281952,-21.018272,9.279568,3.686640,-0.767558,-3.212768,0.505278,-0.750217,-0.379823,0.193914,-114.581061,-5.329172,50.280771
22446,NaN,-7.029854,-6.668546,-8.833723,-1.002191,-9.505278,-0.836866,0.369974,-0.042822,-1.685097,0.508200,-0.746006,-0.385875,0.190549,-114.409878,-6.194394,50.707433
22447,NaN,-6.656126,-16.158925,-3.564876,-8.269974,-4.242241,5.408735,-3.869366,0.001859,-2.125457,0.495667,-0.751553,-0.397394,0.177653,-116.688498,-7.291565,51.237188
22448,NaN,-2.291889,-20.339073,-1.391229,-9.187445,1.203246,8.490321,-0.314395,0.370985,-1.551220,0.496584,-0.749549,-0.402566,0.171820,-116.895481,-8.177479,51.451761
22449,NaN,-2.985315,-14.791768,-1.331446,-7.350648,-0.565021,3.420696,1.487651,0.357244,-1.371246,0.504026,-0.743358,-0.405519,0.170092,-116.067320,-8.969299,51.622616
22450,NaN,-5.139385,-15.241273,-2.085450,-8.401551,-2.874256,3.759555,0.085097,0.096967,-1.597725,0.505881,-0.739957,-0.411124,0.165908,-116.075109,-9.812754,51.981622
22451,NaN,-2.957428,-19.112137,-3.913227,-7.708518,-1.911221,8.249815,-0.257329,-0.371920,-1.397385,0.505307,-0.737403,-0.417434,0.163253,-116.318322,-10.433756,52.536725
22452,NaN,-0.881797,-19.821907,-3.835195,-6.943723,-0.369202,9.161932,0.599230,-0.538521,-1.355609,0.507482,-0.732591,-0.423287,0.163095,-116.090541,-10.991141,53.169334
22453,NaN,-1.457494,-18.363453,-5.043234,-5.820408,-2.005202,8.266890,0.864013,-0.719005,-1.250136,0.510126,-0.727136,-0.428965,0.164421,-115.729090,-11.451516,53.867980
22454,NaN,0.502509,-17.061722,-4.094995,-4.737018,-0.252908,7.087536,0.512463,-0.891186,-1.211247,0.511056,-0.722470,-0.435204,0.165702,-115.590691,-11.852730,54.646603
22455,NaN,4.333724,-16.198213,-1.219824,-4.200418,4.264594,5.897772,0.381369,-0.836149,-1.071522,0.511489,-0.718448,-0.440875,0.166856,-115.518244,-12.195642,55.361042
22456,NaN,6.160876,-13.758995,-1.530521,-1.904467,5.202060,4.291170,0.743609,-0.535273,-0.875037,0.513698,-0.714151,-0.444756,0.168214,-115.198286,-12.514122,55.866427
22457,NaN,5.036434,-9.795936,-2.085811,-0.306631,3.555545,0.814630,0.963565,-0.265397,-0.643053,0.517084,-0.710002,-0.446906,0.169696,-114.709029,-12.779976,56.168696
22458,NaN,5.193929,-8.511041,-0.937983,-0.444705,4.206841,-0.735294,-0.106229,0.133122,-0.441413,0.517375,-0.709396,-0.448215,0.167880,-114.776670,-13.038387,56.208133
22459,NaN,4.271533,-12.235458,-2.976602,-1.298546,2.496034,3.183289,-0.840630,0.581625,-0.226157,0.515887,-0.711532,-0.448204,0.163391,-115.197202,-13.292894,55.955732
22460,NaN,2.493824,-13.460424,-5.104236,-1.439212,-0.121657,4.725842,-0.308018,0.933085,-0.140281,0.516988,-0.712761,-0.446540,0.159054,-115.264692,-13.590272,55.495605
22461,NaN,1.860391,-12.152116,-5.392823,-1.025630,-0.935664,3.539827,-0.221555,1.103070,-0.122348,0.518759,-0.713915,-0.444284,0.154354,-115.255580,-13.919646,54.939471
22462,NaN,2.576937,-11.453666,-4.993572,-0.618927,-0.223645,2.928165,-0.338350,1.208530,-0.080496,0.520286,-0.715528,-0.441687,0.149113,-115.295684,-14.253784,54.316100
22463,NaN,2.380760,-10.742746,-4.278870,-0.914159,-0.035963,1.957873,-0.240743,1.282016,-0.008872,0.522260,-0.717065,-0.438544,0.144016,-115.260024,-14.568166,53.634059
22464,NaN,5.526249,-8.983181,-4.921167,2.165392,1.822509,1.476399,0.202587,1.325354,0.204543,0.525732,-0.717918,-0.434192,0.140275,-114.949299,-14.781009,52.873735
22465,NaN,3.407923,-7.000162,-2.380373,0.257869,1.556732,-1.825757,0.611513,2.340019,0.246198,0.532805,-0.718423,-0.426687,0.133886,-114.253218,-15.207131,51.552469
22466,NaN,-6.780659,-9.578610,-4.832868,-5.508772,-7.594920,-1.265596,-1.054252,0.360657,-0.292234,0.529973,-0.720832,-0.427473,0.129597,-114.823283,-15.442065,51.431599
22467,NaN,4.990235,-7.337070,-4.670865,2.511292,1.213291,-0.180835,0.571330,0.808287,0.457303,0.533465,-0.720800,-0.423296,0.129164,-114.346286,-15.392190,50.883196
22468,NaN,5.932341,-5.037491,-4.252214,3.952212,1.975582,-2.123265,0.198976,0.560468,0.095561,0.535303,-0.720825,-0.421325,0.127856,-114.143736,-15.470944,50.558076
22469,NaN,3.977185,-6.344964,-3.800714,1.864938,0.871018,-1.671117,-0.285712,1.223090,0.250222,0.536688,-0.722874,-0.417315,0.123559,-114.109952,-15.622631,49.834977
22470,NaN,1.847594,-6.650814,-4.781920,1.017091,-1.379066,-1.592153,0.242184,0.988384,0.202544,0.539493,-0.723243,-0.413774,0.121071,-113.811158,-15.743383,49.250489
22471,NaN,2.107205,-5.531699,-4.817857,1.733268,-1.342844,-2.502135,0.188603,0.786577,0.184240,0.541695,-0.723576,-0.410860,0.119158,-113.571375,-15.823946,48.779182
22472,NaN,2.587708,-6.101720,-4.225355,1.406539,-0.573990,-2.100814,-0.132774,0.628854,0.158338,0.542409,-0.724627,-0.408660,0.117074,-113.541876,-15.881617,48.400151
22473,NaN,2.950944,-6.788437,-4.272888,1.346624,-0.313062,-1.378408,0.017528,0.556464,0.108397,0.543551,-0.725115,-0.406739,0.115432,-113.438555,-15.947906,48.072043
22474,NaN,3.228658,-5.903415,-3.836047,1.673416,0.090952,-2.250869,0.099208,0.620731,0.039989,0.545147,-0.725276,-0.404846,0.113528,-113.283966,-16.064739,47.724938
22475,NaN,3.353023,-6.114320,-3.067385,1.188700,0.701874,-2.320637,-0.145900,0.763878,-0.022009,0.546179,-0.726049,-0.402917,0.110445,-113.249850,-16.245477,47.313258
22476,NaN,2.990327,-7.375793,-3.167527,0.413743,0.445052,-1.268202,-0.173471,0.816062,-0.098764,0.547244,-0.726763,-0.401139,0.106899,-113.228193,-16.478807,46.890783
22477,NaN,2.363619,-7.702270,-3.360071,-0.053389,-0.139891,-1.084621,-0.027955,0.791564,-0.194143,0.548836,-0.726859,-0.399684,0.103477,-113.130210,-16.755946,46.503124
22478,NaN,2.150846,-7.830598,-3.622835,-0.124283,-0.504510,-0.935798,-0.104314,0.731309,-0.275071,0.550057,-0.726964,-0.398727,0.099892,-113.090185,-17.062213,46.167016
22479,NaN,2.316348,-8.679674,-3.674593,-0.421941,-0.399206,-0.124182,-0.220206,0.722655,-0.347990,0.550873,-0.727222,-0.398105,0.095911,-113.119896,-17.404404,45.851944
22480,NaN,2.358328,-9.403943,-3.402917,-0.943457,-0.155912,0.417704,-0.229438,0.735131,-0.415936,0.551697,-0.727367,-0.397698,0.091671,-113.156807,-17.785907,45.545902
22481,NaN,2.363317,-9.738892,-3.243948,-1.242707,-0.055865,0.647074,-0.129895,0.735042,-0.475024,0.552906,-0.727103,-0.397448,0.087472,-113.137604,-18.197937,45.252966
22482,NaN,2.098926,-9.661309,-3.165897,-1.476995,-0.236398,0.460159,-0.043356,0.726764,-0.547393,0.554427,-0.726441,-0.397443,0.083266,-113.074483,-18.646672,44.981060
22483,NaN,1.612146,-9.523231,-3.275653,-1.727936,-0.712565,0.213614,-0.037409,0.695382,-0.640299,0.555942,-0.725546,-0.397846,0.078935,-113.016906,-19.136304,44.747048
22484,NaN,1.690682,-9.539916,-3.339394,-1.709283,-0.769641,0.262292,-0.053207,0.657330,-0.748335,0.557346,-0.724451,-0.398749,0.074400,-112.982936,-19.674994,44.559177
22485,NaN,2.001605,-9.621965,-2.991170,-1.804656,-0.367035,0.293909,-0.095321,0.706559,-0.867581,0.558731,-0.723232,-0.399945,0.069278,-112.969839,-20.286518,44.370729
22486,NaN,2.426611,-10.119382,-2.528605,-2.107002,0.212813,0.684844,-0.186628,0.867653,-0.969945,0.560116,-0.722094,-0.401084,0.063093,-112.984800,-20.989080,44.115567
22487,NaN,2.139124,-10.807326,-1.357456,-3.383022,0.872966,0.723365,-0.340618,1.112920,-1.076431,0.561450,-0.721212,-0.401941,0.055423,-113.041597,-21.801678,43.745776
22488,NaN,0.871387,-12.331649,-1.286689,-5.184192,0.114593,1.483026,-0.472175,1.315175,-1.160009,0.562690,-0.720537,-0.402546,0.046510,-113.133906,-22.705428,43.280522
22489,NaN,-0.667529,-13.948219,-2.411928,-6.642854,-1.736504,2.583630,-0.371755,1.377857,-1.304888,0.564413,-0.719237,-0.403428,0.037176,-113.158446,-23.698467,42.811896
22490,NaN,-1.370688,-14.452250,-2.754901,-7.397875,-2.520955,2.727100,-0.309663,1.413230,-1.496104,0.566399,-0.717313,-0.404857,0.027282,-113.151177,-24.801869,42.367179
22491,NaN,-2.459298,-15.054032,-2.664705,-8.719745,-3.191937,2.578521,-0.556109,1.429312,-1.669836,0.567503,-0.715653,-0.406833,0.016358,-113.287900,-25.998347,41.952823
22492,NaN,-3.651534,-15.991848,-3.823559,-9.741996,-4.899373,3.023575,-0.623140,1.305950,-1.914314,0.568048,-0.713580,-0.410001,0.005021,-113.517896,-27.298980,41.674106
22493,NaN,-3.387368,-15.773300,-5.117641,-9.112376,-5.915227,3.165021,-0.434924,1.194374,-2.217400,0.568969,-0.710241,-0.414477,-0.006362,-113.700137,-28.730240,41.541136
22494,NaN,-3.060913,-15.062116,-5.720466,-8.494429,-6.382665,2.679269,-0.505053,1.053856,-2.542541,0.569225,-0.706304,-0.420453,-0.018346,-114.009475,-30.303579,41.585744
22495,NaN,-2.006982,-15.030412,-7.144149,-7.489378,-7.107122,3.391746,-0.844807,0.844509,-2.806934,0.567709,-0.702653,-0.427812,-0.031013,-114.622961,-31.960018,41.844978
22496,NaN,-0.333502,-15.519154,-9.383615,-6.174219,-8.172572,5.156219,-1.065563,0.957604,-2.911217,0.565490,-0.699209,-0.435102,-0.044878,-115.366581,-33.700420,42.094113
22497,NaN,0.479765,-15.745161,-10.319285,-5.923654,-8.666322,5.820565,-1.282509,1.209977,-2.986494,0.562897,-0.695975,-0.441741,-0.060247,-116.179942,-35.532979,42.240143
22498,NaN,4.021835,-15.543469,-9.870165,-4.417867,-6.518481,7.308876,-1.596190,1.548997,-2.851986,0.559815,-0.693588,-0.446756,-0.077143,-117.048429,-37.388210,42.165929
22499,NaN,6.351507,-15.339339,-11.063411,-3.049589,-6.508882,8.797197,-1.388961,2.332824,-2.494378,0.559164,-0.690909,-0.448237,-0.095207,-117.418038,-39.259555,41.485308
22500,NaN,6.859401,-14.304892,-11.205781,-2.541873,-6.680195,8.246157,-1.172632,3.292753,-2.043678,0.561407,-0.687900,-0.445445,-0.114866,-117.125235,-41.161636,39.994357
22501,NaN,6.927262,-13.305461,-10.728597,-2.469100,-6.606022,7.226839,-1.200703,4.008214,-1.783840,0.565043,-0.684848,-0.439498,-0.136201,-116.371570,-43.096155,37.850700
22502,NaN,3.263393,-10.677969,-11.760456,-2.760438,-9.496670,3.037704,-0.502119,4.284842,-1.453610,0.571606,-0.679980,-0.431920,-0.156010,-114.868655,-44.905832,35.276469
22503,NaN,-2.995432,-7.216714,-5.648510,-5.797575,-6.536334,-5.736912,-0.732654,5.098858,-0.344713,0.579669,-0.677167,-0.417780,-0.175753,-112.640298,-46.250989,31.572696
22504,NaN,-5.927934,-7.701019,0.543950,-9.592385,-1.580608,-9.351470,-1.835817,5.160704,0.510768,0.584467,-0.678766,-0.399330,-0.195476,-110.664900,-47.067350,27.413740
22505,NaN,-3.253400,-8.343393,-0.537028,-8.302562,-1.439328,-6.734219,-0.797291,4.307387,1.062466,0.591253,-0.678884,-0.382229,-0.208418,-108.393125,-47.304720,23.696543
22506,NaN,-4.083770,-5.583542,-1.185808,-6.638174,-2.112826,-8.960218,-0.206923,4.256068,1.307334,0.599905,-0.677393,-0.364907,-0.219307,-105.746612,-47.301546,19.937656
22507,NaN,-7.948434,-3.539857,0.035063,-7.803369,-1.583333,-13.319678,-0.582005,3.992577,1.490554,0.606716,-0.677378,-0.347129,-0.229251,-103.463724,-47.037193,16.371277
22508,NaN,-8.926802,-2.712896,1.618254,-8.080906,0.107364,-14.746484,-1.122418,3.341276,1.739879,0.610598,-0.679844,-0.329755,-0.237157,-101.888364,-46.481800,13.329033
22509,NaN,-7.582160,-3.062758,2.598647,-7.555547,1.604750,-13.548165,-1.665686,2.535019,2.018279,0.611410,-0.685197,-0.313089,-0.242195,-101.132770,-45.623041,10.953792
22510,NaN,-5.983675,-4.361750,2.530360,-7.386144,2.061133,-11.369319,-1.968977,1.768851,2.298519,0.610132,-0.692568,-0.297383,-0.244238,-101.010741,-44.522459,9.190937
22511,NaN,-4.623496,-5.009906,2.331517,-6.840304,2.262092,-9.790694,-1.879344,1.176507,2.672427,0.608549,-0.700792,-0.282157,-0.242787,-101.175979,-43.133437,7.873759
22512,NaN,-3.794861,-5.115236,2.468323,-6.245071,2.650079,-9.018268,-1.880616,0.746211,3.079504,0.606657,-0.709835,-0.266773,-0.238609,-101.555776,-41.485154,6.840249
22513,NaN,-3.964320,-5.952080,2.777554,-6.827143,3.199420,-8.396469,-2.069693,0.418205,3.443648,0.603858,-0.720119,-0.250711,-0.232224,-102.199570,-39.586745,6.004926
22514,NaN,-4.301632,-7.086031,3.733676,-7.640741,4.460647,-7.722492,-2.260955,0.113006,3.796227,0.600130,-0.731396,-0.234022,-0.223913,-103.065942,-37.475754,5.319300
22515,NaN,-3.582063,-8.641282,4.860754,-7.747838,6.098699,-6.085350,-2.424340,-0.162894,4.131839,0.595534,-0.743530,-0.216565,-0.213549,-104.117691,-35.134876,4.748099
22516,NaN,-2.178308,-10.287478,5.509919,-7.181070,7.391257,-3.920517,-2.330527,-0.372680,4.428314,0.591019,-0.755426,-0.198663,-0.201400,-105.160894,-32.623249,4.227499
22517,NaN,-1.121027,-11.189300,5.709217,-6.331388,8.089632,-2.498389,-2.021799,-0.506116,4.672731,0.587401,-0.766348,-0.180345,-0.187474,-106.054572,-29.947711,3.716795
22518,NaN,-0.450867,-11.680685,5.556936,-5.508449,8.319084,-1.569965,-1.804870,-0.543601,4.897911,0.584396,-0.776308,-0.161427,-0.172536,-106.818495,-27.165079,3.155557
22519,NaN,0.260177,-12.230611,5.025009,-4.603002,8.188904,-0.505351,-1.626400,-0.508526,5.105044,0.581879,-0.785372,-0.141565,-0.156741,-107.470898,-24.264339,2.511903
22520,NaN,0.976120,-12.767118,4.421424,-3.587844,7.970116,0.534580,-1.413568,-0.434802,5.288479,0.579958,-0.793268,-0.120908,-0.140556,-107.991923,-21.299363,1.770872
22521,NaN,1.473551,-12.936533,3.806917,-2.547447,7.592642,1.134312,-1.137505,-0.278470,5.449743,0.578899,-0.799771,-0.099178,-0.124123,-108.348429,-18.262328,0.900880
22522,NaN,1.937862,-12.952600,3.419810,-1.415724,7.336397,1.472074,-0.964199,0.004308,5.637024,0.578321,-0.805021,-0.075991,-0.108220,-108.591308,-15.196635,-0.167575
22523,NaN,1.854213,-13.423070,2.957032,-0.874000,7.112002,2.060088,-0.840253,0.269135,5.786343,0.577941,-0.809170,-0.051356,-0.092683,-108.779143,-12.084540,-1.407504
22524,NaN,1.004233,-13.952644,2.102449,-1.061773,6.537837,2.684313,-0.681658,0.454795,5.921658,0.577801,-0.812080,-0.025751,-0.077514,-108.918775,-8.954672,-2.770824
22525,NaN,0.333454,-14.493927,1.473717,-0.985876,6.181789,3.344228,-0.623002,0.551685,6.054498,0.577436,-0.814067,0.000761,-0.062145,-109.090477,-5.756546,-4.208020
22526,NaN,0.315446,-15.241825,1.393873,-0.144248,6.369195,4.104668,-0.679535,0.586114,6.149110,0.576315,-0.815421,0.027687,-0.046715,-109.370905,-2.537384,-5.687058
22527,NaN,1.139473,-16.406883,1.402435,1.662057,6.673388,5.189482,-0.790471,0.540121,6.201617,0.574199,-0.816302,0.054780,-0.030751,-109.799371,0.727964,-7.166845
22528,NaN,2.400512,-17.747277,1.684722,4.084051,7.178881,6.163679,-0.891181,0.519200,6.199714,0.571106,-0.816669,0.081680,-0.014783,-110.369477,3.965183,-8.665007
22529,NaN,4.043950,-19.037063,1.229607,6.922791,6.834398,7.084639,-0.898997,0.504755,6.115155,0.567423,-0.816286,0.108198,0.001153,-111.030186,7.161678,-10.178268
22530,NaN,5.341622,-20.017426,0.541077,9.394287,6.130476,7.610339,-0.815333,0.331150,5.874920,0.563649,-0.815051,0.133060,0.016937,-111.709815,10.230431,-11.595601
22531,NaN,6.057178,-20.504562,-0.011211,11.186490,5.430264,7.576549,-0.611202,-0.026646,5.480385,0.560517,-0.812782,0.155290,0.033044,-112.298673,13.167581,-12.779865
22532,NaN,8.155665,-21.251795,-0.313386,14.306893,4.716922,7.252073,-0.552941,-0.438860,4.983442,0.557627,-0.810118,0.174170,0.049240,-112.836967,15.903925,-13.669898
22533,NaN,10.811562,-21.765146,-0.558735,17.751281,3.798853,6.351687,-0.161908,-0.645503,4.415077,0.556330,-0.806322,0.190236,0.064433,-113.126392,18.395587,-14.344426
22534,NaN,11.869690,-19.626219,0.508522,18.643470,3.550293,3.074915,0.647693,-0.539686,3.791896,0.558146,-0.800573,0.204195,0.076556,-112.952404,20.519068,-14.942309
22535,NaN,12.353366,-15.602863,0.829405,17.835022,2.172203,-1.216073,1.327634,-0.335620,3.177119,0.562531,-0.793329,0.216506,0.085519,-112.392808,22.288649,-15.502265
22536,NaN,13.962809,-11.564256,-2.166649,17.332300,-2.493530,-4.642009,1.972630,-0.126381,2.540908,0.569351,-0.784857,0.227046,0.091048,-111.461678,23.669302,-16.017603
22537,NaN,16.314883,-6.570988,-3.967039,16.866939,-6.366466,-9.598883,2.510320,0.341652,1.931467,0.577893,-0.775527,0.236753,0.092444,-110.277071,24.646666,-16.646653
22538,NaN,17.621680,-3.977594,-3.955451,16.625977,-7.604695,-12.591500,0.991289,1.518482,1.336376,0.579303,-0.771716,0.246766,0.089265,-110.206983,25.067109,-17.835930
22539,NaN,14.637870,-8.021072,-4.564380,15.777968,-6.795043,-7.735189,-0.542037,1.993430,0.432138,0.574556,-0.773561,0.253980,0.083568,-111.051841,24.906644,-19.108304
22540,NaN,17.500828,-11.574649,-2.920218,20.125461,-5.607987,-6.307944,-0.441665,2.276011,-0.504191,0.570147,-0.776349,0.258367,0.073898,-111.807902,24.164343,-20.324427
22541,NaN,14.561268,-13.517366,-4.317942,18.141036,-5.730651,-2.640786,0.033989,1.934340,-1.742055,0.568404,-0.779121,0.257125,0.061430,-112.069053,22.831647,-21.035947
22542,NaN,-9.178156,-17.524560,1.183731,0.367902,8.258206,8.197756,-1.170952,2.680572,-2.797124,0.561160,-0.786692,0.253436,0.044558,-113.058544,20.765464,-21.898972
22543,NaN,-22.734090,-19.934833,-4.686232,-12.090768,8.595157,16.947162,0.929199,1.491168,-2.094159,0.563374,-0.786968,0.249575,0.031682,-112.638689,19.333970,-22.238298
22544,NaN,-2.846880,-10.229951,-4.561736,0.711535,-0.724823,1.699318,2.095461,-0.168651,-1.729480,0.572072,-0.783108,0.242604,0.024883,-111.277830,18.454188,-21.749825
22545,NaN,5.934991,-12.480117,-7.567889,8.419935,-6.010228,2.070903,-0.557738,0.213154,-2.530732,0.569934,-0.787701,0.233228,0.017539,-111.459632,17.066404,-21.311552
22546,NaN,2.810708,-17.096475,-3.820536,8.007819,-0.030145,6.018158,-1.967592,0.348616,-3.592196,0.561993,-0.797346,0.219852,0.008248,-112.416269,15.085759,-20.702084
22547,NaN,0.986161,-19.204303,-3.257013,6.754098,2.048960,8.367963,0.108175,0.502969,-3.222987,0.561968,-0.800471,0.208400,-0.002889,-112.239503,13.273657,-20.250790
22548,NaN,-2.237320,-11.448776,-1.518865,1.164763,2.588568,1.602838,1.574326,0.640425,-3.278881,0.567478,-0.799305,0.197018,-0.016277,-111.257222,11.395872,-19.885061
22549,NaN,-1.993566,-4.533063,-0.577213,-0.717723,1.393960,-5.080278,1.355540,0.252697,-2.983896,0.572369,-0.798239,0.185678,-0.027046,-110.386932,9.751414,-19.401856
22550,NaN,3.470057,-2.319898,-6.564336,2.146780,-6.428693,-5.994722,1.101097,-0.318627,-2.313851,0.576718,-0.797200,0.175366,-0.033388,-109.652783,8.571316,-18.766257
22551,NaN,13.655428,-1.896462,-10.314722,10.626646,-13.153877,-6.571098,0.446314,-0.218276,-1.658985,0.578429,-0.797347,0.168047,-0.037654,-109.329832,7.721626,-18.324223
22552,NaN,2.879061,-6.552345,-3.371259,3.249030,-2.068110,-2.902693,-2.114240,1.408978,-2.525955,0.568268,-0.805179,0.162422,-0.048764,-110.571091,6.088826,-18.589031
22553,NaN,0.704462,-10.763763,-1.043818,2.539778,2.204092,0.489223,-1.813927,0.806760,-1.822794,0.559846,-0.811523,0.157801,-0.055686,-111.611829,4.951225,-18.642518
22554,NaN,5.317365,-12.751585,-4.291827,6.235617,-1.413708,3.164627,0.488641,1.268307,-1.148445,0.560506,-0.810665,0.156548,-0.064401,-111.364006,4.075850,-19.076969
22555,NaN,0.472614,-10.740136,-1.737791,1.825250,1.792221,0.772566,0.041183,1.213274,-1.451116,0.559265,-0.811238,0.154041,-0.073393,-111.357658,3.050796,-19.420064
22556,NaN,0.156822,-11.141460,-3.659939,0.875128,0.383113,1.876496,-0.058154,0.725608,-1.233039,0.558023,-0.812053,0.151085,-0.079708,-111.394843,2.244471,-19.547794
22557,NaN,0.415967,-10.835619,-3.544183,0.962574,0.352766,1.549186,-0.042313,0.595087,-1.140182,0.556972,-0.812757,0.148123,-0.085251,-111.417261,1.514134,-19.624782
22558,NaN,-0.187228,-10.872854,-3.125243,0.394966,0.990555,1.451515,-0.083192,0.555510,-1.148151,0.555741,-0.813576,0.145036,-0.090614,-111.463972,0.788563,-19.678545
22559,NaN,0.177695,-10.057046,-3.389131,0.418187,0.403193,0.785571,0.094288,0.486669,-1.137100,0.555283,-0.813881,0.141710,-0.095800,-111.405582,0.082459,-19.698010
22560,NaN,0.684246,-9.223479,-3.292494,0.702326,0.064161,-0.020714,0.075761,0.451865,-1.112006,0.554748,-0.814217,0.138399,-0.100749,-111.360108,-0.602123,-19.704748
22561,NaN,0.289900,-8.841331,-2.777045,0.344986,0.550312,-0.563777,-0.016743,0.366537,-1.091099,0.553905,-0.814799,0.134973,-0.105235,-111.365659,-1.258667,-19.670656
22562,NaN,0.596060,-8.995988,-3.173919,0.426822,0.192509,-0.266128,-0.057754,0.183182,-1.031765,0.553015,-0.815538,0.131304,-0.108769,-111.399961,-1.844311,-19.550767
22563,NaN,1.231124,-8.923620,-3.361315,0.871501,-0.171353,-0.238997,-0.058874,0.129840,-0.952495,0.552203,-0.816225,0.127802,-0.111873,-111.433870,-2.377427,-19.418775
22564,NaN,1.939865,-9.187371,-3.681263,1.378956,-0.551863,0.163074,-0.121848,0.192450,-0.865677,0.551113,-0.816989,0.124866,-0.114940,-111.505364,-2.876274,-19.337728
22565,NaN,2.107009,-9.547804,-4.123870,1.340798,-0.825227,0.681452,-0.057766,0.355228,-0.761874,0.550250,-0.817392,0.122756,-0.118437,-111.532276,-3.355145,-19.365171
22566,NaN,2.255137,-9.578817,-4.386291,1.312098,-1.065612,0.827854,0.048564,0.566759,-0.656861,0.549726,-0.817309,0.121600,-0.122559,-111.492253,-3.821267,-19.527552
22567,NaN,2.273933,-9.477260,-4.181983,1.303545,-0.919401,0.672207,0.112845,0.749604,-0.563783,0.549416,-0.816853,0.121276,-0.127224,-111.403164,-4.277370,-19.808106
22568,NaN,1.660136,-9.199263,-3.795379,0.759484,-0.476372,0.236348,0.196209,0.779595,-0.483915,0.549451,-0.816093,0.121313,-0.131826,-111.264139,-4.695048,-20.122222
22569,NaN,0.962616,-8.901168,-3.562015,0.097301,-0.148326,-0.178711,0.245340,0.687839,-0.439828,0.549776,-0.815205,0.121235,-0.135975,-111.095519,-5.071034,-20.397900
22570,NaN,0.626394,-8.963341,-3.756329,-0.349444,-0.182032,-0.081898,0.263985,0.558412,-0.420091,0.550244,-0.814341,0.120875,-0.139535,-110.922945,-5.407360,-20.609104
22571,NaN,0.766344,-8.909836,-3.734476,-0.276656,-0.239922,-0.128456,0.290376,0.466336,-0.414233,0.550888,-0.813442,0.120257,-0.142735,-110.736069,-5.722801,-20.773464
22572,NaN,1.300534,-8.807784,-3.466373,0.255661,-0.244083,-0.264966,0.266699,0.415825,-0.392009,0.551460,-0.812634,0.119616,-0.145636,-110.566667,-6.013938,-20.915856
22573,NaN,1.636568,-8.951184,-3.183164,0.623776,-0.074099,-0.192927,0.177567,0.389851,-0.367120,0.551714,-0.812057,0.119058,-0.148324,-110.445980,-6.287824,-21.050416
22574,NaN,1.779245,-9.069529,-3.332041,0.655028,-0.213905,-0.012201,0.167486,0.406133,-0.332463,0.551924,-0.811481,0.118702,-0.150960,-110.331152,-6.544393,-21.201019
22575,NaN,1.688687,-8.853905,-3.094490,0.608436,-0.058167,-0.302407,0.122617,0.437485,-0.299038,0.551970,-0.810967,0.118591,-0.153620,-110.235995,-6.790746,-21.376199
22576,NaN,1.659253,-8.883980,-3.178324,0.508514,-0.106800,-0.246610,0.042263,0.464259,-0.267307,0.551679,-0.810641,0.118753,-0.156235,-110.186171,-7.023324,-21.572226
22577,NaN,1.218436,-8.958129,-3.323862,0.007043,-0.038881,-0.180500,0.051327,0.480795,-0.260573,0.551431,-0.810256,0.118970,-0.158920,-110.126424,-7.257247,-21.779287
22578,NaN,1.275092,-8.656979,-3.679931,-0.125226,-0.471070,-0.332534,0.117538,0.430600,-0.267000,0.551458,-0.809738,0.118980,-0.161441,-110.034140,-7.482593,-21.957844
22579,NaN,1.551274,-8.666067,-3.725510,0.068492,-0.607671,-0.272641,0.082399,0.437397,-0.281070,0.551337,-0.809302,0.118968,-0.164023,-109.958513,-7.718471,-22.138164
22580,NaN,1.335646,-8.898397,-3.577208,-0.110194,-0.311593,-0.135268,0.067671,0.416761,-0.297569,0.551138,-0.808941,0.118855,-0.166540,-109.895093,-7.957106,-22.303975
22581,NaN,1.667424,-9.042042,-3.367871,0.235705,-0.200406,-0.025680,0.063208,0.443981,-0.298302,0.550914,-0.808552,0.118806,-0.169183,-109.828902,-8.203152,-22.485261
22582,NaN,1.884967,-9.095392,-2.825573,0.610912,0.202297,-0.125127,0.079264,0.442536,-0.315086,0.550723,-0.808136,0.118681,-0.171857,-109.755783,-8.455845,-22.662449
22583,NaN,1.788360,-8.963255,-2.598405,0.571337,0.385945,-0.335645,0.107996,0.414685,-0.327234,0.550665,-0.807654,0.118395,-0.174487,-109.665401,-8.711428,-22.823017
22584,NaN,1.719159,-8.715705,-2.690107,0.427697,0.246296,-0.543818,0.106635,0.382928,-0.342411,0.550589,-0.807219,0.117970,-0.177009,-109.580709,-8.966878,-22.963321
22585,NaN,1.577716,-8.757870,-2.640490,0.276449,0.364414,-0.541643,0.034190,0.388491,-0.370971,0.550203,-0.806977,0.117498,-0.179607,-109.534527,-9.240687,-23.102026
22586,NaN,1.547998,-9.199488,-2.867117,0.106751,0.359709,-0.060444,-0.013002,0.402050,-0.403965,0.549570,-0.806879,0.116983,-0.182303,-109.517193,-9.532803,-23.241502
22587,NaN,1.240269,-9.432094,-3.369866,-0.438661,0.156037,0.269059,0.050950,0.439169,-0.446643,0.549145,-0.806575,0.116327,-0.185321,-109.457596,-9.857001,-23.393923
22588,NaN,1.274892,-9.319830,-3.849230,-0.668683,-0.289121,0.324871,0.085941,0.449035,-0.479547,0.548804,-0.806191,0.115543,-0.188468,-109.379947,-10.198652,-23.545382
22589,NaN,1.717945,-9.255974,-3.695370,-0.264189,-0.341543,0.291437,0.023573,0.483236,-0.512026,0.548170,-0.805942,0.114769,-0.191823,-109.331995,-10.566108,-23.710494
22590,NaN,1.799406,-9.415379,-3.593142,-0.215411,-0.207559,0.420005,0.003902,0.523238,-0.540761,0.547384,-0.805727,0.114017,-0.195385,-109.293839,-10.954642,-23.891985
22591,NaN,1.735544,-9.351343,-3.487414,-0.293945,-0.095369,0.312816,0.019837,0.578394,-0.574831,0.546603,-0.805409,0.113251,-0.199287,-109.237860,-11.373766,-24.098493
22592,NaN,1.439113,-9.445295,-3.174454,-0.495399,0.346309,0.236986,-0.030439,0.609671,-0.624730,0.545529,-0.805225,0.112427,-0.203401,-109.210200,-11.823758,-24.312689
22593,NaN,1.222017,-9.677849,-3.331873,-0.846675,0.421559,0.451827,-0.003156,0.613727,-0.688868,0.544500,-0.804968,0.111318,-0.207735,-109.164442,-12.310864,-24.518086
22594,NaN,1.219657,-9.824734,-3.260612,-0.908577,0.570744,0.555172,0.022454,0.618031,-0.773848,0.543457,-0.804680,0.109858,-0.212310,-109.107814,-12.842820,-24.709713
22595,NaN,1.187307,-10.134306,-3.141414,-0.994065,0.838378,0.784025,0.013423,0.632866,-0.864370,0.542274,-0.804416,0.108073,-0.217196,-109.053634,-13.427941,-24.893832
22596,NaN,1.051800,-10.264335,-3.025476,-1.173443,1.080207,0.820812,0.072397,0.620061,-0.986861,0.541171,-0.804060,0.105701,-0.222372,-108.973530,-14.075264,-25.047748
22597,NaN,1.042134,-10.246553,-2.709770,-1.149709,1.378297,0.684825,0.104129,0.594330,-1.116511,0.540060,-0.803672,0.102693,-0.227818,-108.880007,-14.789089,-25.164638
22598,NaN,1.153248,-10.269520,-2.648447,-1.154349,1.436530,0.694900,0.132675,0.575820,-1.249955,0.538882,-0.803275,0.099068,-0.233541,-108.780538,-15.570422,-25.246420
22599,NaN,1.122646,-10.251225,-2.676909,-1.334815,1.467688,0.655161,0.127151,0.568072,-1.386393,0.537517,-0.802912,0.094871,-0.239598,-108.687959,-16.425114,-25.300303
22600,NaN,1.207548,-10.606228,-2.941539,-1.583064,1.419043,1.053794,0.090809,0.613676,-1.515069,0.535778,-0.802620,0.090323,-0.246139,-108.617703,-17.357056,-25.356023
22601,NaN,1.447815,-11.309044,-3.374363,-1.848810,1.330031,1.857197,0.015066,0.700311,-1.639001,0.533525,-0.802406,0.085594,-0.253318,-108.578421,-18.372542,-25.439662
22602,NaN,1.525875,-12.000479,-3.353243,-2.063245,1.697009,2.452807,-0.051285,0.866655,-1.754415,0.530722,-0.802153,0.080924,-0.261411,-108.554865,-19.480554,-25.596600
22603,NaN,1.374334,-12.923521,-2.849868,-2.294192,2.675992,3.016863,-0.225848,1.063822,-1.875480,0.526946,-0.802053,0.076513,-0.270526,-108.593478,-20.690243,-25.846219
22604,NaN,0.558580,-14.218358,-3.300651,-3.667052,3.358775,3.921589,-0.277801,1.258309,-2.004543,0.522624,-0.801790,0.072156,-0.280698,-108.627676,-22.005805,-26.183920
22605,NaN,-0.296719,-14.544953,-3.470605,-4.796048,3.889437,3.808912,-0.220115,1.423015,-2.151579,0.518212,-0.801056,0.067554,-0.291895,-108.590023,-23.430321,-26.594255
22606,NaN,-0.577023,-15.074716,-3.198354,-5.262038,4.663624,3.911644,-0.492546,1.556379,-2.308472,0.512314,-0.800758,0.063049,-0.303885,-108.681401,-24.965606,-27.054855
22607,NaN,-1.596146,-16.520107,-3.483852,-6.825732,5.804362,4.585141,-0.802374,1.696282,-2.455690,0.504828,-0.800894,0.058785,-0.316642,-108.910403,-26.605270,-27.572606
22608,NaN,-3.099498,-17.825154,-4.839754,-9.375852,6.339939,5.108330,-0.740045,1.763701,-2.593535,0.497197,-0.800626,0.054011,-0.329963,-109.088279,-28.336296,-28.101787
22609,NaN,-3.347047,-17.737583,-6.143277,-10.631810,5.753716,4.931521,-0.605922,1.921499,-2.685720,0.489814,-0.799556,0.049051,-0.344073,-109.129546,-30.142966,-28.716399
22610,NaN,-2.955431,-17.006532,-7.286959,-11.168780,4.720443,4.470109,-0.736637,2.083377,-2.694802,0.481671,-0.798315,0.044636,-0.358739,-109.176744,-31.990163,-29.438867
22611,NaN,-1.775658,-16.183716,-7.685688,-10.647287,3.889501,4.173324,-0.964793,2.264861,-2.676305,0.472505,-0.797029,0.041169,-0.373885,-109.257752,-33.854718,-30.297105
22612,NaN,-0.171412,-14.984663,-8.627117,-10.094641,2.273988,4.039806,-0.824028,2.574420,-2.557545,0.463851,-0.794552,0.038588,-0.389922,-109.095885,-35.720349,-31.404697
22613,NaN,1.584119,-13.312587,-9.192522,-9.126524,0.536869,3.627032,-0.603316,2.737364,-2.486399,0.456072,-0.790951,0.036278,-0.406298,-108.676733,-37.562971,-32.678622
22614,NaN,2.029647,-11.414938,-8.385360,-8.058843,0.132545,2.008837,-0.984333,2.837355,-2.406331,0.446716,-0.787725,0.035220,-0.422723,-108.363407,-39.383792,-34.085354
22615,NaN,3.766855,-10.224917,-7.446060,-6.234416,-0.381023,1.812735,-1.257471,2.999611,-2.082238,0.436826,-0.784421,0.036428,-0.438794,-108.016447,-41.039050,-35.733666
22616,NaN,4.890945,-9.646392,-9.074549,-6.878979,-1.990578,2.353524,-1.247447,3.345610,-1.767349,0.427384,-0.779975,0.039528,-0.455433,-107.372878,-42.583625,-37.767852
22617,NaN,-1.673791,-8.308604,-8.222942,-9.887069,0.985577,-3.432386,-1.128102,4.035655,-1.092912,0.419670,-0.773250,0.046512,-0.473074,-106.109540,-43.833830,-40.554309
22618,NaN,-5.206586,-6.266198,-4.538658,-8.334523,3.883488,-8.258457,-1.065278,4.573889,-0.154598,0.414031,-0.764494,0.058012,-0.490675,-104.281291,-44.603657,-44.047624
22619,NaN,-7.432141,-5.304871,-1.526975,-6.563880,6.394152,-11.126566,-1.034493,4.696285,0.624305,0.410196,-0.754741,0.072714,-0.506773,-102.202761,-44.854616,-47.842939
22620,NaN,-7.038484,-4.619830,0.525144,-4.171575,7.101356,-11.633616,-1.274707,4.330011,1.014401,0.406297,-0.745819,0.088626,-0.520406,-100.403129,-44.768213,-51.429405
22621,NaN,-6.134431,-3.979041,1.496021,-2.460681,6.839833,-11.502398,-1.465529,3.896692,1.334050,0.402557,-0.737923,0.105392,-0.531328,-98.955651,-44.371364,-54.690214
22622,NaN,-6.109891,-3.599552,1.994113,-1.637294,6.925931,-11.711914,-1.714450,3.377668,1.659148,0.398799,-0.731374,0.122837,-0.539409,-97.951893,-43.712862,-57.543981
22623,NaN,-5.778439,-3.730556,1.046822,-2.137062,6.477701,-11.180000,-1.950955,2.728460,1.994079,0.395374,-0.726576,0.140901,-0.543979,-97.477694,-42.770830,-59.871095
22624,NaN,-5.596899,-3.987134,0.486641,-2.422014,6.389019,-10.689000,-2.248003,2.112011,2.340803,0.392039,-0.723496,0.159660,-0.545315,-97.520286,-41.596439,-61.722696
22625,NaN,-5.415756,-4.709234,0.673796,-2.123264,6.887627,-9.898342,-2.551254,1.523112,2.672824,0.388890,-0.722098,0.179340,-0.543302,-98.063529,-40.176726,-63.130769
22626,NaN,-4.763078,-5.649599,1.060815,-1.474273,7.222623,-8.636498,-2.766943,0.894391,2.990561,0.386165,-0.722214,0.199346,-0.538094,-99.024514,-38.555858,-64.112013
22627,NaN,-4.098814,-7.077996,1.662659,-0.609585,7.837529,-7.010126,-3.034934,0.409871,3.318960,0.383720,-0.723505,0.220344,-0.529857,-100.347873,-36.698696,-64.798768
22628,NaN,-3.433582,-8.443859,1.910162,0.045615,8.190302,-5.381001,-3.019146,0.101078,3.655283,0.382292,-0.724802,0.241689,-0.519713,-101.748749,-34.651674,-65.359600
22629,NaN,-2.747306,-9.173322,2.042657,0.731374,8.007267,-4.226867,-2.905301,-0.022909,4.012957,0.382200,-0.725359,0.263777,-0.508132,-103.102579,-32.379588,-65.929454
22630,NaN,-1.984553,-9.840812,2.214021,1.550181,7.640607,-3.113625,-2.987571,-0.007061,4.358830,0.382345,-0.725086,0.287062,-0.495639,-104.456611,-29.950343,-66.617127
22631,NaN,-0.982769,-11.190586,2.849518,3.011124,7.445816,-1.459612,-3.172751,0.097955,4.685662,0.382266,-0.723897,0.312100,-0.482120,-105.868366,-27.348388,-67.472192
22632,NaN,-0.063730,-12.738786,3.403020,4.511773,7.203339,0.265483,-3.058215,0.278386,4.946251,0.382554,-0.721047,0.337766,-0.468678,-107.152330,-24.673690,-68.535824
22633,NaN,0.467452,-13.455312,3.629740,5.551375,6.609055,1.136636,-2.636701,0.535791,5.153628,0.384170,-0.715816,0.363522,-0.455930,-108.157124,-21.926395,-69.823828
22634,NaN,0.660098,-13.123905,3.744288,6.174220,5.709262,0.954056,-2.276871,0.790399,5.342555,0.386629,-0.708369,0.389188,-0.444144,-108.934834,-19.165252,-71.319581
22635,NaN,0.932746,-13.039137,3.531626,6.504154,4.726206,1.080672,-2.144632,1.050286,5.521320,0.389193,-0.699093,0.415473,-0.432643,-109.651542,-16.350792,-73.008967
22636,NaN,1.109740,-13.405864,3.202857,6.770044,3.918958,1.587067,-2.034677,1.311456,5.688456,0.391507,-0.688063,0.442103,-0.421708,-110.330122,-13.541559,-74.890675
22637,NaN,0.935459,-13.940353,2.735260,6.855189,3.388522,2.193449,-1.887562,1.588381,5.830196,0.393719,-0.675137,0.469135,-0.411202,-110.979430,-10.709004,-76.963111
22638,NaN,0.636854,-14.339262,2.180113,6.791009,2.868755,2.691459,-1.777295,1.839450,5.940099,0.395443,-0.660565,0.496207,-0.401319,-111.632433,-7.917721,-79.208946
22639,NaN,0.386014,-14.711382,1.752846,6.849260,2.262716,3.130966,-1.729368,2.046371,6.010345,0.396621,-0.644558,0.523406,-0.391512,-112.355129,-5.135803,-81.598152
22640,NaN,0.480612,-15.192065,1.418170,7.074712,1.296691,3.649371,-1.719869,2.197266,6.064125,0.397011,-0.627435,0.550372,-0.381835,-113.173589,-2.415563,-84.106664
22641,NaN,1.008880,-15.916839,1.328078,7.634654,-0.138386,4.249006,-1.775090,2.317234,6.072582,0.396555,-0.609408,0.577190,-0.371776,-114.145637,0.266323,-86.716970
22642,NaN,1.549963,-16.718235,1.942646,8.805977,-1.639381,4.517134,-1.803321,2.316955,6.009593,0.395356,-0.590988,0.603114,-0.361497,-115.248953,2.843560,-89.360581
22643,NaN,2.087067,-17.685291,2.742263,10.146641,-3.251567,4.713460,-1.887664,2.162650,5.857079,0.393754,-0.572765,0.627867,-0.350258,-116.519303,5.348826,-91.945215
22644,NaN,2.751260,-19.179301,3.536450,11.636622,-5.143104,5.218541,-1.842834,1.894955,5.629181,0.392229,-0.555119,0.650633,-0.338638,-117.852856,7.725365,-94.398598
22645,NaN,4.581658,-20.266907,4.203771,12.619714,-8.214761,5.105489,-1.499216,1.436192,5.289498,0.392315,-0.538120,0.670471,-0.327084,-119.053235,10.023477,-96.591106
22646,NaN,6.971007,-20.853209,4.576858,12.844376,-11.673495,4.436739,-1.072234,0.887215,4.785839,0.394194,-0.522552,0.686626,-0.316378,-120.017163,12.162167,-98.417549
22647,NaN,8.083143,-21.126447,4.664216,12.677093,-13.675634,3.811083,-0.491690,0.449684,4.200454,0.398045,-0.508191,0.699154,-0.307387,-120.635162,14.132577,-99.892793
22648,NaN,8.287696,-19.067800,4.332793,11.105706,-13.923128,1.754688,0.420700,0.146204,3.536287,0.404007,-0.494674,0.707665,-0.302134,-120.687530,15.836173,-101.035402
22649,NaN,8.880199,-14.953091,1.251256,6.098336,-13.483816,-0.593512,1.325071,-0.130360,2.829346,0.412094,-0.482043,0.712335,-0.300653,-120.150591,17.292000,-101.822914
22650,NaN,11.615106,-7.809683,-1.388451,-0.197437,-13.606797,-6.258033,2.339958,-0.397942,2.079911,0.422258,-0.470339,0.712914,-0.303697,-118.932775,18.444520,-102.230172
22651,NaN,17.844160,-3.494326,1.579438,-0.850859,-17.880262,-13.374169,0.860353,0.530585,1.517163,0.424787,-0.462218,0.716277,-0.304726,-118.668566,19.076583,-102.951698
22652,NaN,18.293104,-8.963622,2.164935,1.563865,-20.421036,-9.362138,-1.331082,1.539574,0.463982,0.416914,-0.461000,0.722600,-0.302507,-119.738079,18.881577,-103.901414
22653,NaN,12.255856,-12.364526,-1.122795,1.260691,-16.022813,-3.028556,0.138163,1.572899,-0.219636,0.411296,-0.459058,0.725139,-0.307041,-119.896207,18.336330,-104.658096
22654,NaN,5.204228,-8.894812,-1.097729,1.412976,-8.133078,-3.546865,1.179260,0.877188,-0.918947,0.409429,-0.458589,0.722989,-0.315201,-119.275479,17.633669,-104.842636
22655,NaN,8.307089,-11.264015,-5.177420,-1.952391,-11.458855,-0.454933,-0.557887,0.382123,-1.775368,0.404034,-0.465483,0.720536,-0.317663,-119.494043,16.649000,-104.517369
22656,NaN,-12.421755,-15.829776,-11.517295,-0.593065,6.963524,12.292950,0.452211,0.581691,-2.474244,0.399060,-0.472508,0.715167,-0.325611,-119.117176,15.252992,-104.096313
22657,NaN,-19.431663,-9.079928,-8.131696,1.139639,15.951844,6.630664,2.111434,0.984172,-1.108695,0.398768,-0.470579,0.711004,-0.337656,-117.952508,14.433962,-104.292421
22658,NaN,-7.350591,-7.209208,2.846681,7.195825,4.247770,-3.158178,-0.776903,0.718081,-0.702133,0.393228,-0.473391,0.712074,-0.337970,-118.438725,13.888321,-104.468647
22659,NaN,-4.999458,-19.737406,4.014104,13.072717,-1.900806,6.190791,-3.175064,-0.454734,-2.220550,0.383601,-0.488167,0.711148,-0.329866,-120.049585,12.916752,-103.593636
22660,NaN,11.206591,-25.125591,-4.653535,4.653013,-17.644414,11.294906,-0.012377,-1.033443,-2.367754,0.383342,-0.498262,0.703341,-0.331806,-119.790969,12.039608,-102.373382
22661,NaN,13.885181,-21.967431,-7.648336,0.151917,-18.579798,9.899878,1.651034,0.586465,-2.352506,0.381547,-0.502295,0.695771,-0.343547,-118.762116,10.708661,-101.997183
22662,NaN,-0.215487,-15.369463,-1.276307,5.588554,-3.445055,4.143588,1.317632,0.813855,-2.638397,0.377482,-0.507492,0.688346,-0.355160,-117.950913,9.160205,-101.683199
22663,NaN,-1.449857,-7.153370,2.477190,5.515650,-0.444244,-4.447391,1.667471,0.327742,-2.281124,0.376586,-0.511520,0.680116,-0.366022,-116.919590,7.919908,-101.240033
22664,NaN,2.335405,-4.445523,-2.613956,-0.915566,-2.863000,-5.015418,1.357756,-0.306168,-1.905539,0.377620,-0.515958,0.672127,-0.373410,-116.054905,7.024208,-100.588809
22665,NaN,4.087687,-4.069384,-5.014618,-3.527903,-4.174553,-4.470221,0.131876,-0.361423,-1.676128,0.376122,-0.521955,0.666816,-0.376101,-115.897550,6.257235,-99.975275
22666,NaN,2.480325,-5.800070,-5.310895,-2.752486,-2.813455,-2.566594,-0.343278,-0.008566,-1.442124,0.372566,-0.527401,0.663657,-0.377627,-116.054237,5.519819,-99.605221
22667,NaN,2.612001,-6.478959,-3.340116,-0.682833,-3.192777,-2.791645,-0.352723,0.309915,-1.094172,0.368616,-0.531058,0.661970,-0.379336,-116.235285,4.883285,-99.485528
22668,NaN,2.089987,-9.219186,-3.066149,0.870277,-3.032773,-0.388982,-0.714762,0.629140,-0.975899,0.362810,-0.534391,0.661872,-0.380421,-116.648521,4.225374,-99.557770
22669,NaN,0.722073,-11.759221,-4.033184,1.412086,-1.824967,2.424190,-0.457326,0.547669,-0.881151,0.358170,-0.537052,0.661336,-0.382000,-116.903661,3.636952,-99.608440
22670,NaN,0.778782,-11.802340,-5.310886,0.336361,-1.614815,3.047530,0.037811,0.618769,-0.765767,0.354793,-0.538320,0.660301,-0.385144,-116.886777,3.088552,-99.724610
22671,NaN,1.305958,-10.361045,-5.030701,-0.129385,-1.877228,1.625103,0.080110,0.806123,-0.627763,0.351210,-0.538657,0.659842,-0.388727,-116.842415,2.562260,-99.972407
22672,NaN,0.617778,-9.372458,-4.630880,-0.087091,-1.040297,0.607445,0.080207,0.858974,-0.535197,0.347581,-0.538597,0.659739,-0.392231,-116.806522,2.069788,-100.271730
22673,NaN,0.376647,-8.597398,-4.339910,-0.126077,-0.674850,-0.199148,0.104263,0.845456,-0.450709,0.344259,-0.538206,0.659745,-0.395672,-116.746207,1.623978,-100.586165
22674,NaN,0.240511,-8.552633,-3.894656,0.278664,-0.537074,-0.431466,-0.043499,0.709315,-0.374526,0.341093,-0.538101,0.660033,-0.398070,-116.775738,1.252646,-100.850760
22675,NaN,-0.145206,-8.972369,-3.750610,0.674280,-0.173717,-0.111834,-0.052723,0.509878,-0.302569,0.338738,-0.538140,0.660153,-0.399825,-116.798701,0.969116,-101.031704
22676,NaN,0.027846,-9.035344,-4.080291,0.390871,-0.255685,0.090277,-0.020041,0.391173,-0.248337,0.336930,-0.538202,0.660180,-0.401223,-116.810156,0.744316,-101.165858
22677,NaN,0.326181,-9.039242,-4.603044,-0.118324,-0.424149,0.326755,0.013720,0.428757,-0.198331,0.335226,-0.537939,0.660301,-0.402799,-116.793252,0.535023,-101.332221
22678,NaN,0.539147,-8.941327,-5.053959,-0.597810,-0.507794,0.442318,0.086308,0.533279,-0.136128,0.333457,-0.537161,0.660646,-0.404736,-116.743550,0.331038,-101.568158
22679,NaN,0.621615,-8.931291,-5.071816,-0.642267,-0.542209,0.442605,0.136148,0.673294,-0.083121,0.331501,-0.535810,0.661229,-0.407175,-116.655988,0.117985,-101.889775
22680,NaN,0.561076,-8.877625,-4.683948,-0.323964,-0.505594,0.222533,0.153100,0.773873,-0.047363,0.329288,-0.534126,0.662062,-0.409821,-116.566289,-0.101629,-102.272293
22681,NaN,0.690676,-8.844232,-4.305176,-0.049209,-0.659393,0.025740,0.178064,0.825107,-0.012661,0.327075,-0.532148,0.662978,-0.412676,-116.452038,-0.316369,-102.690533
22682,NaN,0.589896,-8.768446,-4.041300,0.155263,-0.568136,-0.157704,0.191856,0.824983,0.005822,0.324894,-0.530100,0.663935,-0.415485,-116.336989,-0.520257,-103.113668
22683,NaN,0.337885,-8.651974,-4.126556,0.071003,-0.258342,-0.224810,0.205298,0.782469,0.021389,0.322954,-0.528035,0.664792,-0.418248,-116.204276,-0.704986,-103.519605
22684,NaN,0.174551,-8.536528,-4.147415,0.029018,-0.052033,-0.320575,0.156523,0.703855,0.015399,0.321092,-0.526248,0.665632,-0.420591,-116.107552,-0.871592,-103.883733
22685,NaN,-0.042588,-8.844314,-4.142882,0.209859,0.159149,-0.049607,0.101377,0.652780,-0.002681,0.319250,-0.524687,0.666418,-0.422693,-116.033157,-1.034561,-104.217577
22686,NaN,0.092869,-9.180875,-4.446518,0.052920,0.096482,0.388117,0.121341,0.650197,-0.015851,0.317402,-0.523163,0.667148,-0.424818,-115.955174,-1.202758,-104.546721
22687,NaN,0.293367,-9.218597,-4.729642,-0.235803,0.001365,0.549859,0.158336,0.716240,-0.020369,0.315453,-0.521423,0.667853,-0.427295,-115.845480,-1.389586,-104.909424
22688,NaN,0.372024,-9.099732,-4.561978,-0.172166,-0.062985,0.371682,0.200372,0.817434,-0.027327,0.313219,-0.519440,0.668631,-0.430127,-115.717846,-1.604158,-105.322689
22689,NaN,0.188431,-8.783930,-4.303531,-0.046497,0.122404,-0.030254,0.193963,0.885832,-0.026701,0.310772,-0.517283,0.669487,-0.433158,-115.582523,-1.834636,-105.772394
22690,NaN,0.054549,-8.763182,-4.017831,0.221130,0.222988,-0.177309,0.160470,0.937149,-0.040674,0.307994,-0.515128,0.670477,-0.436170,-115.472376,-2.083833,-106.245343
22691,NaN,-0.129865,-8.728695,-3.961798,0.300324,0.434735,-0.240675,0.203360,0.944587,-0.100784,0.305199,-0.513054,0.671183,-0.439479,-115.327199,-2.364932,-106.708473
