// General information: 
//  MT Manager version: 2019.0.1 
//  XDA version: 2019.0.1 build 2740 rev 84096 built on 2019-01-30
// Device information: 
//  DeviceId: 00B4381A
//  ProductCode: MTW2-3A7G6
//  Firmware Version: 4.3.4
//  Hardware Version: 1.1.0
// Device settings: 
//  Filter Profile: human(46.1)
//  Option Flags: Orientation Smoother Disabled, AHS Disabled, ICC Disabled
// Coordinate system: ENU
PacketCounter,SampleTimeFine,Acc_X,Acc_Y,Acc_Z,FreeAcc_E,FreeAcc_N,FreeAcc_U,Gyr_X,Gyr_Y,Gyr_Z,Quat_q0,Quat_q1,Quat_q2,Quat_q3,Roll,Pitch,Yaw
09489,NaN,-7.163157,6.007439,2.838014,0.104639,0.032759,-0.043223,0.185725,-0.029884,-0.040946,-0.189865,0.347278,-0.483708,-0.780625,64.985538,46.540927,-176.704987
09490,NaN,-7.185029,6.071787,2.876860,0.061358,0.047726,0.024055,0.192513,-0.034460,-0.045363,-0.190529,0.347066,-0.484372,-0.780146,65.067216,46.560307,-176.753620
09491,NaN,-7.296997,6.079529,2.913679,0.116370,0.090798,0.120820,0.202560,-0.039626,-0.047650,-0.191230,0.346834,-0.485069,-0.779644,65.152194,46.579925,-176.806102
09492,NaN,-7.286311,6.155519,2.951139,0.043866,0.098449,0.171217,0.201842,-0.045878,-0.048727,-0.191949,0.346578,-0.485751,-0.779157,65.232122,46.598377,-176.864360
09493,NaN,-7.347584,6.177566,3.004031,0.049818,0.146854,0.244622,0.201714,-0.056824,-0.050169,-0.192699,0.346284,-0.486423,-0.778683,65.306520,46.615284,-176.930704
09494,NaN,-7.376053,6.211015,3.056602,0.026608,0.187817,0.301149,0.209487,-0.074464,-0.056524,-0.193531,0.345927,-0.487093,-0.778217,65.373078,46.631086,-177.013360
09495,NaN,-7.400458,6.281332,3.063053,-0.006298,0.170282,0.364501,0.206485,-0.087289,-0.055481,-0.194384,0.345523,-0.487743,-0.777776,65.432053,46.643601,-177.104644
09496,NaN,-7.395600,6.326348,3.116242,-0.058727,0.203950,0.404136,0.202625,-0.099074,-0.055221,-0.195258,0.345072,-0.488363,-0.777368,65.481459,46.652980,-177.205471
09497,NaN,-7.237118,6.348777,3.151777,-0.195911,0.226283,0.312873,0.197895,-0.102411,-0.065253,-0.196170,0.344640,-0.488947,-0.776963,65.524668,46.667106,-177.311631
09498,NaN,-7.077270,6.262969,3.204893,-0.271370,0.312297,0.157904,0.182918,-0.085022,-0.071462,-0.197039,0.344302,-0.489475,-0.776561,65.566443,46.688385,-177.407380
09499,NaN,-7.226058,6.317122,3.204110,-0.207537,0.298148,0.299498,0.172110,-0.062126,-0.064999,-0.197806,0.344050,-0.489997,-0.776147,65.617162,46.712031,-177.482852
09500,NaN,-7.260004,6.366667,3.296415,-0.251886,0.365930,0.380992,0.159874,-0.057375,-0.073866,-0.198578,0.343847,-0.490458,-0.775750,65.660270,46.741279,-177.558681
09501,NaN,-7.251697,6.379663,3.239446,-0.251613,0.313595,0.366683,0.133907,-0.054379,-0.075271,-0.199301,0.343688,-0.490821,-0.775405,65.690751,46.772191,-177.631817
09502,NaN,-7.253567,6.324408,3.244703,-0.221474,0.345676,0.334821,0.114322,-0.053673,-0.075988,-0.199993,0.343549,-0.491104,-0.775109,65.709174,46.803436,-177.705581
09503,NaN,-7.113278,6.274194,3.202904,-0.276340,0.327839,0.189262,0.084758,-0.046533,-0.080495,-0.200631,0.343481,-0.491275,-0.774866,65.714449,46.838958,-177.774587
09504,NaN,-7.019363,6.190655,3.109116,-0.260971,0.277732,0.042110,0.061713,-0.033250,-0.080655,-0.201200,0.343485,-0.491366,-0.774659,65.712858,46.877432,-177.834337
09505,NaN,-6.985171,6.126782,3.077644,-0.238907,0.275851,-0.031646,0.037997,-0.022522,-0.080535,-0.201699,0.343558,-0.491379,-0.774488,65.704593,46.918631,-177.885108
09506,NaN,-6.987922,6.068535,3.086561,-0.208708,0.307907,-0.063499,0.020657,-0.015372,-0.073711,-0.202127,0.343655,-0.491341,-0.774358,65.691078,46.957670,-177.928922
09507,NaN,-7.060248,6.045698,3.055656,-0.140615,0.290108,-0.033594,0.002668,-0.003525,-0.066533,-0.202464,0.343802,-0.491261,-0.774255,65.676618,46.996025,-177.960414
09508,NaN,-7.162676,6.059838,3.051526,-0.084555,0.280314,0.048937,-0.005715,-0.010199,-0.060346,-0.202782,0.343912,-0.491148,-0.774195,65.654020,47.029284,-177.995813
09509,NaN,-7.235346,6.090939,3.013154,-0.047385,0.230664,0.110690,-0.011462,-0.027225,-0.051856,-0.203097,0.343946,-0.491014,-0.774182,65.621819,47.054359,-178.040451
09510,NaN,-7.248767,6.114838,2.986475,-0.048436,0.192240,0.127916,-0.011246,-0.039355,-0.044839,-0.203415,0.343911,-0.490876,-0.774201,65.583653,47.072561,-178.092745
09511,NaN,-7.221277,6.128032,2.954808,-0.068020,0.152579,0.107121,-0.021631,-0.040385,-0.041290,-0.203704,0.343878,-0.490708,-0.774247,65.540856,47.088966,-178.143866
09512,NaN,-7.171186,6.127030,2.901490,-0.086220,0.098727,0.054828,-0.025183,-0.037547,-0.038420,-0.203970,0.343849,-0.490530,-0.774303,65.497278,47.104226,-178.192690
09513,NaN,-7.060335,6.052356,2.795035,-0.080298,0.028663,-0.102677,-0.020503,-0.023252,-0.039207,-0.204211,0.343876,-0.490386,-0.774318,65.465209,47.123570,-178.230025
09514,NaN,-7.067940,6.005280,2.738491,-0.029331,-0.004768,-0.142237,-0.015546,-0.004000,-0.044903,-0.204436,0.343982,-0.490268,-0.774286,65.444229,47.150164,-178.255524
09515,NaN,-7.061834,5.966476,2.662580,0.012158,-0.058076,-0.192181,-0.010735,0.012776,-0.048142,-0.204640,0.344161,-0.490184,-0.774206,65.435647,47.182726,-178.268431
09516,NaN,-7.051175,5.971127,2.643286,0.002040,-0.077879,-0.202572,0.002072,0.037351,-0.056185,-0.204836,0.344437,-0.490157,-0.774049,65.445142,47.224950,-178.266023
09517,NaN,-7.084959,5.991865,2.594181,0.020650,-0.128930,-0.178798,0.005040,0.046360,-0.048989,-0.204988,0.344731,-0.490167,-0.773871,65.464295,47.265948,-178.253450
09518,NaN,-7.150509,5.959821,2.627172,0.068006,-0.081563,-0.141079,0.009970,0.057071,-0.048726,-0.205121,0.345057,-0.490203,-0.773668,65.491343,47.308995,-178.233286
09519,NaN,-7.161597,5.925374,2.635401,0.087437,-0.055408,-0.151780,0.030727,0.057962,-0.059470,-0.205329,0.345395,-0.490306,-0.773397,65.529148,47.358206,-178.215382
09520,NaN,-7.197403,5.856526,2.639393,0.146911,-0.016251,-0.166650,0.050233,0.068150,-0.059866,-0.205549,0.345750,-0.490490,-0.773063,65.582791,47.409719,-178.190530
09521,NaN,-7.246790,5.869578,2.602254,0.174923,-0.047358,-0.132461,0.072547,0.077724,-0.060351,-0.205784,0.346123,-0.490773,-0.772654,65.655710,47.464041,-178.157513
09522,NaN,-7.335576,5.881028,2.496949,0.252851,-0.136805,-0.089043,0.089732,0.080163,-0.062179,-0.206051,0.346489,-0.491117,-0.772200,65.738377,47.519565,-178.123934
09523,NaN,-7.297839,5.904182,2.432095,0.223754,-0.196470,-0.120205,0.102244,0.082797,-0.063074,-0.206335,0.346858,-0.491514,-0.771705,65.830775,47.576437,-178.087635
09524,NaN,-7.250102,5.954117,2.386661,0.164138,-0.249386,-0.136816,0.110774,0.089304,-0.050028,-0.206569,0.347208,-0.491970,-0.771195,65.934238,47.627742,-178.042465
09525,NaN,-7.290817,5.843320,2.325657,0.275209,-0.243870,-0.191157,0.123571,0.095671,-0.059489,-0.206845,0.347595,-0.492469,-0.770628,66.047493,47.685651,-177.994543
09526,NaN,-7.267332,5.817845,2.357479,0.255161,-0.192382,-0.214927,0.126424,0.101071,-0.063208,-0.207128,0.348006,-0.492973,-0.770044,66.163704,47.746480,-177.944366
09527,NaN,-7.188813,5.728258,2.269066,0.279981,-0.222640,-0.351574,0.141113,0.106572,-0.067504,-0.207438,0.348436,-0.493536,-0.769405,66.291684,47.810975,-177.890225
09528,NaN,-7.122419,5.727886,2.246136,0.231617,-0.231061,-0.406540,0.142496,0.117672,-0.071751,-0.207741,0.348915,-0.494104,-0.768742,66.424978,47.879969,-177.829448
09529,NaN,-7.093042,5.630775,2.247362,0.263706,-0.174586,-0.487053,0.150205,0.131304,-0.072848,-0.208026,0.349443,-0.494717,-0.768030,66.571736,47.952750,-177.757142
09530,NaN,-7.153343,5.577608,2.262102,0.321871,-0.121452,-0.470378,0.154746,0.139411,-0.072531,-0.208299,0.349993,-0.495352,-0.767296,66.725285,48.026925,-177.678843
09531,NaN,-7.146176,5.544146,2.307148,0.311312,-0.049893,-0.483760,0.164994,0.151141,-0.074815,-0.208567,0.350586,-0.496038,-0.766509,66.892374,48.104954,-177.590768
09532,NaN,-7.246693,5.550860,2.348734,0.346552,0.005565,-0.393400,0.176169,0.152188,-0.076324,-0.208860,0.351172,-0.496760,-0.765693,67.065541,48.183695,-177.502772
09533,NaN,-7.364469,5.602837,2.396375,0.360157,0.049388,-0.260850,0.191312,0.158883,-0.084466,-0.209192,0.351790,-0.497536,-0.764814,67.250782,48.268182,-177.410796
09534,NaN,-7.476438,5.533787,2.390678,0.467287,0.096890,-0.220635,0.203119,0.178112,-0.087522,-0.209510,0.352473,-0.498367,-0.763871,67.453015,48.358220,-177.304831
09535,NaN,-7.742511,5.523218,2.317167,0.659075,0.064310,-0.046260,0.222991,0.160430,-0.094096,-0.209930,0.353086,-0.499247,-0.762897,67.656041,48.447719,-177.213596
09536,NaN,-7.919991,5.541679,2.432933,0.710519,0.187828,0.127909,0.231538,0.113813,-0.100189,-0.210505,0.353525,-0.500094,-0.761980,67.834132,48.529990,-177.161803
09537,NaN,-7.901474,5.579668,2.555370,0.617820,0.300071,0.168501,0.225731,0.068918,-0.114214,-0.211234,0.353835,-0.500851,-0.761137,67.979792,48.610074,-177.149409
09538,NaN,-7.712973,5.715337,2.801088,0.306992,0.475664,0.171330,0.201248,0.042924,-0.130766,-0.212048,0.354111,-0.501452,-0.760386,68.090985,48.693257,-177.163703
09539,NaN,-7.003067,5.636214,2.979777,-0.181130,0.659133,-0.366967,0.165978,0.077246,-0.152656,-0.212796,0.354612,-0.501920,-0.759635,68.198547,48.795525,-177.156481
09540,NaN,-6.795068,5.614553,3.274905,-0.418229,0.942687,-0.466162,0.140599,0.147323,-0.179451,-0.213426,0.355470,-0.502314,-0.758796,68.327023,48.926899,-177.101738
09541,NaN,-6.875747,5.777963,3.350321,-0.525966,0.961668,-0.289879,0.094678,0.219996,-0.216459,-0.213930,0.356747,-0.502548,-0.757899,68.466323,49.093247,-176.998377
09542,NaN,-6.800403,5.976632,3.206592,-0.696560,0.759986,-0.263606,-0.000065,0.309529,-0.264523,-0.214224,0.358582,-0.502427,-0.757030,68.594758,49.303839,-176.837358
09543,NaN,-6.764524,5.919349,3.053677,-0.672695,0.652529,-0.365788,-0.097675,0.425326,-0.339712,-0.214333,0.361148,-0.501927,-0.756110,68.723941,49.578465,-176.602918
09544,NaN,-6.798719,5.817259,2.794099,-0.548878,0.466838,-0.466535,-0.214666,0.575494,-0.439805,-0.214233,0.364653,-0.500956,-0.755100,68.858011,49.937323,-176.274900
09545,NaN,-7.074729,5.699606,2.840465,-0.376513,0.576831,-0.318978,-0.370679,0.767444,-0.544585,-0.213755,0.369307,-0.499404,-0.754000,69.005639,50.391224,-175.815226
09546,NaN,-7.394150,5.510172,2.994342,-0.185314,0.817837,-0.153624,-0.556050,0.979839,-0.640528,-0.212762,0.375184,-0.497182,-0.752847,69.168451,50.939073,-175.201344
09547,NaN,-7.795717,5.111074,3.149349,0.177493,1.155270,-0.042975,-0.746280,1.176616,-0.731034,-0.211251,0.382213,-0.494262,-0.751659,69.344158,51.574245,-174.436874
09548,NaN,-8.605612,4.538877,3.158684,0.941157,1.466989,0.266784,-0.911028,1.276288,-0.803977,-0.209440,0.389941,-0.490649,-0.750563,69.490188,52.267172,-173.596513
09549,NaN,-9.414257,3.982095,3.234035,1.642978,1.845282,0.619846,-1.020140,1.274964,-0.871512,-0.207653,0.397915,-0.486460,-0.749600,69.575477,52.995141,-172.762603
09550,NaN,-10.116266,3.566197,3.226893,2.195648,2.085872,0.971349,-1.076941,1.139108,-0.922654,-0.206261,0.405527,-0.481768,-0.748935,69.532966,53.723145,-172.054689
09551,NaN,-10.608804,3.280917,3.209203,2.532443,2.232157,1.242275,-1.116452,0.865067,-0.967891,-0.205600,0.412235,-0.476522,-0.748811,69.266273,54.421334,-171.602757
09552,NaN,-10.828594,3.193310,3.041198,2.646045,2.105803,1.379573,-1.131049,0.505461,-0.994226,-0.205854,0.417643,-0.470759,-0.749390,68.711790,55.061708,-171.496103
09553,NaN,-10.481680,2.909592,2.909453,2.583558,2.026111,0.958324,-1.154296,0.164444,-0.990735,-0.206833,0.421766,-0.464542,-0.750689,67.874961,55.628575,-171.717953
09554,NaN,-9.963136,2.375585,2.701711,2.662957,1.969305,0.248905,-1.166918,-0.110779,-0.991423,-0.208419,0.424844,-0.457958,-0.752558,66.796291,56.133100,-172.221076
09555,NaN,-9.490268,2.084202,2.733020,2.513666,1.998156,-0.243690,-1.157429,-0.338558,-1.014911,-0.210619,0.427086,-0.451102,-0.754814,65.514303,56.591037,-172.972798
09556,NaN,-8.739718,1.858910,2.536037,2.285747,1.776883,-0.987370,-1.147820,-0.472281,-1.035376,-0.213210,0.428830,-0.444061,-0.757269,64.095146,57.017391,-173.890481
09557,NaN,-8.007783,1.672181,2.445639,2.005645,1.642519,-1.677567,-1.110582,-0.479578,-1.026094,-0.215843,0.430460,-0.437152,-0.759614,62.668901,57.424175,-174.838365
09558,NaN,-7.393462,1.624612,2.285404,1.729635,1.401813,-2.225332,-1.096050,-0.373847,-1.038512,-0.218316,0.432476,-0.430351,-0.761643,61.299397,57.853498,-175.723788
09559,NaN,-6.933361,1.722668,2.273673,1.364042,1.234281,-2.544695,-1.108310,-0.198884,-1.040970,-0.220376,0.435152,-0.423671,-0.763269,60.035760,58.321733,-176.472608
09560,NaN,-6.737745,1.761941,2.061372,1.271954,0.953675,-2.725886,-1.144148,0.002484,-1.032938,-0.221895,0.438593,-0.417060,-0.764500,58.887208,58.836685,-177.057814
09561,NaN,-6.539756,1.575848,2.039921,1.241820,0.971702,-2.962437,-1.162049,0.213496,-1.029894,-0.222903,0.442828,-0.410605,-0.765259,57.877797,59.407221,-177.466347
09562,NaN,-6.449611,1.506171,2.002885,1.185781,0.928938,-3.059330,-1.163544,0.442728,-1.046820,-0.223495,0.447948,-0.404327,-0.765449,57.021055,60.053648,-177.693837
09563,NaN,-6.832892,1.594047,2.016539,1.218482,0.856881,-2.665943,-1.175095,0.631855,-1.096393,-0.223845,0.453874,-0.398087,-0.765127,56.270973,60.781180,-177.790227
09564,NaN,-7.579473,1.960838,1.994611,1.232986,0.602754,-1.851086,-1.187365,0.750445,-1.059740,-0.223783,0.460160,-0.391975,-0.764545,55.615712,61.529326,-177.768950
09565,NaN,-8.531222,2.324894,1.994235,1.319256,0.367847,-0.852393,-1.199276,0.741932,-1.006367,-0.223480,0.466287,-0.385911,-0.764006,54.966379,62.249039,-177.734058
09566,NaN,-9.340447,2.811589,2.168949,1.147317,0.184016,0.112124,-1.215704,0.615332,-0.930724,-0.223088,0.471771,-0.379781,-0.763826,54.223032,62.892214,-177.794043
09567,NaN,-9.604035,3.006314,2.580863,0.798972,0.335420,0.540293,-1.217961,0.426330,-0.863137,-0.222767,0.476376,-0.373578,-0.764120,53.334654,63.439056,-178.015449
09568,NaN,-9.713837,3.305363,2.945269,0.345859,0.358836,0.850762,-1.230102,0.195515,-0.764988,-0.222471,0.479904,-0.367273,-0.765055,52.269032,63.860070,-178.425330
09569,NaN,-9.162180,3.376198,3.068857,-0.084863,0.312290,0.417484,-1.230224,0.018719,-0.683390,-0.222166,0.482580,-0.360959,-0.766464,51.080136,64.177256,-178.971595
09570,NaN,-8.270123,3.335712,3.035482,-0.478690,0.213463,-0.407342,-1.197356,-0.004892,-0.640325,-0.221817,0.485029,-0.354821,-0.767884,49.897468,64.462457,-179.529845
09571,NaN,-7.956864,3.234496,2.883168,-0.503511,0.083964,-0.766962,-1.123599,0.169840,-0.564199,-0.221026,0.487911,-0.349340,-0.768799,48.962774,64.774464,-179.859626
09572,NaN,-8.257111,3.433466,2.904945,-0.578835,-0.087925,-0.428444,-1.019540,0.418785,-0.487271,-0.219758,0.491483,-0.344697,-0.768983,48.362233,65.146296,-179.884877
09573,NaN,-8.891992,3.733292,2.770571,-0.497331,-0.426683,0.199864,-0.957934,0.578775,-0.432511,-0.218140,0.495489,-0.340600,-0.768698,47.987672,65.555153,-179.700845
09574,NaN,-9.429806,4.030867,2.526485,-0.390998,-0.835052,0.708800,-0.906331,0.595407,-0.368319,-0.216375,0.499378,-0.336857,-0.768330,47.707576,65.944176,-179.445653
09575,NaN,-9.477013,4.102052,2.566993,-0.504582,-0.878396,0.779931,-0.847720,0.530920,-0.324518,-0.214681,0.502866,-0.333379,-0.768047,47.441119,66.289645,-179.213563
09576,NaN,-9.597659,4.304498,2.714135,-0.733930,-0.936858,0.985168,-0.778020,0.402483,-0.276754,-0.213197,0.505695,-0.330133,-0.768005,47.128912,66.566145,-179.074989
09577,NaN,-9.682936,4.482778,2.707435,-0.849990,-1.095974,1.107979,-0.701498,0.240435,-0.212712,-0.211916,0.507705,-0.327174,-0.768299,46.762496,66.752191,-179.043973
09578,NaN,-9.638762,4.789988,2.618757,-1.031693,-1.408700,1.126173,-0.629089,0.096397,-0.132010,-0.210750,0.508948,-0.324532,-0.768919,46.365867,66.848541,-179.090508
09579,NaN,-9.330862,5.019969,2.614090,-1.302299,-1.611239,0.902085,-0.575367,-0.028362,-0.053278,-0.209610,0.509521,-0.322172,-0.769843,45.954169,66.862176,-179.187375
09580,NaN,-8.959333,5.243783,2.611319,-1.580383,-1.809286,0.618738,-0.534744,-0.111945,0.023532,-0.208418,0.509602,-0.320065,-0.770990,45.554047,66.811075,-179.296524
09581,NaN,-8.584483,5.536835,2.490254,-1.818093,-2.138207,0.320117,-0.538057,-0.112765,0.076795,-0.207006,0.509595,-0.318087,-0.772194,45.205423,66.737176,-179.348075
09582,NaN,-8.340479,5.610928,2.505733,-1.949932,-2.209834,0.119035,-0.544185,-0.015453,0.131959,-0.205214,0.509878,-0.316315,-0.773212,44.994993,66.680526,-179.244953
09583,NaN,-8.241487,5.739544,2.637122,-2.139531,-2.229370,0.100494,-0.558566,0.149494,0.186986,-0.202905,0.510722,-0.314804,-0.773881,44.985929,66.668125,-178.913964
09584,NaN,-8.368157,5.778753,2.886748,-2.268520,-2.092100,0.298212,-0.595662,0.318051,0.227744,-0.200080,0.512187,-0.313413,-0.774212,45.150173,66.707503,-178.370772
09585,NaN,-8.657749,5.618810,3.039749,-2.150748,-1.868617,0.562777,-0.627563,0.403979,0.253190,-0.196933,0.513969,-0.312053,-0.774388,45.405477,66.770096,-177.709155
09586,NaN,-8.835335,5.445061,3.138562,-2.037586,-1.668872,0.705179,-0.637469,0.420992,0.262929,-0.193698,0.515803,-0.310686,-0.774534,45.680727,66.834502,-177.019639
09587,NaN,-8.745109,5.212137,3.261668,-2.012558,-1.411621,0.591096,-0.633357,0.426066,0.279216,-0.190395,0.517620,-0.309382,-0.774662,45.983327,66.892686,-176.303596
09588,NaN,-8.804864,4.954863,3.187172,-1.781685,-1.263967,0.553717,-0.613162,0.432055,0.283337,-0.187120,0.519426,-0.308163,-0.774738,46.307662,66.950093,-175.576505
09589,NaN,-8.783531,4.822102,3.079908,-1.638767,-1.228362,0.468095,-0.610418,0.456175,0.277790,-0.183829,0.521324,-0.306963,-0.774727,46.656885,67.017552,-174.824727
09590,NaN,-8.678018,4.501992,3.061435,-1.480393,-0.994065,0.275353,-0.624142,0.498200,0.278068,-0.180437,0.523386,-0.305740,-0.774618,47.041615,67.099494,-174.025983
09591,NaN,-8.572726,4.248513,3.236584,-1.504325,-0.678199,0.151949,-0.629685,0.552739,0.273704,-0.176958,0.525664,-0.304532,-0.774354,47.480220,67.202221,-173.166159
09592,NaN,-8.836749,3.933254,3.376103,-1.332362,-0.320831,0.340071,-0.630350,0.571205,0.261057,-0.173497,0.528021,-0.303294,-0.774019,47.929711,67.314791,-172.294526
09593,NaN,-9.262273,3.751714,3.523359,-1.189030,-0.048643,0.716458,-0.614102,0.519630,0.242241,-0.170224,0.530185,-0.302024,-0.773763,48.326461,67.413215,-171.491064
09594,NaN,-9.299648,3.508196,3.574425,-1.087705,0.184653,0.692082,-0.578057,0.401383,0.221762,-0.167305,0.531882,-0.300729,-0.773739,48.605487,67.473580,-170.837631
09595,NaN,-9.207958,3.323398,3.412601,-0.910344,0.223326,0.511978,-0.534486,0.285726,0.189962,-0.164794,0.533139,-0.299423,-0.773920,48.764088,67.503011,-170.342064
09596,NaN,-9.114554,3.207523,3.259197,-0.773988,0.210518,0.353054,-0.498068,0.214252,0.162420,-0.162595,0.534123,-0.298118,-0.774210,48.842775,67.516823,-169.955370
09597,NaN,-8.808722,3.135849,3.294959,-0.880691,0.266731,0.058337,-0.473050,0.209178,0.104352,-0.160691,0.535153,-0.296753,-0.774421,48.879932,67.553757,-169.629479
09598,NaN,-8.836813,2.853682,3.233962,-0.677494,0.445608,-0.013009,-0.441210,0.260656,0.055927,-0.158985,0.536422,-0.295417,-0.774405,48.944018,67.630718,-169.294038
09599,NaN,-9.133365,2.898521,3.111432,-0.520194,0.354464,0.242386,-0.407530,0.302543,0.021699,-0.157436,0.537877,-0.294156,-0.774193,49.043805,67.738201,-168.941374
09600,NaN,-9.231124,2.779661,3.141585,-0.462935,0.473097,0.305195,-0.380112,0.316393,-0.013396,-0.156079,0.539409,-0.292910,-0.773874,49.142088,67.865671,-168.607304
09601,NaN,-9.593832,2.842776,2.938177,-0.238285,0.324135,0.608156,-0.361926,0.296472,-0.034871,-0.154879,0.540881,-0.291665,-0.773558,49.214130,67.994976,-168.313391
09602,NaN,-9.768396,2.839321,2.708630,-0.024541,0.194864,0.712585,-0.361203,0.239324,-0.060651,-0.153866,0.542163,-0.290302,-0.773375,49.200891,68.113835,-168.111826
09603,NaN,-9.567958,2.734507,2.739652,-0.085034,0.273109,0.504637,-0.372998,0.216032,-0.096642,-0.152991,0.543418,-0.288782,-0.773237,49.125033,68.239809,-167.970906
09604,NaN,-9.440260,2.624469,2.785151,-0.128531,0.366385,0.366339,-0.381958,0.226434,-0.129795,-0.152206,0.544761,-0.287139,-0.773059,49.022343,68.383944,-167.853172
09605,NaN,-9.319188,2.640289,2.727389,-0.163722,0.297055,0.244247,-0.409906,0.263157,-0.140949,-0.151333,0.546284,-0.285388,-0.772804,48.935647,68.546960,-167.701451
09606,NaN,-9.275380,2.487249,2.586073,-0.018979,0.317872,0.127401,-0.421423,0.315582,-0.152848,-0.150400,0.548028,-0.283593,-0.772412,48.887359,68.734747,-167.501289
09607,NaN,-9.407948,2.431259,2.489501,0.096403,0.306159,0.213028,-0.438399,0.382789,-0.157612,-0.149341,0.550050,-0.281773,-0.771846,48.903724,68.950101,-167.221943
09608,NaN,-9.596530,2.288307,2.383349,0.280872,0.366412,0.326188,-0.439955,0.423921,-0.147030,-0.148179,0.552208,-0.279999,-0.771174,48.977219,69.176125,-166.880593
09609,NaN,-9.652162,2.216811,2.484227,0.218752,0.485638,0.383685,-0.438738,0.432236,-0.137197,-0.146968,0.554382,-0.278265,-0.770474,49.077710,69.400992,-166.511931
09610,NaN,-9.689790,2.148857,2.547209,0.177635,0.577678,0.416315,-0.423622,0.401780,-0.136567,-0.145840,0.556419,-0.276561,-0.769833,49.154771,69.613831,-166.177766
09611,NaN,-9.623820,2.010634,2.466264,0.252731,0.631690,0.300670,-0.397586,0.357435,-0.140566,-0.144856,0.558270,-0.274917,-0.769268,49.197140,69.811802,-165.897227
09612,NaN,-9.465743,2.037774,2.325119,0.259436,0.508094,0.128812,-0.356196,0.327332,-0.160515,-0.144109,0.559995,-0.273347,-0.768713,49.207668,70.007007,-165.675905
09613,NaN,-9.343794,2.010865,2.035928,0.426012,0.343763,-0.055878,-0.314685,0.286852,-0.183155,-0.143616,0.561566,-0.271848,-0.768190,49.174654,70.196991,-165.526746
09614,NaN,-9.254386,2.124830,1.892863,0.418248,0.151159,-0.140891,-0.277537,0.252556,-0.202464,-0.143351,0.562999,-0.270406,-0.767700,49.099612,70.382458,-165.444727
09615,NaN,-9.214468,2.137258,1.716145,0.510028,0.023537,-0.212755,-0.239244,0.194311,-0.220784,-0.143339,0.564207,-0.269022,-0.767301,48.958455,70.554099,-165.456519
09616,NaN,-8.838903,2.160182,1.698873,0.365511,-0.052010,-0.563774,-0.182117,0.154204,-0.261271,-0.143700,0.565269,-0.267709,-0.766911,48.753151,70.728024,-165.570702
09617,NaN,-9.114213,2.231445,1.646772,0.432105,-0.136370,-0.296665,-0.116923,0.125673,-0.312741,-0.144477,0.566246,-0.266483,-0.766472,48.493400,70.913173,-165.782235
09618,NaN,-9.426054,2.432795,1.629206,0.414837,-0.309311,0.044058,-0.046084,0.050363,-0.337391,-0.145653,0.566910,-0.265399,-0.766134,48.145948,71.079767,-166.128959
09619,NaN,-9.520049,2.610059,1.581782,0.367442,-0.501639,0.165239,0.005289,-0.015141,-0.356040,-0.147129,0.567312,-0.264415,-0.765894,47.721718,71.228429,-166.587852
09620,NaN,-9.194042,2.675718,1.610421,0.189893,-0.594387,-0.122803,0.038035,-0.072775,-0.377798,-0.148860,0.567494,-0.263447,-0.765759,47.209831,71.362701,-167.158461
09621,NaN,-8.728478,2.674970,1.671049,-0.020594,-0.625644,-0.552978,0.053152,-0.077863,-0.435170,-0.150856,0.567720,-0.262374,-0.765570,46.627648,71.517283,-167.812126
09622,NaN,-8.898560,2.809580,1.748026,-0.121034,-0.716991,-0.346705,0.053593,-0.069226,-0.490871,-0.153057,0.568046,-0.261144,-0.765311,45.976704,71.696053,-168.537649
09623,NaN,-9.171250,2.836565,1.760181,-0.084082,-0.755568,-0.082424,0.046306,-0.091068,-0.500538,-0.155299,0.568306,-0.259846,-0.765109,45.271665,71.867375,-169.315228
09624,NaN,-9.270428,2.776231,2.009316,-0.238961,-0.600561,0.049750,0.043132,-0.130455,-0.488069,-0.157538,0.568394,-0.258534,-0.765030,44.515488,72.014463,-170.143755
09625,NaN,-8.908837,2.662451,2.259866,-0.502742,-0.425198,-0.266519,0.059946,-0.154887,-0.471780,-0.159790,0.568354,-0.257316,-0.765003,43.749498,72.141681,-170.992297
09626,NaN,-8.852450,2.678124,2.296596,-0.571203,-0.459082,-0.311350,0.083763,-0.163306,-0.433666,-0.161976,0.568207,-0.256285,-0.764999,43.023218,72.246846,-171.812700
09627,NaN,-8.405152,2.977687,2.138586,-0.756130,-0.848353,-0.713499,0.074332,-0.132512,-0.383939,-0.163902,0.568122,-0.255386,-0.764952,42.388336,72.342807,-172.531238
09628,NaN,-7.350269,3.356317,2.395124,-1.496532,-1.076255,-1.588945,-0.058423,0.077050,-0.330105,-0.164979,0.568873,-0.254301,-0.764524,41.993841,72.504858,-172.917117
09629,NaN,-7.966684,3.082571,2.889777,-1.581479,-0.560434,-0.952335,-0.216270,0.327623,-0.260365,-0.165019,0.570624,-0.253019,-0.763635,41.906135,72.746672,-172.886548
09630,NaN,-8.874727,3.031507,3.152278,-1.531937,-0.344940,-0.044284,-0.346868,0.411973,-0.192272,-0.164321,0.572712,-0.251498,-0.762725,41.940503,72.998110,-172.649795
09631,NaN,-9.298395,2.705341,3.128352,-1.255748,-0.083877,0.285902,-0.433223,0.415355,-0.143853,-0.163182,0.574820,-0.249789,-0.761944,42.003970,73.232648,-172.331418
09632,NaN,-9.246889,2.592231,2.865196,-1.041023,-0.149458,0.153644,-0.493368,0.431787,-0.114732,-0.161740,0.576995,-0.247944,-0.761210,42.098850,73.462537,-171.944488
09633,NaN,-9.428872,2.534527,2.423926,-0.647311,-0.348189,0.220382,-0.537908,0.470913,-0.111970,-0.160107,0.579348,-0.245968,-0.760409,42.232763,73.708094,-171.490924
09634,NaN,-9.711251,2.521809,1.980477,-0.248884,-0.576656,0.394936,-0.607738,0.506105,-0.116857,-0.158246,0.581885,-0.243735,-0.759580,42.373327,73.969771,-170.989186
09635,NaN,-10.187438,2.386973,2.036455,-0.138500,-0.415305,0.837986,-0.659287,0.505579,-0.122037,-0.156251,0.584461,-0.241289,-0.758796,42.488700,74.233285,-170.483770
09636,NaN,-10.578449,2.143167,2.149014,-0.042630,-0.139112,1.191570,-0.670801,0.406843,-0.140867,-0.154412,0.586681,-0.238660,-0.758290,42.439085,74.461896,-170.143288
09637,NaN,-10.850408,1.938139,2.406317,-0.112464,0.169401,1.467234,-0.638331,0.251755,-0.165972,-0.152945,0.588313,-0.235961,-0.758167,42.157610,74.635100,-170.063164
09638,NaN,-11.081752,1.557515,2.449604,0.082674,0.497485,1.631841,-0.490814,0.036913,-0.194210,-0.152272,0.589043,-0.233569,-0.758477,41.610490,74.727240,-170.345990
09639,NaN,-11.204562,1.787195,1.953384,0.403539,0.005037,1.693351,-0.309534,-0.244352,-0.249400,-0.152669,0.588632,-0.231489,-0.759354,40.689033,74.718254,-171.124646
09640,NaN,-10.444376,1.773862,1.719427,0.417619,-0.188625,0.910082,-0.253961,-0.346757,-0.295398,-0.153523,0.587836,-0.229402,-0.760431,39.587213,74.677409,-172.123232
09641,NaN,-10.437322,1.491192,1.753497,0.541513,0.016576,0.861692,-0.197803,-0.294990,-0.346328,-0.154674,0.587251,-0.227420,-0.761244,38.509816,74.673362,-173.130128
09642,NaN,-10.878503,1.365690,2.087174,0.452070,0.259064,1.335922,-0.123850,-0.292835,-0.381120,-0.156172,0.586651,-0.225614,-0.761938,37.418465,74.677149,-174.195271
09643,NaN,-10.509122,1.471287,2.531946,-0.054843,0.335939,1.091482,-0.081763,-0.391393,-0.395777,-0.157958,0.585657,-0.223851,-0.762854,36.206839,74.635476,-175.410391
09644,NaN,-9.883220,1.603861,2.909409,-0.580444,0.347014,0.591993,-0.077666,-0.483494,-0.416400,-0.159939,0.584323,-0.221964,-0.764014,34.857932,74.550172,-176.770559
09645,NaN,-9.501734,1.555354,2.954941,-0.673625,0.343735,0.230294,-0.119069,-0.509134,-0.401626,-0.161766,0.582906,-0.219943,-0.765296,33.499245,74.439835,-178.117055
09646,NaN,-9.464486,1.539746,2.686944,-0.432056,0.154400,0.134982,-0.130687,-0.523356,-0.372610,-0.163465,0.581401,-0.217945,-0.766650,32.186147,74.304839,-179.409947
09647,NaN,-9.010033,1.373169,2.508882,-0.299302,0.144250,-0.365461,-0.160246,-0.527075,-0.314903,-0.164857,0.579840,-0.215999,-0.768083,30.977065,74.143526,179.421750
09648,NaN,-8.539058,1.454661,2.764231,-0.650782,0.157028,-0.744939,-0.170747,-0.543751,-0.283909,-0.166118,0.578181,-0.214084,-0.769597,29.821354,73.957991,178.314364
09649,NaN,-8.476625,1.435816,2.611846,-0.508089,0.047405,-0.841853,-0.152041,-0.453974,-0.242219,-0.167172,0.576806,-0.212437,-0.770856,28.861581,73.800493,177.398668
09650,NaN,-9.009925,1.609613,2.437141,-0.285288,-0.235943,-0.348433,-0.105317,-0.291129,-0.187809,-0.167980,0.575955,-0.211258,-0.771640,28.188505,73.705963,176.753280
09651,NaN,-9.798232,1.876498,2.721291,-0.417171,-0.360347,0.513398,-0.104211,-0.260699,-0.166205,-0.168674,0.575200,-0.210175,-0.772348,27.590376,73.619581,176.184876
09652,NaN,-9.709370,1.817813,2.924119,-0.563491,-0.236154,0.470959,-0.143192,-0.291140,-0.168075,-0.169295,0.574356,-0.208906,-0.773184,26.944301,73.515910,175.589646
09653,NaN,-9.788152,1.744920,3.255596,-0.757891,-0.040394,0.621649,-0.173068,-0.329326,-0.177491,-0.169905,0.573401,-0.207464,-0.774146,26.241965,73.393666,174.953082
09654,NaN,-9.584040,1.609735,3.193742,-0.676891,0.010169,0.394497,-0.178899,-0.358904,-0.159501,-0.170460,0.572312,-0.206023,-0.775214,25.550987,73.248894,174.331569
09655,NaN,-9.540003,1.439618,2.935676,-0.371970,-0.011444,0.265195,-0.168821,-0.332818,-0.137030,-0.170927,0.571293,-0.204709,-0.776210,24.937867,73.110721,173.784750
09656,NaN,-9.673303,1.367958,2.873457,-0.227295,-0.017847,0.368117,-0.153623,-0.284345,-0.117597,-0.171314,0.570424,-0.203547,-0.777069,24.411817,72.990952,173.319626
09657,NaN,-9.737906,1.339925,2.914694,-0.210614,-0.003672,0.437834,-0.120343,-0.273112,-0.117510,-0.171781,0.569572,-0.202527,-0.777857,23.921890,72.876460,172.871902
09658,NaN,-9.769278,1.355153,2.854920,-0.142589,-0.076735,0.453738,-0.087900,-0.283323,-0.126599,-0.172388,0.568656,-0.201595,-0.778635,23.432239,72.756947,172.404876
09659,NaN,-9.732606,1.318913,2.749576,-0.030517,-0.126611,0.385658,-0.062840,-0.309889,-0.130868,-0.173108,0.567622,-0.200728,-0.779453,22.938807,72.623865,171.918384
09660,NaN,-9.682470,1.228670,2.573764,0.163464,-0.165874,0.278387,-0.054127,-0.325611,-0.131477,-0.173871,0.566514,-0.199876,-0.780308,22.444383,72.480721,171.425395
09661,NaN,-9.594277,1.109222,2.485973,0.289245,-0.132673,0.155222,-0.041552,-0.324511,-0.123304,-0.174635,0.565393,-0.199099,-0.781148,21.980931,72.335805,170.956804
09662,NaN,-9.545103,1.078981,2.546261,0.261263,-0.101275,0.120995,-0.032571,-0.312677,-0.120933,-0.175405,0.564302,-0.198371,-0.781949,21.540458,72.194937,170.506705
09663,NaN,-9.270791,0.982999,2.744804,0.084068,0.071158,-0.094889,-0.023988,-0.278124,-0.099708,-0.176079,0.563321,-0.197769,-0.782657,21.170303,72.067749,170.124841
09664,NaN,-9.442895,0.983588,2.856184,0.065201,0.095760,0.100940,-0.000369,-0.297280,-0.081933,-0.176770,0.562221,-0.197290,-0.783413,20.834812,71.925317,169.765044
09665,NaN,-9.354837,0.998041,2.925165,-0.001815,0.101057,0.038980,0.015419,-0.337034,-0.071589,-0.177503,0.560944,-0.196868,-0.784269,20.507703,71.759473,169.404094
09666,NaN,-9.286320,1.037287,3.040451,-0.110283,0.107931,0.012390,0.019818,-0.341610,-0.057405,-0.178197,0.559625,-0.196496,-0.785147,20.208187,71.587100,169.069343
09667,NaN,-9.496440,1.094771,3.046331,-0.051524,0.027244,0.220135,0.019661,-0.358027,-0.053469,-0.178890,0.558240,-0.196122,-0.786068,19.912495,71.405206,168.738237
09668,NaN,-9.577882,1.048520,3.047217,0.025045,0.040370,0.292677,0.040657,-0.361948,-0.048719,-0.179627,0.556810,-0.195837,-0.786985,19.638890,71.219120,168.417529
09669,NaN,-9.463087,0.975528,3.149369,-0.029407,0.142811,0.207236,0.067940,-0.320091,-0.038559,-0.180358,0.555513,-0.195727,-0.787761,19.427038,71.053895,168.145085
09670,NaN,-9.509354,1.046071,3.220208,-0.083450,0.099352,0.280623,0.082136,-0.259013,-0.037392,-0.181064,0.554436,-0.195728,-0.788357,19.261320,70.920540,167.912732
09671,NaN,-9.455836,1.225782,3.262945,-0.204716,-0.043271,0.262945,0.082615,-0.251365,-0.042504,-0.181783,0.553398,-0.195726,-0.788921,19.095998,70.792708,167.680181
09672,NaN,-8.850011,1.261425,3.185432,-0.337254,-0.083776,-0.329013,0.052042,-0.216272,-0.038405,-0.182367,0.552517,-0.195644,-0.789424,18.939559,70.682260,167.475570
09673,NaN,-8.761288,1.196187,3.138822,-0.282127,-0.055386,-0.433959,0.021796,-0.152133,-0.019131,-0.182728,0.551901,-0.195557,-0.789793,18.832319,70.603500,167.341215
09674,NaN,-8.581265,1.076957,3.076063,-0.221538,0.022434,-0.636058,-0.000631,-0.064028,0.016027,-0.182803,0.551615,-0.195555,-0.789976,18.812046,70.565313,167.312785
09675,NaN,-8.792779,0.986351,3.034339,-0.069649,0.063237,-0.459388,-0.027786,-0.006658,0.051121,-0.182607,0.551550,-0.195599,-0.790056,18.861359,70.552406,167.374503
09676,NaN,-8.984242,0.997263,2.867636,0.122122,-0.041703,-0.330187,-0.038405,0.028879,0.068027,-0.182282,0.551615,-0.195677,-0.790067,18.948018,70.554935,167.482422
09677,NaN,-9.452743,0.984271,2.881368,0.270527,-0.052557,0.114521,-0.034925,0.025519,0.062488,-0.181990,0.551672,-0.195753,-0.790075,19.027573,70.557288,167.580551
09678,NaN,-9.654747,0.903766,2.890285,0.372582,0.008624,0.298979,-0.010584,-0.042364,0.033589,-0.181947,0.551463,-0.195781,-0.790224,19.039650,70.527596,167.592472
09679,NaN,-9.490921,0.886601,2.844853,0.370525,0.010024,0.128109,0.006477,-0.080079,0.013126,-0.182067,0.551115,-0.195788,-0.790437,19.011432,70.481950,167.551140
09680,NaN,-9.635547,0.917853,2.865363,0.393044,-0.019840,0.274019,0.044811,-0.078850,0.007939,-0.182314,0.550736,-0.195931,-0.790609,18.996900,70.437302,167.501153
09681,NaN,-9.539583,1.010236,2.762566,0.406032,-0.147734,0.160742,0.076493,-0.112421,0.004792,-0.182692,0.550204,-0.196162,-0.790835,18.979469,70.375677,167.428664
09682,NaN,-9.321513,1.054660,2.633737,0.425748,-0.240062,-0.081265,0.072444,-0.130948,0.003174,-0.183084,0.549598,-0.196353,-0.791118,18.946799,70.303698,167.342566
09683,NaN,-9.156694,1.100296,2.717564,0.291901,-0.228386,-0.205217,0.050542,-0.109056,0.007480,-0.183377,0.549099,-0.196493,-0.791362,18.920967,70.243374,167.276889
09684,NaN,-9.041943,1.074179,2.854996,0.166956,-0.130539,-0.272421,0.024456,-0.096550,0.021230,-0.183532,0.548656,-0.196575,-0.791613,18.906524,70.186683,167.239310
09685,NaN,-8.665592,1.027540,2.929516,0.014798,-0.026042,-0.607825,0.015959,-0.069620,0.035760,-0.183579,0.548317,-0.196691,-0.791808,18.924100,70.142475,167.240797
09686,NaN,-8.531923,0.944723,3.099727,-0.118176,0.143547,-0.687999,-0.004997,0.001252,0.059362,-0.183406,0.548250,-0.196851,-0.791854,19.000412,70.131699,167.317636
09687,NaN,-8.509958,0.979907,3.143490,-0.178019,0.144145,-0.690809,-0.022944,0.082492,0.095876,-0.182958,0.548490,-0.197117,-0.791726,19.164388,70.158593,167.498475
09688,NaN,-8.899527,0.994358,3.190031,-0.096396,0.138956,-0.308057,-0.043524,0.125266,0.137624,-0.182248,0.548872,-0.197453,-0.791541,19.401141,70.199927,167.769305
09689,NaN,-9.097359,1.039710,3.315995,-0.156839,0.165241,-0.076834,-0.063258,0.102898,0.162535,-0.181406,0.549162,-0.197761,-0.791456,19.654133,70.224596,168.069217
09690,NaN,-9.771017,1.335595,3.792326,-0.465798,0.120193,0.742259,-0.166658,0.102500,0.115358,-0.180468,0.549587,-0.197527,-0.791435,19.776357,70.257254,168.293218
09691,NaN,-10.304483,0.708596,4.068525,-0.198924,0.767621,1.260188,-0.225468,0.062043,0.103475,-0.179453,0.549920,-0.196993,-0.791567,19.826690,70.270876,168.476465
09692,NaN,-9.418773,0.557940,4.006182,-0.374240,0.930700,0.388675,-0.263471,0.160255,0.134904,-0.178114,0.550639,-0.196481,-0.791497,19.955216,70.330592,168.765999
09693,NaN,-9.695310,0.209432,3.710641,0.111537,1.073836,0.514274,-0.265474,0.250282,0.132916,-0.176687,0.551721,-0.196037,-0.791173,20.132130,70.439493,169.107821
09694,NaN,-9.634908,0.428903,3.222950,0.352032,0.658742,0.328558,-0.296487,0.321804,0.138508,-0.175084,0.553101,-0.195545,-0.790687,20.341750,70.584741,169.503079
09695,NaN,-11.092594,0.593456,3.122216,0.811412,0.389986,1.691032,-0.329065,0.112438,0.103507,-0.173730,0.553719,-0.194647,-0.790775,20.364945,70.624832,169.720098
09696,NaN,-6.937420,1.383505,3.977155,-1.615548,0.373869,-1.868521,-0.482990,-0.299721,0.196151,-0.171987,0.552742,-0.193035,-0.792234,20.206684,70.424527,169.838473
09697,NaN,-5.939660,0.762338,3.500737,-1.254445,0.728221,-3.029479,-0.474456,0.351627,0.235093,-0.169480,0.554300,-0.192125,-0.791906,20.479406,70.566920,170.408727
09698,NaN,-10.434337,1.538675,3.025350,0.202393,-0.410097,1.150263,-0.371181,0.541039,0.180512,-0.167294,0.556563,-0.191628,-0.790904,20.843715,70.820191,171.012816
09699,NaN,-10.996857,1.465954,2.490745,0.829754,-0.617128,1.510489,-0.241250,0.151499,0.083710,-0.166223,0.557270,-0.191052,-0.790771,20.913583,70.884573,171.225652
09700,NaN,-10.585722,1.422253,2.363380,0.820014,-0.622249,1.077962,-0.133474,-0.090427,-0.027111,-0.166123,0.557032,-0.190388,-0.791120,20.730585,70.841428,171.105627
09701,NaN,-10.138828,1.320433,2.488454,0.632108,-0.465829,0.680890,-0.056116,-0.214950,-0.079314,-0.166561,0.556290,-0.189785,-0.791694,20.442013,70.742456,170.826643
09702,NaN,-9.635131,1.342688,2.423383,0.524759,-0.509453,0.186132,0.036924,-0.206915,-0.099103,-0.167331,0.555517,-0.189499,-0.792144,20.182284,70.650733,170.521738
09703,NaN,-9.727055,1.462457,2.379486,0.547425,-0.658596,0.271104,0.114183,-0.240050,-0.115434,-0.168409,0.554566,-0.189448,-0.792593,19.927553,70.544501,170.174853
09704,NaN,-9.289441,1.497274,2.683781,0.155537,-0.534687,-0.043957,0.148720,-0.282874,-0.116630,-0.169629,0.553413,-0.189491,-0.793129,19.669522,70.414364,169.803372
09705,NaN,-8.696349,1.481667,3.142471,-0.388554,-0.279167,-0.460254,0.162242,-0.269890,-0.120086,-0.170886,0.552304,-0.189591,-0.793608,19.426314,70.291897,169.438958
09706,NaN,-8.062189,1.438572,3.444024,-0.809421,-0.067628,-0.965658,0.160903,-0.185355,-0.107032,-0.172008,0.551515,-0.189791,-0.793866,19.248629,70.211665,169.144893
09707,NaN,-7.720274,1.308416,3.500349,-0.900985,0.089321,-1.283486,0.141499,-0.030454,-0.079392,-0.172818,0.551334,-0.190127,-0.793736,19.184868,70.210360,168.983494
09708,NaN,-7.829575,1.234424,3.524466,-0.854377,0.162222,-1.181835,0.086786,0.164551,-0.001178,-0.172983,0.551896,-0.190626,-0.793190,19.308698,70.299213,169.054900
09709,NaN,-8.059134,1.193137,3.498573,-0.753760,0.184207,-0.980299,0.033824,0.305650,0.058893,-0.172628,0.553008,-0.191205,-0.792352,19.571147,70.453347,169.305491
09710,NaN,-8.958931,1.162173,3.200488,-0.223740,0.027103,-0.231178,0.019109,0.328917,0.067772,-0.172175,0.554212,-0.191768,-0.791474,19.854402,70.617290,169.586989
09711,NaN,-9.474993,1.118212,3.172049,-0.036378,0.040548,0.241402,-0.027254,0.338678,0.061412,-0.171608,0.555502,-0.192140,-0.790601,20.112685,70.787909,169.869740
09712,NaN,-9.846360,1.161090,3.383519,-0.134787,0.104766,0.661944,-0.064161,0.303456,0.050106,-0.171018,0.556690,-0.192301,-0.789854,20.315383,70.940830,170.115905
09713,NaN,-9.937017,1.130066,3.379126,-0.108055,0.138201,0.742361,-0.055964,0.195230,0.038939,-0.170597,0.557458,-0.192374,-0.789385,20.446880,71.038237,170.281463
09714,NaN,-10.067548,1.200811,3.223623,0.014625,-0.000365,0.826345,-0.022604,0.074752,0.005913,-0.170516,0.557749,-0.192380,-0.789196,20.475260,71.076884,170.317871
09715,NaN,-9.728739,1.265823,3.127496,-0.051046,-0.086161,0.484005,-0.026923,-0.000815,-0.026446,-0.170623,0.557781,-0.192218,-0.789190,20.407639,71.082065,170.255259
09716,NaN,-9.586219,1.276604,3.302274,-0.245103,-0.005879,0.403486,-0.064851,-0.012466,-0.019267,-0.170607,0.557788,-0.191913,-0.789262,20.321486,71.078906,170.196174
09717,NaN,-9.359558,1.127242,3.372635,-0.301286,0.166073,0.193726,-0.071208,-0.042454,0.002484,-0.170516,0.557666,-0.191621,-0.789439,20.249705,71.055907,170.155985
09718,NaN,-8.660018,1.138436,3.337175,-0.498857,0.173458,-0.477285,-0.062356,-0.028276,0.005917,-0.170424,0.557584,-0.191382,-0.789575,20.195418,71.039201,170.129069
09719,NaN,-8.686494,1.239542,3.341024,-0.542723,0.083564,-0.439718,-0.076479,0.029898,0.003437,-0.170245,0.557751,-0.191134,-0.789556,20.163919,71.054900,170.134660
09720,NaN,-8.728705,1.292523,3.229130,-0.465901,-0.023003,-0.428094,-0.098608,0.009617,-0.015889,-0.170101,0.557870,-0.190724,-0.789602,20.076505,71.062837,170.094684
09721,NaN,-8.525287,1.333693,3.072983,-0.427338,-0.128019,-0.663727,-0.143618,0.060475,-0.008227,-0.169752,0.558225,-0.190203,-0.789551,20.005636,71.097289,170.099319
09722,NaN,-8.764731,1.335356,2.986201,-0.288518,-0.185897,-0.463715,-0.157104,0.126834,0.028033,-0.169159,0.558815,-0.189785,-0.789363,20.020957,71.159676,170.203347
09723,NaN,-8.672226,1.255218,3.133040,-0.412387,-0.034434,-0.516035,-0.195152,0.217959,0.065880,-0.168224,0.559764,-0.189401,-0.788982,20.128925,71.264303,170.428071
09724,NaN,-9.223974,1.237583,3.406702,-0.467991,0.091799,0.086377,-0.209664,0.182100,0.076538,-0.167240,0.560567,-0.188956,-0.788727,20.225055,71.346716,170.649089
09725,NaN,-9.331785,1.235174,3.638324,-0.633258,0.203955,0.257201,-0.224877,0.090478,0.055519,-0.166381,0.561046,-0.188319,-0.788721,20.227290,71.384666,170.779999
09726,NaN,-9.853150,1.040820,3.470805,-0.242691,0.262411,0.679529,-0.216405,-0.006444,0.018339,-0.165786,0.561165,-0.187527,-0.788950,20.116957,71.377158,170.787132
09727,NaN,-9.859741,0.936967,2.999781,0.199823,0.116636,0.533207,-0.176945,-0.100944,-0.006971,-0.165488,0.560907,-0.186743,-0.789382,19.935195,71.324470,170.694875
09728,NaN,-9.776772,0.963373,2.849392,0.292895,0.012758,0.412107,-0.131799,-0.120126,-0.040719,-0.165469,0.560561,-0.186025,-0.789801,19.714138,71.267178,170.533938
09729,NaN,-9.721504,0.941951,2.943684,0.215459,0.065709,0.385814,-0.086661,-0.122658,-0.057843,-0.165645,0.560189,-0.185437,-0.790167,19.492678,71.212333,170.345064
09730,NaN,-9.743075,0.892368,2.964283,0.235349,0.104166,0.407124,-0.031610,-0.108348,-0.074834,-0.166030,0.559838,-0.185028,-0.790430,19.283672,71.167520,170.136112
09731,NaN,-9.603955,1.038849,3.000861,0.097603,-0.012889,0.302184,0.008974,-0.115428,-0.104705,-0.166652,0.559458,-0.184693,-0.790647,19.048902,71.124940,169.875167
09732,NaN,-9.262087,0.865702,2.913185,0.147879,0.100534,-0.066388,0.026537,-0.139461,-0.131486,-0.167453,0.558987,-0.184330,-0.790895,18.768773,71.073230,169.555711
09733,NaN,-9.157930,0.900089,3.010876,0.021298,0.108271,-0.131209,0.039182,-0.075079,-0.131290,-0.168227,0.558765,-0.184073,-0.790948,18.533061,71.056669,169.275345
09734,NaN,-8.966375,1.018134,3.325156,-0.353384,0.154959,-0.203305,0.004222,-0.057608,-0.100405,-0.168767,0.558608,-0.183776,-0.791013,18.334637,71.042969,169.055697
09735,NaN,-8.878185,0.852256,3.363276,-0.335232,0.315151,-0.291741,-0.003685,-0.018021,-0.068656,-0.169121,0.558589,-0.183573,-0.790998,18.204057,71.045597,168.912427
09736,NaN,-8.850117,0.856036,3.345506,-0.334050,0.300750,-0.323339,0.002049,0.028207,-0.033694,-0.169312,0.558711,-0.183526,-0.790881,18.154968,71.066352,168.851993
09737,NaN,-8.994286,0.851074,3.344979,-0.290786,0.295708,-0.187803,0.010214,0.071573,-0.019262,-0.169427,0.558990,-0.183591,-0.790645,18.157179,71.108847,168.840709
09738,NaN,-9.165720,0.917618,3.193227,-0.150395,0.157048,-0.065798,0.020903,0.095017,0.003969,-0.169461,0.559325,-0.183781,-0.790356,18.213569,71.159220,168.880358
09739,NaN,-9.153955,1.027343,3.191693,-0.212677,0.066769,-0.066533,0.021452,0.104091,0.021296,-0.169417,0.559685,-0.184032,-0.790052,18.304288,71.212134,168.955783
09740,NaN,-9.387028,1.113961,3.081158,-0.095768,-0.069649,0.128978,0.031718,0.083519,0.034389,-0.169371,0.559938,-0.184339,-0.789811,18.410098,71.250719,169.041061
09741,NaN,-9.589579,1.209711,2.957581,0.022128,-0.219846,0.292850,0.049431,0.003582,0.028002,-0.169472,0.559871,-0.184634,-0.789768,18.474678,71.247709,169.071924
09742,NaN,-9.946344,1.266529,2.908369,0.153678,-0.314576,0.621386,0.072802,-0.099698,0.008374,-0.169812,0.559389,-0.184876,-0.789980,18.464851,71.191396,169.010202
09743,NaN,-10.026605,1.344822,2.784568,0.257437,-0.454139,0.666942,0.108320,-0.215734,-0.027635,-0.170500,0.558457,-0.185061,-0.790448,18.358315,71.079233,168.824601
09744,NaN,-10.031603,1.520754,2.668492,0.292002,-0.678147,0.652559,0.132770,-0.309295,-0.059645,-0.171470,0.557157,-0.185171,-0.791130,18.167450,70.921036,168.534983
09745,NaN,-9.805365,1.573907,2.742242,0.160571,-0.692421,0.465296,0.158827,-0.365508,-0.066957,-0.172592,0.555622,-0.185317,-0.791930,17.956733,70.733909,168.208102
09746,NaN,-9.703710,1.574578,2.892938,0.034713,-0.631948,0.415201,0.175260,-0.388117,-0.053864,-0.173729,0.553964,-0.185542,-0.792790,17.768640,70.531076,167.894959
09747,NaN,-10.009773,1.652625,3.096151,-0.032831,-0.642111,0.775009,0.185847,-0.458699,-0.041536,-0.174909,0.552007,-0.185783,-0.793838,17.577541,70.287928,167.571629
09748,NaN,-10.050416,1.703896,3.577519,-0.387269,-0.478104,0.973132,0.164912,-0.592021,-0.010026,-0.176031,0.549501,-0.185908,-0.795299,17.364850,69.965419,167.237637
09749,NaN,-9.754152,1.720435,3.610377,-0.454836,-0.482638,0.708615,0.160723,-0.816995,0.043780,-0.177132,0.546052,-0.185966,-0.797414,17.136702,69.510927,166.888784
09750,NaN,-7.185143,1.928283,3.143327,-0.989165,-0.713937,-1.829166,0.159276,-0.777285,0.064583,-0.178107,0.542728,-0.186104,-0.799431,16.966661,69.073563,166.602030
09751,NaN,-8.355970,1.665441,3.295765,-0.528531,-0.526195,-0.707656,0.142920,-0.506387,0.011071,-0.178997,0.540550,-0.186273,-0.800667,16.836902,68.794072,166.367689
09752,NaN,-9.078317,1.344691,3.779430,-0.465040,-0.086102,0.101158,0.137707,-0.412264,0.040698,-0.179666,0.538718,-0.186583,-0.801679,16.789179,68.560421,166.224309
09753,NaN,-9.142033,1.038240,3.971630,-0.410101,0.260039,0.196941,0.118941,-0.319672,0.079242,-0.180043,0.537241,-0.187006,-0.802487,16.825213,68.371907,166.182225
09754,NaN,-9.114533,1.069917,3.773953,-0.249508,0.135296,0.106060,0.110476,-0.218021,0.097912,-0.180226,0.536155,-0.187534,-0.803049,16.923838,68.235277,166.212773
09755,NaN,-9.087517,0.975574,3.426510,0.084951,0.049682,-0.052259,0.111591,-0.165089,0.104905,-0.180335,0.535279,-0.188134,-0.803469,17.054495,68.127222,166.277066
09756,NaN,-7.874507,1.020933,3.107829,-0.108024,-0.031108,-1.286487,0.126554,-0.036885,0.188974,-0.180025,0.534819,-0.189133,-0.803610,17.360423,68.074228,166.521157
09757,NaN,-8.069666,0.893571,3.100690,0.036934,0.078786,-1.122197,0.129912,0.145554,0.235112,-0.179365,0.535050,-0.190435,-0.803296,17.809089,68.113060,166.916934
09758,NaN,-8.868059,0.896344,3.230236,0.219742,0.103135,-0.335277,0.143745,0.234084,0.238974,-0.178643,0.535613,-0.191879,-0.802738,18.311510,68.197442,167.362017
09759,NaN,-9.826612,0.938859,3.356701,0.443807,0.083790,0.603989,0.156661,0.125135,0.233673,-0.178080,0.535737,-0.193265,-0.802448,18.767978,68.222977,167.749368
09760,NaN,-9.397346,1.054004,3.417840,0.191435,0.076295,0.240179,0.144061,-0.008447,0.249275,-0.177550,0.535314,-0.194522,-0.802544,19.175761,68.171402,168.092202
09761,NaN,-9.762337,0.978793,3.213905,0.537111,0.031706,0.497545,0.116133,-0.040636,0.203372,-0.177160,0.534836,-0.195516,-0.802707,19.489385,68.111068,168.350850
09762,NaN,-10.428537,1.040217,3.190975,0.784266,-0.067573,1.114301,0.076583,-0.077619,0.168730,-0.176839,0.534273,-0.196224,-0.802980,19.714052,68.036264,168.538268
09763,NaN,-10.378291,0.998721,3.402767,0.637923,0.086901,1.135858,0.032023,-0.139555,0.125894,-0.176632,0.533547,-0.196585,-0.803420,19.825733,67.936877,168.631354
09764,NaN,-9.508808,0.856254,3.558571,0.283325,0.354737,0.366109,0.025445,-0.127220,0.085778,-0.176556,0.532911,-0.196822,-0.803800,19.884882,67.851215,168.671988
09765,NaN,-9.340948,0.781861,3.619021,0.223514,0.463952,0.222088,0.068545,-0.074056,0.069193,-0.176609,0.532471,-0.197237,-0.803979,19.972564,67.798086,168.716669
09766,NaN,-9.225107,0.953998,3.507447,0.193821,0.272245,0.097065,0.100956,-0.071738,0.065498,-0.176762,0.532010,-0.197772,-0.804119,20.073996,67.746238,168.756285
09767,NaN,-9.237573,1.005493,3.319344,0.331714,0.135786,0.048009,0.124725,-0.094943,0.053158,-0.177049,0.531452,-0.198351,-0.804282,20.162119,67.684975,168.766691
09768,NaN,-9.096298,1.088670,3.056975,0.455889,-0.056108,-0.165826,0.137660,-0.117263,0.040284,-0.177446,0.530800,-0.198926,-0.804483,20.229074,67.613603,168.746330
09769,NaN,-8.783850,1.267156,3.078768,0.244887,-0.173020,-0.423832,0.116933,-0.094250,0.049024,-0.177728,0.530255,-0.199463,-0.804647,20.307228,67.553523,168.750791
09770,NaN,-8.685884,1.170435,3.120579,0.232640,-0.057531,-0.512415,0.097373,-0.047442,0.068125,-0.177836,0.529892,-0.200012,-0.804726,20.420541,67.514149,168.805556
09771,NaN,-8.713495,1.182726,3.173559,0.201007,-0.036433,-0.466374,0.074652,0.004377,0.075251,-0.177802,0.529754,-0.200536,-0.804694,20.555664,67.501738,168.897898
09772,NaN,-8.920807,1.420603,3.326567,0.043763,-0.169691,-0.188019,0.041717,0.017148,0.073699,-0.177675,0.529694,-0.200932,-0.804663,20.675260,67.495799,168.993995
09773,NaN,-8.839581,1.467307,3.425438,-0.083888,-0.147160,-0.221227,-0.010216,-0.009507,0.078726,-0.177416,0.529573,-0.201111,-0.804755,20.759246,67.475103,169.083634
09774,NaN,-8.675732,1.527887,3.650875,-0.348063,-0.068609,-0.283480,-0.047711,-0.004051,0.060185,-0.177128,0.529520,-0.201094,-0.804857,20.799616,67.460453,169.149448
09775,NaN,-8.711687,1.596911,3.901170,-0.562049,-0.000502,-0.151071,-0.072698,0.007523,0.064995,-0.176742,0.529536,-0.201000,-0.804955,20.838233,67.451612,169.228745
09776,NaN,-8.755360,1.618746,3.875060,-0.534819,-0.033757,-0.117039,-0.093009,0.028019,0.069241,-0.176265,0.529644,-0.200853,-0.805026,20.880006,67.452229,169.324186
09777,NaN,-8.926168,1.782921,3.871142,-0.548380,-0.186659,0.061798,-0.111372,0.026645,0.072910,-0.175725,0.529762,-0.200641,-0.805118,20.916037,67.451963,169.424678
09778,NaN,-8.910870,1.784370,3.799509,-0.497773,-0.222245,0.022285,-0.126776,0.019276,0.070467,-0.175163,0.529863,-0.200353,-0.805247,20.935754,67.447583,169.517186
09779,NaN,-9.044416,1.710670,3.764144,-0.381773,-0.185195,0.122934,-0.131057,0.018896,0.084327,-0.174533,0.529956,-0.200086,-0.805389,20.971356,67.440795,169.629432
09780,NaN,-8.921461,1.460979,3.756828,-0.297584,0.036958,-0.027455,-0.111186,0.031587,0.100705,-0.173877,0.530061,-0.199951,-0.805495,21.044997,67.436720,169.770663
09781,NaN,-9.071965,1.388128,3.880438,-0.302090,0.157823,0.145680,-0.075378,0.069693,0.098103,-0.173288,0.530296,-0.199988,-0.805458,21.155421,67.454134,169.929383
09782,NaN,-9.461013,1.292823,3.927610,-0.146925,0.244528,0.508499,-0.036623,0.052150,0.072607,-0.172922,0.530447,-0.200097,-0.805410,21.245985,67.466670,170.042662
09783,NaN,-9.591256,1.316111,4.023706,-0.183769,0.268152,0.666285,-0.027898,-0.016075,0.039907,-0.172779,0.530353,-0.200097,-0.805502,21.266029,67.450208,170.074056
09784,NaN,-9.261142,1.309368,3.881187,-0.188180,0.221250,0.309686,-0.042732,-0.079497,0.006125,-0.172797,0.530046,-0.199892,-0.805752,21.201780,67.406199,170.023502
09785,NaN,-8.824944,1.225854,3.712826,-0.175240,0.230211,-0.164697,-0.054187,-0.062801,-0.035172,-0.172933,0.529861,-0.199546,-0.805930,21.087202,67.380307,169.925400
09786,NaN,-8.759637,1.297054,3.715098,-0.234913,0.165448,-0.214095,-0.065014,-0.047698,-0.062983,-0.173139,0.529770,-0.199095,-0.806057,20.937686,67.367421,169.796283
09787,NaN,-8.807595,1.206961,3.744904,-0.194557,0.242887,-0.171218,-0.052828,-0.092583,-0.095093,-0.173550,0.529524,-0.198570,-0.806260,20.732952,67.337590,169.599620
09788,NaN,-8.649356,1.201004,3.796559,-0.287379,0.269118,-0.298877,-0.021685,-0.157445,-0.125987,-0.174232,0.529014,-0.198031,-0.806580,20.475123,67.278184,169.326133
09789,NaN,-8.749148,1.265221,3.750627,-0.235158,0.164151,-0.214078,0.001325,-0.232595,-0.131558,-0.175072,0.528191,-0.197506,-0.807066,20.190067,67.179727,169.008532
09790,NaN,-8.610915,1.221569,3.732245,-0.237899,0.180536,-0.353274,0.023481,-0.270079,-0.152297,-0.176091,0.527212,-0.196981,-0.807612,19.875849,67.063792,168.645380
09791,NaN,-8.759007,1.216524,3.657879,-0.105759,0.112424,-0.244180,0.033619,-0.272484,-0.163770,-0.177185,0.526229,-0.196466,-0.808140,19.555857,66.948728,168.269206
09792,NaN,-8.534031,1.150900,3.846193,-0.293444,0.259247,-0.389625,0.034653,-0.225951,-0.153098,-0.178193,0.525416,-0.196021,-0.808555,19.273228,66.855267,167.932846
09793,NaN,-8.556771,1.142597,3.914690,-0.324954,0.280489,-0.343560,0.023473,-0.156491,-0.135769,-0.179032,0.524882,-0.195641,-0.808809,19.039425,66.796288,167.656243
09794,NaN,-8.668811,1.159892,3.986751,-0.341387,0.276755,-0.210882,-0.013069,-0.111734,-0.118086,-0.179660,0.524538,-0.195197,-0.809000,18.826848,66.757097,167.425551
09795,NaN,-8.698037,1.185317,4.055558,-0.394214,0.272845,-0.154607,-0.042030,-0.076715,-0.107503,-0.180135,0.524356,-0.194697,-0.809132,18.627367,66.735394,167.226989
09796,NaN,-8.676909,1.258291,4.090440,-0.466171,0.216253,-0.151443,-0.075628,-0.043703,-0.098557,-0.180454,0.524324,-0.194112,-0.809223,18.433506,66.728946,167.055611
09797,NaN,-8.771833,1.197531,4.033396,-0.359096,0.219739,-0.093111,-0.089895,0.007395,-0.090958,-0.180654,0.524509,-0.193537,-0.809196,18.263223,66.749483,166.918671
09798,NaN,-8.963467,1.238559,4.029794,-0.310008,0.155781,0.086637,-0.091185,0.036378,-0.086150,-0.180805,0.524802,-0.192994,-0.809102,18.109356,66.783980,166.800563
09799,NaN,-8.966962,1.237068,4.060519,-0.340472,0.163293,0.101039,-0.101468,0.041815,-0.083102,-0.180909,0.525129,-0.192424,-0.809002,17.956027,66.821577,166.689347
09800,NaN,-8.987791,1.255572,3.921946,-0.242501,0.067224,0.070388,-0.103649,0.048450,-0.083462,-0.181004,0.525479,-0.191848,-0.808890,17.802576,66.861919,166.579526
09801,NaN,-9.058253,1.206009,3.748058,-0.064670,0.007951,0.064057,-0.102047,0.049335,-0.083774,-0.181103,0.525837,-0.191280,-0.808770,17.650266,66.903503,166.469844
09802,NaN,-9.137988,1.113135,3.604339,0.114428,0.001040,0.072658,-0.088589,0.059056,-0.079005,-0.181209,0.526212,-0.190786,-0.808619,17.514566,66.948637,166.370005
09803,NaN,-9.252158,0.945949,3.534202,0.284530,0.093434,0.132067,-0.071800,0.080648,-0.078747,-0.181337,0.526664,-0.190383,-0.808391,17.397793,67.006268,166.280183
09804,NaN,-9.669878,1.097799,3.558104,0.338778,-0.070888,0.543567,-0.067058,0.048976,-0.091796,-0.181561,0.526990,-0.189933,-0.808235,17.252929,67.047909,166.157065
09805,NaN,-9.328373,1.056017,3.539634,0.236285,-0.021748,0.217587,-0.082057,0.008582,-0.101150,-0.181821,0.527181,-0.189363,-0.808185,17.071493,67.069694,166.003462
09806,NaN,-9.213387,1.018156,3.694915,0.083004,0.086850,0.165343,-0.094220,0.004019,-0.119336,-0.182127,0.527375,-0.188690,-0.808147,16.856683,67.091016,165.821345
09807,NaN,-9.009912,1.075783,3.860855,-0.159567,0.125780,0.046355,-0.099996,0.003756,-0.120334,-0.182421,0.527581,-0.187992,-0.808109,16.637495,67.112887,165.637968
09808,NaN,-8.850673,1.021886,3.950460,-0.270212,0.218539,-0.072872,-0.092609,-0.002714,-0.125460,-0.182763,0.527752,-0.187303,-0.808080,16.412302,67.130964,165.443634
09809,NaN,-8.747506,1.086136,3.824015,-0.248268,0.097129,-0.207972,-0.074511,-0.003691,-0.129819,-0.183169,0.527912,-0.186677,-0.808028,16.191789,67.149710,165.243023
09810,NaN,-8.655085,0.996099,3.741840,-0.181024,0.130857,-0.333543,-0.043625,0.007493,-0.134958,-0.183668,0.528088,-0.186169,-0.807917,15.985412,67.174326,165.038711
09811,NaN,-8.594946,1.058752,3.828564,-0.310674,0.115454,-0.350019,-0.003543,0.030967,-0.133330,-0.184244,0.528326,-0.185852,-0.807704,15.813109,67.212173,164.846367
09812,NaN,-8.614274,1.070396,3.872785,-0.352187,0.117241,-0.314681,0.005333,0.031226,-0.115277,-0.184771,0.528534,-0.185616,-0.807501,15.668454,67.246325,164.678670
09813,NaN,-8.810251,1.018024,3.731890,-0.150374,0.065742,-0.192035,0.010449,0.030825,-0.107884,-0.185281,0.528734,-0.185422,-0.807298,15.536551,67.279785,164.521538
09814,NaN,-9.209306,0.888076,3.733042,0.054692,0.129426,0.163075,0.022704,0.007355,-0.122487,-0.185905,0.528835,-0.185215,-0.807136,15.382763,67.301525,164.333224
09815,NaN,-9.620728,0.754996,3.809647,0.209151,0.228451,0.557746,0.018343,-0.046620,-0.128038,-0.186588,0.528734,-0.184927,-0.807110,15.200104,67.294898,164.116210
09816,NaN,-9.299378,0.562560,3.913592,0.101815,0.468398,0.280941,0.034404,-0.031253,-0.113563,-0.187243,0.528660,-0.184755,-0.807047,15.050667,67.293533,163.925352
09817,NaN,-9.446110,0.473825,3.949720,0.167680,0.539835,0.421288,0.054051,0.030379,-0.095266,-0.187817,0.528805,-0.184770,-0.806815,14.959139,67.324239,163.784954
09818,NaN,-9.580891,0.509184,3.929310,0.209709,0.481088,0.541866,0.072990,0.038001,-0.079666,-0.188373,0.528942,-0.184908,-0.806564,14.900795,67.355961,163.668924
09819,NaN,-9.622723,0.489447,3.894134,0.258164,0.472576,0.565687,0.091684,-0.003377,-0.086324,-0.189042,0.528907,-0.185066,-0.806394,14.830292,67.366527,163.527999
09820,NaN,-9.527254,0.519782,3.799220,0.281379,0.403467,0.445521,0.107031,-0.049793,-0.100972,-0.189855,0.528678,-0.185201,-0.806322,14.732018,67.352618,163.347596
09821,NaN,-9.623001,0.610852,3.647217,0.392510,0.229492,0.486377,0.106526,-0.095599,-0.110749,-0.190746,0.528279,-0.185267,-0.806358,14.605647,67.315425,163.136883
09822,NaN,-9.407410,0.722791,3.576495,0.318390,0.110223,0.271932,0.112303,-0.145335,-0.106549,-0.191684,0.527663,-0.185318,-0.806527,14.470912,67.249049,162.913579
09823,NaN,-9.147455,0.710851,3.454166,0.330857,0.077731,-0.014882,0.119567,-0.106602,-0.095558,-0.192558,0.527192,-0.185466,-0.806593,14.369763,67.203231,162.721952
09824,NaN,-9.339472,0.778826,3.432833,0.388567,-0.019901,0.160540,0.146100,-0.055619,-0.065400,-0.193335,0.526867,-0.185847,-0.806532,14.340410,67.180551,162.591816
09825,NaN,-9.417787,0.959840,3.613637,0.188262,-0.094388,0.317960,0.174473,-0.041091,-0.035593,-0.194052,0.526550,-0.186437,-0.806430,14.372492,67.162493,162.510533
09826,NaN,-9.250891,1.113829,3.755552,-0.058746,-0.132336,0.232352,0.198071,-0.022980,-0.015179,-0.194732,0.526259,-0.187191,-0.806282,14.450282,67.150831,162.464313
09827,NaN,-9.327698,1.288502,3.990101,-0.298310,-0.165593,0.408402,0.214343,-0.013747,-0.001195,-0.195389,0.525980,-0.188059,-0.806103,14.559771,67.143088,162.442226
09828,NaN,-9.168538,1.496866,3.986982,-0.458049,-0.318725,0.281238,0.213884,-0.020704,0.004927,-0.196028,0.525662,-0.188931,-0.805951,14.673821,67.129840,162.425512
09829,NaN,-9.004741,1.672565,3.975670,-0.596489,-0.446634,0.143893,0.206170,-0.019244,0.019157,-0.196585,0.525349,-0.189814,-0.805812,14.803403,67.116119,162.430314
09830,NaN,-8.830737,1.771934,3.916112,-0.661592,-0.532487,-0.028192,0.195310,-0.028448,0.033126,-0.197068,0.524990,-0.190677,-0.805724,14.941060,67.094445,162.450765
09831,NaN,-8.623782,1.836320,3.796140,-0.674063,-0.614872,-0.256541,0.183346,-0.017368,0.057409,-0.197410,0.524670,-0.191570,-0.805638,15.108130,67.076071,162.510464
09832,NaN,-8.543722,1.785474,3.724804,-0.618028,-0.586849,-0.361185,0.169730,0.024072,0.091909,-0.197538,0.524490,-0.192537,-0.805493,15.326428,67.074524,162.634376
09833,NaN,-8.531684,1.711069,3.728912,-0.584115,-0.503987,-0.377278,0.149731,0.067130,0.132567,-0.197407,0.524469,-0.193574,-0.805290,15.602601,67.091151,162.833439
09834,NaN,-8.572684,1.498520,3.935540,-0.616290,-0.200931,-0.283536,0.126423,0.129827,0.164522,-0.197026,0.524687,-0.194661,-0.804979,15.930216,67.136131,163.102895
09835,NaN,-8.877227,1.317265,3.938831,-0.413365,-0.054791,-0.020813,0.110639,0.177409,0.200857,-0.196410,0.525081,-0.195828,-0.804590,16.316165,67.201700,163.445243
09836,NaN,-9.181677,1.239260,3.888913,-0.224353,-0.019428,0.232800,0.098616,0.186088,0.224342,-0.195660,0.525492,-0.197015,-0.804215,16.730893,67.266425,163.826210
09837,NaN,-9.432099,1.307447,3.939716,-0.208085,-0.048604,0.490203,0.070132,0.153429,0.216218,-0.194898,0.525812,-0.198035,-0.803939,17.108226,67.314435,164.184072
09838,NaN,-9.507828,1.231067,3.847476,-0.068184,-0.015352,0.517485,0.042735,0.095503,0.203300,-0.194174,0.525932,-0.198853,-0.803834,17.430040,67.331247,164.498797
09839,NaN,-9.438946,1.143846,3.714190,0.058737,0.015810,0.394837,0.033544,0.045517,0.186766,-0.193542,0.525882,-0.199543,-0.803848,17.705106,67.323839,164.768449
09840,NaN,-9.071286,1.176866,3.591246,0.005596,-0.021904,0.014303,0.029889,0.044361,0.188786,-0.192893,0.525822,-0.200221,-0.803875,17.979470,67.314095,165.039734
09841,NaN,-8.877312,1.112780,3.492483,0.047815,0.017615,-0.208534,0.023164,0.070769,0.198034,-0.192162,0.525871,-0.200923,-0.803843,18.273709,67.317415,165.336636
09842,NaN,-8.691972,1.115953,3.405409,0.047152,0.007013,-0.411080,0.007644,0.110615,0.218094,-0.191270,0.526069,-0.201652,-0.803744,18.602048,67.337291,165.680218
09843,NaN,-8.607220,1.121546,3.420323,0.001958,0.039895,-0.483214,-0.015256,0.142165,0.229416,-0.190240,0.526409,-0.202350,-0.803590,18.947237,67.372259,166.056092
09844,NaN,-8.730948,0.950955,3.319513,0.213339,0.142312,-0.427214,-0.028244,0.156003,0.228559,-0.189165,0.526811,-0.203005,-0.803415,19.290632,67.413170,166.438097
09845,NaN,-8.940721,0.912998,3.389900,0.255981,0.215589,-0.213238,-0.022651,0.144275,0.230429,-0.188108,0.527164,-0.203677,-0.803262,19.636145,67.447343,166.818706
09846,NaN,-9.181568,0.771445,3.348616,0.450886,0.314379,-0.024563,-0.032934,0.115640,0.208828,-0.187141,0.527426,-0.204222,-0.803177,19.934588,67.468624,167.154777
09847,NaN,-9.428053,0.827693,3.372593,0.497425,0.276856,0.218441,-0.028782,0.065707,0.184561,-0.186332,0.527515,-0.204675,-0.803192,20.181364,67.468007,167.432186
09848,NaN,-9.390692,0.890413,3.409136,0.427461,0.259458,0.204801,-0.049999,0.019867,0.146980,-0.185665,0.527471,-0.204899,-0.803318,20.344517,67.449034,167.632371
09849,NaN,-9.336417,1.079424,3.426017,0.302457,0.120362,0.185586,-0.079850,-0.010705,0.112876,-0.185088,0.527373,-0.204886,-0.803519,20.432246,67.421074,167.769301
09850,NaN,-9.050916,1.225840,3.485874,0.080599,0.053841,-0.037020,-0.108627,-0.038753,0.098182,-0.184523,0.527198,-0.204691,-0.803813,20.469962,67.380170,167.870092
09851,NaN,-8.806396,1.225836,3.374378,0.081669,0.016092,-0.302967,-0.124437,-0.036667,0.098105,-0.183913,0.527051,-0.204435,-0.804114,20.500079,67.341149,167.972353
09852,NaN,-8.659528,1.351945,3.289881,0.032897,-0.122008,-0.451997,-0.130460,-0.006427,0.102950,-0.183238,0.527021,-0.204194,-0.804349,20.546496,67.316592,168.096184
09853,NaN,-8.594996,1.434355,3.286242,-0.027573,-0.185935,-0.501652,-0.138538,0.031629,0.102561,-0.182504,0.527156,-0.203957,-0.804487,20.606792,67.313245,168.239946
09854,NaN,-8.716498,1.524164,3.325308,-0.056991,-0.248089,-0.363174,-0.163553,0.055710,0.097463,-0.181700,0.527411,-0.203625,-0.804587,20.657071,67.323030,168.388521
09855,NaN,-8.726922,1.470533,3.412306,-0.094642,-0.154812,-0.329411,-0.169477,0.067357,0.089027,-0.180901,0.527732,-0.203259,-0.804649,20.699676,67.341475,168.532303
09856,NaN,-8.806218,1.381902,3.542370,-0.123687,-0.014997,-0.221442,-0.164473,0.078676,0.078640,-0.180147,0.528098,-0.202895,-0.804670,20.736713,67.367299,168.667059
09857,NaN,-9.013430,1.448612,3.634911,-0.156004,-0.036158,0.012145,-0.158016,0.102325,0.073300,-0.179407,0.528564,-0.202565,-0.804612,20.783128,67.407593,168.807797
09858,NaN,-9.168427,1.390806,3.822290,-0.219662,0.100269,0.214575,-0.161391,0.067230,0.046761,-0.178800,0.528913,-0.202118,-0.804630,20.775746,67.433707,168.892467
09859,NaN,-9.009938,1.322447,3.936585,-0.338431,0.227413,0.099845,-0.159165,0.036731,0.018422,-0.178343,0.529171,-0.201579,-0.804697,20.718997,67.450006,168.922152
09860,NaN,-8.979106,1.264023,4.025821,-0.393948,0.320838,0.095450,-0.143456,0.021607,-0.002471,-0.178028,0.529369,-0.201033,-0.804773,20.636086,67.461669,168.913900
09861,NaN,-8.842890,1.312308,3.996710,-0.450048,0.268570,-0.034248,-0.139359,0.013133,-0.017195,-0.177791,0.529550,-0.200459,-0.804850,20.533102,67.472518,168.881238
09862,NaN,-8.661628,1.329869,3.960637,-0.502572,0.241423,-0.212264,-0.124314,0.017588,-0.035785,-0.177664,0.529748,-0.199898,-0.804887,20.415949,67.488667,168.824049
09863,NaN,-8.638748,1.375759,3.890473,-0.484366,0.161148,-0.252569,-0.117917,0.034903,-0.041172,-0.177558,0.530021,-0.199366,-0.804863,20.304477,67.515941,168.768910
09864,NaN,-8.746809,1.453411,3.859438,-0.463579,0.063379,-0.153733,-0.136108,0.022129,-0.042946,-0.177424,0.530254,-0.198742,-0.804893,20.173143,67.535836,168.703708
09865,NaN,-8.992754,1.357842,3.751435,-0.242500,0.062187,0.022146,-0.127665,-0.036978,-0.060862,-0.177443,0.530265,-0.198054,-0.805051,19.995876,67.528201,168.583424
09866,NaN,-9.072327,1.305670,3.749961,-0.184653,0.086215,0.088451,-0.104741,-0.096605,-0.088176,-0.177692,0.530037,-0.197331,-0.805324,19.767515,67.492763,168.393749
09867,NaN,-9.152870,1.271470,3.819035,-0.187505,0.126660,0.183585,-0.094902,-0.137781,-0.108678,-0.178089,0.529660,-0.196559,-0.805673,19.500562,67.439575,168.155987
09868,NaN,-9.171450,1.228965,3.571030,0.040963,0.016193,0.105786,-0.051184,-0.162648,-0.134947,-0.178733,0.529163,-0.195869,-0.806025,19.213645,67.376648,167.869511
09869,NaN,-9.830485,1.240022,3.289837,0.515194,-0.213870,0.612659,0.025048,-0.293596,-0.177251,-0.179877,0.528116,-0.195258,-0.806605,18.859889,67.250934,167.462913
09870,NaN,-8.661726,1.333313,3.701020,-0.280444,-0.015544,-0.303648,-0.000757,-0.226519,-0.181937,-0.180906,0.527361,-0.194589,-0.807031,18.517659,67.160708,167.084671
09871,NaN,-9.172199,1.204721,4.201607,-0.407553,0.281310,0.335653,-0.011484,-0.134795,-0.155322,-0.181708,0.526964,-0.194032,-0.807244,18.245942,67.115592,166.789298
09872,NaN,-8.872422,1.203028,4.364103,-0.642508,0.373408,0.120101,-0.016834,-0.127636,-0.117465,-0.182338,0.526558,-0.193557,-0.807481,18.023328,67.066280,166.550591
09873,NaN,-8.750001,1.134002,4.521084,-0.773078,0.508915,0.058078,-0.042943,-0.083081,-0.077182,-0.182692,0.526322,-0.193125,-0.807658,17.857721,67.034681,166.389832
09874,NaN,-8.733409,0.983489,4.461454,-0.656155,0.600044,0.003302,-0.058392,-0.033757,-0.033631,-0.182783,0.526251,-0.192789,-0.807764,17.759292,67.021322,166.311763
09875,NaN,-8.621640,1.277696,4.306337,-0.725368,0.274338,-0.122058,-0.083801,0.018996,-0.004279,-0.182637,0.526394,-0.192477,-0.807778,17.706588,67.032480,166.299032
09876,NaN,-9.020301,1.565054,4.189582,-0.629022,-0.071278,0.235550,-0.107034,0.031445,0.010672,-0.182358,0.526588,-0.192120,-0.807800,17.664153,67.046898,166.312054
09877,NaN,-8.818100,1.385163,3.978012,-0.452381,-0.006295,-0.050646,-0.115861,0.006336,0.046848,-0.181933,0.526660,-0.191801,-0.807925,17.653742,67.042252,166.365204
09878,NaN,-8.615624,1.606003,3.952305,-0.622696,-0.190694,-0.220774,-0.160626,0.118568,0.038703,-0.181316,0.527227,-0.191381,-0.807793,17.652586,67.099346,166.456382
09879,NaN,-9.245608,1.618300,4.134454,-0.543088,-0.165080,0.427999,-0.219812,0.151108,0.077890,-0.180352,0.527947,-0.190856,-0.807663,17.682707,67.168335,166.618124
09880,NaN,-9.215982,1.283663,4.043113,-0.326474,0.083665,0.327100,-0.234537,0.104745,0.098678,-0.179311,0.528466,-0.190282,-0.807691,17.711932,67.207387,166.788120
09881,NaN,-9.535429,1.070660,3.837046,0.056387,0.139466,0.520319,-0.192072,0.046522,0.096209,-0.178446,0.528720,-0.189822,-0.807824,17.739052,67.216038,166.929275
09882,NaN,-10.323787,1.085551,3.199678,0.852659,-0.258237,1.013356,-0.109828,-0.083126,0.072226,-0.178019,0.528393,-0.189514,-0.808205,17.727498,67.157134,166.977518
09883,NaN,-9.309032,1.082039,2.803758,0.799891,-0.364620,-0.070146,0.018584,-0.233001,0.112008,-0.177911,0.527314,-0.189698,-0.808890,17.779392,67.010470,167.014664
09884,NaN,-9.474646,1.272260,2.677454,0.891821,-0.609590,0.055916,0.060061,-0.200448,0.052916,-0.178122,0.526379,-0.189921,-0.809400,17.791548,66.890974,166.982971
09885,NaN,-9.289781,1.175122,2.817028,0.776202,-0.443170,-0.075250,0.095518,-0.147168,0.041901,-0.178418,0.525644,-0.190307,-0.809721,17.832529,66.803404,166.960371
09886,NaN,-10.193621,1.203721,3.175631,0.842691,-0.373401,0.892167,0.116931,-0.146665,0.002347,-0.178932,0.524923,-0.190675,-0.809989,17.835091,66.722180,166.882725
09887,NaN,-9.219026,1.295381,3.280901,0.356702,-0.317136,0.046568,0.110473,-0.197472,0.027271,-0.179375,0.523984,-0.191038,-0.810413,17.845755,66.609746,166.817745
09888,NaN,-8.529887,1.266298,3.480993,-0.036601,-0.130285,-0.514221,0.093523,-0.091607,0.071652,-0.179493,0.523440,-0.191541,-0.810620,17.944977,66.546414,166.859940
09889,NaN,-8.350315,1.360447,3.643269,-0.270926,-0.107322,-0.605784,0.047600,0.008129,0.116568,-0.179212,0.523305,-0.192068,-0.810645,18.115225,66.530246,167.008135
09890,NaN,-8.971575,1.539481,4.171621,-0.525893,-0.043726,0.186467,-0.051199,0.044420,0.136526,-0.178558,0.523380,-0.192276,-0.810692,18.268075,66.529262,167.199206
09891,NaN,-8.065616,1.462163,4.349848,-0.966366,0.195035,-0.585482,-0.119652,-0.203729,0.165682,-0.177844,0.522487,-0.192064,-0.811474,18.315691,66.388740,167.318253
09892,NaN,-7.998228,1.058356,3.740704,-0.307660,0.247771,-0.928511,-0.154334,0.037182,0.157089,-0.176844,0.522604,-0.191900,-0.811656,18.430824,66.379829,167.532866
09893,NaN,-10.083514,1.092329,3.699447,0.518753,0.031665,0.970920,-0.145569,0.223143,0.184927,-0.175574,0.523446,-0.192011,-0.811363,18.664198,66.467466,167.870824
09894,NaN,-10.190729,1.150182,3.829009,0.422696,0.057830,1.125920,-0.118248,0.151265,0.199542,-0.174385,0.523951,-0.192205,-0.811247,18.902133,66.512001,168.196643
09895,NaN,-9.388357,1.371160,3.566736,0.209937,-0.179193,0.319772,-0.086132,0.030146,0.236165,-0.173248,0.523908,-0.192522,-0.811444,19.153260,66.484393,168.516631
09896,NaN,-7.435204,1.900423,3.712666,-0.919235,-0.395249,-1.346489,-0.134372,0.127687,0.228599,-0.171921,0.524302,-0.192705,-0.811428,19.408811,66.509571,168.871719
09897,NaN,-9.965251,1.493929,4.117333,-0.058609,-0.024614,1.072459,-0.186537,0.203104,0.129407,-0.170786,0.525148,-0.192483,-0.811173,19.545885,66.594785,169.129963
09898,NaN,-10.359099,1.463613,4.275892,-0.014656,0.057160,1.489208,-0.212050,-0.073316,0.167936,-0.169695,0.524850,-0.192021,-0.811705,19.593718,66.522358,169.306988
09899,NaN,-8.531706,0.936844,3.990198,-0.241645,0.511428,-0.364439,-0.189079,-0.058759,0.171395,-0.168635,0.524593,-0.191674,-0.812173,19.665378,66.457899,169.495607
09900,NaN,-9.189005,0.872051,3.943155,0.089814,0.502329,0.211601,-0.148225,0.056131,0.153642,-0.167644,0.524779,-0.191542,-0.812290,19.788267,66.457854,169.714758
09901,NaN,-9.221449,0.936713,3.853066,0.144691,0.407603,0.215852,-0.129696,0.024572,0.138830,-0.166792,0.524841,-0.191421,-0.812453,19.889996,66.444364,169.899119
09902,NaN,-9.123623,0.968572,3.848581,0.098084,0.388604,0.128619,-0.127147,-0.007811,0.091228,-0.166171,0.524808,-0.191157,-0.812664,19.918977,66.421781,170.002692
09903,NaN,-9.180886,1.011037,3.751046,0.182322,0.299116,0.150168,-0.126959,-0.054395,0.049526,-0.165764,0.524632,-0.190747,-0.812957,19.876462,66.383087,170.028004
09904,NaN,-8.978088,0.987213,3.697937,0.162759,0.303089,-0.058866,-0.122465,-0.094166,0.039054,-0.165450,0.524294,-0.190292,-0.813346,19.805199,66.324165,170.019288
09905,NaN,-8.641626,1.075621,3.725569,-0.025731,0.256101,-0.344410,-0.109601,-0.086681,0.020724,-0.165236,0.523999,-0.189851,-0.813682,19.723095,66.273666,169.990522
09906,NaN,-8.620710,1.222623,3.783431,-0.142136,0.150976,-0.321491,-0.096542,-0.062845,0.023307,-0.165024,0.523782,-0.189486,-0.813950,19.661467,66.234676,169.976104
09907,NaN,-8.684681,1.362552,3.715055,-0.123274,-0.013044,-0.269811,-0.119781,-0.037615,0.042878,-0.164647,0.523673,-0.189101,-0.814186,19.622449,66.206362,170.000778
09908,NaN,-8.835173,1.311862,3.729384,-0.047987,0.023654,-0.133498,-0.140018,-0.018129,0.031931,-0.164244,0.523665,-0.188619,-0.814384,19.566123,66.189839,170.019376
09909,NaN,-9.365716,1.452096,3.796078,0.049076,-0.111583,0.396159,-0.121082,-0.087293,-0.013624,-0.164140,0.523408,-0.188040,-0.814704,19.435867,66.145526,169.945133
09910,NaN,-9.439490,1.363854,3.760853,0.159089,-0.071638,0.438048,-0.085754,-0.231265,-0.059580,-0.164452,0.522573,-0.187364,-0.815333,19.208004,66.031152,169.742091
09911,NaN,-9.233901,1.189064,3.975991,0.008389,0.175890,0.309378,-0.047187,-0.331168,-0.106478,-0.165148,0.521347,-0.186642,-0.816142,18.906619,65.871908,169.433966
09912,NaN,-9.069567,1.066934,4.183792,-0.137319,0.364947,0.224608,-0.015751,-0.429524,-0.139767,-0.166154,0.519717,-0.185878,-0.817152,18.546577,65.663861,169.041481
09913,NaN,-8.869036,1.034515,4.018289,-0.038894,0.296907,-0.025615,0.016616,-0.508921,-0.151908,-0.167365,0.517749,-0.185150,-0.818318,18.166586,65.414626,168.605839
09914,NaN,-8.542334,1.004397,3.817972,0.035547,0.221731,-0.404894,0.020731,-0.497057,-0.132582,-0.168497,0.515799,-0.184494,-0.819464,17.823570,65.166461,168.207599
09915,NaN,-8.387550,1.024981,3.847381,-0.029332,0.203469,-0.530363,0.020530,-0.388737,-0.102175,-0.169402,0.514269,-0.184009,-0.820348,17.563953,64.972100,167.900580
09916,NaN,-8.858228,0.902901,3.981035,0.143842,0.311224,-0.065152,-0.002836,-0.305957,-0.044586,-0.169935,0.513036,-0.183643,-0.821091,17.391540,64.811739,167.704371
09917,NaN,-8.916930,0.983578,4.269643,-0.072307,0.357733,0.115841,0.007896,-0.239187,-0.010274,-0.170292,0.512043,-0.183468,-0.821677,17.291971,64.682682,167.581504
09918,NaN,-9.113018,0.710046,4.770390,-0.234649,0.808778,0.463435,0.032751,-0.151525,0.016699,-0.170522,0.511357,-0.183536,-0.822041,17.269284,64.596096,167.528023
09919,NaN,-9.524823,0.952778,4.604324,-0.029015,0.475043,0.798783,0.069540,-0.185160,0.033701,-0.170806,0.510491,-0.183773,-0.822467,17.276227,64.489055,167.483796
09920,NaN,-9.307481,1.091344,4.388231,0.002776,0.266511,0.531670,0.084963,-0.204311,0.014645,-0.171226,0.509544,-0.184004,-0.822915,17.262755,64.373921,167.407290
09921,NaN,-8.846984,1.289457,4.400136,-0.275347,0.138849,0.147127,0.088306,-0.165507,0.029413,-0.171557,0.508746,-0.184323,-0.823268,17.282911,64.278362,167.365713
09922,NaN,-8.680611,1.442005,4.441215,-0.435010,0.041092,0.034436,0.077073,-0.101599,0.047834,-0.171726,0.508197,-0.184695,-0.823488,17.339231,64.213771,167.371600
09923,NaN,-8.479238,1.547132,4.596996,-0.679660,0.046351,-0.067977,0.045634,-0.069541,0.079071,-0.171656,0.507785,-0.185047,-0.823679,17.424889,64.162220,167.429896
09924,NaN,-8.615956,1.440641,4.402718,-0.411611,0.038063,-0.039091,0.021506,-0.051488,0.095214,-0.171442,0.507445,-0.185353,-0.823864,17.520192,64.116831,167.514490
09925,NaN,-8.807806,1.370880,4.324784,-0.227563,0.048905,0.092177,0.023426,-0.055027,0.097486,-0.171225,0.507094,-0.185672,-0.824053,17.618437,64.069941,167.600971
09926,NaN,-9.077977,1.406690,4.239951,-0.052978,-0.043356,0.304670,0.039742,-0.075465,0.089418,-0.171104,0.506646,-0.186018,-0.824276,17.708492,64.012333,167.668179
09927,NaN,-9.288626,1.399694,4.132090,0.136486,-0.104682,0.448028,0.063182,-0.110079,0.080396,-0.171109,0.506049,-0.186410,-0.824553,17.790014,63.938268,167.710787
09928,NaN,-9.474419,1.475162,4.058767,0.252954,-0.220866,0.594115,0.090519,-0.145368,0.062234,-0.171293,0.505293,-0.186837,-0.824881,17.853185,63.847223,167.715742
09929,NaN,-9.427748,1.512224,4.046067,0.243079,-0.254004,0.551496,0.101789,-0.169058,0.061155,-0.171531,0.504438,-0.187289,-0.825253,17.913768,63.744340,167.710426
09930,NaN,-9.446408,1.515679,4.081677,0.242298,-0.240991,0.583234,0.100984,-0.183738,0.075250,-0.171723,0.503502,-0.187758,-0.825678,17.983164,63.630098,167.715639
09931,NaN,-9.257432,1.550579,4.050419,0.189406,-0.266952,0.405094,0.105772,-0.189516,0.095223,-0.171848,0.502525,-0.188295,-0.826125,18.075594,63.510034,167.743328
09932,NaN,-9.168158,1.477445,4.139949,0.138685,-0.147627,0.352748,0.092532,-0.166871,0.128617,-0.171782,0.501614,-0.188877,-0.826559,18.203552,63.395467,167.819426
09933,NaN,-9.069459,1.451622,4.197346,0.085666,-0.080551,0.285141,0.091402,-0.148314,0.166151,-0.171539,0.500752,-0.189567,-0.826974,18.378020,63.285008,167.948179
09934,NaN,-8.785028,1.560411,4.191688,-0.065918,-0.140922,0.044168,0.056238,-0.111442,0.192275,-0.171066,0.500040,-0.190206,-0.827356,18.571781,63.188819,168.121409
09935,NaN,-8.300059,1.603399,4.190476,-0.284093,-0.121346,-0.382603,0.010769,-0.023547,0.206193,-0.170337,0.499723,-0.190769,-0.827568,18.785898,63.138345,168.346573
09936,NaN,-8.313144,1.624792,4.169973,-0.265203,-0.135792,-0.376153,-0.024351,0.075187,0.213498,-0.169396,0.499831,-0.191287,-0.827577,19.022539,63.138793,168.619777
09937,NaN,-8.213859,1.599434,4.134165,-0.268326,-0.104636,-0.483485,-0.085806,0.128974,0.238258,-0.168147,0.500195,-0.191660,-0.827525,19.271303,63.164018,168.945819
09938,NaN,-8.231500,1.577427,4.062286,-0.197352,-0.102792,-0.501485,-0.132733,0.183429,0.258588,-0.166645,0.500798,-0.191932,-0.827402,19.535371,63.213295,169.319210
09939,NaN,-8.129501,1.611242,3.931116,-0.164200,-0.165679,-0.642949,-0.182807,0.253224,0.291667,-0.164812,0.501703,-0.192140,-0.827172,19.835065,63.293857,169.764225
09940,NaN,-8.232116,1.570817,3.911056,-0.095535,-0.123283,-0.565680,-0.218839,0.331789,0.317548,-0.162706,0.502929,-0.192325,-0.826801,20.174399,63.409685,170.276492
09941,NaN,-8.490291,1.561029,3.955171,-0.025526,-0.085257,-0.317572,-0.245679,0.344931,0.327331,-0.160477,0.504226,-0.192436,-0.826421,20.518639,63.530092,170.810717
09942,NaN,-8.665140,1.463238,3.875834,0.142799,-0.022183,-0.209207,-0.272119,0.333042,0.331154,-0.158177,0.505480,-0.192434,-0.826099,20.850073,63.641105,171.347210
09943,NaN,-9.100696,1.129196,3.722365,0.591837,0.196586,0.064800,-0.241955,0.286418,0.325151,-0.156022,0.506528,-0.192505,-0.825850,21.177097,63.727878,171.858854
09944,NaN,-9.729155,1.545534,3.193146,1.085071,-0.435466,0.476835,-0.210142,0.115872,0.263598,-0.154365,0.506897,-0.192416,-0.825956,21.384838,63.734527,172.217140
09945,NaN,-9.096221,1.347441,3.299080,0.818032,-0.159428,-0.078924,-0.247314,0.033078,0.198373,-0.152962,0.507020,-0.191946,-0.826251,21.466468,63.711078,172.458367
09946,NaN,-9.046012,1.176508,3.308194,0.871014,0.005960,-0.148322,-0.258024,0.023007,0.206010,-0.151510,0.507096,-0.191440,-0.826589,21.544766,63.679761,172.702970
09947,NaN,-8.765791,0.900008,3.388496,0.811669,0.312856,-0.411926,-0.230961,0.073703,0.221356,-0.150014,0.507350,-0.191126,-0.826778,21.677243,63.672757,172.990569
09948,NaN,-9.515228,0.926189,3.346478,1.165434,0.240840,0.246142,-0.197928,0.042580,0.193822,-0.148746,0.507471,-0.190852,-0.826996,21.784663,63.654061,173.229321
09949,NaN,-9.679349,0.840280,3.359932,1.273353,0.320583,0.383429,-0.183457,-0.088411,0.145474,-0.147838,0.507091,-0.190420,-0.827492,21.792741,63.576551,173.347825
09950,NaN,-9.377162,0.745187,3.302618,1.242643,0.389753,0.071525,-0.185159,-0.198229,0.080893,-0.147299,0.506313,-0.189733,-0.828222,21.682852,63.453722,173.335930
09951,NaN,-9.151870,0.689865,3.455705,1.066950,0.508939,-0.077335,-0.184359,-0.247433,0.022772,-0.147047,0.505389,-0.188868,-0.829028,21.492531,63.317541,173.233336
09952,NaN,-9.031279,0.619355,3.403537,1.105600,0.536937,-0.219932,-0.149170,-0.265699,-0.005648,-0.147021,0.504386,-0.188060,-0.829827,21.285234,63.176838,173.089250
09953,NaN,-8.681253,0.646280,3.514714,0.870210,0.566883,-0.482286,-0.115473,-0.244985,-0.008182,-0.147069,0.503449,-0.187404,-0.830536,21.105694,63.048065,172.954244
09954,NaN,-8.488490,0.789399,3.653656,0.630864,0.501151,-0.572685,-0.078716,-0.207305,0.006233,-0.147116,0.502623,-0.186961,-0.831127,20.977821,62.935807,172.853680
09955,NaN,-8.503047,0.895153,3.557705,0.682592,0.353648,-0.583963,-0.030031,-0.175446,0.029591,-0.147156,0.501876,-0.186805,-0.831607,20.916788,62.836244,172.796543
09956,NaN,-8.580750,1.076306,3.692346,0.548673,0.245452,-0.428668,0.007983,-0.135012,0.036876,-0.147226,0.501257,-0.186852,-0.831957,20.900445,62.756338,172.765366
09957,NaN,-8.642728,1.328323,3.897118,0.321720,0.110663,-0.245402,0.033272,-0.132678,0.057014,-0.147271,0.500615,-0.187059,-0.832289,20.921587,62.674041,172.759793
09958,NaN,-8.475866,1.415640,4.060358,0.095278,0.116615,-0.309627,0.029096,-0.149229,0.045578,-0.147370,0.499914,-0.187205,-0.832660,20.920864,62.584775,172.732540
09959,NaN,-8.264812,1.543694,4.265390,-0.201468,0.107235,-0.387638,0.022819,-0.149722,0.036976,-0.147488,0.499226,-0.187306,-0.833029,20.908697,62.497454,172.696169
09960,NaN,-8.793680,1.496201,4.545021,-0.141693,0.241005,0.194633,0.002454,-0.165278,-0.016758,-0.147795,0.498535,-0.187173,-0.833418,20.822776,62.412304,172.590004
09961,NaN,-9.465864,1.717360,4.581316,0.062522,0.007196,0.842655,-0.032730,-0.295201,-0.054283,-0.148291,0.497367,-0.186707,-0.834132,20.630026,62.265474,172.385615
09962,NaN,-8.555076,1.734584,4.491258,-0.267858,-0.015835,0.000436,-0.064847,-0.385628,-0.069593,-0.148856,0.495854,-0.185998,-0.835090,20.370246,62.072355,172.126177
09963,NaN,-8.195311,1.797316,4.647434,-0.555411,-0.001294,-0.237535,-0.084132,-0.339621,-0.083663,-0.149387,0.494563,-0.185211,-0.835935,20.106811,61.906666,171.874425
09964,NaN,-8.232130,1.789157,4.782840,-0.617217,0.042526,-0.145125,-0.096998,-0.270844,-0.073383,-0.149781,0.493554,-0.184442,-0.836631,19.873180,61.775003,171.664750
09965,NaN,-7.969331,1.950299,4.839105,-0.835841,-0.077076,-0.324473,-0.108742,-0.227094,-0.063167,-0.150061,0.492731,-0.183686,-0.837232,19.661756,61.665050,171.487435
09966,NaN,-7.830907,2.056943,4.946394,-1.016478,-0.132189,-0.380286,-0.136525,-0.169682,-0.068232,-0.150242,0.492168,-0.182840,-0.837716,19.450079,61.586233,171.328023
09967,NaN,-8.190816,2.152037,5.014737,-0.930359,-0.231458,-0.017324,-0.168422,-0.171168,-0.071994,-0.150360,0.491630,-0.181853,-0.838225,19.217896,61.507559,171.165699
09968,NaN,-8.157514,2.340985,5.075178,-1.061702,-0.393192,0.010795,-0.196280,-0.213486,-0.083135,-0.150496,0.490940,-0.180687,-0.838857,18.944289,61.407141,170.974500
09969,NaN,-8.169493,2.511474,5.075468,-1.114755,-0.572657,0.048235,-0.235994,-0.233002,-0.078575,-0.150532,0.490198,-0.179353,-0.839571,18.648474,61.295420,170.783484
09970,NaN,-8.238136,2.520960,5.010779,-1.020811,-0.643771,0.080414,-0.249475,-0.222151,-0.068779,-0.150484,0.489496,-0.177992,-0.840278,18.359160,61.186717,170.608723
09971,NaN,-8.227443,2.544299,5.077368,-1.073161,-0.659972,0.104804,-0.238869,-0.173289,-0.044110,-0.150313,0.488973,-0.176775,-0.840870,18.118582,61.100424,170.482274
09972,NaN,-8.208217,2.648468,5.121991,-1.149941,-0.753217,0.123824,-0.231120,-0.121188,-0.013522,-0.149987,0.488630,-0.175701,-0.841352,17.929469,61.036186,170.409675
09973,NaN,-8.732175,2.587598,5.221404,-0.941823,-0.714959,0.618582,-0.192953,-0.096929,-0.011294,-0.149723,0.488363,-0.174814,-0.841739,17.773367,60.985363,170.349564
09974,NaN,-8.725228,2.530181,5.051842,-0.779732,-0.752699,0.525492,-0.116642,-0.150331,-0.002778,-0.149656,0.487801,-0.174227,-0.842199,17.652313,60.903109,170.279676
09975,NaN,-8.206156,2.841572,5.049687,-1.145677,-1.002502,0.116927,-0.107288,-0.142283,-0.005771,-0.149617,0.487273,-0.173679,-0.842624,17.537336,60.826430,170.210370
09976,NaN,-8.729853,2.320378,4.963577,-0.598811,-0.628141,0.457582,-0.066743,-0.088902,-0.021998,-0.149699,0.486948,-0.173301,-0.842875,17.446047,60.780884,170.141705
09977,NaN,-8.778565,2.335866,5.025283,-0.622391,-0.626019,0.531087,0.005669,-0.087499,-0.012968,-0.149917,0.486573,-0.173253,-0.843063,17.406221,60.735289,170.084281
09978,NaN,-8.663735,2.249130,4.970395,-0.591784,-0.564449,0.392943,0.064935,-0.067995,0.012381,-0.150157,0.486207,-0.173530,-0.843174,17.430691,60.695209,170.061757
09979,NaN,-8.863599,2.031916,4.985836,-0.407436,-0.378598,0.543049,0.115858,-0.097800,0.001198,-0.150592,0.485693,-0.173973,-0.843301,17.464782,60.641560,170.016652
09980,NaN,-8.777726,2.027449,4.920860,-0.383304,-0.394727,0.437733,0.146682,-0.183300,0.012006,-0.151132,0.484779,-0.174506,-0.843621,17.500608,60.538524,169.953353
09981,NaN,-8.135814,1.680835,4.587201,-0.272192,-0.175439,-0.328270,0.162996,-0.215433,0.052091,-0.151569,0.483688,-0.175183,-0.844028,17.575100,60.411858,169.923554
09982,NaN,-7.832416,1.917592,4.474110,-0.413165,-0.405210,-0.609067,0.177703,-0.185197,0.100919,-0.151809,0.482663,-0.176060,-0.844389,17.713480,60.292421,169.957648
09983,NaN,-7.060050,1.939872,4.467691,-0.777202,-0.350204,-1.277997,0.144482,-0.099968,0.172042,-0.151593,0.481966,-0.177035,-0.844622,17.926411,60.207778,170.099455
09984,NaN,-7.657728,1.833999,4.638288,-0.556856,-0.214202,-0.693364,0.097893,0.002056,0.222999,-0.150960,0.481683,-0.178012,-0.844692,18.191522,60.168517,170.332357
09985,NaN,-7.937028,1.780822,4.766064,-0.484650,-0.111125,-0.398028,0.074239,0.032298,0.282532,-0.149990,0.481498,-0.179056,-0.844750,18.508640,60.135227,170.640825
09986,NaN,-8.256613,1.640318,4.898773,-0.358104,0.073604,-0.079931,0.063586,0.038818,0.322565,-0.148820,0.481305,-0.180154,-0.844833,18.858557,60.096361,170.994378
09987,NaN,-8.203633,1.605371,5.100805,-0.510294,0.227677,-0.036047,0.062181,0.016607,0.349186,-0.147553,0.481000,-0.181295,-0.844985,19.224753,60.040261,171.367709
09988,NaN,-7.968784,1.638145,5.433163,-0.877300,0.394877,-0.077257,0.094109,0.002459,0.367864,-0.146297,0.480587,-0.182604,-0.845156,19.620297,59.970829,171.754153
09989,NaN,-8.142082,1.544545,5.618245,-0.876003,0.580226,0.144202,0.138941,-0.007232,0.338873,-0.145279,0.480131,-0.184025,-0.845282,20.009813,59.901373,172.104110
09990,NaN,-8.752109,1.611447,5.844456,-0.755110,0.611954,0.789626,0.183078,-0.033996,0.285478,-0.144617,0.479572,-0.185484,-0.845395,20.364030,59.826008,172.384397
09991,NaN,-9.432687,1.478322,6.038294,-0.484394,0.803913,1.445242,0.272112,-0.105615,0.241183,-0.144422,0.478691,-0.187162,-0.845558,20.702457,59.721204,172.587497
09992,NaN,-9.807616,1.618567,5.991908,-0.289207,0.663538,1.771264,0.355965,-0.219428,0.204350,-0.144689,0.477294,-0.189021,-0.845888,21.013252,59.561429,172.703322
09993,NaN,-9.676070,1.903740,5.855764,-0.331482,0.383487,1.645208,0.421426,-0.328629,0.186072,-0.145292,0.475409,-0.191035,-0.846394,21.304994,59.347750,172.753542
09994,NaN,-9.622267,2.040167,5.749986,-0.287212,0.242132,1.574641,0.471837,-0.391318,0.180449,-0.146096,0.473215,-0.193200,-0.846993,21.595839,59.100705,172.769392
09995,NaN,-9.449626,2.349228,5.664724,-0.389250,-0.033942,1.445660,0.506174,-0.437865,0.201375,-0.146937,0.470781,-0.195526,-0.847670,21.906621,58.825393,172.785420
09996,NaN,-9.375354,2.541938,5.565709,-0.377941,-0.218872,1.374122,0.517070,-0.474717,0.226229,-0.147732,0.468145,-0.197924,-0.848435,22.229170,58.524120,172.808141
09997,NaN,-9.163767,2.583701,5.668534,-0.518733,-0.165188,1.254635,0.535870,-0.496907,0.243976,-0.148516,0.465383,-0.200427,-0.849229,22.567310,58.208155,172.836419
09998,NaN,-8.824097,2.575834,5.875829,-0.779121,-0.006094,1.069291,0.575927,-0.508371,0.261730,-0.149326,0.462511,-0.203127,-0.850014,22.935508,57.881094,172.873347
09999,NaN,-8.693226,2.749891,6.062169,-0.991566,-0.024393,1.091423,0.608748,-0.542525,0.296354,-0.150098,0.459433,-0.206020,-0.850851,23.335773,57.529138,172.925925
10000,NaN,-8.864403,3.058581,5.824929,-0.790358,-0.383621,1.191397,0.624014,-0.632627,0.337326,-0.150819,0.455901,-0.208998,-0.851897,23.741274,57.119226,172.974732
10001,NaN,-8.408068,3.401742,5.458239,-0.844851,-0.797277,0.709180,0.634998,-0.728554,0.361077,-0.151561,0.451923,-0.212001,-0.853142,24.133312,56.654446,173.000015
10002,NaN,-7.212932,3.577411,5.397053,-1.452043,-0.864927,-0.268302,0.631584,-0.698683,0.390664,-0.152133,0.448024,-0.215072,-0.854327,24.551636,56.197088,173.059489
10003,NaN,-7.172453,3.493344,5.590078,-1.500828,-0.651638,-0.209623,0.644792,-0.538598,0.414352,-0.152458,0.444770,-0.218370,-0.855132,25.047011,55.818149,173.202899
10004,NaN,-7.823229,3.379643,5.774414,-1.147427,-0.453173,0.407203,0.701777,-0.472439,0.447997,-0.152688,0.441700,-0.222032,-0.855739,25.617215,55.463326,173.398164
10005,NaN,-7.821566,3.367325,5.730544,-1.043774,-0.408073,0.390165,0.769290,-0.496912,0.461947,-0.153033,0.438456,-0.225990,-0.856309,26.220467,55.092456,173.587290
10006,NaN,-7.763683,3.487197,5.637477,-0.997129,-0.496887,0.334952,0.812815,-0.542660,0.430716,-0.153653,0.434997,-0.230023,-0.856888,26.801392,54.703804,173.719647
10007,NaN,-7.678605,3.585789,5.620174,-1.007522,-0.529309,0.292225,0.833198,-0.600721,0.377372,-0.154610,0.431332,-0.233978,-0.857498,27.327979,54.299938,173.771439
10008,NaN,-7.781904,3.688978,5.659606,-0.945986,-0.551623,0.434157,0.849323,-0.679033,0.338682,-0.155852,0.427340,-0.237849,-0.858207,27.802355,53.865039,173.747736
10009,NaN,-7.876389,3.821902,5.639294,-0.857404,-0.634969,0.546220,0.873920,-0.784826,0.309137,-0.157395,0.422904,-0.241673,-0.859053,28.227714,53.385969,173.645404
10010,NaN,-7.612938,4.077012,5.618517,-1.032101,-0.800985,0.406849,0.892461,-0.890171,0.294410,-0.159160,0.417993,-0.245453,-0.860060,28.612443,52.856964,173.478409
10011,NaN,-7.218816,4.068451,5.604187,-1.162898,-0.736306,0.095651,0.922255,-0.947810,0.286202,-0.161088,0.412812,-0.249286,-0.861100,28.986159,52.303267,173.274769
10012,NaN,-7.119112,4.143818,5.928859,-1.368041,-0.570129,0.227571,0.946810,-0.999214,0.273854,-0.163174,0.407374,-0.253148,-0.862170,29.346414,51.726748,173.034684
10013,NaN,-7.156810,4.331777,6.005749,-1.380632,-0.646032,0.372039,0.936746,-1.087440,0.275864,-0.165336,0.401551,-0.256884,-0.863384,29.670626,51.107917,172.753841
10014,NaN,-7.119113,4.485828,5.893297,-1.300219,-0.802157,0.346061,0.915878,-1.199343,0.269224,-0.167616,0.395238,-0.260411,-0.864800,29.941006,50.434839,172.416373
10015,NaN,-7.232089,4.689365,5.791114,-1.150643,-1.013980,0.457504,0.879281,-1.320522,0.249906,-0.170058,0.388442,-0.263622,-0.866427,30.140444,49.709498,172.010317
10016,NaN,-6.837820,4.778087,5.768205,-1.310342,-1.051253,0.189044,0.829889,-1.429929,0.223965,-0.172646,0.381211,-0.266460,-0.868257,30.265942,48.936726,171.539488
10017,NaN,-5.954212,4.673205,5.721477,-1.685940,-0.901399,-0.519101,0.816179,-1.420831,0.178897,-0.175382,0.374076,-0.269140,-0.869984,30.368807,48.183574,171.043521
10018,NaN,-5.630867,4.643469,5.957077,-1.906857,-0.690295,-0.612596,0.833323,-1.290014,0.131238,-0.178167,0.367523,-0.271906,-0.871350,30.505284,47.508031,170.573935
10019,NaN,-5.996220,4.553299,6.189634,-1.643129,-0.501490,-0.218600,0.870770,-1.190463,0.086701,-0.181073,0.361422,-0.274823,-0.872387,30.676281,46.896959,170.117450
10020,NaN,-6.426296,4.916403,6.146182,-1.418253,-0.845973,0.213074,0.863872,-1.188063,0.064873,-0.184043,0.355336,-0.277661,-0.873366,30.838350,46.292753,169.649340
10021,NaN,-6.724698,4.970809,5.943335,-1.038426,-1.041201,0.340659,0.824800,-1.266238,0.033528,-0.187184,0.348979,-0.280182,-0.874456,30.943629,45.661698,169.128764
10022,NaN,-6.732102,4.932394,6.210963,-1.042939,-0.849086,0.503130,0.787331,-1.375886,-0.028589,-0.190668,0.342232,-0.282315,-0.875683,30.972125,44.993837,168.524281
10023,NaN,-6.534797,4.914319,6.561590,-1.229582,-0.599147,0.581375,0.785760,-1.468581,-0.072433,-0.194465,0.335132,-0.284255,-0.876966,30.960899,44.295083,167.857626
10024,NaN,-6.355112,4.838084,6.811775,-1.314137,-0.370118,0.595461,0.819222,-1.527749,-0.104093,-0.198521,0.327747,-0.286215,-0.878210,30.949361,43.574798,167.153941
10025,NaN,-6.296806,4.856303,7.008757,-1.331920,-0.262623,0.699771,0.880792,-1.555127,-0.140579,-0.202867,0.320221,-0.288331,-0.879300,30.960130,42.853503,166.422384
10026,NaN,-6.224516,4.862324,7.230717,-1.357183,-0.121750,0.808604,0.978688,-1.574898,-0.163309,-0.207476,0.312500,-0.290801,-0.880189,31.024311,42.127812,165.676297
10027,NaN,-6.149635,5.209602,7.070390,-1.402190,-0.471331,0.806101,1.068051,-1.600432,-0.165008,-0.212255,0.304562,-0.293605,-0.880900,31.143141,41.392716,164.925340
10028,NaN,-5.635449,5.748164,6.402954,-1.677492,-1.196133,0.264601,1.052613,-1.588218,-0.174184,-0.217008,0.296665,-0.296317,-0.881529,31.264610,40.665719,164.180268
10029,NaN,-5.024988,5.616301,5.991093,-1.786619,-1.234582,-0.433475,1.042664,-1.517220,-0.251871,-0.221969,0.289195,-0.298916,-0.881899,31.375809,39.999542,163.418192
10030,NaN,-5.123582,5.697909,6.264287,-1.773246,-1.127036,-0.140912,1.035780,-1.465320,-0.295508,-0.227010,0.281987,-0.301459,-0.882084,31.489378,39.371085,162.654821
10031,NaN,-5.552611,5.838284,6.449869,-1.511458,-1.199113,0.326085,1.043587,-1.536138,-0.329788,-0.232307,0.274499,-0.303876,-0.882238,31.585630,38.721227,161.847275
10032,NaN,-5.441616,5.876707,6.629216,-1.576981,-1.081583,0.406693,1.063590,-1.646361,-0.344296,-0.237833,0.266483,-0.306211,-0.882415,31.674023,38.021099,160.995579
10033,NaN,-5.258530,5.751480,7.193669,-1.711944,-0.571359,0.638252,1.135331,-1.695559,-0.374588,-0.243646,0.258198,-0.308726,-0.882416,31.791784,37.309194,160.112230
10034,NaN,-4.889863,5.965135,7.844390,-2.189289,-0.172354,0.967106,1.226712,-1.645226,-0.394858,-0.249555,0.250011,-0.311651,-0.882094,31.979302,36.627880,159.242315
10035,NaN,-4.521576,6.440565,7.561952,-2.548318,-0.553050,0.784839,1.311375,-1.554646,-0.398626,-0.255425,0.242113,-0.315018,-0.881421,32.243341,35.996320,158.407508
10036,NaN,-3.709332,6.563832,6.484247,-2.851230,-1.079156,-0.347298,1.315938,-1.335436,-0.414157,-0.260990,0.235158,-0.318642,-0.880371,32.562501,35.477034,157.649476
10037,NaN,-3.275467,6.725201,6.004898,-3.095690,-1.320989,-0.830095,1.215108,-1.032030,-0.469879,-0.266185,0.229756,-0.322118,-0.878975,32.874985,35.126640,156.973291
10038,NaN,-3.405933,6.577993,6.291085,-2.933921,-1.008700,-0.602782,1.099294,-0.795078,-0.542863,-0.271161,0.225636,-0.325306,-0.877346,33.152829,34.913661,156.345851
10039,NaN,-3.379965,6.411998,7.133364,-3.003525,-0.251070,-0.099902,0.968696,-0.649599,-0.549037,-0.275775,0.222347,-0.328087,-0.875711,33.385650,34.776672,155.769623
10040,NaN,-2.584827,6.183377,7.613112,-3.524291,0.551389,-0.317953,0.791556,-0.505797,-0.471331,-0.279597,0.219778,-0.330375,-0.874286,33.577104,34.683433,155.295268
10041,NaN,-2.081404,5.780134,8.353482,-3.763794,1.545519,-0.274981,0.610354,-0.282968,-0.304214,-0.282125,0.218175,-0.332349,-0.873126,33.767422,34.646821,155.002674
10042,NaN,-1.890448,5.652642,9.144989,-3.956858,2.291591,0.099362,0.395977,0.006637,-0.083052,-0.282960,0.217749,-0.334044,-0.872315,33.973411,34.675848,154.951514
10043,NaN,-1.787432,5.623951,9.738629,-4.125277,2.799740,0.424895,0.151990,0.347414,0.201921,-0.281725,0.218697,-0.335456,-0.871936,34.207320,34.777566,155.196910
10044,NaN,-2.144927,5.404578,9.677405,-3.726613,2.798099,0.470558,-0.062210,0.750407,0.506445,-0.278239,0.221169,-0.336839,-0.871898,34.512597,34.967857,155.778921
10045,NaN,-2.836226,5.117198,9.530321,-3.042187,2.671421,0.611569,-0.250926,1.139242,0.811318,-0.272561,0.225098,-0.338257,-0.872137,34.901748,35.241561,156.693384
10046,NaN,-3.276546,4.532696,9.397651,-2.381586,2.844107,0.474937,-0.367510,1.516510,1.107346,-0.264793,0.230292,-0.339998,-0.872497,35.420410,35.585501,157.937961
10047,NaN,-3.683741,4.113758,9.060986,-1.823120,2.807252,0.256510,-0.447419,1.846762,1.358182,-0.255258,0.236604,-0.342070,-0.872840,36.068002,35.991624,159.471628
10048,NaN,-3.774721,3.912128,8.266285,-1.531841,2.419268,-0.342526,-0.524260,2.125619,1.589786,-0.244094,0.243772,-0.344389,-0.873149,36.838147,36.428907,161.270512
10049,NaN,-3.583271,3.884688,6.967555,-1.411650,1.633484,-1.338296,-0.648119,2.389369,1.796248,-0.231383,0.251861,-0.346663,-0.873414,37.696502,36.897276,163.318047
10050,NaN,-3.162818,3.452006,6.130105,-1.332398,1.485042,-2.361773,-0.795803,2.769498,1.957785,-0.217050,0.261409,-0.348847,-0.873419,38.656845,37.450295,165.649400
10051,NaN,-3.023643,2.943182,5.724796,-1.130943,1.633089,-2.984048,-0.940159,3.222692,2.048822,-0.201276,0.272869,-0.350886,-0.872874,39.731688,38.141837,168.270491
10052,NaN,-3.382240,3.010699,5.601059,-0.975410,1.525391,-2.841670,-1.137230,3.680502,2.085771,-0.184172,0.286317,-0.352429,-0.871721,40.897365,38.975748,171.174077
10053,NaN,-3.936552,3.158448,5.817293,-0.863976,1.608664,-2.331020,-1.421528,4.064641,2.073357,-0.165953,0.301598,-0.352881,-0.870042,42.088001,39.935838,174.317908
10054,NaN,-5.381834,2.977607,6.208397,-0.031494,2.022996,-1.311220,-1.691161,4.220561,1.998110,-0.147271,0.317710,-0.351968,-0.868038,43.235585,40.937696,177.570181
10055,NaN,-7.876793,2.646621,6.477723,1.640853,2.537375,0.280344,-1.991473,4.004579,1.904706,-0.128820,0.333105,-0.349231,-0.866305,44.189790,41.844923,-179.271875
10056,NaN,-9.811476,2.163669,6.353844,3.091775,3.027927,1.258911,-2.299011,3.511245,1.779125,-0.111180,0.346571,-0.344442,-0.865383,44.812312,42.564845,-176.394212
10057,NaN,-9.956750,1.478612,6.187405,3.312583,3.622128,0.934677,-2.576889,3.075701,1.658804,-0.094285,0.358370,-0.337830,-0.865189,45.117312,43.142935,-173.785335
10058,NaN,-9.395010,0.654634,5.693965,3.254838,4.032358,-0.104186,-2.732974,2.844306,1.573105,-0.077821,0.369198,-0.330123,-0.865249,45.245862,43.652065,-171.328134
10059,NaN,-8.991771,0.364141,5.115508,3.164516,3.978154,-0.795668,-2.828832,2.799672,1.452991,-0.061746,0.379928,-0.321617,-0.865104,45.288779,44.192484,-168.939896
10060,NaN,-8.374775,0.275275,4.645158,2.803342,3.787732,-1.471323,-2.901307,2.906075,1.277893,-0.046086,0.391227,-0.312346,-0.864441,45.296344,44.843610,-166.566620
10061,NaN,-8.354678,0.128509,4.005542,2.999328,3.630492,-1.832795,-2.929600,3.021811,1.097407,-0.030955,0.403155,-0.302487,-0.863139,45.306005,45.617385,-164.198618
10062,NaN,-10.079740,0.004694,3.439540,4.321842,3.860561,-0.877263,-2.897506,2.827859,0.889986,-0.017059,0.414353,-0.292175,-0.861774,45.208543,46.396221,-162.034385
10063,NaN,-11.186425,-0.252235,3.239261,4.995456,4.320011,-0.217473,-2.883688,2.477362,0.643350,-0.004764,0.424257,-0.281272,-0.860737,44.903380,47.140845,-160.195163
10064,NaN,-10.827001,-0.570753,3.320941,4.533300,4.626172,-0.505684,-2.837282,2.139992,0.403184,0.005928,0.432881,-0.269945,-0.860063,44.395381,47.851628,-158.686684
10065,NaN,-10.622874,-0.847804,3.287131,4.260029,4.840440,-0.713963,-2.690449,1.915703,0.238464,0.015288,0.440659,-0.258830,-0.859414,43.819060,48.547361,-157.401357
10066,NaN,-10.398733,-0.731075,3.268559,3.900678,4.690271,-0.749926,-2.508540,1.733475,0.073705,0.023299,0.447753,-0.248070,-0.858741,43.197843,49.239784,-156.325541
10067,NaN,-9.926574,-0.443630,2.899679,3.665818,4.160709,-1.072605,-2.339762,1.610191,-0.068364,0.030164,0.454435,-0.237689,-0.857953,42.561681,49.945051,-155.409660
10068,NaN,-9.727472,-0.329184,2.463784,3.712044,3.826134,-1.304971,-2.108669,1.517848,-0.185103,0.035885,0.460795,-0.227991,-0.856972,41.960044,50.661412,-154.628391
10069,NaN,-10.056533,0.027055,1.933772,4.127682,3.389988,-1.075284,-1.887643,1.401134,-0.302977,0.040456,0.466773,-0.218968,-0.855885,41.378137,51.378954,-153.994705
10070,NaN,-10.193304,0.302626,1.656044,4.264802,3.059435,-0.913971,-1.678521,1.233112,-0.430736,0.043799,0.472143,-0.210532,-0.854891,40.764801,52.075378,-153.557832
10071,NaN,-9.900790,0.623366,1.472865,4.104551,2.591896,-1.036756,-1.531470,1.092933,-0.531097,0.046218,0.477016,-0.202513,-0.853995,40.114064,52.751687,-153.280577
10072,NaN,-9.422222,0.761632,1.221545,3.944213,2.212566,-1.422388,-1.421727,1.030860,-0.615506,0.047941,0.481681,-0.194740,-0.853090,39.436992,53.433083,-153.115416
10073,NaN,-9.368816,1.008701,0.681910,4.256859,1.766547,-1.565589,-1.340436,1.006629,-0.699867,0.049087,0.486314,-0.187117,-0.852101,38.740034,54.135780,-153.036050
10074,NaN,-9.118932,1.421974,0.300408,4.328489,1.162011,-1.739265,-1.296545,1.026398,-0.765596,0.049853,0.491055,-0.179483,-0.850979,38.021649,54.871100,-153.012766
10075,NaN,-9.034256,1.619176,0.174684,4.295888,0.869066,-1.746764,-1.246227,1.054296,-0.817682,0.050303,0.495943,-0.171931,-0.849677,37.304031,55.637612,-153.025671
10076,NaN,-8.852213,1.922899,0.336535,3.964528,0.515261,-1.677051,-1.183954,0.969198,-0.864653,0.050312,0.500478,-0.164518,-0.848484,36.526974,56.381226,-153.151503
10077,NaN,-8.434982,2.339939,0.711429,3.336562,0.033874,-1.688907,-1.154445,0.840069,-0.867474,0.050135,0.504445,-0.157261,-0.847520,35.684279,57.064900,-153.376695
10078,NaN,-8.233634,2.623292,0.952587,2.956881,-0.309624,-1.643106,-1.088145,0.681052,-0.900029,0.049514,0.507743,-0.150214,-0.846865,34.747733,57.683150,-153.755249
10079,NaN,-8.250580,3.062620,0.947994,2.899695,-0.808034,-1.488712,-1.007810,0.539965,-0.907521,0.048559,0.510445,-0.143533,-0.846455,33.759774,58.233271,-154.247836
10080,NaN,-7.881487,3.435516,1.148466,2.496434,-1.295432,-1.607286,-0.919931,0.417626,-0.885802,0.047371,0.512606,-0.137285,-0.846253,32.747809,58.713655,-154.823534
10081,NaN,-7.451791,4.090852,1.196704,2.191165,-2.091972,-1.780363,-0.854207,0.408134,-0.846631,0.046181,0.514698,-0.131428,-0.845978,31.782042,59.171882,-155.387784
10082,NaN,-7.211896,4.453259,1.099840,2.119674,-2.586619,-1.947038,-0.752886,0.549826,-0.845433,0.044818,0.517388,-0.125949,-0.845244,30.920574,59.694765,-155.894203
10083,NaN,-7.728486,4.776889,1.063712,2.331988,-2.873507,-1.447058,-0.652335,0.747752,-0.837661,0.043359,0.520915,-0.120882,-0.843893,30.205312,60.309082,-156.296635
10084,NaN,-7.990877,5.100349,1.238523,2.218514,-3.181896,-1.074582,-0.554950,0.932767,-0.835355,0.041758,0.525216,-0.116171,-0.841967,29.615840,61.012699,-156.615076
10085,NaN,-8.048938,5.268504,1.071457,2.307438,-3.431831,-1.061240,-0.487485,1.108150,-0.812150,0.040186,0.530232,-0.111778,-0.839491,29.160680,61.795508,-156.823356
10086,NaN,-8.936902,5.470647,0.858257,2.780219,-3.567421,-0.321884,-0.462138,1.212532,-0.839659,0.038478,0.535676,-0.107378,-0.836685,28.726994,62.637915,-157.021317
10087,NaN,-9.154615,5.465704,0.914312,2.716873,-3.593444,-0.105928,-0.464492,1.211341,-0.847615,0.036749,0.541088,-0.102954,-0.833831,28.268177,63.480735,-157.245332
10088,NaN,-8.845217,5.226612,1.287256,2.156613,-3.446472,-0.289992,-0.536521,1.240328,-0.890490,0.035041,0.546594,-0.098090,-0.830894,27.713259,64.349301,-157.528034
10089,NaN,-8.807340,5.127186,1.458475,1.887895,-3.418848,-0.287439,-0.635118,1.231328,-0.860345,0.033729,0.551997,-0.092906,-0.827968,27.104414,65.203565,-157.806558
10090,NaN,-8.388749,4.647427,1.734773,1.393812,-3.069601,-0.668703,-0.726269,1.322664,-0.902050,0.032529,0.557741,-0.087197,-0.824781,26.413141,66.114410,-158.115713
10091,NaN,-8.922178,4.419204,2.238745,1.034191,-2.805039,-0.055279,-0.820275,1.324512,-0.907243,0.031574,0.563436,-0.081088,-0.821564,25.626911,67.025313,-158.468020
10092,NaN,-9.318438,4.151437,2.662423,0.691982,-2.550437,0.393720,-0.957689,1.212292,-0.925235,0.030879,0.568611,-0.074368,-0.818656,24.622227,67.880563,-158.968893
10093,NaN,-9.567047,3.787033,2.744351,0.625668,-2.268715,0.572932,-1.092591,1.039808,-0.946271,0.030420,0.573021,-0.067064,-0.816225,23.353477,68.645991,-159.668376
10094,NaN,-9.773729,3.425616,2.787453,0.589920,-2.009856,0.705920,-1.209595,0.936989,-0.974233,0.030140,0.576957,-0.059206,-0.814068,21.843966,69.357126,-160.550083
10095,NaN,-10.164616,3.742150,2.929464,0.516301,-2.405773,1.134850,-1.318481,0.843730,-0.967833,0.030176,0.580447,-0.050939,-0.812143,20.149103,70.007543,-161.559306
10096,NaN,-7.584507,4.560785,3.440209,-0.855710,-3.613762,-1.073862,-1.589561,1.013893,-1.005309,0.030881,0.584540,-0.041426,-0.809718,18.235819,70.746138,-162.630806
10097,NaN,-8.838848,3.089482,4.479150,-1.511218,-2.151601,0.228043,-1.655653,1.347390,-1.069033,0.031593,0.589911,-0.031409,-0.806238,16.229725,71.664961,-163.755203
10098,NaN,-11.746439,2.570327,5.119226,-1.363045,-1.557829,3.090888,-1.507449,1.304573,-0.987057,0.032182,0.595042,-0.022228,-0.802742,14.271471,72.534926,-164.912553
10099,NaN,-12.237378,2.175170,4.742423,-0.987376,-1.317877,3.388064,-1.358343,0.990349,-0.950178,0.032441,0.598867,-0.013809,-0.800072,12.182422,73.211485,-166.291467
10100,NaN,-11.537962,0.902537,3.820323,-0.438820,-0.255217,2.364073,-1.181522,0.840628,-0.968963,0.032079,0.602072,-0.006059,-0.797774,9.962726,73.790307,-167.907566
10101,NaN,-10.447600,0.748249,3.398609,-0.425155,-0.308538,1.186600,-1.071205,0.907842,-1.031833,0.031137,0.605520,0.001446,-0.795219,7.563209,74.393647,-169.771704
10102,NaN,-10.179461,0.784343,3.592081,-0.772003,-0.518358,0.970269,-1.045984,1.025152,-1.104917,0.029822,0.609389,0.009095,-0.792258,4.876032,75.045151,-171.943155
10103,NaN,-9.853142,0.624204,4.272636,-1.618409,-0.561325,0.807682,-0.942089,1.049595,-1.104033,0.028193,0.613321,0.016328,-0.789161,2.042160,75.682301,-174.321390
10104,NaN,-9.160546,-0.354021,4.325665,-1.997897,0.248582,0.121933,-0.693258,0.998896,-1.079570,0.025897,0.617044,0.022500,-0.786180,-0.824956,76.259500,-176.874272
10105,NaN,-9.713650,0.479770,6.517914,-4.032310,-0.861162,1.144709,-0.491772,1.058102,-1.024386,0.023191,0.620994,0.027712,-0.782982,-3.675181,76.840395,-179.522328
10106,NaN,-9.719463,-0.770482,6.593534,-4.309077,0.255247,1.137217,-0.280903,1.230951,-0.863597,0.020431,0.625629,0.031622,-0.779212,-6.289642,77.497606,177.954305
10107,NaN,-11.075780,0.363217,5.986693,-3.481814,-0.942471,2.255090,-0.119754,1.285982,-0.690363,0.017835,0.630488,0.034361,-0.775233,-8.640085,78.174430,175.612933
10108,NaN,-12.894839,-0.067174,3.766950,-1.112375,-0.467701,3.566888,0.056814,1.016101,-0.675799,0.014781,0.634288,0.036349,-0.772100,-10.976905,78.678927,173.187361
10109,NaN,-13.832420,1.085491,2.319738,0.444710,-1.628419,4.153123,0.227927,0.828316,-0.712200,0.011082,0.637350,0.037773,-0.769568,-13.401705,79.053824,170.575815
10110,NaN,-13.802791,0.799760,2.436410,0.199928,-1.451803,4.149526,0.289284,0.732431,-0.717783,0.007179,0.640023,0.038975,-0.767333,-15.901068,79.352070,167.855626
10111,NaN,-13.110339,0.627288,3.001861,-0.576915,-1.386289,3.567519,0.407805,0.557200,-0.737597,0.002859,0.642010,0.039775,-0.765659,-18.357935,79.529373,165.111625
10112,NaN,-10.442388,0.376711,3.315651,-1.429258,-1.104149,1.000108,0.563253,0.469008,-0.672129,-0.001695,0.643654,0.039770,-0.764281,-20.519504,79.650388,162.578682
10113,NaN,-9.329447,0.780535,3.551117,-1.880082,-1.502650,-0.093360,0.664759,0.421701,-0.552690,-0.006107,0.645128,0.038990,-0.763054,-22.265357,79.756151,160.410000
10114,NaN,-8.469126,1.147671,3.854638,-2.349399,-1.851068,-0.927012,0.666922,0.325152,-0.364514,-0.009792,0.646253,0.037599,-0.762133,-23.373697,79.842261,158.888500
10115,NaN,-9.105975,0.953445,3.356229,-1.790488,-1.677628,-0.374903,0.743658,0.176867,-0.241931,-0.013226,0.646826,0.035523,-0.761695,-23.902810,79.875618,157.911000
10116,NaN,-10.381941,1.302445,2.671560,-0.917156,-2.082595,0.743822,0.790475,0.031468,-0.175670,-0.016536,0.646837,0.033066,-0.761732,-24.022993,79.846432,157.321692
10117,NaN,-11.313584,1.048931,2.657821,-0.765474,-1.891095,1.676405,0.812995,-0.038339,-0.173347,-0.019896,0.646575,0.030519,-0.761980,-24.030110,79.781999,156.834046
10118,NaN,-11.196974,0.845312,2.938574,-1.065203,-1.683405,1.622062,0.801863,-0.058254,-0.171614,-0.023211,0.646221,0.028011,-0.762283,-24.008672,79.706704,156.381794
10119,NaN,-10.933409,0.765086,3.058493,-1.225205,-1.580875,1.389048,0.835089,-0.082048,-0.164076,-0.026600,0.645768,0.025353,-0.762649,-23.914030,79.621641,155.984487
10120,NaN,-10.204068,0.930766,2.746896,-1.035730,-1.683439,0.609791,0.826413,-0.104223,-0.126611,-0.029815,0.645217,0.022610,-0.763082,-23.686028,79.532945,155.727705
10121,NaN,-11.054240,1.056153,2.431297,-0.577725,-1.867077,1.385666,0.787274,-0.183793,-0.134077,-0.032923,0.644363,0.020052,-0.763747,-23.404628,79.401826,155.547970
10122,NaN,-10.896091,1.070703,2.161520,-0.317699,-1.872331,1.184437,0.680173,-0.326210,-0.142081,-0.035700,0.642965,0.017951,-0.764852,-23.035465,79.193230,155.519870
10123,NaN,-10.350805,0.757796,1.718191,0.060542,-1.531039,0.594897,0.601354,-0.242421,-0.154719,-0.038280,0.641898,0.016177,-0.765663,-22.850365,79.026920,155.350335
10124,NaN,-10.355922,0.824185,2.063950,-0.267840,-1.594644,0.654865,0.513970,-0.097411,-0.129186,-0.040493,0.641393,0.014627,-0.766004,-22.808673,78.942096,155.085585
10125,NaN,-10.746249,0.222855,2.668653,-0.763793,-1.010864,1.189495,0.416693,-0.043388,-0.089859,-0.042247,0.641119,0.013314,-0.766162,-22.779288,78.895398,154.865081
10126,NaN,-10.494033,-0.561661,2.941172,-1.036971,-0.196614,1.049021,0.342181,0.038688,-0.038831,-0.043571,0.641170,0.012103,-0.766066,-22.744471,78.902582,154.693540
10127,NaN,-10.702586,-0.740035,3.088841,-1.143293,-0.022251,1.292550,0.303078,0.132274,0.017739,-0.044559,0.641595,0.010842,-0.765671,-22.688819,78.972588,154.566142
10128,NaN,-10.414211,-0.846472,3.042404,-1.156794,0.119983,1.007474,0.287938,0.212359,0.077771,-0.045273,0.642325,0.009427,-0.765036,-22.566247,79.097348,154.515721
10129,NaN,-10.265605,-1.115026,3.147388,-1.294864,0.425135,0.895928,0.341449,0.334978,0.119860,-0.046003,0.643518,0.007646,-0.764009,-22.439987,79.297137,154.437937
10130,NaN,-10.663005,-1.013060,3.160949,-1.281165,0.321740,1.276607,0.451259,0.395105,0.164061,-0.046919,0.644904,0.005287,-0.762804,-22.189889,79.537516,154.422120
10131,NaN,-10.955917,-0.671493,2.082552,-0.226347,-0.064981,1.357112,0.531571,0.306360,0.176287,-0.048046,0.645934,0.002605,-0.761875,-21.750357,79.734321,154.552175
10132,NaN,-11.249538,-0.414253,1.063623,0.784012,-0.375832,1.461133,0.516296,0.179734,0.144247,-0.049242,0.646471,0.000114,-0.761348,-21.251932,79.855709,154.750838
10133,NaN,-11.081162,-0.782823,0.744471,1.086851,0.001239,1.267833,0.461474,0.115693,0.097622,-0.050439,0.646781,-0.002001,-0.761003,-20.847346,79.933970,154.886085
10134,NaN,-10.400090,-1.088345,1.341056,0.408154,0.409006,0.713989,0.439706,0.138521,0.052598,-0.051736,0.647173,-0.003894,-0.760576,-20.610557,80.014266,154.863512
10135,NaN,-9.816098,-1.003684,1.672457,-0.027692,0.402885,0.187171,0.392873,0.186572,0.036939,-0.052940,0.647764,-0.005570,-0.759979,-20.506418,80.118136,154.733571
10136,NaN,-9.907304,-0.811675,0.759784,0.854682,0.140683,0.119104,0.298576,0.159960,-0.018988,-0.054051,0.648270,-0.006700,-0.759460,-20.595806,80.195554,154.462034
10137,NaN,-10.424010,-0.931858,0.174297,1.508757,0.170694,0.543626,0.234343,0.129969,-0.096840,-0.055251,0.648688,-0.007325,-0.759011,-20.935750,80.241842,153.973691
10138,NaN,-11.060868,-0.636771,0.663049,1.088888,-0.141676,1.231866,0.190414,0.054330,-0.139056,-0.056471,0.648825,-0.007626,-0.758801,-21.340385,80.237589,153.445227
10139,NaN,-10.764616,-0.500880,0.928013,0.771668,-0.247682,0.973053,0.112210,-0.082669,-0.151715,-0.057491,0.648470,-0.007550,-0.759029,-21.663508,80.157929,153.044939
10140,NaN,-9.780554,-0.649820,1.436710,0.144646,0.003249,0.093102,0.036947,-0.097801,-0.159506,-0.058296,0.648072,-0.007160,-0.759310,-22.025313,80.067365,152.649001
10141,NaN,-9.482636,-0.590937,2.069123,-0.526440,0.007992,-0.103226,-0.018800,0.036712,-0.131274,-0.058809,0.648207,-0.006687,-0.759160,-22.497921,80.054547,152.172989
10142,NaN,-9.562042,-0.393872,2.465859,-0.938372,-0.171361,0.023891,-0.063690,0.245873,-0.107499,-0.059079,0.649140,-0.006185,-0.758346,-23.188764,80.155840,151.501567
10143,NaN,-9.795318,-0.390143,2.244961,-0.721182,-0.222649,0.215795,-0.081165,0.434434,-0.114134,-0.059312,0.650799,-0.005648,-0.756909,-24.185300,80.353615,150.530493
10144,NaN,-10.119067,-0.578459,2.251118,-0.712643,-0.071001,0.545135,-0.049246,0.548235,-0.130631,-0.059707,0.652867,-0.005214,-0.755098,-25.419311,80.602581,149.300669
10145,NaN,-9.533941,-0.996985,2.272051,-0.836137,0.387331,-0.004389,0.060522,0.668309,-0.142358,-0.060501,0.655357,-0.005190,-0.752874,-26.890831,80.906265,147.767532
10146,NaN,-9.362619,-1.774181,1.445338,-0.030689,1.092760,-0.236678,0.225405,0.686458,-0.206051,-0.062074,0.657852,-0.005585,-0.750564,-28.602834,81.194405,145.896521
10147,NaN,-8.806557,-3.210463,0.388795,1.029722,2.454064,-0.816541,0.374867,0.706833,-0.304584,-0.064507,0.660375,-0.006222,-0.748134,-30.715192,81.455682,143.535349
10148,NaN,-8.844331,-4.843500,0.285603,1.263767,4.031916,-0.652471,0.534441,0.697352,-0.424000,-0.067912,0.662795,-0.007059,-0.745682,-33.237850,81.660724,140.668348
10149,NaN,-8.888449,-6.103570,1.064082,0.615868,5.315952,-0.391885,0.732485,0.615588,-0.540376,-0.072409,0.664834,-0.008220,-0.743428,-35.962548,81.770595,137.483721
10150,NaN,-8.905750,-6.134580,1.718448,-0.024450,5.373381,-0.272011,0.927650,0.507201,-0.608751,-0.077812,0.666374,-0.009839,-0.741481,-38.583362,81.784903,134.291529
10151,NaN,-8.431200,-5.010225,1.708357,-0.196654,4.270684,-0.822225,1.083445,0.525429,-0.602478,-0.083706,0.667899,-0.012064,-0.739431,-41.151083,81.789697,131.062911
10152,NaN,-9.198648,-3.225443,0.789827,0.522910,2.269259,-0.314307,1.193487,0.644260,-0.599371,-0.089947,0.669776,-0.014752,-0.736948,-43.969185,81.823144,127.517747
10153,NaN,-10.329659,-2.013454,0.402222,0.771738,0.850238,0.656248,1.247837,0.832545,-0.554710,-0.096183,0.672286,-0.017877,-0.733799,-47.211076,81.924678,123.513691
10154,NaN,-11.747874,-1.556519,0.715919,0.422514,0.240949,2.049460,1.244462,0.814880,-0.545504,-0.102373,0.674681,-0.021007,-0.730673,-50.448922,81.990317,119.516445
10155,NaN,-11.868374,-1.192134,0.802930,0.202448,-0.159028,2.139606,1.249017,0.662462,-0.550402,-0.108603,0.676484,-0.024062,-0.728008,-53.243234,81.971251,115.964755
10156,NaN,-10.370197,-0.989653,0.626137,0.176126,-0.239408,0.619170,1.239488,0.691877,-0.504057,-0.114625,0.678347,-0.027250,-0.725234,-56.009556,81.958629,112.446634
10157,NaN,-9.957925,-0.910398,0.119663,0.564082,-0.396294,0.163667,1.226672,0.747953,-0.498083,-0.120564,0.680387,-0.030446,-0.722226,-58.951341,81.942626,108.758671
10158,NaN,-9.705090,-1.142339,-0.136082,0.781059,-0.228526,-0.073622,1.234413,0.779499,-0.517882,-0.126593,0.682493,-0.033617,-0.719060,-62.009239,81.897793,104.948589
10159,NaN,-9.004287,-1.139755,-0.413286,0.953596,-0.236324,-0.780452,1.275594,0.839103,-0.533195,-0.132795,0.684752,-0.036921,-0.715623,-65.241232,81.831759,100.938375
10160,NaN,-7.950062,-1.079953,-0.584066,1.003996,-0.221912,-1.834396,1.272175,0.993317,-0.474091,-0.138741,0.687501,-0.040514,-0.711654,-68.884727,81.796737,96.513805
10161,NaN,-7.962911,-1.127102,-1.150852,1.483282,-0.351679,-1.832825,1.229537,1.147613,-0.488863,-0.144547,0.690787,-0.044010,-0.707095,-73.103935,81.740044,91.531821
10162,NaN,-8.600756,-1.201845,-1.263510,1.515860,-0.437228,-1.179972,1.217035,1.282413,-0.530709,-0.150419,0.694505,-0.047409,-0.701990,-77.781235,81.623782,86.092932
10163,NaN,-9.471013,-1.045752,-1.496796,1.573034,-0.812330,-0.331211,1.191073,1.266847,-0.491204,-0.156051,0.698126,-0.050841,-0.696910,-82.226048,81.466554,80.902312
10164,NaN,-9.963735,-1.072701,-1.675392,1.618067,-0.946039,0.173259,1.087390,1.197431,-0.478022,-0.161283,0.701523,-0.053898,-0.692060,-86.258444,81.256479,76.186304
10165,NaN,-9.997214,-1.532756,-1.565695,1.531489,-0.519379,0.293184,1.070402,1.145747,-0.464974,-0.166411,0.704709,-0.056898,-0.687354,-89.891166,81.006365,71.881844
10166,NaN,-9.609667,-1.561363,-1.261339,1.161429,-0.370717,-0.071681,1.076575,1.113627,-0.434211,-0.171455,0.707718,-0.059995,-0.682743,-93.179255,80.734518,67.919631
10167,NaN,-9.407847,-1.413933,-0.946556,0.728188,-0.398740,-0.288367,1.059866,1.078528,-0.383124,-0.176263,0.710567,-0.063184,-0.678258,-96.163351,80.459757,64.272276
10168,NaN,-9.051630,-1.446360,-0.710270,0.447227,-0.251312,-0.633114,1.012114,1.074791,-0.371638,-0.180855,0.713394,-0.066243,-0.673774,-98.969469,80.161879,60.830048
10169,NaN,-8.943267,-1.555860,-0.999007,0.671676,-0.247214,-0.708417,0.953718,1.080796,-0.365214,-0.185202,0.716256,-0.069132,-0.669252,-101.644019,79.839811,57.552271
10170,NaN,-8.659020,-1.833309,-0.906217,0.622020,0.076194,-0.937575,0.907186,1.049390,-0.228021,-0.188928,0.718966,-0.072322,-0.664954,-104.163862,79.572844,54.455689
10171,NaN,-7.315833,-1.963146,-0.567711,0.422503,0.519994,-2.246421,0.853563,1.088383,-0.151135,-0.192178,0.721797,-0.075645,-0.660571,-106.752779,79.318077,51.317621
10172,NaN,-6.659960,-1.505241,-0.456768,0.160310,0.245115,-2.975787,0.821041,1.260663,-0.226330,-0.195488,0.725215,-0.078749,-0.655474,-109.620838,78.964359,47.911034
10173,NaN,-7.197500,-1.055841,-0.727300,0.085444,-0.336502,-2.510198,0.697595,1.466502,-0.324816,-0.198576,0.729424,-0.081290,-0.649538,-112.787188,78.482054,44.267691
10174,NaN,-8.217601,-1.197340,-0.714338,-0.131288,-0.332678,-1.485402,0.543111,1.515529,-0.339999,-0.201119,0.733899,-0.083314,-0.643430,-115.854689,77.942224,40.808979
10175,NaN,-9.174842,-1.598577,-0.848914,-0.130023,-0.139546,-0.463027,0.488690,1.379850,-0.323479,-0.203450,0.737943,-0.085085,-0.637816,-118.383406,77.412464,37.926885
10176,NaN,-9.022478,-1.513601,-0.632817,-0.447388,-0.092369,-0.653708,0.464389,1.228617,-0.260888,-0.205549,0.741461,-0.086849,-0.632805,-120.459044,76.932362,35.517913
10177,NaN,-9.544639,-1.505457,-0.517480,-0.751080,-0.102657,-0.165985,0.435443,1.057934,-0.185117,-0.207365,0.744411,-0.088625,-0.628488,-122.145758,76.522817,33.521369
10178,NaN,-10.715293,-1.554553,-0.565062,-1.003967,-0.213656,0.980796,0.419005,0.797455,-0.179009,-0.209212,0.746533,-0.090098,-0.625141,-123.233074,76.186035,32.148045
10179,NaN,-10.145656,-1.752995,-0.212214,-1.190018,0.200132,0.414529,0.387161,0.556522,-0.040355,-0.210609,0.747863,-0.091737,-0.622840,-124.005755,75.986480,31.116234
10180,NaN,-10.127700,-1.612633,-0.199230,-1.287266,0.096380,0.362980,0.419385,0.306076,0.045533,-0.211975,0.748329,-0.093532,-0.621548,-124.375197,75.906047,30.480279
10181,NaN,-10.535466,-1.502317,-0.553513,-1.113044,-0.194878,0.783657,0.381758,0.119271,0.102190,-0.213108,0.748228,-0.095225,-0.621025,-124.487259,75.912020,30.131975
10182,NaN,-11.092812,-1.645275,-0.581458,-1.133920,-0.139958,1.358259,0.350898,-0.154191,0.191298,-0.213980,0.747260,-0.096862,-0.621637,-124.213224,76.048986,30.199786
10183,NaN,-9.977014,-1.833007,-0.574490,-0.786720,0.170373,0.315616,0.380651,-0.435194,0.316889,-0.214705,0.745325,-0.098761,-0.623409,-123.538682,76.334991,30.662572
10184,NaN,-8.435854,-1.726411,-0.553128,-0.477202,0.273265,-1.201800,0.386860,-0.545618,0.356841,-0.215383,0.743005,-0.100707,-0.625630,-122.661827,76.673562,31.328978
10185,NaN,-7.597080,-1.508677,-0.597983,-0.308444,0.162259,-2.052040,0.352603,-0.499739,0.341987,-0.215951,0.740867,-0.102540,-0.627668,-121.845418,76.988225,31.952729
10186,NaN,-7.228219,-1.366392,-0.507834,-0.333976,0.123280,-2.447552,0.282257,-0.385748,0.302180,-0.216326,0.739171,-0.104126,-0.629275,-121.225955,77.247837,32.414910
10187,NaN,-7.582329,-1.345683,-0.539278,-0.346320,0.052360,-2.100966,0.210632,-0.305609,0.244211,-0.216573,0.737835,-0.105359,-0.630552,-120.730427,77.453974,32.791872
10188,NaN,-7.971360,-1.426757,-0.509262,-0.380081,0.094846,-1.708118,0.151918,-0.248877,0.197907,-0.216720,0.736758,-0.106296,-0.631603,-120.317597,77.620449,33.118156
10189,NaN,-8.867173,-1.524872,-0.636272,-0.358060,0.021822,-0.800025,0.125551,-0.259110,0.195262,-0.216782,0.735681,-0.107129,-0.632695,-119.886704,77.787674,33.478344
10190,NaN,-9.511572,-1.683802,-0.813448,-0.209639,0.008178,-0.121315,0.136846,-0.370788,0.228801,-0.216840,0.734212,-0.108000,-0.634231,-119.216979,78.002801,34.075755
10191,NaN,-9.663332,-1.593280,-1.005700,-0.053635,-0.177804,0.030848,0.151281,-0.525227,0.271301,-0.216895,0.732215,-0.108905,-0.636363,-118.201512,78.279575,35.017611
10192,NaN,-9.749582,-1.423091,-0.879710,-0.185710,-0.284477,0.073542,0.134325,-0.691986,0.318817,-0.216828,0.729665,-0.109746,-0.639163,-116.784546,78.620803,36.377968
10193,NaN,-9.485442,-1.253937,-0.687705,-0.305564,-0.320752,-0.230308,0.103541,-0.836139,0.373388,-0.216547,0.726650,-0.110531,-0.642549,-114.989469,79.018146,38.140117
10194,NaN,-8.937124,-1.052130,-0.344193,-0.525200,-0.282480,-0.827073,0.064716,-0.944126,0.445225,-0.215951,0.723268,-0.111332,-0.646416,-112.862167,79.466635,40.260404
10195,NaN,-8.409567,-0.914183,-0.036326,-0.692750,-0.202944,-1.384397,0.000301,-0.961796,0.513345,-0.214903,0.719845,-0.112150,-0.650432,-110.616277,79.939424,42.535706
10196,NaN,-8.101426,-1.023754,0.093349,-0.630934,-0.007016,-1.670751,-0.070027,-0.917940,0.569080,-0.213392,0.716582,-0.112982,-0.654376,-108.388514,80.417997,44.830023
10197,NaN,-7.806403,-1.085612,0.298333,-0.669788,0.185489,-1.956228,-0.113384,-0.807255,0.612404,-0.211513,0.713689,-0.113944,-0.657971,-106.381235,80.886236,46.923007
10198,NaN,-7.723306,-1.166517,0.335259,-0.585443,0.301037,-2.022385,-0.139717,-0.681826,0.665003,-0.209293,0.711184,-0.115136,-0.661179,-104.671263,81.353249,48.727484
10199,NaN,-8.029432,-1.298603,0.118980,-0.298686,0.312581,-1.689574,-0.153924,-0.552103,0.703540,-0.206813,0.709090,-0.116552,-0.663954,-103.315588,81.815834,50.179946
10200,NaN,-8.315106,-1.375586,-0.153881,0.013793,0.262465,-1.387285,-0.146467,-0.432065,0.731514,-0.204196,0.707351,-0.118213,-0.666321,-102.301561,82.274512,51.281332
10201,NaN,-8.447008,-1.321552,-0.401831,0.256323,0.133588,-1.258395,-0.144343,-0.325740,0.781915,-0.201349,0.705928,-0.120166,-0.668344,-101.674199,82.746335,51.990410
10202,NaN,-8.737260,-1.235860,-0.583696,0.411496,-0.000073,-0.978780,-0.158982,-0.257863,0.835684,-0.198228,0.704695,-0.122326,-0.670184,-101.325685,83.239964,52.426128
10203,NaN,-9.446648,-1.227062,-0.952633,0.743392,-0.176643,-0.269740,-0.181203,-0.286802,0.883582,-0.194880,0.703349,-0.124549,-0.672168,-100.836096,83.763139,53.016294
10204,NaN,-10.158297,-1.280422,-1.300654,1.102439,-0.277454,0.445426,-0.199558,-0.421473,0.926585,-0.191405,0.701519,-0.126727,-0.674667,-99.529575,84.323267,54.437696
10205,NaN,-10.660989,-1.356129,-1.281530,1.179953,-0.174527,0.944361,-0.206022,-0.609274,0.944189,-0.187958,0.699035,-0.128762,-0.677821,-96.761279,84.903066,57.329734
10206,NaN,-10.861650,-1.490418,-0.999463,1.088752,0.114768,1.141562,-0.212773,-0.837023,0.943165,-0.184633,0.695756,-0.130551,-0.681755,-91.626232,85.472157,62.598080
10207,NaN,-10.792312,-1.720620,-0.607067,0.972729,0.544126,1.075788,-0.162869,-1.075671,0.893050,-0.181799,0.691624,-0.132111,-0.686405,-83.163837,85.950882,71.170601
10208,NaN,-10.674661,-1.934647,-0.381974,1.019916,0.872537,0.959186,-0.083030,-1.310033,0.857575,-0.179509,0.686596,-0.133600,-0.691747,-70.800314,86.256100,83.603091
