// General information: 
//  MT Manager version: 2019.0.1 
//  XDA version: 2019.0.1 build 2740 rev 84096 built on 2019-01-30
// Device information: 
//  DeviceId: 00B4381A
//  ProductCode: MTW2-3A7G6
//  Firmware Version: 4.3.4
//  Hardware Version: 1.1.0
// Device settings: 
//  Filter Profile: human(46.1)
//  Option Flags: Orientation Smoother Disabled, AHS Disabled, ICC Disabled
// Coordinate system: ENU
PacketCounter,SampleTimeFine,Acc_X,Acc_Y,Acc_Z,FreeAcc_E,FreeAcc_N,FreeAcc_U,Gyr_X,Gyr_Y,Gyr_Z,Quat_q0,Quat_q1,Quat_q2,Quat_q3,Roll,Pitch,Yaw
00756,NaN,0.420466,9.744714,-0.856184,-0.073348,0.320925,-0.026936,0.037830,0.565916,-0.046136,-0.624200,-0.669868,-0.285127,-0.283467,93.443187,-1.364786,47.398886
00757,NaN,0.278648,9.748787,-0.772427,-0.104481,0.158626,-0.031222,0.041804,0.565057,-0.051943,-0.623307,-0.669150,-0.287159,-0.285071,93.466310,-1.348534,47.721574
00758,NaN,0.227481,9.734038,-0.745552,-0.115866,0.102840,-0.048719,0.029517,0.540669,-0.053099,-0.622488,-0.668421,-0.289095,-0.286612,93.482334,-1.331597,48.030409
00759,NaN,0.183405,9.744617,-0.671379,-0.085602,0.019763,-0.043643,0.037859,0.504014,-0.056726,-0.621694,-0.667761,-0.290943,-0.287999,93.504198,-1.310694,48.318351
00760,NaN,0.181307,9.744465,-0.674148,-0.084175,0.019725,-0.043631,0.036986,0.458133,-0.052756,-0.620962,-0.667166,-0.292628,-0.289250,93.525788,-1.291217,48.579948
00761,NaN,0.187501,9.792337,-0.679007,-0.076871,0.024640,0.004622,0.040186,0.424228,-0.057002,-0.620270,-0.666621,-0.294230,-0.290364,93.550213,-1.267560,48.822273
00762,NaN,0.232634,9.783514,-0.685109,-0.046154,0.062988,-0.002767,0.047018,0.396139,-0.058340,-0.619597,-0.666132,-0.295753,-0.291373,93.578520,-1.242879,49.048606
00763,NaN,0.234178,9.807344,-0.689677,-0.041706,0.065458,0.021359,0.045283,0.366425,-0.050735,-0.618960,-0.665690,-0.297159,-0.292304,93.606782,-1.220962,49.257662
00764,NaN,0.284447,9.844444,-0.770529,-0.063188,0.153431,0.064568,0.045583,0.332841,-0.048723,-0.618368,-0.665299,-0.298450,-0.293132,93.635221,-1.199711,49.447465
00765,NaN,0.356908,9.854695,-0.802455,-0.034118,0.228361,0.078370,0.044606,0.322190,-0.056263,-0.617803,-0.664908,-0.299735,-0.293898,93.663780,-1.173227,49.631442
00766,NaN,0.390507,9.922354,-0.809449,-0.009348,0.254911,0.147018,0.044816,0.322360,-0.059545,-0.617241,-0.664510,-0.301027,-0.294657,93.692085,-1.145595,49.815672
00767,NaN,0.394384,9.948567,-0.739820,0.053111,0.212693,0.168735,0.032877,0.326423,-0.062399,-0.616714,-0.664064,-0.302327,-0.295434,93.714050,-1.115932,50.002318
00768,NaN,0.377819,10.003189,-0.669201,0.103698,0.153717,0.218264,0.023240,0.329589,-0.062546,-0.616214,-0.663580,-0.303617,-0.296239,93.730107,-1.087002,50.190808
00769,NaN,0.300174,10.015267,-0.691402,0.042062,0.111123,0.230200,0.000952,0.329173,-0.075001,-0.615804,-0.663009,-0.304918,-0.297033,93.733945,-1.050331,50.379509
00770,NaN,0.284762,9.965932,-0.736872,-0.000911,0.136030,0.183581,-0.012316,0.319409,-0.079284,-0.615459,-0.662402,-0.306179,-0.297805,93.729962,-1.011493,50.562806
00771,NaN,0.222369,9.926581,-0.731352,-0.034412,0.092814,0.142790,-0.023228,0.300326,-0.086406,-0.615187,-0.661778,-0.307391,-0.298504,93.720484,-0.967204,50.735425
00772,NaN,0.233370,9.895703,-0.825700,-0.098491,0.169184,0.118217,-0.021570,0.291838,-0.085409,-0.614921,-0.661171,-0.308572,-0.299179,93.711735,-0.923787,50.903166
00773,NaN,0.198048,9.874713,-0.869922,-0.153093,0.177433,0.099478,-0.031836,0.284596,-0.084085,-0.614696,-0.660545,-0.309714,-0.299844,93.697731,-0.880181,51.066684
00774,NaN,0.172563,9.904077,-0.842234,-0.144036,0.145838,0.126520,-0.032900,0.275200,-0.087190,-0.614492,-0.659923,-0.310831,-0.300475,93.682914,-0.835056,51.224954
00775,NaN,0.102675,9.965627,-0.815061,-0.161208,0.078394,0.185135,-0.027860,0.269567,-0.086199,-0.614278,-0.659325,-0.311939,-0.301077,93.671566,-0.789611,51.379932
00776,NaN,0.036299,10.050394,-0.813193,-0.194877,0.028279,0.268693,-0.036949,0.257656,-0.084830,-0.614109,-0.658718,-0.312987,-0.301662,93.654832,-0.745109,51.528056
00777,NaN,-0.033914,10.112513,-0.760910,-0.192705,-0.054062,0.326493,-0.050157,0.245034,-0.089006,-0.614008,-0.658082,-0.313994,-0.302208,93.631131,-0.697073,51.669077
00778,NaN,-0.149657,10.205259,-0.757329,-0.255619,-0.142512,0.417542,-0.053755,0.220741,-0.093219,-0.613963,-0.657464,-0.314930,-0.302671,93.605274,-0.646300,51.796355
00779,NaN,-0.186376,10.331907,-0.827845,-0.326521,-0.123735,0.548125,-0.071904,0.186977,-0.094208,-0.614032,-0.656839,-0.315742,-0.303044,93.569720,-0.593072,51.904311
00780,NaN,-0.238400,10.365845,-0.770974,-0.312711,-0.189381,0.578093,-0.102193,0.155682,-0.090766,-0.614243,-0.656172,-0.316396,-0.303376,93.516729,-0.541197,51.994224
00781,NaN,-0.370718,10.363575,-0.709683,-0.348608,-0.317415,0.571072,-0.130946,0.107288,-0.085743,-0.614617,-0.655499,-0.316845,-0.303605,93.447956,-0.489839,52.056210
00782,NaN,-0.510562,10.313016,-0.644126,-0.390529,-0.450396,0.515840,-0.161882,0.038689,-0.073411,-0.615182,-0.654853,-0.316992,-0.303701,93.361486,-0.443645,52.078486
00783,NaN,-0.581359,10.224719,-0.648621,-0.449323,-0.483534,0.427812,-0.178639,-0.056088,-0.056806,-0.615926,-0.654326,-0.316772,-0.303560,93.266186,-0.403246,52.045908
00784,NaN,-0.582996,10.249682,-0.630126,-0.444855,-0.480984,0.451992,-0.181791,-0.149250,-0.039119,-0.616801,-0.653957,-0.316198,-0.303176,93.169082,-0.370484,51.959411
00785,NaN,-0.615243,10.230520,-0.608755,-0.460851,-0.502493,0.431712,-0.201550,-0.238157,-0.020122,-0.617851,-0.653691,-0.315260,-0.302587,93.061277,-0.345516,51.821385
00786,NaN,-0.617939,10.232128,-0.560965,-0.440026,-0.517314,0.430930,-0.221413,-0.327222,-0.004339,-0.619080,-0.653521,-0.313962,-0.301790,92.942011,-0.327570,51.631885
00787,NaN,-0.680715,10.167862,-0.606312,-0.534542,-0.518161,0.368772,-0.243431,-0.421014,0.008149,-0.620507,-0.653442,-0.312301,-0.300755,92.810710,-0.314098,51.388305
00788,NaN,-0.686978,10.144701,-0.626579,-0.574614,-0.490683,0.346470,-0.248808,-0.503524,0.016976,-0.622063,-0.653478,-0.310342,-0.299486,92.676215,-0.304298,51.097238
00789,NaN,-0.713369,10.149872,-0.644849,-0.626278,-0.479911,0.352056,-0.268351,-0.593874,0.026735,-0.623802,-0.653599,-0.308041,-0.297978,92.531076,-0.298124,50.754173
00790,NaN,-0.831459,10.046886,-0.631596,-0.717548,-0.553855,0.247552,-0.300050,-0.686021,0.024520,-0.625783,-0.653745,-0.305406,-0.296209,92.367702,-0.289590,50.358400
00791,NaN,-0.979080,9.947642,-0.758437,-0.939258,-0.557441,0.152066,-0.339072,-0.797382,0.042437,-0.628024,-0.653953,-0.302304,-0.294184,92.182564,-0.289743,49.898437
00792,NaN,-1.002744,9.705723,-0.861154,-1.068819,-0.473228,-0.087377,-0.353219,-0.914463,0.051314,-0.630463,-0.654286,-0.298776,-0.291821,91.989418,-0.294199,49.371253
00793,NaN,-1.116214,9.528737,-0.933551,-1.231695,-0.475699,-0.264350,-0.357031,-1.035514,0.056855,-0.633068,-0.654776,-0.294836,-0.289076,91.794763,-0.301179,48.774662
00794,NaN,-1.417797,9.308445,-1.065044,-1.564077,-0.574907,-0.484528,-0.346519,-1.172650,0.056829,-0.635822,-0.655473,-0.290467,-0.285857,91.606418,-0.307850,48.099557
00795,NaN,-1.546941,9.060357,-1.082853,-1.697479,-0.614598,-0.735447,-0.311678,-1.346014,0.060757,-0.638678,-0.656509,-0.285572,-0.282019,91.438866,-0.316184,47.325119
00796,NaN,-1.618881,8.876604,-1.105082,-1.792659,-0.608569,-0.921574,-0.253065,-1.528007,0.071374,-0.641554,-0.657966,-0.280129,-0.277519,91.305507,-0.330025,46.446305
00797,NaN,-1.775450,8.780293,-1.094084,-1.918159,-0.686783,-1.021124,-0.179269,-1.724939,0.065113,-0.644427,-0.659881,-0.274157,-0.272228,91.215397,-0.339623,45.454797
00798,NaN,-1.650730,8.858720,-1.042735,-1.812183,-0.596015,-0.944218,-0.075583,-1.881291,0.059289,-0.647129,-0.662280,-0.267821,-0.266236,91.185305,-0.344708,44.373782
00799,NaN,-1.411892,9.040099,-1.018271,-1.632533,-0.416399,-0.761992,0.023572,-2.000196,0.044828,-0.649617,-0.665076,-0.261254,-0.259648,91.212493,-0.340451,43.224849
00800,NaN,-1.019206,9.418459,-0.884313,-1.251171,-0.227583,-0.383429,0.089614,-2.062632,0.033498,-0.651917,-0.668083,-0.254583,-0.252698,91.277560,-0.327327,42.040253
00801,NaN,-0.763579,9.620977,-0.820164,-1.010433,-0.090411,-0.179944,0.081735,-2.104077,0.020810,-0.654239,-0.671029,-0.247778,-0.245555,91.337879,-0.305771,40.832142
00802,NaN,-0.676492,9.577007,-0.882705,-0.977201,0.032735,-0.221033,0.048180,-2.136667,-0.002336,-0.656671,-0.673799,-0.240879,-0.238235,91.378423,-0.268626,39.605625
00803,NaN,-0.713454,9.407296,-0.820475,-0.958341,-0.014495,-0.391396,0.039432,-2.178567,-0.022492,-0.659127,-0.676488,-0.233868,-0.230696,91.413152,-0.219370,38.355494
00804,NaN,-0.616410,9.240739,-0.741252,-0.824552,0.006754,-0.558461,0.065780,-2.247679,-0.019713,-0.661494,-0.679262,-0.226626,-0.222866,91.461903,-0.168735,37.065637
00805,NaN,-0.408451,9.227084,-0.749501,-0.649648,0.151516,-0.570250,0.130744,-2.311147,0.000858,-0.663600,-0.682258,-0.219143,-0.214793,91.547069,-0.128486,35.739321
00806,NaN,-0.042173,9.309040,-0.821323,-0.371497,0.423507,-0.484389,0.200744,-2.337700,0.016099,-0.665390,-0.685437,-0.211569,-0.206568,91.671574,-0.093242,34.397589
00807,NaN,0.250069,9.481807,-0.788176,-0.080362,0.547193,-0.310979,0.239969,-2.304436,0.016057,-0.666919,-0.688620,-0.204113,-0.198393,91.817609,-0.056257,33.075034
00808,NaN,0.670896,9.481462,-0.846481,0.275881,0.805180,-0.307944,0.290486,-2.172442,0.002747,-0.668068,-0.691738,-0.197171,-0.190547,91.991711,-0.009764,31.828408
00809,NaN,1.201903,9.568051,-0.812481,0.789293,1.021546,-0.221782,0.336029,-1.932151,-0.029450,-0.668779,-0.694673,-0.191160,-0.183363,92.190635,0.053493,30.720216
00810,NaN,1.507524,9.680561,-0.971652,1.022050,1.272298,-0.103602,0.350694,-1.614893,-0.086856,-0.669134,-0.697253,-0.186411,-0.177056,92.396932,0.146818,29.795188
00811,NaN,1.653597,9.682620,-0.939959,1.215610,1.280361,-0.104252,0.340525,-1.280325,-0.139342,-0.669221,-0.699415,-0.182941,-0.171743,92.596225,0.264549,29.063323
00812,NaN,1.526038,9.659435,-0.839722,1.200301,1.100233,-0.133475,0.313571,-0.983255,-0.181437,-0.669141,-0.701168,-0.180585,-0.167343,92.779654,0.401231,28.503001
00813,NaN,1.208701,9.584057,-0.833501,0.967413,0.921572,-0.209331,0.314318,-0.737411,-0.228000,-0.668861,-0.702658,-0.179209,-0.163648,92.963055,0.558898,28.085133
00814,NaN,0.879768,9.541212,-0.736422,0.766168,0.662226,-0.256261,0.338404,-0.566903,-0.263875,-0.668361,-0.704048,-0.178548,-0.160406,93.160404,0.733515,27.766443
00815,NaN,0.604670,9.599404,-0.797590,0.542409,0.566436,-0.193172,0.359012,-0.453244,-0.295416,-0.667706,-0.705378,-0.178390,-0.157440,93.369270,0.923338,27.514406
00816,NaN,0.364760,9.633977,-0.767358,0.392757,0.408418,-0.157941,0.379324,-0.382460,-0.314017,-0.666922,-0.706698,-0.178549,-0.154640,93.589926,1.122452,27.304216
00817,NaN,-0.036948,9.693004,-0.446758,0.233058,-0.082226,-0.112481,0.391029,-0.350123,-0.319977,-0.666067,-0.708017,-0.178844,-0.151925,93.816709,1.324425,27.113492
00818,NaN,0.109989,9.702474,-0.867894,0.222180,0.337852,-0.079260,0.418998,-0.373422,-0.310540,-0.665119,-0.709450,-0.179048,-0.149130,94.058788,1.522836,26.909902
00819,NaN,-0.190264,9.680293,-0.483737,0.174258,-0.162414,-0.121387,0.441361,-0.393256,-0.281869,-0.664081,-0.710989,-0.179097,-0.146340,94.312414,1.706434,26.694602
00820,NaN,-0.462592,9.631713,-0.325058,0.045335,-0.447387,-0.174890,0.435386,-0.489274,-0.299045,-0.663154,-0.712555,-0.178884,-0.143154,94.560472,1.905157,26.425987
00821,NaN,-0.322265,9.764634,-0.293620,0.239643,-0.446428,-0.051480,0.483668,-0.578767,-0.263396,-0.662101,-0.714365,-0.178277,-0.139723,94.833235,2.088824,26.105425
00822,NaN,0.083654,9.966424,-0.264336,0.674718,-0.338190,0.128974,0.480943,-0.636847,-0.199544,-0.661052,-0.716252,-0.177247,-0.136295,95.102362,2.240563,25.749369
00823,NaN,0.257351,10.041480,-0.112857,0.941517,-0.438493,0.178876,0.449926,-0.646887,-0.174067,-0.660096,-0.718053,-0.176066,-0.132942,95.352352,2.379775,25.386891
00824,NaN,0.197402,9.968739,0.006071,0.968309,-0.600193,0.092702,0.418766,-0.652467,-0.166532,-0.659240,-0.719751,-0.174818,-0.129618,95.583620,2.516587,25.021377
00825,NaN,0.086142,9.903249,0.129993,0.946452,-0.785225,0.015139,0.377840,-0.676933,-0.157932,-0.658537,-0.721324,-0.173427,-0.126268,95.789810,2.651205,24.641889
00826,NaN,0.094947,9.711123,0.152488,0.976107,-0.816012,-0.183596,0.351992,-0.705382,-0.136419,-0.657927,-0.722838,-0.171847,-0.122907,95.979555,2.776560,24.245333
00827,NaN,-0.046426,9.617301,0.224976,0.893207,-0.958603,-0.282293,0.322309,-0.735816,-0.122938,-0.657432,-0.724272,-0.170096,-0.119504,96.150527,2.897305,23.830953
00828,NaN,-0.391156,9.533548,0.387362,0.655958,-1.260972,-0.369637,0.285581,-0.805361,-0.123327,-0.657118,-0.725613,-0.168093,-0.115877,96.297448,3.023711,23.377216
00829,NaN,-0.819981,9.487906,0.745282,0.412446,-1.772124,-0.435181,0.270570,-0.957827,-0.101507,-0.656958,-0.726995,-0.165497,-0.111779,96.430117,3.148508,22.835413
00830,NaN,-1.064422,9.468700,0.758359,0.198453,-1.890064,-0.445049,0.240331,-1.187405,-0.098480,-0.657078,-0.728385,-0.162114,-0.106878,96.536628,3.287544,22.162679
00831,NaN,-0.558650,9.420087,0.598872,0.606990,-1.560968,-0.506577,0.238670,-1.377837,-0.052299,-0.657303,-0.729878,-0.157930,-0.101431,96.634355,3.414026,21.378515
00832,NaN,-0.116727,9.382535,0.608915,1.020784,-1.423917,-0.574354,0.219402,-1.470196,-0.038880,-0.657633,-0.731325,-0.153374,-0.095702,96.715670,3.540244,20.540849
00833,NaN,0.461568,9.323970,0.408935,1.492555,-1.052424,-0.648555,0.203492,-1.467020,-0.043814,-0.657982,-0.732676,-0.148831,-0.089974,96.786542,3.670168,19.705426
00834,NaN,1.033894,9.397177,0.383184,2.038484,-0.871680,-0.614462,0.219373,-1.351980,-0.039235,-0.658155,-0.733989,-0.144648,-0.084668,96.868389,3.790675,18.935268
00835,NaN,1.289760,9.523486,0.341230,2.291518,-0.794576,-0.507087,0.213403,-1.169137,-0.054464,-0.658193,-0.735168,-0.141116,-0.079982,96.952844,3.908440,18.270531
00836,NaN,1.299316,9.527591,0.327220,2.311974,-0.810245,-0.508470,0.213809,-0.957680,-0.105857,-0.658085,-0.736201,-0.138462,-0.075904,97.044005,4.041417,17.729939
00837,NaN,1.260170,9.657805,0.300429,2.299709,-0.837327,-0.380741,0.226844,-0.742554,-0.143261,-0.657776,-0.737158,-0.136657,-0.072482,97.151028,4.181632,17.314849
00838,NaN,1.251450,9.786619,0.281515,2.321281,-0.860146,-0.257846,0.232032,-0.553962,-0.155015,-0.657320,-0.738042,-0.135513,-0.069715,97.267259,4.315313,17.008212
00839,NaN,0.949652,9.845465,0.299229,2.068157,-0.994383,-0.186764,0.241490,-0.412499,-0.177433,-0.656731,-0.738890,-0.134922,-0.067387,97.395308,4.452503,16.784170
00840,NaN,0.734708,9.920615,0.313141,1.900562,-1.098585,-0.105096,0.249588,-0.319530,-0.204021,-0.656060,-0.739707,-0.134732,-0.065313,97.530855,4.597756,16.615257
00841,NaN,0.611723,10.013029,0.196402,1.788894,-1.053333,0.003818,0.266085,-0.251455,-0.201873,-0.655272,-0.740558,-0.134767,-0.063482,97.679555,4.737681,16.485411
00842,NaN,0.400173,10.158504,0.196335,1.630824,-1.150336,0.157816,0.270579,-0.201132,-0.192818,-0.654435,-0.741405,-0.134928,-0.061869,97.831808,4.868140,16.383744
00843,NaN,0.115094,10.264883,0.103707,1.373475,-1.175070,0.292980,0.259500,-0.202639,-0.197152,-0.653632,-0.742216,-0.135102,-0.060239,97.978551,5.002215,16.282018
00844,NaN,-0.179160,10.407778,0.074845,1.128334,-1.265461,0.457898,0.247021,-0.246895,-0.180678,-0.652904,-0.743001,-0.135060,-0.058512,98.114374,5.129867,16.153917
00845,NaN,-0.433283,10.408305,0.103106,0.917513,-1.381145,0.472337,0.220714,-0.342076,-0.170794,-0.652326,-0.743738,-0.134668,-0.056475,98.231101,5.260821,15.971217
00846,NaN,-0.562788,10.430680,-0.081421,0.770921,-1.257334,0.528840,0.186178,-0.454897,-0.155567,-0.651952,-0.744393,-0.133834,-0.054098,98.320208,5.391840,15.723029
00847,NaN,-0.662526,10.429395,-0.003231,0.715039,-1.371264,0.522667,0.184177,-0.562756,-0.127365,-0.651636,-0.745090,-0.132549,-0.051405,98.402921,5.517163,15.411387
00848,NaN,-0.858507,10.478669,0.051554,0.563530,-1.492740,0.579441,0.185755,-0.681997,-0.107543,-0.651390,-0.745820,-0.130793,-0.048339,98.477638,5.640732,15.030072
00849,NaN,-1.153926,10.655342,-0.021012,0.301234,-1.529472,0.791003,0.185090,-0.819091,-0.120522,-0.651220,-0.746569,-0.128644,-0.044711,98.544908,5.784724,14.572063
00850,NaN,-1.270821,10.814064,-0.007317,0.228975,-1.596580,0.955669,0.178213,-0.970815,-0.119547,-0.651168,-0.747305,-0.125985,-0.040531,98.596617,5.940602,14.027355
00851,NaN,-1.298309,11.069983,0.016585,0.256905,-1.661074,1.205716,0.177603,-1.110603,-0.099054,-0.651174,-0.748067,-0.122799,-0.035887,98.639552,6.098311,13.401458
00852,NaN,-1.280216,11.460854,-0.018856,0.333175,-1.672805,1.592627,0.164512,-1.201136,-0.094671,-0.651273,-0.748771,-0.119287,-0.030933,98.665926,6.260715,12.723246
00853,NaN,-1.295028,11.686675,-0.124115,0.342853,-1.600990,1.831630,0.119543,-1.254585,-0.108448,-0.651537,-0.749308,-0.115648,-0.025753,98.663007,6.436678,12.015847
00854,NaN,-1.359435,11.785034,-0.126262,0.308290,-1.615531,1.936611,0.050575,-1.292721,-0.120236,-0.652068,-0.749578,-0.111908,-0.020437,98.614126,6.621247,11.287097
00855,NaN,-1.380233,11.664147,-0.084682,0.293668,-1.628457,1.816000,-0.002751,-1.305063,-0.141495,-0.652768,-0.749640,-0.108205,-0.015027,98.533447,6.819132,10.552938
00856,NaN,-1.323897,11.448821,-0.224269,0.312585,-1.432777,1.620941,-0.046147,-1.295094,-0.167928,-0.653611,-0.749503,-0.104617,-0.009599,98.424235,7.028873,9.825745
00857,NaN,-1.064940,11.278600,-0.363630,0.541680,-1.207714,1.444357,-0.069387,-1.232289,-0.182829,-0.654470,-0.749259,-0.101294,-0.004362,98.305524,7.241463,9.135265
00858,NaN,-1.039983,11.145809,-0.363625,0.570640,-1.162858,1.312279,-0.099738,-1.126515,-0.207419,-0.655379,-0.748863,-0.098395,0.000537,98.172714,7.456678,8.506134
00859,NaN,-1.276157,10.980187,-0.413082,0.335371,-1.100756,1.189105,-0.138420,-1.027256,-0.248561,-0.656351,-0.748308,-0.095981,0.005187,98.025177,7.686821,7.936665
00860,NaN,-1.290234,10.800924,-0.503558,0.313359,-0.960048,1.029738,-0.166202,-0.952929,-0.258277,-0.657386,-0.747627,-0.093837,0.009571,97.863108,7.913878,7.409215
00861,NaN,-1.150689,10.522403,-0.588405,0.428990,-0.793349,0.750346,-0.187790,-0.878027,-0.260783,-0.658438,-0.746871,-0.091956,0.013679,97.694632,8.136229,6.924350
00862,NaN,-0.924599,10.301721,-0.530420,0.652921,-0.767019,0.494927,-0.192073,-0.762810,-0.272851,-0.659452,-0.746078,-0.090488,0.017387,97.529169,8.354053,6.505182
00863,NaN,-0.715112,10.116747,-0.431847,0.870205,-0.791930,0.270065,-0.200142,-0.604930,-0.306840,-0.660399,-0.745256,-0.089677,0.020622,97.373254,8.579528,6.178818
00864,NaN,-0.816036,9.907199,-0.326013,0.778694,-0.856216,0.065833,-0.225223,-0.431752,-0.327633,-0.661366,-0.744340,-0.089506,0.023261,97.214636,8.802024,5.952277
00865,NaN,-1.054556,9.671470,-0.211296,0.548496,-0.939778,-0.142637,-0.252270,-0.288135,-0.358266,-0.662347,-0.743344,-0.089937,0.025462,97.054896,9.032404,5.810277
00866,NaN,-1.083493,9.378280,-0.017691,0.520862,-1.073290,-0.447700,-0.272095,-0.186890,-0.381984,-0.663363,-0.742267,-0.090783,0.027348,96.890356,9.267470,5.727033
00867,NaN,-0.970126,8.997384,0.224848,0.620639,-1.233989,-0.866373,-0.283535,-0.098691,-0.387522,-0.664361,-0.741169,-0.091953,0.028928,96.729454,9.500825,5.694779
00868,NaN,-0.945142,8.631528,0.304727,0.621202,-1.246451,-1.236572,-0.279762,-0.014353,-0.404599,-0.665316,-0.740071,-0.093455,0.030246,96.576409,9.736816,5.711159
00869,NaN,-0.693812,8.281091,0.426654,0.849215,-1.283395,-1.635190,-0.272618,0.074573,-0.425155,-0.666181,-0.739008,-0.095338,0.031314,96.438842,9.980172,5.780202
00870,NaN,-0.481173,8.031110,0.421370,1.045561,-1.210070,-1.916473,-0.259689,0.174075,-0.424046,-0.666961,-0.737987,-0.097534,0.032009,96.316453,10.215284,5.905640
00871,NaN,-0.182280,7.837287,0.419800,1.335671,-1.139059,-2.160830,-0.241442,0.286265,-0.429535,-0.667598,-0.737049,-0.100132,0.032325,96.219172,10.448175,6.096580
00872,NaN,0.092132,7.858061,0.359745,1.635611,-1.031718,-2.187253,-0.225025,0.404131,-0.411432,-0.668129,-0.736174,-0.103041,0.032146,96.141673,10.662268,6.353836
00873,NaN,0.344537,8.027898,0.290576,1.940707,-0.929851,-2.065481,-0.197721,0.533662,-0.390556,-0.668472,-0.735428,-0.106313,0.031442,96.097114,10.858329,6.685467
00874,NaN,0.467119,8.407220,0.168260,2.154008,-0.804151,-1.710754,-0.211376,0.648336,-0.368013,-0.668817,-0.734642,-0.109873,0.030225,96.055437,11.033225,7.081643
00875,NaN,0.487738,8.782870,0.052749,2.265943,-0.691281,-1.341148,-0.269304,0.714153,-0.325271,-0.669316,-0.733697,-0.113516,0.028599,95.991267,11.181782,7.514133
00876,NaN,0.480435,9.103251,-0.079475,2.332647,-0.552775,-1.017271,-0.348775,0.726739,-0.271508,-0.670114,-0.732493,-0.116999,0.026692,95.880498,11.297852,7.949956
00877,NaN,0.528277,9.460268,-0.155529,2.460738,-0.457349,-0.672919,-0.410026,0.698022,-0.202606,-0.671133,-0.731120,-0.120154,0.024634,95.734094,11.379022,8.365587
00878,NaN,0.683834,9.871761,-0.229081,2.696830,-0.344536,-0.295337,-0.456322,0.634249,-0.123042,-0.672376,-0.729607,-0.122792,0.022501,95.550413,11.417687,8.738675
00879,NaN,0.842340,10.361903,-0.270434,2.947791,-0.259369,0.157001,-0.513111,0.547190,-0.041316,-0.673861,-0.727946,-0.124860,0.020388,95.326282,11.417672,9.057177
00880,NaN,1.047274,10.787502,-0.251093,3.227029,-0.210805,0.534848,-0.601187,0.450162,0.063897,-0.675748,-0.726020,-0.126208,0.018206,95.036298,11.361936,9.312876
00881,NaN,1.216501,11.134337,-0.222781,3.443819,-0.158856,0.846451,-0.710216,0.346983,0.168096,-0.678076,-0.723785,-0.126854,0.015990,94.673725,11.255255,9.504321
00882,NaN,1.485185,11.221886,-0.274124,3.676920,0.015072,0.896693,-0.831317,0.260054,0.275032,-0.680913,-0.721174,-0.126808,0.013634,94.227668,11.090315,9.640243
00883,NaN,1.669157,11.201880,-0.336147,3.791151,0.200996,0.862838,-0.937733,0.191016,0.383081,-0.684150,-0.718261,-0.126160,0.011106,93.714982,10.869850,9.733626
00884,NaN,1.748954,11.057055,-0.361073,3.771946,0.344316,0.727720,-1.018027,0.137470,0.501732,-0.687715,-0.715111,-0.124883,0.008298,93.146628,10.581562,9.793020
00885,NaN,1.734369,10.911751,-0.353593,3.656124,0.440718,0.610191,-1.063448,0.064922,0.604355,-0.691450,-0.711855,-0.123007,0.005383,92.547346,10.239904,9.810841
00886,NaN,1.797248,10.772089,-0.307273,3.612017,0.511698,0.485477,-1.122991,-0.026909,0.726325,-0.695447,-0.708423,-0.120354,0.002319,91.901649,9.827678,9.775594
00887,NaN,1.909111,10.482055,-0.277567,3.578088,0.606667,0.208420,-1.184952,-0.121119,0.836855,-0.699669,-0.704822,-0.116999,-0.000815,91.215168,9.356237,9.689419
00888,NaN,1.978038,10.090098,-0.261898,3.477128,0.703752,-0.158485,-1.232307,-0.194707,0.960049,-0.704080,-0.701073,-0.112922,-0.004169,90.493332,8.810536,9.564879
00889,NaN,2.068697,9.598060,-0.263124,3.378213,0.810411,-0.625717,-1.249299,-0.253585,1.066452,-0.708517,-0.697294,-0.108281,-0.007680,89.761996,8.205741,9.413855
00890,NaN,2.157531,9.230628,-0.215884,3.304168,0.860754,-0.967030,-1.236423,-0.292919,1.173434,-0.712895,-0.693557,-0.103095,-0.011447,89.034828,7.533954,9.248231
00891,NaN,2.215535,8.908175,-0.218936,3.198867,0.945415,-1.257945,-1.196268,-0.318200,1.276782,-0.717068,-0.689980,-0.097480,-0.015451,88.335044,6.804262,9.078572
00892,NaN,2.348699,8.804378,-0.171365,3.199537,0.991079,-1.336746,-1.125984,-0.323327,1.365048,-0.720955,-0.686629,-0.091513,-0.019742,87.675775,6.018079,8.916285
00893,NaN,2.434815,8.939782,-0.279837,3.148039,1.187673,-1.175353,-1.039445,-0.323641,1.451329,-0.724461,-0.683589,-0.085277,-0.024279,87.072293,5.184681,8.765438
00894,NaN,2.557289,9.195753,-0.411195,3.127161,1.415127,-0.897156,-0.964895,-0.314259,1.525256,-0.727656,-0.680780,-0.078795,-0.029106,86.512387,4.303627,8.630725
00895,NaN,2.750413,9.520355,-0.489404,3.174644,1.604045,-0.550531,-0.930448,-0.267696,1.600206,-0.730627,-0.678074,-0.072255,-0.034324,85.979620,3.384416,8.534386
00896,NaN,2.874983,9.849368,-0.548016,3.138915,1.765882,-0.189704,-0.894014,-0.185043,1.672852,-0.733383,-0.675441,-0.065740,-0.040097,85.469678,2.421931,8.496687
00897,NaN,2.901959,10.214868,-0.654463,2.981929,1.966473,0.208834,-0.873570,-0.085379,1.737798,-0.735942,-0.672835,-0.059400,-0.046409,84.976999,1.431289,8.527664
00898,NaN,2.883374,10.471000,-0.875360,2.740874,2.269197,0.485686,-0.889597,0.009408,1.785404,-0.738458,-0.670085,-0.053206,-0.053243,84.473181,0.414063,8.623718
00899,NaN,2.795505,10.523714,-1.041401,2.426786,2.493717,0.557264,-0.920514,0.096631,1.835964,-0.740953,-0.667157,-0.047184,-0.060530,83.952276,-0.621322,8.781567
00900,NaN,2.827519,10.416977,-1.170040,2.231974,2.687092,0.466942,-0.938677,0.188253,1.881809,-0.743405,-0.664060,-0.041305,-0.068321,83.414490,-1.680472,9.004072
00901,NaN,2.715284,10.191728,-1.254108,1.906232,2.801054,0.253737,-0.938114,0.284585,1.923106,-0.745726,-0.660879,-0.035675,-0.076547,82.872566,-2.749448,9.294308
00902,NaN,2.638196,10.161247,-1.229450,1.619677,2.831103,0.241152,-0.871964,0.377425,1.953339,-0.747723,-0.657825,-0.030279,-0.085202,82.357255,-3.831144,9.649821
00903,NaN,2.522850,10.342712,-1.150696,1.282707,2.817717,0.437738,-0.753074,0.456010,1.974982,-0.749213,-0.655121,-0.025186,-0.094139,81.901211,-4.910815,10.061278
00904,NaN,2.479226,10.842722,-1.075628,0.968890,2.849024,0.948711,-0.642586,0.483391,1.989064,-0.750251,-0.652734,-0.020164,-0.103224,81.496355,-5.998299,10.498466
00905,NaN,2.536494,11.246482,-0.971833,0.752388,2.851411,1.374801,-0.594807,0.499611,1.997468,-0.751035,-0.650456,-0.015233,-0.112346,81.110489,-7.080905,10.953848
00906,NaN,2.663894,11.516149,-0.961489,0.591707,2.938101,1.661397,-0.562180,0.522415,2.000074,-0.751630,-0.648203,-0.010361,-0.121568,80.730134,-8.165136,11.431081
00907,NaN,2.700505,11.743218,-0.978663,0.335150,3.024678,1.887193,-0.509456,0.568867,1.996800,-0.751963,-0.646056,-0.005740,-0.130881,80.367648,-9.234799,11.942683
00908,NaN,2.706078,11.802707,-0.963139,0.077839,3.046345,1.945826,-0.467309,0.643024,1.987138,-0.752082,-0.643937,-0.001420,-0.140412,80.009870,-10.293857,12.504457
00909,NaN,2.728676,11.653166,-0.949890,-0.118049,3.043027,1.800451,-0.447252,0.727190,1.971715,-0.752059,-0.641770,0.002484,-0.150108,79.644714,-11.326901,13.121298
00910,NaN,2.769225,11.522724,-0.919486,-0.292520,3.027014,1.677904,-0.406773,0.823144,1.958828,-0.751831,-0.639601,0.005991,-0.160078,79.277613,-12.344018,13.801260
00911,NaN,2.790232,11.303457,-0.956587,-0.469079,3.055258,1.452702,-0.338289,0.947199,1.948427,-0.751307,-0.637524,0.008907,-0.170358,78.921889,-13.332351,14.560458
00912,NaN,2.815711,11.160314,-0.975368,-0.651390,3.071179,1.303559,-0.273915,1.085700,1.934124,-0.750504,-0.635486,0.011237,-0.181039,78.568174,-14.297799,15.407882
00913,NaN,2.773913,10.981425,-0.905324,-0.859789,2.976196,1.119115,-0.232858,1.231531,1.917486,-0.749500,-0.633398,0.012892,-0.192069,78.202155,-15.226666,16.347386
00914,NaN,2.765899,10.635574,-0.728355,-0.951589,2.764779,0.805333,-0.188809,1.379000,1.902011,-0.748278,-0.631243,0.013937,-0.203515,77.820222,-16.128537,17.381586
00915,NaN,2.637382,10.430358,-0.579503,-1.187210,2.558960,0.585500,-0.104307,1.541746,1.881669,-0.746717,-0.629157,0.014186,-0.215346,77.443221,-16.987269,18.518583
00916,NaN,2.526087,10.534134,-0.501091,-1.516798,2.448786,0.641936,0.023378,1.707590,1.858550,-0.744674,-0.627268,0.013638,-0.227617,77.090929,-17.810264,19.760888
00917,NaN,2.403680,10.767422,-0.305023,-1.863780,2.224333,0.835465,0.102300,1.869012,1.813953,-0.742327,-0.625396,0.012222,-0.240168,76.737518,-18.575044,21.102318
00918,NaN,2.348063,10.869699,-0.168125,-2.113156,2.056269,0.910881,0.103497,2.028949,1.770404,-0.739905,-0.623224,0.010107,-0.253043,76.335058,-19.290726,22.543424
00919,NaN,2.144777,10.696963,-0.070383,-2.386081,1.844366,0.672151,0.071439,2.193366,1.731332,-0.737506,-0.620616,0.007267,-0.266210,75.864432,-19.946722,24.087189
00920,NaN,1.869116,10.419637,0.048820,-2.653042,1.572049,0.314115,0.074595,2.336609,1.679836,-0.735019,-0.617701,0.003765,-0.279603,75.347774,-20.545903,25.720488
00921,NaN,1.648767,10.278918,0.181926,-2.899030,1.313383,0.100738,0.098077,2.456532,1.625784,-0.732388,-0.614581,-0.000410,-0.293084,74.804174,-21.078545,27.427641
00922,NaN,1.393140,10.235876,0.353777,-3.179844,1.003940,-0.029137,0.105911,2.556601,1.565755,-0.729653,-0.611203,-0.005117,-0.306613,74.227817,-21.551571,29.196089
00923,NaN,1.084919,10.162572,0.531782,-3.462175,0.656186,-0.204417,0.084512,2.640758,1.488729,-0.726941,-0.607481,-0.010362,-0.320024,73.610429,-21.947189,31.011164
00924,NaN,0.719044,10.023628,0.637496,-3.763210,0.333568,-0.478758,0.047063,2.695150,1.405181,-0.724301,-0.603389,-0.015968,-0.333248,72.949717,-22.273302,32.853441
00925,NaN,0.108561,9.769751,0.643967,-4.213801,-0.042250,-0.974386,-0.009772,2.702500,1.315246,-0.721824,-0.598938,-0.021803,-0.346075,72.250816,-22.524572,34.690610
00926,NaN,-0.480743,9.389686,0.705573,-4.530656,-0.476755,-1.557978,-0.073666,2.637388,1.224817,-0.719539,-0.594225,-0.027531,-0.358333,71.526490,-22.720823,36.478748
00927,NaN,-1.133467,8.986893,0.926307,-4.771608,-1.092610,-2.135159,-0.114123,2.494387,1.134635,-0.717418,-0.589496,-0.032962,-0.369755,70.813072,-22.870143,38.168794
00928,NaN,-1.835966,8.655330,0.758246,-5.233150,-1.428216,-2.781737,-0.132862,2.273383,1.012603,-0.715487,-0.584984,-0.037895,-0.380046,70.143117,-22.980335,39.707954
00929,NaN,-2.775436,8.446143,0.520868,-5.929551,-1.864749,-3.435049,-0.110346,1.957494,0.860997,-0.713748,-0.581049,-0.042203,-0.388798,69.569148,-23.052633,41.031585
00930,NaN,-3.710494,8.367522,0.479011,-6.561110,-2.471556,-3.908841,-0.058954,1.563464,0.676053,-0.712232,-0.577967,-0.045719,-0.395713,69.127617,-23.097329,42.086756
00931,NaN,-4.351615,8.422363,0.580336,-6.964219,-3.009994,-4.098771,-0.012877,1.050130,0.470128,-0.711075,-0.575991,-0.048110,-0.400366,68.848089,-23.128506,42.797396
00932,NaN,-4.545450,8.399234,0.556257,-7.086976,-3.157149,-4.215836,0.052141,0.439529,0.282233,-0.710236,-0.575409,-0.048985,-0.402580,68.760301,-23.185784,43.111756
00933,NaN,-4.391817,8.491278,0.344641,-7.141254,-2.915680,-4.154956,0.171556,-0.232356,0.098280,-0.709588,-0.576558,-0.048259,-0.402164,68.911980,-23.281839,42.993692
00934,NaN,-3.737733,8.646540,0.167811,-6.874292,-2.367800,-3.821103,0.357949,-0.863653,-0.117409,-0.708979,-0.579576,-0.046278,-0.399122,69.334923,-23.392199,42.459333
00935,NaN,-2.755134,9.042192,0.085865,-6.441679,-1.682915,-3.102110,0.552167,-1.407822,-0.343335,-0.708355,-0.584295,-0.043420,-0.393633,70.017648,-23.483301,41.555420
00936,NaN,-1.735473,9.437193,0.180326,-5.856504,-1.128790,-2.293920,0.708056,-1.805138,-0.575296,-0.707760,-0.590248,-0.040129,-0.386099,70.903411,-23.514796,40.367616
00937,NaN,-0.929524,9.803418,0.437985,-5.279262,-0.858589,-1.532932,0.812217,-2.049949,-0.806522,-0.707267,-0.596926,-0.036857,-0.376953,71.925168,-23.446414,38.988384
00938,NaN,-0.191562,10.006017,0.739050,-4.607249,-0.691958,-0.924690,0.880909,-2.133184,-1.028716,-0.706897,-0.603873,-0.034074,-0.366706,73.018177,-23.248096,37.520937
00939,NaN,0.631491,10.048009,1.082785,-3.737429,-0.541757,-0.417474,0.903051,-2.043827,-1.226741,-0.706694,-0.610602,-0.032243,-0.355962,74.107476,-22.900400,36.079267
00940,NaN,1.334772,10.050212,1.473458,-2.882448,-0.522012,0.004452,0.894130,-1.776657,-1.387433,-0.706650,-0.616704,-0.031825,-0.345413,75.125966,-22.399096,34.782721
00941,NaN,1.730775,9.968685,1.660225,-2.295491,-0.503874,0.167340,0.858641,-1.405228,-1.511766,-0.706774,-0.621933,-0.033038,-0.335527,76.030210,-21.755684,33.704033
00942,NaN,1.818222,9.935190,1.649255,-2.046453,-0.469439,0.203449,0.804907,-0.985891,-1.600159,-0.707061,-0.626183,-0.035915,-0.326602,76.799110,-20.991979,32.878778
00943,NaN,1.599742,9.900181,1.438025,-2.124176,-0.401719,0.085015,0.744593,-0.608192,-1.644632,-0.707473,-0.629532,-0.040163,-0.318681,77.440346,-20.145910,32.287359
00944,NaN,1.309882,9.877996,1.047701,-2.347504,-0.198927,-0.074351,0.712880,-0.289898,-1.677115,-0.707909,-0.632201,-0.045587,-0.311624,77.988481,-19.236866,31.893590
00945,NaN,1.059120,10.038645,0.697635,-2.591970,-0.001794,-0.032012,0.735031,-0.048461,-1.691874,-0.708181,-0.634512,-0.051941,-0.305247,78.494100,-18.288272,31.652164
00946,NaN,0.856788,10.462860,0.512245,-2.810930,0.080896,0.314347,0.771841,0.096232,-1.703718,-0.708256,-0.636675,-0.058900,-0.299248,78.988520,-17.314402,31.504681
00947,NaN,0.599322,11.022282,0.412756,-3.066971,0.063898,0.798923,0.777928,0.151164,-1.706291,-0.708235,-0.638719,-0.066062,-0.293389,79.471715,-16.332518,31.398773
00948,NaN,0.284306,11.428718,0.460094,-3.235151,-0.107547,1.161216,0.738337,0.114193,-1.707105,-0.708290,-0.640622,-0.073037,-0.287392,79.934421,-15.352464,31.279944
00949,NaN,0.073689,11.620643,0.610252,-3.193726,-0.314726,1.372770,0.703833,-0.024630,-1.689375,-0.708421,-0.642551,-0.079402,-0.281005,80.393099,-14.395815,31.090653
00950,NaN,-0.169052,11.745006,0.749581,-3.162428,-0.528451,1.512140,0.694646,-0.237900,-1.667452,-0.708574,-0.644704,-0.084929,-0.273984,80.871333,-13.469038,30.787966
00951,NaN,-0.355965,11.871492,0.706443,-3.172848,-0.556403,1.640606,0.692788,-0.524025,-1.649229,-0.708769,-0.647191,-0.089367,-0.266089,81.378255,-12.576322,30.330161
00952,NaN,-0.610091,11.980975,0.768508,-3.187730,-0.708079,1.756242,0.677716,-0.863227,-1.633793,-0.709077,-0.650026,-0.092533,-0.257125,81.909378,-11.715379,29.686684
00953,NaN,-0.518642,12.082037,0.669784,-2.987547,-0.549490,1.911759,0.636474,-1.238762,-1.585078,-0.709556,-0.653149,-0.094137,-0.247113,82.446947,-10.906749,28.839995
00954,NaN,-0.254482,12.078665,0.525090,-2.637939,-0.272519,1.985561,0.581314,-1.598376,-1.536718,-0.710237,-0.656465,-0.094239,-0.236084,82.977678,-10.142540,27.798800
00955,NaN,0.106260,11.794816,0.343457,-2.162994,0.071278,1.787337,0.469397,-1.943097,-1.513722,-0.711318,-0.659703,-0.092885,-0.224033,83.462141,-9.407176,26.569646
00956,NaN,0.453859,11.341492,-0.044466,-1.757135,0.583539,1.385831,0.379953,-2.255361,-1.463381,-0.712659,-0.662885,-0.090149,-0.211124,83.907355,-8.708652,25.172125
00957,NaN,0.769064,10.889973,-0.203029,-1.286599,0.860769,0.995899,0.381087,-2.507739,-1.397753,-0.713900,-0.666233,-0.086269,-0.197580,84.355670,-8.053273,23.641292
00958,NaN,1.180438,10.718576,-0.220115,-0.722139,1.031404,0.899088,0.404686,-2.670486,-1.340197,-0.714918,-0.669706,-0.081632,-0.183634,84.812395,-7.425763,22.027496
00959,NaN,1.587468,10.560635,-0.197788,-0.149152,1.133659,0.806939,0.414799,-2.739097,-1.274054,-0.715705,-0.673148,-0.076507,-0.169660,85.260700,-6.828620,20.384929
00960,NaN,1.817192,10.413402,-0.081241,0.284789,1.059606,0.701195,0.401277,-2.743441,-1.218769,-0.716324,-0.676413,-0.071163,-0.155823,85.684441,-6.249019,18.748928
00961,NaN,2.077718,10.245409,0.006182,0.729509,1.002451,0.567401,0.406321,-2.685418,-1.165645,-0.716704,-0.679514,-0.065824,-0.142348,86.089861,-5.687499,17.154586
00962,NaN,2.341407,10.088903,0.060144,1.155340,0.960278,0.434895,0.394743,-2.555917,-1.098870,-0.716882,-0.682364,-0.060711,-0.129514,86.466274,-5.146739,15.642455
00963,NaN,2.670416,9.851937,-0.044007,1.600971,1.071390,0.211330,0.381445,-2.334179,-1.053835,-0.716879,-0.684908,-0.056207,-0.117590,86.808969,-4.616657,14.263899
00964,NaN,2.751423,9.658063,-0.201462,1.787032,1.167004,0.002201,0.396386,-2.018049,-1.025873,-0.716608,-0.687226,-0.052753,-0.106816,87.133957,-4.083337,13.071695
00965,NaN,2.909156,9.601331,-0.042559,2.101702,0.976246,-0.051602,0.436228,-1.725519,-1.002690,-0.716028,-0.689453,-0.050270,-0.097117,87.458611,-3.550333,12.051792
00966,NaN,3.753276,9.621240,-0.151971,3.017932,1.184925,-0.006319,0.476937,-1.374170,-0.949006,-0.715126,-0.691608,-0.048886,-0.088793,87.786026,-3.032430,11.238241
00967,NaN,4.089100,9.683328,-0.512816,3.388506,1.531370,0.032207,0.539769,-0.878759,-0.961434,-0.713847,-0.693718,-0.049331,-0.082126,88.127481,-2.494066,10.711888
00968,NaN,3.722130,9.771142,-0.678327,3.110120,1.566116,0.069752,0.588285,-0.379507,-1.031094,-0.712270,-0.695750,-0.051825,-0.076919,88.481146,-1.902962,10.473987
00969,NaN,2.895142,10.021787,-0.601874,2.418243,1.296601,0.269472,0.622763,-0.026745,-1.034521,-0.710459,-0.697739,-0.055590,-0.072923,88.845673,-1.304908,10.441970
00970,NaN,2.404453,10.142227,-0.637588,2.040414,1.199797,0.358284,0.661253,0.179204,-1.007430,-0.708416,-0.699774,-0.060011,-0.069722,89.230502,-0.719260,10.532155
00971,NaN,2.268703,10.296714,-0.589367,2.024183,1.083738,0.494772,0.695297,0.328696,-0.964432,-0.706171,-0.701860,-0.064815,-0.067189,89.634312,-0.158969,10.712224
00972,NaN,2.274354,10.412000,-0.375174,2.177027,0.829890,0.593749,0.690524,0.458045,-0.932860,-0.703857,-0.703873,-0.069965,-0.065216,90.038079,0.382894,10.970440
00973,NaN,2.213098,10.319001,-0.148052,2.263931,0.552962,0.481454,0.689806,0.569872,-0.896230,-0.701471,-0.705827,-0.075371,-0.063768,90.443776,0.900932,11.296431
00974,NaN,1.939769,10.184021,0.069720,2.137040,0.245334,0.328997,0.699294,0.632485,-0.861137,-0.698983,-0.707783,-0.080878,-0.062654,90.859415,1.396621,11.661888
00975,NaN,1.638712,10.049194,0.249315,1.971658,-0.031993,0.179534,0.704192,0.646367,-0.812299,-0.696433,-0.709737,-0.086254,-0.061759,91.280404,1.860991,12.038394
00976,NaN,1.568553,9.947920,0.303367,2.002411,-0.142179,0.060651,0.724718,0.613588,-0.753563,-0.693774,-0.711776,-0.091313,-0.060939,91.716309,2.289705,12.398872
00977,NaN,1.589138,9.866191,0.415090,2.127938,-0.291246,-0.044079,0.726964,0.578980,-0.679110,-0.691081,-0.713837,-0.095982,-0.060252,92.154470,2.673371,12.741353
00978,NaN,1.563714,9.765612,0.508128,2.196900,-0.431495,-0.166064,0.718888,0.559040,-0.619832,-0.688381,-0.715886,-0.100367,-0.059701,92.590448,3.021095,13.074109
00979,NaN,1.328497,9.589137,0.589916,2.048307,-0.604239,-0.352074,0.689951,0.526978,-0.568194,-0.685770,-0.717846,-0.104443,-0.059226,93.010073,3.337534,13.389643
00980,NaN,1.160393,9.412947,0.749985,1.976283,-0.837285,-0.544176,0.679370,0.474213,-0.508688,-0.683185,-0.719801,-0.108120,-0.058770,93.424132,3.619290,13.675503
00981,NaN,1.033886,9.286765,0.943974,1.949622,-1.096097,-0.691224,0.678419,0.401372,-0.437808,-0.680611,-0.721793,-0.111289,-0.058293,93.835537,3.861135,13.919068
00982,NaN,0.885896,9.247020,1.001698,1.870880,-1.233023,-0.742151,0.661459,0.311763,-0.381552,-0.678115,-0.723774,-0.113943,-0.057693,94.235129,4.072524,14.110876
00983,NaN,0.755812,9.130797,1.054937,1.796104,-1.357047,-0.869105,0.633848,0.229651,-0.334969,-0.675745,-0.725696,-0.116141,-0.056968,94.615578,4.259817,14.254995
00984,NaN,0.585870,9.002340,1.177092,1.692672,-1.555552,-1.010091,0.613960,0.155928,-0.298643,-0.673467,-0.727586,-0.117949,-0.056111,94.982217,4.428644,14.356473
00985,NaN,0.416359,8.993574,1.265113,1.588003,-1.728403,-1.029248,0.610071,0.070387,-0.255559,-0.671236,-0.729501,-0.119311,-0.055088,95.342602,4.576968,14.407792
00986,NaN,0.370240,9.057694,1.409515,1.619194,-1.932157,-0.991672,0.619396,-0.010065,-0.221595,-0.669001,-0.731483,-0.120278,-0.053881,95.704845,4.709616,14.412188
00987,NaN,0.508698,9.239500,1.434421,1.808869,-1.985645,-0.842202,0.607469,-0.074911,-0.190476,-0.666834,-0.733452,-0.120912,-0.052545,96.056905,4.828724,14.378456
00988,NaN,0.653801,9.416536,1.424377,1.994075,-2.005028,-0.695084,0.589657,-0.090154,-0.171275,-0.664730,-0.735369,-0.121416,-0.051232,96.397895,4.937527,14.335542
00989,NaN,0.843831,9.712063,1.399325,2.231253,-2.009979,-0.433160,0.564733,-0.065369,-0.149807,-0.662690,-0.737203,-0.121919,-0.050091,96.725707,5.033252,14.306001
00990,NaN,0.859813,9.964970,1.482905,2.320693,-2.158908,-0.211013,0.528243,-0.019582,-0.134494,-0.660749,-0.738907,-0.122503,-0.049197,97.034598,5.116639,14.302064
00991,NaN,0.694361,10.276299,1.393140,2.200252,-2.189099,0.106577,0.474331,0.032859,-0.111134,-0.658963,-0.740430,-0.123163,-0.048601,97.315404,5.183660,14.326833
00992,NaN,0.449552,10.556532,1.249013,1.984847,-2.180164,0.410306,0.402508,0.063462,-0.085837,-0.657417,-0.741718,-0.123808,-0.048252,97.556054,5.233140,14.367431
00993,NaN,0.150692,10.735586,1.227753,1.731026,-2.288212,0.606066,0.333395,0.077423,-0.056232,-0.656107,-0.742793,-0.124377,-0.048089,97.758144,5.265373,14.413972
00994,NaN,-0.207579,10.799432,1.244152,1.410410,-2.429673,0.690935,0.261104,0.058479,-0.027175,-0.655072,-0.743649,-0.124752,-0.048002,97.916938,5.281560,14.447448
00995,NaN,-0.648809,10.813772,1.372187,1.024681,-2.687955,0.721372,0.190537,0.005338,0.011120,-0.654319,-0.744312,-0.124799,-0.047880,98.032943,5.281048,14.447718
00996,NaN,-1.110642,10.683355,1.391881,0.569102,-2.823789,0.627967,0.116263,-0.089767,0.043016,-0.653898,-0.744769,-0.124393,-0.047562,98.100227,5.269163,14.391099
00997,NaN,-1.421028,10.478290,1.348631,0.228633,-2.845279,0.457892,0.055064,-0.215224,0.083369,-0.653768,-0.745085,-0.123417,-0.046940,98.126561,5.245505,14.259864
00998,NaN,-1.644327,10.194097,1.323016,-0.040534,-2.845639,0.201026,0.006580,-0.340080,0.115295,-0.653894,-0.745285,-0.121896,-0.045993,98.117271,5.212969,14.054749
00999,NaN,-1.817291,9.941669,1.357715,-0.248527,-2.889273,-0.036542,-0.019459,-0.480641,0.131585,-0.654188,-0.745443,-0.119855,-0.044586,98.086993,5.183368,13.768445
01000,NaN,-1.837303,9.740778,1.335387,-0.319287,-2.842087,-0.228209,-0.042511,-0.606885,0.141700,-0.654645,-0.745547,-0.117351,-0.042760,98.035673,5.157143,13.409238
01001,NaN,-1.778661,9.546666,1.253425,-0.327374,-2.716654,-0.411300,-0.052217,-0.720913,0.136726,-0.655189,-0.745639,-0.114495,-0.040492,97.974546,5.143313,12.985717
01002,NaN,-1.695891,9.443527,1.139995,-0.306411,-2.563638,-0.501960,-0.059417,-0.800630,0.111062,-0.655812,-0.745690,-0.111464,-0.037851,97.903796,5.149112,12.518586
01003,NaN,-1.667017,9.533423,1.107851,-0.295140,-2.522047,-0.408191,-0.064973,-0.850667,0.078865,-0.656468,-0.745709,-0.108392,-0.034916,97.829023,5.177277,12.025703
01004,NaN,-1.829247,9.629921,1.042704,-0.472433,-2.485156,-0.285385,-0.086737,-0.896135,0.032463,-0.657236,-0.745615,-0.105332,-0.031675,97.737553,5.233891,11.510158
01005,NaN,-2.064697,9.783765,1.003684,-0.705525,-2.486624,-0.101289,-0.126344,-0.970931,-0.021621,-0.658174,-0.745368,-0.102225,-0.027992,97.620997,5.326719,10.956240
01006,NaN,-2.148452,9.832609,0.882851,-0.812786,-2.356338,-0.021753,-0.178104,-1.063343,-0.077646,-0.659355,-0.744904,-0.099007,-0.023811,97.467108,5.456373,10.353187
01007,NaN,-2.056092,9.740314,0.753681,-0.758534,-2.163368,-0.096023,-0.202929,-1.154994,-0.135341,-0.660646,-0.744327,-0.095702,-0.019105,97.294764,5.624493,9.701886
01008,NaN,-2.051611,9.714351,0.556918,-0.784722,-1.922653,-0.087704,-0.218194,-1.222747,-0.199156,-0.662022,-0.743636,-0.092399,-0.013947,97.105896,5.831126,9.015373
01009,NaN,-2.072642,9.703347,0.305270,-0.830603,-1.630994,-0.055960,-0.204119,-1.280409,-0.265731,-0.663336,-0.742945,-0.089156,-0.008344,96.921538,6.078012,8.299993
01010,NaN,-2.013734,9.871298,0.108071,-0.755350,-1.400095,0.136095,-0.148845,-1.328484,-0.341204,-0.664452,-0.742359,-0.086026,-0.002289,96.760671,6.368429,7.560765
01011,NaN,-1.731923,10.351076,0.041464,-0.391692,-1.307093,0.593267,-0.085461,-1.354890,-0.407118,-0.665298,-0.741932,-0.083055,0.004113,96.633109,6.696812,6.810081
01012,NaN,-1.286705,10.915989,0.051622,0.165362,-1.290211,1.101745,-0.053025,-1.346669,-0.466106,-0.666000,-0.741538,-0.080319,0.010691,96.518148,7.056118,6.066319
01013,NaN,-0.761886,11.551200,0.156013,0.830021,-1.379463,1.652168,-0.040263,-1.279145,-0.501004,-0.666578,-0.741151,-0.077939,0.017142,96.413183,7.430052,5.362756
01014,NaN,-0.266869,12.128621,0.169938,1.459351,-1.389041,2.151596,-0.040464,-1.134804,-0.541204,-0.667083,-0.740715,-0.076180,0.023189,96.312156,7.815836,4.742891
01015,NaN,0.076470,12.636717,0.160512,1.938133,-1.387174,2.598484,-0.105599,-0.895895,-0.575531,-0.667696,-0.740064,-0.075355,0.028443,96.191415,8.205693,4.261787
01016,NaN,0.154475,12.642474,0.088270,2.084309,-1.282599,2.591902,-0.274695,-0.622622,-0.607576,-0.668827,-0.738843,-0.075576,0.032724,95.990994,8.595061,3.937883
01017,NaN,0.063801,11.951702,0.011791,1.955540,-1.099563,1.926713,-0.471510,-0.375979,-0.603767,-0.670562,-0.737004,-0.076646,0.036010,95.699661,8.967282,3.754559
01018,NaN,-0.045040,10.766230,-0.192483,1.710966,-0.734254,0.793140,-0.605237,-0.192958,-0.572601,-0.672731,-0.734735,-0.078228,0.038461,95.344018,9.309635,3.672279
01019,NaN,0.000936,9.655089,-0.420347,1.612858,-0.347188,-0.290342,-0.640877,-0.042125,-0.516781,-0.674953,-0.732397,-0.080127,0.040160,94.983704,9.612822,3.672718
01020,NaN,0.297150,8.849497,-0.494390,1.803438,-0.133494,-1.130767,-0.607381,0.093742,-0.440962,-0.677020,-0.730205,-0.082189,0.041113,94.652203,9.865069,3.745637
01021,NaN,0.518232,8.339002,-0.603897,1.955944,0.077120,-1.667733,-0.548299,0.238778,-0.357812,-0.678802,-0.728281,-0.084435,0.041284,94.371262,10.064781,3.898202
01022,NaN,0.746088,8.173973,-0.739456,2.164266,0.282256,-1.865776,-0.447159,0.367039,-0.283419,-0.680188,-0.726736,-0.086813,0.040771,94.158369,10.215914,4.120519
01023,NaN,1.033576,8.473031,-0.760553,2.514174,0.341327,-1.627255,-0.307526,0.481926,-0.202675,-0.681009,-0.725732,-0.089269,0.039633,94.039956,10.318084,4.406524
01024,NaN,1.180806,9.286822,-0.783779,2.814964,0.358717,-0.857191,-0.211754,0.591009,-0.131273,-0.681458,-0.725086,-0.091807,0.037891,93.984904,10.374072,4.752226
01025,NaN,1.158354,10.271095,-0.786612,2.977230,0.335581,0.110988,-0.252520,0.658901,-0.060748,-0.682013,-0.724353,-0.094338,0.035651,93.916044,10.388862,5.135211
01026,NaN,1.095368,10.923690,-0.848868,3.025137,0.400239,0.767271,-0.418237,0.663654,0.022038,-0.683188,-0.723071,-0.096601,0.033024,93.749345,10.355281,5.517013
01027,NaN,0.877234,11.063565,-1.025819,2.803937,0.609397,0.957197,-0.616391,0.609213,0.123177,-0.685094,-0.721154,-0.098357,0.030161,93.465138,10.268946,5.864197
01028,NaN,0.624309,10.876639,-1.266620,2.468130,0.906609,0.835368,-0.747045,0.490703,0.220174,-0.687548,-0.718790,-0.099360,0.027318,93.089981,10.131123,6.138990
01029,NaN,0.485149,10.753307,-1.441549,2.250424,1.150993,0.749371,-0.799827,0.305786,0.315957,-0.690265,-0.716267,-0.099403,0.024794,92.667463,9.947554,6.304999
01030,NaN,0.387927,10.847516,-1.465423,2.117690,1.244928,0.861169,-0.829535,0.092658,0.421053,-0.693210,-0.713639,-0.098320,0.022643,92.203329,9.708242,6.345304
01031,NaN,0.335949,10.933531,-1.344339,2.032992,1.203671,0.952036,-0.890345,-0.132282,0.537974,-0.696462,-0.710829,-0.096061,0.020871,91.685067,9.408746,6.255330
01032,NaN,0.398725,10.821742,-1.232912,2.015257,1.192916,0.831728,-0.964645,-0.363199,0.668975,-0.700097,-0.707763,-0.092519,0.019414,91.100947,9.034361,6.031960
01033,NaN,0.556391,10.392938,-1.075607,2.036351,1.148647,0.385946,-1.040145,-0.571762,0.805812,-0.704062,-0.704457,-0.087784,0.018194,90.459648,8.583108,5.691453
01034,NaN,0.768714,9.787395,-0.930254,2.079401,1.113888,-0.237547,-1.079488,-0.742892,0.934224,-0.708227,-0.701002,-0.081974,0.017092,89.782775,8.052215,5.256915
01035,NaN,1.119415,9.147958,-0.801794,2.254407,1.092711,-0.907443,-1.089788,-0.874558,1.061085,-0.712428,-0.697514,-0.075267,0.016010,89.097422,7.445265,4.754433
01036,NaN,1.485619,8.569162,-0.750200,2.450423,1.131138,-1.511174,-1.062507,-0.944784,1.171927,-0.716526,-0.694091,-0.067895,0.014773,88.427205,6.765450,4.220391
01037,NaN,1.887466,8.101151,-0.726864,2.699233,1.183231,-2.000359,-1.010538,-0.941468,1.275052,-0.720375,-0.690842,-0.060187,0.013186,87.796957,6.023332,3.699178
01038,NaN,2.455266,7.785375,-0.651836,3.136835,1.181837,-2.340894,-0.922155,-0.853493,1.358098,-0.723849,-0.687872,-0.052478,0.011005,87.228234,5.227578,3.238885
01039,NaN,2.972285,7.677040,-0.560708,3.545042,1.155939,-2.451907,-0.819894,-0.674032,1.435252,-0.726856,-0.685257,-0.045163,0.007970,86.736207,4.391799,2.892275
01040,NaN,3.378875,7.882659,-0.318142,3.868630,0.984335,-2.215474,-0.679764,-0.416332,1.494328,-0.729284,-0.683113,-0.038551,0.003850,86.338489,3.525283,2.702115
01041,NaN,3.586747,8.487723,-0.008877,4.005187,0.763135,-1.549484,-0.537369,-0.112380,1.546747,-0.731107,-0.681468,-0.032885,-0.001454,86.036949,2.642452,2.693671
01042,NaN,3.573003,9.431871,0.190951,3.901819,0.672847,-0.534557,-0.467763,0.173456,1.594988,-0.732607,-0.680027,-0.028074,-0.007917,85.780060,1.740163,2.854816
01043,NaN,3.518966,10.188314,0.203052,3.709358,0.767515,0.280611,-0.498434,0.410741,1.657283,-0.734111,-0.678433,-0.023941,-0.015398,85.508058,0.816904,3.158504
01044,NaN,3.515050,10.698550,0.022273,3.520559,1.055647,0.831679,-0.575819,0.634913,1.736479,-0.735791,-0.676479,-0.020329,-0.023961,85.185694,-0.143413,3.598506
01045,NaN,3.401355,10.913505,-0.153053,3.197127,1.325078,1.082966,-0.674281,0.850596,1.816545,-0.737689,-0.674087,-0.017251,-0.033533,84.799777,-1.132071,4.171646
01046,NaN,3.167355,10.966145,-0.380370,2.732799,1.635619,1.154748,-0.749061,1.033215,1.888881,-0.739732,-0.671303,-0.014561,-0.044014,84.355845,-2.152008,4.860233
01047,NaN,2.832277,11.028990,-0.476666,2.162292,1.810506,1.229444,-0.786614,1.169300,1.961502,-0.741765,-0.668275,-0.012147,-0.055192,83.875589,-3.195682,5.639404
01048,NaN,2.509194,11.156526,-0.486511,1.592381,1.902173,1.360538,-0.805835,1.239884,2.030166,-0.743735,-0.665049,-0.009731,-0.066879,83.364599,-4.271425,6.473111
01049,NaN,2.202240,11.299076,-0.467379,1.027693,1.959435,1.493756,-0.812627,1.256241,2.092245,-0.745580,-0.661700,-0.007193,-0.078816,82.833663,-5.369511,7.331313
01050,NaN,1.948619,11.597238,-0.412087,0.489011,1.994489,1.773473,-0.802855,1.222572,2.144851,-0.747257,-0.658282,-0.004330,-0.090849,82.290347,-6.496211,8.186223
01051,NaN,1.755179,11.863156,-0.244070,0.013429,1.913604,2.028160,-0.798591,1.157768,2.188926,-0.748769,-0.654811,-0.001110,-0.102794,81.736943,-7.640595,9.020198
01052,NaN,1.598257,12.151131,0.007760,-0.431552,1.751354,2.309345,-0.798209,1.060260,2.232290,-0.750138,-0.651272,0.002646,-0.114589,81.170864,-8.813978,9.815820
01053,NaN,1.462274,12.304327,0.122636,-0.862481,1.702792,2.430629,-0.801825,0.929599,2.267427,-0.751368,-0.647696,0.006980,-0.126046,80.597562,-10.006944,10.553831
01054,NaN,1.509367,12.393904,0.321783,-1.097408,1.590571,2.526225,-0.795812,0.787369,2.273450,-0.752452,-0.644117,0.011890,-0.137070,80.023048,-11.213846,11.225847
01055,NaN,1.668647,12.377299,0.408984,-1.220271,1.590667,2.521097,-0.781964,0.659469,2.286076,-0.753353,-0.640586,0.017283,-0.147684,79.455922,-12.430106,11.840254
01056,NaN,1.840223,12.206077,0.407100,-1.307604,1.655538,2.356225,-0.770337,0.549871,2.276476,-0.754102,-0.637072,0.023074,-0.157913,78.892225,-13.650807,12.405817
01057,NaN,1.949954,11.955568,0.369735,-1.428199,1.727701,2.097096,-0.768902,0.465563,2.251282,-0.754742,-0.633549,0.029070,-0.167731,78.328292,-14.857374,12.934473
01058,NaN,2.096341,11.491726,0.339293,-1.436409,1.768031,1.649161,-0.764574,0.408794,2.221899,-0.755279,-0.629995,0.035207,-0.177259,77.760338,-16.053000,13.442182
01059,NaN,2.275212,10.989556,0.369073,-1.367555,1.747826,1.194239,-0.729608,0.387847,2.179201,-0.755634,-0.626521,0.041226,-0.186518,77.204588,-17.218580,13.946918
01060,NaN,2.470498,10.491756,0.392205,-1.261931,1.733631,0.757613,-0.675928,0.403334,2.136311,-0.755766,-0.623153,0.047022,-0.195672,76.663004,-18.357316,14.470185
01061,NaN,2.670643,10.189885,0.469745,-1.188784,1.692799,0.526730,-0.609455,0.459035,2.084026,-0.755660,-0.619925,0.052348,-0.204771,76.138291,-19.450968,15.032889
01062,NaN,2.893174,9.984599,0.505536,-1.124646,1.709058,0.391647,-0.533820,0.556630,2.039219,-0.755299,-0.616812,0.057108,-0.214020,75.623386,-20.504883,15.661361
01063,NaN,3.152735,9.890406,0.541704,-1.060004,1.750040,0.378645,-0.454983,0.701507,1.980571,-0.754713,-0.613795,0.061024,-0.223470,75.111741,-21.496316,16.380564
01064,NaN,3.354688,9.978549,0.668124,-1.100047,1.718422,0.536471,-0.374233,0.884867,1.912442,-0.753924,-0.610822,0.063966,-0.233246,74.591851,-22.420111,17.212932
01065,NaN,3.396857,10.136097,0.679335,-1.329059,1.765894,0.668361,-0.324806,1.092858,1.841538,-0.753048,-0.607752,0.065819,-0.243358,74.040254,-23.261753,18.171993
01066,NaN,3.167541,10.182841,0.686563,-1.742368,1.725253,0.588246,-0.315953,1.289876,1.766374,-0.752210,-0.604422,0.066706,-0.253780,73.432063,-24.024921,19.251726
01067,NaN,2.931606,10.092798,0.686460,-2.087236,1.667864,0.374996,-0.318770,1.452932,1.704923,-0.751423,-0.600827,0.066766,-0.264412,72.768737,-24.712760,20.433141
01068,NaN,2.745373,9.897404,0.727876,-2.315447,1.569138,0.096877,-0.308030,1.591913,1.632487,-0.750645,-0.597029,0.066086,-0.275176,72.062295,-25.327367,21.700187
01069,NaN,2.628675,9.708278,0.778717,-2.467848,1.482208,-0.144307,-0.277361,1.721152,1.570039,-0.749807,-0.593115,0.064660,-0.286047,71.328414,-25.866975,23.046677
01070,NaN,2.466027,9.602831,0.862279,-2.676593,1.357026,-0.324188,-0.260356,1.832267,1.491077,-0.748961,-0.589044,0.062573,-0.296934,70.564493,-26.330214,24.457707
01071,NaN,2.262491,9.364682,0.945873,-2.831861,1.196148,-0.633416,-0.256413,1.926958,1.417293,-0.748140,-0.584792,0.059877,-0.307766,69.770800,-26.714918,25.921261
01072,NaN,1.994725,9.156621,1.153977,-3.000459,0.896447,-0.905012,-0.258160,1.982030,1.342385,-0.747344,-0.580383,0.056771,-0.318450,68.955121,-27.032771,27.411902
01073,NaN,1.727718,8.836312,1.282000,-3.105758,0.650455,-1.289825,-0.251776,1.996974,1.261212,-0.746562,-0.575919,0.053334,-0.328815,68.138166,-27.282366,28.900534
01074,NaN,1.545010,8.610182,1.386255,-3.182040,0.467186,-1.560436,-0.231896,1.976260,1.176569,-0.745750,-0.571503,0.049710,-0.338778,67.338675,-27.475468,30.363384
01075,NaN,1.410155,8.434479,1.488217,-3.231797,0.308811,-1.762633,-0.200294,1.942522,1.088192,-0.744898,-0.567215,0.045881,-0.348267,66.571810,-27.609166,31.788292
01076,NaN,1.181968,8.348871,1.543783,-3.402487,0.153757,-1.946111,-0.181953,1.900207,0.993856,-0.744055,-0.563019,0.041922,-0.357258,65.833805,-27.688914,33.167251
01077,NaN,1.006894,8.239384,1.608230,-3.501416,0.008593,-2.116751,-0.167563,1.837819,0.889140,-0.743269,-0.558952,0.037852,-0.365637,65.133190,-27.711239,34.482522
01078,NaN,0.774679,8.195226,1.690882,-3.660190,-0.176777,-2.250113,-0.173762,1.746591,0.780376,-0.742606,-0.554993,0.033840,-0.373330,64.466955,-27.687574,35.715033
01079,NaN,0.553526,8.154135,1.600857,-3.862659,-0.213837,-2.437521,-0.156479,1.616620,0.666193,-0.742027,-0.551315,0.029944,-0.380199,63.862694,-27.623349,36.838366
01080,NaN,0.334413,8.175904,1.511800,-4.091565,-0.251092,-2.571226,-0.128062,1.447528,0.543946,-0.741523,-0.548043,0.026295,-0.386136,63.337765,-27.531383,37.827452
01081,NaN,0.111281,8.349072,1.337511,-4.437949,-0.210831,-2.617658,-0.082688,1.239844,0.403169,-0.741105,-0.545333,0.022928,-0.390959,62.916082,-27.412298,38.653595
01082,NaN,-0.052748,8.640539,1.104174,-4.830671,-0.083499,-2.564340,-0.034505,0.999219,0.246440,-0.740807,-0.543270,0.019941,-0.394545,62.608707,-27.273200,39.293899
01083,NaN,-0.184653,8.925620,0.881707,-5.185539,0.049733,-2.492448,0.009604,0.728081,0.071258,-0.740695,-0.541913,0.017385,-0.396735,62.423840,-27.112921,39.725372
01084,NaN,-0.300136,9.096850,0.749287,-5.415189,0.109270,-2.459595,0.038292,0.421711,-0.105154,-0.740820,-0.541281,0.015436,-0.397445,62.360089,-26.944627,39.928735
01085,NaN,-0.360171,9.031577,0.732729,-5.406571,0.088165,-2.532773,0.074623,0.096211,-0.289642,-0.741188,-0.541442,0.014113,-0.396588,62.426466,-26.768055,39.891521
01086,NaN,-0.295180,8.806317,0.722049,-5.203232,0.122876,-2.666300,0.136576,-0.232057,-0.468990,-0.741714,-0.542496,0.013403,-0.394181,62.635874,-26.587654,39.614993
01087,NaN,-0.143668,8.480814,0.857620,-4.810170,0.078417,-2.774489,0.239452,-0.536679,-0.639536,-0.742269,-0.544534,0.013153,-0.390316,63.002199,-26.398148,39.116619
01088,NaN,0.027149,8.145875,1.091463,-4.347949,-0.042018,-2.838410,0.374433,-0.783448,-0.800760,-0.742732,-0.547553,0.013117,-0.385178,63.526640,-26.186610,38.433384
01089,NaN,0.225427,7.937755,1.364298,-3.915058,-0.176080,-2.772737,0.518320,-0.958739,-0.949003,-0.743045,-0.551426,0.013048,-0.379002,64.191233,-25.936405,37.612150
01090,NaN,0.360344,7.808092,1.719025,-3.529132,-0.416986,-2.641780,0.654497,-1.064557,-1.085215,-0.743186,-0.555985,0.012735,-0.372013,64.971302,-25.632463,36.698101
01091,NaN,0.393043,7.665101,2.010068,-3.226331,-0.673141,-2.595656,0.772056,-1.114682,-1.185185,-0.743128,-0.561034,0.012113,-0.364493,65.833796,-25.276620,35.736459
01092,NaN,0.462161,7.675486,2.079853,-3.062004,-0.717090,-2.494119,0.877721,-1.121904,-1.260468,-0.742844,-0.566449,0.011110,-0.356645,66.757911,-24.869164,34.760400
01093,NaN,0.607622,7.661474,1.791444,-2.956194,-0.426388,-2.508262,0.962946,-1.087491,-1.310027,-0.742340,-0.572063,0.009688,-0.348684,67.715444,-24.413726,33.803493
01094,NaN,0.752034,7.725552,1.450354,-2.899672,-0.086629,-2.468559,1.053564,-0.993081,-1.368410,-0.741608,-0.577801,0.007585,-0.340742,68.696487,-23.891933,32.899914
01095,NaN,0.963685,7.932224,1.074028,-2.862379,0.328756,-2.282790,1.126168,-0.856470,-1.430041,-0.740704,-0.583513,0.004678,-0.332939,69.678089,-23.295848,32.076628
01096,NaN,1.074542,8.262272,0.760203,-2.920818,0.650357,-1.999789,1.186886,-0.717706,-1.504498,-0.739669,-0.589166,0.000932,-0.325226,70.655754,-22.619049,31.333549
01097,NaN,1.102531,8.618088,0.561075,-2.992075,0.833085,-1.679257,1.238858,-0.592702,-1.583361,-0.738532,-0.594738,-0.003587,-0.317559,71.625580,-21.865616,30.664694
01098,NaN,0.989516,9.110968,0.355747,-3.220010,0.965576,-1.279723,1.280893,-0.518199,-1.665679,-0.737312,-0.600284,-0.008700,-0.309766,72.595574,-21.042805,30.040956
01099,NaN,0.845945,9.661236,0.231745,-3.442526,1.016146,-0.800392,1.317455,-0.479200,-1.743068,-0.736012,-0.605820,-0.014237,-0.301772,73.566886,-20.162371,29.445226
01100,NaN,0.621243,10.207413,0.201406,-3.666497,0.944878,-0.311250,1.331795,-0.486742,-1.821314,-0.734687,-0.611343,-0.020013,-0.293418,74.538403,-19.229449,28.850924
01101,NaN,0.396919,10.645355,0.268232,-3.784106,0.779109,0.118152,1.328797,-0.548770,-1.882591,-0.733369,-0.616847,-0.025731,-0.284618,75.505695,-18.263711,28.231402
01102,NaN,0.278891,11.007493,0.234035,-3.801814,0.744752,0.496698,1.335746,-0.653401,-1.932327,-0.732002,-0.622438,-0.031237,-0.275259,76.483093,-17.273492,27.563863
01103,NaN,0.212001,11.394894,0.285319,-3.731852,0.655378,0.939406,1.368325,-0.793025,-1.975486,-0.730505,-0.628227,-0.036394,-0.265271,77.485365,-16.267890,26.831115
01104,NaN,0.381149,11.891992,0.281204,-3.492861,0.717769,1.541671,1.401338,-0.945723,-2.014129,-0.728855,-0.634236,-0.041166,-0.254598,78.515258,-15.244711,26.026631
01105,NaN,0.636980,12.317946,0.283392,-3.122836,0.794021,2.096444,1.415117,-1.077967,-2.031054,-0.727084,-0.640336,-0.045507,-0.243409,79.551520,-14.214462,25.166869
01106,NaN,0.936576,12.640983,0.331882,-2.639081,0.826893,2.561677,1.396354,-1.167535,-2.046350,-0.725271,-0.646363,-0.049555,-0.231821,80.571048,-13.167581,24.276206
01107,NaN,1.184496,12.685516,0.504760,-2.061326,0.699523,2.750484,1.353762,-1.227886,-2.071348,-0.723506,-0.652166,-0.053390,-0.219928,81.551464,-12.099090,23.371327
01108,NaN,1.460189,12.571269,0.565788,-1.455651,0.669579,2.753676,1.329512,-1.215695,-2.074221,-0.721674,-0.657753,-0.057259,-0.208013,82.497497,-11.010993,22.495025
01109,NaN,1.685892,12.413859,0.696979,-0.868607,0.546840,2.692140,1.283637,-1.193073,-2.010491,-0.719793,-0.663035,-0.060925,-0.196393,83.392092,-9.946215,21.657763
01110,NaN,1.985235,12.087071,0.683283,-0.243286,0.574857,2.439190,1.226560,-1.098509,-2.000940,-0.717930,-0.667917,-0.064850,-0.185087,84.228353,-8.866290,20.894558
01111,NaN,2.083185,11.702055,0.611367,0.169602,0.587767,2.073054,1.152184,-0.968831,-1.979261,-0.716144,-0.672299,-0.069072,-0.174302,84.992280,-7.783784,20.225089
01112,NaN,2.182601,11.236554,0.428835,0.535307,0.711032,1.607042,1.059524,-0.875078,-1.904486,-0.714457,-0.676204,-0.073304,-0.164089,85.683436,-6.728839,19.628519
01113,NaN,2.126672,10.777771,0.258365,0.727649,0.777166,1.124032,1.038087,-0.797603,-1.781972,-0.712627,-0.679914,-0.077354,-0.154579,86.342929,-5.736387,19.095378
01114,NaN,2.234308,10.652574,0.260839,1.064415,0.741265,0.997073,1.076084,-0.706909,-1.670689,-0.710455,-0.683663,-0.081387,-0.145725,87.010889,-4.796107,18.630405
01115,NaN,1.988005,10.820399,0.676319,1.154143,0.201979,1.146963,1.090071,-0.616611,-1.567210,-0.708054,-0.687353,-0.085370,-0.137541,87.672540,-3.909745,18.231711
01116,NaN,2.204987,10.961274,0.793459,1.581027,0.087147,1.283727,1.033806,-0.573916,-1.442217,-0.705666,-0.690812,-0.089045,-0.129942,88.295614,-3.087387,17.870363
01117,NaN,2.512861,10.968061,0.895666,2.084702,0.009381,1.280825,1.007824,-0.464207,-1.294773,-0.703175,-0.694108,-0.092558,-0.123259,88.893492,-2.346452,17.583091
01118,NaN,2.025842,10.959853,0.979473,1.811622,-0.290613,1.224199,0.953158,-0.369061,-1.193072,-0.700709,-0.697162,-0.096027,-0.117266,89.456060,-1.657973,17.358867
01119,NaN,1.705724,10.985079,1.062312,1.680831,-0.535155,1.214381,0.924986,-0.388994,-1.083602,-0.698254,-0.700130,-0.099007,-0.111608,89.998221,-1.032296,17.130225
01120,NaN,1.758962,10.953432,0.899056,1.820175,-0.435054,1.158904,0.892827,-0.443871,-0.939485,-0.695814,-0.703060,-0.101282,-0.106257,90.521648,-0.484928,16.875670
01121,NaN,1.992576,10.989520,0.780370,2.129183,-0.327145,1.173983,0.839995,-0.469580,-0.815475,-0.693484,-0.705844,-0.102985,-0.101283,91.010886,-0.008202,16.610249
01122,NaN,1.833422,10.902354,0.729254,2.066855,-0.394464,1.065083,0.780707,-0.505131,-0.689203,-0.691284,-0.708486,-0.104099,-0.096636,91.465620,0.400670,16.326900
01123,NaN,1.996774,10.753043,0.582861,2.272105,-0.274468,0.897866,0.731761,-0.528713,-0.618127,-0.689220,-0.710976,-0.104839,-0.092186,91.888688,0.769524,16.031903
01124,NaN,2.309235,10.722884,0.348763,2.590223,-0.029601,0.851432,0.682359,-0.451560,-0.544164,-0.687231,-0.713286,-0.105568,-0.088276,92.283864,1.098210,15.782242
01125,NaN,2.161199,10.605066,0.302759,2.504349,-0.083320,0.720618,0.611815,-0.369418,-0.459626,-0.685405,-0.715340,-0.106232,-0.084997,92.636843,1.376413,15.579569
01126,NaN,1.864383,10.359070,0.256420,2.259597,-0.163440,0.469289,0.549098,-0.335535,-0.403625,-0.683742,-0.717188,-0.106795,-0.082053,92.954853,1.624280,15.396432
01127,NaN,1.601060,10.066924,0.350179,2.072044,-0.360782,0.167546,0.530718,-0.351159,-0.354320,-0.682131,-0.718990,-0.107107,-0.079240,93.259921,1.843939,15.204048
01128,NaN,1.410794,9.889169,0.464166,1.957512,-0.560608,-0.022133,0.521181,-0.401468,-0.323420,-0.680553,-0.720791,-0.107141,-0.076346,93.559133,2.049949,14.983060
01129,NaN,1.367279,9.758663,0.508111,1.962274,-0.655754,-0.164978,0.509487,-0.471357,-0.282461,-0.679035,-0.722585,-0.106774,-0.073354,93.848080,2.234960,14.721493
01130,NaN,1.390456,9.639908,0.507347,2.015531,-0.692089,-0.295496,0.514241,-0.529875,-0.243645,-0.677501,-0.724432,-0.106077,-0.070271,94.138749,2.402587,14.425913
01131,NaN,1.498077,9.637339,0.537878,2.160430,-0.745866,-0.315963,0.510469,-0.565408,-0.211896,-0.675984,-0.726278,-0.105133,-0.067176,94.424349,2.553930,14.109357
01132,NaN,1.599050,9.563359,0.575085,2.293456,-0.805077,-0.408586,0.509372,-0.568586,-0.197173,-0.674451,-0.728123,-0.104130,-0.064111,94.709475,2.699570,13.791134
01133,NaN,1.727101,9.562601,0.623196,2.457340,-0.874039,-0.431225,0.502392,-0.549491,-0.178474,-0.672922,-0.729931,-0.103112,-0.061189,94.989285,2.834189,13.483499
01134,NaN,1.886099,9.482096,0.650528,2.638824,-0.910300,-0.533765,0.490711,-0.502703,-0.160475,-0.671392,-0.731689,-0.102187,-0.058497,95.263960,2.958429,13.202391
01135,NaN,1.815230,9.476791,0.643521,2.591668,-0.970157,-0.546591,0.480679,-0.415864,-0.135836,-0.669844,-0.733387,-0.101453,-0.056216,95.533972,3.064463,12.970023
01136,NaN,1.692384,9.388717,0.716491,2.503208,-1.109447,-0.645987,0.466476,-0.326870,-0.125170,-0.668288,-0.735014,-0.100978,-0.054299,95.798957,3.161062,12.788427
01137,NaN,1.568043,9.367174,0.730505,2.403429,-1.193979,-0.672988,0.463718,-0.232074,-0.110816,-0.666690,-0.736604,-0.100760,-0.052784,96.064308,3.244107,12.660435
01138,NaN,1.251400,9.373328,0.776109,2.124281,-1.351278,-0.664522,0.456202,-0.145572,-0.107423,-0.665067,-0.738145,-0.100819,-0.051599,96.328622,3.320866,12.582033
01139,NaN,0.999925,9.317376,0.964250,1.932234,-1.623768,-0.736740,0.434791,-0.081601,-0.091638,-0.663487,-0.739599,-0.101023,-0.050716,96.582053,3.384465,12.539365
01140,NaN,0.828776,9.209274,1.030914,1.786731,-1.753387,-0.852025,0.433667,-0.032413,-0.074016,-0.661875,-0.741045,-0.101326,-0.050072,96.836848,3.435189,12.523887
01141,NaN,0.726136,9.183632,1.038984,1.701639,-1.818793,-0.882842,0.438907,0.007993,-0.070253,-0.660221,-0.742493,-0.101748,-0.049589,97.095583,3.480777,12.531342
01142,NaN,0.737518,9.243585,1.043445,1.734126,-1.865611,-0.835565,0.449837,0.050127,-0.060826,-0.658499,-0.743969,-0.102277,-0.049286,97.362260,3.518073,12.562350
01143,NaN,0.710953,9.401571,1.008158,1.730029,-1.894171,-0.684142,0.454463,0.095594,-0.055766,-0.656732,-0.745446,-0.102937,-0.049168,97.632950,3.548811,12.619001
01144,NaN,0.544777,9.636904,0.890513,1.579782,-1.883689,-0.436357,0.445508,0.123869,-0.045775,-0.654977,-0.746888,-0.103649,-0.049192,97.899529,3.571447,12.691110
01145,NaN,0.427297,9.929608,0.854285,1.499000,-1.949498,-0.145122,0.424722,0.138717,-0.039312,-0.653288,-0.748257,-0.104380,-0.049304,98.154691,3.588876,12.771241
01146,NaN,0.359522,10.220148,0.840764,1.471062,-2.026618,0.138003,0.400560,0.145046,-0.033720,-0.651682,-0.749544,-0.105104,-0.049470,98.396062,3.602194,12.854560
01147,NaN,0.175801,10.457693,0.737740,1.306252,-2.035285,0.389749,0.355786,0.147426,-0.033069,-0.650239,-0.750683,-0.105822,-0.049670,98.612053,3.614681,12.939251
01148,NaN,0.039417,10.581817,0.736045,1.197136,-2.113238,0.512968,0.298233,0.140035,-0.023856,-0.649013,-0.751636,-0.106466,-0.049904,98.794390,3.622148,13.018942
01149,NaN,-0.270797,10.728523,0.749833,0.923441,-2.244867,0.667988,0.261635,0.132123,-0.025617,-0.647925,-0.752472,-0.107082,-0.050120,98.955877,3.631221,13.094373
01150,NaN,-0.606400,10.863011,0.819088,0.635105,-2.431393,0.804683,0.221303,0.079983,-0.023440,-0.647020,-0.753187,-0.107509,-0.050170,99.091787,3.643359,13.139990
01151,NaN,-0.852608,10.955215,0.858243,0.420859,-2.558715,0.899739,0.165297,-0.000521,-0.007169,-0.646359,-0.753752,-0.107602,-0.049999,99.193216,3.653721,13.138596
01152,NaN,-1.069968,10.825608,0.812210,0.190713,-2.558866,0.789865,0.087277,-0.101648,0.006713,-0.646049,-0.754092,-0.107295,-0.049534,99.245375,3.665331,13.078516
01153,NaN,-1.285515,10.579341,0.693444,-0.068445,-2.463314,0.578813,0.020611,-0.198466,0.017321,-0.646033,-0.754251,-0.106620,-0.048773,99.256576,3.680079,12.962711
01154,NaN,-1.269524,10.208209,0.597419,-0.111902,-2.313050,0.227901,-0.014600,-0.280464,0.013349,-0.646201,-0.754307,-0.105684,-0.047710,99.243540,3.704484,12.800657
01155,NaN,-1.022573,9.995099,0.300937,0.043973,-1.937983,0.050401,-0.029315,-0.308483,-0.001686,-0.646434,-0.754318,-0.104713,-0.046499,99.222101,3.740058,12.624243
01156,NaN,-0.763049,9.875153,0.234188,0.271337,-1.794977,-0.073069,-0.033732,-0.278757,-0.016710,-0.646679,-0.754292,-0.103891,-0.045355,99.197966,3.781236,12.465859
01157,NaN,-0.834887,9.826715,0.207880,0.192578,-1.772794,-0.110899,-0.048420,-0.261153,-0.023227,-0.646962,-0.754216,-0.103149,-0.044262,99.167240,3.824512,12.318201
01158,NaN,-0.902113,9.795022,0.144337,0.113618,-1.714445,-0.126365,-0.046915,-0.297019,-0.042215,-0.647270,-0.754133,-0.102361,-0.042973,99.134594,3.881628,12.151707
01159,NaN,-0.926481,9.824487,0.037224,0.076593,-1.613118,-0.077583,-0.036602,-0.353212,-0.070064,-0.647562,-0.754088,-0.101500,-0.041376,99.107054,3.959603,11.956044
01160,NaN,-1.067718,9.878089,-0.137986,-0.080907,-1.472043,0.013921,-0.031351,-0.419723,-0.115339,-0.647886,-0.754039,-0.100593,-0.039379,99.078300,4.069046,11.726480
01161,NaN,-1.152521,10.000073,-0.179280,-0.145644,-1.457001,0.148126,-0.021694,-0.510240,-0.152635,-0.648212,-0.754024,-0.099536,-0.036914,99.052661,4.207727,11.449084
01162,NaN,-0.920859,10.182536,-0.243445,0.105750,-1.365893,0.322124,0.017398,-0.607371,-0.186239,-0.648450,-0.754121,-0.098296,-0.033955,99.043110,4.374040,11.119257
01163,NaN,-0.517753,10.459795,-0.249386,0.551028,-1.317475,0.565084,0.055290,-0.675816,-0.214144,-0.648565,-0.754339,-0.096946,-0.030628,99.053088,4.562361,10.753285
01164,NaN,-0.068379,10.707012,-0.270836,1.040706,-1.247608,0.774025,0.058635,-0.685386,-0.233799,-0.648678,-0.754540,-0.095636,-0.027199,99.061651,4.762649,10.383304
01165,NaN,0.320198,10.916346,-0.275932,1.473718,-1.204430,0.944761,0.046871,-0.640390,-0.256613,-0.648797,-0.754686,-0.094558,-0.023872,99.066284,4.971903,10.041140
01166,NaN,0.640673,11.057806,-0.415027,1.814006,-1.035173,1.072876,0.030733,-0.556618,-0.262099,-0.648944,-0.754748,-0.093766,-0.020850,99.062769,5.176512,9.746635
01167,NaN,0.943680,11.260365,-0.516172,2.152141,-0.916217,1.254450,0.026190,-0.444871,-0.259389,-0.649037,-0.754790,-0.093329,-0.018261,99.063352,5.369684,9.515600
01168,NaN,1.099610,11.386139,-0.572404,2.342799,-0.853364,1.366040,-0.010779,-0.322663,-0.235273,-0.649220,-0.754696,-0.093188,-0.016230,99.046390,5.537792,9.351402
01169,NaN,1.178832,11.306049,-0.688794,2.420341,-0.709409,1.292692,-0.091276,-0.190878,-0.196552,-0.649627,-0.754357,-0.093327,-0.014857,98.991861,5.672416,9.258838
01170,NaN,1.130422,10.913406,-0.666139,2.346851,-0.668628,0.905018,-0.186525,-0.077045,-0.146066,-0.650349,-0.753711,-0.093632,-0.014125,98.886439,5.767628,9.225935
01171,NaN,0.903279,10.371971,-0.577569,2.079821,-0.693407,0.381465,-0.266294,-0.026689,-0.079123,-0.651328,-0.752843,-0.093849,-0.013835,98.739664,5.821019,9.215933
01172,NaN,0.748442,9.783662,-0.437908,1.875910,-0.747592,-0.200509,-0.311967,-0.046689,0.005244,-0.652495,-0.751855,-0.093673,-0.013771,98.562600,5.827556,9.186703
01173,NaN,0.788376,9.160390,-0.266474,1.855695,-0.799589,-0.839267,-0.334696,-0.099655,0.091677,-0.653751,-0.750846,-0.093004,-0.013795,98.370926,5.790247,9.120329
01174,NaN,0.969882,8.691061,-0.140307,1.980260,-0.808855,-1.332172,-0.334762,-0.149060,0.177849,-0.655037,-0.749865,-0.091841,-0.013921,98.173475,5.707009,9.018408
01175,NaN,1.169418,8.430030,0.047834,2.150763,-0.907695,-1.628223,-0.322413,-0.171038,0.265462,-0.656262,-0.748976,-0.090287,-0.014240,97.983675,5.576417,8.897558
01176,NaN,1.334086,8.322826,0.255350,2.301593,-1.053319,-1.768591,-0.323377,-0.162972,0.345905,-0.657494,-0.748103,-0.088449,-0.014861,97.791147,5.398039,8.775032
01177,NaN,1.501257,8.354204,0.419553,2.458569,-1.174053,-1.762881,-0.348452,-0.147187,0.419599,-0.658787,-0.747186,-0.086393,-0.015787,97.587419,5.177285,8.656881
01178,NaN,1.754930,8.459915,0.505424,2.691069,-1.211679,-1.676648,-0.393777,-0.123294,0.488693,-0.660244,-0.746128,-0.084143,-0.017057,97.356547,4.913754,8.547687
01179,NaN,1.968578,8.575290,0.504841,2.866847,-1.168191,-1.561508,-0.451105,-0.102422,0.547765,-0.661878,-0.744908,-0.081746,-0.018616,97.096586,4.615981,8.447687
01180,NaN,2.117315,8.760064,0.303138,2.951558,-0.939116,-1.343944,-0.493500,-0.043811,0.593237,-0.663649,-0.743538,-0.079357,-0.020571,96.812721,4.286273,8.379044
01181,NaN,2.348119,9.044626,0.163691,3.129221,-0.764568,-1.039509,-0.523358,0.037119,0.614266,-0.665471,-0.742071,-0.077166,-0.022898,96.518104,3.940413,8.357243
01182,NaN,2.455040,9.460091,0.148797,3.205074,-0.735410,-0.607865,-0.576127,0.139792,0.643752,-0.667451,-0.740401,-0.075186,-0.025736,96.194503,3.569343,8.393684
01183,NaN,2.421098,9.833775,0.253775,3.146391,-0.829743,-0.218928,-0.649412,0.203908,0.667586,-0.669644,-0.738487,-0.073335,-0.028906,95.833592,3.182865,8.467836
01184,NaN,2.591823,10.147619,0.491029,3.294132,-1.006666,0.090198,-0.738293,0.192793,0.719832,-0.672163,-0.736263,-0.071224,-0.032255,95.418065,2.765674,8.534972
01185,NaN,2.908605,10.364895,0.582481,3.548049,-1.000834,0.318390,-0.804525,0.138263,0.800468,-0.674896,-0.733847,-0.068635,-0.035684,94.965474,2.307878,8.570223
01186,NaN,3.277519,10.634157,0.414844,3.803706,-0.729360,0.627513,-0.850983,0.089248,0.903499,-0.677791,-0.731277,-0.065475,-0.039310,94.481973,1.791528,8.576047
01187,NaN,3.832424,10.931337,0.133545,4.209751,-0.316381,0.975054,-0.850715,0.100818,1.027750,-0.680612,-0.728733,-0.061914,-0.043383,94.001663,1.206100,8.587824
01188,NaN,4.403564,11.520302,-0.122568,4.621227,0.059591,1.622429,-0.821309,0.201823,1.148692,-0.683255,-0.726253,-0.058241,-0.048242,93.535923,0.545160,8.657405
01189,NaN,4.779567,12.380906,-0.174009,4.845254,0.198375,2.542154,-0.813479,0.343463,1.242956,-0.685750,-0.723771,-0.054727,-0.053915,93.077137,-0.171115,8.810414
01190,NaN,4.680058,13.310981,-0.117435,4.570738,0.175629,3.535396,-0.910643,0.484179,1.430879,-0.688480,-0.720904,-0.050965,-0.060785,92.556695,-1.000644,9.044645
01191,NaN,4.231251,13.637490,-0.449549,3.844716,0.539171,3.935302,-1.137594,0.531586,1.592206,-0.691888,-0.717236,-0.046732,-0.068413,91.904910,-1.918068,9.311073
01192,NaN,4.186685,13.210465,-0.950301,3.477374,1.190573,3.582463,-1.354890,0.596819,1.698595,-0.695962,-0.712719,-0.042240,-0.076709,91.119089,-2.897425,9.624904
01193,NaN,4.175999,12.546925,-1.369217,3.159578,1.783392,2.976634,-1.472761,0.689975,1.840604,-0.700269,-0.707706,-0.037539,-0.085822,90.259307,-3.950752,10.005537
01194,NaN,3.727573,12.049889,-1.548499,2.439644,2.054762,2.488100,-1.500680,0.802257,1.985756,-0.704497,-0.702445,-0.032675,-0.095857,89.366782,-5.084796,10.467688
01195,NaN,3.396065,11.701938,-1.585905,1.848960,2.191059,2.135325,-1.502776,0.922465,2.081438,-0.708525,-0.697027,-0.027916,-0.106610,88.458065,-6.261274,11.018612
01196,NaN,3.394838,11.450857,-1.563327,1.579935,2.320513,1.900566,-1.520267,0.998868,2.197654,-0.712420,-0.691371,-0.022982,-0.118048,87.516807,-7.497609,11.636525
01197,NaN,2.939741,11.270885,-0.996432,0.965118,1.816722,1.694963,-1.524452,0.972568,2.347499,-0.716081,-0.685606,-0.017455,-0.129880,86.560883,-8.806292,12.265820
01198,NaN,2.503456,11.205468,-0.655442,0.307378,1.521481,1.582057,-1.480065,0.836802,2.476577,-0.719372,-0.679930,-0.010998,-0.141701,85.621041,-10.187501,12.846078
01199,NaN,2.731102,11.275554,-0.475344,0.224450,1.515300,1.696704,-1.449082,0.661055,2.597258,-0.722306,-0.674360,-0.003545,-0.153300,84.701210,-11.632711,13.354984
01200,NaN,3.097889,11.342737,-0.390303,0.237813,1.626900,1.836032,-1.401368,0.573483,2.679583,-0.724860,-0.668856,0.004493,-0.164889,83.797391,-13.125657,13.844316
01201,NaN,3.388706,11.535422,-0.501593,0.089938,1.914031,2.066606,-1.355179,0.586677,2.738842,-0.727029,-0.663367,0.012615,-0.176674,82.901081,-14.639859,14.371948
01202,NaN,3.438427,11.729108,-0.481327,-0.276282,2.016053,2.248549,-1.330654,0.663883,2.759200,-0.728937,-0.657719,0.020526,-0.188773,81.982478,-16.155402,14.975779
01203,NaN,3.536310,11.819193,-0.368829,-0.559395,2.036867,2.347095,-1.361122,0.732946,2.782290,-0.730741,-0.651748,0.028259,-0.201108,81.012520,-17.664498,15.652479
01204,NaN,3.610478,11.646428,-0.236116,-0.780232,2.019136,2.188650,-1.401114,0.780128,2.801575,-0.732483,-0.645397,0.035940,-0.213635,79.979924,-19.172316,16.393383
01205,NaN,3.644364,11.356283,-0.118083,-0.987561,1.996946,1.904189,-1.419723,0.823487,2.778217,-0.734122,-0.638786,0.043373,-0.226133,78.900945,-20.645404,17.192926
01206,NaN,3.616935,11.010016,0.014486,-1.204330,1.936017,1.549226,-1.401095,0.847920,2.736574,-0.735572,-0.632045,0.050575,-0.238527,77.793794,-22.081408,18.040641
01207,NaN,3.548041,10.802006,0.160138,-1.485675,1.854639,1.306680,-1.357674,0.853437,2.680974,-0.736765,-0.625332,0.057493,-0.250662,76.681628,-23.466388,18.921570
01208,NaN,3.448390,10.694073,0.228915,-1.835234,1.837543,1.121334,-1.306549,0.834928,2.615873,-0.737705,-0.618686,0.064221,-0.262478,75.569893,-24.805242,19.820853
01209,NaN,3.311627,10.536455,0.255575,-2.181951,1.834541,0.860366,-1.252732,0.833560,2.525182,-0.738431,-0.612148,0.070565,-0.273891,74.463456,-26.074422,20.741347
01210,NaN,3.216771,10.412899,0.282235,-2.487226,1.838776,0.641053,-1.182915,0.848863,2.426649,-0.738932,-0.605740,0.076464,-0.284976,73.363784,-27.274052,21.691778
01211,NaN,3.101262,10.441379,0.401384,-2.844569,1.755702,0.561337,-1.089658,0.885267,2.320988,-0.739174,-0.599565,0.081738,-0.295742,72.285330,-28.389985,22.678907
01212,NaN,2.943205,10.502357,0.541143,-3.232167,1.634710,0.489227,-1.019700,0.918015,2.199028,-0.739271,-0.593531,0.086430,-0.306152,71.214258,-29.420215,23.696298
01213,NaN,2.753966,10.448303,0.613683,-3.577019,1.547580,0.283474,-0.993102,0.936670,2.074358,-0.739370,-0.587541,0.090606,-0.316099,70.137458,-30.359539,24.728843
01214,NaN,2.559942,10.196437,0.666818,-3.794044,1.451183,-0.093639,-0.988574,0.926168,1.954031,-0.739533,-0.581539,0.094467,-0.325545,69.049356,-31.222059,25.757988
01215,NaN,2.473377,9.794584,0.717043,-3.812367,1.376164,-0.531861,-0.963760,0.915848,1.845645,-0.739696,-0.575633,0.097978,-0.334510,67.967773,-32.009292,26.780760
01216,NaN,2.371857,9.381899,0.697784,-3.824891,1.352988,-0.999681,-0.918921,0.903417,1.735599,-0.739818,-0.569886,0.101149,-0.343029,66.904223,-32.727048,27.793881
01217,NaN,2.318668,8.981587,0.738308,-3.767428,1.288964,-1.402412,-0.848483,0.898989,1.623646,-0.739849,-0.564412,0.103868,-0.351104,65.878564,-33.368881,28.795624
01218,NaN,2.225313,8.662146,0.733727,-3.777826,1.253214,-1.770387,-0.770895,0.911928,1.508882,-0.739797,-0.559198,0.106085,-0.358810,64.889194,-33.935121,29.793949
01219,NaN,2.124564,8.400615,0.892856,-3.769018,1.067799,-2.032328,-0.701094,0.924763,1.394638,-0.739698,-0.554241,0.107784,-0.366123,63.938824,-34.422872,30.782697
01220,NaN,2.020541,8.147158,0.935067,-3.777334,0.983609,-2.322953,-0.638664,0.947303,1.282367,-0.739586,-0.549484,0.108981,-0.373099,63.019649,-34.835720,31.766364
01221,NaN,1.860187,7.849024,0.999041,-3.770835,0.846871,-2.662288,-0.587984,0.951809,1.166894,-0.739504,-0.544939,0.109727,-0.379652,62.138500,-35.174062,32.726975
01222,NaN,1.791316,7.578240,1.075510,-3.699050,0.739348,-2.915955,-0.528464,0.965808,1.058717,-0.739425,-0.540607,0.110020,-0.385862,61.296142,-35.443680,33.670762
01223,NaN,1.678140,7.372628,1.105002,-3.698739,0.658448,-3.158511,-0.458561,0.974252,0.949973,-0.739335,-0.536555,0.109834,-0.391701,60.506365,-35.643981,34.589072
01224,NaN,1.576725,7.275877,1.115285,-3.757479,0.608868,-3.318185,-0.375767,0.993619,0.831683,-0.739227,-0.532804,0.109102,-0.397189,59.775192,-35.771288,35.483403
01225,NaN,1.425720,7.264515,1.135052,-3.894061,0.534186,-3.437355,-0.308185,1.002990,0.708956,-0.739159,-0.529335,0.107860,-0.402262,59.103453,-35.825175,36.341559
01226,NaN,1.290413,7.237995,1.191840,-3.988618,0.430678,-3.537380,-0.265877,1.013182,0.587896,-0.739199,-0.526044,0.106178,-0.406926,58.476724,-35.809778,37.162945
01227,NaN,1.161551,7.204164,1.228464,-4.068287,0.346241,-3.641193,-0.226599,1.010485,0.455169,-0.739381,-0.522959,0.104067,-0.411096,57.904177,-35.722647,37.932038
01228,NaN,0.988268,7.171070,1.262929,-4.167137,0.241228,-3.765157,-0.194412,0.990426,0.319785,-0.739724,-0.520088,0.101611,-0.414720,57.388887,-35.570878,38.636209
01229,NaN,0.870448,7.162663,1.267530,-4.246737,0.192645,-3.846437,-0.167248,0.955910,0.174222,-0.740262,-0.517452,0.098840,-0.417716,56.937426,-35.354276,39.260922
01230,NaN,0.710614,7.112321,1.263442,-4.316036,0.125766,-3.978105,-0.142318,0.903835,0.022417,-0.741010,-0.515079,0.095818,-0.420020,56.555742,-35.077963,39.792995
01231,NaN,0.498522,7.112520,1.204393,-4.461258,0.083957,-4.122598,-0.101264,0.822460,-0.148871,-0.741960,-0.513102,0.092565,-0.421489,56.267366,-34.742797,40.207401
01232,NaN,0.288393,7.270194,0.979434,-4.757965,0.199600,-4.225199,-0.020116,0.698086,-0.342654,-0.743040,-0.511771,0.089104,-0.421952,56.112998,-34.353764,40.471457
01233,NaN,0.023417,7.732490,0.705933,-5.311344,0.360831,-4.160296,0.099188,0.528088,-0.569208,-0.744205,-0.511334,0.085442,-0.421184,56.133343,-33.910956,40.548617
01234,NaN,-0.267320,8.489626,0.438214,-6.074756,0.540276,-3.884599,0.208635,0.285717,-0.815841,-0.745494,-0.511913,0.081816,-0.418916,56.346287,-33.427670,40.393078
01235,NaN,-0.495524,9.267282,0.308353,-6.751259,0.649116,-3.470650,0.280775,-0.054309,-1.059185,-0.746949,-0.513557,0.078685,-0.414891,56.753305,-32.935045,39.955774
01236,NaN,-0.459693,9.718501,0.291099,-6.971949,0.778114,-3.065063,0.315195,-0.477091,-1.293617,-0.748605,-0.516284,0.076449,-0.408897,57.351259,-32.457517,39.197105
01237,NaN,-0.190729,9.728648,0.342182,-6.691228,0.927266,-2.800851,0.336588,-0.924617,-1.529494,-0.750467,-0.520055,0.075237,-0.400851,58.131639,-31.995648,38.108165
01238,NaN,0.093793,9.197916,0.533537,-5.971093,0.890138,-2.852313,0.395599,-1.351030,-1.717009,-0.752313,-0.524926,0.075001,-0.390964,59.096677,-31.554090,36.721025
01239,NaN,0.471609,8.603540,0.921586,-5.078174,0.703266,-2.826409,0.547517,-1.712402,-1.909494,-0.753888,-0.531061,0.075321,-0.379412,60.272163,-31.101117,35.076756
01240,NaN,0.756670,8.243928,1.205342,-4.425043,0.559488,-2.735162,0.751094,-1.991131,-2.081058,-0.754993,-0.538461,0.075822,-0.366464,61.655959,-30.606765,33.233703
01241,NaN,1.037439,8.134241,1.370041,-3.954880,0.520586,-2.518562,0.947677,-2.169950,-2.214840,-0.755563,-0.546840,0.076272,-0.352525,63.197331,-30.053359,31.270348
01242,NaN,1.389304,8.211547,1.358586,-3.574161,0.666436,-2.198020,1.086006,-2.229790,-2.309567,-0.755688,-0.555742,0.076408,-0.338006,64.818531,-29.417540,29.273230
01243,NaN,1.886665,8.210328,1.235930,-3.037582,0.934149,-1.913775,1.155125,-2.166084,-2.363030,-0.755516,-0.564645,0.076033,-0.323404,66.428529,-28.692224,27.335184
01244,NaN,2.260255,8.095538,0.714581,-2.604902,1.472605,-1.926093,1.185441,-1.980271,-2.392975,-0.755162,-0.573223,0.074781,-0.309117,67.967670,-27.861123,25.537801
01245,NaN,2.628590,7.952148,0.175817,-2.143256,2.013408,-1.968926,1.238005,-1.692420,-2.436759,-0.754629,-0.581406,0.072235,-0.295441,69.417110,-26.908188,23.943778
01246,NaN,2.797477,8.023040,-0.416644,-1.950729,2.559197,-1.938160,1.335723,-1.343769,-2.492740,-0.753827,-0.589326,0.068028,-0.282510,70.793320,-25.819868,22.587358
01247,NaN,2.751161,8.319459,-0.770943,-1.977436,2.842230,-1.726781,1.473006,-1.000361,-2.559338,-0.752647,-0.597144,0.062139,-0.270334,72.121715,-24.607107,21.466394
01248,NaN,2.708008,8.936662,-0.846304,-2.067212,2.906406,-1.141727,1.619347,-0.704741,-2.628900,-0.751025,-0.604999,0.054696,-0.258739,73.429875,-23.280339,20.550792
01249,NaN,2.540957,9.732198,-0.706398,-2.255794,2.739797,-0.375146,1.739313,-0.461499,-2.692495,-0.748997,-0.612837,0.045999,-0.247625,74.716748,-21.864497,19.812424
01250,NaN,2.314503,10.502631,-0.444744,-2.407990,2.420644,0.394733,1.827809,-0.275040,-2.761479,-0.746618,-0.620639,0.036249,-0.236757,75.988294,-20.365614,19.214871
01251,NaN,2.135125,11.210534,-0.152774,-2.436344,2.063592,1.144114,1.898843,-0.139754,-2.819916,-0.743904,-0.628365,0.025739,-0.226055,77.245353,-18.807232,18.731010
01252,NaN,2.007765,11.901036,-0.002548,-2.394032,1.835571,1.872790,1.984120,-0.044413,-2.872078,-0.740763,-0.636135,0.014584,-0.215382,78.513302,-17.195400,18.336717
01253,NaN,1.976316,12.672363,0.250085,-2.212361,1.525432,2.729973,2.066364,0.032619,-2.907859,-0.737179,-0.643913,0.002960,-0.204780,79.791978,-15.550312,18.025124
01254,NaN,1.934126,13.453902,0.436097,-2.000009,1.252855,3.579436,2.102142,0.097143,-2.923319,-0.733248,-0.651564,-0.009013,-0.194241,81.065754,-13.880824,17.789528
01255,NaN,1.922303,13.989015,0.517717,-1.667567,1.054677,4.178071,2.074793,0.142985,-2.936445,-0.729187,-0.658841,-0.021144,-0.183763,82.299834,-12.198792,17.619289
01256,NaN,1.934626,14.156515,0.737134,-1.153252,0.707388,4.429547,1.986604,0.188942,-2.945821,-0.725173,-0.665556,-0.033410,-0.173329,83.468903,-10.501654,17.511634
01257,NaN,2.146375,14.039875,0.659455,-0.470503,0.699663,4.379871,1.891208,0.292066,-2.927890,-0.721227,-0.671614,-0.045873,-0.163287,84.561382,-8.810231,17.499661
01258,NaN,2.179756,13.897929,0.777073,0.085749,0.464745,4.268012,1.821097,0.350189,-2.789153,-0.717164,-0.677221,-0.058033,-0.153886,85.606164,-7.191778,17.559662
01259,NaN,2.017115,13.567720,0.823906,0.434582,0.248077,3.919173,1.687246,0.392480,-2.740139,-0.713319,-0.682127,-0.070036,-0.144823,86.566963,-5.604423,17.674454
01260,NaN,1.904660,13.016871,0.715614,0.772316,0.211871,3.337362,1.516953,0.323605,-2.676384,-0.709839,-0.686341,-0.081458,-0.135753,87.437258,-4.054247,17.776589
01261,NaN,2.031382,12.346861,0.523741,1.262379,0.346925,2.642085,1.370209,0.171487,-2.489478,-0.706653,-0.690045,-0.091558,-0.126877,88.226773,-2.619401,17.817941
01262,NaN,1.792775,11.773467,0.804825,1.478282,-0.070322,2.031212,1.324843,0.009548,-2.249157,-0.703397,-0.693685,-0.100234,-0.118265,88.996554,-1.321885,17.789298
01263,NaN,1.895606,11.492057,1.042839,1.944791,-0.340770,1.713069,1.307295,-0.177384,-2.065245,-0.700087,-0.697339,-0.107564,-0.109664,89.753906,-0.133901,17.671975
01264,NaN,2.523688,11.356303,1.126440,2.827165,-0.312630,1.523412,1.314900,-0.251034,-1.808584,-0.696536,-0.701115,-0.113754,-0.101664,90.515921,0.911690,17.527984
01265,NaN,2.183634,11.370518,1.421243,2.820770,-0.786225,1.478776,1.296045,-0.211444,-1.602534,-0.692856,-0.704824,-0.119313,-0.094539,91.262699,1.837581,17.418442
01266,NaN,1.559600,11.479077,1.729613,2.528873,-1.360125,1.542659,1.233550,-0.236368,-1.439760,-0.689250,-0.708367,-0.124192,-0.087900,91.974403,2.674836,17.303917
01267,NaN,1.417761,11.634344,2.004495,2.665167,-1.758692,1.640989,1.132625,-0.357823,-1.215475,-0.685935,-0.711684,-0.127782,-0.081677,92.620671,3.384915,17.124252
01268,NaN,1.424594,11.494095,1.664615,2.712738,-1.517558,1.467851,1.001179,-0.470271,-0.953182,-0.682996,-0.714728,-0.130010,-0.076015,93.187865,3.952705,16.880136
01269,NaN,1.927520,11.142166,1.369096,3.196435,-1.162841,1.057762,0.898071,-0.526912,-0.744407,-0.680362,-0.717532,-0.131235,-0.070945,93.688919,4.402612,16.601259
01270,NaN,2.506556,10.930883,1.079999,3.740992,-0.795803,0.784668,0.822112,-0.473189,-0.547225,-0.677859,-0.720171,-0.131920,-0.066768,94.148805,4.742469,16.349332
01271,NaN,2.695537,10.800334,0.967868,3.947704,-0.708860,0.616226,0.748435,-0.377231,-0.377204,-0.675495,-0.722612,-0.132273,-0.063577,94.567311,4.980482,16.147251
01272,NaN,2.666352,10.730041,1.031463,3.981934,-0.849119,0.518320,0.684615,-0.300657,-0.244113,-0.673245,-0.724897,-0.132396,-0.061139,94.953947,5.142388,15.984573
01273,NaN,2.498567,10.696418,1.093257,3.870564,-1.021996,0.474451,0.611671,-0.267580,-0.121803,-0.671201,-0.726987,-0.132148,-0.059294,95.297724,5.231717,15.835315
01274,NaN,2.407077,10.553471,1.152465,3.804951,-1.158955,0.320268,0.534129,-0.269509,-0.011083,-0.669391,-0.728891,-0.131479,-0.057852,95.598044,5.260611,15.679621
01275,NaN,2.269593,10.420381,1.052387,3.640550,-1.149627,0.200674,0.458535,-0.286059,0.100199,-0.667839,-0.730606,-0.130314,-0.056784,95.851889,5.225982,15.507975
01276,NaN,2.114450,10.267904,1.011208,3.461306,-1.195174,0.062229,0.405335,-0.319982,0.181553,-0.666466,-0.732207,-0.128732,-0.055887,96.074722,5.149186,15.312126
01277,NaN,2.079273,10.148515,0.954479,3.387598,-1.191932,-0.048978,0.344222,-0.353767,0.259728,-0.665321,-0.733652,-0.126723,-0.055177,96.259201,5.029169,15.091678
01278,NaN,2.081459,10.000143,0.912095,3.343318,-1.186446,-0.190754,0.298317,-0.371723,0.311402,-0.664328,-0.734981,-0.124460,-0.054592,96.417985,4.882698,14.857539
01279,NaN,2.005293,9.870690,0.966319,3.243741,-1.291169,-0.315514,0.249249,-0.367774,0.361033,-0.663502,-0.736165,-0.122005,-0.054226,96.547911,4.707128,14.621950
01280,NaN,1.908317,9.696806,1.047178,3.120553,-1.417892,-0.484353,0.199099,-0.375452,0.400474,-0.662842,-0.737209,-0.119370,-0.053985,96.650357,4.510996,14.379214
01281,NaN,1.786617,9.492667,1.063443,2.950698,-1.481173,-0.673052,0.171003,-0.398571,0.433994,-0.662291,-0.738173,-0.116521,-0.053794,96.735290,4.296824,14.120647
01282,NaN,1.774547,9.408590,1.150234,2.912682,-1.594472,-0.759107,0.149486,-0.416128,0.462056,-0.661811,-0.739084,-0.113507,-0.053637,96.808857,4.068888,13.850047
01283,NaN,1.620753,9.275338,1.105320,2.699506,-1.607737,-0.867964,0.135239,-0.429318,0.485596,-0.661383,-0.739953,-0.110353,-0.053522,96.873870,3.828129,13.570011
01284,NaN,1.350141,9.154142,1.030565,2.366433,-1.617243,-0.954496,0.116489,-0.432567,0.496948,-0.661011,-0.740762,-0.107144,-0.053439,96.929771,3.581867,13.287238
01285,NaN,0.897709,9.012726,0.978474,1.859935,-1.682761,-1.054761,0.096873,-0.437524,0.490303,-0.660713,-0.741493,-0.103933,-0.053329,96.974859,3.339540,13.001887
01286,NaN,0.450729,8.857701,0.987890,1.371964,-1.799174,-1.180280,0.100040,-0.457613,0.472879,-0.660409,-0.742224,-0.100721,-0.053083,97.022768,3.109033,12.706230
01287,NaN,0.062054,8.738438,1.107958,0.968105,-2.009232,-1.291109,0.112376,-0.491571,0.452703,-0.660077,-0.742985,-0.097473,-0.052639,97.077540,2.892375,12.392468
01288,NaN,-0.157196,8.688852,1.342178,0.758518,-2.298786,-1.359146,0.141076,-0.545985,0.426634,-0.659662,-0.743834,-0.094150,-0.051891,97.148656,2.694952,12.049421
01289,NaN,-0.558336,8.690669,1.377119,0.335244,-2.437003,-1.346023,0.171355,-0.609293,0.373462,-0.659171,-0.744764,-0.090821,-0.050718,97.236522,2.532563,11.673926
01290,NaN,-0.769489,8.810205,1.376641,0.103398,-2.513473,-1.223239,0.225911,-0.666964,0.281574,-0.658517,-0.745835,-0.087658,-0.049001,97.355331,2.427476,11.272052
01291,NaN,-0.651534,9.208115,1.564033,0.253584,-2.744457,-0.864861,0.301196,-0.696194,0.205956,-0.657604,-0.747118,-0.084696,-0.046894,97.517430,2.368296,10.858948
01292,NaN,-0.631743,9.899238,1.915915,0.357948,-3.197443,-0.236005,0.322946,-0.703279,0.159237,-0.656615,-0.748440,-0.081891,-0.044595,97.691974,2.337637,10.445160
01293,NaN,-0.882739,10.494973,2.019160,0.146127,-3.446802,0.341071,0.270488,-0.720360,0.093300,-0.655832,-0.749557,-0.079262,-0.042038,97.836662,2.346646,10.026738
01294,NaN,-0.859507,10.766954,1.796869,0.132717,-3.282425,0.632542,0.202735,-0.741883,0.036623,-0.655317,-0.750418,-0.076760,-0.039239,97.941368,2.390692,9.600480
01295,NaN,-0.449846,10.876893,1.591162,0.501238,-3.043966,0.747804,0.146386,-0.647328,-0.019535,-0.654976,-0.751049,-0.074766,-0.036633,98.016481,2.459482,9.232527
01296,NaN,-0.262523,10.996486,1.409844,0.667327,-2.863823,0.879949,0.091221,-0.417360,-0.101755,-0.654772,-0.751415,-0.073824,-0.034641,98.064491,2.557165,9.001689
01297,NaN,-0.294661,11.061271,1.321125,0.640311,-2.796008,0.955610,0.038444,-0.117190,-0.176357,-0.654660,-0.751531,-0.074134,-0.033553,98.090854,2.672868,8.947487
01298,NaN,-0.500175,10.977088,1.257950,0.446813,-2.752871,0.890165,-0.033179,0.169280,-0.239928,-0.654728,-0.751333,-0.075610,-0.033358,98.082824,2.801813,9.060954
01299,NaN,-0.896149,10.682407,1.141371,0.050585,-2.653844,0.635952,-0.100280,0.390574,-0.292666,-0.654963,-0.750862,-0.077996,-0.033849,98.044380,2.942676,9.304485
01300,NaN,-1.278578,10.290803,1.076380,-0.326128,-2.590457,0.280727,-0.111508,0.530625,-0.346507,-0.655199,-0.750295,-0.081040,-0.034691,98.003042,3.103347,9.631627
01301,NaN,-1.500760,10.105066,1.047957,-0.519055,-2.568161,0.116955,-0.087742,0.597860,-0.396150,-0.655309,-0.749774,-0.084494,-0.035615,97.980172,3.286721,10.001104
01302,NaN,-1.993277,10.034728,1.048399,-0.959523,-2.640234,0.080559,-0.082710,0.599583,-0.432596,-0.655410,-0.749234,-0.088090,-0.036421,97.959903,3.491176,10.374217
01303,NaN,-2.543857,10.039640,1.184184,-1.422972,-2.869685,0.107377,-0.075313,0.505076,-0.475205,-0.655511,-0.748717,-0.091537,-0.036732,97.943895,3.727019,10.697250
01304,NaN,-3.002698,10.156950,1.199753,-1.803960,-2.980106,0.261223,-0.068163,0.284816,-0.496184,-0.655698,-0.748234,-0.094341,-0.036142,97.923074,3.992875,10.896384
01305,NaN,-3.306221,10.273408,1.057300,-2.061586,-2.901653,0.430451,-0.083189,-0.042634,-0.515792,-0.656079,-0.747758,-0.096140,-0.034274,97.883274,4.295174,10.910977
01306,NaN,-3.272723,10.356408,0.834924,-2.008990,-2.665472,0.556591,-0.091560,-0.407646,-0.529331,-0.656679,-0.747290,-0.096793,-0.030994,97.820393,4.634572,10.718195
01307,NaN,-2.993088,10.571424,0.530855,-1.715775,-2.309875,0.804075,-0.073415,-0.756633,-0.542837,-0.657356,-0.746930,-0.096349,-0.026362,97.752305,5.007679,10.327532
01308,NaN,-2.558262,10.968229,0.368762,-1.220440,-2.081421,1.194608,-0.062971,-1.040799,-0.570743,-0.658132,-0.746592,-0.095076,-0.020565,97.670473,5.418994,9.775848
01309,NaN,-2.108745,11.502261,0.272253,-0.675151,-1.930520,1.704245,-0.083490,-1.287332,-0.592332,-0.659059,-0.746184,-0.093064,-0.013792,97.561509,5.859353,9.084488
01310,NaN,-1.667915,12.065700,0.167387,-0.125019,-1.777825,2.237800,-0.101859,-1.458966,-0.606431,-0.660115,-0.745662,-0.090535,-0.006332,97.423485,6.320148,8.294109
01311,NaN,-1.285708,12.789013,0.223055,0.420003,-1.813187,2.907257,-0.148500,-1.577760,-0.628813,-0.661337,-0.744945,-0.087687,0.001615,97.247172,6.799112,7.435956
01312,NaN,-0.948165,13.320596,0.433272,0.921460,-1.982119,3.368601,-0.270833,-1.618797,-0.651067,-0.663000,-0.743739,-0.084783,0.009744,96.987641,7.291408,6.552593
01313,NaN,-0.538194,13.415140,0.723750,1.441185,-2.164953,3.378767,-0.473268,-1.581642,-0.665702,-0.665329,-0.741816,-0.082057,0.017688,96.609922,7.783618,5.688438
01314,NaN,-0.218436,12.772082,0.845640,1.742560,-2.100880,2.694811,-0.713122,-1.493189,-0.659459,-0.668479,-0.739028,-0.079618,0.025191,96.090770,8.260770,4.869194
01315,NaN,-0.037501,11.661380,0.749759,1.808402,-1.783768,1.593360,-0.901040,-1.372518,-0.633477,-0.672206,-0.735598,-0.077502,0.032077,95.469740,8.707233,4.112968
01316,NaN,0.110745,10.481204,0.447635,1.806743,-1.266746,0.443928,-0.996136,-1.241352,-0.582690,-0.676210,-0.731814,-0.075649,0.038276,94.795744,9.110084,3.423169
01317,NaN,0.300676,9.541762,0.216018,1.877314,-0.856056,-0.489369,-1.011782,-1.095164,-0.503352,-0.680166,-0.728006,-0.073999,0.043658,94.123899,9.452502,2.809731
01318,NaN,0.575986,8.948540,0.143701,2.084567,-0.644244,-1.113972,-0.971967,-0.932339,-0.414933,-0.683919,-0.724341,-0.072566,0.048164,93.482534,9.731548,2.281947
01319,NaN,1.042583,8.531859,0.089333,2.500374,-0.473134,-1.602244,-0.911506,-0.720077,-0.321172,-0.687348,-0.720956,-0.071503,0.051595,92.897012,9.944283,1.871834
01320,NaN,1.416894,8.382935,0.192093,2.866753,-0.489760,-1.821468,-0.839993,-0.462756,-0.236546,-0.690450,-0.717872,-0.070995,0.053836,92.372881,10.097931,1.605830
01321,NaN,1.708761,8.447128,0.188712,3.180305,-0.418565,-1.811464,-0.767493,-0.193493,-0.161038,-0.693181,-0.715144,-0.071129,0.054870,91.920288,10.200288,1.494256
01322,NaN,2.007248,8.800955,0.126901,3.545158,-0.296603,-1.515369,-0.716016,0.079334,-0.084414,-0.695663,-0.712665,-0.071913,0.054682,91.521286,10.252983,1.538414
01323,NaN,2.225487,9.277357,0.054100,3.847061,-0.160826,-1.083490,-0.703847,0.331627,-0.015686,-0.697999,-0.710332,-0.073331,0.053359,91.158768,10.263490,1.729044
01324,NaN,2.421780,9.783182,0.066206,4.128038,-0.095606,-0.618690,-0.749009,0.558466,0.053584,-0.700440,-0.707895,-0.075298,0.050970,90.790118,10.232689,2.050066
01325,NaN,2.568200,10.163645,0.058601,4.329540,0.008062,-0.265286,-0.837700,0.731551,0.120322,-0.703107,-0.705219,-0.077663,0.047700,90.391756,10.165361,2.472494
01326,NaN,2.683141,10.322280,0.051139,4.451581,0.130746,-0.121638,-0.935958,0.853941,0.197681,-0.706088,-0.702210,-0.080197,0.043684,89.945406,10.055589,2.965507
01327,NaN,2.648071,10.479530,-0.017792,4.412279,0.321584,0.049363,-1.003839,0.947266,0.279831,-0.709235,-0.699005,-0.082793,0.039025,89.472214,9.903907,3.514612
01328,NaN,2.661335,10.637419,-0.042880,4.410477,0.482471,0.214894,-1.065651,0.981204,0.369102,-0.712586,-0.695568,-0.085192,0.033897,88.962005,9.704637,4.084307
01329,NaN,2.572788,10.945350,-0.004076,4.325091,0.586150,0.549160,-1.127909,0.971681,0.469328,-0.716112,-0.691930,-0.087228,0.028422,88.417055,9.454373,4.652102
01330,NaN,2.265958,11.136971,-0.136543,3.975233,0.847871,0.801528,-1.218150,0.883878,0.577312,-0.719981,-0.687940,-0.088568,0.022816,87.806518,9.144550,5.172267
01331,NaN,2.004850,11.187941,-0.333485,3.623571,1.173379,0.901364,-1.306853,0.733434,0.693123,-0.724167,-0.683641,-0.088987,0.017277,87.133023,8.772137,5.611996
01332,NaN,1.743103,11.148240,-0.409054,3.250280,1.372420,0.912896,-1.376002,0.512740,0.856085,-0.728672,-0.679078,-0.088033,0.011860,86.395653,8.302687,5.932759
01333,NaN,1.665310,10.980267,-0.388342,3.034632,1.480266,0.774424,-1.431806,0.248348,1.009246,-0.733417,-0.674333,-0.085610,0.006768,85.607337,7.741465,6.113670
01334,NaN,1.723307,10.857557,-0.423830,2.939511,1.655869,0.658701,-1.451861,-0.058172,1.153540,-0.738327,-0.669491,-0.081551,0.002159,84.781365,7.083370,6.132141
01335,NaN,1.817890,10.805823,-0.444921,2.877666,1.819616,0.611943,-1.454844,-0.362192,1.332462,-0.743284,-0.664666,-0.075782,-0.002082,83.938772,6.308841,5.996442
01336,NaN,2.001962,10.630692,-0.570064,2.866104,2.072372,0.426034,-1.451910,-0.639016,1.508397,-0.748273,-0.659831,-0.068371,-0.006070,83.082827,5.411643,5.725041
01337,NaN,2.309144,10.360778,-0.631620,2.968963,2.248123,0.147443,-1.432317,-0.849458,1.679937,-0.753148,-0.655068,-0.059619,-0.009983,82.237778,4.400332,5.360509
01338,NaN,2.668748,10.135858,-0.568275,3.134944,2.294900,-0.061669,-1.382221,-0.984510,1.843939,-0.757798,-0.650435,-0.049793,-0.014072,81.422039,3.276840,4.947488
01339,NaN,3.036118,9.896382,-0.524386,3.301433,2.341228,-0.270862,-1.321720,-1.054963,1.999937,-0.762117,-0.645986,-0.039211,-0.018489,80.651864,2.056191,4.524890
01340,NaN,3.464785,9.692533,-0.581771,3.517033,2.481834,-0.444923,-1.252654,-1.047106,2.142334,-0.766079,-0.641699,-0.028175,-0.023476,79.928770,0.747101,4.136572
01341,NaN,3.827111,9.556748,-0.621943,3.665046,2.599465,-0.529879,-1.179807,-0.956193,2.265823,-0.769627,-0.637597,-0.017118,-0.029194,79.259233,-0.623403,3.828478
01342,NaN,4.213917,9.465986,-0.593555,3.834429,2.652750,-0.540728,-1.092205,-0.801251,2.361790,-0.772738,-0.633685,-0.006334,-0.035784,78.642385,-2.038010,3.633345
01343,NaN,4.461733,9.538344,-0.672942,3.843430,2.830586,-0.402578,-0.985397,-0.601122,2.437023,-0.775337,-0.630051,0.003870,-0.043268,78.087440,-3.469853,3.573686
01344,NaN,4.707847,9.805042,-0.713352,3.821759,3.011545,-0.059230,-0.873912,-0.362564,2.509090,-0.777446,-0.626671,0.013380,-0.051800,77.584378,-4.917923,3.669959
01345,NaN,4.771608,10.146379,-0.860202,3.582915,3.306869,0.320298,-0.789143,-0.095334,2.553953,-0.779147,-0.623449,0.021940,-0.061318,77.113040,-6.352501,3.934474
01346,NaN,4.765204,10.467573,-0.977126,3.251860,3.573371,0.669705,-0.732347,0.187664,2.582840,-0.780561,-0.620236,0.029496,-0.071850,76.644305,-7.768722,4.374648
01347,NaN,4.628479,10.780180,-1.113476,2.769098,3.855097,0.973259,-0.684265,0.470766,2.602320,-0.781712,-0.617005,0.035954,-0.083305,76.168522,-9.149490,4.989905
01348,NaN,4.399398,11.162928,-1.153261,2.163539,4.054841,1.330189,-0.639432,0.728811,2.611208,-0.782623,-0.613712,0.041439,-0.095610,75.674914,-10.498864,5.766407
01349,NaN,4.039865,11.495989,-1.182082,1.419865,4.217809,1.591690,-0.611494,0.953447,2.607345,-0.783340,-0.610313,0.045978,-0.108550,75.153783,-11.802047,6.684480
01350,NaN,3.700708,11.793973,-1.170890,0.688707,4.328821,1.803710,-0.602406,1.137957,2.607347,-0.783912,-0.606714,0.049814,-0.122059,74.590191,-13.074046,7.724272
01351,NaN,3.376430,11.890232,-1.127458,0.015357,4.353172,1.810063,-0.604630,1.276082,2.602462,-0.784360,-0.602903,0.053051,-0.135915,73.981738,-14.306492,8.859956
01352,NaN,3.124298,11.861854,-1.071215,-0.553946,4.334165,1.698620,-0.609568,1.381756,2.601487,-0.784676,-0.598861,0.055896,-0.150081,73.325324,-15.514129,10.076122
01353,NaN,2.847140,11.685039,-0.979372,-1.089818,4.227500,1.436144,-0.595290,1.460346,2.599508,-0.784797,-0.594688,0.058369,-0.164417,72.635465,-16.688603,11.358079
01354,NaN,2.621153,11.413639,-0.821392,-1.523126,4.026698,1.108527,-0.551891,1.510199,2.593762,-0.784624,-0.590503,0.060615,-0.178880,71.929813,-17.841122,12.690524
01355,NaN,2.429412,11.208322,-0.647310,-1.922651,3.814563,0.849938,-0.484472,1.541330,2.585949,-0.784091,-0.586426,0.062607,-0.193357,71.225937,-18.963069,14.062285
01356,NaN,2.299011,11.038640,-0.424642,-2.252606,3.560329,0.654374,-0.399618,1.580080,2.560869,-0.783159,-0.582513,0.064311,-0.207856,70.531382,-20.053026,15.475183
01357,NaN,2.196586,10.856224,-0.310650,-2.545896,3.396327,0.422313,-0.323483,1.617523,2.537963,-0.781869,-0.578738,0.065674,-0.222327,69.842119,-21.102383,16.928109
01358,NaN,2.071787,10.642712,-0.243916,-2.834579,3.248728,0.138364,-0.258108,1.652516,2.503980,-0.780255,-0.575058,0.066747,-0.236761,69.152053,-22.114677,18.417803
01359,NaN,1.944700,10.372172,-0.118343,-3.066739,3.020040,-0.177007,-0.195253,1.699755,2.458975,-0.778362,-0.571455,0.067385,-0.251099,68.459081,-23.071715,19.947924
01360,NaN,1.780479,10.121453,0.007332,-3.314498,2.772224,-0.488655,-0.126733,1.740656,2.408227,-0.776170,-0.567957,0.067648,-0.265346,67.768196,-23.980334,21.513345
01361,NaN,1.665194,9.941494,0.091469,-3.536692,2.581739,-0.733246,-0.041244,1.786909,2.352114,-0.773665,-0.564625,0.067414,-0.279456,67.089871,-24.827454,23.114268
01362,NaN,1.478468,9.949234,0.168949,-3.894174,2.396431,-0.852225,0.061160,1.838448,2.281642,-0.770811,-0.561521,0.066653,-0.293432,66.435033,-25.612981,24.749163
01363,NaN,1.291494,10.098508,0.371372,-4.278207,2.108578,-0.810873,0.145461,1.892521,2.197310,-0.767709,-0.558570,0.065280,-0.307183,65.796389,-26.320857,26.413530
01364,NaN,1.086435,10.195756,0.499578,-4.647209,1.854755,-0.849253,0.196991,1.945728,2.103503,-0.764454,-0.555653,0.063375,-0.320691,65.158917,-26.954352,28.102500
01365,NaN,0.823787,10.087967,0.638832,-4.920861,1.519986,-1.076237,0.202323,1.982234,2.002292,-0.761216,-0.552615,0.061001,-0.333835,64.504138,-27.505517,29.801641
01366,NaN,0.580343,9.915260,0.778309,-5.113607,1.175907,-1.343878,0.225059,2.016704,1.893049,-0.757948,-0.549536,0.058168,-0.346614,63.847229,-27.977930,31.505065
01367,NaN,0.362064,9.643542,0.954263,-5.186951,0.792596,-1.657629,0.258750,2.057591,1.780914,-0.754663,-0.546438,0.054779,-0.359011,63.196222,-28.361616,33.212438
01368,NaN,0.091125,9.444653,1.175515,-5.295778,0.354503,-1.912106,0.288703,2.090600,1.650931,-0.751389,-0.543336,0.050868,-0.370962,62.558339,-28.656571,34.910569
01369,NaN,-0.212549,9.274976,1.362343,-5.423152,-0.067921,-2.163504,0.318240,2.114949,1.517477,-0.748169,-0.540233,0.046419,-0.382409,61.939592,-28.857835,36.589763
01370,NaN,-0.566456,9.054748,1.548377,-5.522640,-0.523558,-2.468827,0.317873,2.109808,1.373078,-0.745090,-0.537089,0.041609,-0.393248,61.337960,-28.974708,38.225893
01371,NaN,-0.926122,8.810121,1.684270,-5.597043,-0.942034,-2.805709,0.309895,2.064651,1.217178,-0.742228,-0.533948,0.036540,-0.403314,60.764555,-29.008533,39.789278
01372,NaN,-1.308176,8.544615,1.683075,-5.697801,-1.261466,-3.217405,0.300243,1.980561,1.054205,-0.739593,-0.530906,0.031377,-0.412500,60.235036,-28.973878,41.252213
01373,NaN,-1.672993,8.274353,1.687904,-5.760175,-1.575622,-3.611863,0.293558,1.846302,0.882385,-0.737233,-0.528072,0.026251,-0.420640,59.766976,-28.879052,42.581688
01374,NaN,-2.015657,7.997225,1.542261,-5.848112,-1.755181,-4.058072,0.294466,1.657717,0.708083,-0.735134,-0.525621,0.021365,-0.427602,59.382975,-28.745895,43.744453
01375,NaN,-2.440601,7.744431,1.349591,-6.012861,-1.944289,-4.538312,0.320384,1.412401,0.509503,-0.733322,-0.523764,0.016792,-0.433160,59.114515,-28.579310,44.701045
01376,NaN,-2.915716,7.700661,1.135034,-6.345800,-2.131952,-4.885708,0.401642,1.097162,0.296277,-0.731691,-0.522891,0.012645,-0.437097,59.015672,-28.399256,45.407223
01377,NaN,-3.245658,7.859438,0.857558,-6.742930,-2.164782,-5.028678,0.522621,0.694693,0.060177,-0.730221,-0.523331,0.009083,-0.439113,59.131344,-28.220605,45.809079
01378,NaN,-3.339426,8.154561,0.533084,-7.102413,-1.996474,-4.964771,0.641277,0.242566,-0.185931,-0.728942,-0.525210,0.006268,-0.439043,59.475262,-28.054898,45.876179
01379,NaN,-3.099943,8.343360,0.344665,-7.124456,-1.715227,-4.749105,0.738181,-0.232719,-0.430806,-0.727926,-0.528474,0.004328,-0.436830,60.035093,-27.905096,45.598931
01380,NaN,-2.704652,8.377579,0.129414,-6.956422,-1.308972,-4.577228,0.824195,-0.686598,-0.657314,-0.727139,-0.533043,0.003250,-0.432577,60.797835,-27.767854,44.994924
01381,NaN,-2.287176,8.262593,0.103554,-6.580822,-1.035287,-4.415229,0.975825,-1.065467,-0.892758,-0.726416,-0.538944,0.002597,-0.426441,61.776411,-27.608646,44.106866
01382,NaN,-1.861992,8.271915,0.339851,-6.138267,-0.956732,-4.032347,1.151294,-1.368004,-1.144381,-0.725679,-0.546094,0.001982,-0.418529,62.967801,-27.386422,42.974303
01383,NaN,-1.496228,8.450765,0.826296,-5.697122,-1.116045,-3.438319,1.331936,-1.591861,-1.383741,-0.724854,-0.554282,0.001156,-0.409092,64.342094,-27.076601,41.653704
01384,NaN,-1.074014,8.688996,1.482755,-5.143717,-1.398158,-2.710862,1.486878,-1.719522,-1.611697,-0.723932,-0.563211,-0.000170,-0.398391,65.855746,-26.648170,40.209374
01385,NaN,-0.648612,8.935008,2.084935,-4.580356,-1.662479,-2.011677,1.595531,-1.761746,-1.804020,-0.722940,-0.572483,-0.002087,-0.386803,67.441786,-26.094930,38.712331
01386,NaN,-0.269263,9.294633,2.384075,-4.207790,-1.724455,-1.359074,1.686401,-1.716974,-1.960884,-0.721817,-0.581876,-0.004807,-0.374669,69.061646,-25.409334,37.229201
01387,NaN,0.135136,9.730458,2.345387,-3.962856,-1.506663,-0.745067,1.746712,-1.613581,-2.090722,-0.720584,-0.591130,-0.008373,-0.362289,70.668623,-24.598255,35.811393
01388,NaN,0.365921,10.244911,2.018611,-3.962645,-1.145834,-0.213466,1.782374,-1.473038,-2.212147,-0.719272,-0.600117,-0.012887,-0.349774,72.240517,-23.657649,34.486904
01389,NaN,0.501053,10.814545,1.471661,-4.107963,-0.646062,0.290298,1.820407,-1.338694,-2.347363,-0.717888,-0.608823,-0.018333,-0.337099,73.773373,-22.590714,33.257213
01390,NaN,0.683841,11.510232,0.853192,-4.250338,-0.055522,0.939155,1.859715,-1.211032,-2.466140,-0.716373,-0.617293,-0.024683,-0.324270,75.272780,-21.405998,32.123772
01391,NaN,0.792108,12.212078,0.381390,-4.330149,0.369648,1.633191,1.884500,-1.116010,-2.568154,-0.714735,-0.625495,-0.031698,-0.311295,76.731202,-20.127831,31.075252
01392,NaN,0.851403,12.951011,0.235649,-4.263029,0.484048,2.438283,1.889137,-1.058061,-2.651294,-0.712991,-0.633443,-0.039204,-0.298088,78.150325,-18.768147,30.092301
01393,NaN,0.823218,13.533881,0.334533,-4.049577,0.334292,3.126706,1.869377,-1.058571,-2.711790,-0.711191,-0.641105,-0.046832,-0.284603,79.521704,-17.355963,29.146020
01394,NaN,0.809224,13.946545,0.369722,-3.751945,0.241697,3.646295,1.831135,-1.117210,-2.754493,-0.709366,-0.648524,-0.054349,-0.270673,80.850520,-15.900563,28.202323
01395,NaN,0.990156,14.219887,0.467857,-3.191171,0.177647,4.085903,1.779417,-1.177056,-2.772121,-0.707535,-0.655620,-0.061595,-0.256444,82.122381,-14.424148,27.264020
01396,NaN,1.209130,14.196463,0.554377,-2.499116,0.138079,4.223905,1.667763,-1.185298,-2.818599,-0.705908,-0.662130,-0.068833,-0.241949,83.302139,-12.898465,26.355709
01397,NaN,1.122801,14.112870,0.723270,-2.028752,-0.104435,4.216319,1.578094,-1.189123,-2.786082,-0.704334,-0.668126,-0.075790,-0.227545,84.396415,-11.378755,25.484495
01398,NaN,1.046635,13.919478,1.067536,-1.474542,-0.496787,4.099561,1.449979,-1.267136,-2.730043,-0.702944,-0.673602,-0.082150,-0.213028,85.399320,-9.874968,24.603384
01399,NaN,1.497574,13.463743,1.082367,-0.564449,-0.366593,3.760082,1.285659,-1.352427,-2.706388,-0.701929,-0.678401,-0.087900,-0.198347,86.285552,-8.378871,23.703616
01400,NaN,2.107660,12.537478,0.241762,0.194570,0.619036,2.885995,1.006556,-1.528926,-2.658973,-0.701696,-0.682245,-0.092603,-0.183271,87.001456,-6.898651,22.727832
01401,NaN,2.156370,11.187216,-0.598461,0.443556,1.394292,1.501574,0.865149,-1.654048,-2.488485,-0.701677,-0.685602,-0.096099,-0.168418,87.614550,-5.513137,21.705252
01402,NaN,2.225203,10.645029,-0.412135,0.939234,1.210797,0.961479,1.044040,-1.762796,-2.260750,-0.700728,-0.689634,-0.098593,-0.153832,88.312481,-4.243822,20.642855
01403,NaN,2.407910,10.958795,-0.243507,1.430609,1.048097,1.268832,1.209005,-1.837101,-2.083845,-0.698956,-0.694216,-0.100289,-0.139524,89.081204,-3.068246,19.558356
01404,NaN,2.320426,11.476957,0.165039,1.732950,0.537362,1.755950,1.219590,-1.841529,-1.922587,-0.696871,-0.698774,-0.101425,-0.125697,89.836218,-1.966011,18.488967
01405,NaN,2.962510,11.716504,0.206977,2.607942,0.590330,1.974566,1.132084,-1.808503,-1.765776,-0.694842,-0.702931,-0.102022,-0.112581,90.518019,-0.945164,17.452886
01406,NaN,3.371874,11.809474,0.401403,3.295961,0.408440,2.017719,1.067515,-1.609141,-1.566208,-0.692695,-0.706739,-0.102585,-0.100842,91.146439,-0.023929,16.541364
01407,NaN,2.942541,11.742223,0.420139,3.104362,0.156056,1.894100,1.008223,-1.376899,-1.465503,-0.690499,-0.710167,-0.103523,-0.090319,91.725443,0.841226,15.771166
01408,NaN,2.760462,11.793306,0.405528,3.122693,0.017594,1.896768,0.925780,-1.214895,-1.342862,-0.688366,-0.713225,-0.104562,-0.080798,92.250171,1.644624,15.099565
01409,NaN,3.022574,11.722095,-0.064427,3.426729,0.448499,1.789078,0.821107,-1.071960,-1.164439,-0.686406,-0.715884,-0.105378,-0.072476,92.707002,2.343755,14.511990
01410,NaN,3.390148,11.517585,-0.327524,3.861355,0.716884,1.537590,0.726656,-0.899438,-1.009914,-0.684578,-0.718195,-0.106216,-0.065321,93.109464,2.957819,14.023825
01411,NaN,3.381113,11.380956,-0.460336,3.945224,0.773293,1.367897,0.641786,-0.727066,-0.880803,-0.682896,-0.720182,-0.107123,-0.059294,93.462057,3.491580,13.633863
01412,NaN,3.215028,11.168818,-0.540619,3.864970,0.756942,1.135324,0.564199,-0.586399,-0.774080,-0.681350,-0.721900,-0.108120,-0.054154,93.773759,3.965048,13.323671
01413,NaN,2.849148,10.985831,-0.529093,3.594151,0.615758,0.947801,0.498969,-0.501473,-0.657877,-0.679952,-0.723408,-0.108945,-0.049774,94.047283,4.366776,13.059714
01414,NaN,2.217759,10.862206,-0.437456,3.071883,0.343130,0.842945,0.446931,-0.487856,-0.558907,-0.678687,-0.724780,-0.109462,-0.045786,94.291444,4.715734,12.801283
01415,NaN,1.785796,10.711174,-0.293602,2.735638,0.073930,0.699920,0.387446,-0.543463,-0.450570,-0.677639,-0.726002,-0.109363,-0.042016,94.495338,5.003080,12.507275
01416,NaN,1.556327,10.454968,-0.197005,2.560085,-0.092711,0.444233,0.320035,-0.652886,-0.341765,-0.676853,-0.727074,-0.108500,-0.038235,94.654972,5.237076,12.146509
01417,NaN,1.326883,10.075833,-0.081389,2.359318,-0.264700,0.069268,0.269551,-0.782674,-0.243379,-0.676299,-0.728032,-0.106810,-0.034361,94.775404,5.419020,11.706924
01418,NaN,1.308773,9.718865,0.004463,2.347580,-0.362796,-0.298153,0.245908,-0.911186,-0.154457,-0.675861,-0.728971,-0.104372,-0.030315,94.875165,5.559851,11.189742
01419,NaN,1.412461,9.478543,0.158049,2.468460,-0.512612,-0.565709,0.249332,-1.018034,-0.076874,-0.675447,-0.729953,-0.101272,-0.026155,94.967904,5.659891,10.607387
01420,NaN,1.478868,9.265953,0.285066,2.542229,-0.649828,-0.799316,0.262608,-1.085628,-0.021740,-0.674982,-0.731001,-0.097756,-0.021913,95.064643,5.735199,9.983735
01421,NaN,1.463538,9.184664,0.390870,2.539356,-0.792400,-0.892126,0.266716,-1.142598,0.021198,-0.674512,-0.732060,-0.093873,-0.017619,95.158151,5.787550,9.325084
01422,NaN,1.531796,9.137322,0.426100,2.605964,-0.856924,-0.953056,0.282621,-1.177404,0.058600,-0.673965,-0.733171,-0.089747,-0.013303,95.259269,5.823638,8.644708
01423,NaN,1.497567,9.080047,0.490786,2.570420,-0.967781,-1.015699,0.298185,-1.163211,0.084545,-0.673335,-0.734314,-0.085558,-0.009132,95.368449,5.843258,7.970963
01424,NaN,1.549153,9.132712,0.510491,2.623069,-1.031587,-0.974019,0.302734,-1.136943,0.096144,-0.672646,-0.735453,-0.081424,-0.005082,95.482532,5.858056,7.311799
01425,NaN,1.473160,9.135748,0.621226,2.552854,-1.197228,-0.977110,0.292290,-1.079959,0.092588,-0.671956,-0.736526,-0.077480,-0.001246,95.592805,5.871104,6.685379
01426,NaN,1.420715,9.011420,0.716928,2.487832,-1.330457,-1.107600,0.268313,-1.017511,0.085098,-0.671305,-0.737496,-0.073781,0.002386,95.693717,5.887714,6.095294
01427,NaN,1.300736,8.895020,0.817047,2.355323,-1.470935,-1.223768,0.252739,-0.943823,0.080507,-0.670672,-0.738390,-0.070334,0.005746,95.789086,5.902062,5.547608
01428,NaN,1.208867,8.707928,0.964936,2.245641,-1.645332,-1.418025,0.257591,-0.868244,0.068804,-0.669975,-0.739284,-0.067191,0.008877,95.892221,5.921040,5.044004
01429,NaN,1.138990,8.719127,1.124096,2.179194,-1.845230,-1.420418,0.280264,-0.783092,0.056598,-0.669156,-0.740236,-0.064367,0.011732,96.012681,5.941469,4.589856
01430,NaN,1.104325,8.712966,1.354837,2.149362,-2.111163,-1.452423,0.293858,-0.682205,0.053055,-0.668241,-0.741229,-0.061899,0.014238,96.147171,5.960003,4.193788
01431,NaN,1.079693,8.800105,1.538771,2.135225,-2.338438,-1.389635,0.303422,-0.564500,0.045664,-0.667247,-0.742249,-0.059844,0.016327,96.293705,5.975203,3.865579
01432,NaN,0.995445,8.819613,1.718746,2.054015,-2.557338,-1.388227,0.292581,-0.440199,0.045777,-0.666250,-0.743236,-0.058208,0.017957,96.441478,5.984265,3.608562
01433,NaN,0.910572,8.873753,1.792298,1.970825,-2.671191,-1.341237,0.279478,-0.302191,0.046271,-0.665258,-0.744188,-0.057026,0.019063,96.589855,5.983746,3.430525
01434,NaN,0.772190,8.950615,1.815286,1.836480,-2.738014,-1.260751,0.273813,-0.169409,0.045013,-0.664249,-0.745129,-0.056294,0.019682,96.742718,5.976362,3.328501
01435,NaN,0.731620,9.159820,1.797439,1.813836,-2.772128,-1.055199,0.273124,-0.038726,0.048594,-0.663202,-0.746081,-0.055979,0.019797,96.903158,5.957537,3.301012
01436,NaN,0.627178,9.429703,1.808835,1.738024,-2.845719,-0.786855,0.270235,0.098388,0.046120,-0.662129,-0.747032,-0.056131,0.019412,97.069563,5.931245,3.351941
01437,NaN,0.390940,9.786808,1.814344,1.542805,-2.930955,-0.418248,0.242179,0.209428,0.044025,-0.661125,-0.747902,-0.056658,0.018607,97.226935,5.897481,3.466508
01438,NaN,0.057238,10.092107,1.746170,1.244074,-2.941666,-0.081199,0.201225,0.288096,0.028368,-0.660254,-0.748631,-0.057509,0.017552,97.364644,5.867043,3.626916
01439,NaN,-0.193226,10.338878,1.842528,1.031922,-3.100892,0.169508,0.140922,0.317396,0.014741,-0.659592,-0.749163,-0.058511,0.016411,97.470375,5.841396,3.805151
01440,NaN,-0.454724,10.507763,1.919835,0.801008,-3.228803,0.347964,0.091841,0.308789,0.008896,-0.659121,-0.749522,-0.059511,0.015310,97.546266,5.819782,3.978653
01441,NaN,-0.649765,10.662874,1.964381,0.633333,-3.315294,0.511342,0.052684,0.262235,-0.000677,-0.658801,-0.749751,-0.060395,0.014400,97.598233,5.806577,4.126484
01442,NaN,-0.870703,10.744441,2.007879,0.432016,-3.389354,0.606446,0.003913,0.181553,-0.014444,-0.658697,-0.749799,-0.061070,0.013827,97.616139,5.807527,4.229028
01443,NaN,-1.073106,10.838808,2.001608,0.246622,-3.409362,0.720744,-0.049853,0.072542,-0.020210,-0.658816,-0.749669,-0.061410,0.013661,97.598539,5.819713,4.270054
01444,NaN,-1.236117,10.816929,1.931501,0.081913,-3.341948,0.727203,-0.103727,-0.056714,-0.029794,-0.659189,-0.749339,-0.061364,0.013998,97.540737,5.847425,4.237671
01445,NaN,-1.383523,10.752079,1.927471,-0.070179,-3.326576,0.683284,-0.156520,-0.204350,-0.037210,-0.659791,-0.748832,-0.060863,0.014894,97.446021,5.890040,4.121832
01446,NaN,-1.378251,10.669314,1.770133,-0.083715,-3.138871,0.627985,-0.201306,-0.341338,-0.043514,-0.660615,-0.748151,-0.059936,0.016313,97.315229,5.946411,3.927710
01447,NaN,-1.202501,10.562279,1.579494,0.066683,-2.898944,0.535943,-0.236144,-0.454949,-0.049916,-0.661585,-0.747352,-0.058661,0.018164,97.159821,6.013821,3.669361
01448,NaN,-1.091305,10.478500,1.496644,0.161627,-2.768779,0.460457,-0.278070,-0.538185,-0.060089,-0.662746,-0.746383,-0.057151,0.020351,96.972478,6.092436,3.363441
01449,NaN,-1.242988,10.410348,1.341766,-0.004939,-2.580814,0.437188,-0.309649,-0.616897,-0.072515,-0.664023,-0.745305,-0.055430,0.022860,96.764457,6.182142,3.013489
01450,NaN,-1.300234,10.431825,1.190605,-0.065574,-2.396179,0.491923,-0.324739,-0.710547,-0.083229,-0.665390,-0.744136,-0.053438,0.025753,96.538513,6.283139,2.609714
01451,NaN,-1.164311,10.637623,1.072715,0.089514,-2.254134,0.702828,-0.317096,-0.808251,-0.086763,-0.666724,-0.742983,-0.051133,0.029019,96.312924,6.390537,2.150243
01452,NaN,-0.845799,10.970732,0.921135,0.442607,-2.087097,1.021002,-0.285645,-0.872466,-0.102339,-0.667962,-0.741888,-0.048665,0.032587,96.097208,6.509282,1.653839
01453,NaN,-0.391474,11.468395,0.781338,0.954197,-1.952220,1.481828,-0.254808,-0.873088,-0.106641,-0.669050,-0.740897,-0.046206,0.036174,95.901226,6.628487,1.157373
01454,NaN,-0.010894,12.193935,0.783167,1.424788,-1.991120,2.158565,-0.207488,-0.811379,-0.118089,-0.669956,-0.740039,-0.043984,0.039585,95.732088,6.749194,0.695862
01455,NaN,0.317286,13.192370,1.098316,1.878820,-2.375696,3.078071,-0.202087,-0.674218,-0.127851,-0.670777,-0.739232,-0.042259,0.042518,95.577824,6.866298,0.313842
01456,NaN,0.466932,13.962142,1.451568,2.129707,-2.769170,3.791076,-0.308772,-0.480111,-0.136713,-0.671966,-0.738078,-0.041235,0.044742,95.371510,6.976560,0.042685
01457,NaN,0.533248,13.982931,1.760646,2.210428,-3.022605,3.784516,-0.556468,-0.251451,-0.131546,-0.673993,-0.736159,-0.041019,0.046051,95.042384,7.070820,-0.097175
01458,NaN,0.486539,12.915110,1.686588,2.051214,-2.765255,2.758163,-0.826542,-0.008617,-0.100439,-0.676989,-0.733358,-0.041564,0.046307,94.571405,7.134342,-0.100259
01459,NaN,0.403685,11.540649,1.521414,1.815979,-2.383498,1.442725,-0.976912,0.206189,-0.051288,-0.680463,-0.730117,-0.042695,0.045576,94.033248,7.160874,0.018401
01460,NaN,0.431626,10.474205,1.057457,1.724536,-1.735480,0.435559,-1.040461,0.359297,0.005856,-0.684157,-0.726662,-0.044144,0.044076,93.465186,7.149591,0.222060
01461,NaN,0.554975,9.741515,0.436019,1.759160,-0.963716,-0.253877,-1.078720,0.427991,0.077196,-0.687943,-0.723108,-0.045583,0.042074,92.883927,7.097894,0.463930
01462,NaN,0.762795,9.333928,0.067049,1.903760,-0.468826,-0.654984,-1.069670,0.492286,0.192480,-0.691710,-0.719576,-0.046816,0.039441,92.307396,6.980276,0.739517
01463,NaN,0.948754,9.296048,-0.105039,2.060311,-0.192616,-0.699796,-1.022652,0.564295,0.288901,-0.695259,-0.716243,-0.047947,0.036227,91.766322,6.809359,1.056528
01464,NaN,1.050145,9.574882,-0.113668,2.162380,-0.089818,-0.426040,-1.002490,0.617191,0.362615,-0.698738,-0.712956,-0.048984,0.032569,91.234992,6.597516,1.403607
01465,NaN,1.184436,10.003560,-0.019927,2.306555,-0.084682,-0.007283,-1.017060,0.634810,0.445911,-0.702223,-0.709639,-0.049795,0.028554,90.699518,6.341873,1.762625
01466,NaN,1.509478,10.359238,0.024770,2.619288,-0.009404,0.322929,-1.080449,0.616155,0.522740,-0.705947,-0.706060,-0.050265,0.024315,90.120697,6.044715,2.112114
01467,NaN,1.840892,10.537961,0.041115,2.907918,0.111357,0.481435,-1.175805,0.600091,0.588759,-0.709959,-0.702152,-0.050465,0.019878,89.489057,5.714450,2.456154
01468,NaN,2.134460,10.495718,-0.006890,3.124397,0.307814,0.427298,-1.261249,0.579683,0.657567,-0.714270,-0.697890,-0.050344,0.015241,88.801296,5.347248,2.791932
01469,NaN,2.307940,10.540820,-0.039630,3.222112,0.491929,0.473745,-1.283309,0.565361,0.723650,-0.718598,-0.693551,-0.049952,0.010417,88.102736,4.947359,3.125405
01470,NaN,2.448622,10.736581,0.073406,3.298183,0.538208,0.680412,-1.263403,0.542844,0.801886,-0.722849,-0.689232,-0.049191,0.005386,87.408286,4.504635,3.451725
01471,NaN,2.712102,11.180180,0.332183,3.512841,0.464596,1.137358,-1.269951,0.519522,0.881578,-0.727058,-0.684891,-0.048081,0.000153,86.711324,4.021220,3.772771
01472,NaN,3.008244,11.542579,0.430900,3.726284,0.563872,1.512493,-1.330878,0.467074,0.984128,-0.731463,-0.680279,-0.046411,-0.005297,85.970978,3.479372,4.072837
01473,NaN,3.071371,11.674329,0.339171,3.660101,0.835511,1.665103,-1.444435,0.396750,1.114766,-0.736184,-0.675257,-0.044048,-0.011002,85.165299,2.865814,4.346080
01474,NaN,3.069463,11.433707,0.118020,3.482111,1.210478,1.437645,-1.577302,0.309877,1.261592,-0.741320,-0.669693,-0.040840,-0.016994,84.274702,2.165714,4.585940
01475,NaN,2.944767,10.926272,-0.103261,3.161795,1.546755,0.942367,-1.673856,0.225597,1.426208,-0.746675,-0.663762,-0.036774,-0.023320,83.329035,1.372873,4.799423
01476,NaN,2.747340,10.291920,-0.296941,2.765859,1.821084,0.315899,-1.721458,0.138286,1.583947,-0.752113,-0.657583,-0.031829,-0.029965,82.348475,0.485181,4.987468
01477,NaN,2.657355,9.766778,-0.450863,2.485393,2.057358,-0.208520,-1.708218,0.081693,1.712375,-0.757368,-0.651416,-0.026265,-0.036887,81.376540,-0.473964,5.169146
01478,NaN,2.508367,9.382028,-0.554391,2.151583,2.238683,-0.594445,-1.659966,0.042039,1.853784,-0.762354,-0.645335,-0.020075,-0.044219,80.425082,-1.516437,5.357169
01479,NaN,2.400478,9.172410,-0.650248,1.853813,2.426324,-0.813249,-1.602564,0.023005,1.975511,-0.766990,-0.639414,-0.013450,-0.051925,79.506195,-2.623361,5.563788
01480,NaN,2.370374,9.073094,-0.566601,1.638669,2.452431,-0.893251,-1.535822,-0.026284,2.090284,-0.771278,-0.633640,-0.006262,-0.059918,78.617657,-3.799943,5.772808
01481,NaN,2.377052,9.013534,-0.468231,1.452901,2.464647,-0.928814,-1.469600,-0.102966,2.189659,-0.775181,-0.628065,0.001495,-0.068021,77.767341,-5.034818,5.968483
