// General information: 
//  MT Manager version: 2019.0.1 
//  XDA version: 2019.0.1 build 2740 rev 84096 built on 2019-01-30
// Device information: 
//  DeviceId: 00B43876
//  ProductCode: MTW2-3A7G6
//  Firmware Version: 4.3.4
//  Hardware Version: 1.1.0
// Device settings: 
//  Filter Profile: human(46.1)
//  Option Flags: Orientation Smoother Disabled, AHS Disabled, ICC Disabled
// Coordinate system: ENU
PacketCounter,SampleTimeFine,Acc_X,Acc_Y,Acc_Z,FreeAcc_E,FreeAcc_N,FreeAcc_U,Gyr_X,Gyr_Y,Gyr_Z,Quat_q0,Quat_q1,Quat_q2,Quat_q3,Roll,Pitch,Yaw
05329,NaN,0.103996,-9.559992,0.027254,2.282641,-2.714209,-0.934200,-0.340437,0.540931,0.104344,0.301528,-0.073577,-0.743595,0.592228,-97.189179,-21.178836,149.975740
05330,NaN,-0.648249,-9.536149,0.320462,2.697918,-3.322988,-1.260499,-0.305633,0.455343,0.195923,0.302515,-0.076092,-0.743732,0.591234,-97.257211,-21.100422,149.685841
05331,NaN,-1.368154,-9.614428,0.696522,3.055263,-4.012602,-1.484517,-0.287447,0.375558,0.307693,0.302854,-0.078782,-0.743891,0.590507,-97.330624,-20.949093,149.436121
05332,NaN,-1.513776,-9.988802,1.506617,2.774434,-4.873626,-1.275263,-0.290566,0.347406,0.374039,0.302912,-0.081620,-0.744064,0.589874,-97.409602,-20.761637,149.198076
05333,NaN,1.017076,-9.841998,1.848777,0.471058,-3.908603,-0.548882,-0.315441,0.263846,0.293993,0.302859,-0.083970,-0.744470,0.589058,-97.524808,-20.610479,149.017356
05334,NaN,2.857417,-9.776201,1.604691,-0.928712,-2.804731,0.065815,-0.285545,0.086617,0.276996,0.302229,-0.085672,-0.745052,0.588401,-97.659879,-20.458762,148.944893
05335,NaN,3.672590,-9.958229,1.425195,-1.481311,-2.321037,0.536409,-0.251780,-0.061208,0.247995,0.301126,-0.086798,-0.745775,0.587885,-97.809257,-20.309444,148.964440
05336,NaN,3.523979,-9.667076,1.222522,-1.350555,-2.146856,0.233817,-0.189456,-0.178701,0.244855,0.299641,-0.087454,-0.746481,0.587650,-97.945463,-20.155412,149.054365
05337,NaN,3.172290,-9.125453,0.393803,-0.766795,-1.482125,-0.288634,-0.216747,-0.308814,0.261247,0.297588,-0.087848,-0.747462,0.587388,-98.125294,-19.978652,149.221461
05338,NaN,2.784019,-8.755154,-0.424074,-0.125373,-0.896199,-0.660405,-0.274364,-0.394120,0.293995,0.295115,-0.088181,-0.748708,0.586999,-98.351659,-19.778523,149.435666
05339,NaN,3.159739,-9.136760,-1.957903,0.439483,0.421567,0.032442,-0.374777,-0.431051,0.287836,0.292453,-0.088548,-0.750310,0.586230,-98.644280,-19.575084,149.672002
05340,NaN,3.573654,-9.289284,-2.629386,0.447461,1.114283,0.411471,-0.234303,-0.315290,0.310934,0.290238,-0.089117,-0.751305,0.585971,-98.829173,-19.370433,149.834892
05341,NaN,5.037136,-9.186058,-3.635380,-0.274452,2.656970,0.950087,-0.380444,-0.230940,0.257109,0.288410,-0.089960,-0.752634,0.585038,-99.084087,-19.200460,149.951839
05342,NaN,4.750633,-10.166858,-4.235678,0.433541,2.704646,1.865122,-0.337338,-0.101476,0.252933,0.287120,-0.091085,-0.753639,0.584203,-99.286560,-19.047066,149.990365
05343,NaN,2.961013,-10.937087,-2.837470,1.256520,0.461565,1.791050,-0.148527,0.030551,0.291671,0.286278,-0.092488,-0.753892,0.584070,-99.355623,-18.881119,149.946217
05344,NaN,2.648033,-10.366115,-1.592533,0.699409,-0.539697,0.968039,-0.091997,0.068561,0.254333,0.285734,-0.093764,-0.753933,0.584080,-99.384594,-18.742659,149.882535
05345,NaN,2.350248,-10.516179,-0.906169,0.577212,-1.285401,0.908756,-0.045370,0.040135,0.215656,0.285197,-0.094760,-0.753903,0.584220,-99.395286,-18.620629,149.840033
05346,NaN,2.403362,-9.925787,-0.734074,0.309372,-1.219050,0.348731,-0.051561,-0.043347,0.152730,0.284546,-0.095269,-0.754032,0.584289,-99.425737,-18.529006,149.853095
05347,NaN,2.479500,-9.702089,-0.858222,0.255561,-1.013831,0.183402,-0.094216,-0.137831,0.086726,0.283691,-0.095329,-0.754458,0.584145,-99.502216,-18.463128,149.929339
05348,NaN,2.511437,-9.475600,-1.145007,0.326788,-0.702534,0.026264,-0.142703,-0.226026,0.031387,0.282661,-0.094976,-0.755168,0.583785,-99.622957,-18.422523,150.063078
05349,NaN,2.790570,-9.301496,-1.555695,0.268462,-0.195084,0.016610,-0.214188,-0.285777,0.008786,0.281417,-0.094479,-0.756188,0.583145,-99.798260,-18.386053,150.234976
05350,NaN,3.150718,-9.116299,-2.315242,0.323611,0.634759,0.081074,-0.305681,-0.278735,-0.008555,0.280225,-0.094051,-0.757462,0.582134,-100.023311,-18.361950,150.403880
05351,NaN,3.817870,-9.158799,-2.876843,0.057262,1.369851,0.427237,-0.342448,-0.168688,0.007140,0.279367,-0.094069,-0.758686,0.580948,-100.249987,-18.337003,150.506030
05352,NaN,4.327220,-9.084404,-2.891881,-0.389577,1.617439,0.523959,-0.285657,-0.009387,0.061255,0.279000,-0.094660,-0.759488,0.579979,-100.410838,-18.300074,150.507233
05353,NaN,4.561060,-9.087040,-2.001840,-1.073662,0.976302,0.447868,-0.177981,0.097945,0.116139,0.278914,-0.095635,-0.759809,0.579441,-100.489749,-18.240891,150.439051
05354,NaN,4.627622,-9.269134,-0.630656,-1.842188,-0.179655,0.400221,-0.015702,0.091796,0.162873,0.278766,-0.096528,-0.759637,0.579589,-100.473776,-18.157390,150.369024
05355,NaN,3.605627,-9.014998,-0.347855,-1.208029,-0.803883,-0.206120,-0.007970,0.026682,0.182061,0.278299,-0.097311,-0.759531,0.579821,-100.466361,-18.053667,150.335906
05356,NaN,2.487707,-8.707671,-0.751850,-0.138396,-0.896636,-0.770876,-0.110059,-0.078729,0.159921,0.277466,-0.097828,-0.759870,0.579689,-100.535869,-17.954157,150.367231
05357,NaN,2.302047,-9.122113,-1.155227,0.282037,-0.786120,-0.370796,-0.209335,-0.195333,0.096009,0.276306,-0.097920,-0.760697,0.579144,-100.687215,-17.875549,150.474823
05358,NaN,2.525538,-9.757670,-1.561079,0.402206,-0.556445,0.363559,-0.148742,-0.281682,0.046524,0.275010,-0.097473,-0.761481,0.578806,-100.819269,-17.817966,150.638382
05359,NaN,2.706665,-9.469252,-1.529182,0.169868,-0.418715,0.143565,-0.042984,-0.311760,0.023386,0.273697,-0.096721,-0.762018,0.578847,-100.898492,-17.767215,150.822579
05360,NaN,3.007666,-9.108038,-1.808558,-0.006352,0.056249,-0.052049,-0.075816,-0.312645,-0.004563,0.272464,-0.095889,-0.762654,0.578729,-100.995759,-17.734400,151.009960
05361,NaN,3.488189,-9.049772,-2.175011,-0.236248,0.588482,0.106706,-0.093955,-0.249710,-0.020229,0.271488,-0.095220,-0.763271,0.578484,-101.094282,-17.714416,151.162307
05362,NaN,3.607302,-8.895186,-2.380070,-0.263867,0.851303,0.036543,-0.074402,-0.130932,-0.005836,0.270953,-0.094906,-0.763655,0.578280,-101.158040,-17.701869,151.242452
05363,NaN,3.274794,-8.746860,-2.234558,-0.094298,0.616738,-0.229587,-0.086092,-0.030436,0.003735,0.270748,-0.094952,-0.763940,0.577993,-101.211789,-17.692432,151.262558
05364,NaN,3.011522,-8.960248,-2.255847,0.168948,0.439430,-0.105859,-0.097629,0.016101,-0.017536,0.270796,-0.095050,-0.764197,0.577614,-101.262970,-17.702771,151.257333
05365,NaN,2.854292,-9.016913,-2.073034,0.211798,0.189157,-0.134437,-0.097096,0.020010,-0.030716,0.270878,-0.095125,-0.764461,0.577213,-101.315207,-17.718315,151.251724
05366,NaN,2.754676,-9.272830,-2.143095,0.373946,0.111587,0.087524,-0.090457,-0.012182,-0.054844,0.270930,-0.094989,-0.764754,0.576824,-101.368765,-17.746410,151.267622
05367,NaN,2.837360,-9.353916,-2.052206,0.271547,0.039709,0.171430,-0.039790,-0.044141,-0.068603,0.270903,-0.094656,-0.764957,0.576622,-101.401085,-17.775987,151.304375
05368,NaN,2.980139,-9.264795,-1.876576,0.048665,-0.018670,0.098744,0.003846,-0.089981,-0.082532,0.270780,-0.094063,-0.765096,0.576592,-101.415715,-17.810748,151.369505
05369,NaN,3.114486,-9.133658,-1.803224,-0.120335,0.018093,0.003653,0.013246,-0.122682,-0.092315,0.270546,-0.093341,-0.765263,0.576597,-101.432750,-17.844705,151.455453
05370,NaN,3.212100,-9.131517,-1.849002,-0.174031,0.095409,0.040313,0.008500,-0.124048,-0.100232,0.270346,-0.092576,-0.765443,0.576576,-101.451637,-17.885482,151.542845
05371,NaN,3.349408,-9.068228,-1.868235,-0.285473,0.187461,0.027280,0.001205,-0.096275,-0.097936,0.270224,-0.091924,-0.765611,0.576515,-101.471116,-17.925549,151.613944
05372,NaN,3.407717,-9.120546,-1.887037,-0.310754,0.206409,0.097844,-0.013528,-0.057150,-0.089463,0.270238,-0.091423,-0.765758,0.576393,-101.490220,-17.967869,151.660633
05373,NaN,3.423157,-9.101850,-1.803646,-0.365617,0.143569,0.069646,-0.018184,-0.027381,-0.086430,0.270337,-0.091040,-0.765883,0.576240,-101.507939,-18.009300,151.689742
05374,NaN,3.346245,-9.190872,-1.830604,-0.267198,0.096707,0.134164,-0.034994,-0.007677,-0.071364,0.270480,-0.090779,-0.766016,0.576038,-101.529720,-18.047116,151.705096
05375,NaN,3.239436,-9.183144,-1.879342,-0.150225,0.085393,0.103267,-0.037335,0.001981,-0.069928,0.270635,-0.090570,-0.766149,0.575821,-101.552469,-18.082628,151.714922
05376,NaN,3.263975,-9.172329,-1.926533,-0.143714,0.133761,0.109920,-0.022618,0.007930,-0.066593,0.270829,-0.090356,-0.766223,0.575665,-101.564155,-18.119555,151.720517
05377,NaN,3.253986,-9.087000,-1.893331,-0.163491,0.124284,0.021158,-0.022634,-0.001441,-0.063068,0.270957,-0.090143,-0.766315,0.575515,-101.578870,-18.150819,151.731558
05378,NaN,3.258578,-9.032641,-1.967635,-0.134700,0.200238,-0.013694,-0.043212,-0.003628,-0.061327,0.271082,-0.089944,-0.766462,0.575292,-101.604318,-18.183459,151.743369
05379,NaN,3.411375,-9.109023,-2.005788,-0.226997,0.270284,0.112552,-0.037309,0.002853,-0.055736,0.271200,-0.089792,-0.766587,0.575094,-101.626392,-18.211096,151.751012
05380,NaN,3.410971,-9.077274,-1.977708,-0.243042,0.252853,0.077709,-0.010099,0.019914,-0.051967,0.271403,-0.089651,-0.766602,0.575000,-101.628207,-18.241206,151.747807
05381,NaN,3.344121,-8.965378,-1.880021,-0.253581,0.175078,-0.065858,-0.014404,0.038068,-0.044014,0.271632,-0.089614,-0.766608,0.574890,-101.630203,-18.266330,151.733224
05382,NaN,3.271955,-8.983327,-1.836164,-0.209403,0.096826,-0.080056,-0.046017,0.041513,-0.042895,0.271876,-0.089618,-0.766693,0.574660,-101.648266,-18.293864,151.716159
05383,NaN,3.187587,-9.151623,-1.987201,-0.028471,0.125127,0.078997,-0.051639,0.046707,-0.046256,0.272128,-0.089648,-0.766795,0.574400,-101.670068,-18.321252,151.696753
05384,NaN,3.173852,-9.105641,-2.015796,-0.006220,0.153144,0.037489,-0.031310,0.065182,-0.050211,0.272490,-0.089672,-0.766809,0.574206,-101.675583,-18.355641,151.666602
05385,NaN,3.147612,-9.091721,-1.974614,-0.003766,0.107472,0.008432,-0.042011,0.069915,-0.056162,0.272863,-0.089718,-0.766856,0.573959,-101.687906,-18.391288,151.634690
05386,NaN,3.132332,-9.084354,-2.064864,0.059976,0.173040,0.014169,-0.046683,0.076624,-0.060826,0.273293,-0.089755,-0.766903,0.573686,-101.700489,-18.432956,151.599077
05387,NaN,3.189990,-9.078982,-2.099236,0.034188,0.223902,0.034111,-0.048572,0.080856,-0.069016,0.273742,-0.089792,-0.766959,0.573391,-101.714978,-18.477100,151.562271
05388,NaN,3.371202,-9.125545,-2.037582,-0.134188,0.234880,0.123063,-0.022755,0.088226,-0.065430,0.274239,-0.089812,-0.766923,0.573198,-101.711832,-18.522696,151.520361
05389,NaN,3.369799,-9.025578,-1.913755,-0.208189,0.162000,0.006145,0.001627,0.088224,-0.065184,0.274728,-0.089816,-0.766823,0.573097,-101.695961,-18.565544,151.478703
05390,NaN,3.460079,-8.977275,-1.759512,-0.364243,0.090395,-0.039323,0.023295,0.079183,-0.065299,0.275211,-0.089747,-0.766667,0.573084,-101.668075,-18.610002,151.442088
05391,NaN,3.381031,-8.953669,-1.812971,-0.266233,0.107386,-0.075952,0.027728,0.078296,-0.063017,0.275667,-0.089695,-0.766505,0.573091,-101.638964,-18.650451,151.405984
05392,NaN,3.359212,-9.008892,-1.857710,-0.205803,0.117122,-0.022925,0.022223,0.080051,-0.066991,0.276158,-0.089624,-0.766352,0.573071,-101.611520,-18.695941,151.368997
05393,NaN,3.380880,-9.026823,-1.850543,-0.215857,0.115754,-0.000532,0.029550,0.074326,-0.065173,0.276605,-0.089549,-0.766190,0.573082,-101.582134,-18.737109,151.335446
05394,NaN,3.319213,-9.036124,-1.768748,-0.197124,0.017812,-0.027085,0.031481,0.067977,-0.064303,0.277046,-0.089441,-0.766025,0.573107,-101.551517,-18.779674,151.305226
05395,NaN,3.332498,-9.063783,-1.793652,-0.181681,0.036144,0.007729,0.028878,0.064885,-0.068751,0.277468,-0.089327,-0.765880,0.573115,-101.524393,-18.821735,151.277647
05396,NaN,3.364566,-9.083043,-1.862819,-0.159257,0.102384,0.049169,0.033506,0.067591,-0.067501,0.277917,-0.089202,-0.765711,0.573142,-101.492752,-18.866022,151.247982
05397,NaN,3.324350,-9.094973,-1.933701,-0.077048,0.139770,0.060689,0.035834,0.076736,-0.075847,0.278407,-0.089085,-0.765532,0.573162,-101.459582,-18.913390,151.214161
05398,NaN,3.288746,-9.125116,-1.925453,-0.035842,0.107676,0.075592,0.034686,0.088056,-0.077342,0.278963,-0.088980,-0.765335,0.573171,-101.423649,-18.965493,151.173462
05399,NaN,3.196733,-9.173136,-1.971192,0.084370,0.088607,0.098727,0.038434,0.095436,-0.089266,0.279564,-0.088861,-0.765128,0.573173,-101.385811,-19.022477,151.130058
05400,NaN,3.197408,-9.123356,-2.013204,0.109848,0.140571,0.060518,0.046664,0.100872,-0.102586,0.280246,-0.088679,-0.764890,0.573186,-101.341421,-19.090135,151.084661
05401,NaN,3.250583,-9.122287,-2.015049,0.080779,0.167457,0.077118,0.053362,0.110450,-0.115344,0.280986,-0.088483,-0.764629,0.573201,-101.292986,-19.163396,151.035306
05402,NaN,3.235906,-9.176795,-2.055941,0.141175,0.177260,0.130158,0.058532,0.116075,-0.130809,0.281812,-0.088220,-0.764347,0.573213,-101.239785,-19.248517,150.984054
05403,NaN,3.298091,-9.159775,-1.968550,0.057899,0.140748,0.118620,0.087002,0.130563,-0.133935,0.282696,-0.087962,-0.763969,0.573321,-101.168642,-19.334374,150.924713
05404,NaN,3.305467,-9.121640,-1.872324,0.013169,0.079552,0.068076,0.089239,0.125905,-0.151757,0.283632,-0.087605,-0.763593,0.573414,-101.096511,-19.432221,150.869805
05405,NaN,3.284831,-9.179883,-1.887831,0.069845,0.065435,0.117825,0.081610,0.129334,-0.159166,0.284581,-0.087255,-0.763242,0.573465,-101.029399,-19.531992,150.813845
05406,NaN,3.352945,-9.263974,-1.896866,0.057161,0.078361,0.219865,0.103260,0.137120,-0.173241,0.285627,-0.086827,-0.762817,0.573575,-100.947547,-19.642995,150.754409
05407,NaN,3.288242,-9.251779,-1.809180,0.084996,-0.017729,0.170973,0.111577,0.133430,-0.193312,0.286701,-0.086315,-0.762387,0.573688,-100.863438,-19.762275,150.699565
05408,NaN,3.282174,-9.305157,-1.843456,0.145374,-0.007899,0.224030,0.122947,0.136621,-0.211556,0.287863,-0.085712,-0.761921,0.573817,-100.771522,-19.894592,150.644372
05409,NaN,3.178573,-9.410273,-1.929312,0.326026,-0.017458,0.300281,0.136445,0.138353,-0.236629,0.289090,-0.085014,-0.761428,0.573958,-100.673429,-20.038617,150.590996
05410,NaN,3.168341,-9.467511,-1.938277,0.383165,-0.031575,0.350046,0.157896,0.149890,-0.260234,0.290454,-0.084212,-0.760859,0.574141,-100.560186,-20.199517,150.532729
05411,NaN,3.272381,-9.394179,-1.845069,0.268172,-0.033846,0.301173,0.179055,0.160234,-0.285760,0.291922,-0.083327,-0.760229,0.574361,-100.434492,-20.373307,150.470966
05412,NaN,3.355052,-9.259930,-1.857349,0.217371,0.060866,0.207360,0.180747,0.165939,-0.301402,0.293473,-0.082382,-0.759583,0.574560,-100.305755,-20.558770,150.406717
05413,NaN,3.515100,-9.361888,-1.772602,0.102409,0.033256,0.342669,0.171223,0.185396,-0.324940,0.295144,-0.081431,-0.758949,0.574679,-100.179985,-20.756955,150.333085
05414,NaN,3.574701,-9.418942,-1.696026,0.067286,-0.019677,0.403300,0.184461,0.206905,-0.333887,0.296943,-0.080475,-0.758240,0.574823,-100.040787,-20.964552,150.246547
05415,NaN,3.489661,-9.610745,-1.353459,0.037524,-0.400561,0.493328,0.223937,0.230929,-0.348282,0.298871,-0.079487,-0.757389,0.575082,-99.874854,-21.180075,150.146598
05416,NaN,3.313798,-9.537026,-1.242702,0.151596,-0.544155,0.344140,0.248881,0.226339,-0.366854,0.300861,-0.078365,-0.756471,0.575408,-99.694544,-21.407676,150.050208
05417,NaN,3.276141,-9.615000,-1.371717,0.319665,-0.477454,0.421206,0.216884,0.214133,-0.396396,0.302858,-0.077157,-0.755675,0.575568,-99.536850,-21.648211,149.963716
05418,NaN,3.284559,-9.767190,-1.578878,0.513705,-0.352685,0.593592,0.215169,0.205906,-0.430375,0.304936,-0.075786,-0.754899,0.575671,-99.381429,-21.909197,149.884478
05419,NaN,3.446609,-9.833810,-1.621386,0.478358,-0.265270,0.718806,0.227270,0.222773,-0.457259,0.307141,-0.074356,-0.754074,0.575768,-99.216705,-22.184498,149.797048
05420,NaN,3.003969,-10.217699,-1.560517,0.951330,-0.649881,0.889309,0.205626,0.233051,-0.485905,0.309472,-0.072868,-0.753294,0.575731,-99.061099,-22.478862,149.704786
05421,NaN,3.406538,-10.545980,-1.629221,0.814354,-0.519830,1.347184,0.215132,0.236453,-0.563592,0.312025,-0.071094,-0.752508,0.575602,-98.902439,-22.815110,149.617246
05422,NaN,3.536423,-10.712878,-1.653836,0.842885,-0.500834,1.547127,0.276257,0.267609,-0.609708,0.314861,-0.069129,-0.751499,0.575615,-98.700763,-23.181949,149.513181
05423,NaN,3.329551,-10.664621,-1.571403,1.032812,-0.655206,1.403047,0.290122,0.327304,-0.667096,0.318071,-0.067108,-0.750372,0.575560,-98.478493,-23.584049,149.376232
05424,NaN,3.091683,-10.825912,-1.875945,1.522243,-0.582134,1.484267,0.200756,0.371042,-0.743617,0.321645,-0.065057,-0.749439,0.575024,-98.296368,-24.034583,149.216775
05425,NaN,2.899746,-11.662742,-2.245251,2.204928,-0.670619,2.193842,0.149575,0.441514,-0.825288,0.325680,-0.062994,-0.748558,0.574130,-98.127685,-24.534902,149.019115
05426,NaN,2.906921,-11.991361,-2.320258,2.449379,-0.741639,2.478594,0.286494,0.527267,-0.902236,0.330304,-0.060655,-0.747143,0.573583,-97.856848,-25.086615,148.771248
05427,NaN,2.918788,-11.605587,-1.970895,2.264278,-0.908667,2.067511,0.411138,0.609202,-0.962286,0.335421,-0.058128,-0.745235,0.573357,-97.491686,-25.675842,148.472854
05428,NaN,2.536955,-10.976363,-1.377931,2.165134,-1.378572,1.242887,0.281897,0.634866,-1.003849,0.340714,-0.055727,-0.743634,0.572553,-97.188682,-26.290268,148.155867
05429,NaN,2.681141,-10.978786,-1.380676,2.183725,-1.336061,1.281152,0.257191,0.666195,-1.055542,0.346241,-0.053272,-0.742041,0.571537,-96.888332,-26.933499,147.818111
05430,NaN,2.415452,-10.874912,-1.314153,2.440824,-1.509551,1.031078,0.279436,0.677786,-1.057729,0.351817,-0.050794,-0.740330,0.570576,-96.564718,-27.578054,147.466765
05431,NaN,2.333004,-10.460085,-0.757786,2.169990,-1.878161,0.540709,0.390332,0.656448,-1.035377,0.357256,-0.048148,-0.738309,0.570044,-96.177852,-28.205623,147.121478
05432,NaN,2.757342,-9.550144,-0.173022,1.327666,-1.847028,-0.134733,0.388419,0.598423,-1.019713,0.362428,-0.045392,-0.736358,0.569528,-95.801850,-28.819346,146.805474
05433,NaN,3.319668,-9.230688,-0.247327,0.958857,-1.422435,-0.151258,0.322745,0.520162,-1.017340,0.367270,-0.042542,-0.734715,0.568768,-95.483516,-29.425021,146.534818
05434,NaN,4.096948,-8.905569,-0.377785,0.463069,-0.847767,-0.050376,0.344826,0.465244,-0.976789,0.371793,-0.039641,-0.733070,0.568161,-95.162760,-30.003674,146.291682
05435,NaN,4.527233,-8.200948,-0.292917,-0.051923,-0.475453,-0.452792,0.343318,0.430335,-0.905682,0.375969,-0.036906,-0.731465,0.567665,-94.849104,-30.538461,146.063038
05436,NaN,4.084883,-7.506991,-0.485860,0.205670,-0.299692,-1.260223,0.233864,0.444067,-0.775865,0.379804,-0.034887,-0.730096,0.567003,-94.584593,-30.999048,145.813177
05437,NaN,1.602996,-6.592940,-1.607048,2.338998,-0.286638,-3.250231,-0.029348,0.444971,-0.489786,0.382773,-0.034417,-0.729417,0.565908,-94.461246,-31.295264,145.545462
05438,NaN,-2.541735,-6.285013,-2.938228,5.950415,-1.143522,-5.584238,-0.388987,0.348247,-0.068625,0.384136,-0.035896,-0.729855,0.564324,-94.563766,-31.346645,145.318995
05439,NaN,-5.980729,-7.061531,-3.688297,9.097088,-2.534968,-6.641805,-0.511176,0.116055,0.328769,0.383502,-0.038405,-0.731013,0.563090,-94.807156,-31.160685,145.226859
05440,NaN,-7.515922,-7.698680,-3.058298,10.009006,-4.039586,-6.877914,-0.352368,-0.105626,0.672521,0.381114,-0.041246,-0.732070,0.563138,-95.024576,-30.767195,145.261558
05441,NaN,-5.942259,-7.289548,-2.749716,8.530891,-3.366174,-6.362912,-0.290543,-0.252289,0.866812,0.377650,-0.044262,-0.733183,0.563795,-95.249683,-30.255928,145.380376
05442,NaN,-4.299216,-7.940476,-2.797156,7.582578,-2.745697,-4.880836,-0.422015,-0.406527,1.025778,0.373123,-0.047684,-0.734898,0.564296,-95.592481,-29.643261,145.586849
05443,NaN,-2.812178,-9.589516,-3.316697,7.329492,-2.180630,-2.574647,-0.582687,-0.531790,1.184284,0.367642,-0.051622,-0.737234,0.564500,-96.057630,-28.933589,145.858669
05444,NaN,-0.933995,-11.437688,-3.852600,6.789343,-1.478169,0.099552,-0.659989,-0.551268,1.300951,0.361706,-0.056090,-0.739750,0.564617,-96.561526,-28.151524,146.125726
05445,NaN,0.501937,-12.086878,-3.764249,5.729161,-1.047142,1.438568,-0.544331,-0.417688,1.489355,0.355755,-0.061403,-0.741599,0.565419,-96.945297,-27.272212,146.283940
05446,NaN,0.786455,-11.395922,-2.980473,4.654282,-1.237123,0.965642,-0.444728,-0.247336,1.694973,0.349840,-0.067800,-0.742746,0.566871,-97.210412,-26.283816,146.310377
05447,NaN,0.990147,-10.783236,-2.470141,3.834249,-1.268058,0.533672,-0.471625,-0.131707,1.830400,0.343951,-0.075047,-0.743658,0.568364,-97.451808,-25.230239,146.247918
05448,NaN,1.021316,-10.977143,-2.523674,3.705697,-1.212276,0.803517,-0.515487,-0.039351,1.935484,0.338035,-0.083039,-0.744426,0.569795,-97.690065,-24.120305,146.114638
05449,NaN,1.019110,-11.168974,-2.615927,3.612692,-1.135245,1.063111,-0.486132,0.041401,1.987277,0.332272,-0.091372,-0.744875,0.571321,-97.890555,-22.991601,145.923571
05450,NaN,1.296127,-11.062339,-2.666720,3.201271,-0.843399,1.151023,-0.524905,0.025441,1.985581,0.326376,-0.099734,-0.745384,0.572656,-98.119745,-21.858963,145.739431
05451,NaN,1.804514,-11.268708,-2.603853,2.608877,-0.624213,1.581157,-0.617428,-0.041899,1.950291,0.320274,-0.107886,-0.746206,0.573552,-98.419456,-20.745871,145.595279
05452,NaN,2.526878,-11.531710,-2.296521,1.700845,-0.496963,2.082480,-0.593763,-0.078736,1.908422,0.314107,-0.115755,-0.746965,0.574440,-98.715934,-19.649488,145.472046
05453,NaN,2.809741,-11.088536,-1.896233,0.941193,-0.448489,1.735250,-0.565696,-0.161676,1.846793,0.307821,-0.123073,-0.747736,0.575317,-99.014482,-18.585868,145.399102
05454,NaN,2.627473,-10.884384,-1.715033,0.730550,-0.558786,1.477351,-0.606082,-0.289945,1.781858,0.301159,-0.129857,-0.748791,0.575979,-99.361776,-17.542945,145.402845
05455,NaN,2.836329,-11.000945,-1.416708,0.199045,-0.656015,1.615298,-0.601664,-0.424233,1.710348,0.294206,-0.135941,-0.750016,0.576576,-99.729269,-16.532366,145.486274
05456,NaN,3.246423,-10.890689,-1.111899,-0.523780,-0.579893,1.578914,-0.489144,-0.487344,1.661554,0.287178,-0.141511,-0.750977,0.577526,-100.041164,-15.537917,145.605042
05457,NaN,3.359126,-10.341438,-0.718681,-1.098453,-0.600925,1.012047,-0.342548,-0.490106,1.647996,0.280290,-0.146772,-0.751470,0.578954,-100.265984,-14.555059,145.721523
05458,NaN,3.062885,-9.445497,-0.430465,-1.291466,-0.664025,0.019544,-0.274879,-0.516157,1.636079,0.273338,-0.151834,-0.751752,0.580604,-100.453425,-13.571163,145.850142
05459,NaN,2.672615,-8.751735,-0.288898,-1.271070,-0.732606,-0.775823,-0.284757,-0.573869,1.599542,0.266275,-0.156566,-0.752115,0.582157,-100.651607,-12.606049,146.012260
05460,NaN,2.601786,-8.341619,-0.587406,-1.211125,-0.366648,-1.147018,-0.285377,-0.658925,1.606533,0.258823,-0.161092,-0.752527,0.583750,-100.856878,-11.622798,146.218344
05461,NaN,2.923999,-7.888469,-0.820956,-1.503563,0.166529,-1.496351,-0.297043,-0.741888,1.606963,0.251056,-0.165353,-0.753023,0.585309,-101.073513,-10.634085,146.467683
05462,NaN,3.649140,-7.786855,-1.183931,-2.036121,0.923015,-1.425003,-0.326744,-0.802610,1.612779,0.242971,-0.169507,-0.753610,0.586775,-101.308075,-9.629999,146.746096
05463,NaN,4.746352,-7.756456,-1.407416,-2.962597,1.745451,-1.277735,-0.337429,-0.782707,1.608316,0.234971,-0.173677,-0.754149,0.588119,-101.541435,-8.633964,147.008911
05464,NaN,5.942609,-7.635198,-1.390142,-4.114809,2.445316,-1.290384,-0.341075,-0.690508,1.580991,0.227352,-0.178027,-0.754549,0.589299,-101.764755,-7.658874,147.217791
05465,NaN,7.257441,-7.554375,-1.359065,-5.371543,3.181833,-1.291775,-0.403096,-0.548314,1.534843,0.220359,-0.182656,-0.754959,0.590013,-102.010272,-6.729635,147.347499
05466,NaN,8.316088,-7.498909,-1.404833,-6.364777,3.837813,-1.320172,-0.419656,-0.325942,1.467907,0.214351,-0.187714,-0.755180,0.590356,-102.249864,-5.860770,147.355652
05467,NaN,9.463653,-7.251371,-1.432796,-7.417579,4.578633,-1.553789,-0.472033,-0.083245,1.364923,0.209524,-0.193126,-0.755353,0.590122,-102.507265,-5.082678,147.236430
05468,NaN,10.278702,-7.177132,-1.600840,-8.095953,5.224998,-1.634747,-0.517335,0.175435,1.250386,0.205942,-0.198920,-0.755458,0.589323,-102.780959,-4.399226,146.982923
05469,NaN,10.911904,-7.165399,-1.489562,-8.748240,5.546717,-1.729855,-0.524423,0.424970,1.081983,0.203798,-0.204798,-0.755466,0.588044,-103.052820,-3.845383,146.608391
05470,NaN,11.189303,-7.150642,-1.258093,-9.139572,5.591696,-1.868188,-0.515128,0.647199,0.889459,0.203053,-0.210591,-0.755385,0.586357,-103.316015,-3.428518,146.132422
05471,NaN,10.829644,-7.046143,-1.049872,-8.957947,5.326417,-2.104554,-0.496670,0.781104,0.660027,0.203507,-0.215878,-0.755331,0.584342,-103.568914,-3.160699,145.610674
05472,NaN,10.284391,-6.960619,-0.861871,-8.598258,4.957759,-2.299237,-0.456757,0.820845,0.405446,0.204892,-0.220272,-0.755373,0.582160,-103.801187,-3.042215,145.100292
05473,NaN,9.732539,-6.721035,-0.618666,-8.241246,4.558157,-2.630611,-0.396104,0.788487,0.147069,0.206968,-0.223530,-0.755540,0.579964,-104.002096,-3.064892,144.643132
05474,NaN,8.990848,-6.870965,-0.071296,-7.938405,3.701178,-2.647951,-0.371392,0.727031,-0.105593,0.209577,-0.225618,-0.755967,0.577657,-104.191700,-3.222082,144.255564
05475,NaN,9.470660,-8.414167,-2.037016,-7.305260,5.158245,-0.611262,-0.470156,0.707343,-0.424906,0.212910,-0.226549,-0.757045,0.574654,-104.439839,-3.554103,143.924733
05476,NaN,9.376055,-8.009921,2.870109,-9.987324,1.419447,-2.161280,0.480145,0.706550,-0.512617,0.217578,-0.226116,-0.755477,0.575140,-104.141894,-3.936698,143.606568
05477,NaN,9.071368,-5.233148,1.034619,-8.349970,3.336786,-4.345577,0.210876,0.357355,-0.653620,0.221010,-0.224447,-0.755206,0.574841,-104.011760,-4.345674,143.501038
05478,NaN,1.500882,-6.048478,-3.105875,0.125317,1.814377,-3.091427,-0.446319,-0.038799,-0.534173,0.221883,-0.222795,-0.757118,0.572627,-104.272759,-4.636073,143.600004
05479,NaN,-5.534325,-7.776066,-7.979625,8.491009,0.933938,-0.768323,-0.915642,-0.556698,-0.421463,0.219924,-0.220621,-0.760806,0.569328,-104.826320,-4.785588,143.972888
05480,NaN,-11.315443,-15.048768,-7.898022,12.426498,-4.404773,5.777782,-1.052636,-0.858907,-0.177653,0.215980,-0.218641,-0.764918,0.566082,-105.469474,-4.753925,144.478527
05481,NaN,-9.044840,-27.367275,0.632364,4.564406,-12.956263,15.534440,-0.161645,-0.732634,-0.410654,0.214127,-0.215173,-0.766600,0.565840,-105.599908,-4.864065,144.949790
05482,NaN,6.098346,-22.830721,-0.605249,-6.414333,-2.147540,12.837391,1.326392,-0.700830,-1.543231,0.217196,-0.205838,-0.765204,0.570017,-104.894723,-5.608835,145.574521
05483,NaN,12.790161,-13.378669,-3.041894,-9.601794,5.978309,5.150311,1.087704,-0.805768,-1.403821,0.219188,-0.196983,-0.764379,0.573480,-104.337616,-6.266546,146.229949
05484,NaN,6.105429,-10.586408,0.812617,-5.956723,-0.085045,0.888557,0.877937,-0.298510,-1.143398,0.222166,-0.190780,-0.763285,0.575884,-103.869783,-6.858459,146.559886
05485,NaN,0.695411,-7.210108,1.905783,-1.850389,-3.049060,-3.226354,0.489704,-0.159154,-1.179602,0.225382,-0.185275,-0.763153,0.576605,-103.619158,-7.489242,146.813308
05486,NaN,1.520816,-6.205802,0.899988,-1.882762,-1.571166,-3.844347,-0.159942,-0.441486,-1.001240,0.226415,-0.180347,-0.765016,0.575292,-103.760065,-7.985256,147.200603
05487,NaN,4.010207,-5.933630,-0.052613,-3.391581,0.544997,-3.528395,-0.202923,-0.490503,-0.730822,0.226420,-0.176372,-0.766799,0.574148,-103.928416,-8.320511,147.579779
05488,NaN,5.305056,-6.257286,-1.867064,-3.468683,2.539538,-2.580683,-0.217907,-0.440331,-0.570089,0.226160,-0.173154,-0.768409,0.573077,-104.098651,-8.575046,147.909417
05489,NaN,4.447520,-7.771296,-3.670544,-1.778991,3.051370,-0.803227,-0.384377,-0.381224,-0.458870,0.225640,-0.170736,-0.770326,0.571431,-104.359694,-8.772125,148.191236
05490,NaN,3.342883,-10.423105,-4.287464,-0.536680,2.129219,1.736163,-0.631647,-0.293808,-0.524367,0.225452,-0.168573,-0.772893,0.568675,-104.756371,-9.019710,148.434794
05491,NaN,3.670502,-13.726611,-4.427209,-0.750361,1.325819,4.991725,-0.594664,-0.155379,-0.525275,0.225806,-0.166774,-0.775188,0.565934,-105.122109,-9.283440,148.602731
05492,NaN,2.990708,-12.936038,-4.014073,-0.361265,0.833241,4.028304,0.327289,0.110859,-0.342316,0.227465,-0.165375,-0.774411,0.566744,-104.930468,-9.488567,148.594284
05493,NaN,0.457467,-8.588420,-1.067014,0.230763,-1.490533,-1.278435,0.691489,0.161585,-0.234188,0.229288,-0.164143,-0.772449,0.569041,-104.523618,-9.637774,148.540318
05494,NaN,-1.117013,-6.707567,0.289573,0.846215,-2.815127,-3.674127,0.053158,-0.053729,-0.445704,0.230379,-0.162192,-0.772713,0.568800,-104.506899,-9.876489,148.637720
05495,NaN,-0.876498,-8.574792,-0.724090,1.235230,-2.468984,-1.615270,-0.469513,-0.202892,-0.541605,0.230717,-0.160066,-0.774710,0.566545,-104.808323,-10.143195,148.833912
05496,NaN,-0.475854,-9.911888,-1.519604,1.368960,-2.092956,-0.090228,-0.386059,-0.170760,-0.645377,0.231559,-0.157512,-0.776500,0.564462,-105.061498,-10.474181,149.028996
05497,NaN,-0.150322,-9.663983,-2.224788,1.513018,-1.339578,-0.102865,-0.148607,-0.085708,-0.807265,0.233350,-0.154311,-0.777642,0.563036,-105.177087,-10.903777,149.202235
05498,NaN,1.022757,-9.130083,-3.075465,1.023683,0.050533,-0.178792,-0.186430,-0.102182,-0.865954,0.235229,-0.150860,-0.778935,0.561399,-105.318123,-11.365719,149.394871
05499,NaN,1.971398,-9.011735,-4.315189,0.938695,1.499306,0.216718,-0.199919,-0.074843,-0.892184,0.237252,-0.147413,-0.780243,0.559644,-105.467778,-11.843059,149.577806
05500,NaN,3.037053,-8.529599,-4.624596,0.250391,2.378292,0.068862,-0.048188,0.078790,-0.923684,0.240090,-0.144074,-0.780947,0.558320,-105.513981,-12.363696,149.679955
05501,NaN,3.493194,-8.226422,-4.501714,-0.140862,2.556259,-0.138657,-0.027057,0.217068,-0.913294,0.243429,-0.141148,-0.781405,0.556979,-105.532807,-12.897042,149.702878
05502,NaN,3.426270,-8.609983,-4.139415,-0.181976,2.055206,0.124525,-0.011371,0.278605,-0.886958,0.246960,-0.138459,-0.781707,0.555674,-105.533093,-13.428106,149.686819
05503,NaN,2.778963,-9.218993,-3.378990,0.067616,0.875580,0.353831,0.064591,0.249859,-0.883223,0.250397,-0.135624,-0.781817,0.554680,-105.494290,-13.949879,149.686372
05504,NaN,2.377785,-9.752671,-2.622647,0.114051,-0.150703,0.560850,0.134150,0.125221,-0.906400,0.253472,-0.132247,-0.781887,0.553999,-105.433084,-14.468296,149.760046
05505,NaN,2.445736,-9.850414,-2.287285,-0.031931,-0.456847,0.581229,0.178266,-0.026783,-0.918241,0.255990,-0.128359,-0.782021,0.553567,-105.370414,-14.967315,149.922048
05506,NaN,2.954899,-9.690341,-1.823816,-0.638232,-0.558853,0.445973,0.236837,-0.132629,-0.890337,0.258068,-0.124194,-0.782091,0.553453,-105.289417,-15.437922,150.139918
05507,NaN,3.413954,-9.351337,-1.477085,-1.162219,-0.528670,0.169975,0.223691,-0.168596,-0.855471,0.259876,-0.120097,-0.782208,0.553346,-105.222451,-15.881262,150.372908
05508,NaN,3.838946,-9.300177,-1.466429,-1.455438,-0.351367,0.244098,0.182428,-0.141917,-0.810734,0.261655,-0.116283,-0.782360,0.553107,-105.173797,-16.306984,150.583478
05509,NaN,4.075029,-9.202227,-1.694742,-1.472883,-0.056381,0.286122,0.128837,-0.075208,-0.766179,0.263516,-0.112912,-0.782537,0.552671,-105.145294,-16.715312,150.748870
05510,NaN,4.244643,-9.244842,-2.150272,-1.300082,0.340542,0.497557,0.109777,0.009549,-0.711089,0.265563,-0.109998,-0.782610,0.552176,-105.111166,-17.108930,150.856626
05511,NaN,4.188818,-9.045111,-2.363858,-1.100440,0.532230,0.358520,0.125550,0.119289,-0.636822,0.267820,-0.107672,-0.782447,0.551775,-105.047228,-17.474907,150.889215
05512,NaN,3.883304,-8.920600,-2.370581,-0.797371,0.420434,0.160472,0.110402,0.198237,-0.583071,0.270247,-0.105775,-0.782180,0.551338,-104.974659,-17.826010,150.867038
05513,NaN,3.573243,-8.950637,-2.362927,-0.482441,0.239887,0.095632,0.073717,0.227480,-0.557903,0.272676,-0.104124,-0.781957,0.550772,-104.917322,-18.164358,150.823627
05514,NaN,3.345314,-9.561518,-2.933482,0.159916,0.347154,0.726411,0.124316,0.243085,-0.575960,0.275261,-0.102358,-0.781571,0.550364,-104.827639,-18.518123,150.773203
05515,NaN,2.616896,-8.542186,-2.345342,0.353632,-0.099862,-0.583253,0.080342,0.197910,-0.517865,0.277463,-0.100771,-0.781336,0.549884,-104.769224,-18.829857,150.739806
05516,NaN,2.783793,-9.262180,-3.302648,0.894705,0.451192,0.357885,-0.025066,0.135605,-0.613212,0.279650,-0.098769,-0.781515,0.548885,-104.786729,-19.188427,150.757306
05517,NaN,2.892620,-9.019653,-3.158679,0.745665,0.450749,0.134127,0.114707,0.162727,-0.604918,0.281965,-0.096694,-0.781264,0.548427,-104.719427,-19.543236,150.757635
05518,NaN,3.094929,-8.774859,-3.100680,0.571117,0.570813,-0.038304,0.158816,0.185571,-0.653444,0.284541,-0.094413,-0.780872,0.548053,-104.623834,-19.931307,150.751312
05519,NaN,3.166499,-8.512584,-3.182181,0.577140,0.745435,-0.235218,0.049937,0.195469,-0.692156,0.287186,-0.092178,-0.780776,0.547190,-104.591282,-20.339214,150.744774
05520,NaN,3.620342,-8.933426,-3.521202,0.535314,1.041901,0.382368,0.244659,0.283699,-0.710191,0.290330,-0.089816,-0.780014,0.547009,-104.428749,-20.772785,150.687851
05521,NaN,3.342459,-8.195595,-3.061943,0.456559,0.820678,-0.494274,0.315151,0.318943,-0.712816,0.293626,-0.087454,-0.779000,0.547078,-104.218182,-21.209628,150.608829
05522,NaN,3.588477,-8.294511,-3.090207,0.369567,0.907334,-0.311894,0.265285,0.298246,-0.752768,0.296943,-0.084934,-0.778153,0.546890,-104.041055,-21.668505,150.546248
05523,NaN,3.739383,-8.393316,-2.967864,0.279782,0.829515,-0.196452,0.345615,0.284792,-0.757609,0.300230,-0.082255,-0.777097,0.547006,-103.820602,-22.125032,150.490636
05524,NaN,3.823939,-8.382105,-2.455320,0.008093,0.454787,-0.288859,0.381834,0.251359,-0.773391,0.303459,-0.079349,-0.775982,0.547237,-103.586213,-22.588570,150.455266
05525,NaN,3.924012,-8.502794,-2.162625,-0.125429,0.212931,-0.204845,0.411813,0.220315,-0.785976,0.306588,-0.076280,-0.774822,0.547572,-103.342004,-23.051866,150.438335
05526,NaN,4.065811,-8.569549,-1.727161,-0.381884,-0.104836,-0.179742,0.395960,0.186964,-0.787031,0.309597,-0.073122,-0.773740,0.547840,-103.113510,-23.514282,150.439616
05527,NaN,4.155551,-8.900507,-1.554605,-0.389199,-0.341524,0.118861,0.360913,0.182450,-0.801923,0.312592,-0.069963,-0.772753,0.547946,-102.906756,-23.981458,150.443898
05528,NaN,4.156518,-8.955664,-1.405426,-0.372862,-0.495211,0.140747,0.346266,0.185120,-0.805251,0.315614,-0.066803,-0.771785,0.547972,-102.706697,-24.453818,150.445128
05529,NaN,4.177697,-9.191136,-1.519526,-0.180571,-0.501757,0.383097,0.296336,0.187708,-0.824364,0.318656,-0.063670,-0.770943,0.547769,-102.535503,-24.934215,150.445806
05530,NaN,4.284593,-9.319688,-1.625851,-0.083142,-0.438406,0.563144,0.267288,0.212060,-0.828690,0.321807,-0.060616,-0.770125,0.547424,-102.373569,-25.422992,150.430364
05531,NaN,4.280229,-9.322030,-1.750395,0.081170,-0.362840,0.586616,0.230744,0.249111,-0.838284,0.325091,-0.057701,-0.769338,0.546905,-102.222963,-25.918671,150.391792
05532,NaN,4.331068,-9.506213,-2.065111,0.362162,-0.182056,0.828073,0.257989,0.294369,-0.853153,0.328609,-0.054790,-0.768388,0.546438,-102.043459,-26.430931,150.325062
05533,NaN,4.241847,-9.206618,-2.281245,0.568451,0.050439,0.561928,0.251852,0.342842,-0.865602,0.332319,-0.051990,-0.767364,0.545906,-101.853682,-26.952820,150.227584
05534,NaN,4.474972,-9.412901,-2.465571,0.652111,0.197291,0.875717,0.229830,0.386850,-0.898371,0.336293,-0.049202,-0.766314,0.545206,-101.663259,-27.500767,150.104081
05535,NaN,4.553571,-9.708257,-2.023661,0.534845,-0.261475,1.083409,0.302964,0.441849,-0.916831,0.340518,-0.046387,-0.764960,0.544731,-101.413947,-28.062126,149.945241
05536,NaN,4.510030,-9.567394,-2.531578,0.933697,0.167673,1.021662,0.365198,0.485025,-0.952710,0.345028,-0.043428,-0.763345,0.544403,-101.114186,-28.650544,149.759325
05537,NaN,4.678403,-9.276055,-2.402170,0.762075,0.241243,0.820415,0.331742,0.511710,-0.971835,0.349656,-0.040541,-0.761758,0.543895,-100.823178,-29.249033,149.554299
05538,NaN,4.610366,-9.824289,-2.430937,1.126498,-0.010508,1.251269,0.211613,0.550091,-1.000991,0.354490,-0.037840,-0.760408,0.542848,-100.585884,-29.869837,149.323452
05539,NaN,4.786365,-10.435742,-2.532924,1.387240,-0.123556,1.861568,0.344444,0.633534,-1.022239,0.359695,-0.035064,-0.758530,0.542238,-100.242202,-30.507583,149.035820
05540,NaN,4.663761,-10.302502,-1.827714,1.165423,-0.700918,1.561910,0.384390,0.701634,-1.049910,0.365241,-0.032280,-0.756391,0.541691,-99.847594,-31.168632,148.699809
05541,NaN,4.621082,-10.514285,-1.432148,1.185450,-1.135776,1.644119,0.376714,0.747551,-1.095078,0.371050,-0.029476,-0.754166,0.541006,-99.437179,-31.855059,148.330790
05542,NaN,4.693284,-10.498861,-1.084645,1.075415,-1.389210,1.604009,0.376333,0.791054,-1.140866,0.377142,-0.026603,-0.751827,0.540196,-99.005049,-32.571354,147.928689
05543,NaN,4.277836,-11.149103,-0.412598,1.367717,-2.396508,1.812996,0.363586,0.803008,-1.190316,0.383377,-0.023613,-0.749471,0.539220,-98.569623,-33.311791,147.514172
05544,NaN,4.360222,-11.236736,-0.319079,1.450291,-2.491814,1.894689,0.402972,0.808209,-1.236619,0.389753,-0.020374,-0.746957,0.538268,-98.101053,-34.078200,147.089810
05545,NaN,4.338621,-11.230483,-0.249002,1.590288,-2.576709,1.842283,0.424659,0.803844,-1.286184,0.396212,-0.016907,-0.744358,0.537272,-97.613809,-34.867373,146.661848
05546,NaN,4.140688,-11.015724,-0.065675,1.700748,-2.744420,1.504061,0.431232,0.798349,-1.336859,0.402773,-0.013213,-0.741704,0.536166,-97.114544,-35.683607,146.229290
05547,NaN,3.940034,-10.988894,-0.060966,1.994132,-2.857479,1.329077,0.401187,0.783146,-1.402967,0.409415,-0.009302,-0.739122,0.534782,-96.630203,-36.531610,145.800352
05548,NaN,3.850175,-10.932776,-0.111760,2.236318,-2.869811,1.192860,0.417021,0.797165,-1.470355,0.416271,-0.005139,-0.736414,0.533280,-96.119174,-37.417203,145.352100
05549,NaN,3.576047,-10.856054,0.026614,2.473767,-3.109713,0.904114,0.385229,0.797811,-1.561039,0.423328,-0.000717,-0.733740,0.531431,-95.616306,-38.349954,144.895396
05550,NaN,3.480118,-11.193677,0.374900,2.653533,-3.619022,1.022814,0.392699,0.854905,-1.659434,0.430828,0.003935,-0.730857,0.529357,-95.069069,-39.339479,144.385729
05551,NaN,2.954819,-11.932187,0.681943,3.324161,-4.466909,1.167564,0.453253,0.915632,-1.658663,0.438499,0.008548,-0.727622,0.527457,-94.439679,-40.326391,143.811251
05552,NaN,1.661178,-12.770301,1.408231,4.252403,-6.029064,0.835633,0.489600,0.921041,-1.672900,0.446190,0.013280,-0.724202,0.525613,-93.762857,-41.316948,143.209089
05553,NaN,0.058453,-14.543897,1.196299,6.400973,-7.436922,0.988887,0.361807,0.863468,-1.750899,0.453836,0.018157,-0.721178,0.523072,-93.168781,-42.344635,142.631726
05554,NaN,-0.658622,-17.219046,-0.802230,9.616848,-7.526997,2.370285,0.086642,0.684051,-1.835810,0.461042,0.023178,-0.719195,0.519289,-92.805681,-43.411351,142.175113
05555,NaN,-1.285703,-18.475576,-3.658679,12.650008,-6.290801,2.708443,0.449836,0.547308,-1.737901,0.467415,0.029043,-0.716539,0.516965,-92.290156,-44.416514,141.805896
05556,NaN,-1.694038,-15.185363,-3.361386,11.187979,-5.180057,-0.181971,1.292546,0.532261,-1.653871,0.473342,0.036597,-0.711671,0.517815,-91.274806,-45.367626,141.420193
05557,NaN,-1.192369,-11.375073,-1.688913,7.987774,-4.441327,-2.732354,1.325398,0.309159,-1.746493,0.478657,0.045146,-0.707151,0.518446,-90.348979,-46.367250,141.190700
05558,NaN,0.381960,-10.487236,-2.046113,7.040012,-3.053363,-2.367851,0.965431,-0.035816,-1.914684,0.483203,0.054296,-0.704264,0.517280,-89.819693,-47.457682,141.226505
05559,NaN,4.636611,-9.999276,-3.452096,5.573499,0.057833,0.303100,1.099016,-0.140734,-1.985897,0.487479,0.064305,-0.701185,0.516304,-89.271462,-48.592739,141.338370
05560,NaN,6.808826,-9.543448,-5.209703,5.462384,2.544771,1.512545,1.556636,-0.174453,-1.869627,0.491108,0.075075,-0.696944,0.517151,-88.471612,-49.658594,141.462785
05561,NaN,7.403380,-8.824427,-3.373465,3.801331,1.670908,1.448539,1.823971,-0.377034,-1.750511,0.493560,0.086624,-0.692448,0.519048,-87.646858,-50.665000,141.751918
05562,NaN,8.746347,-8.851113,-0.321788,1.541511,-0.295252,2.535449,1.448285,-0.692864,-1.812089,0.495150,0.098238,-0.689573,0.519292,-87.254721,-51.712628,142.315783
05563,NaN,6.790283,-10.109736,-1.378198,4.133045,-0.809017,1.697034,1.020629,-0.860341,-1.876826,0.496487,0.109464,-0.688095,0.517730,-87.242008,-52.807164,143.041312
05564,NaN,5.733963,-11.058936,-3.260703,6.520469,-0.112185,1.290398,1.109145,-0.744806,-1.672039,0.497565,0.119865,-0.686129,0.516999,-87.117396,-53.777532,143.680616
05565,NaN,6.589036,-6.009219,-6.417126,4.524653,5.023713,-1.152711,1.611941,-0.936864,-0.964494,0.495815,0.129601,-0.683687,0.519561,-86.896542,-54.354198,144.550589
05566,NaN,1.753263,-4.597853,-6.885904,6.064062,4.436434,-5.917242,0.672753,-0.866176,0.120609,0.492041,0.133077,-0.684170,0.521629,-87.209885,-54.302919,145.412473
05567,NaN,-6.328582,-9.118603,-9.921396,14.683215,2.456375,-9.858797,-0.280889,-0.480105,0.602579,0.488974,0.131577,-0.686489,0.521848,-87.774766,-53.966772,145.913004
05568,NaN,-6.207697,-9.799654,-7.348779,13.717631,0.008877,-9.181542,-0.276039,0.533519,1.150907,0.487910,0.125525,-0.686670,0.524092,-87.559400,-53.286943,145.450127
05569,NaN,-1.630732,-8.786090,-4.225633,9.078508,-0.673298,-5.960694,0.217274,1.436029,1.153251,0.489625,0.118329,-0.683301,0.528551,-86.396009,-52.580448,144.150311
05570,NaN,-0.504572,-8.641898,-0.597982,6.426283,-3.225654,-4.955546,0.308270,1.781779,1.237824,0.492159,0.110101,-0.678842,0.533695,-84.982421,-51.787110,142.584851
05571,NaN,-1.274501,-7.707685,-0.164444,5.894784,-3.464828,-6.030428,0.007975,1.503009,1.272097,0.493802,0.101789,-0.675799,0.537675,-83.995065,-50.975792,141.329207
05572,NaN,-3.027961,-7.394036,-1.397642,7.183503,-3.027241,-7.570969,-0.755674,0.885753,1.409870,0.493296,0.092732,-0.676360,0.539071,-83.924540,-50.109235,140.676981
05573,NaN,-4.096876,-9.015142,-3.083769,9.672378,-2.798957,-7.327916,-1.248128,0.286236,1.581263,0.490519,0.083532,-0.679724,0.538877,-84.557068,-49.188295,140.570800
05574,NaN,-2.872341,-9.728047,-3.704059,9.786829,-2.145359,-5.785729,-1.197340,-0.191487,1.723013,0.485620,0.075203,-0.684130,0.538966,-85.471598,-48.203606,140.874403
05575,NaN,-0.621086,-9.729951,-2.763993,7.962889,-1.993300,-3.870248,-0.993567,-0.588224,1.802971,0.479059,0.068206,-0.688882,0.539715,-86.491970,-47.193558,141.486550
05576,NaN,2.532549,-9.352780,-2.413221,5.686404,-0.783489,-1.642118,-0.865795,-0.869077,2.034272,0.470752,0.061413,-0.693974,0.541314,-87.584243,-46.043506,142.305882
05577,NaN,4.157158,-8.716142,-2.820106,4.440746,0.527870,-0.801502,-0.705463,-0.932290,2.340697,0.461322,0.054150,-0.698744,0.544065,-88.576673,-44.717711,143.134574
05578,NaN,3.798925,-8.425480,-3.250331,4.489997,0.890563,-1.150944,-0.775094,-0.951381,2.522931,0.451211,0.046075,-0.703689,0.546907,-89.575228,-43.268780,143.931586
05579,NaN,3.402422,-8.496811,-3.266080,4.532500,0.749692,-1.249520,-0.876037,-0.983905,2.471407,0.441112,0.038090,-0.708810,0.549143,-90.594158,-41.848508,144.698375
05580,NaN,4.262197,-8.779070,-2.719866,3.592932,0.602499,-0.359778,-0.903501,-0.968110,2.400076,0.431129,0.030188,-0.713844,0.551038,-91.578949,-40.450253,145.406697
05581,NaN,5.466834,-9.684968,-1.694692,2.433335,-0.022922,1.170361,-0.881715,-0.854154,2.437753,0.421421,0.021938,-0.718420,0.552988,-92.450863,-39.033659,145.982863
05582,NaN,6.074034,-10.731470,-0.953638,1.817969,-0.701421,2.400463,-0.757499,-0.660035,2.572883,0.411883,0.012863,-0.722144,0.555602,-93.131080,-37.529675,146.378491
05583,NaN,5.735870,-10.617836,-0.402051,1.339591,-1.152336,2.131667,-0.603113,-0.410189,2.819072,0.402529,0.002581,-0.724773,0.559167,-93.581649,-35.899896,146.556913
05584,NaN,5.061282,-9.232333,0.450826,0.357787,-1.501482,0.611543,-0.615577,-0.201166,3.006646,0.393258,-0.009052,-0.726874,0.562957,-93.939926,-34.160008,146.564698
05585,NaN,4.451128,-8.331035,0.253625,0.214860,-1.172918,-0.439676,-0.926374,-0.071994,3.110667,0.384110,-0.021974,-0.729389,0.565658,-94.412801,-32.375837,146.462167
05586,NaN,3.938502,-9.000925,-0.665895,1.084093,-0.808789,-0.059039,-1.137597,0.005769,3.174768,0.374874,-0.035811,-0.732161,0.567562,-94.975117,-30.549777,146.288571
05587,NaN,3.595972,-9.788090,-1.443215,1.762622,-0.525571,0.552029,-1.088173,0.025450,3.251220,0.365455,-0.049820,-0.734512,0.569607,-95.493695,-28.692393,146.079672
05588,NaN,3.405866,-10.112793,-1.696254,1.823737,-0.419484,0.828390,-1.056378,-0.106278,3.322663,0.355184,-0.063704,-0.736791,0.571774,-96.033573,-26.778602,145.936472
05589,NaN,3.576869,-10.323152,-1.877789,1.512939,-0.151785,1.167429,-1.153352,-0.381051,3.340064,0.343772,-0.076957,-0.739584,0.573511,-96.696448,-24.848755,145.944922
05590,NaN,4.031518,-10.516921,-2.057842,0.947106,0.260461,1.594096,-1.206823,-0.700391,3.307959,0.331075,-0.089305,-0.742868,0.574944,-97.463758,-22.904712,146.128854
05591,NaN,4.784821,-10.519796,-1.943421,-0.101784,0.650179,1.887289,-1.172309,-1.044401,3.257484,0.317218,-0.100329,-0.746389,0.576377,-98.270760,-20.970169,146.495356
05592,NaN,5.916908,-10.775042,-1.731111,-1.483245,1.069050,2.465270,-1.167238,-1.348311,3.171904,0.302306,-0.110177,-0.750184,0.577664,-99.120099,-19.043136,147.019067
05593,NaN,7.902835,-11.394952,-1.769644,-3.383925,1.999894,3.602220,-1.115539,-1.545607,3.065378,0.286955,-0.118880,-0.753927,0.578893,-99.948872,-17.160488,147.634486
05594,NaN,10.568394,-11.784919,-1.805086,-5.956181,3.331726,4.582827,-1.027609,-1.566408,2.990489,0.271639,-0.127134,-0.757258,0.580180,-100.707256,-15.300447,148.237115
05595,NaN,12.993373,-11.328429,-1.876760,-8.466230,4.813802,4.533198,-0.882345,-1.389180,2.984240,0.257087,-0.135586,-0.759692,0.581714,-101.328356,-13.466052,148.708849
05596,NaN,14.818383,-9.651343,-1.769870,-10.657129,6.202564,2.985424,-0.782087,-1.087602,2.961688,0.243683,-0.144713,-0.761257,0.583236,-101.838097,-11.666034,148.987874
05597,NaN,16.060927,-7.960349,-2.128575,-11.986700,7.677777,1.286788,-0.883930,-0.723506,2.843625,0.231932,-0.154489,-0.762563,0.583813,-102.355574,-9.982074,149.055366
05598,NaN,17.358324,-7.011198,-2.394874,-13.258836,8.912998,0.234441,-0.975833,-0.317416,2.677787,0.222042,-0.164933,-0.763632,0.583404,-102.890366,-8.434140,148.897991
05599,NaN,17.791039,-5.980227,-2.128159,-13.963266,9.329425,-1.164832,-0.882219,0.144732,2.491996,0.214543,-0.175838,-0.763915,0.582654,-103.339435,-7.058353,148.491885
05600,NaN,18.007752,-4.343658,-0.755221,-14.938767,8.921673,-3.414250,-1.075242,0.490629,2.234984,0.208870,-0.186977,-0.764495,0.580483,-103.891612,-5.870801,147.915958
05601,NaN,17.650178,-4.124057,-0.321293,-14.885171,8.632339,-4.108106,-1.243311,0.774977,2.068680,0.204613,-0.198421,-0.765291,0.577142,-104.534977,-4.826754,147.193619
05602,NaN,17.183312,-3.681881,1.247722,-15.306002,7.444276,-5.265359,-1.344963,0.951198,1.766862,0.201744,-0.209311,-0.766390,0.572830,-105.246089,-3.981235,146.406760
05603,NaN,17.010725,-4.579977,2.299804,-15.801654,6.495458,-4.940434,-1.414263,1.041256,1.416868,0.200148,-0.219140,-0.767850,0.567737,-106.004013,-3.355979,145.614093
05604,NaN,16.971903,-5.714327,3.500656,-16.547173,5.448254,-4.385444,-1.134225,1.124007,1.069359,0.200127,-0.227574,-0.768738,0.563205,-106.611125,-2.943372,144.824966
05605,NaN,16.654826,-5.459375,5.197890,-17.195562,4.228138,-5.269894,-0.764929,1.111322,0.717031,0.201469,-0.234223,-0.768933,0.559725,-107.011726,-2.730082,144.097792
05606,NaN,15.885998,-6.364751,6.893187,-17.651499,2.415962,-5.019285,-0.801602,0.928932,0.235244,0.203404,-0.238534,-0.769949,0.555794,-107.444793,-2.755340,143.551052
05607,NaN,18.753068,-9.980357,2.969290,-18.165220,6.228045,-0.255648,-0.496566,0.806379,-0.293696,0.206696,-0.240150,-0.770840,0.552639,-107.707958,-3.051076,143.162924
05608,NaN,19.108164,-6.690003,13.778968,-24.244768,-0.710075,-6.434391,1.351059,0.663509,-0.652351,0.212649,-0.238059,-0.767177,0.556370,-106.918675,-3.519123,142.913015
05609,NaN,19.369271,-2.814153,7.494970,-20.222489,5.196662,-7.995525,0.163663,-0.253842,-1.302285,0.215454,-0.232182,-0.768515,0.555927,-106.847318,-4.186701,143.271750
05610,NaN,3.560522,-6.232201,-4.592272,-0.895368,3.821023,-2.249413,-1.024113,-1.076358,-1.204297,0.213459,-0.225637,-0.773880,0.551935,-107.493639,-4.663844,144.069269
05611,NaN,-20.594484,-14.114195,-17.890543,25.321361,-2.372676,7.409268,-1.781908,-2.633857,-0.922035,0.203739,-0.216677,-0.782533,0.546977,-108.643970,-4.693801,145.675090
05612,NaN,-29.542167,-47.703649,-4.725531,21.300925,-27.761678,34.303762,-2.592637,-3.229798,-0.227777,0.188857,-0.209537,-0.792990,0.539995,-110.267745,-4.199226,147.470862
05613,NaN,17.804802,-37.865743,-15.626927,-11.103357,9.051941,32.492102,2.000249,-2.220679,-3.640372,0.191889,-0.187168,-0.793271,0.546687,-109.285271,-5.727320,149.382826
05614,NaN,22.217776,-10.722053,5.795264,-22.707969,2.970450,1.032248,5.311492,-1.186526,-2.747303,0.199549,-0.167843,-0.782090,0.565989,-106.366634,-7.015418,150.520882
05615,NaN,3.364204,-2.971746,8.771179,-7.365773,-6.480621,-8.905364,2.180086,-0.610573,-1.818061,0.204079,-0.156818,-0.777966,0.573175,-105.197345,-7.918528,151.148278
05616,NaN,2.609255,-0.323198,3.529703,-4.016376,-1.787460,-10.023935,0.599637,-0.250801,-2.271954,0.210055,-0.146625,-0.778223,0.573365,-104.923373,-9.137241,151.632874
05617,NaN,9.262905,-0.796292,1.640943,-8.840375,2.722856,-7.925875,-0.203264,0.152162,-1.683830,0.215281,-0.140722,-0.779845,0.570695,-105.066533,-10.087601,151.802856
05618,NaN,9.567447,-3.514166,-1.218206,-7.572254,4.347639,-4.415809,-0.664732,0.466414,-1.463300,0.220788,-0.137041,-0.782234,0.566199,-105.438419,-10.966255,151.767189
05619,NaN,6.773524,-7.607913,-2.654330,-4.218571,2.851996,-0.599935,-0.705862,0.658296,-1.018787,0.225722,-0.135700,-0.784179,0.561871,-105.800428,-11.625841,151.559228
05620,NaN,4.614017,-11.255088,-1.031212,-2.955541,-0.761473,2.007373,-0.385923,0.931170,-0.641425,0.230900,-0.136216,-0.784626,0.559010,-105.932770,-12.125186,151.139696
05621,NaN,4.850635,-14.205802,-0.654685,-3.157948,-2.029141,4.736226,-0.663505,0.815015,-0.641540,0.235398,-0.136745,-0.785956,0.555123,-106.235673,-12.603597,150.786774
05622,NaN,5.918649,-17.066202,-3.814347,-2.248258,-0.120405,8.511109,-1.177680,0.510431,-0.606044,0.238267,-0.137144,-0.789010,0.549439,-106.866939,-13.019735,150.602816
05623,NaN,3.081819,-14.483643,-3.671733,0.023771,-0.769122,5.424184,0.314487,0.572811,-0.367089,0.241713,-0.136898,-0.787705,0.549868,-106.626206,-13.311533,150.344418
05624,NaN,-0.337941,-8.339213,1.200349,0.093385,-4.082319,-2.435495,0.923134,0.466836,-0.246255,0.244850,-0.136076,-0.784751,0.552900,-106.043222,-13.522057,150.123408
05625,NaN,-0.935122,-5.924953,1.804573,0.172880,-3.987609,-4.985158,-0.006869,0.051920,-0.459991,0.246283,-0.134427,-0.785012,0.552295,-106.056736,-13.779414,150.171152
05626,NaN,1.042680,-7.957419,-2.263655,0.817667,-0.541915,-1.532050,-0.865154,-0.277798,-0.593893,0.246239,-0.132375,-0.788121,0.548370,-106.611450,-14.060756,150.429090
05627,NaN,3.479799,-11.087523,-5.540366,0.704835,2.005109,2.884534,-0.701632,-0.112928,-0.592385,0.246915,-0.130598,-0.790562,0.544967,-107.052864,-14.362712,150.596488
05628,NaN,3.215236,-11.554099,-6.363361,1.435936,2.284890,3.493106,-0.020013,0.246894,-0.537738,0.249331,-0.129154,-0.790650,0.544083,-107.050303,-14.698131,150.552062
05629,NaN,1.512368,-9.344683,-5.347455,2.256902,1.474857,0.719935,0.362999,0.503496,-0.559054,0.253038,-0.127865,-0.789384,0.544514,-106.792576,-15.084362,150.365076
05630,NaN,0.807319,-7.283964,-5.851745,3.051294,2.300173,-1.248282,0.204226,0.544048,-0.677261,0.257145,-0.126399,-0.788557,0.544131,-106.622250,-15.544836,150.173223
05631,NaN,0.593791,-6.971830,-6.418752,3.592864,2.732868,-1.459165,0.020052,0.576094,-0.859883,0.261729,-0.124553,-0.788290,0.542756,-106.559869,-16.107083,149.992807
05632,NaN,1.369048,-7.587723,-6.775250,3.293126,3.106113,-0.600847,0.061658,0.641261,-1.014385,0.267028,-0.122199,-0.787895,0.541281,-106.467652,-16.767683,149.799918
05633,NaN,1.886705,-7.703153,-6.043589,2.587028,2.692330,-0.567127,0.288940,0.675575,-1.118913,0.272852,-0.119235,-0.786873,0.540524,-106.242228,-17.487667,149.602362
05634,NaN,2.429726,-7.395704,-5.074442,1.689360,2.282417,-0.964790,0.405812,0.588442,-1.183797,0.278584,-0.115600,-0.785656,0.540159,-105.964674,-18.231580,149.461973
05635,NaN,2.892974,-7.206905,-4.670089,1.179140,2.239630,-1.111480,0.467889,0.433498,-1.229206,0.283835,-0.111291,-0.784477,0.540045,-105.679820,-18.972759,149.414698
05636,NaN,3.938812,-7.395258,-3.420409,-0.238940,1.668738,-0.921098,0.507190,0.340053,-1.195804,0.288654,-0.106785,-0.783270,0.540152,-105.386761,-19.683706,149.412617
05637,NaN,4.542888,-7.639841,-1.805748,-1.494871,0.577389,-0.885396,0.575782,0.313645,-1.169632,0.293306,-0.102222,-0.781866,0.540563,-105.056893,-20.373409,149.417651
05638,NaN,4.629137,-8.054443,-0.402483,-2.180533,-0.664396,-0.797836,0.548243,0.341168,-1.157686,0.298023,-0.097800,-0.780456,0.540838,-104.734966,-21.063354,149.400482
05639,NaN,4.524946,-8.484914,0.595063,-2.475008,-1.687736,-0.655854,0.472619,0.391772,-1.148030,0.302845,-0.093677,-0.779137,0.540791,-104.443144,-21.752364,149.347502
05640,NaN,3.922135,-9.221145,0.977690,-1.959136,-2.591018,-0.282963,0.390992,0.396933,-1.157617,0.307680,-0.089635,-0.778002,0.540381,-104.195284,-22.449988,149.289203
05641,NaN,3.848936,-10.133148,0.570827,-1.365294,-2.702388,0.610958,0.342052,0.357449,-1.183323,0.312378,-0.085473,-0.777040,0.539743,-103.984439,-23.153368,149.255218
05642,NaN,3.825829,-10.629009,-0.285813,-0.617193,-2.277844,1.238255,0.342749,0.299993,-1.177764,0.316843,-0.081157,-0.776131,0.539115,-103.784755,-23.848344,149.252265
05643,NaN,3.946245,-10.795736,-1.420480,0.122163,-1.431647,1.679577,0.465220,0.267829,-1.170726,0.321184,-0.076601,-0.774910,0.538969,-103.521679,-24.532331,149.264877
05644,NaN,4.157549,-10.302023,-1.991475,0.321338,-0.706833,1.446896,0.562214,0.253376,-1.151366,0.325457,-0.071907,-0.773408,0.539209,-103.203538,-25.206210,149.279653
05645,NaN,4.251192,-10.036039,-2.486458,0.615669,-0.184021,1.348071,0.537210,0.278870,-1.164634,0.329825,-0.067282,-0.771907,0.539303,-102.892770,-25.888308,149.276694
05646,NaN,4.573792,-9.876751,-2.624801,0.551888,0.118774,1.369389,0.526085,0.369207,-1.180984,0.334584,-0.062840,-0.770256,0.539269,-102.561991,-26.593331,149.215319
05647,NaN,4.553602,-9.730844,-2.514737,0.611101,0.058763,1.204107,0.417938,0.454704,-1.204158,0.339669,-0.058731,-0.768729,0.538732,-102.268084,-27.319133,149.098949
05648,NaN,4.548413,-9.912032,-2.584016,0.857405,0.009222,1.362114,0.446931,0.559923,-1.239166,0.345260,-0.054705,-0.766915,0.538186,-101.924444,-28.078882,148.915253
05649,NaN,4.251958,-9.958650,-2.527814,1.219777,-0.216485,1.237506,0.426037,0.602764,-1.271056,0.351062,-0.050719,-0.765055,0.537470,-101.577039,-28.858236,148.702095
05650,NaN,4.338785,-10.075888,-2.620250,1.408235,-0.182188,1.376392,0.447764,0.632285,-1.317188,0.357101,-0.046582,-0.763051,0.536714,-101.204163,-29.667783,148.468508
05651,NaN,4.030000,-10.638149,-2.425333,1.867682,-0.742112,1.643824,0.456359,0.637447,-1.352237,0.363221,-0.042320,-0.760981,0.535899,-100.820491,-30.494111,148.228098
05652,NaN,4.274953,-10.885086,-2.426272,1.949755,-0.765232,1.945583,0.508206,0.647836,-1.383385,0.369464,-0.037859,-0.758709,0.535186,-100.397512,-31.339526,147.975682
05653,NaN,4.201441,-10.990192,-2.309648,2.157810,-0.962897,1.942494,0.554877,0.674018,-1.421501,0.375881,-0.033246,-0.756223,0.534542,-99.933056,-32.205449,147.700618
05654,NaN,4.219206,-10.866230,-1.960526,2.085999,-1.203200,1.759598,0.569222,0.711993,-1.473952,0.382567,-0.028497,-0.753579,0.533806,-99.439733,-33.104375,147.394637
05655,NaN,4.301652,-10.974497,-1.627566,2.065631,-1.503954,1.808859,0.532478,0.778103,-1.535487,0.389621,-0.023770,-0.750860,0.532766,-98.935806,-34.040178,147.038145
05656,NaN,4.270426,-11.077567,-1.324094,2.148418,-1.833830,1.794192,0.534982,0.869830,-1.577037,0.397107,-0.019116,-0.747894,0.531596,-98.383566,-35.006114,146.608253
05657,NaN,3.756894,-11.128341,-0.678304,2.332547,-2.625254,1.415741,0.544737,0.950163,-1.629341,0.404988,-0.014468,-0.744683,0.530305,-97.780761,-36.003115,146.110667
05658,NaN,3.362623,-11.131812,-0.449981,2.664644,-3.021718,1.104814,0.472939,0.982798,-1.702431,0.413146,-0.009771,-0.741524,0.528543,-97.190162,-37.040985,145.577154
05659,NaN,2.914516,-11.509693,-0.419418,3.305192,-3.464191,1.059944,0.422299,1.006146,-1.771813,0.421521,-0.004989,-0.738379,0.526394,-96.602021,-38.114282,145.012302
05660,NaN,2.379446,-11.797948,-0.073486,3.763397,-4.159328,0.835835,0.415433,1.018902,-1.836550,0.430073,-0.000011,-0.735143,0.524025,-95.991842,-39.221339,144.420120
05661,NaN,1.794984,-12.353660,-0.089062,4.599331,-4.723815,0.787749,0.454584,1.041832,-1.920821,0.438872,0.005296,-0.731670,0.521557,-95.327591,-40.371706,143.791945
05662,NaN,0.834514,-12.949733,-0.071748,5.670033,-5.506240,0.479199,0.528155,1.072044,-2.022116,0.447991,0.011058,-0.727838,0.519070,-94.580377,-41.575727,143.117250
05663,NaN,0.136406,-13.539803,-0.106498,6.610491,-6.138826,0.285079,0.476288,1.103575,-2.162746,0.457524,0.017129,-0.723960,0.516004,-93.818636,-42.854260,142.392290
05664,NaN,-1.720781,-14.729056,-1.191639,9.187038,-6.795164,-0.286948,0.328119,1.151902,-2.296191,0.467517,0.023216,-0.720223,0.512023,-93.080209,-44.203401,141.596284
05665,NaN,-2.277054,-15.967542,-1.633610,10.627679,-7.415208,-0.072626,0.387838,1.239302,-2.438494,0.478098,0.029728,-0.715988,0.507838,-92.216398,-45.628362,140.690087
05666,NaN,-2.310479,-17.708174,-2.287333,12.220655,-7.911010,0.779865,0.363930,1.088163,-2.517984,0.488249,0.036839,-0.712024,0.503267,-91.402902,-47.085465,139.856985
05667,NaN,-0.579315,-18.695630,-4.078322,13.311632,-6.407201,2.361935,0.717926,0.787212,-2.458300,0.497027,0.045359,-0.707787,0.499945,-90.522142,-48.497906,139.225603
05668,NaN,1.582181,-15.623527,-4.460955,11.069053,-3.687508,1.604869,1.474750,0.381683,-2.222750,0.503512,0.055918,-0.702590,0.499716,-89.425189,-49.765885,138.894862
05669,NaN,4.296757,-10.969327,-3.804907,6.895998,-0.687039,0.445530,1.819597,0.064051,-2.046384,0.508259,0.067523,-0.697253,0.500951,-88.312629,-50.934070,138.806183
05670,NaN,7.222910,-9.273548,-0.014947,2.327075,-1.527338,1.607196,2.078406,-0.100935,-2.021766,0.512171,0.080082,-0.691558,0.503006,-87.139052,-52.087993,138.830329
05671,NaN,9.403646,-7.409785,0.588007,0.050544,-0.236703,2.171253,1.827024,-0.002694,-1.819712,0.515929,0.091054,-0.686193,0.504644,-86.015528,-53.125623,138.735934
05672,NaN,7.312708,-7.800141,0.449061,1.561241,-1.172674,0.708880,1.312215,-0.040890,-1.645435,0.519269,0.100167,-0.682212,0.504889,-85.200386,-54.061679,138.659278
05673,NaN,6.675086,-8.562175,-2.777791,4.486493,0.744742,0.429274,1.012147,-0.265917,-1.738420,0.522182,0.109392,-0.679451,0.503692,-84.713879,-55.064145,138.776014
05674,NaN,5.429811,-3.850612,-8.297861,5.208613,6.895245,-3.608646,1.179739,-0.678279,-0.697517,0.520928,0.116530,-0.677862,0.505527,-84.545798,-55.492654,139.395752
05675,NaN,-0.066948,-2.170963,-7.949000,6.164294,5.410715,-9.019942,0.043742,-1.442899,0.598322,0.514448,0.118262,-0.681848,0.506399,-85.758145,-55.217793,140.901872
05676,NaN,-12.177251,-6.844943,-10.752503,16.413667,1.226512,-16.122849,-1.905379,-2.081617,1.620594,0.504259,0.113075,-0.692910,0.502805,-88.606111,-54.343007,143.053014
05677,NaN,-13.473983,-12.123878,-10.818132,20.700597,-1.711955,-13.566863,-1.803599,-1.043487,2.013479,0.496513,0.104165,-0.701150,0.501012,-90.470821,-53.190819,144.085620
05678,NaN,-3.955335,-10.620552,-7.252876,13.025374,-0.580314,-6.489313,0.214923,0.312272,1.920934,0.492604,0.097155,-0.700823,0.506705,-90.110310,-52.084121,143.788108
05679,NaN,1.838617,-6.855823,-0.471744,3.704031,-2.079185,-4.106577,1.181606,1.237834,2.188792,0.490738,0.089251,-0.695785,0.516811,-88.563772,-50.818504,142.678579
05680,NaN,3.169417,-6.433401,4.426302,-0.193412,-5.179576,-3.167607,0.251687,1.248204,2.083317,0.489490,0.079365,-0.692970,0.523349,-87.613751,-49.594385,141.630717
05681,NaN,3.471572,-8.770777,0.828507,3.101438,-3.114597,-1.425718,-1.495622,0.727278,1.885388,0.487595,0.067264,-0.695805,0.523051,-88.040238,-48.495834,141.062994
05682,NaN,3.328664,-12.547013,-2.994547,7.548474,-1.842960,1.008140,-1.850575,0.295089,1.914854,0.484134,0.055289,-0.700525,0.521366,-88.949137,-47.387282,140.859909
05683,NaN,3.514944,-11.091801,-3.022775,6.388896,-1.096442,0.311287,-0.866195,0.284640,2.104542,0.479817,0.045076,-0.702637,0.523494,-89.293340,-46.175759,140.653513
05684,NaN,2.782920,-8.167413,-0.180229,3.162790,-2.265880,-2.109226,-0.712064,0.113911,2.109619,0.474764,0.035629,-0.704676,0.526080,-89.649940,-44.958759,140.582183
05685,NaN,3.546860,-7.880749,0.587463,1.923921,-2.344331,-1.699083,-1.179684,-0.198312,2.081591,0.468731,0.026014,-0.708577,0.526815,-90.437523,-43.762611,140.744279
05686,NaN,5.003285,-9.776465,-0.717160,2.715402,-1.483400,0.748862,-1.278574,-0.420608,2.118631,0.461727,0.016590,-0.713166,0.527188,-91.381222,-42.537125,141.053612
05687,NaN,6.127683,-10.857144,-1.493581,2.856838,-0.790293,2.388297,-0.725049,-0.404495,2.123751,0.454681,0.008408,-0.716146,0.529461,-91.973787,-41.310548,141.321228
05688,NaN,6.260261,-9.736856,-1.013711,1.676836,-0.510426,1.674162,-0.401550,-0.336509,2.007545,0.448091,0.001169,-0.718034,0.532578,-92.335392,-40.145779,141.523479
05689,NaN,5.856316,-8.813639,-1.008535,1.267194,-0.219626,0.738906,-0.535591,-0.362372,1.870401,0.441755,-0.005781,-0.720252,0.534842,-92.775175,-39.062386,141.734603
05690,NaN,5.355576,-8.992410,-1.093229,1.511893,-0.402984,0.593506,-0.620053,-0.403706,1.867811,0.435203,-0.012826,-0.722725,0.536752,-93.271907,-37.973360,141.962438
05691,NaN,4.429939,-9.214019,-0.734704,1.758423,-1.152438,0.219181,-0.538935,-0.422202,1.950607,0.428348,-0.019914,-0.724930,0.539071,-93.713867,-36.839493,142.184420
05692,NaN,3.448918,-9.257006,-0.167505,1.839677,-2.010492,-0.316106,-0.461024,-0.495305,2.041399,0.420916,-0.026993,-0.727000,0.541823,-94.129124,-35.644979,142.440736
05693,NaN,2.730928,-9.122541,-0.121992,2.024695,-2.269556,-0.788310,-0.512341,-0.619647,2.180257,0.412624,-0.034316,-0.729351,0.544620,-94.604366,-34.368740,142.760356
05694,NaN,1.807934,-9.018724,-0.205519,2.445521,-2.548925,-1.317608,-0.557995,-0.714258,2.356049,0.403411,-0.042141,-0.731891,0.547558,-95.121311,-32.980636,143.116929
05695,NaN,1.421745,-8.458567,-0.397642,2.416247,-2.298085,-1.900472,-0.598302,-0.720752,2.503132,0.393722,-0.050531,-0.734391,0.550544,-95.638784,-31.510357,143.447410
05696,NaN,1.617257,-7.877456,-0.833384,2.149732,-1.562308,-2.177380,-0.662923,-0.701029,2.653256,0.383572,-0.059675,-0.736860,0.553488,-96.164572,-29.948377,143.734099
05697,NaN,1.895356,-7.736323,-1.489127,2.111753,-0.783365,-2.029208,-0.726129,-0.686085,2.808995,0.372976,-0.069512,-0.739265,0.556367,-96.697710,-28.301303,143.978073
05698,NaN,2.474671,-7.926362,-2.371348,2.079027,0.211351,-1.434062,-0.800886,-0.694928,2.979228,0.361729,-0.080106,-0.741666,0.559167,-97.255126,-26.549961,144.193193
05699,NaN,3.114796,-8.503860,-2.816108,1.786636,0.776443,-0.531260,-0.905425,-0.715930,3.161835,0.349784,-0.091456,-0.744119,0.561759,-97.854354,-24.696371,144.383021
05700,NaN,4.416448,-9.069662,-2.751008,0.610140,1.325057,0.540710,-1.002021,-0.740858,3.298528,0.337184,-0.103417,-0.746608,0.564082,-98.495837,-22.756614,144.551618
05701,NaN,6.169703,-9.329389,-2.520470,-1.156725,2.118579,1.395121,-1.091070,-0.752340,3.418516,0.324078,-0.115879,-0.749058,0.566090,-99.170352,-20.751145,144.689213
05702,NaN,8.088200,-9.341426,-2.136443,-3.254170,2.992198,1.921248,-1.124569,-0.715750,3.492047,0.310739,-0.128763,-0.751247,0.567882,-99.841796,-18.701537,144.770805
05703,NaN,9.997011,-9.991813,-1.582603,-5.394805,3.546162,2.859291,-1.228550,-0.712336,3.489255,0.297274,-0.141734,-0.753458,0.569070,-100.560078,-16.657762,144.823446
05704,NaN,11.965383,-10.857269,-1.229320,-7.502201,4.256334,3.903486,-1.157910,-0.632606,3.468038,0.284088,-0.154723,-0.755103,0.570240,-101.218350,-14.629857,144.805973
05705,NaN,13.743846,-10.398102,-0.464823,-9.860399,4.989444,3.418952,-1.006642,-0.501130,3.441560,0.271523,-0.167694,-0.755894,0.571646,-101.767026,-12.636356,144.693747
05706,NaN,15.065211,-9.049714,0.332396,-11.854497,5.718600,1.836627,-0.927524,-0.336404,3.336684,0.259837,-0.180600,-0.756085,0.572891,-102.255145,-10.718802,144.482540
05707,NaN,16.282377,-7.945345,0.619438,-13.333442,6.706139,0.475472,-1.019565,-0.159477,3.161427,0.249187,-0.193397,-0.756246,0.573232,-102.785534,-8.926698,144.176965
05708,NaN,17.145781,-7.467655,0.593603,-14.244965,7.556587,-0.323243,-1.024510,0.022554,2.899563,0.239888,-0.205697,-0.756255,0.572905,-103.316868,-7.304579,143.787684
05709,NaN,17.572683,-6.590350,0.727433,-14.807214,8.129148,-1.602715,-0.969781,0.155979,2.615303,0.231931,-0.217178,-0.756075,0.572183,-103.820506,-5.864855,143.348667
05710,NaN,18.028965,-5.554254,1.209819,-15.505996,8.471534,-3.094222,-1.012995,0.203791,2.284121,0.225002,-0.227566,-0.756190,0.570758,-104.360637,-4.618347,142.917284
05711,NaN,18.924479,-4.921613,1.820881,-16.593613,8.856035,-4.166115,-1.074119,0.243518,1.891360,0.219255,-0.236610,-0.756775,0.568537,-104.945153,-3.601121,142.509345
05712,NaN,19.822620,-4.904302,2.766990,-17.904217,8.827153,-4.698356,-1.042577,0.300908,1.433562,0.215038,-0.244030,-0.757675,0.565806,-105.520040,-2.849370,142.128796
05713,NaN,20.070765,-5.214040,3.756539,-18.746030,8.281044,-4.899464,-0.905599,0.385076,0.906191,0.212789,-0.249524,-0.758691,0.562892,-106.021103,-2.405531,141.777126
05714,NaN,19.837337,-6.348205,5.207610,-19.595090,6.875611,-4.363280,-0.834134,0.480709,0.311916,0.212661,-0.252945,-0.760121,0.559473,-106.484824,-2.307633,141.464589
05715,NaN,22.726468,-9.996317,1.044038,-19.821874,10.932551,0.438154,-0.610710,0.747459,-0.388932,0.215780,-0.254207,-0.761507,0.555810,-106.818170,-2.639677,141.119894
05716,NaN,22.142167,-5.795018,10.946692,-24.722330,4.435571,-6.234108,1.460357,0.859089,-0.600806,0.222547,-0.252715,-0.757248,0.559628,-105.961034,-3.106573,140.746535
05717,NaN,21.974674,-2.644412,7.886260,-22.226259,7.422993,-8.093158,0.338009,0.292948,-1.258884,0.227566,-0.248390,-0.757541,0.559149,-105.767975,-3.842127,140.784456
05718,NaN,9.238782,-2.902165,-2.731315,-5.808634,7.060789,-5.612552,-0.492906,-0.395430,-1.234939,0.228891,-0.243148,-0.760877,0.556376,-106.078186,-4.459349,141.199766
05719,NaN,-12.672459,-7.928720,-15.278833,18.338693,1.312127,1.089821,-1.506004,-1.677149,-0.935496,0.223231,-0.236633,-0.768058,0.551598,-107.025536,-4.695220,142.279093
05720,NaN,-36.558273,-32.665434,-8.709570,30.186656,-24.773750,21.080557,-2.123765,-2.807948,0.374111,0.208853,-0.232648,-0.776481,0.547114,-108.352457,-4.000795,143.753078
05721,NaN,6.286474,-49.295474,-10.844013,-4.989580,-3.367641,40.691520,-1.261618,-3.166565,-3.652294,0.204983,-0.211058,-0.787235,0.541939,-109.270488,-5.392543,146.155156
05722,NaN,28.541690,-21.809364,-3.365889,-23.678163,11.354201,14.923758,5.836599,-1.661070,-3.372710,0.213595,-0.187172,-0.776201,0.562899,-106.085758,-6.942114,147.659267
05723,NaN,7.632481,-4.669716,9.933884,-11.927534,-5.292892,-6.908413,3.913381,-0.857097,-1.909159,0.219215,-0.173131,-0.767691,0.576733,-103.940535,-7.867278,148.425467
05724,NaN,-0.762699,0.510082,3.887648,-1.436603,-3.410291,-11.316566,1.487721,-0.279733,-2.331618,0.226113,-0.161716,-0.765645,0.580094,-103.156344,-9.127025,148.901802
05725,NaN,7.014466,2.551846,2.251062,-7.184969,2.442502,-11.599038,-0.026939,0.128298,-1.655542,0.231340,-0.155778,-0.766883,0.578018,-103.194933,-10.063329,149.050845
05726,NaN,10.386193,0.156076,1.368474,-9.494234,4.190446,-8.374775,-0.969391,0.490648,-1.595758,0.237050,-0.152179,-0.770317,0.572067,-103.737296,-11.016608,148.991683
05727,NaN,7.682252,-5.444238,-2.956931,-4.631808,4.592612,-2.406485,-1.385547,0.673725,-1.382427,0.242496,-0.150419,-0.774486,0.564571,-104.493252,-11.874823,148.809116
05728,NaN,4.552039,-11.211914,-2.260195,-2.090661,0.492368,2.308426,-1.083138,1.033833,-0.818229,0.247970,-0.151463,-0.776871,0.558606,-105.014247,-12.477969,148.347537
05729,NaN,4.571886,-14.766180,-0.614505,-2.808780,-2.093551,5.255372,-0.610784,1.088384,-0.692010,0.253625,-0.152573,-0.777726,0.554561,-105.250228,-13.019390,147.838707
05730,NaN,5.491286,-18.351323,-3.343107,-1.838630,-0.878886,9.524890,-1.411299,0.566647,-0.696336,0.256659,-0.153207,-0.781418,0.547758,-106.008646,-13.489951,147.630097
05731,NaN,4.304864,-16.458609,-5.833145,0.524004,0.952504,8.138925,0.111490,0.489644,-0.454045,0.259864,-0.152635,-0.780822,0.547257,-105.895445,-13.813039,147.428276
05732,NaN,1.906959,-8.490348,0.115490,-1.198040,-2.065024,-1.443982,1.149997,0.522205,-0.184643,0.263265,-0.151833,-0.777115,0.551117,-105.170336,-13.993884,147.162660
05733,NaN,-0.035216,-5.361134,2.745503,-1.255168,-4.006640,-5.493875,0.258256,0.264657,-0.331016,0.265365,-0.150939,-0.776299,0.551506,-104.996841,-14.212354,147.064840
05734,NaN,0.889728,-7.036449,0.250022,-0.458708,-2.194371,-3.079215,-0.824817,-0.125312,-0.551186,0.265756,-0.149535,-0.779138,0.547683,-105.506421,-14.496813,147.224236
05735,NaN,2.414655,-9.927212,-3.931642,0.875474,0.726948,1.075013,-0.856186,-0.198757,-0.497058,0.265664,-0.148194,-0.782104,0.543852,-106.044619,-14.735779,147.419716
05736,NaN,3.587684,-10.969730,-5.778628,1.047234,2.295606,2.845593,-0.364614,0.043707,-0.437168,0.266735,-0.147076,-0.783350,0.541833,-106.263663,-14.981837,147.469000
05737,NaN,3.013181,-10.593214,-5.856098,1.575245,2.145293,2.373588,-0.035679,0.320344,-0.415271,0.269052,-0.146369,-0.783318,0.540926,-106.253375,-15.257484,147.357660
05738,NaN,1.660646,-9.481348,-4.987153,2.168144,1.165044,0.745091,0.244086,0.575686,-0.474864,0.272750,-0.145726,-0.782218,0.540839,-106.045153,-15.608974,147.109596
05739,NaN,0.762898,-7.513144,-5.226640,2.979168,1.594575,-1.272873,0.200371,0.647494,-0.627029,0.277085,-0.144754,-0.781237,0.540314,-105.856112,-16.052209,146.843660
05740,NaN,0.529047,-7.340855,-5.595431,3.452648,1.781965,-1.423416,0.051835,0.669822,-0.854983,0.282026,-0.143141,-0.780770,0.538860,-105.755653,-16.626342,146.600064
05741,NaN,0.904326,-7.953849,-5.592098,3.292500,1.696240,-0.777525,0.102893,0.664064,-0.996419,0.287336,-0.140897,-0.780251,0.537396,-105.631085,-17.274746,146.380810
05742,NaN,1.728915,-8.103589,-4.908095,2.347545,1.510629,-0.595722,0.267120,0.597470,-1.107724,0.292804,-0.137785,-0.779435,0.536435,-105.425838,-17.975985,146.215260
05743,NaN,2.483726,-7.949753,-4.125087,1.375687,1.341163,-0.719206,0.367131,0.459129,-1.156487,0.297907,-0.133973,-0.778555,0.535869,-105.188409,-18.680421,146.134533
05744,NaN,3.195260,-7.809582,-3.445704,0.501011,1.228732,-0.795471,0.474834,0.328858,-1.192427,0.302671,-0.129494,-0.777570,0.535729,-104.913578,-19.387105,146.132050
05745,NaN,3.991975,-7.877311,-2.370688,-0.654565,0.783988,-0.726228,0.578135,0.263101,-1.211368,0.307271,-0.124615,-0.776386,0.535985,-104.592544,-20.092573,146.167303
05746,NaN,4.576254,-7.944380,-1.240946,-1.676072,0.182336,-0.715897,0.522084,0.211085,-1.172914,0.311530,-0.119815,-0.775374,0.536086,-104.311186,-20.771485,146.223698
05747,NaN,4.769713,-8.310293,-0.601235,-2.051432,-0.377600,-0.441429,0.450329,0.236572,-1.140318,0.315731,-0.115328,-0.774464,0.535928,-104.063426,-21.434054,146.256897
05748,NaN,4.665016,-8.558271,-0.178883,-2.077809,-0.883431,-0.329044,0.410458,0.282333,-1.103992,0.319991,-0.111151,-0.773538,0.535622,-103.825376,-22.084920,146.254413
05749,NaN,4.400962,-8.847004,-0.031221,-1.804695,-1.279197,-0.182293,0.369402,0.346194,-1.082768,0.324394,-0.107301,-0.772580,0.535140,-103.594143,-22.730576,146.207484
05750,NaN,4.161314,-9.423719,-0.198584,-1.300679,-1.543766,0.291087,0.292225,0.365545,-1.090611,0.328852,-0.103582,-0.771774,0.534315,-103.401027,-23.385057,146.147101
05751,NaN,4.090282,-10.119064,-0.927823,-0.545113,-1.351517,1.043721,0.291597,0.357712,-1.087884,0.333248,-0.099861,-0.770955,0.533481,-103.208681,-24.034762,146.088457
05752,NaN,3.932353,-10.382101,-1.566666,0.148031,-1.096332,1.344398,0.351232,0.323444,-1.079079,0.337520,-0.095969,-0.770001,0.532887,-102.988071,-24.676868,146.046579
05753,NaN,3.946931,-10.215229,-2.197894,0.620026,-0.578047,1.324633,0.389421,0.279753,-1.069852,0.341593,-0.091940,-0.768990,0.532461,-102.755164,-25.306125,146.027423
05754,NaN,4.239685,-10.020781,-2.344804,0.574253,-0.272238,1.299638,0.384210,0.280237,-1.078137,0.345688,-0.087875,-0.767968,0.531980,-102.523688,-25.941861,146.006064
05755,NaN,4.448224,-10.043594,-2.554378,0.682149,-0.054337,1.444111,0.357256,0.341822,-1.100577,0.350043,-0.083942,-0.766896,0.531314,-102.290942,-26.595791,145.946503
05756,NaN,4.424000,-10.105616,-2.498606,0.813612,-0.170903,1.467624,0.383495,0.422991,-1.118056,0.354765,-0.080098,-0.765588,0.530661,-102.018445,-27.270834,145.834599
05757,NaN,4.357707,-10.107578,-2.415201,0.949625,-0.302875,1.411866,0.378866,0.499666,-1.149141,0.359835,-0.076354,-0.764140,0.529885,-101.725221,-27.970073,145.673998
05758,NaN,4.499495,-10.159313,-2.525152,1.076080,-0.207548,1.528847,0.384788,0.580754,-1.193848,0.365330,-0.072630,-0.762511,0.528994,-101.402078,-28.704619,145.462036
05759,NaN,4.476284,-10.273648,-2.602843,1.328903,-0.246201,1.612324,0.408249,0.640062,-1.226631,0.371117,-0.068902,-0.760689,0.528088,-101.043846,-29.461407,145.209759
05760,NaN,4.058800,-10.614422,-2.454132,1.793614,-0.749002,1.649513,0.452447,0.661519,-1.268062,0.377101,-0.064977,-0.758680,0.527235,-100.648746,-30.243927,144.940913
05761,NaN,4.126529,-10.724229,-2.329949,1.870130,-0.890553,1.727362,0.517802,0.680950,-1.310464,0.383260,-0.060825,-0.756435,0.526515,-100.205024,-31.049058,144.655779
05762,NaN,4.207970,-10.710524,-2.177942,1.890908,-0.988491,1.702961,0.587580,0.702710,-1.338977,0.389582,-0.056477,-0.753923,0.525962,-99.706332,-31.871821,144.349202
05763,NaN,4.223259,-10.265809,-1.550896,1.512916,-1.281431,1.218820,0.629752,0.716513,-1.381377,0.396044,-0.051927,-0.751236,0.525449,-99.171524,-32.716025,144.026731
05764,NaN,4.435175,-10.072412,-0.960540,1.100212,-1.562059,1.068195,0.552310,0.750260,-1.417536,0.402688,-0.047472,-0.748640,0.524525,-98.659510,-33.582459,143.672796
05765,NaN,4.429853,-10.181133,-0.460602,0.995708,-2.020173,1.069214,0.540083,0.794543,-1.451111,0.409545,-0.043037,-0.745943,0.523441,-98.128035,-34.467605,143.279043
05766,NaN,4.161730,-9.991153,-0.005391,0.983934,-2.441618,0.685445,0.511481,0.852117,-1.476210,0.416653,-0.038707,-0.743147,0.522144,-97.577712,-35.369548,142.833190
05767,NaN,3.842773,-10.010196,0.249299,1.203862,-2.834676,0.460858,0.454325,0.895389,-1.509246,0.423955,-0.034490,-0.740360,0.520518,-97.029644,-36.288712,142.344520
05768,NaN,3.357864,-10.264385,0.156604,1.843812,-3.165408,0.347784,0.397385,0.902021,-1.558225,0.431372,-0.030221,-0.737652,0.518532,-96.496882,-37.233427,141.838281
05769,NaN,3.002310,-10.640279,0.348820,2.258943,-3.708712,0.360351,0.379177,0.885042,-1.633149,0.438873,-0.025674,-0.734977,0.516275,-95.968724,-38.214955,141.332943
05770,NaN,2.583595,-11.315633,-0.054410,3.241525,-3.996610,0.591035,0.328470,0.875213,-1.724878,0.446534,-0.020869,-0.732396,0.513585,-95.459137,-39.245368,140.822682
05771,NaN,1.887472,-12.337059,-0.363715,4.493300,-4.666278,0.861069,0.425482,0.913338,-1.837747,0.454582,-0.015534,-0.729420,0.510941,-94.860803,-40.337452,140.271373
05772,NaN,0.596346,-13.225169,-0.395640,5.864955,-5.774739,0.563526,0.478260,0.984651,-1.955993,0.463148,-0.009826,-0.726067,0.508157,-94.175882,-41.496006,139.647315
05773,NaN,-1.588698,-15.069345,-0.851632,8.460346,-7.497797,0.313045,0.257473,1.023039,-2.168665,0.472316,-0.003956,-0.723103,0.504007,-93.576240,-42.771749,138.975953
05774,NaN,-3.174889,-18.665362,-2.853565,12.601429,-8.747973,1.644883,0.016248,0.983590,-2.405481,0.481862,0.002301,-0.720729,0.498351,-93.110035,-44.177006,138.315000
05775,NaN,-1.214330,-21.118560,-4.688479,14.273333,-7.916875,4.435772,0.462795,0.892865,-2.427258,0.491046,0.009937,-0.717341,0.494163,-92.403880,-45.587184,137.692522
05776,NaN,0.029110,-18.681683,-4.670285,12.741243,-6.183907,3.234034,1.279869,0.615599,-2.169141,0.498473,0.019333,-0.712503,0.493446,-91.346066,-46.836739,137.245801
05777,NaN,-0.058515,-13.958740,-3.681687,9.962071,-4.485451,-0.377084,1.663068,0.184003,-2.046141,0.503938,0.030311,-0.707689,0.494271,-90.298467,-48.007024,137.119499
05778,NaN,2.905320,-10.378828,-4.269508,7.215568,-0.833099,-0.778034,1.653151,-0.119385,-2.121295,0.508424,0.042267,-0.703525,0.494743,-89.427109,-49.218032,137.223026
05779,NaN,5.090725,-8.771735,-4.558540,5.652389,1.192769,-0.311986,1.734309,-0.314470,-1.933877,0.511656,0.054253,-0.699574,0.495843,-88.626254,-50.325604,137.477837
05780,NaN,6.735356,-9.660362,-0.596486,2.990872,-1.499422,1.494116,2.026965,-0.332767,-1.820777,0.514369,0.066619,-0.694849,0.498168,-87.659639,-51.369818,137.731170
05781,NaN,7.478475,-8.337358,0.032015,1.684124,-1.020215,1.212669,1.822850,-0.258243,-1.718093,0.517068,0.077914,-0.690355,0.499981,-86.744800,-52.357006,137.898089
05782,NaN,5.590224,-10.163127,0.675537,3.496219,-3.202358,0.794516,1.323161,-0.175979,-1.693626,0.520109,0.087608,-0.686812,0.500102,-86.041613,-53.327184,137.969111
05783,NaN,5.241603,-7.204955,-4.723385,5.292498,2.301950,-1.543132,1.575362,-0.482325,-1.326669,0.521015,0.097463,-0.683517,0.501845,-85.440445,-54.102573,138.345184
05784,NaN,1.691535,-2.001634,-6.938631,4.795754,5.201768,-7.586960,0.997014,-1.014009,0.244280,0.516396,0.101758,-0.683769,0.505411,-85.686080,-54.003280,139.356205
05785,NaN,-7.032682,-3.786881,-8.538209,10.824403,2.380803,-13.535293,-0.647392,-1.873945,1.290507,0.506986,0.100404,-0.690862,0.505563,-87.576321,-53.324955,141.244228
05786,NaN,-12.676299,-7.622611,-9.401114,16.576432,-0.778249,-15.449359,-1.290590,-1.549800,1.818455,0.497593,0.094750,-0.698914,0.504918,-89.523788,-52.300785,142.762244
05787,NaN,-6.741553,-8.516646,-6.952197,12.859344,-0.972141,-9.835213,-0.904002,-0.683471,1.858926,0.490875,0.087726,-0.703745,0.506053,-90.540401,-51.232065,143.399177
05788,NaN,0.277915,-7.883743,-3.636609,6.895637,-0.697309,-4.576518,-0.270400,0.165246,2.044681,0.486327,0.079431,-0.704897,0.510193,-90.569188,-50.055889,143.237636
05789,NaN,2.544286,-8.602276,0.493402,3.569904,-3.374910,-2.290799,0.037870,0.752698,2.042321,0.483690,0.070401,-0.703748,0.515584,-90.037821,-48.884590,142.569342
05790,NaN,3.308202,-9.790782,-0.457619,4.327486,-2.771335,-0.834794,-0.686892,0.716602,1.830980,0.481657,0.060432,-0.704405,0.517849,-89.972488,-47.829756,141.956820
05791,NaN,2.785317,-12.557704,-3.327628,7.807032,-1.969624,0.755774,-1.288720,0.504079,1.804797,0.479082,0.049664,-0.707035,0.517798,-90.395918,-46.793206,141.530631
05792,NaN,1.594318,-12.755003,-3.826299,8.666880,-2.169128,0.189643,-0.754636,0.418972,2.102391,0.475226,0.039320,-0.708475,0.520267,-90.570286,-45.584659,141.174544
05793,NaN,1.148669,-9.851744,-1.193999,5.477212,-3.025329,-2.025135,-0.420344,0.285371,2.067690,0.470878,0.030253,-0.709263,0.523741,-90.636662,-44.398310,140.930169
05794,NaN,2.195322,-10.168591,0.521011,3.808224,-3.957632,-0.962739,-0.742758,-0.077029,1.999400,0.465402,0.021596,-0.711664,0.525803,-91.090642,-43.245891,140.972534
05795,NaN,4.513140,-11.503943,-0.243281,3.475619,-2.835324,1.704436,-0.564423,-0.294290,1.917571,0.459315,0.014232,-0.714009,0.528221,-91.547402,-42.140139,141.171692
05796,NaN,5.814643,-11.341019,-1.190270,3.029673,-1.329350,2.552343,-0.189534,-0.347690,1.961105,0.452831,0.007695,-0.715423,0.532028,-91.805702,-41.004624,141.398710
05797,NaN,5.045616,-9.657636,-1.557527,2.688408,-0.562679,0.845918,-0.131152,-0.396295,1.956930,0.446155,0.001452,-0.716714,0.535972,-92.043089,-39.872884,141.651428
05798,NaN,4.351416,-8.823242,-2.151518,2.901821,0.008259,-0.169580,-0.404380,-0.547648,1.856529,0.439144,-0.004655,-0.719007,0.538664,-92.499129,-38.790917,142.006826
05799,NaN,4.383015,-8.908235,-2.305656,2.838123,0.171372,-0.025151,-0.463743,-0.624486,1.810406,0.431955,-0.010499,-0.721554,0.540984,-93.008107,-37.734084,142.402365
05800,NaN,4.093538,-8.767831,-1.695523,2.387116,-0.314747,-0.288712,-0.324731,-0.655868,1.863069,0.424455,-0.016168,-0.723725,0.543874,-93.435046,-36.640424,142.802340
05801,NaN,3.375594,-8.589860,-1.112785,2.222463,-0.971254,-0.838684,-0.364957,-0.725529,1.969759,0.416384,-0.022096,-0.726059,0.546785,-93.894197,-35.483969,143.229943
05802,NaN,2.465751,-8.862384,-1.241188,2.828147,-1.355578,-1.076412,-0.479520,-0.769017,2.142427,0.407598,-0.028788,-0.728693,0.549583,-94.414505,-34.220873,143.661158
05803,NaN,2.039574,-8.727057,-1.375908,2.947546,-1.335932,-1.342885,-0.538557,-0.744291,2.314271,0.398381,-0.036270,-0.731303,0.552425,-94.933460,-32.860899,144.044926
05804,NaN,2.360852,-8.270575,-1.370770,2.344407,-0.930281,-1.476692,-0.606934,-0.673418,2.528411,0.388733,-0.044882,-0.733802,0.555344,-95.441363,-31.376241,144.347769
05805,NaN,2.490198,-7.820600,-1.645357,2.046706,-0.398701,-1.706067,-0.606021,-0.527160,2.768530,0.378899,-0.054750,-0.735813,0.558585,-95.873773,-29.764242,144.518521
05806,NaN,2.376663,-7.420761,-1.895429,1.925096,-0.023752,-2.028260,-0.699155,-0.427692,2.987226,0.368688,-0.065885,-0.737674,0.561752,-96.309481,-28.029220,144.592938
05807,NaN,2.717457,-7.879931,-2.511850,1.966177,0.557646,-1.350777,-0.891251,-0.417501,3.166372,0.357874,-0.078025,-0.739802,0.564385,-96.835259,-26.195828,144.629742
05808,NaN,3.780211,-8.767160,-3.011489,1.464444,1.289995,0.005867,-1.026251,-0.430139,3.335685,0.346357,-0.090995,-0.742055,0.566667,-97.427347,-24.261623,144.641123
05809,NaN,5.122967,-9.440114,-2.960817,0.264436,1.850920,1.169950,-1.103610,-0.440490,3.478372,0.334271,-0.104549,-0.744235,0.568724,-98.051337,-22.249040,144.624138
05810,NaN,6.662565,-9.798822,-2.645168,-1.400416,2.455330,1.993988,-1.137000,-0.457485,3.573002,0.321697,-0.118447,-0.746233,0.570629,-98.688238,-20.178336,144.585779
05811,NaN,8.579810,-9.920222,-1.989027,-3.667174,3.109184,2.550357,-1.224270,-0.492130,3.590444,0.308797,-0.132387,-0.748251,0.572047,-99.373564,-18.098558,144.541509
05812,NaN,10.741702,-10.520194,-1.831686,-5.792928,4.163882,3.547400,-1.254965,-0.517155,3.550155,0.295765,-0.146124,-0.750153,0.573098,-100.076992,-16.036645,144.490464
05813,NaN,12.751713,-10.703604,-1.410652,-8.063892,5.089246,3.906130,-1.186389,-0.526883,3.490809,0.282833,-0.159437,-0.751646,0.574120,-100.738511,-14.011022,144.426388
05814,NaN,14.605051,-10.062882,-0.834792,-10.371594,6.066459,3.258738,-1.103209,-0.497930,3.360879,0.270336,-0.172191,-0.752715,0.575056,-101.349964,-12.059768,144.337841
05815,NaN,16.575812,-8.884658,-0.218388,-12.747533,7.226851,1.976497,-1.043760,-0.394400,3.114977,0.258924,-0.184170,-0.753457,0.575623,-101.919485,-10.262149,144.199051
05816,NaN,18.245574,-7.561951,0.117544,-14.601466,8.457715,0.450594,-1.062082,-0.222774,2.822596,0.248904,-0.195530,-0.754113,0.575438,-102.491507,-8.648473,143.981428
05817,NaN,18.994235,-6.365081,0.519617,-15.633709,9.062606,-1.152451,-1.069597,0.009212,2.508665,0.240617,-0.206331,-0.754648,0.574489,-103.057928,-7.243841,143.657707
05818,NaN,19.841604,-5.293107,1.266347,-16.841083,9.431267,-2.690817,-1.101046,0.238257,2.189500,0.234028,-0.216596,-0.755203,0.572700,-103.638975,-6.049517,143.234803
05819,NaN,19.882942,-4.275816,2.152790,-17.396882,9.213586,-4.272580,-1.123635,0.457602,1.879575,0.229108,-0.226308,-0.755794,0.570150,-104.231334,-5.063365,142.720850
05820,NaN,19.901169,-4.033491,2.720998,-17.737794,9.038848,-4.976457,-1.219934,0.619073,1.506250,0.225723,-0.235156,-0.756813,0.566556,-104.883550,-4.312815,142.161037
05821,NaN,19.698546,-4.548646,3.302390,-17.962619,8.534227,-4.900118,-1.109528,0.756208,1.100690,0.224119,-0.242710,-0.757771,0.562713,-105.476303,-3.813505,141.578465
05822,NaN,19.421806,-4.606372,4.629254,-18.531015,7.542051,-5.388902,-0.864429,0.844967,0.695074,0.224278,-0.248685,-0.758388,0.559198,-105.933549,-3.557610,141.005638
05823,NaN,18.137944,-5.931413,5.975055,-18.500695,5.569610,-4.658093,-0.943306,0.868125,0.175789,0.225867,-0.252835,-0.759808,0.554752,-106.440857,-3.595392,140.501006
05824,NaN,21.367702,-9.698138,1.847619,-18.850572,9.777805,0.340839,-0.498685,1.008596,-0.320421,0.229928,-0.254971,-0.760438,0.551232,-106.692187,-3.933341,140.000534
05825,NaN,19.701431,-5.797544,12.843099,-23.902762,1.946678,-6.413224,1.474787,1.012689,-0.571689,0.237190,-0.253886,-0.755896,0.554892,-105.811722,-4.406031,139.536041
05826,NaN,19.505391,-2.164024,7.552590,-19.892554,6.614364,-8.164685,0.103751,0.133169,-1.258103,0.241292,-0.249363,-0.757025,0.553633,-105.760709,-5.118517,139.661357
05827,NaN,6.302263,-4.754723,-4.455368,-2.472644,5.959789,-3.445468,-0.820293,-0.658690,-1.217153,0.241104,-0.243918,-0.761574,0.549889,-106.281700,-5.680502,140.221171
05828,NaN,-12.876248,-7.908101,-20.992147,22.242301,4.908866,2.441704,-1.493332,-2.434398,-1.276458,0.233477,-0.234124,-0.770072,0.545585,-107.293463,-5.976381,141.777941
05829,NaN,-33.146995,-44.669748,-4.919000,23.809015,-30.227412,30.655438,-4.332400,-3.416216,0.346309,0.214186,-0.231111,-0.785168,0.533125,-109.949134,-5.159100,143.579738
05830,NaN,9.102962,-46.214249,-23.144709,0.414914,7.195131,42.170658,0.851767,-2.841328,-3.609229,0.213554,-0.208392,-0.789890,0.535762,-109.688494,-6.550000,145.825961
05831,NaN,20.112533,-11.888514,5.433681,-20.436641,3.051777,2.363367,7.435681,-0.927300,-3.251433,0.226133,-0.184965,-0.773687,0.562193,-105.564484,-8.160057,146.907053
05832,NaN,7.936186,-0.820559,10.367995,-12.362085,-4.234314,-10.427472,3.474908,-0.975054,-1.912085,0.230878,-0.170855,-0.766623,0.574276,-103.695963,-9.076783,147.735920
05833,NaN,3.528259,2.330622,6.426397,-6.513334,-2.672437,-12.912792,1.478783,-0.436102,-2.348231,0.237154,-0.158881,-0.764804,0.577572,-102.941900,-10.324425,148.299371
05834,NaN,11.953619,-0.375391,4.973930,-12.704514,2.028334,-8.313358,-0.657256,0.074817,-1.883579,0.242323,-0.152657,-0.768065,0.572757,-103.356029,-11.383202,148.509226
05835,NaN,9.503594,-5.888677,-1.356452,-6.904652,4.164112,-1.950240,-0.821043,0.558575,-1.470344,0.248007,-0.149602,-0.770826,0.567397,-103.801523,-12.273182,148.395811
05836,NaN,6.226793,-8.225635,-1.035127,-4.141894,1.426037,-0.415067,-0.360295,0.809691,-1.147036,0.254086,-0.147911,-0.771676,0.563985,-103.940675,-13.020880,148.098025
05837,NaN,5.354102,-10.603904,0.313614,-3.952533,-0.909849,1.356764,-0.422398,0.930251,-0.720227,0.259353,-0.148292,-0.772197,0.560764,-104.083037,-13.546241,147.671662
05838,NaN,4.385297,-13.114277,0.375020,-2.993347,-2.358593,3.485119,-0.790218,0.660411,-0.587070,0.262940,-0.148888,-0.773972,0.556473,-104.464693,-13.964009,147.381787
05839,NaN,4.496380,-16.406509,-3.344643,-0.734897,-0.662820,7.496088,-1.170730,0.326547,-0.733089,0.265330,-0.148499,-0.777321,0.550745,-105.115717,-14.413779,147.308074
05840,NaN,4.354316,-14.295299,-4.625986,0.039858,0.865802,5.806641,0.104616,0.333598,-0.524205,0.268128,-0.147230,-0.776970,0.550226,-105.026357,-14.751906,147.200250
05841,NaN,2.397345,-9.182217,-0.275024,-1.145922,-1.728677,-0.548030,0.825294,0.436111,-0.254243,0.271090,-0.146338,-0.774288,0.552788,-104.498162,-14.952337,146.990962
05842,NaN,0.723194,-7.066718,1.540545,-0.954315,-3.263525,-3.388247,0.109928,0.194840,-0.320177,0.272790,-0.145477,-0.773946,0.552657,-104.416707,-15.156210,146.928672
05843,NaN,1.193750,-8.377036,-1.319745,0.440774,-1.284706,-1.357134,-0.645374,-0.130632,-0.407009,0.272902,-0.144424,-0.776193,0.549719,-104.821205,-15.358873,147.067050
05844,NaN,2.580078,-10.080749,-4.534775,1.315090,1.258736,1.391246,-0.567393,-0.135169,-0.388919,0.273016,-0.143307,-0.778206,0.547102,-105.181157,-15.552293,147.206665
05845,NaN,3.068543,-10.693829,-5.856745,1.744187,2.250069,2.433540,-0.267399,0.107423,-0.382347,0.274252,-0.142482,-0.779058,0.545485,-105.332800,-15.775718,147.207125
05846,NaN,1.929253,-10.637224,-5.785064,2.666304,1.577652,2.050737,0.015964,0.441239,-0.476682,0.277260,-0.141797,-0.778739,0.544597,-105.272956,-16.104005,147.030660
05847,NaN,0.716021,-9.521327,-5.234652,3.309528,0.899890,0.522029,0.242653,0.621751,-0.634042,0.281541,-0.140687,-0.777653,0.544240,-105.060011,-16.543716,146.773698
05848,NaN,0.390123,-7.929224,-5.209895,3.507668,1.268513,-1.080330,0.256968,0.680400,-0.806622,0.286537,-0.139031,-0.776547,0.543638,-104.833485,-17.088784,146.506976
05849,NaN,0.740122,-7.570531,-4.979063,3.149942,1.370469,-1.395416,0.109415,0.692003,-0.990084,0.291950,-0.136912,-0.775928,0.542178,-104.694898,-17.734272,146.258993
05850,NaN,1.810877,-7.977753,-4.660385,2.258717,1.495087,-0.795783,0.222676,0.723294,-1.131030,0.297945,-0.134149,-0.775020,0.540904,-104.488292,-18.463665,146.011120
05851,NaN,2.717857,-8.004096,-3.404281,0.907840,0.975046,-0.797971,0.399418,0.711036,-1.190117,0.304144,-0.130865,-0.773655,0.540212,-104.181429,-19.221104,145.774817
05852,NaN,3.077369,-7.883386,-2.424291,0.138280,0.442814,-1.021864,0.500165,0.596051,-1.230030,0.310067,-0.126946,-0.772178,0.539892,-103.836452,-19.985365,145.606553
05853,NaN,3.546833,-7.871774,-1.962512,-0.388713,0.321524,-0.972974,0.495882,0.456520,-1.241876,0.315454,-0.122615,-0.770898,0.539602,-103.519612,-20.734521,145.517377
05854,NaN,4.194088,-8.039375,-1.924186,-0.764888,0.539552,-0.590599,0.470773,0.336173,-1.247694,0.320373,-0.117960,-0.769841,0.539251,-103.240349,-21.472343,145.496286
05855,NaN,4.702317,-8.236579,-1.627373,-1.184842,0.473601,-0.274772,0.513309,0.282556,-1.219341,0.325008,-0.113207,-0.768704,0.539118,-102.945716,-22.185451,145.499418
05856,NaN,4.678254,-8.209768,-1.036529,-1.416823,-0.003796,-0.413110,0.560208,0.278791,-1.166754,0.329510,-0.108554,-0.767381,0.539226,-102.620505,-22.870520,145.493413
05857,NaN,4.511528,-8.204054,-0.675422,-1.396888,-0.386360,-0.538273,0.557229,0.298664,-1.144294,0.334001,-0.104051,-0.765990,0.539330,-102.289545,-23.543619,145.468042
05858,NaN,4.348366,-8.621493,-0.536010,-1.157626,-0.768850,-0.242252,0.476050,0.314751,-1.148957,0.338521,-0.099695,-0.764760,0.539080,-101.999118,-24.222942,145.429248
05859,NaN,4.270053,-9.531029,-0.747277,-0.650367,-1.045742,0.585114,0.403787,0.306363,-1.163625,0.342988,-0.095388,-0.763716,0.538515,-101.751370,-24.907518,145.393881
05860,NaN,4.159523,-10.205491,-1.173478,-0.019029,-1.090120,1.216381,0.398828,0.296310,-1.170679,0.347430,-0.091022,-0.762674,0.537899,-101.507304,-25.596515,145.362113
05861,NaN,4.225518,-10.388827,-1.661518,0.419464,-0.798662,1.488984,0.461465,0.306410,-1.171198,0.351916,-0.086579,-0.761417,0.537497,-101.223002,-26.285037,145.320489
05862,NaN,4.246583,-10.271793,-1.898348,0.667651,-0.595258,1.427640,0.487604,0.330790,-1.194116,0.356563,-0.082055,-0.760022,0.537118,-100.915385,-26.990616,145.262003
05863,NaN,4.140509,-10.291699,-2.017981,0.973043,-0.600297,1.404530,0.485641,0.385455,-1.223321,0.361468,-0.077576,-0.758515,0.536636,-100.592141,-27.716489,145.167770
05864,NaN,4.100799,-10.523812,-1.938189,1.167572,-0.812308,1.558262,0.472143,0.439652,-1.266712,0.366682,-0.073089,-0.756924,0.535974,-100.258747,-28.473546,145.038532
05865,NaN,4.213524,-10.763985,-1.895161,1.287864,-0.926891,1.792854,0.463621,0.486430,-1.308979,0.372155,-0.068589,-0.755248,0.535161,-99.913962,-29.256847,144.878087
05866,NaN,4.368902,-11.001457,-1.828039,1.376295,-1.039584,2.039879,0.505271,0.546606,-1.357795,0.377988,-0.063975,-0.753320,0.534360,-99.522815,-30.074120,144.676775
05867,NaN,4.068722,-10.986333,-1.672489,1.663911,-1.341465,1.826906,0.512856,0.595299,-1.397260,0.384079,-0.059334,-0.751249,0.533468,-99.106889,-30.915469,144.439548
05868,NaN,4.185183,-11.116809,-1.768192,1.872363,-1.307216,1.977470,0.547485,0.632812,-1.450523,0.390447,-0.054513,-0.748976,0.532554,-98.652603,-31.790095,144.173193
05869,NaN,4.039861,-11.124475,-1.676947,2.110764,-1.491237,1.857958,0.602332,0.643913,-1.485418,0.396928,-0.049489,-0.746494,0.531739,-98.155748,-32.682129,143.891905
05870,NaN,4.080816,-10.868599,-1.413141,2.020513,-1.598161,1.595047,0.616420,0.651936,-1.517455,0.403505,-0.044327,-0.743907,0.530868,-97.638655,-33.592084,143.595734
05871,NaN,4.005923,-10.932385,-1.359881,2.256139,-1.742186,1.557660,0.595659,0.680270,-1.536567,0.410194,-0.039216,-0.741267,0.529836,-97.112651,-34.511443,143.268892
05872,NaN,3.848083,-10.842978,-1.125637,2.371957,-1.998379,1.323814,0.602000,0.709174,-1.573215,0.417062,-0.034022,-0.738496,0.528702,-96.560305,-35.452137,142.910603
05873,NaN,3.858497,-10.783608,-0.477252,2.115557,-2.496384,1.173255,0.583370,0.757904,-1.583470,0.424092,-0.028962,-0.735614,0.527427,-95.985456,-36.397687,142.503433
05874,NaN,3.426823,-10.685961,0.222610,2.084659,-3.231429,0.732039,0.562526,0.817111,-1.586707,0.431316,-0.024082,-0.732597,0.526013,-95.381200,-37.345948,142.036909
05875,NaN,3.198869,-10.682337,0.829292,2.010961,-3.837803,0.495416,0.523271,0.859252,-1.614883,0.438718,-0.019298,-0.729532,0.524344,-94.764683,-38.307452,141.523282
05876,NaN,2.324829,-11.226466,0.810609,2.974808,-4.537931,0.318943,0.537493,0.901268,-1.616301,0.446245,-0.014581,-0.726270,0.522671,-94.100542,-39.267799,140.958002
05877,NaN,1.459571,-11.401813,0.902521,3.690074,-5.148480,-0.178410,0.623191,0.957358,-1.670987,0.454075,-0.009624,-0.722594,0.521134,-93.340488,-40.255189,140.330612
05878,NaN,0.548446,-11.824070,0.497339,4.864520,-5.528470,-0.532315,0.563124,0.952102,-1.769976,0.462099,-0.004429,-0.719013,0.519101,-92.593490,-41.293146,139.684078
05879,NaN,-0.472920,-12.768081,-0.179680,6.524528,-6.016634,-0.620024,0.539215,0.946544,-1.918306,0.470429,0.001257,-0.715430,0.516580,-91.838213,-42.408893,139.017700
05880,NaN,-2.462220,-14.432072,-0.941699,9.129124,-7.272181,-0.924477,0.409117,0.895627,-2.067423,0.478907,0.007302,-0.712210,0.513178,-91.154625,-43.603126,138.362250
05881,NaN,-3.846588,-17.397891,-3.294106,13.126840,-7.733709,-0.004849,0.134540,0.685554,-2.338794,0.487274,0.014193,-0.710091,0.508069,-90.717299,-44.945951,137.848680
05882,NaN,-2.397321,-20.803449,-6.083685,16.239388,-6.796182,3.056357,0.388542,0.324673,-2.415832,0.494464,0.022889,-0.708091,0.503575,-90.318138,-46.327923,137.604553
05883,NaN,0.401674,-19.183320,-7.084422,14.953055,-3.997215,3.557208,1.586718,0.015123,-2.268460,0.499965,0.034802,-0.703739,0.503563,-89.397971,-47.624221,137.591812
05884,NaN,1.972955,-13.247586,-6.083550,10.540439,-0.999801,0.399387,2.282133,-0.246562,-2.067324,0.503808,0.048392,-0.698172,0.506351,-88.222576,-48.807025,137.771502
05885,NaN,4.452048,-10.365956,-4.208219,6.695688,0.202148,0.192386,2.520552,-0.372689,-2.067240,0.507028,0.062895,-0.692144,0.509808,-86.971529,-49.996083,138.028130
05886,NaN,8.121421,-8.396404,-0.804253,1.842675,0.140339,1.749410,2.499486,-0.479353,-2.070869,0.509753,0.077604,-0.686253,0.513017,-85.784270,-51.193105,138.347166
05887,NaN,11.165294,-7.816667,0.246900,-0.332244,0.798037,3.791408,1.705452,-0.504824,-1.916706,0.512196,0.089816,-0.682371,0.513767,-85.064376,-52.307724,138.676925
05888,NaN,7.656510,-11.516523,0.724273,3.653048,-2.776150,3.253216,1.245267,-0.544397,-1.969783,0.514763,0.101111,-0.679644,0.512718,-84.630431,-53.455426,139.029537
05889,NaN,5.160939,-11.871626,-2.555819,7.214603,-1.299884,1.158030,1.803408,-0.606468,-1.786750,0.516291,0.113372,-0.675630,0.513920,-83.935547,-54.505604,139.450025
05890,NaN,6.471169,-1.033649,-6.835229,1.759656,7.549821,-4.375125,2.025355,-0.911047,-0.331003,0.512842,0.122045,-0.672559,0.519387,-83.480102,-54.746841,140.316583
05891,NaN,-0.144790,-0.180895,-6.340015,3.735878,5.112616,-10.203842,0.131750,-1.556446,0.981837,0.504920,0.123120,-0.676788,0.521397,-84.733070,-54.275729,141.950157
05892,NaN,-11.932892,-5.586507,-9.957562,14.995649,1.601831,-16.542995,-2.171296,-2.002572,1.755435,0.494786,0.116894,-0.688497,0.517198,-87.637080,-53.343848,144.008529
05893,NaN,-11.789530,-11.569623,-10.585354,19.444699,-0.526005,-12.361990,-1.974168,-0.933109,2.013991,0.487429,0.107478,-0.697021,0.514803,-89.512074,-52.200235,144.944785
05894,NaN,-2.575258,-10.556661,-6.565430,11.873648,-0.208371,-5.323815,-0.020440,0.391478,1.966693,0.483670,0.099551,-0.697157,0.519736,-89.259215,-51.065771,144.608923
05895,NaN,3.046299,-6.981751,0.420610,2.653458,-2.222723,-3.014361,1.037011,1.250672,2.043773,0.482125,0.091677,-0.692404,0.528893,-87.835158,-49.873624,143.535238
05896,NaN,4.206044,-6.062894,3.777837,-0.523810,-3.990707,-2.565711,0.074766,1.160130,1.858469,0.481114,0.082338,-0.690235,0.534159,-87.078109,-48.774923,142.594996
05897,NaN,3.319757,-9.009331,-0.368147,4.038778,-2.120031,-1.356046,-1.520327,0.712214,1.755048,0.479439,0.070717,-0.693261,0.533410,-87.547223,-47.748079,142.058553
05898,NaN,2.471643,-12.365211,-3.115729,7.950911,-1.693154,0.317703,-1.551588,0.577995,1.924688,0.476770,0.058767,-0.696652,0.532834,-88.127082,-46.628102,141.638588
05899,NaN,1.340483,-10.567891,-2.460544,6.911252,-1.952651,-1.569550,-0.941497,0.475122,1.960446,0.473413,0.048426,-0.698568,0.534358,-88.420987,-45.493855,141.299945
05900,NaN,1.149679,-10.073021,-0.275421,5.231697,-3.542398,-1.879183,-0.929885,0.134670,1.854329,0.469077,0.039371,-0.701158,0.535531,-88.904497,-44.424092,141.231522
05901,NaN,2.203267,-11.416502,0.414913,4.784787,-4.155219,-0.055713,-0.768224,-0.251407,1.829210,0.463390,0.031829,-0.704136,0.537075,-89.498747,-43.374784,141.456156
05902,NaN,4.247801,-11.439701,-0.278375,3.866026,-2.630306,1.462016,-0.288428,-0.449943,1.838988,0.456840,0.025877,-0.706226,0.540253,-89.910763,-42.316359,141.820366
05903,NaN,4.995723,-9.808286,-0.492968,2.513264,-1.349589,0.829741,-0.059589,-0.499046,1.843096,0.450050,0.020580,-0.707738,0.544186,-90.200679,-41.256656,142.206723
05904,NaN,4.858135,-8.613020,-1.194997,2.232359,-0.293871,-0.110061,-0.345228,-0.577729,1.740450,0.443232,0.015198,-0.710137,0.546827,-90.679416,-40.250655,142.638471
05905,NaN,5.013433,-8.972714,-2.038270,2.657020,0.352850,0.317025,-0.526340,-0.623242,1.722019,0.436295,0.009622,-0.713060,0.548726,-91.264962,-39.254634,143.085159
05906,NaN,4.573011,-9.182242,-1.862516,2.736483,-0.017520,0.247273,-0.356913,-0.609550,1.838869,0.429018,0.003941,-0.715433,0.551437,-91.729318,-38.185872,143.502005
05907,NaN,3.370723,-8.850976,-1.039305,2.655151,-1.031284,-0.720653,-0.257099,-0.648563,1.970076,0.421212,-0.001869,-0.717537,0.554724,-92.134145,-37.041704,143.926675
05908,NaN,1.970427,-8.861730,-0.650959,3.154205,-1.930857,-1.496682,-0.381226,-0.752201,2.120381,0.412546,-0.008211,-0.720121,0.557821,-92.634756,-35.803398,144.403393
05909,NaN,1.448285,-8.984333,-0.785400,3.455444,-2.047639,-1.609292,-0.439229,-0.827867,2.276271,0.403131,-0.015003,-0.722908,0.560950,-93.173772,-34.473265,144.905543
05910,NaN,1.819166,-8.628373,-1.012810,2.995466,-1.482001,-1.590138,-0.397530,-0.838658,2.493604,0.392984,-0.022483,-0.725470,0.564581,-93.666413,-33.011672,145.383961
05911,NaN,2.028527,-7.839212,-1.189868,2.429936,-0.874099,-2.046679,-0.477878,-0.770709,2.675076,0.382508,-0.030947,-0.727962,0.568157,-94.152290,-31.448809,145.784702
05912,NaN,2.656677,-7.907374,-2.184324,2.381245,0.281693,-1.530142,-0.666597,-0.736061,2.826877,0.371596,-0.040437,-0.730750,0.571215,-94.710108,-29.794494,146.131696
05913,NaN,3.075571,-8.392183,-3.131538,2.558593,1.162427,-0.768934,-0.785088,-0.694693,3.010100,0.360218,-0.050904,-0.733581,0.574030,-95.295826,-28.038027,146.416131
05914,NaN,3.837157,-8.884369,-3.745597,2.227824,1.956574,0.131377,-0.868407,-0.671074,3.191311,0.348267,-0.062260,-0.736370,0.576709,-95.898804,-26.173764,146.649227
05915,NaN,4.975590,-8.925869,-3.799716,1.081658,2.651768,0.706447,-0.968036,-0.660343,3.364542,0.335741,-0.074420,-0.739146,0.579140,-96.531891,-24.212672,146.837322
05916,NaN,6.334560,-8.814396,-3.735822,-0.393943,3.423166,1.136740,-1.119575,-0.634437,3.482073,0.322782,-0.087338,-0.742032,0.581010,-97.226262,-22.181394,146.973321
05917,NaN,8.049235,-8.937340,-3.534818,-2.209313,4.203709,1.788710,-1.223274,-0.593574,3.551492,0.309634,-0.100749,-0.744856,0.582380,-97.953025,-20.115666,147.049509
05918,NaN,9.510681,-9.338838,-2.990832,-4.017211,4.514135,2.437878,-1.342548,-0.552724,3.567289,0.296397,-0.114504,-0.747687,0.583098,-98.728539,-18.040539,147.070461
05919,NaN,11.467123,-9.860211,-2.704695,-6.101170,5.277498,3.261429,-1.340844,-0.489124,3.541124,0.283387,-0.128283,-0.750153,0.583529,-99.482398,-15.988994,147.026792
05920,NaN,13.511682,-9.557569,-1.891787,-8.703121,5.940046,3.088248,-1.231716,-0.369360,3.501257,0.270891,-0.142078,-0.751893,0.584028,-100.152631,-13.969600,146.891477
05921,NaN,15.419408,-8.585338,-0.845354,-11.349048,6.562421,2.031461,-1.225186,-0.207143,3.394657,0.259249,-0.155873,-0.753211,0.584095,-100.798861,-12.031529,146.650902
05922,NaN,16.902679,-7.854433,-0.388120,-13.201756,7.385798,1.081163,-1.267918,-0.009467,3.247450,0.248651,-0.169710,-0.754278,0.583469,-101.455819,-10.198715,146.293094
05923,NaN,17.863358,-6.975184,-0.167106,-14.399925,8.172339,-0.137598,-1.257341,0.191221,3.039589,0.239368,-0.183273,-0.755020,0.582288,-102.098749,-8.512204,145.826609
05924,NaN,18.570391,-6.141570,0.207722,-15.374105,8.694143,-1.407592,-1.275332,0.339641,2.762652,0.231364,-0.196207,-0.755703,0.580420,-102.756925,-7.002895,145.293568
05925,NaN,18.950406,-5.436531,0.871202,-16.159671,8.772778,-2.649166,-1.228435,0.438934,2.433008,0.224699,-0.208079,-0.756293,0.578130,-103.397004,-5.697900,144.732091
05926,NaN,19.090186,-4.571574,1.795012,-16.820485,8.541192,-4.097748,-1.191552,0.478206,2.059888,0.219256,-0.218581,-0.756997,0.575417,-104.029989,-4.611664,144.186306
05927,NaN,19.881601,-4.145454,2.595410,-17.915430,8.660558,-4.993948,-1.228557,0.458705,1.601683,0.214995,-0.227301,-0.758229,0.572014,-104.696995,-3.783766,143.705002
05928,NaN,20.325218,-6.440318,3.351324,-18.962212,7.917284,-3.211946,-1.620461,0.537922,0.867913,0.212665,-0.233864,-0.761260,0.566184,-105.597969,-3.380518,143.279004
05929,NaN,24.516925,-9.357159,2.600718,-22.200129,10.409903,-0.107829,-0.485438,0.808970,0.476070,0.213792,-0.238483,-0.761197,0.563913,-105.844462,-3.239405,142.760205
05930,NaN,23.681003,-4.981337,11.245116,-26.085150,4.661094,-6.668044,0.811612,0.860360,-0.065524,0.218188,-0.239785,-0.758049,0.565914,-105.351463,-3.405284,142.296966
05931,NaN,23.023948,-4.121584,10.936872,-25.241662,4.818909,-7.294836,-0.253102,0.326328,-0.700501,0.221067,-0.238331,-0.759234,0.563819,-105.490274,-3.837783,142.225470
05932,NaN,25.371443,-5.988812,7.373140,-25.118115,8.414255,-4.137522,0.104009,0.133291,-1.444707,0.225744,-0.233093,-0.760489,0.562462,-105.440089,-4.654104,142.375232
05933,NaN,7.527774,-6.549171,0.223794,-6.729508,2.661515,-2.939713,-0.257749,-0.594578,-1.141463,0.226354,-0.227370,-0.763190,0.560899,-105.629612,-5.188855,142.882639
05934,NaN,-24.201845,-17.312021,-6.521834,21.608382,-14.111717,6.370543,-0.780014,-1.952982,-0.452797,0.219256,-0.221023,-0.768053,0.559616,-106.178479,-5.130530,144.036747
05935,NaN,-30.467732,-42.072192,1.667498,19.961581,-30.778798,27.001369,-2.291011,-3.583182,-1.460697,0.206962,-0.207848,-0.779802,0.553059,-107.691894,-5.328971,146.255758
05936,NaN,16.337319,-32.871292,-21.732686,-4.779080,15.560664,29.616875,-0.471261,-3.473517,-2.930268,0.200955,-0.187249,-0.787533,0.551677,-108.205915,-6.310368,148.680924
05937,NaN,19.577777,-13.674786,-0.310381,-17.159951,5.997031,5.675708,5.940490,-1.331143,-3.024352,0.209464,-0.165601,-0.774855,0.572976,-104.951623,-7.749213,149.917502
05938,NaN,7.024510,-1.361387,9.076260,-10.665176,-4.448538,-9.671045,3.424402,-1.174284,-2.264498,0.214167,-0.149832,-0.767967,0.584730,-103.129155,-8.842777,150.897494
05939,NaN,3.813893,0.660156,4.343231,-5.497680,-1.642547,-10.772413,1.156935,-0.533102,-2.376878,0.219880,-0.137898,-0.766860,0.586995,-102.565144,-10.098600,151.508764
05940,NaN,10.689894,-0.146520,1.107787,-9.788834,4.031676,-7.956705,-0.493432,0.093796,-1.546900,0.224411,-0.132770,-0.769240,0.583337,-102.872877,-10.973350,151.656323
05941,NaN,9.469584,-3.880566,-3.455598,-6.191969,6.176745,-3.474070,-0.804341,0.527075,-1.274030,0.229576,-0.130309,-0.771809,0.578467,-103.306631,-11.748706,151.527302
05942,NaN,6.932869,-8.347812,-2.388851,-4.171335,2.733239,0.116335,-0.366484,0.977918,-0.794707,0.235386,-0.130477,-0.772243,0.575509,-103.421381,-12.319898,151.079900
05943,NaN,4.705280,-11.175290,-0.420194,-2.988197,-0.810341,1.918324,0.063375,1.315267,-0.480210,0.241846,-0.132333,-0.770801,0.574338,-103.234911,-12.757313,150.396037
05944,NaN,4.684858,-13.749185,1.936814,-3.949720,-3.554070,3.844075,-0.456805,1.085036,-0.611631,0.247458,-0.133629,-0.771183,0.571126,-103.374095,-13.240168,149.860259
05945,NaN,4.354979,-18.272180,-1.709912,-1.353894,-2.328659,8.855436,-1.497822,0.451446,-0.810438,0.250466,-0.133644,-0.775408,0.564046,-104.197417,-13.748708,149.718057
05946,NaN,1.689607,-15.633697,-4.264572,2.112934,-0.858379,6.319627,0.282180,0.289408,-0.529111,0.253250,-0.132043,-0.774592,0.564301,-104.012532,-14.081811,149.630742
05947,NaN,-0.241338,-7.936917,0.824754,0.435975,-3.356053,-2.582259,1.249793,0.123199,-0.264977,0.255259,-0.129783,-0.771064,0.568735,-103.287073,-14.241943,149.599310
05948,NaN,-0.129990,-4.661483,2.320858,-0.712065,-3.437524,-5.964438,0.225308,-0.344934,-0.424341,0.255262,-0.126867,-0.771129,0.569304,-103.219722,-14.431825,149.857695
05949,NaN,2.256700,-7.272934,-1.509538,-0.392498,-0.044936,-2.059612,-0.910499,-0.630137,-0.610469,0.253951,-0.123882,-0.774892,0.565425,-103.852725,-14.683325,150.307306
05950,NaN,4.345903,-10.804512,-6.025581,0.588026,3.361167,2.847786,-0.695242,-0.377598,-0.574970,0.253660,-0.121458,-0.777677,0.562248,-104.326091,-14.948601,150.609543
05951,NaN,4.533780,-10.878021,-6.995799,0.976397,4.143998,3.214257,0.049702,0.130060,-0.477003,0.255500,-0.119909,-0.777655,0.561778,-104.295275,-15.227759,150.607048
05952,NaN,3.046162,-8.786080,-5.928866,1.521701,3.279342,0.606305,0.427457,0.572235,-0.418648,0.259135,-0.119331,-0.775961,0.562577,-103.977508,-15.538836,150.340333
05953,NaN,0.851884,-7.250491,-4.556948,2.540904,1.645891,-1.756919,0.352189,0.765292,-0.522468,0.263744,-0.119003,-0.774277,0.562825,-103.674866,-15.930238,149.974673
05954,NaN,0.303803,-7.291892,-4.070044,2.813792,0.955006,-2.002491,0.079691,0.775497,-0.744828,0.268865,-0.118185,-0.773457,0.561701,-103.531641,-16.447849,149.631851
05955,NaN,0.654754,-8.708081,-4.180000,2.839787,0.689451,-0.582793,0.052993,0.757117,-0.944721,0.274437,-0.116588,-0.772830,0.560201,-103.411212,-17.071250,149.325374
05956,NaN,1.207583,-9.388931,-3.250576,2.066805,-0.061974,-0.019852,0.288850,0.697196,-1.076740,0.280287,-0.113972,-0.771671,0.559440,-103.167053,-17.761659,149.068962
05957,NaN,2.041809,-8.955253,-2.373995,0.958109,-0.227638,-0.377104,0.496375,0.528673,-1.142806,0.285764,-0.110347,-0.770172,0.559462,-102.833360,-18.463765,148.915864
05958,NaN,2.603701,-8.279399,-1.637235,0.109524,-0.316841,-0.986896,0.644795,0.320321,-1.199532,0.290678,-0.105691,-0.768550,0.560059,-102.453065,-19.172633,148.888075
05959,NaN,3.511714,-7.838015,-1.458961,-0.677724,0.126323,-1.128292,0.641329,0.151927,-1.243251,0.295039,-0.100407,-0.767168,0.560646,-102.108333,-19.883176,148.961120
05960,NaN,4.634158,-7.872929,-1.448263,-1.466794,0.627246,-0.701716,0.514529,0.080001,-1.232449,0.299029,-0.095134,-0.766206,0.560767,-101.850013,-20.581514,149.072074
05961,NaN,5.210117,-8.456242,-1.469581,-1.691352,0.685825,0.060544,0.467945,0.134730,-1.180848,0.303036,-0.090289,-0.765236,0.560742,-101.604808,-21.255679,149.140974
05962,NaN,4.860809,-8.669965,-1.346850,-1.318025,0.319212,0.125591,0.507293,0.247473,-1.124026,0.307334,-0.085902,-0.763928,0.560875,-101.308847,-21.913130,149.131694
05963,NaN,4.349609,-8.592111,-1.078213,-0.957812,-0.127659,-0.170539,0.551638,0.349419,-1.098377,0.311943,-0.081840,-0.762298,0.561156,-100.961473,-22.565317,149.053443
05964,NaN,3.896730,-8.898583,-1.021499,-0.441851,-0.513045,-0.068300,0.420466,0.377007,-1.096675,0.316599,-0.078051,-0.760962,0.560902,-100.679908,-23.221162,148.953839
05965,NaN,3.942719,-9.740780,-1.371374,0.042725,-0.535593,0.771187,0.365495,0.354447,-1.122005,0.321194,-0.074198,-0.759797,0.560390,-100.434208,-23.886422,148.867268
05966,NaN,3.808411,-10.280309,-1.763826,0.638133,-0.504412,1.261450,0.444806,0.321972,-1.144119,0.325757,-0.070029,-0.758441,0.560130,-100.149564,-24.562446,148.799366
05967,NaN,3.633033,-10.349967,-1.854841,0.982884,-0.562942,1.254225,0.461211,0.286699,-1.155783,0.330200,-0.065698,-0.757070,0.559908,-99.863118,-25.239227,148.750680
05968,NaN,3.752871,-10.744903,-1.858878,1.142816,-0.673156,1.642936,0.454235,0.299474,-1.201953,0.334816,-0.061227,-0.755680,0.559551,-99.576818,-25.944991,148.694846
05969,NaN,3.924401,-10.907541,-2.228153,1.422874,-0.384908,1.899061,0.448300,0.374034,-1.268127,0.339869,-0.056732,-0.754169,0.559017,-99.273827,-26.692983,148.594613
05970,NaN,3.858875,-10.887374,-2.079459,1.544446,-0.559337,1.808386,0.445425,0.474083,-1.309103,0.345407,-0.052353,-0.752468,0.558341,-98.941559,-27.474518,148.429572
05971,NaN,3.962106,-11.244959,-2.398967,1.936181,-0.419930,2.186240,0.474898,0.558302,-1.389293,0.351463,-0.047865,-0.750518,0.557588,-98.565944,-28.306088,148.211904
05972,NaN,4.360551,-11.245504,-2.301024,1.773727,-0.345769,2.332324,0.542779,0.635941,-1.449444,0.357982,-0.043235,-0.748207,0.556925,-98.122847,-29.178495,147.941139
05973,NaN,3.815197,-11.984034,-2.066837,2.493629,-1.095800,2.638079,0.549928,0.680563,-1.515592,0.364817,-0.038476,-0.745757,0.556124,-97.655676,-30.088362,147.636996
05974,NaN,3.871527,-11.953837,-1.990916,2.617302,-1.151020,2.583562,0.637327,0.710903,-1.592336,0.371975,-0.033343,-0.742962,0.555455,-97.120908,-31.043266,147.307201
05975,NaN,4.011745,-11.719048,-1.783063,2.537888,-1.193420,2.383194,0.665132,0.739708,-1.669955,0.379417,-0.027956,-0.739984,0.554693,-96.551414,-32.039970,146.950316
05976,NaN,3.760618,-11.636736,-1.228797,2.590596,-1.755379,2.072946,0.643845,0.779851,-1.752454,0.387205,-0.022405,-0.736926,0.553633,-95.968638,-33.084443,146.556446
05977,NaN,3.722192,-11.949559,-0.939523,2.809762,-2.165221,2.226449,0.643318,0.816045,-1.847773,0.395340,-0.016610,-0.733733,0.552327,-95.360220,-34.180424,146.126539
05978,NaN,3.562491,-12.153004,-0.636599,3.073360,-2.609378,2.209439,0.598872,0.843954,-1.962933,0.403853,-0.010548,-0.730530,0.550560,-94.751612,-35.340881,145.664260
05979,NaN,3.037247,-12.653130,-0.596075,3.878979,-3.136143,2.220304,0.655518,0.904764,-2.048329,0.412767,-0.004233,-0.726960,0.548757,-94.067094,-36.547239,145.140898
05980,NaN,2.169521,-12.873141,-0.635268,4.841504,-3.649848,1.765689,0.666248,0.985626,-2.152900,0.422209,0.002269,-0.723091,0.546694,-93.318382,-37.811962,144.536848
05981,NaN,1.957264,-13.371564,-0.483779,5.391895,-4.137563,1.877590,0.610227,1.045591,-2.294689,0.432183,0.008995,-0.719133,0.544045,-92.547280,-39.152108,143.862337
05982,NaN,1.047083,-14.747151,-0.680484,7.029827,-5.054443,2.189827,0.467381,1.132156,-2.424066,0.442755,0.015645,-0.715242,0.540511,-91.782587,-40.561690,143.090045
05983,NaN,-1.035968,-16.881355,-1.907817,10.402948,-6.063762,2.215823,0.286592,1.240540,-2.563240,0.454015,0.022092,-0.711453,0.535927,-91.026685,-42.043858,142.196248
05984,NaN,-2.764255,-19.418797,-2.868819,13.608915,-7.365864,2.575862,0.212961,1.359156,-2.658555,0.465865,0.028389,-0.707428,0.530763,-90.199309,-43.572167,141.161130
05985,NaN,-2.838796,-20.920388,-3.985045,15.453127,-7.394449,3.152381,0.385453,1.390185,-2.655882,0.477687,0.034989,-0.702716,0.526101,-89.193874,-45.086310,140.040893
05986,NaN,-1.927045,-19.789328,-4.993826,15.298719,-5.847187,2.516203,0.874054,1.314364,-2.427452,0.488450,0.042142,-0.696785,0.523575,-87.884783,-46.453732,138.915411
05987,NaN,-1.153287,-14.478026,-2.739896,10.742860,-4.870532,-0.907419,1.746350,1.306994,-2.176895,0.498240,0.050565,-0.688488,0.524580,-86.011220,-47.656173,137.725296
05988,NaN,0.196303,-9.681911,0.367993,5.520865,-4.473503,-3.223731,1.994696,1.121495,-2.204357,0.507275,0.060169,-0.679827,0.526200,-84.030479,-48.854501,136.604588
05989,NaN,3.602567,-6.736736,1.646473,1.499011,-2.609367,-2.600663,1.548714,0.750376,-2.181892,0.515016,0.069535,-0.673136,0.526129,-82.474883,-50.042474,135.727438
05990,NaN,4.826264,-7.974774,3.411497,0.841995,-3.989124,-0.762714,1.127941,0.671943,-1.904477,0.521820,0.077071,-0.667741,0.525247,-81.179898,-51.063705,134.889428
05991,NaN,6.889995,-9.070485,2.404514,1.489564,-2.770707,1.395652,0.969687,0.914353,-1.682694,0.528853,0.082816,-0.662132,0.524440,-79.777360,-51.925078,133.809356
05992,NaN,7.645518,-11.201768,2.591821,2.728262,-3.503925,3.261079,1.118119,0.826540,-1.574943,0.535187,0.088808,-0.656336,0.524320,-78.316102,-52.716960,132.774525
05993,NaN,5.509158,-10.927740,1.675821,4.256221,-3.594166,1.211567,1.689867,0.335527,-1.630413,0.539739,0.097798,-0.650248,0.525638,-76.832562,-53.585235,132.132714
05994,NaN,3.692032,-5.169838,-1.958751,3.332879,0.991378,-4.146741,2.151549,-0.075443,-0.934022,0.540819,0.106825,-0.644306,0.530068,-75.486009,-54.111089,131.993691
05995,NaN,1.587088,1.431930,-5.120992,1.301182,5.386285,-10.109019,1.806437,-0.415575,0.188910,0.537956,0.112201,-0.640726,0.536176,-74.810866,-54.065026,132.440106
05996,NaN,-0.593764,2.758366,-8.215823,2.911034,7.495128,-13.100484,0.154248,-1.015043,1.206312,0.531325,0.111463,-0.643711,0.539357,-75.735473,-53.540404,133.697154
05997,NaN,-4.134412,-0.398203,-8.757496,6.976225,5.201491,-14.080858,-1.321087,-1.549062,1.917343,0.521817,0.105953,-0.652404,0.539304,-77.980102,-52.669736,135.559343
05998,NaN,-5.629289,-4.533990,-8.359024,10.400448,2.625191,-12.467064,-2.111953,-2.002311,2.004656,0.510874,0.099280,-0.664296,0.536527,-80.920127,-51.746269,137.749885
05999,NaN,-3.963636,-7.955783,-6.776270,11.082249,0.647667,-8.519251,-1.939134,-2.283530,2.312370,0.497922,0.092757,-0.676368,0.534785,-83.863735,-50.603122,140.103954
06000,NaN,-3.098279,-10.135940,-1.675505,9.085206,-4.036031,-5.774767,-1.240637,-2.614801,2.550152,0.482697,0.088010,-0.687266,0.535652,-86.499637,-49.267799,142.620386
06001,NaN,-2.083803,-9.278052,-1.200979,7.629863,-3.625618,-5.284822,-0.874635,-2.466852,2.317285,0.468289,0.084531,-0.696484,0.537094,-88.670248,-47.997364,144.846845
06002,NaN,2.533683,-9.411149,-1.749732,5.326051,-1.424655,-1.587822,-0.942668,-1.614567,2.155635,0.457179,0.079132,-0.703649,0.538148,-90.231544,-46.765515,146.235981
06003,NaN,9.411637,-12.350385,-1.489133,2.732615,-0.206669,5.543282,-1.019874,-0.632438,2.226633,0.449293,0.070664,-0.708671,0.539378,-91.178017,-45.481942,146.740627
06004,NaN,11.429841,-13.942857,-3.038870,2.963862,1.320332,8.179969,-0.505328,0.180219,2.477484,0.443341,0.060245,-0.710459,0.543201,-91.336711,-44.059190,146.556441
06005,NaN,7.833604,-10.865029,-1.676134,2.291766,0.246668,3.487672,0.197043,0.844515,2.708187,0.438844,0.048762,-0.708802,0.550125,-90.742820,-42.513067,145.857461
06006,NaN,4.874593,-6.948174,-0.013573,0.788748,-0.600660,-1.383471,-0.069470,0.962037,2.655157,0.434872,0.036535,-0.707471,0.555911,-90.280799,-40.990876,145.105437
06007,NaN,4.140178,-7.206502,0.574705,0.869636,-1.369091,-1.641360,-0.858942,0.719012,2.455401,0.430671,0.023981,-0.708684,0.558314,-90.417465,-39.583141,144.558311
06008,NaN,5.038262,-9.975092,-0.305317,2.030367,-1.207154,1.114098,-1.001147,0.421533,2.215146,0.426016,0.012784,-0.710793,0.559572,-90.787144,-38.310697,144.235387
06009,NaN,5.851753,-11.444008,-0.828173,2.308992,-0.863043,2.828981,-0.513155,0.227926,2.107277,0.420902,0.003564,-0.711839,0.562240,-90.966668,-37.102006,144.050945
06010,NaN,5.262342,-10.073473,-0.692025,1.734637,-0.619861,1.423331,-0.162925,0.074662,2.096818,0.415200,-0.004467,-0.712147,0.566070,-91.014791,-35.895573,143.976444
06011,NaN,4.168006,-8.333131,-0.804488,1.525472,-0.318533,-0.591583,-0.331431,-0.200543,2.080942,0.408529,-0.011996,-0.713418,0.569206,-91.269714,-34.697762,144.091890
06012,NaN,4.005167,-7.488892,-1.573636,1.534684,0.580727,-1.332965,-0.735158,-0.496800,2.029190,0.400860,-0.019336,-0.716367,0.570750,-91.863682,-33.521730,144.401488
06013,NaN,4.080054,-7.205617,-3.065780,2.064114,1.949813,-1.451998,-0.843822,-0.655149,2.065695,0.392473,-0.026555,-0.719842,0.571915,-92.560745,-32.321042,144.797535
06014,NaN,3.036785,-6.567144,-3.232450,2.437438,1.835767,-2.499402,-0.620289,-0.732911,2.212183,0.383345,-0.033652,-0.722715,0.574106,-93.137412,-31.028113,145.220432
06015,NaN,1.569657,-5.693321,-2.658176,2.626950,0.999033,-3.978095,-0.587985,-0.922206,2.288198,0.373277,-0.040397,-0.725728,0.576498,-93.737249,-29.684154,145.744004
06016,NaN,0.670131,-5.506613,-2.501964,2.966353,0.534897,-4.526477,-0.776891,-1.204052,2.324337,0.361963,-0.046823,-0.729684,0.578232,-94.511774,-28.299975,146.425049
06017,NaN,0.523072,-6.518766,-2.432757,3.226335,0.110482,-3.627120,-0.969198,-1.454785,2.420306,0.349354,-0.053196,-0.734471,0.579375,-95.437754,-26.842498,147.229384
06018,NaN,1.251643,-7.854441,-2.590559,2.992391,0.195284,-2.004269,-1.033561,-1.585202,2.618312,0.335572,-0.060034,-0.739446,0.580523,-96.396833,-25.250195,148.066377
06019,NaN,2.981176,-8.455139,-2.416941,1.472388,0.736422,-0.674847,-0.881887,-1.499081,2.871787,0.321345,-0.067772,-0.743553,0.582471,-97.200002,-23.510902,148.791900
06020,NaN,5.337848,-7.875058,-2.227161,-0.957018,1.943412,-0.285511,-0.831164,-1.239808,3.138585,0.307209,-0.077173,-0.746793,0.584780,-97.871556,-21.628378,149.302457
06021,NaN,7.580388,-7.459860,-2.091465,-3.261803,3.094692,0.049246,-1.051514,-0.833571,3.303567,0.293946,-0.088675,-0.749751,0.586178,-98.549707,-19.682953,149.521585
06022,NaN,9.663212,-8.523461,-2.730070,-4.744860,4.389382,1.662654,-1.425544,-0.383971,3.390954,0.281831,-0.102357,-0.752863,0.585910,-99.338216,-17.723010,149.435239
06023,NaN,11.819649,-10.195293,-3.538716,-6.179494,5.744336,3.787498,-1.436359,0.142883,3.448789,0.271445,-0.117766,-0.754969,0.585210,-100.035952,-15.785068,149.006428
06024,NaN,13.562593,-10.557409,-3.247333,-8.124256,6.473835,4.258821,-1.349315,0.583646,3.532271,0.262415,-0.134631,-0.755907,0.584480,-100.626285,-13.847831,148.293642
06025,NaN,14.010494,-9.819782,-2.361908,-9.411742,6.455011,3.149802,-1.412203,0.847536,3.522938,0.254287,-0.152252,-0.756402,0.583107,-101.237479,-11.954089,147.414392
06026,NaN,13.832666,-9.197558,-1.537756,-10.071414,6.133699,1.986615,-1.636947,0.852170,3.342996,0.246421,-0.169445,-0.757407,0.580430,-102.006581,-10.170683,146.536686
06027,NaN,13.838890,-9.095066,-0.567236,-10.903571,5.624111,1.323655,-1.743878,0.739946,3.020184,0.238907,-0.185153,-0.758871,0.576851,-102.874702,-8.568195,145.741702
06028,NaN,14.680539,-8.844744,0.400873,-12.382915,5.599974,0.636960,-1.648322,0.645781,2.578421,0.232320,-0.198755,-0.760371,0.573026,-103.722052,-7.210536,145.037654
06029,NaN,16.485238,-8.546863,1.751073,-14.804101,5.845237,-0.089764,-1.427897,0.614332,2.119178,0.227110,-0.210216,-0.761569,0.569423,-104.464368,-6.114514,144.398561
06030,NaN,18.144928,-7.844687,3.077020,-16.993924,6.165468,-1.243708,-1.163827,0.682540,1.681722,0.223645,-0.219878,-0.762293,0.566168,-105.068588,-5.278085,143.774081
06031,NaN,18.573195,-6.603833,4.255655,-17.986152,6.039771,-2.979236,-1.125463,0.750431,1.275315,0.221613,-0.228116,-0.763196,0.562479,-105.658938,-4.683287,143.165761
06032,NaN,18.500710,-6.092343,4.935851,-18.296647,5.800252,-3.867914,-1.120947,0.839731,0.831254,0.221162,-0.234886,-0.764440,0.558164,-106.253543,-4.354095,142.572617
06033,NaN,18.542129,-8.710869,4.623675,-18.434477,5.507087,-1.391960,-1.388367,1.017441,0.186366,0.222857,-0.239968,-0.766933,0.551872,-107.002327,-4.414425,141.983846
06034,NaN,19.191413,-9.304635,6.564733,-20.152190,4.483423,-1.341283,0.112682,1.234329,0.073927,0.227492,-0.243524,-0.765139,0.550914,-106.882472,-4.577302,141.294987
06035,NaN,16.481855,-4.681878,12.581618,-21.136832,-0.145750,-7.559844,0.757066,0.961177,-0.464632,0.233332,-0.243532,-0.762501,0.552124,-106.409427,-4.985946,140.844119
06036,NaN,15.557869,-4.772057,10.956458,-19.393714,0.497175,-6.897570,0.031067,0.280275,-1.054295,0.237326,-0.240238,-0.763354,0.550683,-106.391482,-5.608910,140.862829
06037,NaN,14.123308,-3.980400,3.876331,-13.745005,4.887440,-5.626882,0.380959,-0.299170,-1.392919,0.240437,-0.233643,-0.764304,0.550854,-106.212338,-6.322637,141.255594
06038,NaN,1.671837,-1.568022,-11.045181,5.364048,8.683893,-5.010378,-0.783188,-2.020066,-1.323575,0.235415,-0.223932,-0.770367,0.548606,-106.810605,-6.719579,142.591524
06039,NaN,-21.042015,-12.376342,-16.903686,25.763120,-3.538591,4.517930,-1.746964,-3.618454,-0.786650,0.221596,-0.212991,-0.780129,0.544912,-108.055530,-6.524254,144.720744
06040,NaN,-16.845690,-64.773234,3.076019,5.791657,-33.492609,47.919454,-4.427946,-3.701058,-1.353737,0.206018,-0.202434,-0.797385,0.529862,-110.850313,-6.547488,146.995100
