// General information: 
//  MT Manager version: 2019.0.1 
//  XDA version: 2019.0.1 build 2740 rev 84096 built on 2019-01-30
// Device information: 
//  DeviceId: 00B4381A
//  ProductCode: MTW2-3A7G6
//  Firmware Version: 4.3.4
//  Hardware Version: 1.1.0
// Device settings: 
//  Filter Profile: human(46.1)
//  Option Flags: Orientation Smoother Disabled, AHS Disabled, ICC Disabled
// Coordinate system: ENU
PacketCounter,SampleTimeFine,Acc_X,Acc_Y,Acc_Z,FreeAcc_E,FreeAcc_N,FreeAcc_U,Gyr_X,Gyr_Y,Gyr_Z,Quat_q0,Quat_q1,Quat_q2,Quat_q3,Roll,Pitch,Yaw
27856,NaN,6.679105,6.428048,3.467740,-0.027360,0.378418,0.077283,0.052095,-0.065935,-0.054224,0.011702,-0.400099,-0.421008,-0.813964,64.299489,-41.390254,154.934134
27857,NaN,6.769872,6.470007,3.592352,0.008897,0.477678,0.205740,0.049657,-0.090872,-0.048465,0.011388,-0.400352,-0.421374,-0.813653,64.389158,-41.383339,154.850604
27858,NaN,6.836400,6.582567,3.538727,-0.025675,0.400125,0.308003,0.042223,-0.112576,-0.040681,0.011047,-0.400710,-0.421694,-0.813316,64.482312,-41.385702,154.755075
27859,NaN,6.796875,6.701936,3.560438,0.063956,0.336302,0.369305,0.027825,-0.127004,-0.034751,0.010670,-0.401140,-0.421946,-0.812978,64.572953,-41.394583,154.651162
27860,NaN,6.982349,6.793970,3.503599,-0.060189,0.305417,0.535720,-0.005600,-0.093313,-0.028377,0.010322,-0.401448,-0.422046,-0.812780,64.627294,-41.398328,154.572806
27861,NaN,7.081896,6.861350,3.444965,-0.139605,0.257519,0.628258,-0.024203,-0.024475,-0.015660,0.010135,-0.401504,-0.422042,-0.812756,64.637231,-41.391783,154.545869
27862,NaN,7.068725,6.812891,3.326433,-0.226966,0.201076,0.548565,-0.041743,0.055824,0.005397,0.010166,-0.401279,-0.421919,-0.812931,64.595445,-41.376334,154.581428
27863,NaN,6.881780,6.765807,3.165871,-0.226439,0.054141,0.341305,-0.056376,0.098818,0.018551,0.010313,-0.400908,-0.421710,-0.813220,64.523349,-41.357169,154.650712
27864,NaN,6.700763,6.673206,3.083156,-0.197329,-0.009693,0.132096,-0.066218,0.110735,0.021123,0.010476,-0.400493,-0.421452,-0.813556,64.439125,-41.336305,154.729333
27865,NaN,6.585627,6.584969,3.124272,-0.131846,0.030665,0.009483,-0.066293,0.106088,0.018434,0.010617,-0.400093,-0.421202,-0.813881,64.358183,-41.315135,154.803465
27866,NaN,6.421056,6.515526,3.108059,-0.062097,0.004081,-0.151518,-0.067268,0.084363,0.016621,0.010706,-0.399776,-0.420950,-0.814165,64.286546,-41.298437,154.862426
27867,NaN,6.369479,6.506415,3.148248,-0.009923,0.015458,-0.178642,-0.057452,0.053820,0.010919,0.010724,-0.399572,-0.420754,-0.814367,64.236106,-41.286259,154.898060
27868,NaN,6.336927,6.491616,3.157196,0.009268,0.016581,-0.207207,-0.053723,0.020257,0.011368,0.010682,-0.399505,-0.420571,-0.814495,64.202463,-41.282629,154.910981
27869,NaN,6.406689,6.547790,3.151676,-0.023703,-0.004569,-0.124979,-0.048998,0.008376,0.013681,0.010633,-0.399491,-0.420406,-0.814587,64.176863,-41.283179,154.916313
27870,NaN,6.501338,6.578163,3.104461,-0.109125,-0.029580,-0.057458,-0.043816,0.010603,0.010203,0.010586,-0.399460,-0.420267,-0.814675,64.153588,-41.281415,154.922302
27871,NaN,6.505355,6.663891,3.113352,-0.077828,-0.080396,0.006046,-0.037353,0.032007,0.015016,0.010616,-0.399352,-0.420145,-0.814790,64.123672,-41.276744,154.944291
27872,NaN,6.535613,6.727879,3.124946,-0.071945,-0.108113,0.073010,-0.042310,0.066344,0.015135,0.010709,-0.399104,-0.419999,-0.814986,64.074930,-41.263575,154.990180
27873,NaN,6.572321,6.718129,3.118232,-0.111000,-0.100128,0.088306,-0.037053,0.115927,0.011631,0.010902,-0.398647,-0.419881,-0.815268,64.008040,-41.236085,155.068521
27874,NaN,6.497614,6.711685,3.148323,-0.052923,-0.105558,0.044477,-0.034876,0.174899,0.007580,0.011206,-0.397941,-0.419774,-0.815664,63.916441,-41.191598,155.185929
27875,NaN,6.440524,6.645899,3.143921,-0.053255,-0.091899,-0.039190,-0.027918,0.220520,0.000309,0.011590,-0.397032,-0.419710,-0.816134,63.810483,-41.131704,155.331716
27876,NaN,6.498428,6.616007,3.147060,-0.117745,-0.060832,-0.020471,-0.026200,0.259248,-0.006163,0.011962,-0.395987,-0.419625,-0.816680,63.689408,-41.058489,155.491777
27877,NaN,6.460483,6.553978,3.201658,-0.096963,-0.003435,-0.069298,-0.019777,0.269843,-0.012182,0.012415,-0.394850,-0.419614,-0.817229,63.569551,-40.979182,155.666266
27878,NaN,6.415018,6.454367,3.217171,-0.109221,0.049834,-0.161415,-0.016191,0.253516,-0.021792,0.012730,-0.393794,-0.419600,-0.817741,63.461222,-40.898867,155.816189
27879,NaN,6.466468,6.450663,3.273669,-0.127168,0.101587,-0.111313,-0.007915,0.211495,-0.029711,0.013012,-0.392856,-0.419675,-0.818149,63.378795,-40.825056,155.944405
27880,NaN,6.508030,6.496112,3.436151,-0.052078,0.194600,0.001611,0.000426,0.174114,-0.034920,0.013140,-0.392096,-0.419760,-0.818468,63.318760,-40.758130,156.035576
27881,NaN,6.546085,6.587154,3.520305,-0.005627,0.204457,0.116690,0.005783,0.128917,-0.030714,0.013272,-0.391492,-0.419897,-0.818684,63.281320,-40.704862,156.107215
27882,NaN,6.543788,6.735288,3.582773,0.078085,0.151462,0.236815,0.004403,0.082546,-0.030404,0.013304,-0.391079,-0.420029,-0.818814,63.263060,-40.663651,156.147701
27883,NaN,6.675997,6.887099,3.709156,0.112819,0.182834,0.468983,-0.009697,0.041067,-0.022332,0.013255,-0.390853,-0.420092,-0.818890,63.253659,-40.637281,156.162804
27884,NaN,6.722900,6.947936,3.690834,0.085706,0.145104,0.534537,-0.019922,0.034110,-0.009105,0.013228,-0.390684,-0.420086,-0.818974,63.238165,-40.619603,156.178108
27885,NaN,6.675215,6.991885,3.550243,0.041687,0.002753,0.485246,-0.023864,0.047244,-0.004230,0.013238,-0.390472,-0.420056,-0.819090,63.213958,-40.600892,156.203498
27886,NaN,6.558246,6.918487,3.368459,-0.022006,-0.115146,0.297150,-0.031339,0.070491,0.002104,0.013309,-0.390179,-0.419978,-0.819269,63.173463,-40.579448,156.246939
27887,NaN,6.391477,6.842329,3.260787,-0.006273,-0.196122,0.100065,-0.034718,0.089710,0.009138,0.013443,-0.389822,-0.419874,-0.819490,63.121537,-40.556553,156.305410
27888,NaN,6.195380,6.703790,3.189500,0.030444,-0.221278,-0.145912,-0.036873,0.105833,0.014300,0.013627,-0.389409,-0.419748,-0.819748,63.059862,-40.532121,156.376679
27889,NaN,6.096497,6.606755,3.154373,0.035989,-0.218580,-0.288115,-0.033260,0.122042,0.008441,0.013828,-0.388918,-0.419649,-0.820028,62.994928,-40.500375,156.456520
27890,NaN,6.020932,6.538466,3.087749,0.014554,-0.249036,-0.406567,-0.029259,0.132951,-0.002218,0.014018,-0.388358,-0.419584,-0.820324,62.929510,-40.460341,156.540334
27891,NaN,5.999970,6.494391,3.158787,0.048897,-0.181295,-0.425493,-0.022240,0.129931,-0.015091,0.014160,-0.387784,-0.419575,-0.820597,62.872898,-40.414400,156.617207
27892,NaN,5.899580,6.462121,3.214587,0.133954,-0.153854,-0.493031,-0.010796,0.093578,-0.026315,0.014202,-0.387334,-0.419636,-0.820778,62.840977,-40.372177,156.665848
27893,NaN,5.977192,6.523191,3.409228,0.216603,-0.033317,-0.333570,-0.011261,0.020433,-0.030081,0.014075,-0.387177,-0.419708,-0.820817,62.841606,-40.347170,156.664169
27894,NaN,6.122156,6.551030,3.544883,0.207915,0.089988,-0.173618,-0.013048,-0.048231,-0.026374,0.013814,-0.387309,-0.419770,-0.820728,62.869859,-40.341954,156.617890
27895,NaN,6.371160,6.649803,3.667625,0.146985,0.191455,0.097144,-0.015365,-0.093006,-0.022202,0.013473,-0.387634,-0.419818,-0.820556,62.915515,-40.350580,156.543028
27896,NaN,6.555277,6.714932,3.708570,0.070784,0.238266,0.274616,-0.023782,-0.100651,-0.015737,0.013125,-0.388004,-0.419818,-0.820387,62.957899,-40.364389,156.465332
27897,NaN,6.644450,6.683740,3.704905,0.000365,0.286321,0.309833,-0.032446,-0.093911,0.001133,0.012845,-0.388382,-0.419750,-0.820246,62.989054,-40.385081,156.397790
27898,NaN,6.749682,6.633178,3.547931,-0.184107,0.243018,0.289398,-0.036740,-0.073261,0.012270,0.012645,-0.388699,-0.419641,-0.820155,63.005980,-40.406046,156.348053
27899,NaN,6.792738,6.640754,3.359829,-0.325312,0.120100,0.257522,-0.027782,-0.045374,0.026152,0.012578,-0.388931,-0.419541,-0.820098,63.013241,-40.426857,156.321546
27900,NaN,6.735317,6.642896,3.318462,-0.307737,0.070961,0.207543,-0.024647,-0.006290,0.032696,0.012627,-0.389015,-0.419437,-0.820110,63.003475,-40.440897,156.323772
27901,NaN,6.570365,6.615295,3.171444,-0.293498,-0.066586,0.031057,-0.020591,0.017455,0.034578,0.012740,-0.389007,-0.419346,-0.820159,62.985660,-40.449669,156.342286
27902,NaN,6.472734,6.625024,3.147135,-0.237036,-0.122399,-0.034113,-0.014003,0.025724,0.034864,0.012884,-0.388964,-0.419279,-0.820211,62.967592,-40.456410,156.366494
27903,NaN,6.447448,6.586159,3.097648,-0.264303,-0.142098,-0.094022,-0.008790,0.041838,0.032068,0.013061,-0.388849,-0.419240,-0.820283,62.946475,-40.457540,156.400512
27904,NaN,6.312815,6.616559,3.215003,-0.087875,-0.123416,-0.120228,0.000884,0.062533,0.025735,0.013275,-0.388636,-0.419249,-0.820376,62.922981,-40.450080,156.446386
27905,NaN,6.270922,6.601142,3.363268,0.025893,-0.024693,-0.106513,0.004912,0.075767,0.016454,0.013486,-0.388348,-0.419294,-0.820485,62.898446,-40.434372,156.497786
27906,NaN,6.161538,6.553505,3.431592,0.124448,0.019165,-0.186009,0.009024,0.079674,0.009363,0.013684,-0.388029,-0.419368,-0.820595,62.875825,-40.414072,156.549538
27907,NaN,6.181709,6.559709,3.533495,0.172352,0.091531,-0.133286,0.014200,0.071695,0.012365,0.013888,-0.387749,-0.419459,-0.820678,62.859341,-40.397314,156.596764
27908,NaN,6.240084,6.554404,3.578349,0.154332,0.143434,-0.083399,0.013610,0.063317,0.008819,0.014059,-0.387495,-0.419553,-0.820747,62.846507,-40.380984,156.637439
27909,NaN,6.185328,6.539553,3.527322,0.152470,0.100532,-0.146629,0.010056,0.057268,0.008296,0.014207,-0.387266,-0.419636,-0.820810,62.834849,-40.365907,156.673582
27910,NaN,6.196184,6.553604,3.513849,0.138783,0.085363,-0.134722,0.006600,0.035975,0.001546,0.014279,-0.387109,-0.419718,-0.820841,62.831552,-40.353076,156.693576
27911,NaN,6.234552,6.546160,3.500629,0.099692,0.093400,-0.119515,0.005375,0.011327,0.002204,0.014297,-0.387056,-0.419797,-0.820825,62.838483,-40.346909,156.696884
27912,NaN,6.299065,6.571115,3.496051,0.060616,0.095477,-0.062439,0.012173,-0.016562,-0.000752,0.014257,-0.387110,-0.419909,-0.820743,62.861581,-40.346496,156.680644
27913,NaN,6.382829,6.648398,3.512358,0.041076,0.085441,0.049836,0.012205,-0.042009,-0.000587,0.014165,-0.387269,-0.420025,-0.820610,62.896147,-40.352839,156.647312
27914,NaN,6.440021,6.685080,3.433066,-0.032570,0.027115,0.084196,0.010254,-0.048190,0.001958,0.014064,-0.387459,-0.420126,-0.820471,62.931308,-40.361987,156.610642
27915,NaN,6.437870,6.731118,3.354313,-0.061350,-0.054692,0.086746,0.012870,-0.037320,-0.004019,0.013969,-0.387591,-0.420251,-0.820346,62.964999,-40.365325,156.579260
27916,NaN,6.420603,6.679297,3.328664,-0.081058,-0.041157,0.031544,0.009076,-0.028990,0.005872,0.013927,-0.387711,-0.420340,-0.820244,62.990475,-40.371622,156.557101
27917,NaN,6.510244,6.669744,3.197721,-0.226547,-0.097109,0.037867,0.011769,-0.019220,0.011866,0.013933,-0.387803,-0.420429,-0.820155,63.012175,-40.378341,156.543263
27918,NaN,6.574627,6.690191,3.149766,-0.292620,-0.122067,0.076947,0.016893,-0.009942,0.004887,0.013940,-0.387841,-0.420549,-0.820075,63.033939,-40.379136,156.533506
27919,NaN,6.503668,6.685915,3.164482,-0.234503,-0.127722,0.033216,0.024600,0.002286,-0.000294,0.013966,-0.387818,-0.420712,-0.820002,63.056342,-40.374050,156.529932
27920,NaN,6.304871,6.699112,3.322400,0.007791,-0.082729,-0.032047,0.027772,0.005386,-0.004730,0.013988,-0.387773,-0.420895,-0.819929,63.079915,-40.365970,156.527108
27921,NaN,6.195735,6.649352,3.342453,0.079360,-0.066067,-0.129592,0.026688,-0.004528,-0.007644,0.013974,-0.387763,-0.421082,-0.819838,63.108087,-40.358893,156.516471
27922,NaN,6.231031,6.675334,3.464372,0.140755,0.017036,-0.047054,0.019750,-0.019098,-0.002316,0.013938,-0.387824,-0.421230,-0.819734,63.137287,-40.358403,156.498034
27923,NaN,6.312789,6.673458,3.559451,0.143777,0.113115,0.037316,0.009839,-0.025692,-0.003151,0.013865,-0.387910,-0.421340,-0.819638,63.164006,-40.359092,156.474734
27924,NaN,6.284151,6.674501,3.685398,0.244000,0.195436,0.062734,0.007037,-0.028431,-0.012721,0.013741,-0.387989,-0.421456,-0.819543,63.192223,-40.355565,156.446265
27925,NaN,6.217799,6.642347,3.603469,0.228649,0.141770,-0.030336,-0.002143,-0.025777,-0.014210,0.013599,-0.388054,-0.421538,-0.819472,63.214538,-40.350604,156.419161
27926,NaN,6.333406,6.674165,3.567790,0.137200,0.134176,0.053863,-0.006884,-0.026469,-0.011444,0.013459,-0.388127,-0.421595,-0.819411,63.233515,-40.347314,156.392842
27927,NaN,6.447853,6.701565,3.490607,0.018750,0.099520,0.120080,-0.008630,-0.013344,-0.009714,0.013350,-0.388150,-0.421641,-0.819378,63.245717,-40.341432,156.375613
27928,NaN,6.560214,6.724763,3.373314,-0.126717,0.037686,0.168326,-0.016192,0.024839,-0.014735,0.013287,-0.388007,-0.421661,-0.819436,63.237610,-40.323190,156.382680
27929,NaN,6.479718,6.620138,3.261972,-0.181013,0.002272,0.006715,-0.015057,0.058816,-0.017620,0.013284,-0.387718,-0.421692,-0.819557,63.216534,-40.294643,156.411188
27930,NaN,6.493336,6.606789,3.154572,-0.268169,-0.060887,-0.030623,0.001202,0.079824,-0.015863,0.013366,-0.387346,-0.421782,-0.819686,63.194853,-40.261648,156.454744
27931,NaN,6.499952,6.676044,3.152724,-0.256411,-0.104908,0.020006,0.009683,0.089689,-0.020883,0.013464,-0.386923,-0.421918,-0.819814,63.175365,-40.223437,156.502773
27932,NaN,6.489340,6.702172,3.212357,-0.210161,-0.082656,0.051332,0.021691,0.103309,-0.026756,0.013590,-0.386430,-0.422111,-0.819945,63.157828,-40.178767,156.558137
27933,NaN,6.393137,6.763671,3.312558,-0.066646,-0.079946,0.065655,0.023209,0.096323,-0.027842,0.013699,-0.385963,-0.422316,-0.820057,63.144861,-40.135260,156.608158
27934,NaN,6.385904,6.744749,3.446154,0.008144,0.025549,0.094213,0.026714,0.078297,-0.021504,0.013802,-0.385584,-0.422521,-0.820129,63.139948,-40.099706,156.648413
27935,NaN,6.443135,6.745962,3.532818,0.017073,0.104870,0.161856,0.021659,0.059715,-0.012342,0.013894,-0.385300,-0.422691,-0.820173,63.138553,-40.073591,156.679157
27936,NaN,6.443886,6.701864,3.610393,0.045403,0.189464,0.159055,0.020852,0.054140,-0.004691,0.014006,-0.385055,-0.422842,-0.820208,63.137065,-40.052924,156.709035
27937,NaN,6.440864,6.760695,3.663538,0.097622,0.189134,0.215669,0.012611,0.051955,0.000316,0.014116,-0.384831,-0.422951,-0.820255,63.131097,-40.035286,156.738857
27938,NaN,6.497973,6.751565,3.666894,0.052542,0.214124,0.247371,0.002888,0.072838,0.008449,0.014286,-0.384538,-0.423001,-0.820364,63.108394,-40.016474,156.785638
27939,NaN,6.455581,6.754241,3.644446,0.064235,0.181706,0.214233,-0.000118,0.100557,0.011318,0.014520,-0.384138,-0.423033,-0.820530,63.071937,-39.991836,156.851566
27940,NaN,6.410614,6.743731,3.497706,-0.005052,0.067733,0.127292,-0.007593,0.123689,0.017719,0.014814,-0.383657,-0.423019,-0.820757,63.019557,-39.964482,156.935223
27941,NaN,6.358335,6.753196,3.364253,-0.054860,-0.052432,0.053746,0.004978,0.141066,0.012703,0.015149,-0.383094,-0.423066,-0.820990,62.968520,-39.929927,157.028487
27942,NaN,6.287077,6.773219,3.300971,-0.044735,-0.135263,-0.000453,-0.003002,0.136049,0.006529,0.015433,-0.382538,-0.423090,-0.821232,62.916121,-39.893547,157.116453
27943,NaN,6.107926,6.746532,3.299150,0.064197,-0.175895,-0.134269,-0.003605,0.097748,0.000323,0.015609,-0.382126,-0.423129,-0.821400,62.881518,-39.863866,157.176546
27944,NaN,6.094243,6.674444,3.268868,0.025040,-0.156419,-0.202880,-0.003181,0.053271,-0.005007,0.015670,-0.381885,-0.423181,-0.821484,62.866926,-39.843138,157.205466
27945,NaN,6.097127,6.575607,3.337628,0.027929,-0.042959,-0.244474,0.002086,0.016305,-0.008877,0.015647,-0.381788,-0.423267,-0.821485,62.872305,-39.830022,157.208289
27946,NaN,6.161377,6.609880,3.418480,0.042793,0.013715,-0.151576,0.014396,-0.001604,-0.015180,0.015584,-0.381750,-0.423415,-0.821428,62.893324,-39.818435,157.197300
27947,NaN,6.205509,6.642245,3.441483,0.036636,0.026337,-0.093143,0.021672,-0.016330,-0.019523,0.015485,-0.381763,-0.423604,-0.821326,62.926110,-39.808404,157.174846
27948,NaN,6.225504,6.651058,3.537433,0.084429,0.098997,-0.040790,0.014500,-0.019093,-0.022818,0.015355,-0.381780,-0.423769,-0.821236,62.956306,-39.797527,157.149846
27949,NaN,6.277203,6.663436,3.547533,0.058805,0.117852,0.004252,0.014750,-0.026312,-0.011478,0.015255,-0.381851,-0.423915,-0.821129,62.987607,-39.794183,157.123508
27950,NaN,6.343009,6.631277,3.491133,-0.032714,0.121879,0.004628,0.008920,-0.023064,-0.011059,0.015155,-0.381910,-0.424036,-0.821041,63.013830,-39.790331,157.099823
27951,NaN,6.332830,6.693037,3.384052,-0.068979,0.006665,0.003039,0.006761,-0.018536,-0.005108,0.015082,-0.381964,-0.424136,-0.820966,63.035862,-39.788199,157.080813
27952,NaN,6.371841,6.681644,3.326866,-0.135089,-0.012466,0.000281,0.006106,-0.007123,0.000353,0.015055,-0.381982,-0.424221,-0.820914,63.051151,-39.785947,157.071379
27953,NaN,6.376436,6.711672,3.280860,-0.156308,-0.060896,0.007770,0.009304,0.009784,-0.003424,0.015054,-0.381922,-0.424327,-0.820887,63.062228,-39.777316,157.071764
27954,NaN,6.400022,6.740305,3.250217,-0.183470,-0.092429,0.031788,0.007193,0.033747,-0.006012,0.015094,-0.381758,-0.424426,-0.820911,63.062086,-39.761389,157.087922
27955,NaN,6.404114,6.783647,3.333209,-0.123755,-0.059228,0.092968,0.008559,0.056916,-0.012232,0.015155,-0.381487,-0.424542,-0.820977,63.054618,-39.736023,157.116644
27956,NaN,6.355333,6.820663,3.447605,-0.011648,-0.016329,0.126995,-0.002744,0.081228,-0.017756,0.015225,-0.381105,-0.424618,-0.821113,63.031346,-39.701609,157.159758
27957,NaN,6.257200,6.734380,3.491648,0.048027,0.039485,0.020529,-0.016316,0.086095,-0.011596,0.015303,-0.380716,-0.424629,-0.821286,62.997183,-39.668965,157.208003
27958,NaN,6.249470,6.704342,3.543031,0.068808,0.090665,0.013003,-0.021848,0.059030,0.001687,0.015370,-0.380468,-0.424591,-0.821420,62.968123,-39.650225,157.243005
27959,NaN,6.293803,6.671929,3.479496,-0.016754,0.077749,-0.003143,-0.018558,0.041289,0.000214,0.015397,-0.380289,-0.424573,-0.821512,62.949144,-39.635243,157.265479
27960,NaN,6.292577,6.671489,3.482556,-0.016980,0.079093,-0.003154,-0.014829,0.020555,-0.004698,0.015369,-0.380184,-0.424579,-0.821558,62.941718,-39.623239,157.272797
27961,NaN,6.317627,6.707774,3.536526,0.009778,0.102099,0.056616,-0.012181,-0.011122,-0.000604,0.015294,-0.380218,-0.424592,-0.821536,62.948724,-39.621495,157.260265
27962,NaN,6.393622,6.799948,3.525594,-0.017402,0.059390,0.164470,-0.005352,-0.037719,0.009806,0.015220,-0.380383,-0.424615,-0.821450,62.968335,-39.632098,157.233870
27963,NaN,6.414017,6.851104,3.546171,0.001835,0.049036,0.219768,-0.008506,-0.050083,0.016368,0.015139,-0.380612,-0.424614,-0.821345,62.990266,-39.649152,157.201248
27964,NaN,6.448784,6.853195,3.457980,-0.071784,-0.003496,0.212558,-0.015356,-0.053264,0.028609,0.015090,-0.380881,-0.424560,-0.821249,63.006599,-39.673393,157.170952
27965,NaN,6.463579,6.851933,3.314388,-0.166397,-0.100198,0.171014,-0.013164,-0.028980,0.037328,0.015131,-0.381069,-0.424499,-0.821193,63.012439,-39.695648,157.159380
27966,NaN,6.435089,6.770198,3.180637,-0.253510,-0.152355,0.050118,-0.009870,-0.005282,0.037785,0.015228,-0.381162,-0.424446,-0.821176,63.009792,-39.711953,157.163462
27967,NaN,6.298771,6.779032,3.082276,-0.211915,-0.269879,-0.065254,-0.000938,0.012027,0.040622,0.015393,-0.381187,-0.424426,-0.821171,63.004541,-39.725226,157.180218
27968,NaN,6.238340,6.698049,3.077358,-0.198646,-0.240958,-0.161089,0.004816,0.015784,0.036648,0.015560,-0.381189,-0.424434,-0.821163,63.001542,-39.735547,157.198129
27969,NaN,6.243042,6.655008,3.195352,-0.143385,-0.129110,-0.146367,0.012324,0.020282,0.031556,0.015731,-0.381160,-0.424485,-0.821147,63.002337,-39.742043,157.217304
27970,NaN,6.166495,6.677219,3.307621,-0.011832,-0.086741,-0.140893,0.015265,0.027233,0.026391,0.015901,-0.381092,-0.424555,-0.821139,63.002763,-39.744201,157.239449
27971,NaN,6.180616,6.702865,3.419249,0.055364,-0.020003,-0.075326,0.009339,0.035225,0.021843,0.016058,-0.380982,-0.424611,-0.821158,62.997604,-39.741851,157.265261
27972,NaN,6.175928,6.680945,3.551139,0.130058,0.085681,-0.047267,0.009133,0.056249,0.011160,0.016214,-0.380763,-0.424682,-0.821220,62.985421,-39.728605,157.301340
27973,NaN,6.187315,6.707578,3.665415,0.197243,0.152455,0.018263,0.001792,0.076780,-0.001424,0.016349,-0.380433,-0.424747,-0.821336,62.963368,-39.703552,157.346839
27974,NaN,6.199418,6.680543,3.772061,0.239024,0.247911,0.044913,-0.006631,0.074813,-0.004235,0.016457,-0.380106,-0.424784,-0.821467,62.937800,-39.677798,157.390577
27975,NaN,6.275930,6.669240,3.791349,0.187926,0.290085,0.092913,-0.011526,0.052437,0.005597,0.016543,-0.379892,-0.424783,-0.821564,62.916961,-39.662646,157.422263
27976,NaN,6.310860,6.763976,3.756229,0.172682,0.213570,0.167901,-0.017738,0.014801,0.013842,0.016575,-0.379850,-0.424743,-0.821603,62.906432,-39.661681,157.432191
27977,NaN,6.247119,6.724613,3.634019,0.130502,0.131952,0.057397,-0.030566,-0.031051,0.021692,0.016515,-0.380015,-0.424641,-0.821581,62.906524,-39.676516,157.414000
27978,NaN,6.229168,6.772871,3.585634,0.134706,0.060369,0.061992,-0.043563,-0.077794,0.033754,0.016378,-0.380399,-0.424463,-0.821498,62.916086,-39.709679,157.368745
27979,NaN,6.228957,6.726644,3.502161,0.074598,0.029753,0.000891,-0.047780,-0.109327,0.039522,0.016192,-0.380925,-0.424263,-0.821362,62.935671,-39.754018,157.304650
27980,NaN,6.176311,6.723322,3.413094,0.065362,-0.047216,-0.066274,-0.042534,-0.133601,0.048289,0.016000,-0.381568,-0.424067,-0.821168,62.966532,-39.809200,157.227448
27981,NaN,6.088595,6.806993,3.257036,0.072533,-0.236676,-0.119745,-0.038921,-0.173852,0.051932,0.015745,-0.382383,-0.423884,-0.820888,63.016187,-39.876607,157.124491
27982,NaN,6.056364,6.846887,3.102087,0.028842,-0.379899,-0.167110,-0.038220,-0.222240,0.072787,0.015476,-0.383441,-0.423665,-0.820513,63.082271,-39.967259,156.996498
27983,NaN,6.201814,6.848228,3.200620,0.006210,-0.265470,-0.038530,-0.047802,-0.270924,0.085681,0.015137,-0.384726,-0.423387,-0.820061,63.161707,-40.076878,156.839704
27984,NaN,6.411900,7.037687,3.361251,0.047834,-0.208397,0.281555,-0.047982,-0.314441,0.117817,0.014769,-0.386292,-0.423014,-0.819524,63.253114,-40.214181,156.654737
27985,NaN,6.522395,7.261400,3.545535,0.192747,-0.187879,0.568442,-0.055560,-0.351041,0.154465,0.014527,-0.388050,-0.422575,-0.818924,63.349140,-40.379257,156.466306
27986,NaN,6.197405,7.409955,3.887379,0.722438,-0.145760,0.574018,-0.121208,-0.455578,0.227564,0.014165,-0.390429,-0.421696,-0.818253,63.438158,-40.608411,156.221336
27987,NaN,6.250928,7.480497,4.295102,1.017243,0.100042,0.790836,-0.228252,-0.674799,0.288705,0.013453,-0.393801,-0.420305,-0.817364,63.551287,-40.924616,155.856985
27988,NaN,6.693764,7.332032,4.643950,0.953008,0.558144,1.091946,-0.325237,-0.896995,0.384039,0.012403,-0.398315,-0.418302,-0.816220,63.690928,-41.345732,155.360691
27989,NaN,7.214109,6.826028,4.607430,0.489169,1.004620,1.078455,-0.363604,-1.052210,0.422331,0.011177,-0.403497,-0.416098,-0.814818,63.877018,-41.824756,154.775482
27990,NaN,7.478080,6.830496,4.552793,0.385782,1.026471,1.237275,-0.403849,-1.125996,0.512997,0.010017,-0.409190,-0.413498,-0.813316,64.061907,-42.367656,154.153547
27991,NaN,7.982401,6.701166,4.373983,0.003876,1.124008,1.434152,-0.494662,-1.132356,0.564556,0.008936,-0.414967,-0.410441,-0.811949,64.195681,-42.937397,153.546657
27992,NaN,8.602514,6.142010,4.285164,-0.543428,1.601226,1.466926,-0.562087,-1.013804,0.599278,0.008035,-0.420352,-0.406979,-0.810930,64.233898,-43.495109,153.019750
27993,NaN,8.610661,5.702757,4.173131,-0.676509,1.779186,1.162549,-0.561425,-0.780972,0.601826,0.007683,-0.424749,-0.403526,-0.810368,64.163722,-43.995897,152.664696
27994,NaN,8.071170,5.717981,4.273200,-0.173499,1.602041,0.841039,-0.570274,-0.569734,0.645248,0.007853,-0.428399,-0.399885,-0.810249,63.974313,-44.467199,152.466661
27995,NaN,8.118582,5.598193,4.369701,-0.112181,1.696991,0.838713,-0.611111,-0.412107,0.620305,0.008210,-0.431318,-0.396156,-0.810529,63.688433,-44.885917,152.383787
27996,NaN,7.992655,5.736858,4.697526,0.299555,1.697999,0.952398,-0.633390,-0.283973,0.668109,0.008900,-0.433839,-0.392179,-0.811111,63.309697,-45.296988,152.404546
27997,NaN,8.163400,5.791978,4.850415,0.372661,1.726390,1.168857,-0.677453,-0.254441,0.746917,0.009938,-0.436350,-0.387882,-0.811818,62.866549,-45.740234,152.490024
27998,NaN,8.812980,5.607320,4.750263,-0.110622,1.900563,1.503232,-0.753095,-0.193949,0.805319,0.011102,-0.438753,-0.383092,-0.812781,62.326233,-46.197198,152.639396
27999,NaN,9.080433,5.637185,4.353913,-0.491535,1.600172,1.605939,-0.758858,-0.090339,0.920925,0.012985,-0.440909,-0.378050,-0.813946,61.689155,-46.683142,152.926805
28000,NaN,9.016016,5.286991,3.758491,-0.951204,1.333049,1.172927,-0.783149,0.029246,0.989363,0.015252,-0.442726,-0.372692,-0.815391,60.942732,-47.168559,153.331890
28001,NaN,8.967698,4.638643,3.254878,-1.474955,1.347252,0.605509,-0.764185,0.181838,0.993507,0.017928,-0.443876,-0.367421,-0.817101,60.112171,-47.608705,153.873630
28002,NaN,8.769841,4.166135,2.910472,-1.745559,1.298024,0.087035,-0.683045,0.313103,0.988868,0.020946,-0.444490,-0.362420,-0.818927,59.243524,-48.004046,154.515852
28003,NaN,8.661247,4.184661,2.814074,-1.726592,1.074197,0.001146,-0.588723,0.390243,0.998887,0.024413,-0.444747,-0.357807,-0.820718,58.371575,-48.373784,155.241178
28004,NaN,8.502388,4.332233,2.868179,-1.524896,0.834163,-0.001321,-0.527765,0.413647,1.024696,0.028098,-0.444962,-0.353322,-0.822425,57.497498,-48.742264,156.000849
28005,NaN,8.034889,4.287996,3.061219,-1.104404,0.742759,-0.297181,-0.500965,0.368094,1.048256,0.031923,-0.445354,-0.348937,-0.823944,56.643420,-49.127816,156.760870
28006,NaN,7.604348,4.276126,3.298621,-0.656795,0.673260,-0.533327,-0.504972,0.268940,1.074114,0.035599,-0.446217,-0.344435,-0.825220,55.816900,-49.550379,157.466046
28007,NaN,7.197733,4.155986,3.478750,-0.299007,0.667596,-0.832418,-0.504801,0.193208,1.057584,0.039147,-0.447315,-0.340018,-0.826296,55.024602,-49.982665,158.132852
28008,NaN,7.221028,4.358339,3.454761,-0.221705,0.403749,-0.709907,-0.516692,0.144685,1.048343,0.042486,-0.448618,-0.335524,-0.827261,54.240053,-50.421978,158.766309
28009,NaN,7.364833,4.413344,3.400811,-0.291080,0.262194,-0.586125,-0.533026,0.158651,1.021986,0.045762,-0.449773,-0.331053,-0.828259,53.435544,-50.837419,159.419676
28010,NaN,7.501215,4.433066,3.392282,-0.339293,0.170363,-0.470163,-0.522161,0.212091,1.009116,0.049025,-0.450701,-0.326588,-0.829340,52.597122,-51.223188,160.110220
28011,NaN,7.548999,4.574428,3.460831,-0.239595,0.007011,-0.334728,-0.491127,0.299220,0.982435,0.052459,-0.451170,-0.322325,-0.830542,51.725461,-51.559023,160.873250
28012,NaN,7.495912,4.816107,3.369236,-0.165707,-0.352382,-0.295191,-0.476540,0.436174,0.952575,0.055950,-0.451034,-0.318097,-0.832017,50.784082,-51.825422,161.721846
28013,NaN,7.100561,4.788918,3.267363,-0.010432,-0.571209,-0.663913,-0.470164,0.554584,0.914906,0.059556,-0.450298,-0.313984,-0.833726,49.787114,-52.022241,162.653726
28014,NaN,6.947280,4.768502,3.165532,-0.003322,-0.745158,-0.842308,-0.473691,0.656193,0.893234,0.063155,-0.449124,-0.309821,-0.835650,48.732769,-52.162484,163.643762
28015,NaN,6.853843,4.692416,3.071209,-0.053018,-0.855552,-0.998459,-0.429811,0.704584,0.852392,0.066820,-0.447620,-0.305950,-0.837595,47.690809,-52.254398,164.658232
28016,NaN,6.977949,4.634922,2.835963,-0.326148,-1.019957,-1.033763,-0.363646,0.714120,0.813211,0.070406,-0.446008,-0.302385,-0.839454,46.696456,-52.315211,165.648484
28017,NaN,7.159325,4.572870,2.652828,-0.597554,-1.139096,-1.006483,-0.303420,0.711104,0.795889,0.074123,-0.444319,-0.299149,-0.841188,45.745052,-52.359511,166.638276
28018,NaN,6.856850,4.255155,2.676337,-0.535920,-0.996677,-1.386279,-0.242726,0.701452,0.751463,0.077683,-0.442597,-0.296223,-0.842808,44.856211,-52.379484,167.581682
28019,NaN,6.504317,4.068203,2.843166,-0.291506,-0.870805,-1.682723,-0.174777,0.625983,0.694617,0.081128,-0.441043,-0.293769,-0.844156,44.073748,-52.399395,168.450566
28020,NaN,6.261633,3.973885,2.986418,-0.087930,-0.804419,-1.858857,-0.109380,0.489355,0.653696,0.084261,-0.439997,-0.291692,-0.845115,43.420235,-52.452866,169.192870
28021,NaN,6.318437,4.031450,3.165830,0.030078,-0.794627,-1.715455,-0.066077,0.321940,0.613871,0.087156,-0.439549,-0.289991,-0.845639,42.896085,-52.556110,169.813341
28022,NaN,6.701412,4.165851,3.392846,0.025066,-0.778295,-1.258853,-0.021593,0.196555,0.581871,0.089750,-0.439596,-0.288569,-0.845830,42.477862,-52.697286,170.321894
28023,NaN,7.020890,4.256349,3.583055,0.020152,-0.751489,-0.886189,-0.010515,0.147659,0.543258,0.092215,-0.439750,-0.287329,-0.845907,42.106623,-52.841450,170.788114
28024,NaN,7.159674,4.233055,3.848527,0.129529,-0.606096,-0.669025,-0.011625,0.143796,0.520051,0.094500,-0.439918,-0.286100,-0.845984,41.747609,-52.977609,171.227677
28025,NaN,7.323693,4.079336,3.930530,0.042859,-0.455535,-0.565145,-0.004958,0.133447,0.508804,0.096810,-0.440074,-0.284962,-0.846025,41.400270,-53.111217,171.666282
28026,NaN,7.777325,3.941775,3.757348,-0.387031,-0.438698,-0.336420,0.015597,0.174435,0.491483,0.099075,-0.440053,-0.283893,-0.846133,41.052743,-53.220067,172.109571
28027,NaN,8.091602,3.748516,3.643489,-0.723937,-0.358515,-0.213331,0.040434,0.293597,0.454237,0.101480,-0.439426,-0.282985,-0.846479,40.678003,-53.260556,172.613719
28028,NaN,7.736599,3.637120,3.733058,-0.500425,-0.282671,-0.502001,0.096423,0.397506,0.412325,0.103913,-0.438302,-0.282312,-0.846991,40.307290,-53.239819,173.143240
28029,NaN,6.291851,3.727154,4.078909,0.625895,-0.291879,-1.467654,0.128813,0.348624,0.326963,0.106049,-0.437211,-0.282026,-0.847385,40.030160,-53.205505,173.588860
28030,NaN,5.781628,3.876921,4.272910,1.125703,-0.353766,-1.730415,0.118012,0.123814,0.295742,0.107635,-0.437061,-0.281844,-0.847323,39.876935,-53.257900,173.862007
28031,NaN,6.154876,3.862223,4.187533,0.851218,-0.375226,-1.477863,0.082914,-0.050227,0.264781,0.108845,-0.437593,-0.281710,-0.846938,39.805818,-53.374703,174.017401
28032,NaN,6.809713,3.814606,4.150502,0.436181,-0.322733,-0.989104,0.078930,-0.105274,0.255698,0.109859,-0.438382,-0.281573,-0.846445,39.765214,-53.513720,174.122202
28033,NaN,7.091679,3.948157,4.212399,0.388997,-0.384333,-0.684429,0.091085,-0.070769,0.231345,0.110916,-0.438948,-0.281557,-0.846019,39.727509,-53.627170,174.241377
28034,NaN,7.157878,4.221000,4.401031,0.614119,-0.500038,-0.442846,0.085657,-0.046725,0.216979,0.111861,-0.439423,-0.281496,-0.845668,39.682792,-53.725273,174.355093
28035,NaN,7.385088,4.336206,4.747906,0.781504,-0.388185,-0.059567,0.029435,-0.027565,0.198299,0.112703,-0.439793,-0.281267,-0.845440,39.607144,-53.807456,174.477217
28036,NaN,7.980858,4.396530,4.836551,0.535247,-0.362306,0.482845,-0.004070,-0.080855,0.236134,0.113478,-0.440491,-0.280808,-0.845126,39.517049,-53.927322,174.583465
28037,NaN,8.811306,4.327494,4.700027,-0.050975,-0.353062,1.065237,-0.040894,-0.098980,0.295799,0.114477,-0.441338,-0.280107,-0.844782,39.376267,-54.076345,174.735926
28038,NaN,8.992916,4.040044,4.629080,-0.306605,-0.169503,1.073085,-0.050070,-0.055824,0.312914,0.115510,-0.442057,-0.279265,-0.844543,39.197292,-54.212295,174.918535
28039,NaN,8.655345,3.719400,4.499424,-0.316305,-0.021092,0.622501,-0.036983,-0.058729,0.319603,0.116674,-0.442763,-0.278504,-0.844265,39.021306,-54.351497,175.116577
28040,NaN,8.588428,3.587866,4.159332,-0.542872,-0.132666,0.366777,-0.024492,-0.083969,0.342717,0.117848,-0.443623,-0.277718,-0.843909,38.849657,-54.509527,175.307258
28041,NaN,8.641726,3.421990,3.901648,-0.799118,-0.163691,0.234542,-0.007714,-0.032169,0.344459,0.119218,-0.444231,-0.277008,-0.843630,38.658462,-54.645057,175.543814
28042,NaN,8.329086,3.233052,3.927844,-0.665108,-0.029791,-0.075597,0.033397,0.012627,0.338769,0.120647,-0.444649,-0.276415,-0.843402,38.470316,-54.759033,175.795208
28043,NaN,8.370300,3.452917,3.864127,-0.614094,-0.264568,0.009169,0.069294,-0.010921,0.350381,0.122242,-0.445127,-0.276002,-0.843055,38.305761,-54.886249,176.052436
28044,NaN,8.726566,3.509216,3.883694,-0.758587,-0.305159,0.330388,0.073048,0.007721,0.358236,0.123826,-0.445567,-0.275540,-0.842742,38.128952,-55.008291,176.317122
28045,NaN,8.686263,3.391541,3.876919,-0.776476,-0.236832,0.253352,0.099523,0.095283,0.354335,0.125651,-0.445582,-0.275178,-0.842583,37.922620,-55.088029,176.645742
28046,NaN,8.553527,3.502383,3.910610,-0.616980,-0.336418,0.198730,0.131801,0.173986,0.342760,0.127531,-0.445254,-0.274887,-0.842568,37.701725,-55.127643,177.004166
28047,NaN,8.332345,3.526350,3.940703,-0.455552,-0.370187,0.038588,0.137305,0.241932,0.328328,0.129531,-0.444588,-0.274647,-0.842693,37.458759,-55.130238,177.403500
28048,NaN,8.090695,3.613564,4.090801,-0.175899,-0.384609,-0.062152,0.154638,0.253571,0.306141,0.131413,-0.443857,-0.274483,-0.842841,37.235259,-55.119070,177.781050
28049,NaN,7.777327,3.866883,4.462326,0.371588,-0.401152,-0.063178,0.171462,0.202505,0.265120,0.133167,-0.443244,-0.274551,-0.842866,37.072957,-55.116098,178.105964
28050,NaN,7.449764,4.203548,4.733945,0.902223,-0.535345,-0.092686,0.139628,0.114363,0.227672,0.134502,-0.443003,-0.274584,-0.842770,36.960094,-55.141201,178.338309
28051,NaN,7.436024,4.594509,5.091339,1.342533,-0.651435,0.192257,0.112590,0.012213,0.193742,0.135563,-0.443131,-0.274689,-0.842498,36.904694,-55.200089,178.491690
28052,NaN,7.291082,4.853554,5.107996,1.570282,-0.859756,0.167468,0.031175,-0.007733,0.184342,0.136302,-0.443415,-0.274446,-0.842309,36.818987,-55.265388,178.615094
28053,NaN,7.049719,4.700298,5.393638,1.833404,-0.582674,0.045394,-0.077091,0.078817,0.119903,0.136723,-0.443290,-0.273869,-0.842494,36.670147,-55.268100,178.749752
28054,NaN,7.020858,4.809490,5.144556,1.733311,-0.831454,-0.055926,-0.125210,0.072103,0.081196,0.136864,-0.443175,-0.273180,-0.842756,36.522813,-55.260659,178.848919
28055,NaN,7.721029,4.913281,4.639257,1.041995,-1.217364,0.321886,-0.175871,0.044241,0.062192,0.136775,-0.443184,-0.272338,-0.843038,36.372712,-55.259264,178.916249
28056,NaN,8.104383,4.533017,4.216100,0.357734,-1.165614,0.312435,-0.210689,0.033128,0.057959,0.136572,-0.443254,-0.271367,-0.843347,36.211301,-55.260999,178.972888
28057,NaN,8.174422,4.343459,4.169549,0.197800,-1.052889,0.283066,-0.190049,-0.003502,0.071359,0.136425,-0.443486,-0.270477,-0.843535,36.070218,-55.284587,179.019350
28058,NaN,8.524596,4.179933,4.012103,-0.180103,-1.020240,0.442273,-0.165624,-0.038507,0.088569,0.136283,-0.443893,-0.269637,-0.843612,35.948521,-55.329940,179.049134
28059,NaN,8.663415,3.728010,3.962003,-0.496139,-0.689819,0.381833,-0.130045,-0.062158,0.113009,0.136366,-0.444386,-0.268947,-0.843559,35.842084,-55.394632,179.095224
28060,NaN,8.264707,3.435514,4.322799,-0.149767,-0.254867,0.122468,-0.081057,-0.113579,0.120540,0.136516,-0.445071,-0.268484,-0.843322,35.783841,-55.485286,179.116754
28061,NaN,8.410876,3.478586,4.547699,-0.042363,-0.164158,0.360620,-0.047239,-0.151594,0.129229,0.136731,-0.445906,-0.268168,-0.842946,35.757050,-55.596930,179.123690
28062,NaN,8.850828,3.308379,4.528452,-0.364519,-0.035906,0.658951,-0.035727,-0.123008,0.146767,0.137007,-0.446662,-0.267806,-0.842616,35.711848,-55.701329,179.151085
28063,NaN,8.749717,2.929708,4.569515,-0.439330,0.290435,0.470493,-0.021669,-0.091594,0.177681,0.137563,-0.447290,-0.267448,-0.842306,35.636818,-55.801229,179.234085
28064,NaN,8.287576,2.736687,4.737859,-0.138304,0.534739,0.102734,0.007895,-0.096380,0.181764,0.138120,-0.447950,-0.267172,-0.841952,35.578674,-55.904928,179.307195
28065,NaN,8.040371,2.870632,4.825353,0.139686,0.469167,-0.018175,0.022840,-0.099897,0.150129,0.138649,-0.448546,-0.267068,-0.841581,35.551444,-55.999427,179.363087
28066,NaN,8.122884,3.057432,4.625915,0.058658,0.199132,0.020171,-0.003554,-0.046656,0.103698,0.138918,-0.448897,-0.266883,-0.841407,35.515217,-56.053670,179.401566
28067,NaN,8.176511,2.977624,4.632390,0.001693,0.264314,0.041791,-0.019023,0.003266,0.073771,0.139169,-0.448985,-0.266703,-0.841376,35.465563,-56.074602,179.455503
28068,NaN,7.914682,2.798659,4.726950,0.131466,0.459907,-0.190321,-0.024072,-0.019354,0.062619,0.139324,-0.449157,-0.266547,-0.841308,35.433335,-56.102029,179.484988
28069,NaN,7.883263,2.729799,4.758524,0.146505,0.533082,-0.224386,-0.022894,-0.115845,0.068790,0.139387,-0.449742,-0.266444,-0.841018,35.443748,-56.176881,179.463871
28070,NaN,8.028799,2.703721,4.916757,0.176091,0.648335,-0.040541,-0.024693,-0.175637,0.065196,0.139341,-0.450571,-0.266388,-0.840600,35.486801,-56.277544,179.402158
28071,NaN,8.179754,2.798568,4.857572,0.113542,0.541555,0.088331,-0.021850,-0.160877,0.049896,0.139267,-0.451319,-0.266363,-0.840218,35.533789,-56.367096,179.337853
28072,NaN,8.438552,3.117380,4.949537,0.198125,0.338114,0.447505,-0.019478,-0.112731,0.044845,0.139163,-0.451874,-0.266288,-0.839961,35.561921,-56.431718,179.287631
28073,NaN,8.590913,3.382756,4.996813,0.283101,0.149675,0.680758,-0.033598,-0.079920,0.058052,0.139203,-0.452300,-0.266139,-0.839772,35.556144,-56.486222,179.278658
28074,NaN,8.462211,3.446005,4.911365,0.337896,0.046657,0.555008,-0.055881,-0.116940,0.085390,0.139251,-0.452936,-0.265865,-0.839508,35.538717,-56.567022,179.268407
28075,NaN,8.434153,3.330701,4.537504,0.059055,-0.075147,0.326755,-0.069066,-0.165460,0.106868,0.139302,-0.453811,-0.265516,-0.839138,35.521305,-56.677667,179.249047
28076,NaN,8.682957,3.211520,4.303567,-0.275487,-0.112125,0.392203,-0.064494,-0.153261,0.125401,0.139385,-0.454678,-0.265094,-0.838788,35.486961,-56.788742,179.242961
28077,NaN,8.640313,3.188411,4.307892,-0.242727,-0.095664,0.351506,-0.045024,-0.093565,0.132300,0.139693,-0.455267,-0.264738,-0.838530,35.428519,-56.874301,179.289120
28078,NaN,8.682709,3.196078,4.277185,-0.270299,-0.126567,0.376010,-0.030614,-0.036308,0.147134,0.140096,-0.455648,-0.264328,-0.838385,35.338385,-56.937800,179.372791
28079,NaN,8.675878,3.308453,4.317175,-0.175373,-0.206062,0.423595,-0.016582,0.001500,0.160586,0.140713,-0.455855,-0.263959,-0.838285,35.226922,-56.988179,179.501568
28080,NaN,8.438486,3.311273,4.236831,-0.093201,-0.267230,0.189472,-0.011749,0.048162,0.160506,0.141399,-0.455860,-0.263578,-0.838287,35.094326,-57.015934,179.658587
28081,NaN,8.152383,3.463162,4.217677,0.123297,-0.416460,-0.011923,0.006400,0.119027,0.130857,0.142098,-0.455519,-0.263290,-0.838444,34.957450,-57.001079,179.833295
28082,NaN,8.293936,3.599733,3.903547,-0.109142,-0.720911,0.008386,0.028147,0.172358,0.125570,0.142892,-0.454932,-0.263069,-0.838697,34.810738,-56.959126,-179.965397
28083,NaN,8.083555,3.560442,4.110647,0.123497,-0.583167,-0.088353,0.034306,0.154195,0.119688,0.143654,-0.454408,-0.262898,-0.838905,34.680774,-56.923602,-179.779726
28084,NaN,7.873109,3.487154,4.465340,0.444843,-0.329835,-0.128749,0.018458,0.063016,0.115274,0.144171,-0.454297,-0.262695,-0.838940,34.590378,-56.929657,-179.662121
28085,NaN,7.846498,3.196208,4.793971,0.549798,0.088951,-0.093879,-0.034123,-0.017213,0.125000,0.144574,-0.454548,-0.262349,-0.838843,34.503080,-56.976399,-179.574148
28086,NaN,8.080009,2.871088,4.805955,0.284038,0.353069,0.006760,-0.077758,-0.051709,0.131925,0.144861,-0.454985,-0.261829,-0.838719,34.403180,-57.041730,-179.500991
28087,NaN,8.210415,2.574033,4.565318,-0.085348,0.449193,-0.082856,-0.088738,-0.026038,0.119338,0.145105,-0.455305,-0.261272,-0.838677,34.292559,-57.090650,-179.422627
28088,NaN,8.103202,2.779927,4.544771,0.064648,0.259988,-0.118719,-0.063526,-0.004303,0.090448,0.145312,-0.455478,-0.260871,-0.838672,34.206797,-57.119890,-179.356730
28089,NaN,8.223156,3.029690,4.499754,0.095599,0.021984,0.038072,-0.069933,-0.056871,0.076184,0.145377,-0.455857,-0.260514,-0.838566,34.153572,-57.169409,-179.333933
28090,NaN,8.180082,3.052126,4.496341,0.140036,-0.001100,0.007021,-0.079992,-0.156936,0.080792,0.145306,-0.456665,-0.260177,-0.838243,34.141269,-57.267316,-179.366817
28091,NaN,8.328098,3.024916,4.382690,-0.011915,-0.044048,0.072310,-0.082374,-0.219035,0.086026,0.145173,-0.457744,-0.259862,-0.837775,34.154796,-57.396887,-179.431832
28092,NaN,8.581781,2.997277,4.407457,-0.122051,-0.007213,0.288863,-0.072317,-0.215787,0.096792,0.145039,-0.458838,-0.259521,-0.837305,34.164574,-57.528263,-179.495566
28093,NaN,8.604987,2.837123,4.560428,-0.082540,0.212135,0.328353,-0.062463,-0.201336,0.107470,0.145064,-0.459856,-0.259227,-0.836834,34.165135,-57.656333,-179.531521
28094,NaN,8.517954,2.863836,4.804867,0.169067,0.329297,0.370966,-0.039476,-0.183771,0.117645,0.145130,-0.460819,-0.258954,-0.836376,34.163201,-57.779336,-179.558914
28095,NaN,8.438044,3.040859,4.953390,0.421203,0.267163,0.421308,-0.030507,-0.155367,0.124199,0.145358,-0.461642,-0.258721,-0.835955,34.146195,-57.890995,-179.552392
28096,NaN,8.220058,3.284401,4.929308,0.655194,0.050997,0.297843,-0.036394,-0.104566,0.116436,0.145534,-0.462269,-0.258403,-0.835676,34.105107,-57.976172,-179.531528
28097,NaN,8.133879,3.488942,4.835560,0.745159,-0.175816,0.243612,-0.037802,-0.015085,0.106916,0.145854,-0.462488,-0.258077,-0.835600,34.024696,-58.015695,-179.455177
28098,NaN,8.294177,3.612289,4.528063,0.506676,-0.462839,0.280598,-0.045460,0.117068,0.101074,0.146299,-0.462152,-0.257637,-0.835844,33.876974,-57.990268,-179.304706
28099,NaN,8.606264,3.437805,4.297972,0.088290,-0.467893,0.391825,-0.027004,0.231393,0.117161,0.147005,-0.461345,-0.257152,-0.836315,33.669335,-57.915458,-179.070920
28100,NaN,8.603618,2.924932,4.109408,-0.300588,-0.171996,0.154495,-0.002239,0.228082,0.162008,0.147868,-0.460614,-0.256634,-0.836725,33.446222,-57.855648,-178.811919
28101,NaN,8.674781,2.433348,4.031747,-0.635606,0.168958,0.035938,0.029475,0.137116,0.194373,0.148905,-0.460258,-0.256276,-0.836847,33.261048,-57.849375,-178.566188
28102,NaN,8.816858,2.204491,3.975195,-0.859853,0.307361,0.064818,0.080745,0.086080,0.216706,0.150014,-0.460128,-0.256079,-0.836781,33.113720,-57.874209,-178.340527
28103,NaN,8.743452,2.098578,4.127776,-0.763502,0.467517,0.040687,0.107929,0.102246,0.215288,0.151274,-0.459884,-0.256027,-0.836704,32.974666,-57.890512,-178.096256
28104,NaN,8.127416,2.175354,4.454885,-0.172252,0.587970,-0.312284,0.116605,0.130344,0.186892,0.152395,-0.459497,-0.256014,-0.836717,32.848364,-57.883410,-177.871359
28105,NaN,7.516222,2.339445,4.760073,0.442518,0.629357,-0.645737,0.092626,0.088648,0.149011,0.153324,-0.459236,-0.256060,-0.836676,32.757995,-57.885142,-177.694928
28106,NaN,7.449902,2.610065,4.747976,0.603824,0.395570,-0.629242,0.032616,0.019970,0.112245,0.153796,-0.459272,-0.255951,-0.836603,32.695213,-57.906816,-177.602006
28107,NaN,7.468496,2.584655,4.618093,0.497041,0.337777,-0.678985,-0.024036,-0.033368,0.088383,0.154048,-0.459533,-0.255741,-0.836478,32.644633,-57.948428,-177.551495
28108,NaN,7.849132,2.519131,4.312979,0.061134,0.205731,-0.511579,-0.057489,-0.084797,0.085913,0.154140,-0.460028,-0.255439,-0.836281,32.602799,-58.013474,-177.534093
28109,NaN,8.454937,2.446896,3.991938,-0.505642,0.064895,-0.161318,-0.076392,-0.085466,0.088226,0.154204,-0.460547,-0.255051,-0.836102,32.547800,-58.080148,-177.513794
28110,NaN,8.784381,2.608185,4.434975,-0.287411,0.170406,0.362053,-0.087576,0.020886,0.057285,0.154243,-0.460590,-0.254607,-0.836206,32.458713,-58.085661,-177.460998
28111,NaN,8.987091,2.775145,4.632711,-0.178419,0.129520,0.669804,-0.072633,0.126985,0.063571,0.154483,-0.460186,-0.254127,-0.836531,32.320038,-58.041944,-177.339565
28112,NaN,8.754623,2.730524,4.670879,-0.059525,0.179005,0.477146,-0.065699,0.159281,0.071861,0.154816,-0.459653,-0.253630,-0.836913,32.163049,-57.985143,-177.191917
28113,NaN,8.822971,2.782973,4.609689,-0.121981,0.082512,0.522556,-0.063410,0.181972,0.096927,0.155287,-0.459053,-0.253069,-0.837325,31.977889,-57.924519,-177.009263
28114,NaN,8.868903,2.773533,4.473837,-0.255991,-0.007435,0.497477,-0.052287,0.219756,0.111309,0.155818,-0.458325,-0.252451,-0.837811,31.770065,-57.849447,-176.802363
28115,NaN,8.691167,2.793111,4.327518,-0.266640,-0.122230,0.285786,-0.033795,0.260449,0.113953,0.156526,-0.457394,-0.251913,-0.838350,31.552808,-57.754982,-176.561422
28116,NaN,8.299701,2.748597,4.383214,-0.055930,-0.061645,-0.032840,-0.021954,0.235270,0.114886,0.157153,-0.456581,-0.251405,-0.838828,31.356138,-57.672334,-176.346683
28117,NaN,7.924610,2.656467,4.229604,-0.017294,-0.075975,-0.445739,-0.023240,0.167229,0.091659,0.157674,-0.456003,-0.251035,-0.839155,31.208170,-57.616035,-176.180186
28118,NaN,8.039401,2.605285,4.097420,-0.202314,-0.124048,-0.423758,-0.022762,0.124562,0.058142,0.157925,-0.455576,-0.250738,-0.839429,31.106938,-57.569551,-176.078865
28119,NaN,8.158904,2.620505,4.111283,-0.255624,-0.141036,-0.312574,0.000750,0.101468,0.041735,0.158208,-0.455192,-0.250634,-0.839615,31.042664,-57.530436,-175.995085
28120,NaN,8.162420,2.695823,4.140532,-0.205484,-0.191284,-0.275510,0.034006,0.072906,0.029584,0.158489,-0.454886,-0.250714,-0.839704,31.018290,-57.501889,-175.936188
28121,NaN,8.243509,2.862661,4.205889,-0.124700,-0.296107,-0.130924,0.041367,0.031559,0.026625,0.158714,-0.454744,-0.250870,-0.839692,31.021532,-57.492597,-175.904821
28122,NaN,8.281618,2.937063,4.414123,0.033337,-0.240929,0.017718,0.033465,0.017835,0.027697,0.158913,-0.454668,-0.250998,-0.839657,31.024750,-57.490678,-175.878925
28123,NaN,8.629368,2.952614,4.368791,-0.178084,-0.293701,0.294353,0.032289,0.056471,0.033025,0.159175,-0.454437,-0.251082,-0.839707,31.006342,-57.471041,-175.828046
28124,NaN,8.873397,2.813278,4.438567,-0.337230,-0.153757,0.493389,0.040566,0.149698,0.040770,0.159609,-0.453817,-0.251106,-0.839953,30.943034,-57.408020,-175.718366
28125,NaN,8.795323,2.599631,4.515163,-0.363054,0.059489,0.403334,0.061950,0.232398,0.050619,0.160233,-0.452845,-0.251134,-0.840350,30.847585,-57.307006,-175.555744
28126,NaN,8.761289,2.696484,4.389654,-0.401560,-0.101854,0.342537,0.090025,0.287459,0.053748,0.160934,-0.451639,-0.251184,-0.840850,30.740227,-57.179181,-175.369850
28127,NaN,8.693196,2.828633,4.340569,-0.354657,-0.248831,0.297980,0.108695,0.320974,0.067951,0.161847,-0.450277,-0.251297,-0.841372,30.620199,-57.039258,-175.145606
28128,NaN,8.288643,2.951987,4.549009,0.044244,-0.226432,0.089636,0.105728,0.316321,0.059373,0.162642,-0.448949,-0.251378,-0.841903,30.507800,-56.899395,-174.942214
28129,NaN,7.807046,2.986966,4.713839,0.412454,-0.149414,-0.226254,0.088470,0.298792,0.038386,0.163357,-0.447657,-0.251489,-0.842420,30.411200,-56.761372,-174.759093
28130,NaN,7.900461,3.047761,4.843540,0.457812,-0.140393,-0.069143,0.054577,0.274559,0.033065,0.163862,-0.446512,-0.251453,-0.842940,30.312500,-56.633887,-174.606394
28131,NaN,7.944465,2.946505,5.011172,0.475897,0.024927,0.019968,0.019594,0.244630,0.032714,0.164330,-0.445496,-0.251330,-0.843423,30.206586,-56.520683,-174.458863
28132,NaN,7.940055,2.845444,5.104363,0.473207,0.150027,0.033585,-0.022669,0.200794,0.021611,0.164523,-0.444710,-0.251054,-0.843882,30.105796,-56.426208,-174.356321
28133,NaN,8.112359,2.722219,5.061954,0.272094,0.205137,0.123512,-0.065418,0.216919,0.011305,0.164676,-0.443852,-0.250642,-0.844426,29.980683,-56.320300,-174.243881
28134,NaN,8.287926,2.802132,4.903127,0.088920,0.024234,0.215959,-0.075386,0.279823,-0.005237,0.164740,-0.442731,-0.250134,-0.845153,29.836109,-56.177371,-174.124909
28135,NaN,8.249472,2.874531,4.809754,0.058085,-0.103638,0.159085,-0.060537,0.347041,-0.009658,0.164977,-0.441291,-0.249681,-0.845993,29.676054,-56.000466,-173.966621
28136,NaN,7.955500,2.967612,4.635584,0.123934,-0.279814,-0.143582,-0.052024,0.346462,-0.006124,0.165169,-0.439874,-0.249220,-0.846829,29.521036,-55.824746,-173.818208
28137,NaN,7.479006,2.841040,4.676938,0.331449,-0.138390,-0.552464,-0.052168,0.232045,-0.003028,0.165309,-0.438920,-0.248882,-0.847396,29.411449,-55.706631,-173.714560
28138,NaN,7.439760,2.719653,4.788069,0.356013,0.018470,-0.563630,-0.055409,0.043437,0.007143,0.165185,-0.438800,-0.248619,-0.847560,29.368651,-55.685380,-173.704144
28139,NaN,7.925300,2.645179,4.696692,-0.011434,-0.004432,-0.228007,-0.071541,-0.075840,0.024749,0.165017,-0.439201,-0.248392,-0.847451,29.354960,-55.728707,-173.729932
28140,NaN,8.541661,2.525558,4.719323,-0.395571,0.066845,0.259526,-0.077550,-0.020756,0.029756,0.164918,-0.439382,-0.248087,-0.847466,29.313127,-55.745988,-173.725771
28141,NaN,8.506040,2.263939,4.610270,-0.579943,0.216485,0.104445,-0.061154,0.102564,0.020938,0.164978,-0.439014,-0.247766,-0.847739,29.234762,-55.699105,-173.666086
28142,NaN,8.499590,2.173004,4.498699,-0.704136,0.219979,0.018846,-0.017700,0.142764,0.032077,0.165229,-0.438454,-0.247570,-0.848037,29.157044,-55.635331,-173.577047
28143,NaN,8.408404,2.183901,4.533345,-0.632366,0.228667,-0.036711,-0.003487,0.089646,0.043543,0.165495,-0.438120,-0.247454,-0.848191,29.100818,-55.601133,-173.504076
28144,NaN,8.391626,2.052995,4.608677,-0.640927,0.375662,-0.049380,0.002564,0.019131,0.040334,0.165673,-0.438073,-0.247427,-0.848189,29.078950,-55.600750,-173.468687
28145,NaN,8.381215,2.014608,4.759714,-0.552628,0.493046,0.006161,0.019784,-0.029264,0.027858,0.165777,-0.438205,-0.247542,-0.848067,29.095976,-55.621692,-173.468319
28146,NaN,8.417223,2.111953,4.938875,-0.402499,0.515375,0.150990,0.049792,-0.041720,0.018496,0.165885,-0.438354,-0.247818,-0.847888,29.143163,-55.646265,-173.483714
28147,NaN,8.586719,2.316003,5.066350,-0.309090,0.413511,0.409689,0.060724,-0.017372,0.016044,0.166043,-0.438387,-0.248123,-0.847751,29.187477,-55.657958,-173.487987
28148,NaN,8.513839,2.423637,4.986248,-0.268027,0.288306,0.339513,0.078349,0.023647,0.013812,0.166282,-0.438226,-0.248470,-0.847685,29.226212,-55.648157,-173.473484
28149,NaN,8.419707,2.710866,5.226414,0.080655,0.196739,0.459140,0.086652,0.107245,0.003277,0.166597,-0.437693,-0.248809,-0.847800,29.243759,-55.593969,-173.427327
28150,NaN,8.177183,2.935883,5.144130,0.262579,-0.019878,0.280798,0.092924,0.178800,0.013699,0.167051,-0.436868,-0.249096,-0.848052,29.229935,-55.507105,-173.338763
28151,NaN,7.772248,3.072064,4.988473,0.439817,-0.196694,-0.091672,0.088654,0.212967,-0.000165,0.167487,-0.435880,-0.249362,-0.848396,29.208441,-55.399081,-173.243722
28152,NaN,7.746757,3.160123,4.796469,0.354917,-0.379940,-0.182818,0.082222,0.204841,-0.006800,0.167796,-0.434943,-0.249583,-0.848751,29.191524,-55.292905,-173.168791
28153,NaN,8.226059,3.098318,4.382612,-0.234531,-0.600750,-0.011719,0.084348,0.192095,-0.008277,0.168162,-0.434036,-0.249865,-0.849059,29.182515,-55.193024,-173.091706
28154,NaN,8.432548,2.835023,4.468666,-0.442334,-0.353347,0.126813,0.097112,0.164027,0.011325,0.168536,-0.433284,-0.250140,-0.849288,29.176741,-55.113032,-173.019767
28155,NaN,8.132977,2.611682,4.674388,-0.261558,-0.032846,-0.078901,0.109146,0.099886,0.006584,0.168904,-0.432766,-0.250573,-0.849352,29.208562,-55.063430,-172.975001
28156,NaN,8.032386,2.670741,4.916010,-0.023610,0.068171,-0.024223,0.126812,0.031351,0.002400,0.169211,-0.432520,-0.251143,-0.849248,29.279796,-55.047254,-172.966125
28157,NaN,7.915926,2.740157,5.180312,0.247246,0.179441,0.031734,0.120498,-0.020293,-0.011877,0.169373,-0.432478,-0.251765,-0.849052,29.379456,-55.052564,-172.996169
28158,NaN,7.915551,2.798937,5.264978,0.331923,0.190522,0.090015,0.113152,-0.031848,-0.022508,0.169466,-0.432479,-0.252384,-0.848849,29.485864,-55.060858,-173.039773
28159,NaN,7.899259,2.973013,5.217359,0.397866,0.032954,0.101875,0.106193,-0.019821,-0.024223,0.169546,-0.432432,-0.252972,-0.848682,29.585985,-55.062383,-173.080374
28160,NaN,7.909718,3.205938,5.362540,0.602490,-0.064102,0.248694,0.092021,-0.010779,-0.030016,0.169582,-0.432346,-0.253502,-0.848561,29.677992,-55.057078,-173.121200
28161,NaN,7.883575,3.404772,5.474872,0.788138,-0.150690,0.339828,0.063891,0.004999,-0.041855,0.169527,-0.432207,-0.253927,-0.848516,29.756334,-55.041171,-173.164805
28162,NaN,8.156614,3.315317,5.387172,0.526464,-0.141768,0.494885,0.015700,0.029667,-0.031670,0.169442,-0.432022,-0.254105,-0.848574,29.789924,-55.016497,-173.187548
28163,NaN,8.461835,3.081394,5.392621,0.230982,0.031733,0.681293,-0.009968,0.073828,-0.027214,0.169376,-0.431672,-0.254126,-0.848758,29.787477,-54.970501,-173.184216
28164,NaN,8.402958,2.867552,5.391028,0.145283,0.206789,0.571525,-0.014917,0.104020,-0.034359,0.169309,-0.431186,-0.254115,-0.849022,29.774601,-54.907098,-173.171770
28165,NaN,8.324642,2.569460,5.040895,-0.198775,0.250186,0.247645,0.000121,0.111852,-0.037470,0.169270,-0.430653,-0.254169,-0.849284,29.769838,-54.839274,-173.158534
28166,NaN,8.164601,1.957221,5.211649,-0.321736,0.855171,0.026918,-0.009564,0.167825,-0.062822,0.169168,-0.429860,-0.254191,-0.849700,29.755819,-54.736489,-173.140793
28167,NaN,8.101050,2.268611,5.133786,-0.195079,0.560604,0.024843,0.073328,0.146349,-0.066999,0.169205,-0.429080,-0.254591,-0.849967,29.799939,-54.643108,-173.136029
28168,NaN,8.481579,2.655813,4.768993,-0.469481,0.011541,0.262691,0.101340,0.148288,-0.069810,0.169224,-0.428285,-0.255070,-0.850220,29.859678,-54.547902,-173.140998
28169,NaN,8.020036,2.921347,5.318413,0.266015,0.149809,0.239553,0.105465,0.149256,-0.067970,0.169329,-0.427463,-0.255605,-0.850452,29.921493,-54.452805,-173.135341
28170,NaN,7.939414,2.992796,4.957014,0.100964,-0.107310,0.012861,0.113474,0.138308,-0.055798,0.169405,-0.426728,-0.256126,-0.850650,29.985783,-54.367434,-173.137013
28171,NaN,7.979749,2.819119,4.835782,-0.099142,-0.034118,-0.066015,0.114472,0.058660,-0.025087,0.169595,-0.426338,-0.256684,-0.850639,30.059028,-54.329581,-173.139061
28172,NaN,7.864994,2.698603,4.800226,-0.121929,0.059041,-0.212458,0.125734,0.006498,-0.035323,0.169703,-0.426153,-0.257353,-0.850508,30.165786,-54.315364,-173.174575
28173,NaN,8.008360,2.759930,4.771919,-0.196854,-0.006570,-0.092428,0.154459,0.029695,-0.042515,0.169867,-0.425830,-0.258142,-0.850398,30.285387,-54.286819,-173.205494
28174,NaN,7.936309,2.839908,5.067477,0.067664,0.117880,0.021484,0.162861,0.020907,-0.045773,0.170026,-0.425532,-0.258979,-0.850261,30.414781,-54.261654,-173.242767
28175,NaN,7.763491,2.878278,5.265049,0.306055,0.227975,-0.008027,0.166479,0.022749,-0.076181,0.170063,-0.425184,-0.259897,-0.850147,30.566921,-54.226669,-173.305318
28176,NaN,7.811437,3.279137,4.960672,0.275880,-0.262926,-0.002780,0.206665,0.139348,-0.121916,0.170067,-0.424273,-0.260946,-0.850281,30.726041,-54.121169,-173.358246
28177,NaN,8.117387,3.865534,5.236950,0.549845,-0.579692,0.561393,0.233322,0.196300,-0.122719,0.170274,-0.423068,-0.262098,-0.850485,30.877227,-53.986921,-173.372462
28178,NaN,8.115682,4.046298,5.242297,0.622776,-0.707944,0.619446,0.210493,0.172540,-0.112406,0.170356,-0.422015,-0.263121,-0.850676,31.019698,-53.866383,-173.402156
28179,NaN,8.283879,3.761070,4.886345,0.133788,-0.687961,0.490392,0.200869,0.153665,-0.097532,0.170544,-0.421050,-0.264117,-0.850808,31.151626,-53.760465,-173.415593
28180,NaN,8.423388,3.254822,4.910040,-0.211595,-0.266154,0.460588,0.190013,0.142213,-0.073218,0.170710,-0.420190,-0.264994,-0.850927,31.267134,-53.665974,-173.426472
28181,NaN,8.195871,3.065617,5.050076,-0.104526,-0.004420,0.289917,0.214621,0.120790,-0.086522,0.170930,-0.419367,-0.266053,-0.850958,31.412213,-53.579391,-173.446490
28182,NaN,7.992752,3.102576,5.106955,0.053149,0.027082,0.166664,0.217503,0.113991,-0.083809,0.171080,-0.418593,-0.267088,-0.850985,31.559848,-53.496467,-173.477760
28183,NaN,7.904443,2.927122,5.074477,-0.020320,0.166864,0.024501,0.187005,0.094408,-0.084031,0.171217,-0.417908,-0.268046,-0.850993,31.697476,-53.423445,-173.508240
28184,NaN,7.599705,2.837505,5.012756,0.061133,0.234791,-0.279809,0.181858,0.094063,-0.102178,0.171185,-0.417229,-0.268986,-0.851036,31.844948,-53.345162,-173.564697
28185,NaN,7.314298,3.068628,4.789232,0.195486,-0.051488,-0.549250,0.176008,0.115831,-0.128349,0.171139,-0.416401,-0.269970,-0.851139,31.995837,-53.248204,-173.619641
28186,NaN,7.074594,3.172742,4.335602,0.093784,-0.378139,-0.937904,0.193661,0.138630,-0.156158,0.170963,-0.415443,-0.271032,-0.851305,32.165367,-53.131081,-173.695433
28187,NaN,7.112853,3.374854,3.955831,-0.076025,-0.755267,-1.034608,0.217063,0.103033,-0.164034,0.170832,-0.414584,-0.272276,-0.851353,32.366874,-53.029212,-173.784422
28188,NaN,7.641698,3.585879,3.918406,-0.320835,-0.960875,-0.561649,0.226906,0.034983,-0.163550,0.170553,-0.414030,-0.273582,-0.851260,32.601116,-52.959969,-173.917501
28189,NaN,8.195837,3.169981,3.956173,-0.852813,-0.622564,-0.233705,0.208898,-0.050117,-0.113660,0.170410,-0.413898,-0.274816,-0.850956,32.827216,-52.947112,-174.043313
28190,NaN,8.081414,2.626280,4.412028,-0.788293,0.115763,-0.271318,0.208444,-0.127235,-0.104532,0.170113,-0.414132,-0.276064,-0.850497,33.081118,-52.973753,-174.214143
28191,NaN,8.037504,2.716739,5.130157,-0.273709,0.513760,0.084873,0.218000,-0.184331,-0.135724,0.169709,-0.414531,-0.277496,-0.849917,33.382376,-53.017607,-174.427468
28192,NaN,7.944812,3.037562,5.795618,0.357765,0.706100,0.449347,0.180059,-0.183308,-0.174248,0.168990,-0.414926,-0.278807,-0.849438,33.686239,-53.048037,-174.681234
28193,NaN,7.681997,3.155959,6.320526,0.901901,0.982689,0.538304,0.122309,-0.239836,-0.183018,0.168109,-0.415574,-0.279975,-0.848912,33.987283,-53.101860,-174.962652
28194,NaN,7.587094,3.490397,6.328348,1.148276,0.763334,0.574493,0.047444,-0.354396,-0.223359,0.166663,-0.416739,-0.280969,-0.848297,34.321470,-53.196141,-175.348884
28195,NaN,8.313496,3.446219,6.036269,0.526848,0.614932,0.993394,-0.050582,-0.309103,-0.216311,0.165182,-0.417775,-0.281529,-0.847891,34.576607,-53.270091,-175.696072
28196,NaN,8.368615,3.214248,5.500037,0.053227,0.489121,0.693188,-0.066991,-0.189072,-0.187878,0.163875,-0.418381,-0.281827,-0.847747,34.753973,-53.295841,-175.967797
28197,NaN,8.423021,3.393800,4.923623,-0.244229,0.007533,0.514341,-0.050054,-0.056308,-0.187064,0.162875,-0.418385,-0.282119,-0.847841,34.881193,-53.259110,-176.154818
28198,NaN,8.467370,3.396374,4.504602,-0.540275,-0.243790,0.344665,-0.027563,0.074742,-0.157658,0.162149,-0.417878,-0.282304,-0.848169,34.945867,-53.169499,-176.257961
28199,NaN,8.634590,3.187902,4.360584,-0.851504,-0.169984,0.335198,-0.005064,0.098795,-0.109675,0.161790,-0.417296,-0.282499,-0.848459,34.981582,-53.085064,-176.298742
28200,NaN,8.756696,2.680051,4.199309,-1.297823,0.128223,0.177097,0.019676,0.114668,-0.065159,0.161685,-0.416687,-0.282695,-0.848713,34.997736,-53.007157,-176.297473
28201,NaN,8.833946,2.478221,4.322473,-1.388343,0.358689,0.227619,0.079685,0.205848,-0.049858,0.161907,-0.415667,-0.283038,-0.849056,34.997943,-52.892119,-176.233018
28202,NaN,8.622753,2.694038,4.546245,-1.037126,0.331159,0.241799,0.143037,0.287787,-0.038378,0.162361,-0.414291,-0.283515,-0.849483,34.990353,-52.743117,-176.123308
28203,NaN,8.271551,3.035084,5.004828,-0.397197,0.356621,0.306285,0.162699,0.287400,-0.037208,0.162924,-0.412873,-0.284116,-0.849865,34.995738,-52.593954,-176.005307
28204,NaN,7.302107,3.366568,5.370080,0.558160,0.364314,-0.166548,0.168930,0.209486,-0.058860,0.163219,-0.411769,-0.284815,-0.850110,35.051584,-52.473549,-175.956443
28205,NaN,6.886296,3.831178,5.455886,1.083528,0.079184,-0.289801,0.138006,0.089526,-0.095820,0.163200,-0.411127,-0.285592,-0.850163,35.163716,-52.397964,-175.990589
28206,NaN,7.462513,4.032033,5.039893,0.570008,-0.350447,0.031051,0.077739,0.081813,-0.118664,0.162878,-0.410568,-0.286128,-0.850315,35.257881,-52.319538,-176.055774
28207,NaN,7.656681,3.778722,4.798171,0.160184,-0.302589,-0.024495,0.057055,0.116655,-0.119289,0.162631,-0.409843,-0.286587,-0.850557,35.325737,-52.223430,-176.092658
28208,NaN,7.846107,3.816136,4.542175,-0.108568,-0.492313,0.010829,0.066942,0.123779,-0.129503,0.162295,-0.409088,-0.287066,-0.850823,35.402054,-52.120314,-176.143333
28209,NaN,7.788503,3.821721,4.316880,-0.224038,-0.626655,-0.145275,0.092894,0.120908,-0.132223,0.162072,-0.408296,-0.287700,-0.851032,35.495827,-52.017862,-176.187142
28210,NaN,7.676031,3.839667,4.311037,-0.165477,-0.630350,-0.230162,0.108417,0.090011,-0.123961,0.161800,-0.407662,-0.288371,-0.851161,35.605943,-51.932825,-176.250599
28211,NaN,7.531155,3.802237,4.452050,-0.023684,-0.495908,-0.286432,0.122467,0.049644,-0.116782,0.161600,-0.407171,-0.289156,-0.851167,35.737144,-51.868598,-176.320539
28212,NaN,7.382844,3.881503,4.678707,0.233889,-0.396600,-0.260162,0.128968,0.014827,-0.122113,0.161269,-0.406841,-0.289970,-0.851111,35.889265,-51.818846,-176.422525
28213,NaN,7.375129,3.856413,4.686710,0.221882,-0.355974,-0.270480,0.131888,0.001853,-0.125634,0.160981,-0.406533,-0.290852,-0.851012,36.050883,-51.773576,-176.524403
28214,NaN,7.459024,3.761788,4.629866,0.079532,-0.304548,-0.266765,0.129749,-0.007278,-0.128301,0.160589,-0.406285,-0.291701,-0.850914,36.216480,-51.731356,-176.643066
28215,NaN,7.557707,3.694981,4.616881,-0.030125,-0.247181,-0.219701,0.129652,-0.032595,-0.121268,0.160265,-0.406131,-0.292591,-0.850743,36.388507,-51.703110,-176.759948
28216,NaN,7.700263,3.673351,4.707788,-0.080606,-0.160460,-0.070072,0.129014,-0.040715,-0.122714,0.159850,-0.406032,-0.293450,-0.850572,36.563536,-51.677635,-176.891330
28217,NaN,7.718140,3.684692,4.830922,-0.019659,-0.074505,0.009659,0.130999,-0.002446,-0.139422,0.159495,-0.405720,-0.294359,-0.850474,36.733422,-51.628884,-177.004602
28218,NaN,7.804302,3.735752,4.951833,0.013426,-0.024663,0.156405,0.132477,0.055591,-0.139365,0.159164,-0.405181,-0.295185,-0.850506,36.876588,-51.553052,-177.093054
28219,NaN,7.823419,3.710265,5.011250,0.008746,0.045365,0.191432,0.114754,0.092224,-0.133777,0.158940,-0.404488,-0.295936,-0.850617,36.992158,-51.462537,-177.149050
28220,NaN,7.692604,3.734502,4.833403,-0.021020,-0.070731,0.009684,0.114865,0.127714,-0.142991,0.158655,-0.403657,-0.296642,-0.850819,37.097181,-51.352763,-177.201590
28221,NaN,7.745162,3.827178,4.905077,0.016320,-0.089299,0.121412,0.102014,0.139576,-0.133388,0.158477,-0.402772,-0.297301,-0.851042,37.184049,-51.240630,-177.230325
28222,NaN,7.645869,3.772599,4.914472,0.038164,-0.030328,0.028119,0.073701,0.110516,-0.115810,0.158197,-0.402088,-0.297792,-0.851246,37.257356,-51.148125,-177.272494
28223,NaN,7.539983,3.634324,4.990298,0.063907,0.134858,-0.068949,0.043313,0.076183,-0.120144,0.157861,-0.401538,-0.298224,-0.851416,37.329868,-51.069438,-177.326071
28224,NaN,7.498236,3.481017,4.801619,-0.111556,0.141585,-0.254231,0.022209,0.049911,-0.115424,0.157468,-0.401120,-0.298574,-0.851563,37.397854,-51.004028,-177.389613
28225,NaN,7.516349,3.421938,4.733794,-0.202875,0.150326,-0.296900,0.009252,0.026082,-0.107149,0.157045,-0.400830,-0.298874,-0.851673,37.464657,-50.952581,-177.461061
28226,NaN,7.713329,3.341467,4.626113,-0.438841,0.145719,-0.228954,0.011796,0.003135,-0.105891,0.156611,-0.400640,-0.299193,-0.851730,37.540016,-50.912873,-177.541768
28227,NaN,7.822194,3.376237,4.721923,-0.438760,0.185862,-0.083597,0.015063,-0.039158,-0.100330,0.156131,-0.400633,-0.299555,-0.851695,37.634077,-50.893308,-177.644124
28228,NaN,7.795360,3.378025,4.968382,-0.277106,0.353156,0.018996,0.014545,-0.095436,-0.094243,0.155589,-0.400873,-0.299946,-0.851543,37.748674,-50.901036,-177.773464
28229,NaN,7.677742,3.407725,5.286390,0.003295,0.548879,0.097153,0.000920,-0.158871,-0.090707,0.154942,-0.401400,-0.300321,-0.851280,37.881002,-50.938781,-177.935531
28230,NaN,7.800684,3.467185,5.498318,0.090104,0.650577,0.320039,-0.027796,-0.217738,-0.097227,0.154118,-0.402198,-0.300635,-0.850942,38.027476,-51.001368,-178.136752
28231,NaN,8.110707,3.448071,5.584088,-0.052961,0.728921,0.595033,-0.054240,-0.198272,-0.098862,0.153266,-0.402922,-0.300822,-0.850688,38.150666,-51.053509,-178.327471
28232,NaN,7.834936,3.458934,5.786049,0.252777,0.866348,0.483640,-0.061346,-0.128324,-0.113467,0.152370,-0.403359,-0.300916,-0.850608,38.247053,-51.068906,-178.499029
28233,NaN,7.485842,3.930699,5.293894,0.412955,0.204686,0.152306,-0.016899,0.010057,-0.148097,0.151697,-0.403094,-0.301202,-0.850753,38.327845,-51.009462,-178.607675
28234,NaN,7.672563,4.596757,4.730288,0.275107,-0.664827,0.279700,0.026481,0.201987,-0.173202,0.151292,-0.401933,-0.301573,-0.851242,38.362167,-50.853737,-178.625065
28235,NaN,7.497816,4.789320,4.410396,0.263303,-1.013198,0.062051,0.036294,0.279416,-0.143253,0.151152,-0.400488,-0.301870,-0.851843,38.352578,-50.674912,-178.578099
28236,NaN,7.259990,4.546477,4.212637,0.149856,-0.948718,-0.315232,0.020777,0.199423,-0.108362,0.150925,-0.399470,-0.302059,-0.852295,38.350768,-50.543569,-178.562821
28237,NaN,7.346918,4.034820,4.275833,-0.140812,-0.514254,-0.418251,0.029010,0.118499,-0.085452,0.150773,-0.398802,-0.302329,-0.852538,38.375240,-50.457594,-178.565228
28238,NaN,7.379112,3.775874,4.561658,-0.134076,-0.129248,-0.353165,0.058225,0.072158,-0.073813,0.150578,-0.398358,-0.302705,-0.852647,38.431354,-50.396848,-178.596894
28239,NaN,7.392383,3.766112,4.876698,0.028968,0.085241,-0.189538,0.058488,0.029848,-0.081010,0.150369,-0.398052,-0.303159,-0.852665,38.508269,-50.352222,-178.645464
28240,NaN,7.366990,3.750224,5.071959,0.144516,0.230787,-0.117980,0.049348,0.015147,-0.096120,0.150059,-0.397799,-0.303615,-0.852676,38.594357,-50.309627,-178.712685
28241,NaN,7.535658,3.740669,5.075482,0.026214,0.246923,0.009614,0.042201,0.020227,-0.100444,0.149720,-0.397516,-0.304045,-0.852714,38.676283,-50.262266,-178.779963
28242,NaN,7.786003,3.860488,5.120132,-0.056730,0.188329,0.272067,0.040453,0.025684,-0.099555,0.149389,-0.397208,-0.304461,-0.852767,38.753912,-50.212054,-178.843260
28243,NaN,7.828047,3.898877,5.168555,-0.044337,0.197567,0.343716,0.028792,0.011380,-0.094379,0.149036,-0.396982,-0.304829,-0.852803,38.828387,-50.170703,-178.910932
28244,NaN,7.831669,3.929452,5.097974,-0.079586,0.137844,0.323369,0.027975,-0.008969,-0.095299,0.148642,-0.396842,-0.305212,-0.852800,38.912182,-50.137826,-178.991493
28245,NaN,7.768763,4.065472,5.163090,0.061340,0.084999,0.362195,0.028775,-0.026010,-0.086816,0.148264,-0.396787,-0.305592,-0.852755,38.998477,-50.115735,-179.074643
28246,NaN,7.831999,4.172113,5.197323,0.090807,0.033337,0.470773,0.014448,-0.042122,-0.069594,0.147908,-0.396837,-0.305887,-0.852688,39.073971,-50.106946,-179.154574
28247,NaN,7.876895,4.159674,5.098774,-0.002675,-0.013052,0.451116,-0.002813,-0.045386,-0.044845,0.147617,-0.396952,-0.306064,-0.852621,39.128106,-50.108501,-179.219421
28248,NaN,7.783898,4.103561,4.999693,-0.028726,-0.027656,0.307769,-0.017863,-0.031816,-0.030304,0.147388,-0.397042,-0.306131,-0.852595,39.158387,-50.109584,-179.264578
28249,NaN,7.665377,4.113794,4.971954,0.036009,-0.049417,0.207188,-0.020574,-0.019009,-0.018724,0.147214,-0.397098,-0.306160,-0.852589,39.177049,-50.108826,-179.296454
28250,NaN,7.577144,3.996187,4.832220,-0.047841,-0.046509,0.022379,-0.045780,-0.010908,-0.014803,0.147017,-0.397147,-0.306070,-0.852632,39.176146,-50.106247,-179.321643
28251,NaN,7.500685,3.781352,4.580341,-0.255115,-0.042524,-0.248612,-0.050176,0.031705,-0.022036,0.146847,-0.397003,-0.305942,-0.852774,39.157651,-50.081762,-179.327196
28252,NaN,7.255825,3.738942,4.573450,-0.128948,-0.014957,-0.457139,-0.040652,0.076533,-0.033224,0.146724,-0.396641,-0.305840,-0.853001,39.129885,-50.033344,-179.313747
28253,NaN,7.108204,3.957304,4.598663,0.080569,-0.167735,-0.469246,-0.033459,0.060368,-0.047261,0.146523,-0.396324,-0.305812,-0.853192,39.121988,-49.987003,-179.320638
28254,NaN,7.053355,3.994240,4.753999,0.219507,-0.096760,-0.418714,-0.057790,-0.001532,-0.058201,0.146139,-0.396273,-0.305745,-0.853306,39.131732,-49.964549,-179.368866
28255,NaN,7.276139,3.967532,4.777564,0.075410,-0.060937,-0.247165,-0.070729,-0.060769,-0.052890,0.145655,-0.396491,-0.305658,-0.853319,39.157588,-49.969999,-179.447733
28256,NaN,7.620956,3.911614,4.811449,-0.152997,0.003962,0.011075,-0.083277,-0.055816,-0.051983,0.145161,-0.396707,-0.305512,-0.853355,39.173984,-49.974681,-179.523426
28257,NaN,7.840861,3.822962,4.875007,-0.300944,0.112640,0.175134,-0.081668,-0.021367,-0.045669,0.144746,-0.396776,-0.305336,-0.853456,39.172786,-49.965217,-179.575144
28258,NaN,8.040893,3.782525,4.953727,-0.404396,0.192278,0.351090,-0.080676,-0.008887,-0.023692,0.144439,-0.396825,-0.305114,-0.853565,39.156211,-49.957945,-179.606120
28259,NaN,8.068111,3.617099,5.051727,-0.443764,0.380308,0.353739,-0.090065,-0.045048,0.001727,0.144174,-0.397073,-0.304824,-0.853598,39.135330,-49.976163,-179.638417
28260,NaN,7.531146,3.533148,5.088004,-0.111032,0.470017,-0.073291,-0.087514,-0.123780,0.011164,0.143838,-0.397676,-0.304583,-0.853460,39.144835,-50.033692,-179.708359
28261,NaN,7.105509,3.816924,5.214173,0.387501,0.334825,-0.221938,-0.103450,-0.198582,-0.012467,0.143252,-0.398567,-0.304375,-0.853217,39.190310,-50.114968,-179.837133
28262,NaN,7.051504,4.072564,5.133761,0.515164,0.091065,-0.200650,-0.130853,-0.262572,-0.019165,0.142408,-0.399768,-0.304074,-0.852903,39.252281,-50.222319,179.982271
28263,NaN,7.160819,4.080699,5.030268,0.407534,0.024854,-0.165600,-0.166342,-0.310140,-0.017276,0.141505,-0.401171,-0.303686,-0.852533,39.313957,-50.351158,179.785990
28264,NaN,7.521725,4.014580,4.847659,0.057775,-0.032855,-0.005112,-0.176257,-0.301088,-0.013372,0.140539,-0.402581,-0.303205,-0.852200,39.365275,-50.478190,179.586265
28265,NaN,7.950857,4.011440,4.633378,-0.327841,-0.159496,0.219413,-0.161600,-0.203359,-0.016599,0.139810,-0.403524,-0.302759,-0.852032,39.383689,-50.559781,179.450212
28266,NaN,8.035513,4.171868,4.500972,-0.375653,-0.366892,0.284687,-0.133592,-0.064858,-0.018859,0.139268,-0.403879,-0.302300,-0.852116,39.357383,-50.579303,179.382763
28267,NaN,8.032619,4.306524,4.523667,-0.295210,-0.461277,0.347664,-0.110315,0.012536,-0.014269,0.138979,-0.403869,-0.301916,-0.852303,39.308698,-50.566125,179.371725
28268,NaN,8.143301,4.287920,4.441055,-0.428060,-0.503958,0.384634,-0.095137,0.050112,0.000632,0.138843,-0.403714,-0.301540,-0.852533,39.243847,-50.542073,179.392854
28269,NaN,8.154421,4.111027,4.514108,-0.480592,-0.327861,0.357555,-0.076022,0.070390,0.022125,0.138866,-0.403488,-0.301188,-0.852760,39.169766,-50.516406,179.440160
28270,NaN,8.035870,3.977812,4.675228,-0.375307,-0.131164,0.291662,-0.052533,0.051563,0.031771,0.138948,-0.403344,-0.300930,-0.852906,39.112486,-50.502776,179.483110
28271,NaN,7.875056,3.959791,4.919054,-0.134731,0.029119,0.280605,-0.042927,0.007255,0.042065,0.139027,-0.403394,-0.300723,-0.852942,39.074376,-50.512329,179.508390
28272,NaN,7.630423,3.970159,5.152460,0.170562,0.162016,0.211185,-0.060633,-0.046957,0.039614,0.138982,-0.403681,-0.300480,-0.852899,39.050221,-50.544791,179.502187
28273,NaN,7.422154,3.897733,5.212822,0.311870,0.252388,0.051046,-0.095050,-0.087097,0.034163,0.138781,-0.404159,-0.300133,-0.852828,39.027877,-50.593466,179.468368
28274,NaN,7.217373,3.745073,5.057288,0.281873,0.270283,-0.245049,-0.122425,-0.080641,0.008516,0.138428,-0.404586,-0.299712,-0.852831,38.999951,-50.629782,179.421266
28275,NaN,7.291009,3.860911,5.028001,0.276558,0.157741,-0.156349,-0.152917,-0.038716,-0.026742,0.137922,-0.404805,-0.299207,-0.852986,38.956258,-50.634980,179.372206
28276,NaN,7.456735,3.751172,4.942634,0.067825,0.185436,-0.113985,-0.190145,-0.028643,-0.027663,0.137350,-0.405007,-0.298538,-0.853217,38.887626,-50.635415,179.327703
28277,NaN,7.613260,3.514698,4.779628,-0.242735,0.263265,-0.167406,-0.194783,-0.029393,-0.020534,0.136799,-0.405224,-0.297835,-0.853448,38.812476,-50.638753,179.288306
28278,NaN,7.592184,3.535949,4.628677,-0.312045,0.145906,-0.249729,-0.162767,0.003711,-0.027970,0.136253,-0.405293,-0.297226,-0.853715,38.745663,-50.624563,179.251677
28279,NaN,7.453549,3.711967,4.590798,-0.168018,-0.023229,-0.305808,-0.130143,0.040433,-0.042173,0.135845,-0.405136,-0.296794,-0.854005,38.688815,-50.588989,179.236505
28280,NaN,7.453153,3.912374,4.539973,-0.110772,-0.218025,-0.251950,-0.113218,0.057582,-0.038066,0.135509,-0.404900,-0.296416,-0.854301,38.632564,-50.547162,179.232950
28281,NaN,7.469934,3.983625,4.498292,-0.121097,-0.305225,-0.231666,-0.092532,0.071925,-0.038241,0.135241,-0.404588,-0.296116,-0.854596,38.581507,-50.498912,179.238176
28282,NaN,7.553486,4.075879,4.477949,-0.151708,-0.394338,-0.141005,-0.067974,0.072989,-0.040418,0.135019,-0.404249,-0.295920,-0.854859,38.544286,-50.449309,179.243509
28283,NaN,7.605879,4.128776,4.620265,-0.079874,-0.350666,-0.008929,-0.062325,0.025096,-0.036358,0.134750,-0.404119,-0.295777,-0.855012,38.529831,-50.422715,179.223712
28284,NaN,7.512740,4.030408,4.890317,0.098210,-0.108067,0.014791,-0.071442,-0.074501,-0.015958,0.134407,-0.404454,-0.295618,-0.854963,38.541776,-50.448515,179.162929
28285,NaN,7.487331,3.968308,5.034560,0.180992,0.031677,0.042292,-0.095885,-0.157466,-0.020135,0.133870,-0.405151,-0.295421,-0.854785,38.578328,-50.509503,179.052094
28286,NaN,7.652486,3.855205,5.217841,0.147374,0.238267,0.215798,-0.130483,-0.182935,-0.019453,0.133225,-0.405982,-0.295092,-0.854606,38.606255,-50.582135,178.926763
28287,NaN,7.638679,3.735347,5.272590,0.145390,0.367379,0.184628,-0.163292,-0.147228,-0.029605,0.132526,-0.406665,-0.294618,-0.854553,38.605347,-50.635097,178.814632
28288,NaN,7.655149,3.677434,5.140632,0.033310,0.330234,0.109044,-0.193892,-0.079766,-0.045994,0.131719,-0.407080,-0.293965,-0.854705,38.566200,-50.651902,178.719169
28289,NaN,7.727532,3.677719,4.910630,-0.154769,0.184520,0.051219,-0.204838,0.003162,-0.051575,0.131062,-0.407115,-0.293259,-0.855032,38.488068,-50.629711,178.676181
28290,NaN,7.826323,3.598625,4.554953,-0.479846,0.023865,-0.080361,-0.183349,0.054829,-0.042602,0.130485,-0.406953,-0.292557,-0.855438,38.395248,-50.587458,178.657923
28291,NaN,7.901018,3.704678,4.438682,-0.558433,-0.138366,-0.039171,-0.139741,0.073881,-0.037994,0.130122,-0.406662,-0.292054,-0.855803,38.316414,-50.538403,178.664089
28292,NaN,7.734821,3.805507,4.498792,-0.377370,-0.191455,-0.098296,-0.102129,0.065851,-0.035498,0.129844,-0.406384,-0.291708,-0.856095,38.259816,-50.494136,178.669313
28293,NaN,7.634879,3.863771,4.614648,-0.220438,-0.173359,-0.094846,-0.077166,0.012826,-0.018206,0.129604,-0.406342,-0.291472,-0.856232,38.232422,-50.479566,178.655281
28294,NaN,7.374406,3.898516,5.007480,0.204389,0.031336,-0.085797,-0.065118,-0.046022,-0.022267,0.129286,-0.406534,-0.291332,-0.856236,38.238631,-50.489564,178.606318
28295,NaN,7.289446,4.031038,4.794540,0.190004,-0.202225,-0.205612,-0.051948,-0.084791,-0.027401,0.128915,-0.406880,-0.291286,-0.856143,38.272722,-50.515650,178.531334
28296,NaN,7.031627,4.208509,5.164544,0.668826,-0.120744,-0.150082,-0.052105,-0.083068,-0.050297,0.128451,-0.407190,-0.291285,-0.856066,38.318633,-50.533407,178.441051
28297,NaN,7.061783,4.508584,5.185876,0.802541,-0.341878,0.002019,-0.057639,-0.090050,-0.071828,0.127871,-0.407498,-0.291309,-0.855999,38.376113,-50.545987,178.331589
28298,NaN,7.500926,4.533685,5.122677,0.497077,-0.387768,0.319566,-0.084527,-0.075093,-0.068218,0.127275,-0.407762,-0.291198,-0.855999,38.409140,-50.553018,178.233710
28299,NaN,7.771992,4.193602,5.061443,0.132871,-0.146434,0.364212,-0.105894,-0.057413,-0.045015,0.126759,-0.407999,-0.290939,-0.856051,38.410285,-50.560414,178.161422
28300,NaN,7.970192,3.807197,5.048478,-0.176387,0.157764,0.358342,-0.100365,-0.029932,-0.040520,0.126317,-0.408118,-0.290674,-0.856150,38.399200,-50.556768,178.108880
28301,NaN,8.006385,3.646396,5.054951,-0.269616,0.290168,0.326052,-0.074445,-0.004394,-0.038013,0.125972,-0.408118,-0.290502,-0.856259,38.391598,-50.542859,178.071248
28302,NaN,7.897345,3.659333,5.105566,-0.164478,0.307677,0.272147,-0.069551,-0.018266,-0.034444,0.125627,-0.408179,-0.290353,-0.856331,38.391181,-50.536062,178.027660
28303,NaN,8.040698,3.521925,5.091148,-0.324793,0.412640,0.321453,-0.085550,-0.075696,-0.021437,0.125227,-0.408515,-0.290144,-0.856300,38.399003,-50.560070,177.961812
28304,NaN,8.089585,3.183549,5.034385,-0.537297,0.651715,0.197706,-0.104961,-0.118254,-0.010761,0.124774,-0.409061,-0.289855,-0.856204,38.407706,-50.607078,177.880365
28305,NaN,7.997742,3.185574,4.936539,-0.532236,0.591283,0.079142,-0.083808,-0.089669,-0.026304,0.124336,-0.409449,-0.289672,-0.856144,38.425393,-50.635610,177.803116
28306,NaN,7.575006,3.613999,4.950545,-0.060464,0.248293,-0.071830,-0.050488,-0.023749,-0.047990,0.123974,-0.409501,-0.289632,-0.856185,38.444420,-50.626834,177.748670
28307,NaN,7.106515,4.231837,5.235743,0.690723,-0.085529,-0.048488,-0.041071,-0.001658,-0.075087,0.123542,-0.409415,-0.289677,-0.856273,38.475058,-50.598459,177.686336
28308,NaN,6.993214,4.630253,5.246632,0.946028,-0.398644,0.026903,-0.077354,-0.063706,-0.066205,0.122987,-0.409634,-0.289586,-0.856279,38.506814,-50.601702,177.595729
28309,NaN,7.442239,4.367303,4.916960,0.338598,-0.371208,0.106199,-0.134943,-0.118851,-0.042179,0.122334,-0.410154,-0.289234,-0.856243,38.516611,-50.637572,177.490782
28310,NaN,7.863065,3.975879,4.771085,-0.189443,-0.132605,0.204557,-0.146040,-0.102558,-0.031341,0.121731,-0.410631,-0.288801,-0.856246,38.506903,-50.670559,177.402989
28311,NaN,7.934771,3.768236,4.827611,-0.287029,0.068820,0.206239,-0.123145,-0.072649,-0.025028,0.121242,-0.410971,-0.288436,-0.856276,38.494119,-50.691842,177.336060
28312,NaN,7.570061,3.762155,4.869099,-0.029384,0.087454,-0.057727,-0.100562,-0.072212,-0.043124,0.120727,-0.411271,-0.288202,-0.856283,38.503561,-50.706896,177.257198
28313,NaN,7.383247,3.880029,5.047279,0.257885,0.094627,-0.067610,-0.101141,-0.109809,-0.058745,0.120086,-0.411708,-0.288022,-0.856224,38.538156,-50.732791,177.145384
28314,NaN,7.279743,3.932873,5.080975,0.374738,0.072763,-0.110485,-0.116840,-0.166049,-0.070872,0.119283,-0.412378,-0.287832,-0.856077,38.594619,-50.779899,176.993821
28315,NaN,7.293743,3.951166,5.201590,0.460755,0.136371,-0.033320,-0.118238,-0.217952,-0.091865,0.118309,-0.413240,-0.287712,-0.855838,38.685404,-50.842194,176.797017
28316,NaN,7.552847,3.956676,5.319934,0.388914,0.220058,0.227371,-0.131645,-0.267592,-0.101114,0.117122,-0.414330,-0.287543,-0.855530,38.795359,-50.922915,176.555558
28317,NaN,7.885351,3.886252,5.419033,0.227461,0.358603,0.505611,-0.135057,-0.257326,-0.111402,0.115972,-0.415339,-0.287413,-0.855241,38.905797,-50.995301,176.321457
28318,NaN,8.702968,3.853632,5.187494,-0.440079,0.291204,1.014304,-0.111438,-0.123075,-0.103536,0.115027,-0.415794,-0.287249,-0.855203,38.965103,-51.010310,176.160495
28319,NaN,8.932225,3.753125,4.879473,-0.828735,0.205418,1.001694,-0.073482,0.037399,-0.071885,0.114596,-0.415564,-0.287130,-0.855413,38.958380,-50.965343,176.122676
28320,NaN,8.834702,3.774992,4.673818,-0.904541,0.061074,0.832741,-0.024056,0.172587,-0.063672,0.114502,-0.414734,-0.287122,-0.855830,38.914280,-50.862768,176.169144
28321,NaN,8.181470,3.870622,4.673123,-0.473111,-0.049179,0.362279,0.010436,0.240812,-0.044604,0.114655,-0.413624,-0.287188,-0.856325,38.850897,-50.736921,176.266384
28322,NaN,7.638147,3.811862,4.634998,-0.201055,-0.052351,-0.101272,0.021094,0.229450,-0.021583,0.114839,-0.412614,-0.287220,-0.856777,38.786080,-50.624477,176.363413
28323,NaN,7.164793,3.835356,4.577766,0.054438,-0.129781,-0.486363,0.013946,0.205312,-0.006074,0.115113,-0.411708,-0.287240,-0.857169,38.720198,-50.528173,176.466803
28324,NaN,6.999246,3.757125,4.628682,0.143356,-0.048662,-0.619908,0.015061,0.181593,0.002130,0.115321,-0.410940,-0.287223,-0.857515,38.660200,-50.445578,176.553487
28325,NaN,7.149376,3.818104,4.587570,0.034602,-0.121645,-0.500261,0.016830,0.182433,0.007395,0.115626,-0.410149,-0.287241,-0.857847,38.599311,-50.364191,176.652796
28326,NaN,7.456559,3.770735,4.576427,-0.201828,-0.084218,-0.288269,0.014705,0.173546,0.017311,0.115871,-0.409434,-0.287199,-0.858169,38.536466,-50.289546,176.742573
28327,NaN,7.718176,3.663619,4.739925,-0.321976,0.101788,-0.048201,0.012474,0.135704,0.036051,0.116222,-0.408887,-0.287166,-0.858394,38.478269,-50.239197,176.835339
28328,NaN,7.407862,3.626217,4.904890,-0.042124,0.213283,-0.219119,0.006843,0.079049,0.030016,0.116457,-0.408579,-0.287153,-0.858512,38.444215,-50.212494,176.892566
28329,NaN,7.303448,3.882273,5.012442,0.199325,0.063482,-0.143499,-0.006872,0.059007,0.003368,0.116518,-0.408326,-0.287149,-0.858626,38.425566,-50.184852,176.919516
28330,NaN,7.192453,4.080051,5.000380,0.342939,-0.109507,-0.155959,-0.043367,0.063207,-0.020012,0.116410,-0.408042,-0.287032,-0.858815,38.396679,-50.147080,176.932407
28331,NaN,7.155185,4.109390,4.779386,0.233676,-0.267622,-0.283781,-0.064035,0.044299,-0.015317,0.116253,-0.407858,-0.286829,-0.858992,38.361672,-50.119380,176.938023
28332,NaN,7.500583,4.005424,4.603466,-0.147278,-0.279090,-0.148606,-0.082175,0.011316,0.002584,0.116090,-0.407851,-0.286528,-0.859117,38.320284,-50.112930,176.938277
28333,NaN,8.078104,3.787694,4.617510,-0.601379,-0.079878,0.215061,-0.091155,-0.025706,0.039880,0.116015,-0.408062,-0.286137,-0.859158,38.269832,-50.136304,176.943773
28334,NaN,8.404426,3.347311,4.627427,-0.987482,0.287750,0.296418,-0.083711,-0.072016,0.083842,0.116083,-0.408530,-0.285711,-0.859067,38.218653,-50.196348,176.955763
28335,NaN,8.319159,3.140898,4.538552,-1.066777,0.394688,0.105896,-0.041692,-0.090445,0.118620,0.116354,-0.409103,-0.285408,-0.858859,38.181437,-50.276764,176.980900
28336,NaN,7.971974,3.283104,4.803498,-0.601730,0.419785,0.029387,-0.006850,-0.092064,0.099236,0.116614,-0.409637,-0.285294,-0.858607,38.174935,-50.351503,176.992051
28337,NaN,7.338887,3.633782,5.136067,0.179437,0.310001,-0.152744,0.004587,-0.140058,0.074028,0.116718,-0.410332,-0.285310,-0.858256,38.209623,-50.438461,176.958219
28338,NaN,6.947814,4.033397,5.063856,0.572242,-0.065979,-0.333700,-0.024781,-0.192852,0.065891,0.116651,-0.411261,-0.285247,-0.857841,38.254728,-50.546623,176.889046
28339,NaN,6.816608,4.029716,4.885858,0.557183,-0.169338,-0.526288,-0.093870,-0.201582,0.031843,0.116283,-0.412216,-0.284962,-0.857527,38.283008,-50.646258,176.790597
28340,NaN,7.038329,4.101112,4.775251,0.387749,-0.283554,-0.382446,-0.089920,-0.092022,-0.007481,0.115832,-0.412668,-0.284675,-0.857466,38.287970,-50.682418,176.714912
28341,NaN,6.840029,4.440151,4.810187,0.684729,-0.545978,-0.385499,-0.070037,-0.014189,-0.029240,0.115518,-0.412718,-0.284510,-0.857539,38.282489,-50.676074,176.677873
28342,NaN,6.890070,4.716194,4.759160,0.739156,-0.798712,-0.263821,-0.080662,-0.042421,-0.034762,0.115128,-0.412887,-0.284323,-0.857572,38.284833,-50.680844,176.622976
28343,NaN,7.319747,4.624327,4.864087,0.498848,-0.647020,0.084532,-0.116779,-0.130062,-0.021447,0.114586,-0.413472,-0.284008,-0.857467,38.298585,-50.729372,176.526493
28344,NaN,7.746872,4.243523,4.916854,0.110833,-0.289509,0.291808,-0.130512,-0.218645,0.005177,0.114007,-0.414479,-0.283626,-0.857185,38.327669,-50.826842,176.399921
28345,NaN,8.041977,3.839255,4.936757,-0.217070,0.064951,0.372275,-0.134561,-0.255614,0.023106,0.113441,-0.415674,-0.283213,-0.856818,38.362040,-50.947568,176.263982
28346,NaN,8.328917,3.585449,5.040201,-0.418059,0.346765,0.547567,-0.114652,-0.238374,0.018968,0.112847,-0.416803,-0.282847,-0.856469,38.402994,-51.059041,176.124340
28347,NaN,8.004605,3.588582,5.133148,-0.133812,0.388681,0.342697,-0.083702,-0.205824,0.005439,0.112381,-0.417730,-0.282660,-0.856140,38.455400,-51.151002,176.003088
28348,NaN,7.616171,3.919650,5.005482,0.181954,0.034753,0.106498,-0.060098,-0.181263,-0.053805,0.111671,-0.418474,-0.282644,-0.855875,38.543034,-51.210168,175.843648
28349,NaN,7.677609,4.230627,4.834747,0.174595,-0.307088,0.192005,-0.058243,-0.140517,-0.042834,0.111144,-0.419038,-0.282629,-0.855672,38.608623,-51.255434,175.724414
28350,NaN,7.777979,4.052011,4.741284,-0.017528,-0.205196,0.154915,-0.072310,-0.132745,-0.033886,0.110568,-0.419612,-0.282491,-0.855511,38.656732,-51.300357,175.607309
28351,NaN,7.932390,3.678357,4.686099,-0.300657,0.079053,0.102755,-0.072488,-0.123867,-0.004407,0.110199,-0.420166,-0.282325,-0.855341,38.685640,-51.351808,175.524759
28352,NaN,7.689302,3.390155,4.577151,-0.336501,0.242593,-0.252523,-0.045903,-0.075381,-0.015763,0.109909,-0.420487,-0.282270,-0.855239,38.714497,-51.378106,175.462079
28353,NaN,7.893158,3.620444,4.556266,-0.379120,0.056103,-0.013594,-0.001558,0.017121,-0.053899,0.109676,-0.420330,-0.282434,-0.855293,38.748643,-51.348745,175.424895
28354,NaN,8.082627,3.746865,4.768114,-0.309981,0.087598,0.286768,0.011315,0.050309,-0.043698,0.109563,-0.420037,-0.282611,-0.855392,38.768976,-51.308192,175.414698
28355,NaN,8.126608,3.559876,4.948835,-0.301304,0.349471,0.335836,0.014326,-0.014260,-0.004757,0.109529,-0.420074,-0.282757,-0.855330,38.798790,-51.310463,175.394695
28356,NaN,8.261590,3.448418,5.081893,-0.342337,0.527465,0.462316,0.012201,-0.060894,0.009902,0.109491,-0.420332,-0.282886,-0.855166,38.839469,-51.338814,175.359069
28357,NaN,7.789535,3.342663,5.266271,0.033022,0.699810,0.141861,0.014077,-0.051569,0.019082,0.109506,-0.420563,-0.283001,-0.855012,38.872638,-51.366284,175.334601
28358,NaN,7.441230,3.596015,5.244320,0.346134,0.466400,-0.041875,0.018682,-0.023661,-0.007406,0.109449,-0.420632,-0.283175,-0.854928,38.910845,-51.371236,175.306419
28359,NaN,7.595263,3.923385,5.146707,0.325424,0.153808,0.159273,0.004197,0.007506,-0.004906,0.109425,-0.420582,-0.283265,-0.854926,38.925175,-51.363720,175.298825
28360,NaN,7.477803,3.831259,5.129245,0.348568,0.214269,0.022851,-0.024824,-0.035237,-0.000366,0.109304,-0.420739,-0.283244,-0.854871,38.938971,-51.377427,175.270802
28361,NaN,7.584740,3.840719,4.792952,0.067760,0.019905,-0.053240,-0.023816,-0.046498,-0.002933,0.109152,-0.420938,-0.283240,-0.854794,38.960503,-51.394683,175.233451
28362,NaN,8.397332,4.069977,4.382457,-0.612334,-0.362774,0.472217,-0.008282,0.098497,0.014325,0.109309,-0.420534,-0.283187,-0.854990,38.916120,-51.353494,175.291522
28363,NaN,8.157977,3.865369,4.343600,-0.585109,-0.237633,0.185397,0.020714,0.177699,0.061900,0.109845,-0.419841,-0.283115,-0.855286,38.826232,-51.294084,175.429541
28364,NaN,7.151361,3.915029,4.616119,0.234012,-0.177704,-0.448306,0.033013,0.105753,0.044641,0.110229,-0.419426,-0.283170,-0.855421,38.785566,-51.260566,175.513331
28365,NaN,6.930405,4.197007,4.723873,0.560255,-0.357409,-0.457542,0.017582,0.000613,0.020273,0.110330,-0.419434,-0.283269,-0.855372,38.796632,-51.265177,175.519743
28366,NaN,6.874820,4.232981,4.821018,0.678348,-0.331428,-0.439668,-0.027576,-0.100373,0.010631,0.110157,-0.419891,-0.283251,-0.855176,38.832535,-51.312344,175.461549
28367,NaN,7.062472,4.227293,4.978785,0.672800,-0.222381,-0.219216,-0.051327,-0.182915,-0.008658,0.109730,-0.420680,-0.283217,-0.854855,38.902762,-51.388431,175.341646
28368,NaN,7.718025,4.245652,4.848131,0.201463,-0.274053,0.236299,-0.080183,-0.211230,-0.006416,0.109218,-0.421606,-0.283067,-0.854513,38.967255,-51.477892,175.208085
28369,NaN,8.607957,3.945607,4.649296,-0.594795,-0.093062,0.719085,-0.081549,-0.159651,0.010674,0.108843,-0.422339,-0.282850,-0.854271,38.999533,-51.550435,175.114814
28370,NaN,8.867561,3.635372,4.560663,-0.933745,0.125455,0.759048,-0.042566,-0.104458,0.037443,0.108663,-0.422880,-0.282676,-0.854084,39.014865,-51.608178,175.061588
28371,NaN,8.489377,3.525844,4.677044,-0.657912,0.263794,0.476792,-0.002375,-0.113502,0.047504,0.108677,-0.423424,-0.282694,-0.853807,39.051167,-51.673420,175.021201
28372,NaN,7.915035,3.553061,4.882846,-0.142201,0.333873,0.136307,0.015379,-0.151480,0.034573,0.108614,-0.424106,-0.282836,-0.853429,39.123213,-51.751040,174.948058
28373,NaN,7.435648,3.674546,4.917095,0.242975,0.236157,-0.176602,0.021596,-0.194148,0.018679,0.108442,-0.424940,-0.283061,-0.852961,39.226987,-51.841608,174.839374
28374,NaN,7.532838,3.862619,4.773786,0.181348,0.013971,-0.095722,0.010579,-0.134142,-0.004611,0.108168,-0.425514,-0.283214,-0.852659,39.308876,-51.897258,174.740779
28375,NaN,7.610042,3.985863,4.600636,0.075807,-0.175759,-0.069533,0.022610,-0.003589,-0.023069,0.108090,-0.425475,-0.283428,-0.852617,39.349200,-51.888030,174.713612
28376,NaN,7.435003,4.050096,4.559463,0.178572,-0.258726,-0.201630,0.037438,0.087204,-0.030028,0.108148,-0.425030,-0.283669,-0.852752,39.358901,-51.836179,174.736196
28377,NaN,7.275611,4.190902,4.474085,0.271321,-0.429861,-0.312307,0.047560,0.099165,-0.024100,0.108264,-0.424539,-0.283936,-0.852893,39.366565,-51.781049,174.768741
28378,NaN,7.394552,4.130592,4.448740,0.147743,-0.387008,-0.254400,0.035799,0.077981,-0.016081,0.108357,-0.424154,-0.284146,-0.853002,39.372714,-51.738044,174.794323
28379,NaN,7.909596,3.890607,4.575568,-0.192408,-0.088233,0.116540,0.025833,0.028501,0.012321,0.108482,-0.424027,-0.284281,-0.853005,39.380096,-51.727454,174.811406
28380,NaN,7.797956,3.564958,4.927522,-0.025026,0.375713,0.069404,0.017527,-0.093620,0.053551,0.108601,-0.424485,-0.284358,-0.852736,39.414957,-51.786413,174.787809
28381,NaN,7.551792,3.238105,4.966740,0.027765,0.655431,-0.233909,-0.013095,-0.209533,0.043854,0.108439,-0.425439,-0.284389,-0.852271,39.492501,-51.892626,174.687269
28382,NaN,8.093640,3.393655,4.992982,-0.203520,0.581486,0.265715,-0.022777,-0.190660,0.018275,0.108176,-0.426282,-0.284422,-0.851872,39.570444,-51.981387,174.579355
28383,NaN,8.169632,3.516261,4.955846,-0.209061,0.470350,0.356012,-0.018106,-0.113816,0.013905,0.108012,-0.426787,-0.284444,-0.851632,39.618108,-52.034250,174.513317
28384,NaN,7.547596,3.606938,5.059630,0.290397,0.424480,-0.049925,-0.017630,-0.135378,0.011942,0.107810,-0.427386,-0.284484,-0.851344,39.677863,-52.096424,174.432441
28385,NaN,7.402092,3.700956,4.968017,0.371687,0.292336,-0.171857,-0.047323,-0.201672,-0.007487,0.107367,-0.428250,-0.284474,-0.850969,39.762686,-52.180083,174.298248
28386,NaN,7.575900,3.766218,4.671704,0.108992,0.085552,-0.149134,-0.046121,-0.164781,-0.019449,0.106944,-0.428938,-0.284470,-0.850677,39.836125,-52.243588,174.179987
28387,NaN,7.845862,3.912923,4.407332,-0.163424,-0.164082,-0.002516,-0.018362,-0.044879,-0.031519,0.106684,-0.429085,-0.284550,-0.850609,39.877516,-52.249264,174.121911
28388,NaN,8.035963,4.127910,4.255093,-0.292419,-0.412496,0.160601,0.024539,0.071254,-0.019638,0.106733,-0.428729,-0.284722,-0.850725,39.880832,-52.207852,174.142661
28389,NaN,8.057304,4.060605,4.083425,-0.456376,-0.455242,0.069999,0.047994,0.110285,0.006578,0.106998,-0.428235,-0.284920,-0.850874,39.865122,-52.159282,174.204943
28390,NaN,7.946243,3.829094,4.339891,-0.319946,-0.125503,0.011837,0.063641,0.025744,0.034034,0.107298,-0.428131,-0.285169,-0.850805,39.882244,-52.158300,174.237138
28391,NaN,7.648741,3.940336,4.889774,0.280741,0.087867,0.079372,0.076975,-0.093827,0.027752,0.107424,-0.428520,-0.285555,-0.850464,39.967797,-52.207236,174.192255
28392,NaN,7.853460,4.022416,5.092614,0.338026,0.160087,0.368249,0.048418,-0.156583,0.016061,0.107350,-0.429173,-0.285875,-0.850037,40.073287,-52.279310,174.101265
28393,NaN,8.440942,3.692237,5.005565,-0.205159,0.423193,0.661882,0.012071,-0.134819,0.037377,0.107320,-0.429784,-0.285985,-0.849695,40.136146,-52.349677,174.038148
28394,NaN,8.417431,3.405353,5.019901,-0.292982,0.667565,0.537070,0.029237,-0.068284,0.050134,0.107479,-0.430124,-0.286104,-0.849462,40.169777,-52.396126,174.024563
28395,NaN,8.168238,3.493313,4.789739,-0.251972,0.449514,0.266964,0.051740,-0.016469,0.044831,0.107734,-0.430221,-0.286303,-0.849313,40.194589,-52.417389,174.038226
28396,NaN,7.982955,3.638515,4.613797,-0.193089,0.219721,0.095286,0.057031,0.021949,0.034155,0.108003,-0.430138,-0.286526,-0.849247,40.210365,-52.417617,174.066438
28397,NaN,8.024528,3.772151,4.320109,-0.359391,-0.056569,0.043942,0.072807,0.091650,0.047721,0.108471,-0.429768,-0.286750,-0.849298,40.193683,-52.392638,174.147703
28398,NaN,7.912088,3.689673,4.044325,-0.516833,-0.159757,-0.206505,0.095517,0.152228,0.065497,0.109152,-0.429155,-0.286996,-0.849438,40.150511,-52.347868,174.278750
28399,NaN,7.667583,3.748475,4.007471,-0.374194,-0.247796,-0.394551,0.129610,0.151720,0.085738,0.109989,-0.428554,-0.287347,-0.849515,40.116287,-52.310556,174.423379
28400,NaN,7.264311,3.885912,4.054584,-0.042233,-0.357425,-0.637687,0.150477,0.109101,0.079551,0.110719,-0.428137,-0.287782,-0.849483,40.116784,-52.289970,174.529496
28401,NaN,6.869708,4.152230,4.321693,0.491122,-0.436774,-0.719890,0.153964,0.019107,0.056057,0.111291,-0.428042,-0.288372,-0.849256,40.176831,-52.299794,174.572673
28402,NaN,6.808317,4.294869,4.595114,0.778058,-0.387607,-0.584550,0.118929,-0.094343,0.034889,0.111464,-0.428443,-0.288882,-0.848858,40.282670,-52.351659,174.522533
28403,NaN,7.275058,4.315502,4.770749,0.632457,-0.263665,-0.125555,0.083732,-0.168896,0.042715,0.111558,-0.429166,-0.289306,-0.848336,40.400493,-52.438727,174.441932
28404,NaN,7.870054,4.237046,4.839119,0.298274,-0.115167,0.346305,0.060594,-0.156768,0.042795,0.111555,-0.429877,-0.289587,-0.847880,40.498970,-52.521171,174.359620
28405,NaN,8.086290,4.202630,4.802187,0.140295,-0.088240,0.487007,0.062437,-0.086024,0.039905,0.111711,-0.430255,-0.289881,-0.847567,40.566636,-52.570940,174.326996
28406,NaN,8.142446,4.366151,4.687446,0.106279,-0.278743,0.543270,0.075563,0.022773,0.009465,0.111931,-0.430123,-0.290234,-0.847484,40.605828,-52.562563,174.340038
28407,NaN,8.093747,4.501744,4.461256,0.039582,-0.521689,0.453934,0.075042,0.131218,0.000701,0.112263,-0.429517,-0.290544,-0.847642,40.597340,-52.503185,174.412454
28408,NaN,8.205404,4.421418,4.606734,0.023524,-0.366270,0.577927,0.048399,0.129603,0.026707,0.112647,-0.428967,-0.290683,-0.847822,40.559053,-52.453947,174.502979
28409,NaN,8.163507,3.651339,4.561773,-0.323047,0.221347,0.218840,0.011174,0.021659,0.081343,0.113025,-0.428977,-0.290610,-0.847791,40.521603,-52.472258,174.565839
28410,NaN,7.970295,3.070052,4.466496,-0.518731,0.619453,-0.208126,0.022734,-0.064752,0.099359,0.113384,-0.429376,-0.290596,-0.847546,40.522066,-52.535437,174.589610
28411,NaN,8.129012,3.197128,4.465820,-0.550963,0.526004,-0.031800,0.058037,-0.033502,0.067088,0.113722,-0.429573,-0.290784,-0.847337,40.546226,-52.572457,174.608613
28412,NaN,7.904035,3.337099,4.510985,-0.318312,0.428265,-0.134142,0.066438,0.002849,0.062845,0.114118,-0.429606,-0.290994,-0.847194,40.559419,-52.592548,174.647730
28413,NaN,7.525360,3.432885,4.490823,-0.057701,0.319150,-0.406410,0.063882,0.006340,0.045319,0.114434,-0.429599,-0.291231,-0.847074,40.579907,-52.604123,174.675558
28414,NaN,7.477441,3.634406,4.365283,-0.020495,0.082169,-0.422823,0.072106,0.010909,0.039861,0.114761,-0.429563,-0.291510,-0.846952,40.605387,-52.612447,174.703582
28415,NaN,7.426989,3.832999,4.282474,0.043508,-0.126633,-0.422602,0.082261,0.041400,0.021852,0.115068,-0.429363,-0.291854,-0.846893,40.632655,-52.600034,174.736128
28416,NaN,7.558418,4.048192,4.378772,0.121130,-0.231785,-0.188614,0.096601,0.056380,0.014285,0.115402,-0.429079,-0.292265,-0.846850,40.664265,-52.578578,174.773705
28417,NaN,7.759124,4.000004,4.522920,0.070684,-0.092313,0.018250,0.097435,0.040912,0.016315,0.115718,-0.428864,-0.292685,-0.846771,40.703622,-52.564333,174.801991
28418,NaN,7.807406,3.861258,4.649954,0.063599,0.102658,0.060123,0.105626,-0.017926,0.025337,0.116009,-0.428901,-0.293151,-0.846551,40.769768,-52.578818,174.802334
28419,NaN,8.131334,3.923016,4.815217,0.008762,0.178722,0.417804,0.125058,-0.068528,0.009869,0.116196,-0.429123,-0.293765,-0.846199,40.882148,-52.609649,174.758607
28420,NaN,8.389676,4.012072,4.906557,-0.040867,0.188205,0.700190,0.133625,-0.066241,0.010692,0.116411,-0.429333,-0.294412,-0.845839,40.997620,-52.639972,174.717199
28421,NaN,8.337612,4.016583,5.007105,0.065447,0.253549,0.706401,0.127395,-0.063646,0.021130,0.116658,-0.429549,-0.295009,-0.845487,41.102791,-52.672826,174.684261
28422,NaN,8.204406,4.042088,4.965747,0.136956,0.211518,0.591441,0.126073,-0.056103,0.030353,0.116949,-0.429747,-0.295574,-0.845149,41.198236,-52.705758,174.662206
28423,NaN,7.982223,4.110743,4.983041,0.319670,0.163746,0.449661,0.118254,-0.039600,0.039264,0.117288,-0.429893,-0.296079,-0.844851,41.276177,-52.735036,174.656937
28424,NaN,7.920751,4.123073,4.847638,0.278526,0.075746,0.343804,0.099477,-0.015129,0.048647,0.117667,-0.429962,-0.296469,-0.844626,41.325485,-52.757732,174.674260
28425,NaN,7.756783,4.058659,4.649436,0.220213,0.002025,0.097366,0.086811,0.038803,0.050985,0.118104,-0.429813,-0.296770,-0.844536,41.339821,-52.757708,174.726260
28426,NaN,7.556817,3.892856,4.459371,0.139654,0.009084,-0.214447,0.091989,0.075666,0.057169,0.118640,-0.429514,-0.297056,-0.844512,41.334548,-52.744603,174.806902
28427,NaN,7.492025,3.824566,4.312605,0.048570,-0.029162,-0.360011,0.084067,0.087563,0.051352,0.119145,-0.429161,-0.297315,-0.844529,41.322892,-52.723736,174.889604
28428,NaN,7.476258,3.742510,4.224049,-0.041632,-0.018867,-0.445654,0.086847,0.097736,0.034389,0.119604,-0.428735,-0.297613,-0.844575,41.316485,-52.692100,174.967704
28429,NaN,7.751020,3.789591,4.185895,-0.216500,-0.064716,-0.225719,0.090251,0.101322,0.025753,0.120035,-0.428281,-0.297945,-0.844627,41.316143,-52.655618,175.040699
28430,NaN,7.954043,3.711280,4.219938,-0.359227,0.029605,-0.080352,0.097221,0.097859,0.010781,0.120411,-0.427817,-0.298340,-0.844670,41.330031,-52.615149,175.100680
28431,NaN,7.825522,3.711476,4.370570,-0.186241,0.118013,-0.113867,0.107153,0.003624,0.020146,0.120708,-0.427757,-0.298813,-0.844490,41.391021,-52.618593,175.108731
28432,NaN,8.101568,3.872436,4.415328,-0.245948,0.039818,0.190522,0.100685,-0.076913,0.018412,0.120861,-0.428040,-0.299311,-0.844149,41.489394,-52.656058,175.064761
28433,NaN,8.281706,3.840906,4.338361,-0.411073,0.036418,0.286336,0.095697,-0.085513,0.036876,0.121070,-0.428388,-0.299754,-0.843785,41.578827,-52.704103,175.028785
28434,NaN,8.198437,3.868117,4.369530,-0.319430,0.037416,0.245446,0.108091,-0.060175,0.047269,0.121391,-0.428636,-0.300210,-0.843451,41.656365,-52.745252,175.016573
28435,NaN,8.115463,4.058566,4.358418,-0.181698,-0.117450,0.251193,0.117655,-0.028662,0.052878,0.121801,-0.428754,-0.300677,-0.843166,41.721125,-52.775011,175.027430
28436,NaN,7.773985,4.199684,4.320917,0.070736,-0.263717,0.019299,0.118204,-0.020539,0.054440,0.122231,-0.428837,-0.301134,-0.842898,41.780462,-52.801680,175.045135
28437,NaN,7.538694,4.366337,4.218217,0.228977,-0.464125,-0.147165,0.107845,-0.036736,0.046825,0.122582,-0.428986,-0.301577,-0.842613,41.847143,-52.832589,175.046520
28438,NaN,7.389952,4.503971,4.115523,0.322170,-0.636195,-0.256217,0.100055,-0.053113,0.026892,0.122820,-0.429176,-0.302038,-0.842316,41.927550,-52.863218,175.025576
28439,NaN,7.201602,4.551851,4.159136,0.492777,-0.648190,-0.367168,0.092771,-0.080310,0.013424,0.122931,-0.429467,-0.302515,-0.841980,42.026571,-52.899890,174.975571
28440,NaN,7.224398,4.546920,4.119795,0.459560,-0.657027,-0.368312,0.081156,-0.119177,0.003212,0.122921,-0.429915,-0.302990,-0.841582,42.144361,-52.949567,174.894025
28441,NaN,7.418290,4.398318,4.145895,0.299797,-0.502664,-0.261661,0.068452,-0.123056,-0.005436,0.122837,-0.430372,-0.303431,-0.841202,42.262197,-52.997003,174.803060
28442,NaN,7.938357,4.257773,4.213273,-0.026068,-0.312666,0.127100,0.064321,-0.076826,0.008334,0.122867,-0.430661,-0.303798,-0.840917,42.347144,-53.030346,174.750225
28443,NaN,8.318742,3.955302,4.284040,-0.345341,-0.005158,0.340125,0.054574,-0.000523,0.028789,0.123083,-0.430663,-0.304033,-0.840800,42.375257,-53.038967,174.761676
28444,NaN,8.592904,3.509201,4.376530,-0.658593,0.416991,0.419560,0.066241,0.069151,0.063412,0.123580,-0.430419,-0.304199,-0.840791,42.354735,-53.032011,174.842843
28445,NaN,8.417496,3.202180,4.439201,-0.659295,0.683730,0.182939,0.095317,0.089287,0.088764,0.124272,-0.430109,-0.304420,-0.840768,42.326405,-53.025740,174.954160
28446,NaN,8.018716,3.387246,4.468947,-0.315412,0.534058,-0.047442,0.130350,0.065362,0.084256,0.124988,-0.429870,-0.304812,-0.840642,42.332490,-53.028041,175.047646
28447,NaN,7.624498,3.680288,4.402873,0.017018,0.244693,-0.273158,0.131452,0.034068,0.072039,0.125602,-0.429744,-0.305255,-0.840455,42.362575,-53.038705,175.111758
28448,NaN,7.488702,3.900535,4.394405,0.200125,0.063770,-0.296307,0.128158,0.004329,0.071141,0.126168,-0.429744,-0.305703,-0.840207,42.406037,-53.062111,175.157149
28449,NaN,7.627507,3.976066,4.455937,0.196875,0.053862,-0.127561,0.113306,0.002632,0.076578,0.126715,-0.429767,-0.306080,-0.839975,42.439280,-53.087877,175.204270
28450,NaN,7.745109,3.994299,4.626895,0.249596,0.154872,0.049513,0.104987,0.010903,0.077394,0.127261,-0.429763,-0.306413,-0.839773,42.462842,-53.110679,175.257547
28451,NaN,7.675307,3.947647,4.716994,0.331235,0.246483,0.014511,0.100365,0.003627,0.078587,0.127790,-0.429793,-0.306730,-0.839562,42.486990,-53.136827,175.306739
28452,NaN,7.709734,4.019918,4.817291,0.414567,0.257183,0.115455,0.090001,-0.010268,0.075179,0.128260,-0.429884,-0.307018,-0.839339,42.514221,-53.167581,175.344376
28453,NaN,7.973928,4.029894,4.766765,0.234101,0.232868,0.308409,0.076797,-0.004788,0.074940,0.128709,-0.429959,-0.307248,-0.839147,42.531222,-53.195895,175.385589
28454,NaN,8.254298,3.850466,4.681266,-0.071527,0.331302,0.422492,0.067787,0.060517,0.095247,0.129328,-0.429796,-0.307354,-0.839097,42.497334,-53.204608,175.483867
28455,NaN,7.980071,3.673870,4.580899,-0.058380,0.388462,0.087271,0.074135,0.104658,0.087298,0.129992,-0.429432,-0.307476,-0.839136,42.449180,-53.191429,175.604540
28456,NaN,8.016288,3.794491,4.510794,-0.070872,0.247384,0.134175,0.078014,0.124938,0.079798,0.130660,-0.428971,-0.307617,-0.839216,42.397433,-53.166885,175.732204
28457,NaN,8.139222,3.748185,4.380060,-0.256067,0.200590,0.156011,0.075639,0.146088,0.084872,0.131381,-0.428427,-0.307723,-0.839342,42.330367,-53.135092,175.877661
28458,NaN,8.001219,3.552080,4.273146,-0.341681,0.273258,-0.081031,0.094682,0.123688,0.097246,0.132095,-0.428011,-0.307859,-0.839393,42.278079,-53.117862,176.008717
28459,NaN,7.878477,3.656549,4.334128,-0.180190,0.221949,-0.109921,0.115713,0.067254,0.098983,0.132839,-0.427793,-0.308154,-0.839278,42.266690,-53.124791,176.113331
28460,NaN,7.796980,3.825745,4.309670,-0.061621,0.072418,-0.117666,0.121345,0.004923,0.093656,0.133476,-0.427823,-0.308523,-0.839026,42.292901,-53.155891,176.174522
28461,NaN,7.995646,3.974698,4.235657,-0.148483,-0.079103,0.068662,0.123037,-0.013402,0.097679,0.134106,-0.427936,-0.308906,-0.838727,42.327832,-53.196533,176.226438
28462,NaN,7.984521,4.022951,4.203932,-0.131123,-0.134773,0.065288,0.126151,0.004049,0.112238,0.134829,-0.427999,-0.309258,-0.838450,42.347399,-53.235747,176.299598
28463,NaN,7.796179,4.047443,4.277223,0.047168,-0.113425,-0.043258,0.128467,0.007045,0.125763,0.135620,-0.428065,-0.309589,-0.838166,42.358858,-53.278595,176.384632
28464,NaN,7.714347,4.191961,4.319291,0.200297,-0.201040,-0.032124,0.116961,0.030289,0.117258,0.136311,-0.428059,-0.309836,-0.837966,42.356690,-53.308648,176.468213
28465,NaN,7.749180,4.125547,4.358859,0.176107,-0.124560,-0.013552,0.102870,0.053607,0.114670,0.137072,-0.427930,-0.310051,-0.837828,42.335506,-53.327491,176.575596
28466,NaN,7.676564,4.056515,4.479568,0.265477,0.000462,-0.046368,0.089097,0.040619,0.121927,0.137826,-0.427876,-0.310201,-0.837676,42.308006,-53.355155,176.681646
28467,NaN,7.886715,3.909779,4.425885,0.038011,0.083151,0.039558,0.069727,0.038016,0.121574,0.138521,-0.427845,-0.310273,-0.837551,42.271796,-53.383206,176.784019
28468,NaN,8.036892,3.851828,4.177771,-0.233858,-0.030442,0.027352,0.075113,0.076538,0.114524,0.139265,-0.427635,-0.310353,-0.837505,42.221333,-53.392144,176.908117
28469,NaN,8.145838,3.868887,4.075593,-0.355376,-0.111329,0.076434,0.088260,0.123983,0.102214,0.140052,-0.427201,-0.310484,-0.837547,42.162175,-53.376146,177.052291
28470,NaN,8.144662,3.864221,4.082365,-0.355672,-0.110009,0.076438,0.097015,0.130226,0.105132,0.140884,-0.426741,-0.310641,-0.837583,42.103137,-53.359080,177.202949
28471,NaN,8.019351,3.829441,4.163983,-0.247975,-0.039253,-0.001962,0.107035,0.066658,0.105704,0.141636,-0.426539,-0.310883,-0.837470,42.082469,-53.368647,177.312598
28472,NaN,7.928543,3.889700,4.356997,-0.037379,0.035794,0.034764,0.112208,-0.027524,0.108387,0.142196,-0.426761,-0.311170,-0.837155,42.111623,-53.419873,177.354125
28473,NaN,8.006965,3.984322,4.341535,-0.035420,-0.040711,0.128757,0.106713,-0.077292,0.105350,0.142722,-0.427160,-0.311513,-0.836734,42.165351,-53.490515,177.370814
28474,NaN,8.149871,3.975460,4.380601,-0.088758,-0.000589,0.257389,0.103085,-0.055434,0.100416,0.143261,-0.427461,-0.311833,-0.836369,42.207396,-53.550133,177.399662
28475,NaN,8.101993,4.001999,4.415108,-0.017067,0.002962,0.244706,0.113087,0.003398,0.096067,0.143887,-0.427503,-0.312165,-0.836117,42.228105,-53.582976,177.461906
28476,NaN,7.936170,4.007242,4.320226,0.028714,-0.065489,0.071644,0.112873,0.046238,0.088071,0.144546,-0.427358,-0.312482,-0.835958,42.231377,-53.595164,177.545676
28477,NaN,7.781571,3.980033,4.311205,0.102718,-0.054021,-0.067610,0.109562,0.046205,0.079483,0.145162,-0.427198,-0.312803,-0.835813,42.237202,-53.603472,177.623877
28478,NaN,7.697960,3.991664,4.291726,0.148442,-0.076204,-0.138855,0.106001,0.020657,0.074246,0.145714,-0.427140,-0.313138,-0.835622,42.256878,-53.621050,177.682591
28479,NaN,7.669143,4.091975,4.276110,0.210249,-0.160660,-0.128932,0.094239,0.003071,0.056615,0.146135,-0.427134,-0.313475,-0.835425,42.289597,-53.638863,177.716457
28480,NaN,7.770703,4.085837,4.361910,0.203746,-0.094740,-0.011991,0.076934,-0.003280,0.050626,0.146488,-0.427162,-0.313757,-0.835242,42.319157,-53.657749,177.742336
28481,NaN,7.905311,3.921349,4.374225,0.050547,0.044579,0.036182,0.064040,-0.011067,0.039733,0.146751,-0.427211,-0.314014,-0.835075,42.351704,-53.675057,177.754922
28482,NaN,8.148705,3.835427,4.323828,-0.166200,0.085759,0.175926,0.061332,-0.004892,0.034737,0.147005,-0.427229,-0.314265,-0.834927,42.381555,-53.688201,177.769349
28483,NaN,8.303966,3.742128,4.284598,-0.329317,0.137142,0.246632,0.074085,0.026191,0.034002,0.147324,-0.427106,-0.314549,-0.834827,42.403587,-53.687537,177.802122
28484,NaN,8.359487,3.793301,4.219267,-0.378673,0.058479,0.283131,0.097030,0.079263,0.025908,0.147748,-0.426733,-0.314906,-0.834807,42.415210,-53.661836,177.864566
28485,NaN,8.376443,3.923344,4.255861,-0.304645,-0.015665,0.364577,0.113272,0.114512,0.035801,0.148297,-0.426215,-0.315284,-0.834832,42.412336,-53.624514,177.956163
28486,NaN,8.246950,3.936232,4.367936,-0.158502,0.044374,0.314398,0.118284,0.119400,0.041169,0.148895,-0.425683,-0.315668,-0.834852,42.406302,-53.587828,178.055813
28487,NaN,8.100414,3.899574,4.462025,-0.037030,0.130488,0.222981,0.106760,0.075012,0.056879,0.149456,-0.425367,-0.316003,-0.834786,42.408470,-53.575355,178.136581
28488,NaN,7.990222,3.841460,4.540511,0.045278,0.224485,0.145438,0.092383,0.040626,0.052355,0.149914,-0.425197,-0.316310,-0.834675,42.422273,-53.575545,178.192356
28489,NaN,7.900958,3.794384,4.562704,0.087014,0.274767,0.064442,0.076916,0.032406,0.034428,0.150250,-0.425046,-0.316600,-0.834581,42.442537,-53.572431,178.229391
28490,NaN,7.959432,3.728274,4.368116,-0.104279,0.199401,-0.000328,0.067404,0.069112,0.015131,0.150547,-0.424716,-0.316861,-0.834596,42.448436,-53.546406,178.277511
28491,NaN,7.887495,3.654715,4.310406,-0.141479,0.216407,-0.113086,0.078028,0.098925,-0.001386,0.150841,-0.424230,-0.317181,-0.834669,42.455073,-53.501328,178.332308
28492,NaN,7.684483,3.846214,4.265288,0.043286,0.040634,-0.219263,0.087994,0.094731,-0.018153,0.151083,-0.423726,-0.317580,-0.834730,42.478602,-53.451669,178.373197
28493,NaN,7.598399,4.043480,4.295650,0.207946,-0.085734,-0.195650,0.088084,0.076850,-0.030303,0.151243,-0.423277,-0.318020,-0.834761,42.519087,-53.404750,178.393090
28494,NaN,7.565888,4.190869,4.269691,0.281343,-0.209057,-0.173526,0.083052,0.052337,-0.038973,0.151318,-0.422921,-0.318473,-0.834755,42.574005,-53.364936,178.391235
28495,NaN,7.612274,4.244486,4.329990,0.312300,-0.202659,-0.087844,0.078947,0.042513,-0.040252,0.151362,-0.422607,-0.318922,-0.834734,42.632723,-53.328661,178.381897
28496,NaN,7.863085,4.290195,4.444426,0.250295,-0.151606,0.182369,0.068013,0.049193,-0.031556,0.151435,-0.422289,-0.319301,-0.834737,42.676403,-53.293430,178.383814
28497,NaN,8.221951,4.273749,4.439720,0.017163,-0.133203,0.461478,0.064501,0.093450,-0.016229,0.151630,-0.421811,-0.319600,-0.834829,42.686683,-53.245023,178.424577
28498,NaN,8.299793,4.223683,4.478622,-0.041059,-0.069427,0.520637,0.055275,0.127508,0.009563,0.151966,-0.421235,-0.319776,-0.834991,42.658649,-53.191791,178.506035
28499,NaN,7.947979,3.942759,4.657966,0.124749,0.251576,0.203975,0.029069,0.073612,0.034676,0.152267,-0.420948,-0.319835,-0.835059,42.630401,-53.171488,178.569614
28500,NaN,7.858510,3.794892,4.611745,0.070621,0.328005,0.052048,0.002850,0.031413,0.031269,0.152429,-0.420852,-0.319821,-0.835083,42.610821,-53.167533,178.603163
28501,NaN,8.122503,3.774811,4.518847,-0.156211,0.281579,0.214303,-0.023751,0.062968,0.035619,0.152605,-0.420650,-0.319665,-0.835212,42.557356,-53.152046,178.660453
28502,NaN,8.000411,3.567110,4.389715,-0.274442,0.342592,-0.024544,-0.041805,0.111362,0.036141,0.152834,-0.420267,-0.319397,-0.835466,42.468279,-53.117390,178.750261
28503,NaN,7.929136,3.639379,4.129740,-0.358697,0.105953,-0.167424,-0.028072,0.145656,0.032724,0.153121,-0.419719,-0.319166,-0.835777,42.371590,-53.065712,178.858564
28504,NaN,7.819832,3.752641,3.939868,-0.357787,-0.115715,-0.293589,-0.025306,0.155978,0.024234,0.153405,-0.419110,-0.318954,-0.836111,42.275047,-53.006519,178.969082
28505,NaN,7.742953,3.825637,3.765371,-0.388433,-0.295691,-0.403729,-0.014991,0.151957,0.018136,0.153669,-0.418502,-0.318802,-0.836425,42.191426,-52.946338,179.070568
28506,NaN,7.826801,3.950202,3.812618,-0.354411,-0.364137,-0.265921,-0.003032,0.125203,0.011922,0.153882,-0.417988,-0.318732,-0.836670,42.132130,-52.894878,179.149466
28507,NaN,7.924895,4.044262,3.900183,-0.318949,-0.380765,-0.110897,0.005985,0.092425,0.012014,0.154069,-0.417603,-0.318727,-0.836830,42.094644,-52.857519,179.208298
28508,NaN,8.017036,4.037605,4.039726,-0.298920,-0.286113,0.022113,0.005262,0.061174,0.022288,0.154256,-0.417366,-0.318721,-0.836915,42.066338,-52.837937,179.255586
28509,NaN,8.017265,3.983076,4.240955,-0.210028,-0.114231,0.090341,0.008874,0.047322,0.014184,0.154386,-0.417171,-0.318758,-0.836975,42.052247,-52.820565,179.287172
28510,NaN,7.942122,4.083579,4.353432,-0.047743,-0.116255,0.121571,0.021296,0.045653,-0.001942,0.154486,-0.416949,-0.318882,-0.837019,42.054387,-52.798559,179.308310
28511,NaN,7.847181,4.195521,4.493178,0.147353,-0.107971,0.154053,0.015327,0.058393,-0.013780,0.154531,-0.416658,-0.318996,-0.837113,42.054107,-52.765743,179.327215
28512,NaN,7.857263,4.146370,4.526105,0.129242,-0.049601,0.157038,0.009041,0.067507,-0.014554,0.154577,-0.416335,-0.319078,-0.837234,42.046038,-52.729315,179.351627
28513,NaN,7.953057,4.024530,4.536317,0.007347,0.048164,0.188500,0.006902,0.062937,-0.008765,0.154632,-0.416039,-0.319143,-0.837346,42.035886,-52.696487,179.376890
28514,NaN,8.034555,3.873289,4.501959,-0.146596,0.138203,0.176481,0.003013,0.044859,0.000743,0.154690,-0.415841,-0.319186,-0.837417,42.027671,-52.675516,179.397026
28515,NaN,8.096900,3.790439,4.537168,-0.210181,0.222760,0.208256,0.013653,0.047979,0.017713,0.154846,-0.415645,-0.319235,-0.837467,42.014180,-52.659205,179.431368
28516,NaN,7.967470,3.782396,4.629727,-0.083148,0.287970,0.143799,0.022447,0.047878,0.025220,0.155063,-0.415459,-0.319307,-0.837492,42.001447,-52.646927,179.472082
28517,NaN,7.687745,3.968890,4.741338,0.248848,0.220167,0.047505,0.027342,0.039692,0.022551,0.155254,-0.415294,-0.319410,-0.837499,41.997297,-52.635992,179.504553
28518,NaN,7.602430,4.020363,4.750733,0.333008,0.187260,0.004836,0.005518,0.001089,0.028744,0.155372,-0.415319,-0.319438,-0.837454,41.996007,-52.644392,179.518142
28519,NaN,7.488923,3.993651,4.656263,0.333680,0.144009,-0.138913,-0.012255,-0.023773,0.027660,0.155402,-0.415459,-0.319413,-0.837388,41.998192,-52.662439,179.514100
28520,NaN,7.692498,4.056142,4.530586,0.169977,0.014550,-0.008407,-0.016955,0.000896,0.016748,0.155421,-0.415483,-0.319372,-0.837388,41.990851,-52.666215,179.518949
28521,NaN,7.916207,4.095470,4.565112,0.074041,0.006848,0.200999,-0.024569,0.056040,0.015065,0.155499,-0.415278,-0.319260,-0.837518,41.952922,-52.645439,179.556491
28522,NaN,7.508023,4.056442,4.652831,0.349495,0.088389,-0.099603,-0.027490,0.062240,0.005917,0.155559,-0.415036,-0.319151,-0.837669,41.914397,-52.619368,179.593808
28523,NaN,7.599691,4.241363,4.653033,0.387455,-0.052112,0.048466,-0.036355,0.023553,-0.008689,0.155462,-0.414939,-0.319064,-0.837768,41.899314,-52.603328,179.594119
28524,NaN,7.922538,4.137571,4.679569,0.150822,0.041828,0.274927,-0.072903,0.007198,0.001346,0.155305,-0.414954,-0.318814,-0.837885,41.865422,-52.598022,179.591466
28525,NaN,8.023276,4.011672,4.648471,0.002118,0.111176,0.289905,-0.076733,0.052723,-0.006491,0.155179,-0.414769,-0.318531,-0.838107,41.811430,-52.570370,179.611637
28526,NaN,8.330731,4.090973,4.472101,-0.255873,-0.071792,0.486156,-0.070891,0.129813,0.000147,0.155228,-0.414270,-0.318200,-0.838471,41.718300,-52.513176,179.686204
28527,NaN,8.258354,3.932348,4.367289,-0.369599,-0.034580,0.316437,-0.076792,0.186039,0.010501,0.155385,-0.413553,-0.317778,-0.838956,41.588884,-52.434883,179.801466
28528,NaN,8.021146,3.826366,4.393164,-0.278444,0.048000,0.096898,-0.058047,0.184549,0.018564,0.155620,-0.412841,-0.317417,-0.839399,41.466377,-52.360537,179.922013
28529,NaN,7.878520,3.768032,4.354105,-0.256325,0.053581,-0.057751,-0.056813,0.149625,0.029758,0.155841,-0.412291,-0.317067,-0.839761,41.356461,-52.304893,-179.972680
28530,NaN,7.776633,3.669156,4.243866,-0.319157,0.043747,-0.229090,-0.057495,0.122650,0.041795,0.156082,-0.411874,-0.316709,-0.840056,41.252024,-52.265909,-179.873985
28531,NaN,7.721513,3.596376,4.220936,-0.343261,0.073122,-0.312751,-0.050954,0.111153,0.042526,0.156308,-0.411501,-0.316387,-0.840318,41.157622,-52.231437,-179.783933
28532,NaN,7.573502,3.614530,4.317373,-0.190882,0.114778,-0.378026,-0.038429,0.090677,0.039872,0.156526,-0.411203,-0.316138,-0.840517,41.081582,-52.205506,-179.707332
28533,NaN,7.498178,3.789820,4.449281,0.021135,0.063881,-0.306007,-0.035898,0.064730,0.024156,0.156632,-0.410984,-0.315953,-0.840673,41.028807,-52.184034,-179.658983
28534,NaN,7.545910,3.971017,4.575426,0.159349,0.006069,-0.137005,-0.048958,0.021312,0.022615,0.156642,-0.410956,-0.315749,-0.840762,40.989927,-52.181057,-179.637494
28535,NaN,7.619163,4.103334,4.601458,0.199504,-0.080007,-0.013901,-0.056529,-0.007086,0.021588,0.156582,-0.411051,-0.315539,-0.840806,40.961581,-52.189646,-179.635024
28536,NaN,7.757323,4.132270,4.644011,0.157454,-0.077698,0.126513,-0.077725,-0.022741,0.024185,0.156479,-0.411236,-0.315247,-0.840844,40.926551,-52.206968,-179.638391
28537,NaN,7.830180,4.045127,4.593308,0.040330,-0.050037,0.125578,-0.090969,-0.025213,0.030173,0.156356,-0.411447,-0.314888,-0.840898,40.882434,-52.226626,-179.640935
28538,NaN,7.873584,3.901355,4.453983,-0.140914,-0.038272,0.037721,-0.082755,-0.016633,0.029272,0.156261,-0.411616,-0.314558,-0.840956,40.839061,-52.242496,-179.638426
28539,NaN,7.879831,3.838004,4.370870,-0.225551,-0.049967,-0.021204,-0.078189,0.007480,0.023756,0.156189,-0.411670,-0.314240,-0.841062,40.790012,-52.245576,-179.625469
28540,NaN,7.746556,3.839452,4.320561,-0.172443,-0.088573,-0.149345,-0.066153,0.013287,0.029153,0.156183,-0.411703,-0.313959,-0.841152,40.741759,-52.249136,-179.603888
28541,NaN,7.700265,3.848784,4.263992,-0.173341,-0.136854,-0.208518,-0.045916,0.027285,0.016518,0.156178,-0.411637,-0.313776,-0.841254,40.705693,-52.240899,-179.583965
28542,NaN,7.713613,3.988464,4.161573,-0.173150,-0.314049,-0.189915,-0.027857,0.085912,0.010522,0.156286,-0.411304,-0.313637,-0.841449,40.654659,-52.205686,-179.531296
28543,NaN,7.767576,4.095261,4.150531,-0.165068,-0.407961,-0.110130,-0.000794,0.139776,0.007797,0.156513,-0.410715,-0.313574,-0.841717,40.595335,-52.145255,-179.449180
28544,NaN,7.787086,4.030604,4.246521,-0.162851,-0.302855,-0.076201,0.008877,0.134926,0.029914,0.156839,-0.410177,-0.313510,-0.841943,40.532078,-52.095154,-179.355496
28545,NaN,7.950556,3.905068,4.465536,-0.205181,-0.072296,0.104700,-0.001654,0.094318,0.050116,0.157171,-0.409846,-0.313392,-0.842086,40.470692,-52.070168,-179.271288
28546,NaN,7.947346,3.825283,4.652966,-0.135726,0.105202,0.157955,0.010576,0.049019,0.071566,0.157546,-0.409734,-0.313317,-0.842099,40.426139,-52.073149,-179.199626
28547,NaN,7.596307,3.776488,4.902034,0.206585,0.305813,-0.021903,-0.000236,-0.055637,0.084757,0.157792,-0.410088,-0.313252,-0.841904,40.417723,-52.126369,-179.181535
28548,NaN,7.529514,3.731256,4.942766,0.261407,0.368576,-0.073972,-0.031997,-0.172424,0.078888,0.157776,-0.410950,-0.313157,-0.841522,40.449518,-52.228943,-179.236738
28549,NaN,7.626297,3.709559,4.950535,0.214631,0.393918,-0.003113,-0.045746,-0.224208,0.069326,0.157599,-0.412025,-0.313065,-0.841064,40.504782,-52.349902,-179.332149
28550,NaN,7.811565,3.789496,4.784596,0.063425,0.228408,0.097760,-0.046306,-0.172820,0.055806,0.157368,-0.412895,-0.312922,-0.840734,40.543446,-52.443910,-179.416995
28551,NaN,8.142953,3.989064,4.753928,-0.040294,0.056855,0.425246,-0.057350,-0.065876,0.049412,0.157331,-0.413281,-0.312696,-0.840635,40.527249,-52.488449,-179.430448
28552,NaN,7.992839,4.039334,4.755787,0.084106,0.018139,0.326928,-0.050195,-0.005104,0.043658,0.157389,-0.413402,-0.312467,-0.840650,40.488835,-52.505328,-179.409928
28553,NaN,7.893864,3.979187,4.703246,0.086322,0.026177,0.200274,-0.069300,-0.052410,0.047865,0.157341,-0.413739,-0.312184,-0.840598,40.460098,-52.543431,-179.416197
28554,NaN,8.104270,3.823466,4.656830,-0.141727,0.109289,0.284447,-0.094957,-0.100925,0.060435,0.157214,-0.414320,-0.311804,-0.840477,40.433147,-52.607357,-179.443733
28555,NaN,8.337021,3.638880,4.526947,-0.448584,0.158747,0.336903,-0.084195,-0.036524,0.052464,0.157179,-0.414609,-0.311436,-0.840477,40.385488,-52.640242,-179.436921
28556,NaN,8.016719,3.583132,4.627516,-0.219225,0.263271,0.107149,-0.054101,0.015184,0.050069,0.157286,-0.414652,-0.311157,-0.840539,40.330387,-52.649960,-179.398767
28557,NaN,7.864259,3.807111,4.526200,-0.069030,0.022685,0.027123,-0.041292,0.028988,0.056962,0.157462,-0.414638,-0.310909,-0.840605,40.272831,-52.655878,-179.348587
28558,NaN,7.534555,3.881534,4.378191,0.081693,-0.134551,-0.274365,-0.038121,0.050260,0.063188,0.157701,-0.414545,-0.310643,-0.840704,40.203311,-52.654991,-179.281404
28559,NaN,7.200032,3.799873,4.396869,0.252321,-0.066668,-0.563697,-0.075603,0.075170,0.068564,0.157926,-0.414382,-0.310190,-0.840909,40.097066,-52.644890,-179.194705
28560,NaN,6.910563,3.742384,4.506211,0.461778,0.040557,-0.765458,-0.085231,0.069419,0.053168,0.158076,-0.414227,-0.309733,-0.841126,39.995587,-52.632329,-179.119678
28561,NaN,6.827517,4.023243,4.655259,0.749054,-0.082272,-0.652718,-0.115566,-0.032051,0.030781,0.157893,-0.414488,-0.309274,-0.841201,39.939934,-52.655237,-179.125424
28562,NaN,6.911103,4.054820,4.564519,0.666768,-0.170997,-0.616715,-0.166058,-0.126438,0.012079,0.157381,-0.415157,-0.308716,-0.841172,39.911499,-52.712862,-179.201901
28563,NaN,7.617500,4.071907,4.296091,0.096287,-0.367989,-0.173267,-0.204269,-0.157195,0.006298,0.156718,-0.415976,-0.308033,-0.841142,39.879627,-52.781788,-179.301366
28564,NaN,8.260930,4.156282,4.181810,-0.310355,-0.515758,0.318593,-0.206258,-0.078668,-0.008658,0.156047,-0.416471,-0.307276,-0.841298,39.816820,-52.811518,-179.372365
28565,NaN,8.214799,4.085140,4.105269,-0.361053,-0.515250,0.218697,-0.171549,-0.090726,-0.010437,0.155483,-0.416957,-0.306713,-0.841367,39.781340,-52.845149,-179.443668
28566,NaN,8.429132,4.185401,4.164143,-0.393693,-0.555230,0.455937,-0.152209,-0.187421,0.002965,0.154793,-0.417887,-0.306243,-0.841205,39.796569,-52.926721,-179.574559
28567,NaN,9.020052,4.104069,4.448045,-0.600368,-0.309067,1.028614,-0.160072,-0.271388,0.039657,0.154187,-0.419200,-0.305763,-0.840837,39.826691,-53.058232,-179.719624
28568,NaN,9.205705,3.982683,4.849187,-0.504026,0.044497,1.316791,-0.159704,-0.254186,0.074006,0.153690,-0.420519,-0.305162,-0.840487,39.828411,-53.195383,-179.837790
28569,NaN,8.576740,4.024347,5.157309,0.108405,0.210965,0.971439,-0.154632,-0.217193,0.087818,0.153380,-0.421672,-0.304561,-0.840185,39.807766,-53.320704,-179.915110
28570,NaN,8.186522,4.031667,5.272782,0.441737,0.275591,0.713687,-0.192058,-0.239874,0.107808,0.152976,-0.423004,-0.303738,-0.839886,39.764249,-53.463695,-179.999988
28571,NaN,7.612500,3.791142,5.110150,0.586944,0.349839,0.085271,-0.237778,-0.267161,0.120361,0.152550,-0.424477,-0.302756,-0.839575,39.701722,-53.623020,179.915821
28572,NaN,7.409113,3.508557,4.801259,0.399562,0.362633,-0.327658,-0.248270,-0.283221,0.123531,0.152033,-0.426056,-0.301696,-0.839251,39.638332,-53.791305,179.816524
28573,NaN,7.569928,3.417793,4.328887,-0.010810,0.125986,-0.447414,-0.217991,-0.227335,0.106047,0.151648,-0.427323,-0.300795,-0.839000,39.576183,-53.927931,179.746244
28574,NaN,7.686039,3.516751,4.136007,-0.129646,-0.078906,-0.403850,-0.176211,-0.156203,0.098094,0.151357,-0.428272,-0.299992,-0.838856,39.506497,-54.030392,179.705161
28575,NaN,7.856771,3.854412,4.117601,-0.052785,-0.357083,-0.147820,-0.135919,-0.146701,0.091786,0.151209,-0.429115,-0.299403,-0.838662,39.459576,-54.126255,179.674338
28576,NaN,8.001777,4.157111,4.221762,0.098822,-0.529159,0.129318,-0.117622,-0.165556,0.089102,0.150992,-0.430047,-0.298873,-0.838413,39.433977,-54.229863,179.620549
28577,NaN,8.178462,4.379626,4.307009,0.180518,-0.649248,0.393417,-0.117405,-0.183489,0.074165,0.150754,-0.431003,-0.298426,-0.838124,39.427195,-54.335610,179.553433
28578,NaN,8.424300,4.524896,4.292730,0.118826,-0.771607,0.640137,-0.130051,-0.158698,0.058303,0.150398,-0.431868,-0.297904,-0.837928,39.409749,-54.425219,179.481465
