// General information: 
//  MT Manager version: 2019.0.1 
//  XDA version: 2019.0.1 build 2740 rev 84096 built on 2019-01-30
// Device information: 
//  DeviceId: 00B4381A
//  ProductCode: MTW2-3A7G6
//  Firmware Version: 4.3.4
//  Hardware Version: 1.1.0
// Device settings: 
//  Filter Profile: human(46.1)
//  Option Flags: Orientation Smoother Disabled, AHS Disabled, ICC Disabled
// Coordinate system: ENU
PacketCounter,SampleTimeFine,Acc_X,Acc_Y,Acc_Z,FreeAcc_E,FreeAcc_N,FreeAcc_U,Gyr_X,Gyr_Y,Gyr_Z,Quat_q0,Quat_q1,Quat_q2,Quat_q3,Roll,Pitch,Yaw
62591,NaN,-0.350065,9.680459,-1.702511,-0.176613,0.004201,0.020988,-0.051265,-0.021731,-0.006837,0.291174,0.383264,-0.668670,-0.566751,100.848435,2.581003,-122.493047
62592,NaN,-0.261185,9.701400,-1.816699,-0.131822,-0.134022,0.059012,-0.050029,-0.020092,-0.002719,0.291134,0.383187,-0.668572,-0.566939,100.826396,2.590578,-122.504541
62593,NaN,-0.219418,9.698240,-1.810707,-0.155977,-0.169417,0.052891,-0.052828,-0.011042,0.002150,0.291146,0.383114,-0.668461,-0.567113,100.802632,2.596282,-122.511389
62594,NaN,-0.278500,9.664608,-1.840936,-0.090279,-0.140863,0.028210,-0.053909,-0.011623,0.005058,0.291163,0.383029,-0.668356,-0.567286,100.778546,2.600561,-122.518955
62595,NaN,-0.344386,9.712055,-1.837975,-0.063062,-0.083359,0.077198,-0.046514,-0.009788,0.006671,0.291180,0.382954,-0.668269,-0.567430,100.758404,2.603565,-122.525579
62596,NaN,-0.357182,9.703465,-1.920091,0.015406,-0.119400,0.084639,-0.043118,-0.022604,0.006803,0.291145,0.382848,-0.668213,-0.567585,100.740210,2.608030,-122.539522
62597,NaN,-0.353746,9.733909,-1.933284,0.021180,-0.129876,0.116784,-0.043641,-0.026111,0.006218,0.291101,0.382732,-0.668158,-0.567751,100.721298,2.613016,-122.555297
62598,NaN,-0.328085,9.691687,-1.997189,0.069716,-0.190834,0.085996,-0.041307,-0.027107,0.005389,0.291043,0.382620,-0.668111,-0.567911,100.704030,2.618748,-122.571630
62599,NaN,-0.298936,9.709885,-1.958357,0.020496,-0.195841,0.095270,-0.036212,-0.030708,0.003750,0.290962,0.382510,-0.668079,-0.568064,100.689273,2.625593,-122.589734
62600,NaN,-0.317776,9.672628,-1.920102,0.007385,-0.164225,0.052427,-0.039496,-0.031609,0.003974,0.290882,0.382393,-0.668041,-0.568229,100.672929,2.632590,-122.608457
62601,NaN,-0.323229,9.613594,-1.950332,0.047518,-0.182115,0.000265,-0.039172,-0.038319,0.003415,0.290780,0.382258,-0.668011,-0.568407,100.656283,2.640408,-122.630816
62602,NaN,-0.342602,9.576570,-1.877674,0.006342,-0.131366,-0.048650,-0.034452,-0.041183,0.010263,0.290676,0.382100,-0.668013,-0.568564,100.642545,2.644867,-122.655607
62603,NaN,-0.376840,9.530726,-1.822956,-0.010901,-0.078208,-0.102194,-0.029722,-0.040415,-0.001372,0.290536,0.381989,-0.668004,-0.568721,100.631283,2.655580,-122.678642
62604,NaN,-0.402489,9.573942,-1.786175,-0.034512,-0.036762,-0.065368,-0.030572,-0.037206,-0.001402,0.290405,0.381887,-0.667989,-0.568874,100.619922,2.666178,-122.699960
62605,NaN,-0.342796,9.608489,-1.816425,-0.047150,-0.103949,-0.028673,-0.038169,-0.018002,-0.007771,0.290337,0.381848,-0.667911,-0.569026,100.604432,2.678113,-122.709687
62606,NaN,-0.331225,9.587713,-1.846879,-0.023637,-0.134518,-0.044051,-0.038154,-0.005592,-0.011616,0.290297,0.381859,-0.667809,-0.569159,100.589602,2.691121,-122.712108
62607,NaN,-0.304370,9.575417,-1.894351,0.004178,-0.186616,-0.048724,-0.039951,0.011329,-0.014040,0.290313,0.381923,-0.667671,-0.569270,100.573898,2.703485,-122.704641
62608,NaN,-0.323065,9.537774,-1.890952,0.019234,-0.174118,-0.085483,-0.034376,0.020870,-0.008964,0.290362,0.382005,-0.667546,-0.569336,100.561923,2.712217,-122.692427
62609,NaN,-0.366709,9.542885,-1.819448,-0.015801,-0.100848,-0.091520,-0.035566,0.018380,-0.004588,0.290420,0.382064,-0.667429,-0.569405,100.548882,2.718506,-122.681979
62610,NaN,-0.348627,9.441707,-1.781090,-0.037804,-0.102962,-0.198759,-0.027896,0.010707,0.006434,0.290466,0.382075,-0.667367,-0.569447,100.540273,2.719637,-122.677116
62611,NaN,-0.406082,9.438184,-1.693400,-0.077042,-0.008152,-0.215509,-0.024148,-0.003281,0.018557,0.290495,0.382011,-0.667358,-0.569485,100.533081,2.715152,-122.681312
62612,NaN,-0.505023,9.578796,-1.642028,-0.089940,0.111069,-0.082107,-0.020327,-0.002079,0.016875,0.290514,0.381963,-0.667356,-0.569511,100.528416,2.711741,-122.684754
62613,NaN,-0.592209,9.698224,-1.590028,-0.105797,0.219047,0.029836,-0.028974,-0.005502,0.011126,0.290525,0.381910,-0.667322,-0.569580,100.518427,2.711672,-122.689422
62614,NaN,-0.600026,9.749747,-1.604251,-0.097178,0.219817,0.083446,-0.041258,0.003307,0.010268,0.290583,0.381869,-0.667240,-0.569675,100.501946,2.711418,-122.689134
62615,NaN,-0.486549,9.729410,-1.649590,-0.114625,0.097348,0.066416,-0.047527,0.016837,0.012463,0.290707,0.381848,-0.667123,-0.569762,100.481897,2.708273,-122.681346
62616,NaN,-0.423882,9.624092,-1.677961,-0.103021,0.021792,-0.034790,-0.050612,0.026161,0.013850,0.290869,0.381846,-0.666988,-0.569839,100.460648,2.703622,-122.668541
62617,NaN,-0.427319,9.565363,-1.707858,-0.062739,0.003917,-0.086866,-0.046905,0.025467,0.013633,0.291024,0.381847,-0.666862,-0.569906,100.441166,2.698925,-122.656005
62618,NaN,-0.332516,9.506945,-1.684510,-0.119699,-0.067588,-0.152913,-0.041113,0.007547,0.019334,0.291122,0.381788,-0.666792,-0.569978,100.424836,2.693123,-122.654267
62619,NaN,-0.299734,9.524680,-1.714757,-0.112753,-0.110843,-0.131532,-0.037327,-0.000460,0.023521,0.291200,0.381696,-0.666750,-0.570049,100.410098,2.685540,-122.657377
62620,NaN,-0.407653,9.576225,-1.644516,-0.119268,0.020098,-0.088488,-0.033657,-0.003476,0.012752,0.291228,0.381638,-0.666704,-0.570127,100.397780,2.684588,-122.661173
62621,NaN,-0.354944,9.661884,-1.691979,-0.121865,-0.046144,0.001781,-0.037417,-0.001875,0.004460,0.291248,0.381605,-0.666628,-0.570228,100.383038,2.687881,-122.663104
62622,NaN,-0.305924,9.717879,-1.721791,-0.131730,-0.102100,0.059878,-0.041435,0.002338,0.003199,0.291283,0.381584,-0.666533,-0.570335,100.366465,2.691712,-122.662633
62623,NaN,-0.263177,9.714479,-1.716703,-0.155854,-0.137463,0.053631,-0.046865,0.015874,0.007480,0.291389,0.381578,-0.666410,-0.570429,100.346758,2.691461,-122.654859
62624,NaN,-0.307352,9.689743,-1.695742,-0.141965,-0.092176,0.027662,-0.048997,0.027104,0.009488,0.291538,0.381596,-0.666269,-0.570505,100.326476,2.689201,-122.641062
62625,NaN,-0.444116,9.584109,-1.694048,-0.048053,0.016085,-0.070017,-0.046547,0.028010,0.007194,0.291683,0.381625,-0.666128,-0.570575,100.307266,2.687854,-122.626406
62626,NaN,-0.467146,9.627367,-1.690267,-0.043716,0.038380,-0.027084,-0.043584,0.016789,0.007246,0.291782,0.381629,-0.666014,-0.570656,100.289824,2.687924,-122.618198
62627,NaN,-0.507644,9.632342,-1.721715,0.005486,0.054235,-0.014675,-0.039132,0.007769,0.006453,0.291843,0.381614,-0.665923,-0.570741,100.274324,2.689072,-122.614889
62628,NaN,-0.548154,9.637364,-1.787761,0.082666,0.050939,0.003927,-0.041999,0.015399,-0.007674,0.291891,0.381666,-0.665786,-0.570841,100.257825,2.697700,-122.605941
62629,NaN,-0.501719,9.552974,-1.714029,0.013305,0.044076,-0.094313,-0.040437,0.010288,-0.004131,0.291933,0.381692,-0.665667,-0.570941,100.241695,2.704566,-122.600134
62630,NaN,-0.472600,9.570576,-1.675136,-0.035992,0.039093,-0.085276,-0.038423,0.016001,-0.004370,0.291986,0.381739,-0.665546,-0.571023,100.227247,2.711275,-122.591188
62631,NaN,-0.410858,9.634876,-1.618248,-0.125842,0.019022,-0.035051,-0.038000,0.014400,-0.004366,0.292036,0.381781,-0.665428,-0.571107,100.212622,2.717861,-122.583040
62632,NaN,-0.413681,9.605786,-1.632025,-0.106458,0.009990,-0.061055,-0.038950,0.012502,-0.004980,0.292077,0.381820,-0.665309,-0.571199,100.197783,2.725274,-122.576011
62633,NaN,-0.401332,9.585258,-1.662928,-0.082801,-0.020576,-0.076349,-0.033737,0.010797,-0.008090,0.292096,0.381870,-0.665201,-0.571281,100.185512,2.734323,-122.569522
62634,NaN,-0.390582,9.564379,-1.625237,-0.115334,-0.012858,-0.104040,-0.029721,0.006581,-0.006835,0.292094,0.381912,-0.665114,-0.571356,100.175812,2.743385,-122.565650
62635,NaN,-0.425306,9.517755,-1.571753,-0.132255,0.040345,-0.157646,-0.025265,-0.002445,-0.007635,0.292055,0.381935,-0.665050,-0.571435,100.168028,2.753512,-122.566685
62636,NaN,-0.465725,9.551955,-1.552749,-0.132142,0.084174,-0.125416,-0.024620,-0.015872,-0.008830,0.291963,0.381926,-0.665007,-0.571538,100.160652,2.765970,-122.575291
62637,NaN,-0.477134,9.603015,-1.498457,-0.179708,0.123216,-0.084201,-0.025029,-0.017468,-0.010898,0.291864,0.381918,-0.664959,-0.571650,100.152593,2.779452,-122.584481
62638,NaN,-0.459654,9.641818,-1.529874,-0.170007,0.091181,-0.041340,-0.025686,-0.019676,-0.007990,0.291763,0.381894,-0.664920,-0.571763,100.144493,2.791818,-122.595323
62639,NaN,-0.499528,9.676239,-1.544842,-0.141786,0.115863,-0.002889,-0.032991,-0.016350,-0.009030,0.291689,0.381870,-0.664851,-0.571897,100.131870,2.804130,-122.604075
62640,NaN,-0.530975,9.630607,-1.663329,-0.018518,0.073326,-0.025376,-0.033431,-0.011542,-0.006974,0.291633,0.381855,-0.664780,-0.572018,100.119548,2.815099,-122.610432
62641,NaN,-0.515517,9.668958,-1.590485,-0.092898,0.098733,-0.001175,-0.031812,-0.010628,-0.011332,0.291568,0.381857,-0.664701,-0.572140,100.107754,2.828133,-122.615728
62642,NaN,-0.469004,9.724827,-1.585604,-0.131002,0.061904,0.050648,-0.040685,-0.002177,-0.015907,0.291532,0.381888,-0.664579,-0.572281,100.091579,2.843196,-122.615902
62643,NaN,-0.457123,9.704680,-1.650479,-0.079287,0.012182,0.041622,-0.043427,0.012874,-0.018846,0.291546,0.381966,-0.664418,-0.572408,100.073810,2.858108,-122.607177
62644,NaN,-0.387877,9.689167,-1.731189,-0.046116,-0.094257,0.037003,-0.046174,0.012287,-0.020089,0.291557,0.382043,-0.664251,-0.572546,100.054919,2.874083,-122.598771
62645,NaN,-0.292684,9.660654,-1.759761,-0.067664,-0.195170,0.009124,-0.041402,0.015394,-0.021139,0.291569,0.382139,-0.664088,-0.572664,100.038394,2.890035,-122.588401
62646,NaN,-0.287108,9.580871,-1.790979,-0.030118,-0.224273,-0.064256,-0.039018,0.013459,-0.013471,0.291588,0.382208,-0.663952,-0.572766,100.023607,2.902164,-122.580004
62647,NaN,-0.363648,9.538538,-1.772470,0.003724,-0.155040,-0.105291,-0.028294,0.009745,-0.016168,0.291571,0.382290,-0.663845,-0.572845,100.014415,2.915858,-122.573324
62648,NaN,-0.488758,9.580862,-1.754971,0.048994,-0.040884,-0.060372,-0.023209,-0.006307,-0.014073,0.291493,0.382328,-0.663781,-0.572932,100.008123,2.930298,-122.576038
62649,NaN,-0.547878,9.576566,-1.736750,0.065991,0.015644,-0.064739,-0.020851,-0.026147,-0.015290,0.291345,0.382315,-0.663749,-0.573053,100.002161,2.947064,-122.589726
62650,NaN,-0.539033,9.554923,-1.665952,0.005493,0.042528,-0.098746,-0.011434,-0.034293,-0.012178,0.291157,0.382283,-0.663764,-0.573153,100.001790,2.963220,-122.608444
62651,NaN,-0.643167,9.524857,-1.667180,0.066128,0.125386,-0.122694,-0.006935,-0.049704,-0.017140,0.290899,0.382229,-0.663803,-0.573276,100.003113,2.983377,-122.635262
62652,NaN,-0.704846,9.660074,-1.614379,0.029849,0.209340,0.004407,-0.003895,-0.058071,-0.027088,0.290574,0.382190,-0.663845,-0.573417,100.006422,3.010313,-122.665928
62653,NaN,-0.618625,9.711411,-1.610867,-0.030861,0.137341,0.049831,-0.014903,-0.057228,-0.029982,0.290269,0.382145,-0.663847,-0.573599,100.002993,3.038482,-122.695723
62654,NaN,-0.496520,9.699017,-1.572112,-0.128288,0.050809,0.024485,-0.020353,-0.043711,-0.025637,0.290028,0.382118,-0.663824,-0.573766,99.997268,3.063168,-122.718423
62655,NaN,-0.420955,9.631639,-1.568981,-0.160935,-0.018228,-0.046361,-0.025484,-0.021273,-0.023575,0.289881,0.382139,-0.663756,-0.573905,99.988794,3.084144,-122.728548
62656,NaN,-0.429024,9.572428,-1.567120,-0.148444,-0.016932,-0.104496,-0.026685,-0.008163,-0.020887,0.289784,0.382190,-0.663672,-0.574017,99.980482,3.102612,-122.731640
62657,NaN,-0.529259,9.572730,-1.618415,-0.052764,0.036448,-0.089908,-0.020132,-0.003171,-0.019244,0.289699,0.382256,-0.663601,-0.574098,99.975586,3.119333,-122.731970
62658,NaN,-0.555901,9.614977,-1.581818,-0.076651,0.077875,-0.053230,-0.022265,-0.007594,-0.015507,0.289611,0.382297,-0.663539,-0.574187,99.969793,3.134708,-122.735279
62659,NaN,-0.539766,9.653566,-1.579025,-0.095028,0.064980,-0.016630,-0.019501,-0.010195,-0.016342,0.289510,0.382335,-0.663485,-0.574275,99.965015,3.150489,-122.739871
62660,NaN,-0.514572,9.641401,-1.593746,-0.095302,0.032020,-0.027428,-0.024743,-0.013935,-0.025871,0.289375,0.382388,-0.663406,-0.574399,99.957659,3.172341,-122.745738
62661,NaN,-0.459062,9.646840,-1.642130,-0.087219,-0.044036,-0.016806,-0.022550,-0.010459,-0.021108,0.289266,0.382436,-0.663335,-0.574504,99.951138,3.190835,-122.750011
62662,NaN,-0.449777,9.625514,-1.605549,-0.119637,-0.036287,-0.044628,-0.019785,-0.013058,-0.021944,0.289136,0.382486,-0.663276,-0.574605,99.946624,3.210382,-122.755777
62663,NaN,-0.433461,9.664506,-1.637399,-0.110018,-0.068344,-0.001731,-0.018648,-0.013394,-0.016349,0.289023,0.382515,-0.663229,-0.574696,99.942209,3.226471,-122.762181
62664,NaN,-0.505793,9.652314,-1.706234,-0.013170,-0.047753,0.002187,-0.013278,-0.010934,-0.010346,0.288921,0.382542,-0.663208,-0.574754,99.941423,3.239262,-122.767898
62665,NaN,-0.616224,9.702334,-1.671625,0.008204,0.063994,0.051652,-0.012833,-0.015726,-0.012424,0.288801,0.382560,-0.663189,-0.574824,99.940236,3.253356,-122.776010
62666,NaN,-0.647642,9.685246,-1.671127,0.026412,0.087742,0.036561,-0.009748,-0.021840,-0.011813,0.288651,0.382566,-0.663190,-0.574894,99.941127,3.268053,-122.787747
62667,NaN,-0.624151,9.643443,-1.704624,0.047326,0.045946,-0.000096,-0.010165,-0.032677,-0.008087,0.288482,0.382525,-0.663212,-0.574981,99.940889,3.281384,-122.805873
62668,NaN,-0.584165,9.638735,-1.633992,-0.032867,0.048926,-0.019173,-0.005101,-0.039143,0.000189,0.288301,0.382447,-0.663274,-0.575051,99.943809,3.291020,-122.828580
62669,NaN,-0.498151,9.660471,-1.614249,-0.100617,-0.012742,-0.006140,-0.007423,-0.041332,-0.001053,0.288118,0.382362,-0.663329,-0.575136,99.944813,3.301242,-122.852298
62670,NaN,-0.484209,9.669012,-1.595492,-0.126085,-0.015312,-0.001790,-0.012740,-0.032306,-0.002276,0.287967,0.382301,-0.663356,-0.575222,99.943585,3.311594,-122.870896
62671,NaN,-0.439474,9.695287,-1.610125,-0.143233,-0.060982,0.023979,-0.018196,-0.018817,0.002107,0.287889,0.382254,-0.663353,-0.575295,99.939116,3.317796,-122.882198
62672,NaN,-0.429459,9.645373,-1.660287,-0.098497,-0.100386,-0.017054,-0.025008,0.000439,-0.002000,0.287871,0.382269,-0.663298,-0.575358,99.931925,3.324752,-122.882315
62673,NaN,-0.482662,9.671808,-1.727470,-0.018543,-0.092521,0.023576,-0.024306,0.014139,-0.000119,0.287907,0.382316,-0.663226,-0.575392,99.925040,3.328937,-122.874765
62674,NaN,-0.531015,9.616209,-1.691903,-0.011308,-0.036886,-0.034421,-0.029148,0.011998,-0.007575,0.287919,0.382377,-0.663131,-0.575454,99.915889,3.337899,-122.867796
62675,NaN,-0.528647,9.646595,-1.706319,-0.005869,-0.047399,-0.002208,-0.021707,0.007407,-0.010092,0.287899,0.382441,-0.663058,-0.575507,99.910333,3.348373,-122.863067
62676,NaN,-0.531791,9.617369,-1.722139,0.013680,-0.056418,-0.028058,-0.017675,-0.006064,-0.003074,0.287842,0.382451,-0.663031,-0.575559,99.907135,3.356576,-122.866757
62677,NaN,-0.547683,9.608746,-1.703757,0.008132,-0.035047,-0.038770,-0.011699,-0.016050,-0.006840,0.287735,0.382451,-0.663026,-0.575618,99.906520,3.367522,-122.875612
62678,NaN,-0.558775,9.659097,-1.650225,-0.039771,0.003991,0.002201,-0.010522,-0.022768,-0.005404,0.287602,0.382431,-0.663039,-0.575683,99.906877,3.378687,-122.888517
62679,NaN,-0.605444,9.632628,-1.598587,-0.053500,0.068470,-0.029947,-0.004991,-0.027964,-0.007089,0.287442,0.382408,-0.663070,-0.575743,99.909705,3.390946,-122.904083
62680,NaN,-0.589314,9.670563,-1.562533,-0.100101,0.074738,0.000211,-0.006473,-0.030169,-0.006261,0.287275,0.382375,-0.663104,-0.575809,99.912133,3.403325,-122.921087
62681,NaN,-0.563570,9.657839,-1.544190,-0.128238,0.060959,-0.016982,-0.008170,-0.026946,-0.008324,0.287120,0.382354,-0.663122,-0.575880,99.913164,3.416183,-122.935957
62682,NaN,-0.534198,9.675689,-1.576867,-0.121631,0.017671,0.004427,-0.013612,-0.016650,-0.006005,0.287012,0.382349,-0.663116,-0.575943,99.911949,3.427085,-122.945343
62683,NaN,-0.553498,9.636995,-1.541606,-0.134017,0.049384,-0.038528,-0.017223,-0.004780,-0.013020,0.286935,0.382394,-0.663067,-0.576008,99.908551,3.440403,-122.947217
62684,NaN,-0.583857,9.620521,-1.574949,-0.087755,0.053968,-0.047179,-0.020428,-0.006649,-0.004303,0.286878,0.382403,-0.663030,-0.576073,99.903757,3.449358,-122.951117
62685,NaN,-0.610579,9.634132,-1.625012,-0.034533,0.048213,-0.023589,-0.017995,-0.011801,0.001276,0.286820,0.382379,-0.663016,-0.576133,99.899579,3.455297,-122.958374
62686,NaN,-0.628808,9.595535,-1.589469,-0.047007,0.079926,-0.066534,-0.018297,-0.020724,0.003535,0.286735,0.382324,-0.663021,-0.576207,99.895478,3.461213,-122.971007
62687,NaN,-0.664997,9.659851,-1.621527,-0.012193,0.094215,0.004403,-0.019763,-0.026113,0.002281,0.286636,0.382254,-0.663025,-0.576299,99.889783,3.467995,-122.986459
62688,NaN,-0.664659,9.660748,-1.653858,0.014228,0.074859,0.010818,-0.021779,-0.028629,0.004561,0.286534,0.382168,-0.663032,-0.576397,99.883407,3.474107,-123.003666
62689,NaN,-0.652782,9.639446,-1.617236,-0.017956,0.082637,-0.017109,-0.021471,-0.028958,0.008083,0.286446,0.382067,-0.663046,-0.576492,99.876593,3.477898,-123.021303
62690,NaN,-0.639982,9.618700,-1.615223,-0.022264,0.071244,-0.038623,-0.019997,-0.032820,0.015115,0.286357,0.381936,-0.663085,-0.576578,99.871029,3.478461,-123.041919
62691,NaN,-0.752472,9.610370,-1.649169,0.069309,0.146118,-0.034189,-0.018721,-0.043691,0.022954,0.286258,0.381748,-0.663156,-0.576670,99.865190,3.475306,-123.069354
62692,NaN,-0.813465,9.546422,-1.631551,0.100650,0.204153,-0.096409,-0.015269,-0.087431,0.038134,0.286045,0.381390,-0.663331,-0.576811,99.860330,3.468230,-123.123118
62693,NaN,-1.009610,9.403247,-1.495641,0.123541,0.437017,-0.248637,-0.008055,-0.172321,0.062039,0.285611,0.380716,-0.663691,-0.577058,99.855984,3.455646,-123.227143
62694,NaN,-1.243665,9.294900,-1.411175,0.203737,0.675517,-0.355656,0.020494,-0.297615,0.084968,0.284768,0.379647,-0.664357,-0.577412,99.864208,3.442752,-123.404372
62695,NaN,-1.363902,9.337257,-1.391810,0.248926,0.789602,-0.310252,0.037522,-0.448516,0.098132,0.283432,0.378119,-0.665307,-0.577978,99.876414,3.437002,-123.668153
62696,NaN,-1.362790,9.478711,-1.421189,0.249304,0.778438,-0.166195,0.045741,-0.554009,0.087075,0.281692,0.376335,-0.666407,-0.578726,99.890404,3.448206,-123.990578
62697,NaN,-1.007376,9.655275,-1.468494,0.058664,0.463007,-0.005660,0.028724,-0.565691,0.052592,0.279846,0.374602,-0.667402,-0.579598,99.893703,3.479876,-124.316159
62698,NaN,-0.713916,9.688469,-1.640866,0.024425,0.119424,0.038896,0.013744,-0.495302,0.006606,0.278124,0.373205,-0.668167,-0.580447,99.891523,3.530773,-124.597469
62699,NaN,-0.362150,9.753684,-1.677304,-0.161367,-0.195337,0.087548,-0.009012,-0.386352,-0.024098,0.276722,0.372192,-0.668650,-0.581210,99.879411,3.588077,-124.814115
62700,NaN,0.024145,9.756282,-1.750683,-0.327463,-0.562855,0.078039,-0.035066,-0.243088,-0.051795,0.275763,0.371652,-0.668809,-0.581828,99.858074,3.647055,-124.947080
62701,NaN,0.251033,9.725359,-1.838204,-0.384604,-0.809860,0.047374,-0.053434,-0.096071,-0.067204,0.275288,0.371564,-0.668680,-0.582258,99.830869,3.700048,-124.995344
62702,NaN,0.280307,9.834404,-1.918099,-0.357851,-0.884151,0.165458,-0.061031,0.028808,-0.073991,0.275221,0.371853,-0.668347,-0.582487,99.804537,3.744876,-124.972376
62703,NaN,0.198141,9.933504,-1.925433,-0.321895,-0.825875,0.268749,-0.071832,0.092665,-0.075774,0.275386,0.372317,-0.667888,-0.582639,99.773798,3.784172,-124.913041
62704,NaN,0.209195,9.835663,-2.057939,-0.202581,-0.923630,0.193561,-0.079591,0.112767,-0.061173,0.275672,0.372783,-0.667408,-0.582756,99.739923,3.813634,-124.843853
62705,NaN,0.211383,9.757814,-2.121339,-0.136350,-0.971811,0.126965,-0.062778,0.112142,-0.047636,0.275968,0.373221,-0.667001,-0.582801,99.715016,3.835121,-124.776238
62706,NaN,0.038285,9.745363,-2.130580,-0.026386,-0.840209,0.127448,-0.040598,0.090167,-0.029384,0.276197,0.373568,-0.666725,-0.582786,99.702470,3.848871,-124.722942
62707,NaN,-0.159184,9.743193,-2.055525,0.026445,-0.637456,0.125788,-0.014283,0.065878,-0.011415,0.276354,0.373818,-0.666591,-0.582705,99.703435,3.854308,-124.685006
62708,NaN,-0.379514,9.782233,-1.946809,0.056572,-0.393128,0.160699,-0.002196,0.027906,0.004219,0.276402,0.373924,-0.666576,-0.582631,99.710316,3.855097,-124.670205
62709,NaN,-0.513322,9.811955,-1.771523,-0.014262,-0.180679,0.169467,0.005111,-0.005578,0.028693,0.276402,0.373859,-0.666672,-0.582563,99.719453,3.844739,-124.676589
62710,NaN,-0.642700,9.732303,-1.650623,-0.024162,-0.005960,0.079467,0.009009,-0.018372,0.044069,0.276391,0.373713,-0.666828,-0.582484,99.730738,3.827498,-124.691847
62711,NaN,-0.873759,9.762690,-1.525886,0.002080,0.259959,0.103679,0.006378,-0.018667,0.054894,0.276421,0.373524,-0.666995,-0.582400,99.739947,3.803605,-124.708185
62712,NaN,-0.939327,9.748669,-1.456035,-0.012923,0.357271,0.082317,-0.001326,-0.007435,0.058235,0.276507,0.373348,-0.667132,-0.582315,99.745641,3.777309,-124.718634
62713,NaN,-1.022940,9.697241,-1.420088,0.017397,0.448151,0.031011,-0.017649,0.008728,0.058662,0.276684,0.373193,-0.667198,-0.582254,99.742072,3.748663,-124.719845
62714,NaN,-1.016144,9.557983,-1.420713,0.042301,0.439862,-0.106466,-0.029452,0.025428,0.064403,0.276950,0.373054,-0.667218,-0.582193,99.732833,3.715699,-124.712292
62715,NaN,-1.073047,9.495388,-1.435626,0.101972,0.478779,-0.162028,-0.031653,0.039447,0.056678,0.277250,0.372975,-0.667197,-0.582125,99.722351,3.685245,-124.695930
62716,NaN,-1.103434,9.419851,-1.433585,0.134942,0.504104,-0.234901,-0.040687,0.038408,0.046039,0.277527,0.372919,-0.667133,-0.582103,99.707252,3.661399,-124.679240
62717,NaN,-0.973266,9.409202,-1.467064,0.093742,0.379379,-0.248175,-0.036759,0.037095,0.037246,0.277771,0.372891,-0.667063,-0.582084,99.693846,3.642211,-124.662330
62718,NaN,-0.858952,9.390197,-1.517948,0.076359,0.257017,-0.265653,-0.034046,0.031351,0.034240,0.277978,0.372864,-0.667006,-0.582068,99.682361,3.625717,-124.648484
62719,NaN,-0.710616,9.416064,-1.482279,-0.038005,0.157941,-0.255596,-0.029497,0.027458,0.033916,0.278167,0.372829,-0.666965,-0.582048,99.672770,3.609382,-124.636709
62720,NaN,-0.710275,9.387318,-1.497813,-0.018247,0.148977,-0.281311,-0.023890,0.027346,0.032782,0.278336,0.372809,-0.666940,-0.582008,99.666963,3.594102,-124.624984
62721,NaN,-0.727350,9.458939,-1.442312,-0.063589,0.199272,-0.219092,-0.019370,0.020287,0.030358,0.278472,0.372779,-0.666931,-0.581972,99.662924,3.580483,-124.616925
62722,NaN,-0.734046,9.511538,-1.491182,-0.027884,0.180786,-0.158759,-0.018855,0.020601,0.028899,0.278599,0.372759,-0.666923,-0.581934,99.659781,3.568046,-124.608641
62723,NaN,-0.756928,9.522862,-1.402427,-0.086549,0.251798,-0.161068,-0.021847,0.013065,0.028459,0.278709,0.372711,-0.666914,-0.581922,99.654061,3.556211,-124.604489
62724,NaN,-0.808638,9.548812,-1.398996,-0.062873,0.297999,-0.132908,-0.025133,0.016984,0.017357,0.278802,0.372710,-0.666871,-0.581927,99.647261,3.550643,-124.597139
62725,NaN,-0.789448,9.588302,-1.430709,-0.053664,0.265926,-0.089926,-0.022545,0.006163,0.013685,0.278848,0.372691,-0.666842,-0.581952,99.640961,3.547839,-124.595476
62726,NaN,-0.725467,9.652904,-1.445044,-0.088475,0.207564,-0.027898,-0.026635,0.004058,0.008340,0.278874,0.372680,-0.666796,-0.581999,99.632900,3.548606,-124.594574
62727,NaN,-0.653566,9.667746,-1.512014,-0.076567,0.109956,-0.006531,-0.030695,0.005116,0.005098,0.278906,0.372675,-0.666728,-0.582064,99.621924,3.550772,-124.592683
62728,NaN,-0.554559,9.669521,-1.562057,-0.091360,-0.001203,-0.002547,-0.033665,0.013119,0.003153,0.278961,0.372699,-0.666639,-0.582125,99.610184,3.553602,-124.586155
62729,NaN,-0.503713,9.756282,-1.609354,-0.095540,-0.067583,0.087569,-0.032927,0.020406,0.000935,0.279036,0.372749,-0.666535,-0.582175,99.598480,3.556661,-124.575214
62730,NaN,-0.461557,9.753464,-1.641168,-0.091769,-0.122048,0.087475,-0.037992,0.024006,0.002707,0.279133,0.372799,-0.666418,-0.582231,99.584646,3.558706,-124.562483
62731,NaN,-0.464447,9.725581,-1.690322,-0.043972,-0.150232,0.068371,-0.032032,0.023544,0.005095,0.279230,0.372846,-0.666320,-0.582267,99.573539,3.559105,-124.550162
62732,NaN,-0.451472,9.704858,-1.688288,-0.048170,-0.161569,0.046826,-0.025453,0.012917,0.008194,0.279283,0.372863,-0.666265,-0.582293,99.566468,3.559112,-124.544232
62733,NaN,-0.461788,9.725684,-1.650856,-0.074939,-0.131322,0.061757,-0.021070,-0.004028,0.016439,0.279300,0.372807,-0.666259,-0.582328,99.560611,3.555710,-124.548595
62734,NaN,-0.504119,9.698401,-1.562850,-0.116389,-0.047562,0.022953,-0.015010,-0.014971,0.020992,0.279278,0.372715,-0.666297,-0.582354,99.558469,3.551141,-124.559673
62735,NaN,-0.555866,9.723354,-1.525583,-0.120581,0.017816,0.044551,-0.012142,-0.024882,0.024360,0.279232,0.372584,-0.666361,-0.582387,99.556950,3.545233,-124.576594
62736,NaN,-0.595013,9.726215,-1.454389,-0.155433,0.091210,0.038001,-0.016271,-0.022564,0.024655,0.279198,0.372456,-0.666412,-0.582426,99.553801,3.539315,-124.592318
62737,NaN,-0.533250,9.761461,-1.486922,-0.168901,0.024000,0.074290,-0.020913,-0.008175,0.022815,0.279220,0.372366,-0.666424,-0.582459,99.547837,3.532687,-124.599633
62738,NaN,-0.563325,9.714843,-1.467953,-0.157074,0.058166,0.027147,-0.030080,0.008474,0.034747,0.279344,0.372275,-0.666411,-0.582472,99.537801,3.518114,-124.598745
62739,NaN,-0.581933,9.649790,-1.552936,-0.063932,0.023515,-0.021668,-0.029594,0.025585,0.035349,0.279531,0.372230,-0.666374,-0.582454,99.527948,3.501193,-124.588140
62740,NaN,-0.634908,9.645882,-1.532140,-0.046895,0.080071,-0.025707,-0.034240,0.027598,0.037096,0.279734,0.372182,-0.666326,-0.582442,99.516175,3.483482,-124.576644
62741,NaN,-0.694788,9.584436,-1.581690,0.040924,0.099745,-0.074399,-0.034660,0.029201,0.037117,0.279947,0.372134,-0.666273,-0.582431,99.503517,3.465224,-124.564149
62742,NaN,-0.667832,9.544550,-1.649154,0.090032,0.038809,-0.104210,-0.031636,0.019944,0.035507,0.280115,0.372072,-0.666240,-0.582427,99.492977,3.449138,-124.556828
62743,NaN,-0.611123,9.521494,-1.717008,0.119289,-0.046072,-0.119180,-0.023418,0.012146,0.032804,0.280238,0.372005,-0.666235,-0.582417,99.486202,3.434947,-124.553580
62744,NaN,-0.538639,9.504378,-1.699061,0.068638,-0.094889,-0.143332,-0.019427,0.004759,0.031826,0.280322,0.371928,-0.666253,-0.582406,99.482161,3.422377,-124.554504
62745,NaN,-0.478057,9.508398,-1.680919,0.020697,-0.132523,-0.145957,-0.011348,-0.000543,0.036199,0.280390,0.371830,-0.666307,-0.582374,99.481869,3.407465,-124.558757
62746,NaN,-0.471281,9.537964,-1.662023,-0.002236,-0.123827,-0.120327,-0.005760,-0.013065,0.038654,0.280408,0.371697,-0.666402,-0.582341,99.485022,3.392719,-124.570418
62747,NaN,-0.505645,9.570929,-1.608415,-0.030389,-0.060812,-0.094626,-0.001247,-0.021800,0.049662,0.280426,0.371506,-0.666540,-0.582296,99.489748,3.372196,-124.587980
62748,NaN,-0.506281,9.650959,-1.571491,-0.072163,-0.032092,-0.021841,0.002151,-0.028247,0.053670,0.280423,0.371291,-0.666707,-0.582243,99.496853,3.350401,-124.609659
62749,NaN,-0.539907,9.684948,-1.552673,-0.072427,0.011716,0.010506,-0.001416,-0.031667,0.060301,0.280440,0.371035,-0.666879,-0.582202,99.501112,3.324793,-124.633813
62750,NaN,-0.530173,9.712639,-1.465041,-0.151207,0.058832,0.022782,-0.007202,-0.022943,0.060698,0.280492,0.370798,-0.667024,-0.582161,99.503012,3.298529,-124.653157
62751,NaN,-0.555325,9.697271,-1.498553,-0.104733,0.063407,0.014628,-0.012919,-0.015472,0.057560,0.280576,0.370583,-0.667134,-0.582132,99.501229,3.272936,-124.667884
62752,NaN,-0.611068,9.665142,-1.532111,-0.038376,0.091920,-0.008310,-0.008693,-0.006667,0.050150,0.280655,0.370427,-0.667233,-0.582080,99.502873,3.251093,-124.677016
62753,NaN,-0.595245,9.645217,-1.566455,-0.014458,0.061373,-0.023186,-0.009807,-0.004377,0.043153,0.280728,0.370296,-0.667309,-0.582040,99.503308,3.232596,-124.684101
62754,NaN,-0.522138,9.627595,-1.549591,-0.065094,0.012573,-0.047440,-0.010409,-0.011001,0.040384,0.280767,0.370157,-0.667391,-0.582016,99.503889,3.216682,-124.694760
62755,NaN,-0.494814,9.585264,-1.550193,-0.071608,-0.009951,-0.090548,-0.007677,-0.013607,0.039479,0.280794,0.370015,-0.667480,-0.581992,99.505270,3.201134,-124.706717
62756,NaN,-0.533562,9.590128,-1.548976,-0.050602,0.025035,-0.083794,-0.001019,-0.026771,0.035480,0.280749,0.369859,-0.667602,-0.581972,99.510764,3.189484,-124.725839
62757,NaN,-0.539026,9.640842,-1.530181,-0.070914,0.044911,-0.036656,0.005267,-0.035180,0.033616,0.280664,0.369692,-0.667748,-0.581952,99.518916,3.179299,-124.749462
62758,NaN,-0.493515,9.634324,-1.462179,-0.150829,0.048092,-0.056834,0.005071,-0.043399,0.030818,0.280538,0.369512,-0.667902,-0.581950,99.527409,3.171864,-124.777553
62759,NaN,-0.502747,9.654768,-1.427105,-0.177616,0.078353,-0.042005,0.003849,-0.043016,0.025251,0.280405,0.369348,-0.668040,-0.581961,99.534540,3.167148,-124.804809
62760,NaN,-0.404844,9.624201,-1.429352,-0.226831,-0.003194,-0.077148,-0.001153,-0.036228,0.029141,0.280310,0.369186,-0.668163,-0.581968,99.539706,3.159987,-124.828684
62761,NaN,-0.387489,9.633181,-1.446335,-0.224324,-0.024906,-0.066444,-0.001776,-0.024808,0.031989,0.280267,0.369044,-0.668270,-0.581955,99.544130,3.149731,-124.846278
62762,NaN,-0.468196,9.641755,-1.409788,-0.208652,0.064415,-0.059613,-0.006455,-0.012307,0.031606,0.280269,0.368936,-0.668349,-0.581932,99.546996,3.138908,-124.856852
62763,NaN,-0.516301,9.699285,-1.458365,-0.150663,0.080974,0.007713,-0.008938,-0.011939,0.037444,0.280299,0.368803,-0.668427,-0.581912,99.547674,3.124335,-124.867679
62764,NaN,-0.502170,9.680257,-1.527008,-0.098978,0.031226,-0.000423,-0.014031,-0.011467,0.037117,0.280334,0.368669,-0.668493,-0.581905,99.546201,3.110318,-124.878303
62765,NaN,-0.560051,9.649379,-1.594641,-0.004536,0.040501,-0.016495,-0.013630,-0.008647,0.042733,0.280399,0.368521,-0.668563,-0.581887,99.544258,3.092440,-124.887771
62766,NaN,-0.568456,9.672199,-1.627082,0.024286,0.032340,0.011789,-0.011617,-0.006158,0.040455,0.280456,0.368394,-0.668634,-0.581858,99.544319,3.076033,-124.895707
62767,NaN,-0.625513,9.639329,-1.626107,0.062967,0.080049,-0.017700,-0.007498,-0.012910,0.034501,0.280472,0.368270,-0.668713,-0.581839,99.545806,3.063219,-124.906804
62768,NaN,-0.599563,9.597854,-1.661626,0.084276,0.038330,-0.054065,-0.002837,-0.025409,0.034874,0.280432,0.368118,-0.668826,-0.581823,99.550348,3.051795,-124.925103
62769,NaN,-0.599667,9.567867,-1.645045,0.076448,0.048573,-0.086349,0.003973,-0.039574,0.039324,0.280351,0.367917,-0.668984,-0.581808,99.557594,3.038805,-124.951750
62770,NaN,-0.508597,9.586541,-1.594493,-0.019576,0.006276,-0.081171,0.008085,-0.046324,0.033366,0.280218,0.367724,-0.669156,-0.581796,99.567782,3.030229,-124.981741
62771,NaN,-0.471495,9.631392,-1.542219,-0.090411,0.010259,-0.047639,0.001766,-0.041052,0.033128,0.280118,0.367536,-0.669298,-0.581800,99.573762,3.020894,-125.008639
62772,NaN,-0.450758,9.670488,-1.576054,-0.081678,-0.021828,-0.004613,0.004190,-0.035749,0.036465,0.280036,0.367359,-0.669449,-0.581778,99.582028,3.009566,-125.032945
62773,NaN,-0.423878,9.626793,-1.543206,-0.115952,-0.025114,-0.054500,-0.001931,-0.016210,0.031252,0.280020,0.367244,-0.669543,-0.581750,99.586640,2.998922,-125.045611
62774,NaN,-0.441197,9.700032,-1.557447,-0.106166,-0.013261,0.020902,-0.008189,-0.007781,0.033130,0.280045,0.367141,-0.669613,-0.581723,99.588666,2.986814,-125.053777
62775,NaN,-0.433500,9.619511,-1.559019,-0.094961,-0.023024,-0.058514,-0.009359,-0.004245,0.029682,0.280078,0.367056,-0.669665,-0.581701,99.589380,2.975907,-125.059522
62776,NaN,-0.458382,9.634445,-1.609129,-0.042205,-0.028835,-0.034174,-0.006284,-0.007201,0.032274,0.280099,0.366961,-0.669738,-0.581667,99.592521,2.964227,-125.067279
62777,NaN,-0.483376,9.649341,-1.659566,0.010692,-0.034666,-0.009817,-0.002124,-0.010803,0.028427,0.280094,0.366870,-0.669818,-0.581634,99.597194,2.954648,-125.076612
62778,NaN,-0.483821,9.619337,-1.642820,0.002757,-0.024396,-0.042120,-0.002863,-0.014910,0.032725,0.280083,0.366756,-0.669912,-0.581602,99.602072,2.943451,-125.088774
62779,NaN,-0.427498,9.593092,-1.644646,-0.023684,-0.070823,-0.070539,0.006105,-0.025957,0.029929,0.280017,0.366628,-0.670040,-0.581568,99.611024,2.934475,-125.106829
62780,NaN,-0.436090,9.613571,-1.609601,-0.050647,-0.040537,-0.055766,0.002513,-0.023300,0.028787,0.279957,0.366510,-0.670154,-0.581539,99.618763,2.926309,-125.123362
62781,NaN,-0.418308,9.621382,-1.592553,-0.076041,-0.043022,-0.051818,0.002735,-0.019494,0.025940,0.279906,0.366410,-0.670256,-0.581509,99.625996,2.918964,-125.137376
62782,NaN,-0.457111,9.624375,-1.522787,-0.110779,0.030418,-0.058548,0.002712,-0.013449,0.018166,0.279848,0.366357,-0.670338,-0.581476,99.634188,2.915858,-125.147320
62783,NaN,-0.449342,9.684805,-1.555734,-0.099518,0.009492,0.006053,-0.000949,-0.003493,0.012788,0.279820,0.366342,-0.670382,-0.581448,99.639831,2.914404,-125.151023
62784,NaN,-0.396102,9.769464,-1.571242,-0.132505,-0.037693,0.089289,-0.005308,0.011557,0.006047,0.279825,0.366390,-0.670384,-0.581413,99.644206,2.915746,-125.145660
62785,NaN,-0.372004,9.726699,-1.572349,-0.138838,-0.060187,0.046139,-0.008437,0.026234,0.004861,0.279888,0.366478,-0.670350,-0.581367,99.646444,2.915909,-125.131785
62786,NaN,-0.389205,9.687942,-1.537747,-0.150619,-0.028333,0.003059,-0.011741,0.035853,0.002986,0.279977,0.366598,-0.670293,-0.581313,99.647848,2.916647,-125.112386
62787,NaN,-0.405183,9.682435,-1.623106,-0.072348,-0.064577,0.012728,-0.009025,0.033235,0.002073,0.280056,0.366714,-0.670243,-0.581260,99.649957,2.917698,-125.094282
62788,NaN,-0.369765,9.728208,-1.604537,-0.115575,-0.079791,0.052887,-0.004952,0.026096,0.013065,0.280130,0.366782,-0.670238,-0.581187,99.654920,2.913678,-125.081370
62789,NaN,-0.360311,9.677761,-1.622823,-0.097893,-0.099935,0.005809,-0.010044,0.026585,0.012746,0.280219,0.366842,-0.670214,-0.581135,99.656199,2.909327,-125.068055
62790,NaN,-0.422776,9.615906,-1.640021,-0.037692,-0.061039,-0.049035,-0.008466,0.025871,0.021805,0.280324,0.366875,-0.670215,-0.581062,99.659098,2.900390,-125.056113
62791,NaN,-0.566883,9.560956,-1.552390,-0.015773,0.105743,-0.110537,-0.001403,0.018655,0.025510,0.280408,0.366881,-0.670250,-0.580977,99.665034,2.889579,-125.048504
62792,NaN,-0.599173,9.625486,-1.549822,-0.010046,0.139153,-0.045831,-0.000945,0.005338,0.024073,0.280437,0.366857,-0.670306,-0.580914,99.671642,2.881335,-125.048394
62793,NaN,-0.627274,9.609232,-1.549577,0.008667,0.162941,-0.060489,-0.003900,-0.000258,0.022183,0.280452,0.366816,-0.670355,-0.580876,99.675621,2.874235,-125.051170
62794,NaN,-0.628570,9.579203,-1.532944,0.000824,0.173220,-0.092804,-0.001069,0.009484,0.017724,0.280477,0.366825,-0.670393,-0.580815,99.682306,2.869178,-125.048105
62795,NaN,-0.592638,9.624924,-1.514662,-0.042272,0.157989,-0.052675,-0.004719,0.008985,0.014470,0.280502,0.366835,-0.670412,-0.580774,99.686104,2.865565,-125.044912
62796,NaN,-0.580130,9.604685,-1.549395,-0.018406,0.127456,-0.067403,-0.009002,0.006280,0.014090,0.280520,0.366837,-0.670424,-0.580750,99.688170,2.862869,-125.043309
62797,NaN,-0.533518,9.630034,-1.565866,-0.036090,0.081812,-0.042010,-0.007967,-0.003575,0.013313,0.280506,0.366810,-0.670449,-0.580745,99.689747,2.861132,-125.047103
62798,NaN,-0.436375,9.598708,-1.567321,-0.085150,0.000317,-0.077449,-0.014268,-0.014797,0.022975,0.280489,0.366713,-0.670493,-0.580765,99.688159,2.855449,-125.058277
62799,NaN,-0.394916,9.562666,-1.516190,-0.143195,-0.005283,-0.123578,-0.006744,-0.020458,0.028761,0.280461,0.366586,-0.670573,-0.580765,99.689885,2.846622,-125.073126
62800,NaN,-0.404055,9.584300,-1.514968,-0.142346,0.005773,-0.102028,0.000946,-0.025474,0.029591,0.280399,0.366457,-0.670688,-0.580744,99.696686,2.838234,-125.090977
62801,NaN,-0.424852,9.627365,-1.513200,-0.138949,0.027982,-0.058901,0.000074,-0.025435,0.027538,0.280338,0.366330,-0.670793,-0.580732,99.702180,2.830569,-125.108519
62802,NaN,-0.502540,9.666805,-1.493463,-0.117024,0.106888,-0.019579,0.005058,-0.017367,0.027153,0.280288,0.366239,-0.670903,-0.580686,99.711579,2.822780,-125.121551
62803,NaN,-0.501693,9.669013,-1.562473,-0.062765,0.068271,-0.005842,-0.003453,-0.013565,0.020740,0.280255,0.366164,-0.670969,-0.580674,99.715398,2.817810,-125.131712
62804,NaN,-0.511312,9.690658,-1.561252,-0.061947,0.079324,0.015724,-0.003088,-0.003443,0.022118,0.280252,0.366119,-0.671027,-0.580637,99.720543,2.811519,-125.136386
62805,NaN,-0.512864,9.660606,-1.544557,-0.069587,0.089588,-0.016610,-0.002405,-0.002497,0.015713,0.280239,0.366094,-0.671071,-0.580608,99.725292,2.808324,-125.139812
62806,NaN,-0.477723,9.598365,-1.615936,-0.022648,0.017471,-0.067573,-0.002270,0.003823,0.019935,0.280253,0.366078,-0.671117,-0.580558,99.731117,2.802563,-125.140167
62807,NaN,-0.471514,9.627619,-1.597810,-0.045663,0.026158,-0.042139,0.000761,0.012576,0.023935,0.280308,0.366075,-0.671164,-0.580479,99.738049,2.793271,-125.135871
62808,NaN,-0.546068,9.698427,-1.629006,0.010267,0.075408,0.036451,0.001916,0.009042,0.027376,0.280353,0.366055,-0.671229,-0.580395,99.746382,2.782803,-125.133999
62809,NaN,-0.526129,9.739540,-1.731883,0.074539,0.004788,0.093336,0.001379,-0.001719,0.030949,0.280380,0.365987,-0.671310,-0.580331,99.753243,2.770940,-125.138466
62810,NaN,-0.507560,9.747372,-1.714440,0.048955,0.002324,0.097196,-0.005337,-0.005285,0.032872,0.280406,0.365897,-0.671384,-0.580289,99.757003,2.758759,-125.145229
62811,NaN,-0.516320,9.660227,-1.768257,0.112408,-0.024317,0.020932,-0.003098,-0.015513,0.037643,0.280414,0.365760,-0.671484,-0.580256,99.760906,2.744463,-125.158151
62812,NaN,-0.391109,9.615602,-1.789162,0.064855,-0.138549,-0.025427,0.006375,-0.021873,0.039037,0.280382,0.365617,-0.671626,-0.580197,99.770903,2.730414,-125.174894
62813,NaN,-0.372791,9.624299,-1.807023,0.067262,-0.160274,-0.014666,0.007364,-0.020006,0.039664,0.280361,0.365476,-0.671767,-0.580133,99.780698,2.715414,-125.190545
62814,NaN,-0.437314,9.641329,-1.754277,0.058941,-0.073307,-0.003758,0.011256,-0.009672,0.032305,0.280341,0.365398,-0.671894,-0.580045,99.793856,2.703983,-125.199740
62815,NaN,-0.418341,9.647820,-1.703627,0.005704,-0.056543,-0.006844,0.011612,-0.003971,0.028042,0.280332,0.365348,-0.672003,-0.579954,99.806588,2.693987,-125.205213
62816,NaN,-0.435096,9.721014,-1.719218,0.015004,-0.044736,0.068654,0.007274,-0.005401,0.031195,0.280331,0.365280,-0.672111,-0.579873,99.817586,2.682770,-125.211890
62817,NaN,-0.498546,9.661470,-1.806931,0.131220,-0.044355,0.027961,0.009669,-0.014990,0.031014,0.280297,0.365186,-0.672235,-0.579804,99.828910,2.672173,-125.223881
62818,NaN,-0.549380,9.688152,-1.806673,0.154519,0.001783,0.056573,0.025315,-0.040273,0.032643,0.280150,0.365038,-0.672446,-0.579724,99.849323,2.663556,-125.250413
62819,NaN,-0.562494,9.680359,-1.825671,0.177085,0.003978,0.052780,0.018969,-0.085335,0.041609,0.279893,0.364716,-0.672715,-0.579738,99.864105,2.653905,-125.303227
62820,NaN,-0.551087,9.516402,-1.763534,0.146225,0.023183,-0.119713,0.033927,-0.134955,0.046803,0.279452,0.364258,-0.673110,-0.579781,99.886922,2.646616,-125.384659
62821,NaN,-0.557019,9.532407,-1.593530,0.008101,0.130451,-0.132847,0.055147,-0.172098,0.045831,0.278850,0.363721,-0.673612,-0.579824,99.920191,2.643180,-125.486916
62822,NaN,-0.503010,9.615726,-1.614414,-0.025372,0.083249,-0.049800,0.066324,-0.207558,0.039267,0.278083,0.363122,-0.674187,-0.579900,99.959718,2.647416,-125.608628
62823,NaN,-0.435060,9.707393,-1.653664,-0.054923,0.014444,0.043992,0.070496,-0.219632,0.036052,0.277264,0.362501,-0.674780,-0.579991,100.000565,2.654358,-125.736733
62824,NaN,-0.914689,9.826912,-2.005341,0.477825,0.208565,0.244868,0.070095,-0.261549,0.032500,0.276288,0.361773,-0.675426,-0.580159,100.040835,2.667966,-125.888260
62825,NaN,-1.900774,9.745247,-2.567025,1.509201,0.670623,0.308823,0.072090,-0.465184,0.056254,0.274693,0.360372,-0.676397,-0.580658,100.075981,2.688299,-126.157127
62826,NaN,-2.217418,9.648399,-2.796341,1.888711,0.773368,0.270106,0.104600,-0.786388,0.069287,0.271983,0.358038,-0.677922,-0.581597,100.121695,2.734093,-126.608725
62827,NaN,-2.219675,9.573867,-2.807499,1.904252,0.742046,0.201855,0.142893,-1.072096,0.049170,0.268175,0.354983,-0.679894,-0.582936,100.180528,2.820344,-127.219612
62828,NaN,-1.655919,9.677249,-3.106307,1.762929,0.091975,0.332452,0.181176,-1.282001,0.028770,0.263513,0.351426,-0.682200,-0.584520,100.254934,2.940293,-127.946871
62829,NaN,-1.332597,9.588089,-3.617128,1.943177,-0.515774,0.323816,0.239537,-1.409182,-0.000149,0.258219,0.347656,-0.684759,-0.586143,100.357012,3.090737,-128.742880
62830,NaN,-1.776163,10.233379,-1.925139,0.792931,0.897033,0.682524,0.210919,-1.619887,-0.010297,0.252207,0.343247,-0.687450,-0.588205,100.434312,3.269893,-129.656629
62831,NaN,-3.093262,10.589262,-1.225477,1.046838,2.336421,0.987659,0.077081,-2.082450,-0.026537,0.244765,0.337334,-0.690241,-0.591492,100.415954,3.506771,-130.829934
62832,NaN,-3.217339,10.740293,-1.248423,1.144633,2.356824,1.159927,0.049229,-2.656437,-0.042996,0.235306,0.329698,-0.693528,-0.595777,100.355814,3.811279,-132.326146
62833,NaN,-2.380959,11.622217,0.094460,-0.505601,2.634942,1.743906,-0.001716,-2.933068,-0.166443,0.224555,0.321542,-0.696645,-0.600726,100.246736,4.211965,-133.967174
62834,NaN,-1.251677,11.682105,0.467522,-1.528207,2.031596,1.667459,-0.175034,-2.955437,-0.255854,0.213690,0.313365,-0.698974,-0.606280,100.026219,4.660189,-135.613755
62835,NaN,-0.880874,11.427183,0.617181,-1.826978,1.805728,1.373844,-0.304644,-2.792374,-0.396493,0.203124,0.305969,-0.700362,-0.612059,99.725853,5.164834,-137.157383
62836,NaN,-1.489303,11.335648,0.377609,-1.194475,1.955168,1.394774,-0.417360,-2.605858,-0.584021,0.192773,0.299627,-0.700800,-0.618015,99.358439,5.748226,-138.581348
62837,NaN,-1.979811,11.119956,0.347219,-0.762561,2.129022,1.258807,-0.507084,-2.394251,-0.757834,0.182725,0.294408,-0.700367,-0.624036,98.937061,6.401386,-139.874778
62838,NaN,-2.817791,11.180208,0.576907,-0.275498,2.703035,1.407176,-0.613867,-2.225948,-0.911461,0.172917,0.290109,-0.699117,-0.630216,98.452324,7.116291,-141.065505
62839,NaN,-3.215076,10.906684,0.134291,0.352519,2.424129,1.291674,-0.744274,-2.153968,-1.034384,0.163134,0.286307,-0.697097,-0.636766,97.881739,7.884723,-142.213784
62840,NaN,-2.578496,10.495103,0.504160,-0.295965,2.143011,0.787659,-0.784246,-1.989001,-1.141326,0.153620,0.283328,-0.694565,-0.643199,97.287437,8.689213,-143.268924
62841,NaN,-3.345473,10.551226,0.976234,0.010395,2.797947,0.941001,-0.842585,-1.780769,-1.260990,0.144502,0.281348,-0.691407,-0.649552,96.661602,9.536820,-144.207055
62842,NaN,-4.178511,10.655599,1.264946,0.471417,3.314508,1.205002,-0.929770,-1.674376,-1.393088,0.135428,0.280069,-0.687618,-0.656051,95.983373,10.441631,-145.086925
62843,NaN,-4.265894,10.549127,1.436512,0.441393,3.289846,1.165608,-1.012026,-1.602648,-1.503362,0.126330,0.279307,-0.683244,-0.662726,95.248414,11.395458,-145.933361
62844,NaN,-3.708964,10.273632,1.416565,0.020832,2.756452,0.850695,-1.083064,-1.450768,-1.581865,0.117576,0.279232,-0.678343,-0.669370,94.476608,12.374804,-146.702324
62845,NaN,-3.054531,9.892923,1.222850,-0.378649,2.049266,0.402428,-1.112245,-1.178641,-1.661756,0.109496,0.280282,-0.672962,-0.675703,93.705373,13.379559,-147.325571
62846,NaN,-3.408046,9.713886,1.227683,-0.114379,2.042515,0.350597,-1.184183,-0.991716,-1.704848,0.101992,0.282032,-0.667100,-0.681933,92.907386,14.393278,-147.853144
62847,NaN,-4.219549,9.674070,1.410345,0.402309,2.399422,0.553474,-1.280454,-1.030580,-1.710721,0.094453,0.283580,-0.660814,-0.688466,92.032147,15.404896,-148.422203
62848,NaN,-5.068404,9.606998,1.472172,1.031484,2.646972,0.773817,-1.383912,-1.283591,-1.695948,0.086268,0.284118,-0.654229,-0.695571,91.043893,16.401724,-149.160975
62849,NaN,-5.113956,9.347656,1.522676,1.069174,2.486168,0.604570,-1.432339,-1.556148,-1.710887,0.077185,0.283685,-0.647440,-0.703126,89.958670,17.396806,-150.086571
62850,NaN,-5.256096,9.338004,1.719699,1.061803,2.453020,0.705415,-1.473145,-1.808828,-1.718739,0.067307,0.282319,-0.640484,-0.711017,88.783242,18.375824,-151.188572
62851,NaN,-5.762618,9.080556,1.786751,1.501142,2.495232,0.692981,-1.514007,-2.086453,-1.727637,0.056541,0.279915,-0.633299,-0.719293,87.500039,19.333566,-152.488315
62852,NaN,-6.638629,8.790548,1.506433,2.442489,2.366872,0.772052,-1.428550,-2.566752,-1.734885,0.044104,0.275758,-0.626399,-0.727761,86.139646,20.250113,-154.109452
62853,NaN,-5.100888,8.804176,1.422514,1.178448,1.335101,0.305448,-1.437655,-2.868576,-1.721215,0.030758,0.270372,-0.619333,-0.736464,84.670449,21.108763,-155.948846
62854,NaN,-5.627755,8.544540,1.130782,1.822532,1.013636,0.267053,-1.474362,-2.917379,-1.741125,0.017239,0.264771,-0.611926,-0.745081,83.134729,21.928721,-157.851660
62855,NaN,-5.540283,7.804055,0.848311,2.074563,0.588378,-0.450043,-1.514636,-2.955625,-1.695140,0.003808,0.258791,-0.604197,-0.753630,81.527716,22.672493,-159.810122
62856,NaN,-5.363879,7.365065,0.901826,2.024958,0.386907,-0.892448,-1.524143,-3.014874,-1.643450,-0.009582,0.252341,-0.596313,-0.761999,79.872182,23.328012,-161.830010
62857,NaN,-5.237967,7.253757,1.090327,1.871458,0.251473,-0.999687,-1.509570,-3.084248,-1.604539,-0.023061,0.245420,-0.588292,-0.770162,78.174263,23.901111,-163.919359
62858,NaN,-4.522570,7.265240,1.535525,1.078771,0.187197,-1.187722,-1.536806,-3.122160,-1.525912,-0.036291,0.238036,-0.580072,-0.778163,76.431508,24.366081,-166.045229
62859,NaN,-4.172357,7.433395,2.063159,0.543205,0.267576,-1.063530,-1.602710,-3.138346,-1.463001,-0.049248,0.230334,-0.571431,-0.786122,74.623868,24.735145,-168.195112
62860,NaN,-3.919810,7.144140,2.113262,0.406755,0.101764,-1.405062,-1.649297,-3.071680,-1.465229,-0.061936,0.222826,-0.562439,-0.793835,72.791221,25.052264,-170.320457
62861,NaN,-3.423164,6.917886,2.514642,-0.073184,0.231678,-1.698804,-1.659293,-2.800055,-1.481969,-0.073909,0.216372,-0.553256,-0.801017,70.999782,25.367171,-172.303428
62862,NaN,-3.766146,6.667377,2.570832,0.295347,0.190695,-1.743050,-1.660705,-2.365171,-1.523607,-0.084808,0.211711,-0.544048,-0.807464,69.302641,25.732991,-174.048518
62863,NaN,-4.461668,6.537826,2.692146,0.901270,0.193543,-1.503460,-1.567334,-1.917947,-1.625908,-0.094997,0.209043,-0.535137,-0.812960,67.741561,26.203481,-175.571701
62864,NaN,-5.111626,6.032395,2.552678,1.652801,0.101056,-1.670909,-1.550955,-1.583591,-1.671814,-0.104460,0.207806,-0.526321,-0.817858,66.255964,26.735308,-176.926903
62865,NaN,-5.621853,5.674985,2.357949,2.224525,-0.107953,-1.787320,-1.417151,-1.434050,-1.720134,-0.113862,0.207199,-0.517955,-0.822087,64.855485,27.298267,-178.231114
62866,NaN,-5.842505,5.359148,2.323736,2.482206,-0.192774,-1.935316,-1.269356,-1.415138,-1.718673,-0.123328,0.206546,-0.510148,-0.825759,63.528374,27.836239,-179.542531
62867,NaN,-5.840816,5.285601,2.573606,2.384560,-0.125405,-1.877258,-1.082189,-1.435516,-1.715713,-0.133024,0.205656,-0.502995,-0.828858,62.279152,28.342432,179.112746
62868,NaN,-5.530190,5.628259,3.131729,1.779230,0.037144,-1.512208,-0.956981,-1.517305,-1.685509,-0.142892,0.204233,-0.496288,-0.831606,61.069665,28.784320,177.715080
62869,NaN,-5.159887,5.919801,3.783075,1.133482,0.316138,-1.175980,-0.862812,-1.555875,-1.628902,-0.152713,0.202415,-0.489901,-0.834089,59.891481,29.162819,176.295137
62870,NaN,-5.219691,6.268090,4.253432,0.881140,0.391730,-0.664286,-0.824621,-1.585462,-1.565526,-0.162341,0.200257,-0.483672,-0.836423,58.727896,29.474627,174.869256
62871,NaN,-5.188604,6.323566,4.214134,0.780607,0.162993,-0.645927,-0.806599,-1.614794,-1.494665,-0.171757,0.197765,-0.477469,-0.838697,57.562674,29.719070,173.437725
62872,NaN,-4.874438,6.164016,3.987312,0.573212,-0.086230,-1.019751,-0.767438,-1.587068,-1.405771,-0.180732,0.195114,-0.471507,-0.840802,56.439237,29.903267,172.048126
62873,NaN,-4.490471,6.102477,3.688290,0.272294,-0.410577,-1.400571,-0.692440,-1.462020,-1.312557,-0.189090,0.192682,-0.465979,-0.842604,55.398907,30.061787,170.752386
62874,NaN,-4.197203,6.237173,3.515645,-0.069471,-0.705172,-1.543755,-0.631033,-1.277572,-1.231029,-0.196697,0.190756,-0.460946,-0.844068,54.458631,30.222213,169.585711
62875,NaN,-3.915918,6.387972,3.502659,-0.436851,-0.849033,-1.597059,-0.577077,-1.028700,-1.150886,-0.203446,0.189631,-0.456397,-0.845193,53.622341,30.414607,168.576109
62876,NaN,-4.038817,6.495638,3.548005,-0.453217,-0.970367,-1.449325,-0.527492,-0.768911,-1.097127,-0.209392,0.189415,-0.452374,-0.845952,52.894414,30.658417,167.724230
62877,NaN,-4.321028,6.626597,3.758051,-0.377749,-0.984827,-1.118285,-0.487786,-0.544308,-1.052741,-0.214687,0.190002,-0.448746,-0.846425,52.248484,30.952337,167.000630
62878,NaN,-4.445416,6.732766,3.910003,-0.420246,-0.998859,-0.912973,-0.440167,-0.379664,-1.005179,-0.219431,0.191117,-0.445553,-0.846644,51.682978,31.275449,166.380499
62879,NaN,-4.520081,6.904395,4.175250,-0.557563,-0.934416,-0.628470,-0.401094,-0.266480,-0.939840,-0.223694,0.192520,-0.442671,-0.846723,51.174746,31.605530,165.838557
62880,NaN,-4.615767,7.147834,4.545365,-0.731554,-0.817892,-0.228719,-0.375976,-0.192357,-0.869744,-0.227497,0.194046,-0.440062,-0.846721,50.716087,31.926493,165.362955
62881,NaN,-4.684025,7.323525,4.750441,-0.869691,-0.797280,0.023380,-0.366735,-0.156912,-0.794481,-0.230924,0.195543,-0.437569,-0.846741,50.280874,32.224612,164.930813
62882,NaN,-4.647248,7.420008,4.835692,-1.030406,-0.811197,0.102810,-0.364603,-0.141805,-0.716174,-0.233968,0.196925,-0.435198,-0.846807,49.869712,32.490507,164.539556
62883,NaN,-4.514985,7.435072,4.709841,-1.189612,-0.935276,-0.037327,-0.356896,-0.124041,-0.634771,-0.236648,0.198195,-0.432928,-0.846930,49.479907,32.725644,164.187274
62884,NaN,-4.189283,7.625851,4.541068,-1.592045,-1.136101,-0.195029,-0.351281,-0.106553,-0.535238,-0.238856,0.199312,-0.430821,-0.847122,49.123778,32.921627,163.888406
62885,NaN,-4.408729,7.845234,4.191890,-1.539652,-1.624141,-0.140670,-0.348383,-0.075400,-0.428336,-0.240559,0.200326,-0.428842,-0.847405,48.798409,33.081984,163.648919
62886,NaN,-4.705334,7.888461,3.942348,-1.330267,-1.954740,-0.100876,-0.334194,-0.037284,-0.340062,-0.241805,0.201293,-0.427079,-0.847711,48.516317,33.217389,163.470150
62887,NaN,-4.912476,7.948382,3.903329,-1.225400,-2.098513,0.017860,-0.337150,0.004097,-0.263952,-0.242599,0.202300,-0.425379,-0.848100,48.256373,33.335021,163.349575
62888,NaN,-4.904298,7.891951,3.952670,-1.233283,-2.054476,-0.003679,-0.334991,0.061681,-0.203873,-0.243054,0.203395,-0.423865,-0.848465,48.034286,33.448796,163.281810
62889,NaN,-4.757779,7.838828,4.183801,-1.377685,-1.826436,0.003314,-0.332015,0.171988,-0.161989,-0.243068,0.204885,-0.422496,-0.848786,47.849993,33.586638,163.291853
62890,NaN,-4.520298,7.824100,4.448509,-1.625438,-1.563140,0.003285,-0.356503,0.338672,-0.131180,-0.242604,0.207026,-0.421299,-0.848994,47.711668,33.775850,163.397868
62891,NaN,-4.673821,7.675979,4.484127,-1.456854,-1.503680,0.010196,-0.374905,0.535360,-0.112376,-0.241596,0.210000,-0.420238,-0.849077,47.619221,34.032831,163.615420
62892,NaN,-5.020606,7.590186,4.563258,-1.184761,-1.477651,0.189985,-0.396629,0.671128,-0.096026,-0.240236,0.213523,-0.419300,-0.849048,47.563357,34.335928,163.907744
62893,NaN,-5.346377,7.395989,4.562832,-0.856641,-1.447389,0.250857,-0.394810,0.700331,-0.069846,-0.238677,0.217123,-0.418391,-0.849023,47.521495,34.639074,164.230276
62894,NaN,-5.404464,7.214302,4.615738,-0.752749,-1.316532,0.200276,-0.377716,0.617135,-0.012020,-0.237087,0.220211,-0.417547,-0.849088,47.486475,34.886152,164.535884
62895,NaN,-4.982224,6.953046,4.470342,-0.935438,-1.202073,-0.282141,-0.342661,0.476595,0.076397,-0.235424,0.222489,-0.416744,-0.849352,47.451218,35.041212,164.813868
62896,NaN,-4.565417,6.831480,4.284331,-1.172277,-1.201480,-0.699518,-0.297488,0.346391,0.172124,-0.233701,0.223945,-0.416118,-0.849752,47.433878,35.105927,165.067884
62897,NaN,-4.510942,6.703878,4.064968,-1.098875,-1.304514,-0.929825,-0.255340,0.229111,0.251096,-0.231908,0.224700,-0.415589,-0.850303,47.423987,35.091458,165.301132
62898,NaN,-4.398943,6.645467,3.827641,-1.096314,-1.446365,-1.159950,-0.178011,0.136410,0.318715,-0.230131,0.224819,-0.415386,-0.850853,47.452671,35.012949,165.516225
62899,NaN,-4.271758,6.818687,3.734181,-1.259698,-1.592521,-1.177671,-0.095069,0.112456,0.350127,-0.228336,0.224685,-0.415513,-0.851310,47.526553,34.911214,165.735974
62900,NaN,-4.643829,7.262910,3.910534,-1.231426,-1.763679,-0.594213,-0.025134,0.156925,0.349881,-0.226554,0.224649,-0.416017,-0.851549,47.656283,34.826977,165.975586
62901,NaN,-5.506764,7.753251,4.133148,-0.848456,-2.012212,0.323947,0.006268,0.218239,0.289253,-0.224916,0.224972,-0.416631,-0.851598,47.802789,34.791035,166.219876
62902,NaN,-6.022046,7.924871,4.263768,-0.548344,-2.082134,0.799208,0.032915,0.256675,0.211160,-0.223581,0.225583,-0.417335,-0.851443,47.957531,34.803095,166.445469
62903,NaN,-6.016617,7.724995,4.246514,-0.430540,-1.961636,0.669425,0.067235,0.275973,0.147602,-0.222495,0.226375,-0.418116,-0.851134,48.118778,34.848558,166.653300
62904,NaN,-6.184551,7.592863,4.544573,-0.282911,-1.651218,0.852525,0.100677,0.308036,0.094184,-0.221626,0.227372,-0.419032,-0.850644,48.296985,34.929139,166.851519
62905,NaN,-6.739964,7.775891,5.286388,-0.096636,-1.226887,1.690481,0.059361,0.205506,0.084663,-0.220942,0.228006,-0.419628,-0.850359,48.416762,34.973784,166.994507
62906,NaN,-6.736393,7.630168,5.787711,-0.114987,-0.723119,1.873198,0.029376,0.026684,0.112459,-0.220504,0.227847,-0.419949,-0.850357,48.475158,34.938922,167.054584
62907,NaN,-6.708918,7.238716,5.912871,0.075166,-0.398936,1.685390,-0.001960,-0.120709,0.158030,-0.220124,0.227006,-0.420010,-0.850650,48.481840,34.827987,167.060715
62908,NaN,-6.889300,6.894612,5.908291,0.441645,-0.255891,1.573506,-0.044269,-0.250371,0.188532,-0.219860,0.225589,-0.419798,-0.851199,48.435409,34.655221,167.011212
62909,NaN,-7.132269,6.591295,5.659852,0.893151,-0.357871,1.386525,-0.084151,-0.397746,0.205415,-0.219765,0.223561,-0.419255,-0.852027,48.325782,34.418599,166.895671
62910,NaN,-6.980197,6.316926,5.438288,1.011950,-0.391236,1.005088,-0.101127,-0.532753,0.195165,-0.219998,0.220988,-0.418494,-0.853011,48.167155,34.135106,166.704212
62911,NaN,-5.649994,5.950684,5.106409,0.254466,-0.241733,-0.154269,-0.096209,-0.585716,0.195666,-0.220325,0.218188,-0.417678,-0.854047,47.996530,33.830341,166.489356
62912,NaN,-3.885865,5.553472,4.779921,-0.848384,0.030120,-1.562362,-0.025236,-0.443055,0.206172,-0.220403,0.215888,-0.417346,-0.854773,47.912929,33.575781,166.351876
62913,NaN,-4.305694,5.830624,4.814381,-0.641420,-0.191136,-1.137121,-0.009546,-0.235168,0.164255,-0.220227,0.214552,-0.417249,-0.855202,47.885583,33.418429,166.303403
62914,NaN,-5.514590,6.197336,5.078134,0.105125,-0.428509,-0.096185,-0.020542,-0.157030,0.087775,-0.220218,0.213715,-0.417122,-0.855476,47.855950,33.323944,166.257941
62915,NaN,-6.211992,6.464084,5.341223,0.488843,-0.512840,0.598839,-0.002033,-0.217976,0.015316,-0.220649,0.212754,-0.416916,-0.855705,47.800477,33.236367,166.150189
62916,NaN,-6.250805,6.526662,5.454605,0.479018,-0.479847,0.721202,0.017333,-0.338722,-0.042363,-0.221616,0.211369,-0.416611,-0.855947,47.709674,33.127014,165.953080
62917,NaN,-5.818677,6.583805,5.398056,0.122314,-0.489622,0.487203,0.052779,-0.418680,-0.069053,-0.222881,0.209665,-0.416325,-0.856176,47.609734,32.997508,165.705820
62918,NaN,-5.218472,6.669844,5.392366,-0.395068,-0.436742,0.209787,0.063601,-0.426645,-0.070260,-0.224198,0.207908,-0.416087,-0.856377,47.515638,32.865406,165.452562
62919,NaN,-4.928803,6.791797,5.377374,-0.678329,-0.472361,0.119807,0.050853,-0.405399,-0.045516,-0.225335,0.206210,-0.415832,-0.856613,47.426047,32.730444,165.223568
62920,NaN,-4.887768,6.773405,5.240253,-0.661119,-0.579924,0.008519,0.041319,-0.390510,-0.033036,-0.226392,0.204554,-0.415574,-0.856856,47.339885,32.595999,165.006819
62921,NaN,-4.749295,6.884805,5.174216,-0.807779,-0.680012,-0.034452,0.047445,-0.390614,-0.028537,-0.227419,0.202886,-0.415335,-0.857097,47.258139,32.458971,164.794402
62922,NaN,-4.700610,7.035622,5.475529,-0.959010,-0.527392,0.206255,0.022424,-0.449452,0.002181,-0.228426,0.200924,-0.414962,-0.857472,47.155695,32.286216,164.565731
62923,NaN,-4.477158,6.976680,5.642439,-1.109019,-0.331815,0.148035,0.008571,-0.495632,0.005780,-0.229479,0.198777,-0.414467,-0.857930,47.034195,32.093064,164.318767
62924,NaN,-4.365835,6.859729,5.654018,-1.109634,-0.254608,0.025407,0.013152,-0.492155,0.012574,-0.230518,0.196618,-0.414011,-0.858369,46.920008,31.898489,164.075559
62925,NaN,-4.342209,6.739899,5.761331,-1.050807,-0.117277,0.003417,0.019165,-0.441433,0.041585,-0.231315,0.194613,-0.413656,-0.858783,46.829947,31.710663,163.873540
62926,NaN,-4.598589,6.576223,5.768717,-0.724691,-0.098681,0.043115,0.021591,-0.369301,0.071348,-0.231853,0.192849,-0.413431,-0.859144,46.768611,31.539088,163.719350
62927,NaN,-4.866189,6.497654,5.746615,-0.436088,-0.149216,0.122624,0.043473,-0.264035,0.060464,-0.232225,0.191535,-0.413403,-0.859351,46.744097,31.412564,163.613852
62928,NaN,-4.958014,6.581487,5.735242,-0.390424,-0.231787,0.216505,0.049015,-0.132478,0.045852,-0.232409,0.190809,-0.413545,-0.859395,46.753513,31.344487,163.564281
62929,NaN,-5.046406,6.615152,5.737423,-0.327598,-0.269238,0.285068,0.039336,-0.028981,0.060998,-0.232287,0.190508,-0.413772,-0.859385,46.786806,31.309955,163.574155
62930,NaN,-5.133055,6.662989,5.959172,-0.309009,-0.134592,0.489827,0.017829,0.052391,0.050225,-0.232040,0.190603,-0.413998,-0.859322,46.826396,31.312594,163.616933
62931,NaN,-5.277745,6.658048,6.167632,-0.218103,0.006178,0.683802,-0.005517,0.110106,0.010826,-0.231801,0.191057,-0.414145,-0.859214,46.857346,31.353487,163.672024
62932,NaN,-5.229050,6.616500,6.089276,-0.230938,-0.016363,0.586674,-0.023514,0.103962,-0.007751,-0.231656,0.191541,-0.414198,-0.859120,46.872607,31.400532,163.713489
62933,NaN,-5.048336,6.312056,5.786454,-0.173470,-0.045222,0.126058,-0.023787,0.051816,-0.000008,-0.231568,0.191788,-0.414189,-0.859093,46.875752,31.423081,163.735056
62934,NaN,-4.805040,6.161939,5.639428,-0.271028,-0.021125,-0.180078,-0.005858,0.005980,0.004820,-0.231589,0.191805,-0.414217,-0.859070,46.879147,31.426486,163.734305
62935,NaN,-4.749932,6.157421,5.723764,-0.325294,0.062590,-0.162432,-0.000029,-0.002685,0.004164,-0.231621,0.191780,-0.414253,-0.859050,46.883172,31.425955,163.730688
62936,NaN,-4.699348,6.199920,5.932389,-0.419998,0.220044,-0.040722,0.005846,0.029311,-0.001780,-0.231634,0.191897,-0.414351,-0.858973,46.897659,31.441256,163.738346
62937,NaN,-4.668159,6.375560,6.093642,-0.569387,0.263350,0.146147,-0.008433,0.077401,-0.013634,-0.231567,0.192263,-0.414425,-0.858873,46.912984,31.479451,163.766093
62938,NaN,-4.491490,6.429175,6.108645,-0.753030,0.292014,0.095440,-0.037819,0.125905,0.002757,-0.231318,0.192836,-0.414452,-0.858799,46.928334,31.530650,163.823262
62939,NaN,-4.567841,6.297585,6.052094,-0.616798,0.304138,0.019894,-0.063130,0.135516,0.030731,-0.230888,0.193421,-0.414402,-0.858807,46.938034,31.572924,163.899791
62940,NaN,-5.057541,6.200571,5.866315,-0.140197,0.094180,0.107541,-0.075825,0.079698,0.059726,-0.230453,0.193721,-0.414267,-0.858922,46.933512,31.582187,163.960478
62941,NaN,-5.325738,6.187115,5.598445,0.127012,-0.178268,0.083703,-0.055911,-0.020953,0.078101,-0.230148,0.193529,-0.414111,-0.859122,46.918359,31.543338,163.982223
62942,NaN,-5.464656,6.078102,5.197587,0.365593,-0.475872,-0.145186,-0.013339,-0.089356,0.062448,-0.230112,0.193026,-0.414052,-0.859273,46.906838,31.485316,163.961138
62943,NaN,-5.199545,6.066257,5.501517,0.120882,-0.167335,-0.114295,0.012251,-0.094480,0.049031,-0.230150,0.192499,-0.414077,-0.859369,46.904993,31.429909,163.933403
62944,NaN,-5.278730,6.190159,5.680888,0.099601,-0.112667,0.108650,0.016748,-0.064935,0.039805,-0.230190,0.192113,-0.414153,-0.859408,46.911585,31.390918,163.913933
62945,NaN,-5.259886,6.318202,5.850334,-0.005133,-0.043514,0.277435,0.021467,-0.040563,0.017431,-0.230262,0.191873,-0.414250,-0.859396,46.921347,31.369874,163.898078
62946,NaN,-5.547561,6.440010,6.319661,0.098019,0.198394,0.776850,0.007831,0.024619,-0.026641,-0.230393,0.192019,-0.414327,-0.859291,46.929837,31.393741,163.892048
62947,NaN,-5.447074,6.481994,6.413162,-0.028311,0.276099,0.805150,-0.026553,0.079728,-0.069848,-0.230543,0.192533,-0.414271,-0.859163,46.921834,31.456284,163.895398
62948,NaN,-5.080627,6.444090,6.379776,-0.318308,0.360789,0.570428,-0.034722,0.162876,-0.101405,-0.230668,0.193477,-0.414253,-0.858926,46.923463,31.565542,163.922911
62949,NaN,-4.663853,6.346423,6.192435,-0.599893,0.368651,0.181263,-0.066905,0.236548,-0.101860,-0.230592,0.194775,-0.414173,-0.858691,46.925103,31.702836,163.988402
62950,NaN,-4.762950,6.154194,5.804727,-0.377464,0.145840,-0.112643,-0.090637,0.220437,-0.063359,-0.230380,0.195952,-0.414017,-0.858556,46.918966,31.818697,164.061829
62951,NaN,-4.753759,5.800848,5.374722,-0.138684,0.000000,-0.586829,-0.078641,0.103010,-0.009361,-0.230171,0.196498,-0.413822,-0.858581,46.901896,31.864964,164.104265
62952,NaN,-4.870192,5.617335,5.143953,0.090404,-0.112362,-0.773181,-0.044767,-0.022126,0.047978,-0.230028,0.196350,-0.413692,-0.858716,46.886186,31.839311,164.109564
62953,NaN,-5.124220,5.715886,5.132216,0.252675,-0.239644,-0.585156,-0.015964,-0.119751,0.092384,-0.229906,0.195657,-0.413610,-0.858946,46.871977,31.755817,164.089128
62954,NaN,-5.263379,5.746029,5.253721,0.347206,-0.197344,-0.423221,0.015154,-0.181932,0.119865,-0.229843,0.194605,-0.413624,-0.859196,46.866714,31.637509,164.048990
62955,NaN,-5.080808,5.766125,5.396344,0.186613,-0.056891,-0.424119,0.039747,-0.190620,0.163110,-0.229617,0.193397,-0.413767,-0.859459,46.883333,31.496727,164.026432
62956,NaN,-5.060449,6.061209,5.716186,-0.015852,0.038241,-0.064897,0.050219,-0.156205,0.193205,-0.229218,0.192263,-0.414031,-0.859693,46.922460,31.357827,164.032589
62957,NaN,-5.247564,6.139752,5.909437,0.091320,0.103970,0.194097,0.020582,-0.129747,0.207090,-0.228657,0.191248,-0.414203,-0.859986,46.954023,31.222475,164.060041
62958,NaN,-5.526921,6.136502,6.249980,0.298007,0.310084,0.535296,-0.001820,-0.113754,0.187612,-0.228144,0.190367,-0.414285,-0.860278,46.972640,31.102511,164.084229
62959,NaN,-5.517114,6.140202,6.310458,0.298954,0.354810,0.567449,-0.023594,-0.096402,0.151323,-0.227716,0.189659,-0.414253,-0.860563,46.974193,31.003609,164.101805
62960,NaN,-5.104066,6.116263,6.322654,-0.016027,0.470524,0.346765,-0.043813,-0.049546,0.122081,-0.227312,0.189238,-0.414165,-0.860805,46.969408,30.936192,164.127409
62961,NaN,-4.411350,6.082042,6.135635,-0.536766,0.501812,-0.140184,-0.040729,0.087871,0.102406,-0.226695,0.189444,-0.414221,-0.860895,46.995756,30.929804,164.212749
62962,NaN,-4.399461,6.601617,5.992741,-0.816268,0.108203,0.095468,-0.068695,0.265782,0.064866,-0.225860,0.190526,-0.414329,-0.860824,47.042592,31.009524,164.366373
62963,NaN,-4.780296,6.608791,5.746736,-0.488034,-0.170295,0.151503,-0.113206,0.396592,0.024835,-0.224866,0.192304,-0.414346,-0.860681,47.087375,31.155950,164.567884
62964,NaN,-5.435172,6.405743,5.449726,0.182619,-0.431368,0.190045,-0.118367,0.405149,-0.004469,-0.223992,0.194184,-0.414328,-0.860496,47.125746,31.318923,164.758880
62965,NaN,-5.806543,6.163468,5.131790,0.647522,-0.623170,0.047935,-0.084640,0.263784,-0.022687,-0.223503,0.195455,-0.414270,-0.860363,47.142938,31.433333,164.874223
62966,NaN,-5.640394,6.244966,5.049134,0.467212,-0.692672,-0.034686,-0.034759,0.062416,-0.015173,-0.223466,0.195789,-0.414217,-0.860322,47.139515,31.467132,164.892142
62967,NaN,-5.125461,6.329364,5.256270,-0.036686,-0.460343,-0.130420,-0.007480,-0.049330,-0.016891,-0.223679,0.195614,-0.414148,-0.860339,47.122276,31.457194,164.855802
62968,NaN,-5.080483,6.451352,5.443359,-0.168988,-0.370931,0.030851,-0.006644,-0.033659,-0.028477,-0.223925,0.195530,-0.414095,-0.860320,47.107105,31.459124,164.820339
62969,NaN,-5.122849,6.338446,5.482933,-0.080812,-0.286473,0.005329,-0.004398,0.019664,-0.033662,-0.224069,0.195684,-0.414101,-0.860245,47.105355,31.483113,164.810465
62970,NaN,-5.125661,6.299053,5.632958,-0.083318,-0.143109,0.069279,-0.003315,0.049849,-0.000688,-0.224026,0.195899,-0.414183,-0.860168,47.120182,31.505938,164.828809
62971,NaN,-4.995677,6.078913,5.674906,-0.075943,0.043270,-0.111816,-0.023362,0.000368,0.052800,-0.223820,0.195812,-0.414170,-0.860247,47.123291,31.486106,164.848991
62972,NaN,-4.890005,5.923109,5.743597,-0.081430,0.207180,-0.224428,-0.015821,-0.060805,0.098400,-0.223568,0.195359,-0.414171,-0.860416,47.126149,31.424185,164.858151
62973,NaN,-4.825598,5.880755,5.562808,-0.072413,0.097952,-0.389330,-0.007832,-0.084284,0.119211,-0.223265,0.194753,-0.414195,-0.860620,47.132167,31.343448,164.867103
62974,NaN,-4.684132,5.865919,5.383909,-0.141405,-0.006756,-0.575993,0.007420,-0.064063,0.125929,-0.222923,0.194203,-0.414318,-0.860773,47.153993,31.268692,164.887180
62975,NaN,-4.770768,6.020115,5.351975,-0.137612,-0.136505,-0.452769,0.013239,-0.016600,0.126216,-0.222467,0.193852,-0.414513,-0.860877,47.190755,31.211329,164.932869
62976,NaN,-4.968157,6.127882,5.529959,-0.051310,-0.094079,-0.179283,0.012949,0.040135,0.113858,-0.221967,0.193769,-0.414764,-0.860903,47.239335,31.182179,164.998543
62977,NaN,-5.414380,6.442900,5.778139,0.113267,-0.163889,0.393863,-0.000693,0.087617,0.076071,-0.221498,0.193985,-0.414967,-0.860878,47.282860,31.186395,165.072438
62978,NaN,-5.572827,6.545062,5.891941,0.168602,-0.157203,0.606337,-0.018980,0.149496,0.024775,-0.221124,0.194593,-0.415115,-0.860765,47.320070,31.237164,165.151444
62979,NaN,-5.575638,6.431295,5.862847,0.225969,-0.108644,0.519756,-0.032893,0.216832,-0.019826,-0.220770,0.195599,-0.415230,-0.860573,47.355861,31.331921,165.245318
62980,NaN,-5.494908,6.306344,5.765081,0.222570,-0.087468,0.343241,-0.030565,0.307310,-0.067753,-0.220454,0.197091,-0.415411,-0.860226,47.405500,31.482834,165.360471
62981,NaN,-5.315577,6.260441,5.608301,0.095431,-0.131433,0.130904,-0.025444,0.435994,-0.109378,-0.220036,0.199217,-0.415709,-0.859700,47.481746,31.700199,165.522817
62982,NaN,-5.193184,6.135758,5.385974,0.059888,-0.190225,-0.138732,-0.019319,0.576252,-0.144131,-0.219498,0.202009,-0.416155,-0.858969,47.591369,31.987158,165.738032
62983,NaN,-5.068229,5.954890,5.319623,0.019230,-0.084872,-0.355514,-0.003636,0.746546,-0.173385,-0.218727,0.205575,-0.416815,-0.857999,47.749762,32.350931,166.028693
62984,NaN,-5.027977,5.854059,5.239227,-0.003623,-0.043127,-0.485434,0.020186,0.960131,-0.200594,-0.217666,0.210083,-0.417780,-0.856707,47.976701,32.808397,166.415394
62985,NaN,-5.161821,5.812481,5.155867,0.071687,-0.058375,-0.485152,0.049447,1.207439,-0.228179,-0.216214,0.215670,-0.419094,-0.855043,48.287540,33.369846,166.921992
62986,NaN,-5.371398,5.715420,5.093194,0.220340,-0.023729,-0.463453,0.077803,1.473286,-0.261738,-0.214385,0.222422,-0.420765,-0.852951,48.691354,34.044825,167.556433
62987,NaN,-5.381134,5.861424,5.123855,0.036587,0.006752,-0.348886,0.110902,1.781922,-0.295505,-0.212054,0.230513,-0.422834,-0.850358,49.210089,34.845445,168.351388
62988,NaN,-5.634814,5.991948,5.003450,0.068563,-0.098375,-0.186056,0.138038,2.102320,-0.335166,-0.209244,0.239997,-0.425278,-0.847205,49.853703,35.776649,169.315637
62989,NaN,-5.933868,6.097861,4.992848,0.102101,-0.082410,0.051504,0.154154,2.422481,-0.400446,-0.206005,0.250928,-0.427985,-0.843461,50.621541,36.843411,170.453355
62990,NaN,-6.383800,6.192148,4.834531,0.270146,-0.176025,0.304595,0.158352,2.697736,-0.470590,-0.202459,0.263122,-0.430838,-0.839140,51.506512,38.028028,171.748086
62991,NaN,-6.522364,6.215797,4.459602,0.272536,-0.351134,0.230325,0.172114,2.938344,-0.541221,-0.198652,0.276412,-0.433804,-0.834235,52.517346,39.311512,173.198791
62992,NaN,-6.367401,6.125680,4.167292,0.082411,-0.356892,-0.050850,0.194854,3.217097,-0.610173,-0.194526,0.290921,-0.436946,-0.828615,53.693411,40.701416,174.843199
62993,NaN,-6.783645,6.121551,3.824590,0.283792,-0.481871,0.076615,0.210660,3.454284,-0.657933,-0.190029,0.306420,-0.440181,-0.822336,55.042925,42.163992,176.691673
62994,NaN,-7.118383,5.949325,3.497586,0.505438,-0.474806,0.077183,0.221224,3.591254,-0.705162,-0.185398,0.322474,-0.443382,-0.815506,56.543639,43.658900,178.698838
62995,NaN,-7.200976,5.896020,3.235544,0.445509,-0.457751,0.019346,0.252204,3.686544,-0.753901,-0.180721,0.338889,-0.446557,-0.808134,58.205417,45.165061,-179.140813
62996,NaN,-7.207321,5.625505,3.002134,0.448536,-0.294632,-0.205022,0.309376,3.807659,-0.781324,-0.175934,0.355674,-0.449869,-0.800100,60.082524,46.672625,-176.784848
62997,NaN,-7.776122,5.976062,2.929193,0.390016,-0.294136,0.410412,0.337846,3.900189,-0.812846,-0.171031,0.372740,-0.453139,-0.791503,62.163434,48.163627,-174.229572
62998,NaN,-7.702308,5.946023,2.722214,0.167647,-0.224722,0.286892,0.317296,3.952258,-0.854686,-0.166084,0.389970,-0.456117,-0.782494,64.414276,49.623662,-171.493586
62999,NaN,-7.551831,5.837108,2.444249,-0.021198,-0.186570,0.037679,0.347667,4.101215,-0.918890,-0.161019,0.407742,-0.459007,-0.772743,66.938152,51.075806,-168.481452
63000,NaN,-7.602610,5.771243,2.164727,-0.108715,-0.149933,-0.027659,0.330102,4.246711,-0.947380,-0.155638,0.425963,-0.461686,-0.762350,69.747867,52.483484,-165.155579
63001,NaN,-7.563217,5.585445,1.773945,-0.116834,-0.152182,-0.247258,0.343562,4.381588,-0.973137,-0.149979,0.444543,-0.464230,-0.751251,72.882875,53.820960,-161.490975
63002,NaN,-7.386227,5.559936,1.383357,-0.290681,-0.266041,-0.473726,0.317250,4.437890,-0.980538,-0.144099,0.463137,-0.466473,-0.739691,76.287726,55.044129,-157.538225
63003,NaN,-7.031879,5.393225,1.003075,-0.448664,-0.347446,-0.912807,0.320996,4.512658,-0.965300,-0.137917,0.481723,-0.468575,-0.727571,80.003778,56.121777,-153.266063
63004,NaN,-7.275157,5.358908,0.732203,-0.433546,-0.268360,-0.762219,0.317421,4.532606,-0.935329,-0.131500,0.500058,-0.470496,-0.715041,83.973312,57.020436,-148.737053
63005,NaN,-7.709100,5.409324,0.500934,-0.415336,-0.132522,-0.392461,0.278239,4.396092,-0.882637,-0.125045,0.517544,-0.472076,-0.702607,88.006463,57.706347,-144.146209
63006,NaN,-7.910541,5.152476,0.060809,-0.171838,-0.058769,-0.374207,0.274419,4.195314,-0.815816,-0.118764,0.533922,-0.473460,-0.690404,92.008026,58.179489,-139.619389
63007,NaN,-8.408586,5.265417,-0.287199,-0.106495,0.004828,0.111499,0.283867,3.969096,-0.777638,-0.112854,0.549189,-0.474641,-0.678506,95.903856,58.472260,-135.241630
63008,NaN,-8.561258,5.306513,-0.496799,-0.215249,0.095977,0.268778,0.228545,3.730413,-0.740981,-0.107197,0.563381,-0.475414,-0.667152,99.596882,58.610619,-131.074670
63009,NaN,-8.509917,5.152653,-0.681332,-0.267613,0.222224,0.152408,0.190564,3.593316,-0.695639,-0.101563,0.576829,-0.475951,-0.656067,103.149215,58.600458,-127.049540
63010,NaN,-8.626588,5.272093,-0.605365,-0.613627,0.459055,0.286024,0.126359,3.495853,-0.654159,-0.095813,0.589705,-0.476190,-0.645222,106.549253,58.455250,-123.156749
63011,NaN,-8.655408,5.201804,-0.675070,-0.756395,0.644683,0.258811,0.072127,3.420693,-0.618312,-0.089931,0.602095,-0.476178,-0.634546,109.794728,58.185624,-119.399966
63012,NaN,-8.486970,4.984820,-0.758491,-0.833140,0.800590,-0.009107,0.026179,3.380357,-0.615181,-0.083976,0.614192,-0.475867,-0.623912,112.910683,57.814390,-115.752177
63013,NaN,-8.432182,4.824111,-1.155630,-0.693098,0.755693,-0.083815,0.002962,3.335713,-0.578467,-0.077911,0.625891,-0.475441,-0.613307,115.875831,57.331893,-112.249559
63014,NaN,-7.640431,4.552363,-1.800160,-0.430306,0.233723,-0.752021,-0.039625,3.247441,-0.531591,-0.071763,0.637054,-0.474863,-0.602924,118.629179,56.756204,-108.949970
63015,NaN,-6.828772,4.142715,-2.472517,-0.001917,-0.253885,-1.455734,-0.028021,3.237029,-0.497030,-0.065547,0.647924,-0.474299,-0.592401,121.256333,56.082195,-105.785463
63016,NaN,-7.323703,4.058639,-3.010558,0.337042,-0.125790,-0.922352,0.023188,3.181973,-0.451739,-0.059482,0.658340,-0.473890,-0.581789,123.738084,55.326406,-102.806441
63017,NaN,-7.887830,3.733256,-3.613186,0.883594,0.160278,-0.410641,0.026144,2.928105,-0.373345,-0.053781,0.667671,-0.473560,-0.571896,125.898400,54.549034,-100.193702
63018,NaN,-8.461410,3.447164,-4.109494,1.326177,0.514839,0.103859,0.019342,2.526818,-0.246571,-0.048639,0.675433,-0.473436,-0.563279,127.643404,53.800923,-98.064132
63019,NaN,-9.230879,3.245543,-4.295427,1.514835,1.124264,0.705454,0.021944,1.983677,-0.132355,-0.044460,0.681304,-0.473511,-0.556449,128.933372,53.161262,-96.482989
63020,NaN,-9.938298,3.559124,-3.960479,0.985845,1.700492,1.289432,0.007405,1.415721,-0.051090,-0.041351,0.685358,-0.473661,-0.551561,129.802218,52.674752,-95.408193
63021,NaN,-9.801036,3.664296,-3.787041,0.689107,1.752636,1.154603,0.052273,1.027111,-0.093355,-0.039428,0.688403,-0.473691,-0.547872,130.473120,52.341553,-94.608923
63022,NaN,-10.694979,4.228086,-3.334184,-0.057679,2.313662,1.935463,-0.019001,0.813453,-0.078751,-0.037728,0.690830,-0.473524,-0.545075,130.966141,52.077030,-93.980312
63023,NaN,-10.200498,4.177577,-3.450200,-0.016740,2.017506,1.559881,-0.048069,0.538359,-0.112385,-0.036670,0.692581,-0.473102,-0.543287,131.299828,51.928153,-93.530594
63024,NaN,-8.765800,4.253800,-3.626653,-0.042091,1.021994,0.533337,-0.048093,0.557831,-0.172359,-0.035728,0.694523,-0.472474,-0.541414,131.670973,51.795706,-93.032762
63025,NaN,-7.992757,4.140732,-3.792291,0.080056,0.544473,-0.060350,-0.055666,0.789306,-0.251969,-0.034430,0.697271,-0.471582,-0.538738,132.196927,51.606598,-92.330674
63026,NaN,-7.655960,4.053776,-3.836460,0.097756,0.400736,-0.347253,-0.039809,1.078450,-0.329062,-0.032711,0.700961,-0.470504,-0.534985,132.916371,51.332813,-91.390982
63027,NaN,-7.579444,3.992693,-4.038329,0.200466,0.331010,-0.349765,-0.006111,1.324190,-0.378567,-0.030664,0.705390,-0.469363,-0.530267,133.792625,50.975386,-90.270256
63028,NaN,-7.509008,3.947600,-4.402707,0.395860,0.181360,-0.264825,0.024431,1.464404,-0.409487,-0.028475,0.710223,-0.468192,-0.524946,134.753683,50.562802,-89.056865
63029,NaN,-7.388871,3.835272,-4.846817,0.688619,0.005917,-0.204323,0.085840,1.512948,-0.409579,-0.026391,0.715131,-0.467159,-0.519282,135.750099,50.118028,-87.835477
63030,NaN,-7.551118,3.987642,-5.037582,0.605467,0.000650,0.083262,0.153011,1.450441,-0.389712,-0.024638,0.719781,-0.466337,-0.513651,136.722573,49.677339,-86.688076
63031,NaN,-7.840415,4.201285,-4.925648,0.257157,0.194044,0.349983,0.189268,1.263142,-0.348602,-0.023348,0.723812,-0.465708,-0.508594,137.588596,49.288105,-85.700765
63032,NaN,-8.081770,4.249404,-4.983388,0.153876,0.351060,0.582444,0.183134,1.029899,-0.326841,-0.022520,0.727174,-0.465100,-0.504374,138.321849,48.980270,-84.879370
63033,NaN,-7.344429,4.412084,-4.904514,-0.058930,-0.140126,0.058363,0.173152,0.915152,-0.329531,-0.021932,0.730233,-0.464428,-0.500585,138.990076,48.716886,-84.133034
63034,NaN,-6.693996,4.533653,-4.973474,-0.130452,-0.630628,-0.342541,0.126015,1.044610,-0.374842,-0.020981,0.733707,-0.463477,-0.496409,139.699435,48.407632,-83.292661
63035,NaN,-6.139532,4.936313,-4.985816,-0.445340,-1.182266,-0.575675,0.093140,1.378890,-0.417129,-0.019241,0.738081,-0.462303,-0.491063,140.534635,47.960041,-82.253079
63036,NaN,-6.620128,4.048530,-4.898596,-0.030908,-0.243455,-0.639302,-0.020407,1.836643,-0.523297,-0.016281,0.743783,-0.460471,-0.484239,141.515659,47.335287,-80.919496
63037,NaN,-6.128191,4.168070,-5.013004,-0.114744,-0.602508,-0.886388,0.184886,2.322211,-0.616676,-0.013192,0.750770,-0.458773,-0.475077,142.803487,46.506435,-79.311043
63038,NaN,-5.472827,4.814894,-4.977947,-0.664703,-1.291968,-1.106333,0.091868,2.896024,-0.704902,-0.008644,0.759192,-0.456477,-0.463877,144.223340,45.417040,-77.419272
63039,NaN,-5.192722,4.441338,-5.227910,-0.352069,-1.237620,-1.306172,-0.048127,3.416287,-0.736018,-0.002447,0.768695,-0.453640,-0.450902,145.662573,44.061728,-75.345489
63040,NaN,-5.082141,4.086473,-5.672613,0.042858,-1.120852,-1.242858,-0.061516,3.752714,-0.716265,0.004610,0.778656,-0.450701,-0.436510,147.081543,42.502913,-73.235120
63041,NaN,-5.047022,3.810053,-6.155494,0.379874,-0.974978,-1.050417,-0.076522,3.823577,-0.651440,0.012026,0.788336,-0.447813,-0.421717,148.370515,40.854331,-71.241371
63042,NaN,-4.833790,3.710330,-6.901392,0.809239,-1.128039,-0.711759,-0.071740,3.668846,-0.579912,0.019222,0.797247,-0.445066,-0.407362,149.490913,39.229384,-69.447329
63043,NaN,-5.147412,3.635962,-7.257170,0.819685,-0.764629,-0.267043,-0.041249,3.338911,-0.449129,0.025824,0.804947,-0.442794,-0.394117,150.415442,37.706452,-67.934370
63044,NaN,-6.423505,3.596663,-7.348750,0.335481,0.362894,0.577274,-0.044770,2.841827,-0.334442,0.031559,0.811217,-0.440932,-0.382766,151.126478,36.383175,-66.723493
63045,NaN,-7.064973,3.643581,-7.209642,-0.167172,1.015277,0.869344,-0.069841,2.232495,-0.243692,0.036221,0.815983,-0.439414,-0.373866,151.627836,35.331376,-65.811152
63046,NaN,-7.042305,3.605711,-7.183431,-0.286757,1.158059,0.806702,-0.120379,1.663210,-0.156018,0.039998,0.819403,-0.438219,-0.367346,151.938737,34.537993,-65.160273
63047,NaN,-6.846979,3.894584,-7.079916,-0.582247,0.959049,0.718893,-0.122636,1.268925,-0.122092,0.042981,0.821978,-0.437213,-0.362421,152.152263,33.932829,-64.668233
63048,NaN,-5.961410,4.265221,-6.930431,-0.690935,0.181057,0.249641,-0.159313,1.144116,-0.135349,0.045815,0.824319,-0.436097,-0.358076,152.320058,33.392921,-64.213736
63049,NaN,-5.546811,4.250619,-6.752857,-0.705480,-0.009065,-0.120555,-0.216760,1.220665,-0.193642,0.048948,0.826879,-0.434604,-0.353545,152.480962,32.828861,-63.704524
63050,NaN,-5.361980,4.192452,-6.832748,-0.613514,-0.058371,-0.188071,-0.142673,1.294291,-0.183436,0.051950,0.829533,-0.433249,-0.348528,152.686367,32.222974,-63.183763
63051,NaN,-5.283932,4.288630,-7.203830,-0.492892,-0.180754,0.083311,-0.121822,1.364897,-0.212049,0.054967,0.832338,-0.431773,-0.343168,152.915845,31.587306,-62.630485
63052,NaN,-5.240057,3.997809,-7.902075,0.074261,-0.094036,0.476527,-0.111080,1.344591,-0.189615,0.057930,0.835025,-0.430395,-0.337843,153.133021,30.953980,-62.103260
63053,NaN,-5.554082,3.610761,-8.310949,0.379842,0.388733,0.801491,-0.057922,1.226992,-0.180311,0.060433,0.837472,-0.429160,-0.332883,153.351529,30.377081,-61.623154
63054,NaN,-6.254492,3.500410,-8.282673,0.072066,1.066231,1.088293,-0.031366,0.973161,-0.138026,0.062347,0.839389,-0.428211,-0.328900,153.529127,29.917644,-61.247976
63055,NaN,-6.253698,3.370924,-8.186425,0.041559,1.215340,0.958121,-0.025282,0.640441,-0.096156,0.063592,0.840655,-0.427542,-0.326287,153.645571,29.617889,-60.998179
63056,NaN,-6.179587,3.370516,-8.182861,0.036123,1.191546,0.915114,-0.070472,0.339688,-0.054058,0.064451,0.841322,-0.427071,-0.325015,153.679491,29.461131,-60.861969
63057,NaN,-5.336827,2.980764,-8.197678,0.653118,0.807394,0.360324,-0.043428,0.096562,-0.009016,0.064749,0.841503,-0.426909,-0.324697,153.680492,29.418353,-60.823557
63058,NaN,-4.893493,3.042873,-7.995919,0.677419,0.467344,0.008859,-0.007947,-0.049950,0.029781,0.064650,0.841377,-0.427017,-0.324902,153.669776,29.440362,-60.850637
63059,NaN,-5.003731,3.254959,-7.548658,0.224903,0.486175,-0.203975,0.032607,-0.198256,0.065434,0.064119,0.840945,-0.427387,-0.325638,153.650543,29.530082,-60.942157
63060,NaN,-5.136177,3.391827,-7.188563,-0.124599,0.545877,-0.365643,0.035402,-0.379290,0.092514,0.063236,0.840160,-0.427934,-0.327115,153.598589,29.705157,-61.102779
63061,NaN,-5.151870,3.411355,-6.923630,-0.277041,0.565460,-0.554226,0.047268,-0.569968,0.127259,0.061947,0.838987,-0.428703,-0.329359,153.514470,29.969709,-61.340693
63062,NaN,-5.061664,3.517957,-7.042685,-0.201477,0.373160,-0.463049,0.057828,-0.757926,0.169348,0.060284,0.837408,-0.429720,-0.332348,153.394183,30.318767,-61.660424
63063,NaN,-4.997223,3.630044,-7.327578,-0.030047,0.155455,-0.230551,0.080603,-0.905544,0.204611,0.058262,0.835498,-0.430957,-0.335894,153.250946,30.734456,-62.047454
63064,NaN,-4.803613,3.803416,-7.588576,0.142871,-0.204583,-0.062592,0.105951,-1.000484,0.231853,0.055978,0.833358,-0.432369,-0.339760,153.095078,31.190010,-62.482295
63065,NaN,-4.488258,3.902511,-7.780281,0.371905,-0.604739,-0.045281,0.140307,-1.049062,0.270127,0.053505,0.831038,-0.433999,-0.343740,152.934335,31.660136,-62.958523
63066,NaN,-4.272826,3.992585,-7.900225,0.518182,-0.912466,-0.039782,0.193291,-1.050953,0.303776,0.050868,0.828632,-0.435849,-0.347588,152.787649,32.120589,-63.459331
63067,NaN,-4.557686,4.227822,-7.668810,0.150523,-0.853569,0.021230,0.243206,-1.020889,0.314155,0.048103,0.826242,-0.437806,-0.351193,152.665840,32.562628,-63.960880
63068,NaN,-5.001241,4.451767,-7.299656,-0.355327,-0.629787,0.066195,0.253142,-0.992458,0.297451,0.045331,0.823917,-0.439694,-0.354649,152.554925,32.993124,-64.446849
63069,NaN,-5.131832,4.408331,-7.003343,-0.513712,-0.489955,-0.101275,0.220228,-0.999666,0.302189,0.042684,0.821537,-0.441530,-0.358199,152.417234,33.425666,-64.941571
63070,NaN,-5.149473,4.295039,-6.850131,-0.490808,-0.423964,-0.248814,0.193442,-1.007115,0.296060,0.040121,0.819129,-0.443284,-0.361827,152.259809,33.862028,-65.438655
63071,NaN,-5.082351,4.204611,-6.768712,-0.409259,-0.452115,-0.381239,0.184332,-0.981601,0.283693,0.037627,0.816768,-0.444951,-0.365366,152.100453,34.288111,-65.924059
63072,NaN,-4.953262,4.223400,-6.772264,-0.333121,-0.611842,-0.445200,0.169617,-0.917975,0.276619,0.035322,0.814517,-0.446541,-0.368667,151.942083,34.682295,-66.388024
63073,NaN,-4.885135,4.173670,-6.817047,-0.208418,-0.691263,-0.472739,0.163982,-0.828008,0.271271,0.033229,0.812424,-0.448072,-0.371610,151.794549,35.031877,-66.822645
63074,NaN,-4.976398,4.191063,-6.842959,-0.199782,-0.680631,-0.397154,0.170703,-0.734595,0.268841,0.031314,0.810498,-0.449583,-0.374149,151.666332,35.333688,-67.227313
63075,NaN,-5.290206,4.243517,-6.883494,-0.279603,-0.523188,-0.167785,0.174608,-0.674927,0.276093,0.029531,0.808654,-0.451114,-0.376434,151.545952,35.603073,-67.618979
63076,NaN,-5.697316,4.316221,-6.822053,-0.466335,-0.275228,0.053224,0.179000,-0.649091,0.273856,0.027783,0.806855,-0.452634,-0.378596,151.431812,35.859066,-68.002281
63077,NaN,-5.910828,4.394447,-6.736620,-0.610560,-0.166621,0.148759,0.168662,-0.633602,0.276698,0.026119,0.805065,-0.454138,-0.380718,151.310804,36.106154,-68.384243
63078,NaN,-5.833179,4.436347,-6.602620,-0.672819,-0.238197,0.025614,0.158524,-0.606782,0.259875,0.024522,0.803355,-0.455547,-0.382749,151.193750,36.343459,-68.748100
63079,NaN,-5.541111,4.420449,-6.349451,-0.711402,-0.395772,-0.331285,0.140830,-0.529138,0.237553,0.023132,0.801832,-0.456817,-0.384511,151.087940,36.547706,-69.073294
63080,NaN,-5.408372,4.285113,-6.208916,-0.645653,-0.392055,-0.561055,0.101454,-0.396830,0.201096,0.022130,0.800638,-0.457847,-0.385829,150.999599,36.694989,-69.330808
63081,NaN,-5.414202,4.060018,-6.212784,-0.469164,-0.270436,-0.641932,0.062470,-0.235708,0.152029,0.021561,0.799858,-0.458586,-0.386601,150.939108,36.775206,-69.502790
63082,NaN,-5.374277,3.795246,-6.378282,-0.155429,-0.204181,-0.652808,0.041654,-0.072372,0.118182,0.021382,0.799470,-0.459132,-0.386766,150.913960,36.782674,-69.596585
63083,NaN,-5.392660,3.672923,-6.577834,0.053603,-0.178571,-0.549628,0.020481,0.100482,0.087394,0.021628,0.799483,-0.459494,-0.386296,150.923316,36.712410,-69.611480
63084,NaN,-5.334638,3.642154,-6.842100,0.251767,-0.274220,-0.410595,0.001360,0.241533,0.071108,0.022239,0.799804,-0.459739,-0.385303,150.957876,36.575784,-69.566848
63085,NaN,-5.469202,3.714418,-7.154258,0.346570,-0.290013,-0.081903,-0.019178,0.352109,0.068231,0.023185,0.800339,-0.459919,-0.383919,151.003370,36.384747,-69.482849
63086,NaN,-6.019679,3.796386,-7.306666,0.210393,0.060073,0.384786,-0.026423,0.396472,0.051044,0.024225,0.800997,-0.460010,-0.382370,151.060444,36.175964,-69.372885
63087,NaN,-6.617264,3.937420,-7.296522,-0.087173,0.463696,0.784858,-0.031181,0.345360,0.033119,0.025136,0.801594,-0.460025,-0.381042,151.109612,35.997886,-69.270232
63088,NaN,-6.916173,4.002315,-7.220260,-0.283775,0.699640,0.930406,-0.035970,0.234230,0.017147,0.025776,0.802014,-0.459980,-0.380167,151.139948,35.879739,-69.195601
63089,NaN,-6.748873,4.104268,-7.150158,-0.362822,0.550237,0.821345,-0.040186,0.133909,0.000545,0.026174,0.802280,-0.459872,-0.379711,151.152871,35.816783,-69.145458
63090,NaN,-6.419227,4.171493,-7.065600,-0.376216,0.296336,0.594097,-0.039208,0.128366,-0.028832,0.026497,0.802603,-0.459649,-0.379274,151.176602,35.764435,-69.078681
63091,NaN,-6.049463,4.293828,-6.905860,-0.468195,0.003772,0.311769,-0.033424,0.224921,-0.064215,0.026953,0.803190,-0.459281,-0.378445,151.234625,35.673691,-68.957734
63092,NaN,-5.689160,4.311103,-6.598603,-0.588322,-0.170281,-0.111218,-0.028119,0.391187,-0.091176,0.027717,0.804153,-0.458792,-0.376934,151.338538,35.506320,-68.763774
63093,NaN,-5.393153,4.246323,-6.457807,-0.571745,-0.290355,-0.410068,-0.013501,0.574365,-0.111927,0.028806,0.805504,-0.458218,-0.374660,151.491842,35.252504,-68.496854
63094,NaN,-5.214465,4.237272,-6.396694,-0.587647,-0.369094,-0.561688,0.004249,0.714657,-0.108745,0.030147,0.807107,-0.457666,-0.371769,151.679790,34.926093,-68.186566
63095,NaN,-5.281579,4.320569,-6.358108,-0.735186,-0.315493,-0.520347,0.014418,0.776003,-0.105235,0.031597,0.808803,-0.457130,-0.368608,151.879817,34.567275,-67.861348
63096,NaN,-5.264594,4.334808,-6.400981,-0.758194,-0.307321,-0.495528,0.010488,0.765119,-0.085166,0.033072,0.810423,-0.456664,-0.365484,152.066355,34.207286,-67.554354
63097,NaN,-5.096292,4.260783,-6.489988,-0.638583,-0.376020,-0.555422,-0.007878,0.728673,-0.060777,0.034586,0.811903,-0.456262,-0.362549,152.223264,33.858852,-67.277181
63098,NaN,-4.947322,4.185363,-6.630945,-0.487676,-0.442431,-0.564507,-0.035992,0.717373,-0.043336,0.036215,0.813311,-0.455877,-0.359708,152.354700,33.510545,-67.015896
63099,NaN,-4.763397,4.121720,-6.813098,-0.306282,-0.550395,-0.555270,-0.059276,0.760075,-0.050038,0.038029,0.814792,-0.455407,-0.356751,152.478757,33.142210,-66.739566
63100,NaN,-4.640542,4.085367,-6.984554,-0.172179,-0.618157,-0.506952,-0.092939,0.851857,-0.059125,0.040166,0.816441,-0.454817,-0.353485,152.600723,32.728754,-66.430435
63101,NaN,-4.424849,4.078775,-7.145359,-0.038057,-0.762491,-0.502022,-0.123945,1.004145,-0.088962,0.042730,0.818400,-0.454009,-0.349673,152.735328,32.245359,-66.059033
63102,NaN,-4.353512,4.133032,-7.222170,-0.054888,-0.797742,-0.455625,-0.153713,1.218926,-0.137008,0.045811,0.820814,-0.452892,-0.345042,152.899677,31.663946,-65.595594
63103,NaN,-4.233072,4.114139,-7.311329,-0.004341,-0.816924,-0.451484,-0.182704,1.454058,-0.179951,0.049474,0.823684,-0.451474,-0.339512,153.089499,30.972675,-65.040714
63104,NaN,-4.232392,4.100459,-7.317310,-0.061686,-0.712817,-0.444838,-0.202430,1.683066,-0.224598,0.053649,0.826989,-0.449753,-0.333066,153.307973,30.173917,-64.397219
63105,NaN,-4.330671,4.070504,-7.240588,-0.204521,-0.494563,-0.460589,-0.215325,1.829306,-0.256555,0.058158,0.830537,-0.447804,-0.326034,153.535890,29.306397,-63.701219
63106,NaN,-4.542732,3.934986,-7.302694,-0.242475,-0.148368,-0.359260,-0.230063,1.852277,-0.263254,0.062754,0.834064,-0.445757,-0.318905,153.747899,28.426337,-63.003839
63107,NaN,-4.757212,3.859392,-7.479103,-0.261628,0.144262,-0.149768,-0.223652,1.746463,-0.257867,0.067100,0.837339,-0.443738,-0.312182,153.933067,27.597360,-62.349435
63108,NaN,-4.700044,3.808569,-7.665904,-0.179713,0.203712,-0.051208,-0.219043,1.577514,-0.233832,0.071076,0.840241,-0.441852,-0.306119,154.082703,26.847538,-61.763592
63109,NaN,-4.511447,3.750331,-8.022531,0.070816,0.133240,0.124880,-0.212336,1.372217,-0.187435,0.074646,0.842679,-0.440219,-0.300877,154.188364,26.191007,-61.267790
63110,NaN,-4.064814,3.634142,-8.389574,0.490764,-0.110492,0.180345,-0.192472,1.181458,-0.129643,0.077788,0.844677,-0.438912,-0.296354,154.262825,25.617605,-60.861273
63111,NaN,-3.675243,3.486832,-8.792280,0.938245,-0.297514,0.286817,-0.152553,1.060093,-0.078297,0.080576,0.846368,-0.437914,-0.292233,154.327327,25.093855,-60.520510
63112,NaN,-3.397556,3.510788,-9.107482,1.170448,-0.489889,0.444240,-0.089197,0.993787,-0.034779,0.083004,0.847873,-0.437208,-0.288221,154.407783,24.592983,-60.224374
63113,NaN,-3.498416,3.637614,-9.157610,1.010215,-0.415872,0.586289,-0.061890,0.992171,-0.023701,0.085335,0.849339,-0.436577,-0.284150,154.496735,24.089888,-59.937299
63114,NaN,-3.581867,3.724839,-8.960766,0.742263,-0.305508,0.500139,-0.039317,1.058144,-0.035622,0.087687,0.850915,-0.435889,-0.279742,154.606479,23.555066,-59.627504
63115,NaN,-3.586953,3.789521,-8.707670,0.490279,-0.237359,0.324007,-0.040104,1.151627,-0.055423,0.090223,0.852636,-0.435061,-0.274943,154.725217,22.976093,-59.284349
63116,NaN,-3.571322,3.659036,-8.481003,0.394791,-0.069752,0.082189,-0.043304,1.217212,-0.069940,0.092885,0.854450,-0.434122,-0.269863,154.848661,22.366031,-58.918247
63117,NaN,-3.633881,3.589172,-8.222739,0.201959,0.123475,-0.135722,-0.045247,1.254484,-0.094907,0.095606,0.856332,-0.433040,-0.264633,154.974100,21.741887,-58.531683
63118,NaN,-3.899031,3.555765,-7.962084,-0.113538,0.449519,-0.271993,-0.063278,1.195728,-0.069601,0.098300,0.858043,-0.432054,-0.259669,155.074556,21.141507,-58.177241
63119,NaN,-4.023366,3.604037,-7.860420,-0.326760,0.596767,-0.299583,-0.062876,1.078829,-0.052472,0.100765,0.859536,-0.431185,-0.255192,155.155977,20.597207,-57.865089
63120,NaN,-4.060239,3.569279,-7.838852,-0.389168,0.711421,-0.325074,-0.062930,0.911776,-0.029453,0.102890,0.860747,-0.430489,-0.251411,155.215806,20.133918,-57.610089
63121,NaN,-3.817837,3.628692,-7.822262,-0.362797,0.537375,-0.404694,-0.062738,0.743890,0.000035,0.104695,0.861666,-0.429999,-0.248337,155.252457,19.750792,-57.415581
63122,NaN,-3.604209,3.578134,-7.970559,-0.179332,0.440302,-0.373572,-0.078580,0.635576,0.017304,0.106349,0.862397,-0.429615,-0.245748,155.267199,19.419710,-57.258596
63123,NaN,-3.410027,3.513163,-8.102173,0.001204,0.364997,-0.353176,-0.066944,0.580035,0.034137,0.107860,0.863020,-0.429342,-0.243366,155.279002,19.113654,-57.125573
63124,NaN,-3.304554,3.482458,-8.408932,0.204265,0.334288,-0.137769,-0.065308,0.554041,0.038319,0.109305,0.863598,-0.429102,-0.241085,155.289037,18.819912,-57.001547
63125,NaN,-3.099353,3.440310,-8.757000,0.486992,0.232904,0.078477,-0.054703,0.560207,0.049711,0.110736,0.864157,-0.428915,-0.238751,155.302060,18.520438,-56.882680
63126,NaN,-3.017349,3.503156,-8.975801,0.565218,0.170969,0.266624,-0.046900,0.590279,0.043434,0.112185,0.864764,-0.428692,-0.236266,155.323212,18.206547,-56.752917
63127,NaN,-2.995658,3.471873,-9.089856,0.620996,0.217341,0.347047,-0.029261,0.600755,0.039406,0.113578,0.865392,-0.428461,-0.233704,155.354386,17.888322,-56.618849
63128,NaN,-2.886790,3.576384,-9.052125,0.550801,0.112362,0.323819,-0.011989,0.593811,0.044393,0.114882,0.866006,-0.428273,-0.231124,155.394036,17.572232,-56.489546
63129,NaN,-2.907473,3.665934,-8.832661,0.332396,0.117330,0.176500,-0.005802,0.590154,0.034935,0.116144,0.866630,-0.428049,-0.228555,155.437009,17.260398,-56.356577
63130,NaN,-3.167759,3.676996,-8.569428,0.022052,0.356257,0.029186,-0.018028,0.546442,0.034541,0.117359,0.867192,-0.427832,-0.226196,155.469723,16.971170,-56.234591
63131,NaN,-3.328193,3.639537,-8.383906,-0.158295,0.539224,-0.102022,-0.016343,0.441438,0.037976,0.118350,0.867623,-0.427690,-0.224289,155.494042,16.736009,-56.140992
63132,NaN,-3.295883,3.647165,-8.276495,-0.221709,0.533751,-0.203790,-0.011113,0.318241,0.038673,0.119051,0.867915,-0.427629,-0.222900,155.512751,16.564678,-56.078404
63133,NaN,-3.137396,3.723890,-8.256692,-0.215215,0.379901,-0.237046,-0.014735,0.218347,0.048729,0.119568,0.868069,-0.427665,-0.221951,155.520023,16.443325,-56.046220
63134,NaN,-2.984199,3.658042,-8.327097,-0.064026,0.313471,-0.245824,-0.019032,0.157204,0.054785,0.119976,0.868140,-0.427760,-0.221267,155.520169,16.352125,-56.032379
63135,NaN,-2.936986,3.686668,-8.470884,0.004026,0.272867,-0.122548,-0.017005,0.120578,0.060450,0.120307,0.868159,-0.427903,-0.220740,155.517461,16.279027,-56.030787
63136,NaN,-2.906791,3.720877,-8.514675,0.011419,0.239084,-0.079407,-0.012556,0.108736,0.063210,0.120593,0.868161,-0.428070,-0.220248,155.516647,16.211100,-56.033514
63137,NaN,-2.903410,3.774641,-8.569375,-0.003177,0.214418,-0.011366,-0.012772,0.096844,0.067433,0.120861,0.868141,-0.428262,-0.219810,155.513698,16.148751,-56.041575
63138,NaN,-2.820898,3.785825,-8.620125,0.053514,0.151594,0.014349,-0.022796,0.070722,0.070368,0.121118,0.868079,-0.428472,-0.219501,155.503336,16.098943,-56.057574
63139,NaN,-2.888178,3.624052,-8.634450,0.134983,0.309990,-0.019081,-0.036048,0.019500,0.080181,0.121336,0.867932,-0.428739,-0.219441,155.479878,16.073904,-56.091650
63140,NaN,-2.976839,3.449039,-8.636086,0.213258,0.490146,-0.063139,-0.059538,-0.055597,0.090122,0.121503,0.867667,-0.429071,-0.219746,155.436857,16.085219,-56.149601
63141,NaN,-2.856237,3.238858,-8.988964,0.605130,0.528251,0.127359,-0.085405,-0.126464,0.076415,0.121617,0.867337,-0.429357,-0.220428,155.375691,16.137108,-56.217823
63142,NaN,-2.771542,3.134641,-9.405261,0.939760,0.528470,0.424690,-0.079548,-0.154463,0.067096,0.121633,0.867000,-0.429626,-0.221219,155.317728,16.205300,-56.287941
63143,NaN,-2.820322,3.174634,-9.580008,0.986526,0.540426,0.605746,-0.058562,-0.160808,0.058884,0.121536,0.866685,-0.429886,-0.222001,155.272171,16.279135,-56.355352
63144,NaN,-2.822542,3.161007,-9.583020,1.009794,0.540924,0.602718,-0.019896,-0.180714,0.060678,0.121230,0.866367,-0.430209,-0.222781,155.247300,16.362425,-56.428710
63145,NaN,-2.690434,3.109793,-9.593827,1.132825,0.450713,0.553812,0.043519,-0.249340,0.079993,0.120522,0.865969,-0.430726,-0.223714,155.250692,16.477191,-56.529806
63146,NaN,-3.082560,3.155178,-9.333109,0.778228,0.707924,0.456556,0.120569,-0.355842,0.092636,0.119267,0.865468,-0.431448,-0.224929,155.288557,16.643970,-56.664384
63147,NaN,-3.586841,3.444938,-8.808341,0.070586,0.895161,0.262700,0.159114,-0.528794,0.100610,0.117477,0.864773,-0.432348,-0.226807,155.334367,16.899379,-56.846564
63148,NaN,-3.950330,3.566816,-8.176496,-0.488368,1.062371,-0.126877,0.150046,-0.735758,0.108077,0.115288,0.863813,-0.433388,-0.229590,155.357543,17.260473,-57.084681
63149,NaN,-3.893814,3.705395,-7.717873,-0.743672,0.880043,-0.478377,0.133739,-0.907691,0.129328,0.112816,0.862584,-0.434591,-0.233137,155.353335,17.706623,-57.377943
63150,NaN,-3.627630,3.754995,-7.565510,-0.671593,0.579142,-0.663387,0.123086,-0.999570,0.133251,0.110196,0.861213,-0.435840,-0.237093,155.332566,18.199060,-57.697293
63151,NaN,-3.253461,3.923223,-7.585830,-0.541590,0.117106,-0.690518,0.112067,-1.004621,0.142816,0.107617,0.859786,-0.437108,-0.241088,155.300528,18.692416,-58.024343
63152,NaN,-2.861209,4.103679,-7.996115,-0.218137,-0.376488,-0.390651,0.111093,-0.944601,0.153081,0.105187,0.858387,-0.438377,-0.244811,155.267982,19.151181,-58.343022
63153,NaN,-2.704405,4.220289,-8.452676,0.049576,-0.645216,-0.006909,0.124670,-0.800019,0.144727,0.102999,0.857174,-0.439541,-0.247888,155.254361,19.537320,-58.621412
63154,NaN,-2.595511,4.295817,-8.782493,0.247523,-0.841652,0.264666,0.137445,-0.613885,0.134236,0.101155,0.856209,-0.440575,-0.250136,155.264221,19.828378,-58.847151
63155,NaN,-2.718420,4.402669,-8.736210,0.103894,-0.843334,0.305246,0.166724,-0.424652,0.126594,0.099590,0.855505,-0.441512,-0.251515,155.307717,20.023483,-59.020696
63156,NaN,-2.910848,4.425942,-8.504258,-0.120657,-0.718298,0.180002,0.165321,-0.289191,0.123778,0.098328,0.854974,-0.442367,-0.252314,155.362380,20.148260,-59.158140
63157,NaN,-3.049433,4.357077,-8.282046,-0.253656,-0.574985,0.009760,0.171925,-0.243938,0.124620,0.097137,0.854498,-0.443210,-0.252908,155.424274,20.249890,-59.284572
63158,NaN,-3.020505,4.370918,-8.096444,-0.347022,-0.614751,-0.154405,0.174279,-0.248098,0.131117,0.095936,0.854002,-0.444085,-0.253507,155.485819,20.351773,-59.415577
63159,NaN,-3.055135,4.414974,-7.857282,-0.518855,-0.616615,-0.330426,0.161123,-0.269555,0.140988,0.094756,0.853447,-0.444994,-0.254225,155.535572,20.463053,-59.557575
63160,NaN,-3.055281,4.376438,-7.774382,-0.531804,-0.607060,-0.417071,0.138866,-0.302878,0.152375,0.093611,0.852812,-0.445938,-0.255125,155.567327,20.588673,-59.714299
63161,NaN,-3.103182,4.326733,-7.715077,-0.543766,-0.553938,-0.470834,0.117081,-0.324389,0.159162,0.092520,0.852120,-0.446891,-0.256164,155.582626,20.724356,-59.880441
63162,NaN,-3.084443,4.299234,-7.741050,-0.493257,-0.573181,-0.466609,0.088540,-0.329452,0.159313,0.091539,0.851406,-0.447810,-0.257285,155.581024,20.862275,-60.047973
63163,NaN,-2.986774,4.246469,-7.992348,-0.269492,-0.657283,-0.308674,0.065840,-0.290998,0.144787,0.090723,0.850759,-0.448618,-0.258302,155.571899,20.983906,-60.197939
63164,NaN,-2.850258,4.226301,-8.210839,-0.070873,-0.786834,-0.180485,0.061115,-0.193354,0.114657,0.090105,0.850304,-0.449247,-0.258923,155.575204,21.061384,-60.306247
63165,NaN,-2.863336,4.235742,-8.299813,-0.035435,-0.797052,-0.097208,0.055738,-0.082284,0.084860,0.089724,0.850055,-0.449691,-0.259102,155.590880,21.088242,-60.369883
63166,NaN,-3.145791,4.254600,-8.285788,-0.188836,-0.580962,-0.000514,0.046128,-0.016844,0.061780,0.089498,0.849939,-0.449996,-0.259030,155.612230,21.086184,-60.403852
63167,NaN,-3.430203,4.282628,-8.172205,-0.402498,-0.357757,0.015951,0.030779,0.001682,0.048863,0.089366,0.849868,-0.450218,-0.258924,155.628427,21.077682,-60.426070
63168,NaN,-3.655453,4.217552,-8.047492,-0.526730,-0.127066,-0.034210,0.010711,-0.001002,0.033600,0.089290,0.849820,-0.450350,-0.258877,155.636603,21.074034,-60.440262
63169,NaN,-3.804284,4.138147,-7.987963,-0.569220,0.043990,-0.061870,-0.007347,-0.020890,0.021825,0.089235,0.849764,-0.450417,-0.258965,155.634248,21.083712,-60.453099
63170,NaN,-3.913747,4.011266,-8.027910,-0.505201,0.200760,-0.037235,-0.014163,-0.055989,0.022663,0.089126,0.849658,-0.450495,-0.259212,155.625353,21.111347,-60.475109
63171,NaN,-3.885819,3.881493,-8.089296,-0.362253,0.243478,-0.044793,-0.012372,-0.094448,0.022160,0.088927,0.849503,-0.450590,-0.259624,155.613242,21.159390,-60.506814
63172,NaN,-3.851483,3.804849,-8.123490,-0.266611,0.249754,-0.057258,-0.010880,-0.137520,0.031628,0.088633,0.849273,-0.450747,-0.260207,155.596889,21.227438,-60.554562
63173,NaN,-3.735483,3.759140,-8.066484,-0.201692,0.178042,-0.164851,-0.013192,-0.148369,0.037005,0.088335,0.849013,-0.450927,-0.260843,155.576214,21.300139,-60.608350
63174,NaN,-3.619001,3.656043,-8.076373,-0.060553,0.133740,-0.238239,-0.013933,-0.137078,0.040562,0.088066,0.848761,-0.451116,-0.261427,155.556190,21.365809,-60.661084
63175,NaN,-3.575239,3.648187,-8.116292,-0.006897,0.092742,-0.223258,-0.015404,-0.093161,0.036153,0.087901,0.848573,-0.451265,-0.261834,155.539403,21.409915,-60.700435
63176,NaN,-3.554597,3.560578,-8.331066,0.182104,0.104570,-0.082557,-0.017607,-0.028551,0.021947,0.087868,0.848503,-0.451323,-0.261973,155.531085,21.423376,-60.715148
63177,NaN,-3.523865,3.606588,-8.386604,0.192477,0.048850,-0.028987,-0.016974,0.039501,0.006064,0.087969,0.848556,-0.451284,-0.261835,155.531902,21.405434,-60.703843
63178,NaN,-3.419647,3.668186,-8.341718,0.168827,-0.063077,-0.081225,-0.020249,0.096753,-0.009035,0.088189,0.848718,-0.451152,-0.261462,155.540048,21.360899,-60.669270
63179,NaN,-3.398319,3.750348,-8.190668,0.034542,-0.106260,-0.185214,-0.041403,0.168176,-0.024934,0.088643,0.848998,-0.450892,-0.260846,155.545103,21.283181,-60.607844
63180,NaN,-3.371227,3.745471,-8.045775,-0.033558,-0.100182,-0.319689,-0.063746,0.238667,-0.056921,0.089306,0.849433,-0.450437,-0.259989,155.551002,21.175978,-60.510416
63181,NaN,-3.522058,3.692859,-7.942517,-0.129337,0.078087,-0.373259,-0.082440,0.301662,-0.075936,0.090169,0.849981,-0.449846,-0.258920,155.554779,21.040705,-60.386647
63182,NaN,-3.698109,3.691005,-7.912080,-0.237438,0.243407,-0.337200,-0.091763,0.323571,-0.102972,0.091081,0.850614,-0.449118,-0.257786,155.561066,20.900117,-60.242128
63183,NaN,-3.761184,3.778557,-7.878275,-0.360040,0.265338,-0.310522,-0.096059,0.330777,-0.117729,0.092012,0.851282,-0.448316,-0.256641,155.567298,20.759580,-60.087911
63184,NaN,-3.539235,3.879510,-7.859050,-0.351071,0.046507,-0.367266,-0.101348,0.313077,-0.115066,0.092926,0.851918,-0.447527,-0.255577,155.568782,20.627308,-59.939598
63185,NaN,-3.353131,3.876451,-7.908487,-0.245695,-0.088600,-0.392163,-0.104018,0.275367,-0.093401,0.093798,0.852453,-0.446842,-0.254674,155.559977,20.509963,-59.813237
63186,NaN,-3.286398,3.796066,-8.052155,-0.089776,-0.089504,-0.324187,-0.101578,0.231949,-0.075370,0.094581,0.852893,-0.446257,-0.253936,155.545795,20.410631,-59.707745
63187,NaN,-3.260481,3.797678,-8.096194,-0.061359,-0.099787,-0.294929,-0.100880,0.209999,-0.073156,0.095319,0.853297,-0.445691,-0.253295,155.528628,20.322632,-59.609300
63188,NaN,-3.242085,3.837739,-8.101255,-0.083304,-0.124726,-0.281309,-0.105486,0.206232,-0.078416,0.096057,0.853707,-0.445099,-0.252676,155.510206,20.237491,-59.508686
63189,NaN,-3.108514,3.881216,-8.104496,-0.053385,-0.243725,-0.307570,-0.117715,0.231420,-0.079151,0.096907,0.854141,-0.444474,-0.251983,155.486096,20.139801,-59.401537
63190,NaN,-2.895770,3.908378,-8.232343,0.089080,-0.420661,-0.260335,-0.130895,0.303768,-0.092144,0.097953,0.854688,-0.443743,-0.251009,155.463844,20.007157,-59.268670
63191,NaN,-2.664077,3.901788,-8.340049,0.250860,-0.584690,-0.248547,-0.139605,0.421154,-0.104689,0.099285,0.855401,-0.442886,-0.249565,155.447826,19.816685,-59.099446
63192,NaN,-2.531713,3.867415,-8.581059,0.447002,-0.649295,-0.097778,-0.139900,0.559073,-0.120451,0.100899,0.856317,-0.441892,-0.247531,155.446513,19.557787,-58.886608
63193,NaN,-2.585829,3.793966,-8.731703,0.526004,-0.525459,0.024501,-0.135097,0.681816,-0.132468,0.102753,0.857404,-0.440784,-0.244970,155.458422,19.237971,-58.636768
63194,NaN,-2.734437,3.756506,-8.773250,0.469949,-0.334841,0.098170,-0.128267,0.747273,-0.134569,0.104713,0.858568,-0.439637,-0.242106,155.479292,18.884259,-58.369698
63195,NaN,-2.863097,3.781524,-8.552710,0.242744,-0.187539,-0.037633,-0.108390,0.734846,-0.119068,0.106582,0.859680,-0.438580,-0.239244,155.505201,18.533347,-58.115172
63196,NaN,-3.014708,3.803316,-8.412829,0.048368,-0.027747,-0.100530,-0.104385,0.656724,-0.094921,0.108285,0.860639,-0.437669,-0.236689,155.522283,18.217236,-57.893917
63197,NaN,-3.316815,3.748017,-8.414787,-0.091536,0.287800,-0.026668,-0.098853,0.515474,-0.074064,0.109685,0.861378,-0.436925,-0.234720,155.526054,17.969880,-57.719964
63198,NaN,-3.331123,3.696002,-8.301861,-0.137562,0.361233,-0.141688,-0.091157,0.329725,-0.040589,0.110679,0.861828,-0.436435,-0.233511,155.514529,17.811361,-57.610710
63199,NaN,-3.154862,3.701251,-8.299915,-0.061195,0.235303,-0.195938,-0.087824,0.178456,-0.013631,0.111364,0.862041,-0.436148,-0.232935,155.487877,17.725485,-57.554138
63200,NaN,-2.976279,3.794088,-8.267626,-0.053138,0.049168,-0.241808,-0.087720,0.098517,0.012918,0.111901,0.862104,-0.436020,-0.232685,155.451532,17.674845,-57.531862
63201,NaN,-2.866766,3.833685,-8.459542,0.071789,-0.053901,-0.093054,-0.090738,0.088015,0.026845,0.112449,0.862121,-0.435953,-0.232483,155.409564,17.626546,-57.519957
63202,NaN,-2.838552,3.767182,-8.536070,0.171344,-0.025919,-0.061611,-0.095040,0.121498,0.024911,0.113081,0.862179,-0.435855,-0.232142,155.368762,17.561104,-57.498421
63203,NaN,-2.810082,3.563729,-8.587834,0.353450,0.086272,-0.106235,-0.113093,0.153446,0.017705,0.113857,0.862279,-0.435685,-0.231712,155.320441,17.480918,-57.465052
63204,NaN,-2.707890,3.366500,-8.751028,0.623917,0.138514,-0.074208,-0.137589,0.193384,0.017934,0.114821,0.862410,-0.435466,-0.231157,155.261776,17.379766,-57.421566
63205,NaN,-2.753928,3.209366,-8.864405,0.765266,0.290028,-0.025347,-0.155169,0.211551,0.013857,0.115900,0.862559,-0.435197,-0.230569,155.194343,17.270311,-57.371331
63206,NaN,-3.073523,3.138795,-8.988734,0.711203,0.610652,0.148094,-0.150904,0.182563,0.021585,0.116901,0.862660,-0.434984,-0.230088,155.126560,17.174001,-57.332368
63207,NaN,-3.444924,3.142127,-9.135414,0.591562,0.925205,0.384875,-0.122027,0.106529,0.023601,0.117619,0.862685,-0.434855,-0.229873,155.068809,17.116882,-57.313705
63208,NaN,-3.487088,3.336994,-8.999951,0.370758,0.852367,0.357388,-0.087405,-0.000906,0.029043,0.117956,0.862595,-0.434854,-0.230040,155.022542,17.114150,-57.325021
63209,NaN,-3.358080,3.487176,-8.931680,0.306480,0.660437,0.320520,-0.060574,-0.079048,0.035622,0.118017,0.862416,-0.434957,-0.230485,154.984414,17.150602,-57.359784
63210,NaN,-3.295175,3.604589,-8.940858,0.270750,0.535344,0.357380,-0.019893,-0.126626,0.038592,0.117800,0.862200,-0.435148,-0.231042,154.965862,17.210812,-57.408183
63211,NaN,-3.219398,3.737554,-8.840879,0.176219,0.385117,0.302429,0.017695,-0.184782,0.055389,0.117315,0.861901,-0.435489,-0.231761,154.961447,17.297395,-57.480570
63212,NaN,-3.170738,3.799161,-8.817950,0.156650,0.294836,0.293348,0.039439,-0.233839,0.072514,0.116649,0.861520,-0.435957,-0.232631,154.963110,17.405026,-57.574714
63213,NaN,-3.024470,3.865183,-8.746700,0.159930,0.119764,0.214868,0.067668,-0.269987,0.078217,0.115789,0.861100,-0.436502,-0.233594,154.976878,17.530348,-57.681245
63214,NaN,-2.819280,4.047026,-8.591930,0.068298,-0.171526,0.092559,0.076267,-0.244210,0.085970,0.114956,0.860696,-0.437076,-0.234419,154.996242,17.640142,-57.785427
63215,NaN,-2.772458,4.164265,-8.384893,-0.089255,-0.292360,-0.053558,0.077324,-0.172390,0.087395,0.114278,0.860372,-0.437614,-0.234934,155.021187,17.712611,-57.872196
63216,NaN,-2.874941,4.178818,-8.223115,-0.231733,-0.226442,-0.156474,0.059665,-0.095710,0.074083,0.113828,0.860157,-0.438031,-0.235163,155.044247,17.748226,-57.932181
63217,NaN,-2.913959,4.125591,-8.290993,-0.181673,-0.169782,-0.107514,0.064163,-0.046176,0.063257,0.113454,0.860026,-0.438378,-0.235178,155.075277,17.761004,-57.973744
63218,NaN,-2.905800,4.085152,-8.331074,-0.132338,-0.156441,-0.091734,0.051497,-0.027629,0.059947,0.113171,0.859916,-0.438685,-0.235140,155.101249,17.764708,-58.008738
63219,NaN,-2.865988,3.878972,-8.554288,0.143690,-0.071908,0.006189,0.007241,-0.042594,0.058006,0.113044,0.859768,-0.438940,-0.235268,155.100769,17.776908,-58.046529
63220,NaN,-2.980611,3.529385,-9.035955,0.577619,0.218702,0.316854,-0.033136,-0.073512,0.055691,0.113020,0.859566,-0.439156,-0.235615,155.075388,17.805482,-58.090835
63221,NaN,-3.202760,3.265870,-9.496132,0.891416,0.542832,0.675915,-0.033767,-0.131554,0.056330,0.112871,0.859294,-0.439406,-0.236215,155.044794,17.864254,-58.150297
63222,NaN,-3.294079,3.213395,-9.406202,0.849177,0.638003,0.604861,-0.000873,-0.220654,0.082909,0.112417,0.858875,-0.439859,-0.237108,155.021718,17.962633,-58.246918
63223,NaN,-3.658645,3.378601,-9.073548,0.400330,0.822303,0.497180,0.007536,-0.357212,0.110629,0.111658,0.858237,-0.440516,-0.238554,154.987750,18.125394,-58.393585
63224,NaN,-3.883373,3.357487,-8.551574,0.065644,0.998412,0.111092,0.018682,-0.539366,0.142921,0.110488,0.857311,-0.441425,-0.240737,154.939486,18.374562,-58.604692
63225,NaN,-3.661316,3.581352,-7.798317,-0.331762,0.669793,-0.512895,0.018939,-0.661362,0.150783,0.109054,0.856213,-0.442430,-0.243437,154.879019,18.685268,-58.851950
63226,NaN,-3.718208,3.784052,-7.630963,-0.551204,0.564406,-0.552391,0.023017,-0.691741,0.137023,0.107520,0.855101,-0.443393,-0.246260,154.819109,19.014498,-59.100301
63227,NaN,-3.832491,3.980710,-7.759173,-0.641515,0.497294,-0.321655,0.050665,-0.720769,0.136519,0.105799,0.853957,-0.444398,-0.249147,154.771117,19.359144,-59.356710
63228,NaN,-3.726268,4.076537,-8.226148,-0.378113,0.290702,0.084027,0.082804,-0.741283,0.131923,0.103890,0.852804,-0.445428,-0.252046,154.738752,19.714908,-59.616716
63229,NaN,-3.582613,4.105671,-8.767817,-0.013230,0.080618,0.510068,0.130207,-0.700363,0.109957,0.101838,0.851763,-0.446395,-0.254676,154.739624,20.055341,-59.854669
63230,NaN,-3.571687,4.162301,-8.987715,0.093785,-0.025395,0.715894,0.174616,-0.615406,0.079385,0.099750,0.850912,-0.447242,-0.256854,154.777974,20.358721,-60.053964
63231,NaN,-3.550209,4.188114,-8.681821,-0.057219,-0.088888,0.458969,0.198153,-0.534237,0.053969,0.097706,0.850225,-0.447964,-0.258649,154.841233,20.626948,-60.218160
63232,NaN,-3.659378,4.127818,-8.364918,-0.221101,0.011017,0.204929,0.218164,-0.454022,0.017956,0.095712,0.849726,-0.448518,-0.260069,154.929725,20.861955,-60.341393
63233,NaN,-3.647872,4.161856,-8.235139,-0.303571,-0.049772,0.104509,0.232768,-0.381602,-0.020358,0.093766,0.849409,-0.448890,-0.261170,155.040609,21.069412,-60.424302
63234,NaN,-3.469891,4.193011,-8.053036,-0.339529,-0.236299,-0.101784,0.225565,-0.325483,-0.053304,0.091936,0.849232,-0.449086,-0.262059,155.159058,21.255237,-60.473973
63235,NaN,-3.238073,4.119395,-7.792832,-0.319401,-0.394181,-0.435839,0.193857,-0.263668,-0.065221,0.090361,0.849145,-0.449158,-0.262765,155.267509,21.412432,-60.500755
63236,NaN,-3.041966,4.055856,-7.530332,-0.324650,-0.521303,-0.755523,0.151329,-0.205198,-0.061054,0.089105,0.849104,-0.449165,-0.263312,155.356316,21.537664,-60.514525
63237,NaN,-2.998573,3.949428,-7.521229,-0.235506,-0.514209,-0.821669,0.105562,-0.132479,-0.067225,0.088197,0.849151,-0.449052,-0.263659,155.426945,21.627030,-60.506068
63238,NaN,-2.909794,4.015554,-7.505933,-0.253697,-0.636853,-0.842701,0.072330,-0.038249,-0.076735,0.087631,0.849329,-0.448814,-0.263681,155.489583,21.669012,-60.467971
63239,NaN,-2.975923,3.955457,-7.649783,-0.171115,-0.568047,-0.720440,0.047857,0.053798,-0.080253,0.087369,0.849624,-0.448487,-0.263372,155.547419,21.664250,-60.404419
63240,NaN,-3.130336,3.999991,-7.741591,-0.234794,-0.478479,-0.568928,0.037875,0.131820,-0.092110,0.087311,0.850045,-0.448063,-0.262756,155.609515,21.621076,-60.314256
63241,NaN,-3.468365,4.108046,-7.799920,-0.448355,-0.270614,-0.353825,0.006900,0.177113,-0.100798,0.087474,0.850529,-0.447541,-0.262023,155.659486,21.556626,-60.207887
63242,NaN,-3.984063,3.909088,-8.106268,-0.396067,0.240079,0.018426,0.005477,0.178451,-0.119736,0.087621,0.851057,-0.446936,-0.261292,155.712819,21.495464,-60.090553
63243,NaN,-4.057109,3.896472,-8.365353,-0.297222,0.285820,0.259637,0.026341,0.107173,-0.119442,0.087521,0.851498,-0.446389,-0.260822,155.770956,21.471784,-59.991638
63244,NaN,-3.569994,4.019820,-8.583079,-0.054597,-0.201135,0.313003,0.054221,0.041904,-0.100892,0.087180,0.851825,-0.445987,-0.260555,155.835566,21.477336,-59.919521
63245,NaN,-3.124744,4.127569,-8.575443,0.062383,-0.628810,0.184300,0.089684,0.044363,-0.086224,0.086713,0.852137,-0.445692,-0.260197,155.917321,21.478527,-59.855150
63246,NaN,-3.015704,4.214265,-8.476661,-0.012606,-0.765638,0.092963,0.116384,0.061303,-0.073260,0.086186,0.852454,-0.445479,-0.259696,156.013644,21.467289,-59.793691
63247,NaN,-2.980730,4.169649,-8.384589,-0.026703,-0.765842,-0.015503,0.133622,0.060521,-0.056327,0.085607,0.852738,-0.445361,-0.259157,156.115815,21.452760,-59.742123
63248,NaN,-2.564851,4.123593,-8.357715,0.171644,-1.076103,-0.208189,0.145073,0.068202,-0.029631,0.085030,0.852978,-0.445368,-0.258544,156.220170,21.427605,-59.703570
63249,NaN,-2.577570,4.128312,-7.933862,-0.073156,-1.034817,-0.562997,0.132433,0.110522,-0.007565,0.084632,0.853217,-0.445434,-0.257772,156.316006,21.375287,-59.667177
63250,NaN,-3.692335,4.130280,-7.380984,-0.899413,-0.092421,-0.628245,0.093165,0.124420,-0.035193,0.084395,0.853519,-0.445326,-0.257037,156.396712,21.321785,-59.611734
63251,NaN,-4.156841,4.198167,-6.959718,-1.394810,0.275799,-0.794925,0.036969,0.072942,-0.073780,0.084236,0.853815,-0.445003,-0.256666,156.447811,21.304242,-59.547468
63252,NaN,-4.097410,4.102335,-7.142626,-1.210256,0.265415,-0.696775,0.000570,0.037461,-0.103142,0.084113,0.854116,-0.444522,-0.256537,156.481544,21.311868,-59.475192
63253,NaN,-3.848485,4.041565,-7.482551,-0.877312,0.068018,-0.519715,-0.018671,0.025530,-0.109402,0.084041,0.854406,-0.443994,-0.256509,156.503658,21.327461,-59.402543
63254,NaN,-3.449182,4.006633,-7.946571,-0.426511,-0.274669,-0.281654,-0.025241,0.032500,-0.102986,0.084017,0.854689,-0.443483,-0.256457,156.522163,21.337602,-59.331553
63255,NaN,-3.283732,4.013814,-8.021981,-0.315828,-0.420539,-0.274911,-0.019362,0.040147,-0.085856,0.084011,0.854945,-0.443048,-0.256359,156.540271,21.340137,-59.268621
63256,NaN,-3.355212,4.141783,-8.054343,-0.426044,-0.443561,-0.173912,-0.026644,0.031532,-0.059826,0.084046,0.855130,-0.442720,-0.256297,156.549036,21.340906,-59.222213
63257,NaN,-3.426992,4.091845,-8.154551,-0.372621,-0.365749,-0.080701,-0.046013,0.015755,-0.051271,0.084146,0.855266,-0.442409,-0.256348,156.542507,21.348328,-59.184792
63258,NaN,-3.209524,3.765695,-8.471498,0.128946,-0.372300,-0.010006,-0.057663,0.004119,-0.025709,0.084297,0.855328,-0.442198,-0.256457,156.524055,21.355729,-59.164348
63259,NaN,-3.330445,3.582106,-8.598059,0.270294,-0.177737,0.073936,-0.026674,-0.025571,-0.010238,0.084275,0.855328,-0.442105,-0.256624,156.516446,21.375470,-59.160222
63260,NaN,-3.238993,3.645102,-8.547238,0.247327,-0.289182,0.020334,-0.005506,-0.112498,0.025004,0.084010,0.855149,-0.442226,-0.257095,156.507011,21.432578,-59.197000
63261,NaN,-3.376599,3.716788,-8.274844,-0.001020,-0.208200,-0.135621,-0.014593,-0.172910,0.036120,0.083671,0.854862,-0.442409,-0.257845,156.483527,21.519081,-59.255226
63262,NaN,-3.367906,3.677255,-8.096658,-0.048846,-0.187615,-0.305676,-0.028521,-0.202164,0.042503,0.083328,0.854519,-0.442613,-0.258743,156.449032,21.619260,-59.324037
63263,NaN,-3.526590,3.617855,-8.001334,-0.117481,-0.028905,-0.350531,-0.031109,-0.211653,0.040055,0.082979,0.854165,-0.442806,-0.259693,156.411466,21.725115,-59.394230
63264,NaN,-3.717642,3.517613,-8.039720,-0.101957,0.166923,-0.284138,-0.033762,-0.234300,0.028321,0.082569,0.853807,-0.442955,-0.260745,156.373665,21.845337,-59.463205
63265,NaN,-3.809044,3.512712,-8.031880,-0.129431,0.228766,-0.258111,-0.043555,-0.247240,0.007321,0.082151,0.853471,-0.443006,-0.261887,156.332212,21.977322,-59.523973
63266,NaN,-3.601064,3.569272,-8.117052,-0.011481,0.006602,-0.242228,-0.064120,-0.207726,-0.017367,0.081869,0.853234,-0.442908,-0.262911,156.288800,22.094027,-59.560795
63267,NaN,-3.390542,3.504973,-8.207221,0.194121,-0.141826,-0.269036,-0.082254,-0.118695,-0.024493,0.081859,0.853120,-0.442718,-0.263603,156.243690,22.165863,-59.571861
63268,NaN,-3.058686,3.559793,-8.168709,0.299842,-0.438220,-0.406650,-0.098388,-0.000011,-0.025913,0.082172,0.853160,-0.442453,-0.263820,156.201858,22.175579,-59.552259
63269,NaN,-2.959433,3.495769,-8.282835,0.454993,-0.482477,-0.371067,-0.112496,0.145321,-0.023588,0.082877,0.853379,-0.442119,-0.263452,156.164060,22.108736,-59.497992
63270,NaN,-3.241064,3.481318,-8.384806,0.382550,-0.241675,-0.183344,-0.112784,0.260347,-0.036550,0.083813,0.853778,-0.441681,-0.262593,156.140611,21.984501,-59.407336
63271,NaN,-3.500115,3.465905,-8.472173,0.308461,-0.011450,-0.017501,-0.109818,0.299892,-0.036419,0.084831,0.854227,-0.441231,-0.261563,156.121298,21.839599,-59.307198
63272,NaN,-3.816810,3.497768,-8.478153,0.129710,0.243859,0.117326,-0.109462,0.260162,-0.033495,0.085756,0.854618,-0.440809,-0.260696,156.098673,21.714814,-59.218384
63273,NaN,-4.018089,3.510091,-8.553685,0.058162,0.408992,0.260079,-0.099423,0.186626,-0.027377,0.086490,0.854900,-0.440457,-0.260122,156.072628,21.627211,-59.151676
63274,NaN,-4.284930,3.527381,-8.641719,-0.037291,0.615093,0.439269,-0.075680,0.058562,-0.014898,0.086851,0.855000,-0.440244,-0.260033,156.046701,21.603746,-59.123735
63275,NaN,-3.985965,3.595641,-8.729004,0.107570,0.329917,0.428975,-0.056150,-0.078632,0.014681,0.086871,0.854863,-0.440242,-0.260480,156.012279,21.645366,-59.147049
63276,NaN,-3.927952,3.412031,-8.819150,0.322758,0.379130,0.414738,-0.040716,-0.160456,0.017363,0.086642,0.854621,-0.440308,-0.261236,155.979416,21.729045,-59.192177
63277,NaN,-3.936760,3.386660,-8.690035,0.281717,0.399247,0.298963,-0.011730,-0.202638,0.005878,0.086186,0.854360,-0.440380,-0.262118,155.960712,21.837622,-59.241742
63278,NaN,-3.808096,3.399091,-8.485400,0.239339,0.290141,0.082560,0.003718,-0.225766,0.006607,0.085609,0.854074,-0.440485,-0.263060,155.949239,21.957955,-59.297367
63279,NaN,-3.673970,3.690111,-7.985402,-0.153625,0.035899,-0.280809,0.007428,-0.214106,0.011102,0.085053,0.853793,-0.440609,-0.263946,155.939170,22.071317,-59.352884
63280,NaN,-3.324360,3.827331,-7.609314,-0.272107,-0.304991,-0.678443,-0.022743,-0.194673,0.037372,0.084698,0.853467,-0.440796,-0.264799,155.908690,22.168167,-59.418194
63281,NaN,-3.148346,3.608718,-7.740128,0.045655,-0.334411,-0.717052,-0.056869,-0.136111,0.047003,0.084635,0.853181,-0.440954,-0.265478,155.861285,22.232280,-59.474483
63282,NaN,-3.307195,3.542908,-8.057557,0.192759,-0.199505,-0.413911,-0.049877,-0.028107,0.021107,0.084741,0.853100,-0.440965,-0.265688,155.834501,22.245780,-59.488614
63283,NaN,-3.449613,3.625918,-8.476917,0.290866,-0.170478,0.025583,-0.049603,0.056688,-0.002209,0.085007,0.853181,-0.440841,-0.265549,155.820203,22.220554,-59.468327
63284,NaN,-3.433413,3.712355,-8.804607,0.407026,-0.257359,0.329260,-0.031088,0.133330,-0.027180,0.085325,0.853428,-0.440602,-0.265048,155.829943,22.160995,-59.414290
63285,NaN,-3.384316,3.705353,-8.872508,0.462344,-0.287869,0.366113,-0.020059,0.191097,-0.033200,0.085720,0.853767,-0.440327,-0.264283,155.851961,22.072702,-59.342499
63286,NaN,-3.541562,3.610982,-8.767124,0.387387,-0.085369,0.301013,-0.001979,0.194476,-0.035360,0.086038,0.854124,-0.440065,-0.263461,155.885720,21.983049,-59.268509
63287,NaN,-3.687546,3.668102,-8.410412,0.078347,0.036538,0.075715,0.008940,0.159039,-0.037387,0.086232,0.854442,-0.439824,-0.262769,155.922005,21.912364,-59.202611
63288,NaN,-3.870824,3.757526,-8.151793,-0.217838,0.156785,-0.041200,-0.000248,0.129460,-0.057261,0.086371,0.854761,-0.439498,-0.262230,155.955018,21.861758,-59.132831
63289,NaN,-4.041263,3.779620,-8.101152,-0.349570,0.286727,-0.012606,-0.000555,0.105875,-0.076336,0.086438,0.855090,-0.439100,-0.261803,155.988903,21.827931,-59.058473
63290,NaN,-3.998369,3.752915,-8.137676,-0.299098,0.267551,-0.007992,-0.007549,0.113023,-0.085122,0.086534,0.855445,-0.438653,-0.261362,156.021912,21.792345,-58.977211
63291,NaN,-3.864009,3.636724,-8.318553,-0.066840,0.217872,0.051526,0.006469,0.119711,-0.087560,0.086587,0.855818,-0.438210,-0.260865,156.063317,21.753872,-58.893150
63292,NaN,-3.772638,3.540533,-8.526364,0.144539,0.187203,0.157824,0.027481,0.075273,-0.059824,0.086484,0.856083,-0.437932,-0.260498,156.107492,21.732077,-58.835686
63293,NaN,-3.785107,3.504838,-8.486522,0.135950,0.219262,0.115325,0.048078,0.014048,-0.042019,0.086186,0.856236,-0.437783,-0.260343,156.153407,21.738316,-58.803763
63294,NaN,-3.518032,3.518088,-8.522101,0.270058,-0.010567,0.051726,0.054454,-0.066292,-0.004212,0.085730,0.856206,-0.437839,-0.260498,156.188328,21.777764,-58.812993
63295,NaN,-2.922020,3.563187,-8.547448,0.537281,-0.522385,-0.131169,0.067280,-0.098342,0.042518,0.085213,0.856035,-0.438126,-0.260745,156.217216,21.823337,-58.856751
63296,NaN,-2.782860,3.643469,-8.314402,0.424223,-0.669493,-0.351173,0.071765,-0.058996,0.069016,0.084795,0.855861,-0.438515,-0.260800,156.247351,21.842059,-58.905490
63297,NaN,-3.059512,3.890219,-7.913140,-0.095661,-0.566439,-0.496992,0.046671,0.016531,0.069714,0.084654,0.855772,-0.438842,-0.260588,156.269350,21.821015,-58.936016
63298,NaN,-3.386186,3.915031,-7.857977,-0.305408,-0.312801,-0.413199,0.029579,0.110832,0.045039,0.084757,0.855853,-0.439001,-0.260018,156.296034,21.756217,-58.929028
63299,NaN,-3.667933,3.996900,-7.932710,-0.470676,-0.135231,-0.214928,0.019682,0.193496,-0.004732,0.085024,0.856146,-0.438899,-0.259140,156.334326,21.659433,-58.873685
63300,NaN,-3.290470,4.011695,-8.113676,-0.221225,-0.445493,-0.194726,-0.004026,0.291331,-0.027371,0.085573,0.856604,-0.438627,-0.257901,156.373148,21.516532,-58.781313
63301,NaN,-3.137647,3.848113,-8.266734,0.027427,-0.459731,-0.180477,-0.015889,0.412109,-0.045125,0.086419,0.857248,-0.438211,-0.256181,156.418611,21.314157,-58.649592
63302,NaN,-3.285866,3.599251,-8.423163,0.186476,-0.176621,-0.084631,-0.009387,0.481724,-0.059673,0.087366,0.858013,-0.437708,-0.254151,156.477076,21.078510,-58.492770
63303,NaN,-3.404712,3.801160,-7.987985,-0.266198,-0.141945,-0.338637,-0.014806,0.523658,-0.075381,0.088413,0.858856,-0.437110,-0.251959,156.537701,20.824138,-58.317573
63304,NaN,-4.084944,3.526097,-8.471214,-0.188053,0.560727,0.213861,-0.030537,0.452804,-0.076869,0.089365,0.859603,-0.436515,-0.250104,156.583393,20.607326,-58.159131
63305,NaN,-4.253214,3.154426,-8.653791,0.060200,0.928312,0.289931,0.002819,0.276789,-0.065505,0.089809,0.860115,-0.436087,-0.248929,156.629618,20.480300,-58.050397
63306,NaN,-3.965553,3.351228,-8.560282,0.000515,0.596405,0.181263,0.025631,0.139078,-0.056752,0.089859,0.860446,-0.435786,-0.248289,156.676070,20.423716,-57.979924
63307,NaN,-3.259300,3.581914,-8.519814,0.158851,-0.098917,-0.014455,0.025660,0.064371,-0.020624,0.089796,0.860605,-0.435674,-0.247957,156.708422,20.398252,-57.948047
63308,NaN,-3.029982,3.747487,-8.476036,0.125381,-0.375283,-0.070456,0.031163,0.124685,-0.009157,0.089850,0.860818,-0.435591,-0.247346,156.747396,20.338382,-57.907890
63309,NaN,-2.774417,3.884711,-8.294228,0.050437,-0.640236,-0.264384,0.025742,0.260390,-0.014602,0.090221,0.861205,-0.435417,-0.246167,156.794896,20.208261,-57.832233
