// General information: 
//  MT Manager version: 2019.0.1 
//  XDA version: 2019.0.1 build 2740 rev 84096 built on 2019-01-30
// Device information: 
//  DeviceId: 00B43876
//  ProductCode: MTW2-3A7G6
//  Firmware Version: 4.3.4
//  Hardware Version: 1.1.0
// Device settings: 
//  Filter Profile: human(46.1)
//  Option Flags: Orientation Smoother Disabled, AHS Disabled, ICC Disabled
// Coordinate system: ENU
PacketCounter,SampleTimeFine,Acc_X,Acc_Y,Acc_Z,FreeAcc_E,FreeAcc_N,FreeAcc_U,Gyr_X,Gyr_Y,Gyr_Z,Quat_q0,Quat_q1,Quat_q2,Quat_q3,Roll,Pitch,Yaw
53431,NaN,2.325160,9.432448,-1.677108,-0.015154,-0.052934,0.045665,-0.000750,0.002882,-0.002043,0.536644,0.522063,-0.560100,-0.354616,100.213259,-13.349105,-82.851954
53432,NaN,2.325074,9.432500,-1.676938,-0.015691,-0.052669,0.045666,-0.001932,0.000872,-0.000437,0.536631,0.522046,-0.560128,-0.354615,100.214989,-13.350854,-82.855553
53433,NaN,2.333566,9.483982,-1.647492,-0.054041,-0.055071,0.091843,-0.000441,0.002875,-0.003655,0.536618,0.522044,-0.560142,-0.354616,100.216676,-13.350952,-82.857472
53434,NaN,2.334694,9.466985,-1.699240,-0.000457,-0.051185,0.084757,0.000741,0.004885,-0.005261,0.536603,0.522045,-0.560155,-0.354616,100.218576,-13.350778,-82.859257
53435,NaN,2.300688,9.485266,-1.660244,-0.046602,-0.021196,0.087677,0.003326,0.007466,-0.006646,0.536588,0.522069,-0.560156,-0.354601,100.221734,-13.349657,-82.858204
53436,NaN,2.302775,9.502772,-1.712064,-0.000183,-0.011504,0.113867,0.003326,0.007466,-0.006646,0.536573,0.522105,-0.560152,-0.354578,100.225466,-13.348356,-82.855724
53437,NaN,2.325256,9.502009,-1.676667,-0.032108,-0.039418,0.112212,0.001051,0.004878,-0.006873,0.536556,0.522119,-0.560155,-0.354578,100.227662,-13.346844,-82.856147
53438,NaN,2.306872,9.450983,-1.683127,-0.017855,-0.031364,0.060222,-0.000450,0.010641,-0.010961,0.536547,0.522143,-0.560139,-0.354582,100.228413,-13.344002,-82.854488
53439,NaN,2.331561,9.467756,-1.699249,-0.002831,-0.049818,0.084763,0.002851,0.006875,-0.011702,0.536522,0.522180,-0.560128,-0.354584,100.231257,-13.339970,-82.853248
53440,NaN,2.306169,9.485966,-1.682772,-0.025844,-0.024847,0.093492,-0.001632,0.008632,-0.009355,0.536515,0.522196,-0.560115,-0.354589,100.231538,-13.337685,-82.852079
53441,NaN,2.297871,9.469311,-1.711527,0.004570,-0.015994,0.080599,-0.003377,0.004599,-0.009365,0.536504,0.522206,-0.560105,-0.354609,100.231175,-13.334739,-82.852403
53442,NaN,2.279106,9.469932,-1.665703,-0.042201,-0.005592,0.068947,-0.004868,0.002596,-0.006148,0.536501,0.522206,-0.560099,-0.354622,100.230360,-13.333342,-82.852808
53443,NaN,2.263325,9.487875,-1.671522,-0.042011,0.014274,0.083495,-0.004394,0.003187,-0.001092,0.536504,0.522187,-0.560112,-0.354626,100.229802,-13.334917,-82.854815
53444,NaN,2.255838,9.471061,-1.700084,-0.011701,0.023171,0.070602,-0.005764,0.006082,0.000086,0.536512,0.522157,-0.560131,-0.354627,100.228715,-13.337810,-82.857372
53445,NaN,2.256042,9.471127,-1.699446,-0.012142,0.023441,0.070601,-0.004671,0.006660,0.001919,0.536530,0.522135,-0.560142,-0.354615,100.227607,-13.341436,-82.857682
53446,NaN,2.256817,9.471013,-1.699050,-0.012636,0.023726,0.070600,-0.001605,0.002066,0.012896,0.536546,0.522082,-0.560202,-0.354574,100.229442,-13.350913,-82.861934
53447,NaN,2.289992,9.469785,-1.685660,-0.021418,-0.009247,0.074769,-0.009024,0.005548,0.009532,0.536586,0.522025,-0.560228,-0.354556,100.226173,-13.358720,-82.863684
53448,NaN,2.331104,9.433907,-1.694853,-0.000093,-0.053248,0.051508,-0.005999,0.005254,0.011803,0.536617,0.521969,-0.560271,-0.354523,100.225440,-13.367869,-82.866359
53449,NaN,2.323333,9.433913,-1.671394,-0.023693,-0.047898,0.045674,-0.007368,0.008149,0.012981,0.536666,0.521912,-0.560303,-0.354484,100.222855,-13.377884,-82.866962
53450,NaN,2.332085,9.450620,-1.641584,-0.055090,-0.056148,0.058556,-0.002884,0.006392,0.010635,0.536689,0.521863,-0.560349,-0.354446,100.223486,-13.386687,-82.869749
53451,NaN,2.276624,9.469486,-1.637582,-0.069702,0.002046,0.063090,-0.003414,0.007837,0.010418,0.536722,0.521823,-0.560382,-0.354404,100.223147,-13.395225,-82.870266
53452,NaN,2.359984,9.466712,-1.657061,-0.040628,-0.074297,0.083112,0.001852,0.006664,0.011516,0.536736,0.521786,-0.560438,-0.354349,100.226470,-13.404521,-82.872789
53453,NaN,2.318917,9.433190,-1.647377,-0.048790,-0.041655,0.039834,0.002506,0.010118,0.009694,0.536759,0.521768,-0.560473,-0.354286,100.229200,-13.412884,-82.871908
53454,NaN,2.389062,9.465631,-1.725369,0.027895,-0.088988,0.100637,0.008793,0.010358,0.002521,0.536752,0.521785,-0.560502,-0.354224,100.235531,-13.417428,-82.870458
53455,NaN,2.289205,9.468411,-1.660494,-0.048439,-0.001884,0.068919,-0.000771,0.008385,0.004194,0.536769,0.521770,-0.560522,-0.354190,100.236482,-13.422513,-82.870008
53456,NaN,2.341350,9.449790,-1.744674,0.043032,-0.041576,0.077750,0.002125,0.010960,0.001200,0.536779,0.521777,-0.560532,-0.354147,100.238981,-13.426211,-82.867703
53457,NaN,2.346283,9.449257,-1.663726,-0.035231,-0.059269,0.064393,-0.000404,0.006343,-0.002256,0.536778,0.521778,-0.560541,-0.354134,100.240261,-13.427452,-82.867761
53458,NaN,2.371666,9.465871,-1.679740,-0.020287,-0.077676,0.088959,0.000217,0.006330,-0.005478,0.536768,0.521784,-0.560548,-0.354130,100.241964,-13.427190,-82.868366
53459,NaN,2.313622,9.450582,-1.676096,-0.027784,-0.025440,0.060216,-0.003427,0.006638,-0.004528,0.536771,0.521783,-0.560545,-0.354131,100.241417,-13.427179,-82.868015
53460,NaN,2.291512,9.486155,-1.710879,-0.003864,0.008963,0.095147,-0.005140,0.006072,-0.003140,0.536777,0.521770,-0.560548,-0.354135,100.240371,-13.428101,-82.868806
53461,NaN,2.307792,9.503042,-1.703792,-0.012040,-0.004400,0.113865,-0.005174,0.002605,-0.004539,0.536774,0.521758,-0.560553,-0.354151,100.239366,-13.427674,-82.870792
53462,NaN,2.353737,9.449836,-1.684353,-0.014449,-0.062924,0.070245,-0.002932,0.001727,-0.005711,0.536761,0.521756,-0.560559,-0.354163,100.239949,-13.426578,-82.872595
53463,NaN,2.352099,9.415561,-1.683957,-0.007802,-0.068625,0.036987,-0.007324,0.004916,-0.006807,0.536766,0.521749,-0.560547,-0.354185,100.237346,-13.425108,-82.873004
53464,NaN,2.302426,9.451773,-1.650645,-0.053299,-0.018979,0.054359,-0.003336,0.008070,-0.007967,0.536770,0.521770,-0.560525,-0.354184,100.236863,-13.423176,-82.869939
53465,NaN,2.295320,9.469639,-1.679221,-0.029953,-0.004206,0.074751,-0.002839,0.003159,-0.009151,0.536754,0.521777,-0.560520,-0.354205,100.237009,-13.420204,-82.871121
53466,NaN,2.326705,9.468765,-1.666111,-0.038874,-0.037195,0.078930,-0.001529,0.002299,-0.005489,0.536738,0.521782,-0.560528,-0.354210,100.238686,-13.419113,-82.872678
53467,NaN,2.332737,9.451247,-1.637038,-0.063108,-0.051423,0.058534,0.001838,0.005465,-0.003427,0.536726,0.521790,-0.560540,-0.354196,100.241340,-13.419603,-82.873123
53468,NaN,2.300395,9.452390,-1.649942,-0.055237,-0.017896,0.054350,0.002149,0.005459,-0.005038,0.536707,0.521801,-0.560554,-0.354187,100.244541,-13.419374,-82.874243
53469,NaN,2.333672,9.434292,-1.689165,-0.010038,-0.047441,0.051532,0.005483,0.005159,-0.004376,0.536683,0.521821,-0.560571,-0.354167,100.249303,-13.419298,-82.874765
53470,NaN,2.326811,9.451962,-1.718509,0.013275,-0.032642,0.071931,0.005045,0.008036,-0.008032,0.536661,0.521851,-0.560574,-0.354151,100.253495,-13.417673,-82.873955
53471,NaN,2.349222,9.451189,-1.683063,-0.018709,-0.060492,0.070253,-0.000656,0.004315,-0.005484,0.536649,0.521856,-0.560580,-0.354153,100.254826,-13.416886,-82.874851
53472,NaN,2.292142,9.470340,-1.679609,-0.033325,-0.002276,0.074741,0.002989,0.004009,-0.006433,0.536622,0.521874,-0.560592,-0.354147,100.258691,-13.415606,-82.876023
53473,NaN,2.244147,9.489310,-1.698819,-0.024721,0.050828,0.085089,-0.000656,0.004315,-0.005485,0.536610,0.521879,-0.560598,-0.354149,100.260022,-13.414819,-82.876919
53474,NaN,2.309634,9.470160,-1.724897,0.011989,-0.011938,0.086470,0.001745,0.004033,0.000011,0.536598,0.521874,-0.560627,-0.354129,100.263361,-13.417287,-82.879069
53475,NaN,2.317099,9.487065,-1.695690,-0.019352,-0.020174,0.099322,0.000467,0.008360,-0.002251,0.536601,0.521880,-0.560632,-0.354109,100.264870,-13.418736,-82.877959
53476,NaN,2.371001,9.450626,-1.647335,-0.052727,-0.087225,0.068573,0.001029,0.010383,-0.000635,0.536607,0.521888,-0.560639,-0.354075,100.266977,-13.421365,-82.876082
53477,NaN,2.316004,9.452599,-1.695638,-0.013218,-0.025622,0.066070,0.002181,0.008927,-0.003640,0.536604,0.521904,-0.560642,-0.354052,100.269358,-13.422089,-82.874499
53478,NaN,2.315573,9.452730,-1.695496,-0.013717,-0.025306,0.066070,0.000124,0.012670,-0.009348,0.536603,0.521932,-0.560623,-0.354042,100.270206,-13.420283,-82.871144
53479,NaN,2.308482,9.470597,-1.724042,0.009626,-0.010549,0.086475,-0.004082,0.010953,-0.010018,0.536611,0.521953,-0.560592,-0.354048,100.268571,-13.417619,-82.867717
53480,NaN,2.312575,9.470336,-1.642522,-0.068754,-0.028143,0.073041,-0.005577,0.008948,-0.006802,0.536618,0.521956,-0.560578,-0.354055,100.267071,-13.416620,-82.866358
53481,NaN,2.322248,9.504924,-1.664270,-0.053179,-0.026997,0.112163,-0.005577,0.008948,-0.006802,0.536630,0.521960,-0.560559,-0.354062,100.264928,-13.415564,-82.864432
53482,NaN,2.323371,9.488089,-1.715538,0.000311,-0.023359,0.105196,-0.001932,0.008643,-0.007749,0.536625,0.521977,-0.560548,-0.354061,100.265505,-13.414013,-82.862981
53483,NaN,2.297120,9.471747,-1.699010,-0.015499,-0.004354,0.080599,-0.002804,0.006626,-0.007755,0.536622,0.521987,-0.560538,-0.354069,100.265241,-13.412182,-82.862300
53484,NaN,2.271092,9.455332,-1.682567,-0.031265,0.014699,0.056001,-0.001278,0.004327,-0.002264,0.536620,0.521980,-0.560550,-0.354063,100.266023,-13.413450,-82.863384
53485,NaN,2.318513,9.436605,-1.662869,-0.040787,-0.037860,0.045662,-0.005111,0.009538,-0.001746,0.536641,0.521972,-0.560543,-0.354054,100.264192,-13.415304,-82.861646
53486,NaN,2.327611,9.436538,-1.684982,-0.018183,-0.042662,0.051542,-0.002991,0.003760,-0.000876,0.536635,0.521948,-0.560569,-0.354056,100.264823,-13.417440,-82.865263
53487,NaN,2.327473,9.436682,-1.684365,-0.018627,-0.042393,0.051543,-0.007945,0.004925,-0.003593,0.536647,0.521929,-0.560565,-0.354072,100.261944,-13.417781,-82.866005
53488,NaN,2.327337,9.436833,-1.683706,-0.019134,-0.042092,0.051543,-0.003521,0.005205,-0.001094,0.536649,0.521912,-0.560580,-0.354070,100.261962,-13.419786,-82.867825
53489,NaN,2.328213,9.471481,-1.683000,-0.026705,-0.035815,0.084788,-0.004829,0.006066,-0.004757,0.536654,0.521907,-0.560576,-0.354077,100.260686,-13.419588,-82.867784
53490,NaN,2.350774,9.470765,-1.646963,-0.058780,-0.063588,0.083095,-0.002897,0.005194,-0.004316,0.536649,0.521899,-0.560585,-0.354082,100.260955,-13.419800,-82.869518
53491,NaN,2.302821,9.489748,-1.665947,-0.050127,-0.010489,0.093425,-0.000341,0.004312,-0.007097,0.536633,0.521909,-0.560587,-0.354088,100.262430,-13.418103,-82.870248
53492,NaN,2.333256,9.454348,-1.653088,-0.051931,-0.049441,0.064374,-0.000653,0.004317,-0.005486,0.536622,0.521918,-0.560591,-0.354086,100.264021,-13.417351,-82.870649
53493,NaN,2.341863,9.454318,-1.675731,-0.029248,-0.054308,0.070263,0.002120,0.001996,-0.006438,0.536594,0.521929,-0.560605,-0.354089,100.267234,-13.415790,-82.872791
53494,NaN,2.341350,9.454438,-1.675768,-0.029775,-0.053995,0.070263,-0.000123,0.002873,-0.005269,0.536572,0.521927,-0.560624,-0.354095,100.269505,-13.415274,-82.875882
53495,NaN,2.317888,9.455447,-1.711382,0.001359,-0.025653,0.071960,0.003304,0.004008,-0.008043,0.536545,0.521949,-0.560630,-0.354093,100.273086,-13.413014,-82.876689
53496,NaN,2.293714,9.508014,-1.695037,-0.028771,0.005390,0.113830,0.001932,0.006902,-0.006868,0.536529,0.521973,-0.560631,-0.354082,100.276013,-13.411780,-82.875814
53497,NaN,2.276812,9.491389,-1.701449,-0.021420,0.019258,0.095110,-0.000283,0.011246,-0.004299,0.536538,0.521988,-0.560622,-0.354061,100.276657,-13.412370,-82.872820
53498,NaN,2.299414,9.490612,-1.665732,-0.053507,-0.008544,0.093409,0.001961,0.010370,-0.005469,0.536537,0.522016,-0.560613,-0.354035,100.279034,-13.412219,-82.869525
53499,NaN,2.316436,9.455836,-1.711199,-0.000563,-0.024583,0.071963,0.002397,0.007492,-0.001811,0.536532,0.522024,-0.560625,-0.354010,100.281779,-13.413828,-82.868968
53500,NaN,2.275491,9.456989,-1.701394,-0.015742,0.014058,0.061865,0.000399,0.010396,0.002587,0.536546,0.522019,-0.560641,-0.353971,100.283507,-13.418357,-82.867718
53501,NaN,2.309872,9.438806,-1.740006,0.029402,-0.015585,0.059145,-0.001941,0.009840,0.007196,0.536575,0.521995,-0.560663,-0.353929,100.283671,-13.425284,-82.866747
53502,NaN,2.325318,9.472540,-1.681042,-0.032946,-0.032152,0.084782,-0.005179,0.011571,0.003089,0.536607,0.521972,-0.560670,-0.353903,100.281892,-13.430400,-82.865418
53503,NaN,2.301880,9.438924,-1.716051,0.005343,-0.009851,0.053246,-0.005520,0.008110,0.003300,0.536634,0.521946,-0.560679,-0.353885,100.280143,-13.434954,-82.865040
53504,NaN,2.294370,9.473584,-1.692471,-0.025463,0.001583,0.080580,-0.007017,0.006103,0.006516,0.536663,0.521907,-0.560701,-0.353865,100.278463,-13.441107,-82.865997
53505,NaN,2.311611,9.490281,-1.685151,-0.033717,-0.011736,0.099298,-0.006488,0.004658,0.006734,0.536689,0.521863,-0.560727,-0.353849,100.276709,-13.447244,-82.867981
53506,NaN,2.318830,9.472558,-1.655494,-0.057982,-0.025923,0.078872,-0.005182,0.003797,0.010398,0.536716,0.521813,-0.560766,-0.353820,100.276104,-13.455414,-82.870553
53507,NaN,2.286992,9.438880,-1.668147,-0.042802,0.001523,0.041432,-0.003346,0.001492,0.014280,0.536738,0.521750,-0.560826,-0.353784,100.276762,-13.465481,-82.875166
53508,NaN,2.345816,9.454158,-1.671092,-0.036473,-0.050145,0.070261,-0.000476,0.000604,0.009890,0.536741,0.521707,-0.560884,-0.353752,100.279392,-13.473071,-82.879918
53509,NaN,2.345609,9.419455,-1.671181,-0.029770,-0.055908,0.037026,-0.001565,0.000026,0.008054,0.536743,0.521664,-0.560934,-0.353731,100.281118,-13.479478,-82.884727
53510,NaN,2.356662,9.453609,-1.693564,-0.014262,-0.054664,0.076173,0.000054,-0.000840,0.010108,0.536737,0.521604,-0.561009,-0.353712,100.283934,-13.487526,-82.892743
53511,NaN,2.357254,9.453486,-1.693428,-0.014710,-0.054394,0.076174,-0.003429,-0.001134,0.002772,0.536732,0.521569,-0.561045,-0.353713,100.284621,-13.490837,-82.897669
53512,NaN,2.332906,9.471405,-1.676919,-0.037724,-0.029331,0.084774,-0.002028,-0.000562,0.002997,0.536719,0.521535,-0.561091,-0.353710,100.286721,-13.494474,-82.903429
53513,NaN,2.323900,9.471528,-1.654275,-0.061287,-0.023896,0.078857,0.001059,-0.002889,0.000436,0.536693,0.521515,-0.561134,-0.353710,100.290160,-13.496287,-82.909128
53514,NaN,2.358646,9.487922,-1.693192,-0.023330,-0.047484,0.109408,0.002244,-0.000877,-0.001168,0.536666,0.521504,-0.561173,-0.353707,100.293949,-13.497687,-82.913937
53515,NaN,2.331786,9.436848,-1.677456,-0.031910,-0.034511,0.051539,0.001185,0.002012,-0.001604,0.536650,0.521499,-0.561198,-0.353699,100.296747,-13.498852,-82.916581
53516,NaN,2.357176,9.453495,-1.693485,-0.017088,-0.052939,0.076178,-0.000650,0.004318,-0.005486,0.536636,0.521499,-0.561208,-0.353703,100.298156,-13.498344,-82.918346
53517,NaN,2.333909,9.454517,-1.728965,0.014081,-0.024641,0.077890,0.001624,0.006908,-0.005255,0.536626,0.521514,-0.561211,-0.353691,100.300454,-13.497952,-82.917766
53518,NaN,2.350150,9.471364,-1.722127,0.005800,-0.037903,0.096611,-0.004609,0.004628,-0.002932,0.536629,0.521499,-0.561219,-0.353698,100.299525,-13.498899,-82.919273
53519,NaN,2.348679,9.437037,-1.721881,0.012514,-0.043682,0.063383,-0.002268,0.005185,-0.007540,0.536620,0.521507,-0.561214,-0.353708,100.299770,-13.497043,-82.919452
53520,NaN,2.370740,9.436406,-1.685903,-0.019608,-0.071417,0.061671,-0.003573,0.006047,-0.011205,0.536609,0.521523,-0.561197,-0.353727,100.299360,-13.493362,-82.918906
53521,NaN,2.314243,9.490214,-1.681915,-0.041146,-0.007103,0.099274,-0.002701,0.008064,-0.011199,0.536603,0.521546,-0.561173,-0.353740,100.298878,-13.489738,-82.917030
53522,NaN,2.296961,9.473734,-1.688112,-0.033815,0.006770,0.080552,-0.001396,0.007203,-0.007534,0.536594,0.521556,-0.561170,-0.353743,100.299698,-13.488308,-82.916926
53523,NaN,2.279278,9.508670,-1.642503,-0.087647,0.023450,0.101923,0.000969,0.003452,-0.003433,0.536579,0.521558,-0.561186,-0.353738,100.302132,-13.488589,-82.918542
53524,NaN,2.295218,9.439416,-1.688179,-0.027561,0.001294,0.047322,0.000969,0.003452,-0.003433,0.536563,0.521558,-0.561205,-0.353732,100.304685,-13.489107,-82.920535
53525,NaN,2.342719,9.420586,-1.668858,-0.037201,-0.051253,0.037026,0.000245,0.002028,0.003229,0.536558,0.521537,-0.561241,-0.353714,100.307061,-13.492998,-82.923679
53526,NaN,2.327370,9.438311,-1.675353,-0.036978,-0.031353,0.051532,0.003117,0.001141,-0.001161,0.536538,0.521540,-0.561269,-0.353697,100.311141,-13.494361,-82.925959
53527,NaN,2.351959,9.420408,-1.691537,-0.014992,-0.055890,0.042958,-0.002649,0.007223,-0.001091,0.536547,0.521532,-0.561274,-0.353685,100.311050,-13.496349,-82.925636
53528,NaN,2.394123,9.453777,-1.700781,-0.008043,-0.087903,0.086332,0.000997,0.006919,-0.002034,0.536544,0.521536,-0.561286,-0.353665,100.313123,-13.497961,-82.925488
53529,NaN,2.360035,9.471931,-1.661867,-0.054030,-0.057639,0.088969,0.001938,0.006904,-0.006867,0.536530,0.521556,-0.561285,-0.353657,100.315561,-13.496661,-82.924741
53530,NaN,2.327446,9.473088,-1.674997,-0.045929,-0.024146,0.084753,0.004713,0.004583,-0.007816,0.536503,0.521584,-0.561292,-0.353647,100.319752,-13.494752,-82.924863
53531,NaN,2.350259,9.420776,-1.691847,-0.016772,-0.054754,0.042961,0.007083,0.008609,-0.011025,0.536473,0.521633,-0.561285,-0.353631,100.324805,-13.491283,-82.922689
53532,NaN,2.350415,9.455468,-1.691868,-0.024448,-0.048369,0.076186,0.001164,0.006321,-0.010315,0.536450,0.521654,-0.561283,-0.353639,100.327065,-13.488301,-82.923163
53533,NaN,2.327575,9.491100,-1.727364,-0.000430,-0.014032,0.111131,0.005249,0.010915,-0.014910,0.536424,0.521713,-0.561257,-0.353632,100.330661,-13.482879,-82.919242
53534,NaN,2.278101,9.475564,-1.747203,0.015527,0.033043,0.088194,0.006239,0.010059,-0.009634,0.536403,0.521753,-0.561252,-0.353612,100.335004,-13.480691,-82.917025
53535,NaN,2.268232,9.475873,-1.724619,-0.008020,0.038504,0.082251,0.000131,0.012678,-0.009355,0.536406,0.521786,-0.561226,-0.353601,100.335566,-13.478582,-82.912668
53536,NaN,2.299664,9.475050,-1.711308,-0.017059,0.005590,0.086469,-0.002239,0.008652,-0.006146,0.536408,0.521799,-0.561216,-0.353595,100.335699,-13.477921,-82.910803
53537,NaN,2.267386,9.476228,-1.723779,-0.008957,0.039044,0.082248,-0.004268,0.008089,-0.003150,0.536420,0.521794,-0.561211,-0.353591,100.334514,-13.478838,-82.909762
53538,NaN,2.297591,9.492362,-1.658257,-0.072040,0.003088,0.093295,-0.006271,0.010993,0.001245,0.536446,0.521759,-0.561223,-0.353584,100.331935,-13.483220,-82.910692
53539,NaN,2.295896,9.423414,-1.657747,-0.058116,-0.008794,0.026852,-0.008328,0.006962,0.002843,0.536477,0.521725,-0.561229,-0.353578,100.328724,-13.487399,-82.910938
53540,NaN,2.264674,9.424401,-1.669873,-0.050036,0.024700,0.022628,-0.007778,0.001208,0.011773,0.536502,0.521652,-0.561281,-0.353564,100.326995,-13.496278,-82.916400
53541,NaN,2.275998,9.458662,-1.691388,-0.034564,0.025850,0.061794,-0.012979,-0.007433,0.013131,0.536522,0.521552,-0.561345,-0.353581,100.323321,-13.504778,-82.926077
53542,NaN,2.261910,9.476306,-1.696617,-0.034387,0.045783,0.076289,-0.015978,-0.011449,0.019559,0.536547,0.521415,-0.561436,-0.353601,100.319006,-13.516716,-82.939504
53543,NaN,2.295745,9.475061,-1.682311,-0.043392,0.012873,0.080509,-0.018663,-0.015470,0.024376,0.536580,0.521253,-0.561540,-0.353624,100.313447,-13.530732,-82.955027
53544,NaN,2.159110,9.496061,-1.658543,-0.086728,0.148046,0.064471,-0.015025,-0.023550,0.030741,0.536585,0.521050,-0.561705,-0.353654,100.311085,-13.548140,-82.978973
53545,NaN,2.228938,9.510899,-1.683476,-0.057419,0.091181,0.099317,-0.013387,-0.028727,0.041499,0.536596,0.520831,-0.561899,-0.353652,100.310784,-13.570450,-83.003991
53546,NaN,2.275297,9.404673,-1.612360,-0.099610,0.017281,-0.003797,-0.014208,-0.031586,0.051592,0.536620,0.520574,-0.562126,-0.353631,100.310594,-13.598317,-83.031769
53547,NaN,2.185659,9.389952,-1.702629,-0.020255,0.120210,-0.023286,-0.012973,-0.047157,0.059749,0.536611,0.520272,-0.562418,-0.353627,100.313524,-13.629025,-83.069408
53548,NaN,2.461968,9.449390,-1.724858,0.020294,-0.125585,0.102514,-0.011752,-0.050637,0.051895,0.536570,0.519982,-0.562709,-0.353652,100.317842,-13.655264,-83.109712
53549,NaN,2.628510,9.460224,-1.712192,0.023827,-0.281986,0.150064,-0.008095,-0.043163,0.043642,0.536530,0.519745,-0.562956,-0.353667,100.322654,-13.677297,-83.143346
53550,NaN,2.657933,9.371760,-1.648530,-0.017738,-0.336271,0.061458,-0.002835,-0.024473,0.021446,0.536491,0.519619,-0.563105,-0.353675,100.327559,-13.688831,-83.163705
53551,NaN,2.607282,9.338392,-1.616926,-0.048609,-0.298491,0.012102,0.005410,-0.009552,0.000129,0.536434,0.519600,-0.563173,-0.353681,100.334420,-13.689784,-83.173245
53552,NaN,2.509628,9.393477,-1.604378,-0.084668,-0.195690,0.039430,0.008934,-0.008172,-0.021021,0.536330,0.519650,-0.563194,-0.353731,100.343014,-13.679107,-83.180549
53553,NaN,2.502683,9.480729,-1.634108,-0.075739,-0.168802,0.126312,0.011705,-0.011682,-0.036918,0.536186,0.519749,-0.563183,-0.353824,100.352843,-13.658958,-83.187402
53554,NaN,2.408760,9.467243,-1.645493,-0.074255,-0.083304,0.093169,0.017403,-0.016924,-0.047105,0.535985,0.519863,-0.563187,-0.353953,100.366534,-13.633220,-83.199563
53555,NaN,2.454885,9.501302,-1.679855,-0.044321,-0.120542,0.142544,0.019273,-0.016951,-0.056776,0.535771,0.520028,-0.563151,-0.354091,100.380915,-13.601333,-83.207352
53556,NaN,2.377422,9.487753,-1.737018,0.003387,-0.045519,0.121332,0.020335,-0.012061,-0.063653,0.535549,0.520210,-0.563101,-0.354242,100.395095,-13.566631,-83.214193
53557,NaN,2.396757,9.505523,-1.755261,0.018125,-0.064005,0.146023,0.019931,-0.005711,-0.065916,0.535348,0.520422,-0.563012,-0.354373,100.408085,-13.530752,-83.214477
53558,NaN,2.243233,9.476679,-1.763344,0.013059,0.073271,0.083947,0.016129,0.002969,-0.064002,0.535186,0.520640,-0.562896,-0.354484,100.418077,-13.496786,-83.209175
53559,NaN,2.291309,9.441391,-1.716630,-0.020469,0.006323,0.053229,0.016038,0.001538,-0.060570,0.535025,0.520840,-0.562795,-0.354593,100.427986,-13.464670,-83.205813
53560,NaN,2.181845,9.480070,-1.733668,-0.025435,0.117446,0.067765,0.011029,-0.003039,-0.051143,0.534880,0.520994,-0.562722,-0.354701,100.436135,-13.437489,-83.205907
53561,NaN,2.284014,9.460842,-1.770666,0.025475,0.016056,0.079663,0.009757,-0.006484,-0.046102,0.534739,0.521122,-0.562669,-0.354810,100.443884,-13.412694,-83.208728
53562,NaN,2.307504,9.460332,-1.655002,-0.084504,-0.029040,0.064230,0.003051,-0.000394,-0.041190,0.534642,0.521226,-0.562601,-0.354910,100.446891,-13.391551,-83.208716
53563,NaN,2.135402,9.414445,-1.749187,-0.003676,0.139247,-0.002898,0.005530,-0.010480,-0.033225,0.534523,0.521300,-0.562585,-0.355007,100.453070,-13.373596,-83.215222
53564,NaN,2.233237,9.498642,-1.762472,0.002510,0.061518,0.102658,0.002286,-0.007561,-0.022374,0.534436,0.521324,-0.562596,-0.355085,100.457126,-13.362609,-83.223561
53565,NaN,2.251689,9.480736,-1.675677,-0.076504,0.024689,0.074470,0.002131,-0.006963,-0.014090,0.534369,0.521341,-0.562614,-0.355132,100.461355,-13.355800,-83.230073
53566,NaN,2.261117,9.463835,-1.750450,0.000174,0.022850,0.073685,0.001622,-0.002053,-0.012906,0.534314,0.521351,-0.562633,-0.355170,100.464921,-13.350620,-83.235974
53567,NaN,2.310525,9.548916,-1.730953,-0.031242,-0.011327,0.163054,0.004161,0.006034,-0.008044,0.534290,0.521379,-0.562635,-0.355161,100.468724,-13.348570,-83.235605
53568,NaN,2.243671,9.533311,-1.705171,-0.061305,0.046144,0.128128,0.003496,0.011541,0.001426,0.534300,0.521386,-0.562650,-0.355115,100.471613,-13.352625,-83.233514
53569,NaN,2.243995,9.447118,-1.757382,0.006777,0.037213,0.054962,0.002005,0.009531,0.004644,0.534313,0.521379,-0.562672,-0.355068,100.474026,-13.358088,-83.232478
53570,NaN,2.290650,9.445323,-1.686410,-0.057125,-0.018269,0.051469,0.004184,0.010691,0.008316,0.534325,0.521357,-0.562718,-0.355010,100.477791,-13.366256,-83.233476
53571,NaN,2.293361,9.428035,-1.738198,-0.003479,-0.014967,0.044718,-0.000330,0.008970,0.009258,0.534352,0.521329,-0.562750,-0.354960,100.479056,-13.374260,-83.233261
53572,NaN,2.392004,9.494111,-1.699174,-0.044317,-0.101879,0.123845,0.004366,0.013560,0.001431,0.534361,0.521339,-0.562765,-0.354908,100.482432,-13.378607,-83.230695
53573,NaN,2.310885,9.444546,-1.731816,-0.012337,-0.027902,0.063440,0.007815,0.018168,0.000053,0.534376,0.521376,-0.562762,-0.354835,100.486903,-13.382384,-83.224167
53574,NaN,2.367139,9.477218,-1.683352,-0.060404,-0.082553,0.099135,0.004505,0.021928,0.000788,0.534411,0.521409,-0.562748,-0.354758,100.489210,-13.387091,-83.215632
53575,NaN,2.368995,9.460025,-1.735735,-0.006762,-0.079265,0.092395,0.018649,0.023616,-0.006663,0.534401,0.521503,-0.562733,-0.354659,100.498991,-13.387655,-83.205229
53576,NaN,2.286827,9.461902,-1.717480,-0.036019,-0.002144,0.071928,0.019334,0.022768,0.000226,0.534403,0.521579,-0.562736,-0.354539,100.509097,-13.392187,-83.195457
53577,NaN,2.399321,9.389506,-1.726011,-0.001796,-0.124111,0.030242,0.026164,0.021583,-0.006730,0.534367,0.521690,-0.562739,-0.354424,100.523453,-13.392504,-83.186224
53578,NaN,2.342170,9.408022,-1.724746,-0.015985,-0.065745,0.034486,0.029035,0.020702,-0.011127,0.534312,0.521814,-0.562744,-0.354316,100.539576,-13.390529,-83.177871
53579,NaN,2.390453,9.458278,-1.707540,-0.040252,-0.106003,0.090652,0.032649,0.024710,-0.020795,0.534243,0.521988,-0.562714,-0.354212,100.556879,-13.383257,-83.165312
53580,NaN,2.307426,9.494811,-1.690826,-0.076809,-0.022739,0.103367,0.039076,0.022099,-0.022696,0.534145,0.522175,-0.562702,-0.354103,100.578352,-13.374871,-83.154857
53581,NaN,2.308306,9.512105,-1.745416,-0.030393,-0.013333,0.129837,0.034794,0.030179,-0.025854,0.534077,0.522378,-0.562648,-0.353992,100.596028,-13.365333,-83.138580
53582,NaN,2.257127,9.461600,-1.767593,-0.007020,0.027475,0.073671,0.035349,0.032207,-0.024244,0.534016,0.522581,-0.562594,-0.353869,100.613890,-13.357047,-83.121271
53583,NaN,2.361374,9.493313,-1.753839,-0.017605,-0.070830,0.125607,0.035465,0.037110,-0.026300,0.533965,0.522799,-0.562522,-0.353739,100.631016,-13.348000,-83.100930
53584,NaN,2.316450,9.425370,-1.746703,-0.017989,-0.044404,0.048967,0.033628,0.039410,-0.030197,0.533920,0.523027,-0.562430,-0.353618,100.646635,-13.337190,-83.078806
53585,NaN,2.356584,9.372751,-1.810188,0.057305,-0.085715,0.019306,0.029782,0.044614,-0.029701,0.533898,0.523252,-0.562318,-0.353494,100.659425,-13.327033,-83.053748
53586,NaN,2.377898,9.406962,-1.775916,0.017798,-0.107189,0.050751,0.023309,0.048053,-0.037941,0.533886,0.523490,-0.562168,-0.353399,100.668346,-13.312694,-83.026186
53587,NaN,2.317574,9.391615,-1.773777,0.010903,-0.055010,0.021778,0.020511,0.046901,-0.038397,0.533880,0.523720,-0.562011,-0.353318,100.675313,-13.297892,-82.998857
53588,NaN,2.305153,9.478650,-1.700149,-0.081150,-0.040143,0.088870,0.020294,0.048341,-0.040241,0.533880,0.523959,-0.561840,-0.353235,100.681707,-13.282234,-82.969619
53589,NaN,2.279456,9.479847,-1.736330,-0.049851,-0.011991,0.090626,0.014713,0.049501,-0.039755,0.533894,0.524182,-0.561662,-0.353167,100.684987,-13.266948,-82.940638
53590,NaN,2.221913,9.481811,-1.785258,-0.009894,0.049345,0.088133,0.009958,0.034503,-0.036096,0.533883,0.524351,-0.561529,-0.353143,100.687722,-13.252376,-82.921356
53591,NaN,2.242039,9.481884,-1.749499,-0.042081,0.021733,0.086372,0.005472,0.039716,-0.032381,0.533907,0.524510,-0.561380,-0.353107,100.687203,-13.240204,-82.898842
53592,NaN,2.258121,9.482138,-1.794321,0.003589,0.011492,0.098392,0.004278,0.034232,-0.032164,0.533919,0.524655,-0.561247,-0.353087,100.686854,-13.227776,-82.879729
53593,NaN,2.302404,9.430003,-1.774008,0.000989,-0.047194,0.054982,-0.002058,0.038265,-0.033740,0.533956,0.524795,-0.561085,-0.353079,100.682189,-13.214684,-82.857909
53594,NaN,2.315440,9.413239,-1.766259,-0.000197,-0.066547,0.040514,-0.005719,0.035085,-0.034197,0.533991,0.524919,-0.560928,-0.353092,100.675942,-13.201208,-82.838494
53595,NaN,2.222012,9.450606,-1.723149,-0.059711,0.021987,0.047155,-0.010551,0.033359,-0.031651,0.534040,0.525022,-0.560769,-0.353116,100.667122,-13.188767,-82.819745
53596,NaN,2.207239,9.486265,-1.779791,-0.012545,0.051037,0.088122,-0.010010,0.024150,-0.024080,0.534078,0.525088,-0.560655,-0.353141,100.659795,-13.179762,-82.806972
53597,NaN,2.149562,9.539929,-1.775198,-0.033886,0.115536,0.125506,-0.017110,0.008577,-0.015800,0.534103,0.525086,-0.560593,-0.353205,100.650884,-13.173617,-82.804284
53598,NaN,2.204630,9.487576,-1.776034,-0.013466,0.051575,0.088118,-0.023434,0.008306,-0.008638,0.534156,0.525048,-0.560539,-0.353266,100.638803,-13.171545,-82.802275
53599,NaN,2.210374,9.470736,-1.744382,-0.037692,0.037467,0.067629,-0.027196,0.003691,-0.005643,0.534212,0.524982,-0.560499,-0.353345,100.625009,-13.170601,-82.803518
53600,NaN,2.269070,9.435685,-1.796182,0.029600,-0.017399,0.056757,-0.032029,0.001961,-0.003097,0.534281,0.524894,-0.560461,-0.353432,100.608799,-13.170997,-82.805749
53601,NaN,2.307042,9.418209,-1.750688,-0.003329,-0.064649,0.040526,-0.035034,0.005709,-0.003999,0.534366,0.524806,-0.560405,-0.353523,100.590289,-13.171192,-82.806003
53602,NaN,2.250731,9.471874,-1.744176,-0.024656,-0.000145,0.077900,-0.036750,0.005134,-0.002615,0.534459,0.524713,-0.560347,-0.353611,100.570859,-13.172071,-82.805657
53603,NaN,2.200968,9.507960,-1.708715,-0.069774,0.049997,0.094780,-0.032448,0.000535,0.001958,0.534533,0.524606,-0.560326,-0.353692,100.554658,-13.175079,-82.809546
53604,NaN,2.216994,9.490812,-1.699060,-0.070962,0.030625,0.080311,-0.033405,0.000549,0.006796,0.534619,0.524483,-0.560315,-0.353761,100.538154,-13.180905,-82.813705
53605,NaN,2.268422,9.490182,-1.728113,-0.033990,-0.012814,0.096619,-0.029095,-0.000583,0.012762,0.534700,0.524353,-0.560331,-0.353807,100.524289,-13.189883,-82.819402
53606,NaN,2.259544,9.455979,-1.703037,-0.050202,-0.013372,0.057404,-0.026841,-0.001449,0.011598,0.534772,0.524226,-0.560352,-0.353852,100.511564,-13.198435,-82.825783
53607,NaN,2.308290,9.437807,-1.680743,-0.060084,-0.065895,0.047199,-0.029085,0.002888,0.014153,0.534865,0.524098,-0.560363,-0.353885,100.497280,-13.208563,-82.829616
53608,NaN,2.303297,9.455523,-1.706974,-0.036708,-0.051244,0.067691,-0.029301,0.004329,0.012315,0.534964,0.523980,-0.560359,-0.353916,100.482420,-13.217873,-82.831486
53609,NaN,2.304638,9.455673,-1.704334,-0.037153,-0.050975,0.067691,-0.025217,0.001163,0.015051,0.535044,0.523856,-0.560383,-0.353940,100.470603,-13.228328,-82.836409
53610,NaN,2.274818,9.491073,-1.714761,-0.036152,-0.011374,0.096613,-0.027366,0.003468,0.012763,0.535133,0.523737,-0.560391,-0.353969,100.457225,-13.237850,-82.839585
53611,NaN,2.235043,9.492039,-1.702761,-0.050932,0.027323,0.086316,-0.025535,0.001167,0.016660,0.535216,0.523608,-0.560419,-0.353989,100.445264,-13.249214,-82.844673
53612,NaN,2.245977,9.492021,-1.722836,-0.028349,0.022277,0.092348,-0.027581,-0.002874,0.018258,0.535299,0.523469,-0.560453,-0.354016,100.432911,-13.260956,-82.851099
53613,NaN,2.304515,9.473527,-1.723449,-0.015189,-0.035539,0.088186,-0.022521,0.000886,0.018949,0.535378,0.523341,-0.560493,-0.354023,100.422772,-13.273583,-82.856589
53614,NaN,2.328869,9.472826,-1.685324,-0.047474,-0.063080,0.086411,-0.026273,0.007524,0.015996,0.535477,0.523221,-0.560505,-0.354031,100.409838,-13.285424,-82.858552
53615,NaN,2.306977,9.439134,-1.718642,-0.008867,-0.041160,0.055005,-0.024771,0.009542,0.012776,0.535575,0.523120,-0.560501,-0.354038,100.397109,-13.295470,-82.858369
53616,NaN,2.330890,9.438531,-1.680421,-0.041116,-0.068689,0.053230,-0.023917,0.008097,0.011384,0.535664,0.523019,-0.560503,-0.354051,100.385109,-13.304800,-82.859361
53617,NaN,2.291729,9.474047,-1.668282,-0.063155,-0.023801,0.076104,-0.025100,0.006078,0.012987,0.535753,0.522910,-0.560509,-0.354067,100.372656,-13.314608,-82.861203
53618,NaN,2.293847,9.508615,-1.665921,-0.070954,-0.017323,0.109280,-0.016720,0.006079,0.012964,0.535818,0.522823,-0.560533,-0.354059,100.365466,-13.324551,-82.863503
53619,NaN,2.272733,9.509309,-1.700029,-0.039609,0.010777,0.111056,-0.014891,0.003774,0.016860,0.535881,0.522726,-0.560573,-0.354043,100.359266,-13.336305,-82.867087
53620,NaN,2.291553,9.439997,-1.744230,0.020544,-0.011871,0.056788,-0.011750,0.011864,0.018505,0.535954,0.522635,-0.560616,-0.354000,100.354108,-13.350284,-82.868777
53621,NaN,2.331552,9.421333,-1.700693,-0.012429,-0.059087,0.040554,-0.009915,0.017349,0.015076,0.536039,0.522580,-0.560624,-0.353939,100.348900,-13.362430,-82.864307
53622,NaN,2.405407,9.384982,-1.695600,-0.000056,-0.136468,0.021961,-0.014208,0.021967,0.010505,0.536135,0.522520,-0.560614,-0.353899,100.340479,-13.373095,-82.859384
53623,NaN,2.363890,9.437325,-1.632431,-0.076198,-0.094414,0.051449,-0.009918,0.021674,0.006350,0.536217,0.522498,-0.560588,-0.353850,100.334474,-13.380767,-82.851482
53624,NaN,2.363677,9.402915,-1.631217,-0.069485,-0.100334,0.018271,-0.011769,0.017047,-0.000347,0.536274,0.522481,-0.560558,-0.353835,100.328564,-13.384305,-82.846133
53625,NaN,2.326443,9.456167,-1.671650,-0.044675,-0.046388,0.067682,-0.011995,0.015023,-0.003581,0.536325,0.522469,-0.560519,-0.353835,100.322017,-13.385695,-82.841035
53626,NaN,2.276670,9.491863,-1.638085,-0.089770,0.003864,0.084481,-0.011047,0.007225,-0.001093,0.536355,0.522438,-0.560512,-0.353846,100.317264,-13.387874,-82.840936
53627,NaN,2.278915,9.475132,-1.689013,-0.036100,0.006969,0.077863,-0.006662,0.000579,-0.001367,0.536356,0.522409,-0.560528,-0.353864,100.315764,-13.389029,-82.844441
53628,NaN,2.427391,9.454930,-1.732262,0.028553,-0.133028,0.100442,-0.012445,0.006648,-0.001324,0.536386,0.522373,-0.560521,-0.353881,100.310486,-13.391018,-82.845017
53629,NaN,2.366299,9.421725,-1.676645,-0.024986,-0.089894,0.044833,-0.013311,0.008954,-0.010057,0.536412,0.522365,-0.560480,-0.353919,100.303841,-13.388133,-82.842753
53630,NaN,2.310170,9.389331,-1.724614,0.022385,-0.034863,0.009176,-0.009992,0.005197,-0.010774,0.536415,0.522357,-0.560459,-0.353960,100.299817,-13.384751,-82.843498
53631,NaN,2.382965,9.422668,-1.719019,0.020159,-0.099949,0.056954,-0.017613,0.010108,-0.016031,0.536445,0.522357,-0.560391,-0.354023,100.290407,-13.378616,-82.839938
53632,NaN,2.336425,9.492480,-1.603870,-0.110225,-0.060618,0.092999,-0.014175,0.011262,-0.018793,0.536455,0.522368,-0.560332,-0.354085,100.283512,-13.371337,-82.837447
53633,NaN,2.280461,9.494770,-1.651390,-0.070082,0.000572,0.090511,-0.011496,0.007508,-0.016286,0.536461,0.522380,-0.560281,-0.354137,100.277951,-13.364792,-82.835369
53634,NaN,2.304019,9.477592,-1.666409,-0.048261,-0.024086,0.082122,-0.008816,0.003753,-0.013780,0.536450,0.522377,-0.560261,-0.354191,100.274647,-13.359622,-82.837341
53635,NaN,2.293593,9.478045,-1.642815,-0.071749,-0.018488,0.076056,-0.010525,0.006643,-0.010999,0.536461,0.522375,-0.560228,-0.354229,100.269887,-13.355969,-82.836321
53636,NaN,2.263018,9.462468,-1.706824,-0.009406,0.017730,0.065187,-0.010001,0.001732,-0.012180,0.536448,0.522364,-0.560216,-0.354284,100.266706,-13.351416,-82.839459
53637,NaN,2.284569,9.462085,-1.669886,-0.041674,-0.009787,0.063395,-0.013972,0.002021,-0.009642,0.536457,0.522341,-0.560193,-0.354340,100.260622,-13.348056,-82.841260
53638,NaN,2.364824,9.391793,-1.687892,0.000959,-0.098768,0.017744,-0.014730,-0.002891,-0.004375,0.536459,0.522281,-0.560207,-0.354404,100.254940,-13.347619,-82.848446
53639,NaN,2.225816,9.446816,-1.664698,-0.048785,0.042727,0.034323,-0.013011,-0.002312,-0.005756,0.536460,0.522242,-0.560208,-0.354459,100.250081,-13.346008,-82.853166
53640,NaN,2.331839,9.513709,-1.645685,-0.067243,-0.049218,0.119557,-0.015264,-0.001446,-0.004597,0.536468,0.522195,-0.560209,-0.354514,100.244301,-13.345260,-82.858008
53641,NaN,2.241360,9.464270,-1.655497,-0.057791,0.029837,0.053038,-0.010108,-0.004046,-0.000014,0.536467,0.522144,-0.560234,-0.354549,100.241476,-13.346711,-82.864334
53642,NaN,2.282763,9.463543,-1.664086,-0.044037,-0.008336,0.063386,-0.008603,-0.006359,0.005495,0.536465,0.522081,-0.560283,-0.354570,100.240216,-13.351078,-82.872391
53643,NaN,2.249115,9.481178,-1.624631,-0.089806,0.022279,0.065679,-0.009447,-0.001448,0.008289,0.536485,0.522013,-0.560325,-0.354574,100.237624,-13.357476,-82.878081
53644,NaN,2.292823,9.428954,-1.685461,-0.014622,-0.019386,0.036292,-0.008486,-0.005783,0.012174,0.536500,0.521941,-0.560381,-0.354568,100.236496,-13.365489,-82.884822
53645,NaN,2.308599,9.376620,-1.678796,-0.008509,-0.045015,-0.011316,-0.006767,-0.005204,0.010794,0.536506,0.521867,-0.560444,-0.354568,100.236006,-13.372917,-82.892952
53646,NaN,2.333639,9.444628,-1.641906,-0.055488,-0.060031,0.053216,-0.005699,-0.008093,0.011235,0.536500,0.521789,-0.560521,-0.354570,100.236997,-13.380499,-82.903239
53647,NaN,2.281651,9.515229,-1.689815,-0.029903,0.013582,0.117061,-0.006030,-0.011560,0.011442,0.536487,0.521704,-0.560604,-0.354583,100.237800,-13.387645,-82.915121
53648,NaN,2.291042,9.480561,-1.712557,-0.000096,0.002327,0.089976,-0.002913,-0.010404,0.010295,0.536461,0.521625,-0.560697,-0.354592,100.240703,-13.394597,-82.928094
53649,NaN,2.375070,9.460021,-1.598959,-0.096827,-0.100363,0.070135,-0.000330,-0.007804,0.008927,0.536440,0.521569,-0.560773,-0.354586,100.244209,-13.400707,-82.937537
53650,NaN,2.352152,9.426237,-1.635308,-0.058163,-0.078500,0.038772,0.002679,-0.003757,0.002504,0.536406,0.521537,-0.560837,-0.354583,100.248941,-13.403983,-82.945692
53651,NaN,2.410600,9.476608,-1.638134,-0.059775,-0.123876,0.101023,0.008380,-0.000002,-0.000011,0.536368,0.521544,-0.560884,-0.354557,100.256174,-13.405848,-82.949678
53652,NaN,2.402947,9.459788,-1.668447,-0.029302,-0.115493,0.088387,0.011141,-0.004909,-0.012477,0.536277,0.521578,-0.560930,-0.354571,100.266317,-13.400438,-82.957156
53653,NaN,2.350867,9.460775,-1.637807,-0.066991,-0.071415,0.071931,0.014684,-0.002307,-0.018681,0.536183,0.521649,-0.560946,-0.354583,100.277017,-13.391540,-82.960517
53654,NaN,2.352616,9.513264,-1.690518,-0.028080,-0.055920,0.131704,0.015964,-0.002304,-0.025131,0.536069,0.521741,-0.560955,-0.354608,100.289089,-13.379152,-82.964159
53655,NaN,2.340084,9.479022,-1.670073,-0.044241,-0.056537,0.092455,0.021343,0.001452,-0.026037,0.535955,0.521857,-0.560953,-0.354611,100.302919,-13.366491,-82.964564
53656,NaN,2.369483,9.478457,-1.658914,-0.053605,-0.089364,0.096739,0.022528,0.003476,-0.027641,0.535837,0.521985,-0.560948,-0.354609,100.317613,-13.353204,-82.964133
53657,NaN,2.245357,9.464361,-1.684762,-0.042508,0.028997,0.059067,0.024352,0.005501,-0.032469,0.535715,0.522135,-0.560925,-0.354610,100.332468,-13.337333,-82.961507
53658,NaN,2.307770,9.411704,-1.712801,0.000827,-0.040449,0.027944,0.024887,0.004058,-0.032252,0.535590,0.522284,-0.560905,-0.354610,100.347851,-13.321547,-82.959421
53659,NaN,2.359055,9.410511,-1.666078,-0.040317,-0.101024,0.030424,0.024779,0.006948,-0.037535,0.535462,0.522452,-0.560865,-0.354620,100.362633,-13.302971,-82.955412
53660,NaN,2.315065,9.446288,-1.658569,-0.062314,-0.055996,0.053199,0.025427,0.010417,-0.039363,0.535336,0.522627,-0.560818,-0.354626,100.377473,-13.284020,-82.950289
53661,NaN,2.282927,9.465099,-1.725512,-0.007111,-0.013671,0.075538,0.025865,0.010999,-0.034297,0.535222,0.522796,-0.560778,-0.354613,100.392419,-13.267689,-82.944269
53662,NaN,2.192363,9.553632,-1.737398,-0.026839,0.090352,0.141609,0.025435,0.013888,-0.037971,0.535110,0.522980,-0.560720,-0.354601,100.406961,-13.249705,-82.936063
53663,NaN,2.246207,9.535606,-1.742254,-0.013862,0.032488,0.137560,0.022761,0.016778,-0.030354,0.535028,0.523140,-0.560668,-0.354571,100.419459,-13.236198,-82.927109
53664,NaN,2.185830,9.485109,-1.741634,-0.013166,0.078387,0.075291,0.022020,0.018805,-0.022283,0.534963,0.523278,-0.560636,-0.354516,100.432063,-13.227537,-82.918446
53665,NaN,2.266039,9.449264,-1.761981,0.022068,-0.004525,0.062919,0.016329,0.018509,-0.018362,0.534924,0.523390,-0.560600,-0.354467,100.440942,-13.220970,-82.909765
53666,NaN,2.277833,9.448767,-1.704527,-0.033287,-0.026574,0.055003,0.010419,0.016188,-0.017676,0.534893,0.523475,-0.560566,-0.354442,100.446816,-13.214827,-82.903280
53667,NaN,2.253943,9.449660,-1.740909,-0.001854,0.001422,0.056816,0.008913,0.010697,-0.015858,0.534855,0.523546,-0.560544,-0.354428,100.452542,-13.208861,-82.899387
53668,NaN,2.294532,9.483755,-1.750170,0.004444,-0.030576,0.100366,0.000857,0.014147,-0.016063,0.534851,0.523617,-0.560489,-0.354417,100.453771,-13.202838,-82.891275
53669,NaN,2.258366,9.467156,-1.711777,-0.033946,-0.006152,0.069430,0.004079,0.008956,-0.013327,0.534826,0.523665,-0.560470,-0.354414,100.457020,-13.198118,-82.888659
53670,NaN,2.232303,9.485033,-1.695672,-0.056714,0.019110,0.077750,-0.000970,0.008656,-0.012632,0.534818,0.523711,-0.560435,-0.354414,100.457874,-13.193491,-82.884164
53671,NaN,2.256562,9.467648,-1.711437,-0.034900,-0.005669,0.069427,-0.000859,0.009239,-0.005947,0.534819,0.523726,-0.560426,-0.354405,100.458437,-13.192958,-82.882172
53672,NaN,2.287302,9.432643,-1.698090,-0.036920,-0.044794,0.040568,-0.002795,0.006633,-0.007801,0.534818,0.523745,-0.560409,-0.354405,100.458528,-13.190946,-82.879988
53673,NaN,2.289733,9.450497,-1.749046,0.009434,-0.035592,0.067220,-0.007523,0.006332,-0.008719,0.534823,0.523745,-0.560388,-0.354430,100.455589,-13.188548,-82.879382
53674,NaN,2.311549,9.450152,-1.712460,-0.022907,-0.063031,0.065402,-0.006126,0.006914,-0.008488,0.534829,0.523749,-0.560368,-0.354446,100.453443,-13.186414,-82.878189
53675,NaN,2.295108,9.468098,-1.718098,-0.022590,-0.043082,0.079830,-0.009458,0.003726,-0.010574,0.534829,0.523744,-0.560346,-0.354488,100.449694,-13.182701,-82.878894
53676,NaN,2.243648,9.469131,-1.685358,-0.060191,0.001066,0.063304,-0.007845,0.002865,-0.008506,0.534825,0.523732,-0.560338,-0.354524,100.446975,-13.180260,-82.880922
53677,NaN,2.259383,9.486336,-1.677730,-0.068743,-0.012071,0.082023,-0.008488,0.006333,-0.003880,0.534842,0.523715,-0.560329,-0.354538,100.443601,-13.180589,-82.880833
53678,NaN,2.227827,9.521728,-1.689925,-0.067686,0.027621,0.110872,-0.004513,0.009521,-0.005021,0.534853,0.523711,-0.560322,-0.354540,100.442194,-13.180950,-82.880086
53679,NaN,2.259497,9.521225,-1.676051,-0.077008,-0.005194,0.115165,-0.003115,0.013571,-0.003390,0.534877,0.523720,-0.560304,-0.354519,100.440955,-13.182307,-82.875861
53680,NaN,2.261450,9.469848,-1.727734,-0.015976,-0.008524,0.075534,0.001613,0.017340,-0.001072,0.534902,0.523739,-0.560293,-0.354469,100.442026,-13.185561,-82.870179
53681,NaN,2.308978,9.451626,-1.707784,-0.026071,-0.061024,0.065407,0.001935,0.013873,-0.004084,0.534913,0.523764,-0.560282,-0.354435,100.443624,-13.186559,-82.865705
53682,NaN,2.318064,9.451739,-1.730132,-0.003546,-0.066125,0.071530,0.001505,0.016760,-0.007758,0.534926,0.523805,-0.560252,-0.354402,100.444736,-13.185899,-82.858950
53683,NaN,2.276909,9.487071,-1.720396,-0.025468,-0.021105,0.094254,0.002688,0.018786,-0.009364,0.534939,0.523856,-0.560214,-0.354367,100.445988,-13.184433,-82.851069
53684,NaN,2.225712,9.487863,-1.688492,-0.063042,0.023057,0.077703,0.004085,0.019368,-0.009132,0.534950,0.523909,-0.560179,-0.354326,100.447931,-13.183346,-82.843042
53685,NaN,2.250979,9.504936,-1.703985,-0.048597,0.004540,0.102549,-0.001074,0.017622,-0.004991,0.534978,0.523935,-0.560150,-0.354293,100.447288,-13.184223,-82.836302
53686,NaN,2.275218,9.452948,-1.719911,-0.019537,-0.026579,0.061109,0.002902,0.020812,-0.006131,0.535001,0.523987,-0.560114,-0.354238,100.449029,-13.184681,-82.826860
53687,NaN,2.291158,9.469969,-1.713051,-0.028108,-0.039708,0.079830,0.005159,0.019951,-0.007288,0.535014,0.524041,-0.560083,-0.354187,100.451595,-13.184506,-82.818527
53688,NaN,2.280906,9.435506,-1.690770,-0.044255,-0.040320,0.040557,0.005158,0.023420,-0.005891,0.535037,0.524095,-0.560050,-0.354124,100.454019,-13.185602,-82.808799
53689,NaN,2.258761,9.470734,-1.726398,-0.020149,-0.006074,0.075528,0.007202,0.024004,-0.008886,0.535054,0.524165,-0.560008,-0.354061,100.457181,-13.184948,-82.797950
53690,NaN,2.249666,9.505282,-1.703794,-0.051026,0.005912,0.102536,0.007951,0.024586,-0.005428,0.535072,0.524225,-0.559981,-0.353987,100.461148,-13.186532,-82.788128
53691,NaN,2.240245,9.505193,-1.681747,-0.074477,0.011579,0.096399,0.012570,0.019978,-0.002450,0.535075,0.524285,-0.559976,-0.353903,100.468073,-13.189088,-82.780296
53692,NaN,2.203060,9.557725,-1.724639,-0.049630,0.065565,0.145786,0.012781,0.022005,0.000783,0.535083,0.524331,-0.559984,-0.353810,100.475108,-13.193998,-82.773347
53693,NaN,2.234123,9.487867,-1.712313,-0.044259,0.020168,0.083806,0.007733,0.018232,0.000074,0.535098,0.524368,-0.559981,-0.353737,100.479553,-13.197795,-82.766797
53694,NaN,2.284818,9.452505,-1.744614,-0.000267,-0.029688,0.067244,0.008693,0.017372,0.005371,0.535114,0.524383,-0.560004,-0.353654,100.484890,-13.204791,-82.762685
53695,NaN,2.260623,9.469820,-1.728968,-0.022940,-0.004332,0.075523,0.006435,0.018234,0.006525,0.535143,0.524398,-0.560017,-0.353567,100.488749,-13.212224,-82.756825
53696,NaN,2.286481,9.452037,-1.744976,-0.001142,-0.029100,0.067246,0.002249,0.013017,0.004428,0.535165,0.524393,-0.560034,-0.353514,100.490709,-13.218238,-82.754473
53697,NaN,2.271524,9.469465,-1.751473,-0.000810,-0.009145,0.081663,0.003108,0.015043,0.004435,0.535191,0.524400,-0.560043,-0.353451,100.493031,-13.224162,-82.750236
53698,NaN,2.253916,9.503867,-1.706065,-0.054645,0.008267,0.102515,-0.000332,0.010409,0.005798,0.535215,0.524384,-0.560064,-0.353405,100.494109,-13.230563,-82.748986
53699,NaN,2.291861,9.469206,-1.795922,0.044284,-0.019396,0.093951,-0.002802,0.012714,0.005113,0.535251,0.524368,-0.560071,-0.353362,100.493370,-13.236626,-82.746170
53700,NaN,2.304811,9.434011,-1.737266,-0.003714,-0.047615,0.052835,-0.001940,0.011270,0.003725,0.535275,0.524346,-0.560089,-0.353331,100.493172,-13.242196,-82.745759
53701,NaN,2.302524,9.450995,-1.684759,-0.058312,-0.049911,0.059265,-0.006878,0.012410,0.000959,0.535313,0.524330,-0.560079,-0.353312,100.490035,-13.245886,-82.742673
53702,NaN,2.302413,9.416508,-1.684147,-0.051419,-0.055934,0.026129,-0.004735,0.013576,0.004652,0.535355,0.524312,-0.560080,-0.353273,100.488244,-13.251899,-82.739484
53703,NaN,2.264395,9.400234,-1.725928,-0.011776,-0.014628,0.009245,-0.008599,0.011829,0.002336,0.535398,0.524287,-0.560072,-0.353257,100.484231,-13.256305,-82.736882
53704,NaN,2.357289,9.433583,-1.765355,0.031495,-0.090397,0.069449,-0.008808,0.009802,-0.000898,0.535429,0.524263,-0.560066,-0.353257,100.480429,-13.258912,-82.735929
53705,NaN,2.322718,9.451403,-1.725717,-0.014167,-0.059610,0.071562,-0.011811,0.010082,-0.003206,0.535466,0.524242,-0.560042,-0.353269,100.474672,-13.260012,-82.733744
53706,NaN,2.266342,9.504422,-1.721551,-0.035225,0.005180,0.108644,-0.012997,0.008056,-0.001602,0.535507,0.524209,-0.560025,-0.353284,100.468291,-13.261964,-82.732670
53707,NaN,2.244249,9.505248,-1.756146,-0.003731,0.033100,0.110485,-0.010644,0.007777,0.003931,0.535547,0.524168,-0.560028,-0.353280,100.463683,-13.266846,-82.732582
53708,NaN,2.279205,9.487869,-1.793012,0.041019,0.002908,0.108383,-0.019882,0.002258,0.002514,0.535589,0.524084,-0.560036,-0.353326,100.454508,-13.270781,-82.737482
53709,NaN,2.308172,9.469825,-1.726273,-0.015153,-0.038744,0.085976,-0.015485,0.006030,0.006452,0.535642,0.524019,-0.560042,-0.353333,100.447420,-13.276902,-82.738674
53710,NaN,2.339226,9.400344,-1.711634,-0.009849,-0.084142,0.024028,-0.019232,0.005729,0.000682,0.535690,0.523955,-0.560034,-0.353369,100.438390,-13.280013,-82.740436
53711,NaN,2.365171,9.417595,-1.725267,0.004528,-0.102671,0.048910,-0.019771,0.010643,0.001852,0.535759,0.523900,-0.560008,-0.353388,100.428120,-13.284021,-82.738465
53712,NaN,2.363121,9.469348,-1.671100,-0.057479,-0.098579,0.088446,-0.019117,0.007175,-0.002770,0.535808,0.523852,-0.559981,-0.353426,100.418661,-13.285216,-82.738133
53713,NaN,2.289662,9.471069,-1.673547,-0.063004,-0.026754,0.073656,-0.016742,0.007760,-0.007374,0.535844,0.523825,-0.559944,-0.353469,100.410284,-13.283726,-82.736848
53714,NaN,2.308076,9.471541,-1.716961,-0.017592,-0.037364,0.085977,-0.013737,0.004011,-0.006462,0.535861,0.523803,-0.559926,-0.353507,100.404903,-13.282307,-82.737596
53715,NaN,2.297366,9.437425,-1.693203,-0.033644,-0.037994,0.046686,-0.016416,0.007762,-0.008987,0.535894,0.523781,-0.559885,-0.353553,100.396674,-13.279907,-82.736139
53716,NaN,2.296970,9.437831,-1.691473,-0.034084,-0.037702,0.046685,-0.016324,0.008339,-0.002302,0.535941,0.523743,-0.559859,-0.353578,100.388530,-13.281468,-82.734791
53717,NaN,2.300235,9.455793,-1.741559,0.012239,-0.028599,0.073422,-0.010737,0.007199,-0.002757,0.535968,0.523719,-0.559846,-0.353593,100.383782,-13.282520,-82.734322
53718,NaN,2.258676,9.456717,-1.731183,-0.002325,0.010169,0.062939,-0.014062,0.004011,-0.004853,0.535988,0.523685,-0.559836,-0.353631,100.378071,-13.282187,-82.736068
53719,NaN,2.265824,9.508416,-1.700049,-0.041331,0.008839,0.108618,-0.014181,0.006032,-0.000005,0.536026,0.523642,-0.559827,-0.353652,100.371571,-13.284671,-82.736567
53720,NaN,2.234808,9.543830,-1.711616,-0.040209,0.048560,0.137423,-0.016876,-0.001493,0.003412,0.536053,0.523561,-0.559850,-0.353695,100.364651,-13.288637,-82.743066
53721,NaN,2.250218,9.491889,-1.703913,-0.034052,0.022799,0.089892,-0.015269,-0.002357,0.005485,0.536080,0.523484,-0.559876,-0.353726,100.358779,-13.293351,-82.749003
53722,NaN,2.269914,9.492101,-1.747415,0.011460,0.012198,0.102234,-0.016785,-0.000918,0.010097,0.536124,0.523397,-0.559905,-0.353741,100.352056,-13.300845,-82.753982
53723,NaN,2.318024,9.473958,-1.725787,0.001240,-0.040289,0.092151,-0.018275,0.001395,0.004573,0.536168,0.523321,-0.559914,-0.353773,100.343941,-13.305431,-82.757649
53724,NaN,2.349779,9.438924,-1.711039,-0.000857,-0.079450,0.063349,-0.016668,0.000530,0.006646,0.536211,0.523252,-0.559927,-0.353789,100.337317,-13.310953,-82.760640
53725,NaN,2.372431,9.438398,-1.673389,-0.033276,-0.106798,0.061496,-0.018045,0.007761,-0.000927,0.536262,0.523204,-0.559905,-0.353819,100.328351,-13.313095,-82.760038
53726,NaN,2.356153,9.421810,-1.678543,-0.025630,-0.093175,0.042775,-0.014600,0.008929,-0.003679,0.536300,0.523176,-0.559880,-0.353841,100.321705,-13.313854,-82.758642
53727,NaN,2.372020,9.439082,-1.670108,-0.034275,-0.106262,0.061498,-0.013087,0.010961,-0.006892,0.536336,0.523164,-0.559842,-0.353864,100.315009,-13.312961,-82.755557
53728,NaN,2.315047,9.492233,-1.665794,-0.055283,-0.041414,0.098520,-0.010388,0.015021,-0.011704,0.536372,0.523180,-0.559783,-0.353879,100.308924,-13.309952,-82.748996
53729,NaN,2.297438,9.441212,-1.671857,-0.040130,-0.034134,0.046675,-0.007596,0.016184,-0.011231,0.536402,0.523204,-0.559729,-0.353885,100.304572,-13.307149,-82.742428
53730,NaN,2.297073,9.476120,-1.670591,-0.047981,-0.027501,0.079795,-0.004796,0.010412,-0.013558,0.536404,0.523232,-0.559689,-0.353902,100.302525,-13.302531,-82.738700
53731,NaN,2.321680,9.493532,-1.685364,-0.033649,-0.046029,0.104699,-0.005546,0.016772,-0.014220,0.536425,0.523271,-0.559629,-0.353909,100.299198,-13.298102,-82.731477
53732,NaN,2.335061,9.407339,-1.678571,-0.020176,-0.078113,0.024062,-0.007479,0.017635,-0.014683,0.536445,0.523299,-0.559574,-0.353924,100.295153,-13.293828,-82.725517
53733,NaN,2.312575,9.477682,-1.712598,-0.003457,-0.037541,0.092162,-0.006062,0.026035,-0.021783,0.536479,0.523374,-0.559469,-0.353928,100.290116,-13.286083,-82.712135
53734,NaN,2.276382,9.495639,-1.673173,-0.049166,-0.006638,0.094185,-0.003382,0.022281,-0.019260,0.536495,0.523438,-0.559393,-0.353928,100.287740,-13.279612,-82.702259
53735,NaN,2.306049,9.461006,-1.659114,-0.051210,-0.045770,0.065391,-0.006383,0.022566,-0.021575,0.536520,0.523506,-0.559297,-0.353942,100.282989,-13.271627,-82.690910
53736,NaN,2.304381,9.461602,-1.658032,-0.051759,-0.045514,0.065389,-0.005845,0.021122,-0.021352,0.536540,0.523576,-0.559206,-0.353951,100.279357,-13.263612,-82.679927
53737,NaN,2.305499,9.445504,-1.708840,0.001960,-0.042808,0.059048,-0.005405,0.026046,-0.025016,0.536566,0.523662,-0.559094,-0.353962,100.274625,-13.254042,-82.666203
53738,NaN,2.294057,9.446070,-1.685192,-0.021554,-0.037056,0.052857,-0.005621,0.030963,-0.025457,0.536601,0.523752,-0.558975,-0.353964,100.269616,-13.244950,-82.650778
53739,NaN,2.308380,9.463698,-1.676885,-0.030217,-0.050130,0.071579,-0.007881,0.031823,-0.024312,0.536652,0.523839,-0.558844,-0.353964,100.262721,-13.236364,-82.633786
53740,NaN,2.296916,9.464292,-1.653031,-0.053689,-0.044394,0.065384,-0.005828,0.032415,-0.027301,0.536691,0.523941,-0.558711,-0.353965,100.257134,-13.226229,-82.616454
53741,NaN,2.242193,9.535402,-1.700140,-0.027955,0.029232,0.129151,-0.011546,0.035568,-0.022010,0.536766,0.524018,-0.558570,-0.353960,100.247705,-13.219319,-82.597537
53742,NaN,2.208686,9.502089,-1.712403,-0.012060,0.056204,0.091706,-0.008450,0.028918,-0.015807,0.536820,0.524072,-0.558475,-0.353947,100.241664,-13.215421,-82.583979
53743,NaN,2.204221,9.484723,-1.659592,-0.059253,0.047696,0.064914,-0.007165,0.024581,-0.013518,0.536867,0.524118,-0.558393,-0.353936,100.236406,-13.212175,-82.572316
53744,NaN,2.213268,9.485253,-1.680483,-0.036784,0.042498,0.071110,-0.014074,0.025698,-0.006629,0.536948,0.524133,-0.558313,-0.353918,100.227572,-13.212952,-82.560161
53745,NaN,2.242075,9.485991,-1.745925,0.031690,0.026372,0.089710,-0.014525,0.024241,-0.001567,0.537035,0.524125,-0.558251,-0.353896,100.218427,-13.216408,-82.549944
53746,NaN,2.273152,9.416663,-1.731044,0.037004,-0.019117,0.027818,-0.019577,0.023931,-0.000904,0.537133,0.524099,-0.558187,-0.353887,100.206762,-13.220397,-82.540574
53747,NaN,2.254972,9.451223,-1.683230,-0.016809,-0.001545,0.048525,-0.021962,0.023334,0.003691,0.537246,0.524055,-0.558127,-0.353874,100.193601,-13.226721,-82.531429
53748,NaN,2.287838,9.485413,-1.666733,-0.033775,-0.027927,0.085966,-0.020875,0.016978,0.002740,0.537335,0.524004,-0.558088,-0.353876,100.182203,-13.232006,-82.526270
53749,NaN,2.240929,9.469344,-1.684593,-0.016950,0.018716,0.062912,-0.028974,0.016060,0.011221,0.537459,0.523908,-0.558056,-0.353882,100.166165,-13.241838,-82.522119
53750,NaN,2.254727,9.468618,-1.623149,-0.072438,-0.003081,0.054829,-0.028537,0.006226,0.012092,0.537554,0.523789,-0.558058,-0.353910,100.152061,-13.251381,-82.524481
53751,NaN,2.259763,9.486706,-1.671567,-0.026141,0.005952,0.081631,-0.033175,0.003017,0.016427,0.537662,0.523644,-0.558067,-0.353947,100.135470,-13.262830,-82.528422
53752,NaN,2.267564,9.469094,-1.639313,-0.050377,-0.008018,0.061032,-0.035344,-0.002500,0.021454,0.537772,0.523473,-0.558096,-0.353986,100.118581,-13.276534,-82.535145
53753,NaN,2.279225,9.469340,-1.658515,-0.027856,-0.013222,0.067241,-0.035458,-0.007422,0.023497,0.537869,0.523283,-0.558147,-0.354038,100.102241,-13.290923,-82.545860
53754,NaN,2.240680,9.504394,-1.645785,-0.049722,0.031969,0.089800,-0.040096,-0.010630,0.027827,0.537974,0.523060,-0.558216,-0.354101,100.084164,-13.307637,-82.559670
53755,NaN,2.268543,9.486932,-1.658335,-0.028011,0.007055,0.081625,-0.036356,-0.013812,0.032205,0.538072,0.522832,-0.558305,-0.354148,100.068374,-13.326304,-82.574980
53756,NaN,2.325163,9.485221,-1.605575,-0.069607,-0.053317,0.084079,-0.036561,-0.012358,0.030364,0.538173,0.522624,-0.558377,-0.354187,100.052721,-13.343852,-82.587277
53757,NaN,2.372184,9.468065,-1.663374,-0.001973,-0.089191,0.088341,-0.033762,-0.014658,0.029438,0.538257,0.522409,-0.558466,-0.354237,100.038472,-13.360882,-82.602785
53758,NaN,2.343081,9.468637,-1.674094,0.006585,-0.055897,0.084006,-0.033233,-0.012636,0.031064,0.538350,0.522202,-0.558551,-0.354269,100.024593,-13.379008,-82.616085
53759,NaN,2.399829,9.501453,-1.620732,-0.042390,-0.109825,0.119569,-0.039842,-0.007693,0.020913,0.538453,0.522006,-0.558588,-0.354341,100.005731,-13.391929,-82.626673
53760,NaN,2.248380,9.452996,-1.656745,-0.013976,0.034995,0.044175,-0.037698,-0.013474,0.021802,0.538533,0.521806,-0.558650,-0.354416,99.989535,-13.404851,-82.640932
53761,NaN,2.291500,9.452594,-1.662368,-0.000522,-0.003250,0.054732,-0.039740,-0.020997,0.021960,0.538601,0.521584,-0.558726,-0.354520,99.972550,-13.417048,-82.659337
53762,NaN,2.251821,9.453336,-1.650118,-0.014953,0.035536,0.044171,-0.043177,-0.029098,0.021872,0.538653,0.521341,-0.558819,-0.354651,99.955211,-13.428458,-82.682404
53763,NaN,2.317959,9.520990,-1.618619,-0.048424,-0.017469,0.119053,-0.039840,-0.036310,0.019755,0.538674,0.521098,-0.558931,-0.354800,99.940186,-13.437906,-82.709464
53764,NaN,2.430465,9.535705,-1.567787,-0.084446,-0.129589,0.150789,-0.042923,-0.029630,0.013563,0.538708,0.520876,-0.559007,-0.354956,99.922929,-13.444667,-82.732443
53765,NaN,2.230307,9.471546,-1.624562,-0.038532,0.061565,0.052321,-0.038121,-0.028790,0.021196,0.538748,0.520647,-0.559104,-0.355077,99.907915,-13.455685,-82.755283
53766,NaN,2.308145,9.488583,-1.668254,0.012505,-0.000957,0.094061,-0.040667,-0.027018,0.013818,0.538785,0.520435,-0.559176,-0.355218,99.891377,-13.462865,-82.776491
53767,NaN,2.464093,9.451886,-1.679034,0.052073,-0.155668,0.097010,-0.039362,-0.016592,0.011610,0.538846,0.520251,-0.559213,-0.355337,99.873783,-13.469684,-82.791277
53768,NaN,2.394243,9.417542,-1.599881,-0.023810,-0.106784,0.034655,-0.041173,-0.010794,0.009114,0.538916,0.520075,-0.559235,-0.355454,99.855020,-13.475841,-82.803811
53769,NaN,2.276516,9.387215,-1.673506,0.042478,0.013701,-0.009578,-0.042679,-0.026684,0.006648,0.538948,0.519878,-0.559280,-0.355621,99.836777,-13.478879,-82.823952
53770,NaN,2.465808,9.487958,-1.667918,0.042984,-0.148460,0.130130,-0.042110,-0.020277,-0.000435,0.538981,0.519719,-0.559293,-0.355785,99.818643,-13.478525,-82.839472
53771,NaN,2.427244,9.487495,-1.574409,-0.049299,-0.126202,0.105199,-0.042201,-0.010429,-0.002877,0.539040,0.519579,-0.559271,-0.355934,99.798251,-13.477785,-82.849218
53772,NaN,2.222499,9.440248,-1.578862,-0.057594,0.062629,0.012960,-0.035663,-0.019398,-0.000861,0.539052,0.519427,-0.559303,-0.356087,99.783727,-13.477594,-82.866357
53773,NaN,2.337653,9.507920,-1.578807,-0.054319,-0.034351,0.104654,-0.039522,-0.021119,-0.003208,0.539074,0.519276,-0.559314,-0.356257,99.766309,-13.475632,-82.882277
53774,NaN,2.441118,9.471794,-1.558634,-0.051796,-0.145021,0.090826,-0.033167,-0.013855,-0.007477,0.539084,0.519162,-0.559317,-0.356404,99.752331,-13.472234,-82.895190
53775,NaN,2.391518,9.422064,-1.577171,-0.027416,-0.104823,0.034667,-0.032514,-0.010371,-0.009282,0.539107,0.519066,-0.559295,-0.356544,99.737333,-13.467894,-82.904265
53776,NaN,2.311039,9.442325,-1.607620,-0.008942,-0.018772,0.040354,-0.030880,-0.006851,-0.015919,0.539120,0.518997,-0.559255,-0.356687,99.723174,-13.460301,-82.911267
53777,NaN,2.319983,9.512592,-1.625859,-0.001364,-0.011177,0.112786,-0.027643,-0.004212,-0.020482,0.539127,0.518957,-0.559197,-0.356827,99.709873,-13.450235,-82.915653
53778,NaN,2.388165,9.528242,-1.566771,-0.051404,-0.084726,0.133954,-0.027527,0.000720,-0.022503,0.539138,0.518929,-0.559127,-0.356958,99.696774,-13.439664,-82.917881
53779,NaN,2.287299,9.513390,-1.553147,-0.071260,0.005910,0.094051,-0.028389,0.002155,-0.021111,0.539164,0.518900,-0.559048,-0.357085,99.682172,-13.429859,-82.918513
53780,NaN,2.230466,9.481953,-1.600704,-0.023212,0.060296,0.058507,-0.028705,-0.008232,-0.023771,0.539153,0.518860,-0.558994,-0.357245,99.669557,-13.417605,-82.925178
53781,NaN,2.317701,9.498319,-1.586714,-0.027218,-0.024272,0.092166,-0.026686,-0.008574,-0.016621,0.539152,0.518803,-0.558959,-0.357383,99.657481,-13.409305,-82.932489
53782,NaN,2.346986,9.463792,-1.571850,-0.029392,-0.063435,0.063421,-0.024846,-0.006508,-0.021428,0.539144,0.518773,-0.558909,-0.357518,99.646557,-13.398518,-82.937585
53783,NaN,2.328554,9.447864,-1.576949,-0.021549,-0.049858,0.044702,-0.021401,-0.005323,-0.024162,0.539125,0.518757,-0.558855,-0.357653,99.636898,-13.386272,-82.942267
53784,NaN,2.390251,9.481562,-1.547451,-0.047786,-0.109188,0.086490,-0.016777,0.001358,-0.027052,0.539107,0.518776,-0.558785,-0.357763,99.629407,-13.373108,-82.942719
53785,NaN,2.314968,9.518304,-1.549393,-0.060421,-0.030939,0.104630,-0.014616,0.006899,-0.032046,0.539091,0.518823,-0.558690,-0.357869,99.621814,-13.357581,-82.939531
53786,NaN,2.311575,9.484730,-1.548761,-0.053513,-0.037079,0.071538,-0.013548,0.007464,-0.030191,0.539074,0.518870,-0.558602,-0.357961,99.615492,-13.343254,-82.936238
53787,NaN,2.350001,9.485271,-1.556301,-0.040140,-0.075329,0.082142,-0.013110,0.012413,-0.033818,0.539066,0.518936,-0.558490,-0.358054,99.607986,-13.327253,-82.929679
53788,NaN,2.280036,9.469368,-1.530461,-0.069217,-0.017743,0.046557,-0.011395,0.016465,-0.033761,0.539061,0.519018,-0.558373,-0.358125,99.601927,-13.311579,-82.920622
53789,NaN,2.255306,9.506122,-1.563804,-0.045071,0.016460,0.081550,-0.015796,0.019648,-0.034905,0.539078,0.519092,-0.558233,-0.358209,99.591896,-13.295653,-82.909762
53790,NaN,2.220973,9.507808,-1.575584,-0.036504,0.049746,0.077196,-0.009923,0.021024,-0.025399,0.539098,0.519161,-0.558128,-0.358243,99.585961,-13.285272,-82.899096
53791,NaN,2.216186,9.524441,-1.522003,-0.091139,0.047779,0.083391,-0.010906,0.020979,-0.020565,0.539132,0.519210,-0.558032,-0.358271,99.578883,-13.277572,-82.888874
53792,NaN,2.198195,9.473613,-1.528702,-0.075942,0.054934,0.031578,-0.008563,0.020646,-0.015021,0.539162,0.519248,-0.557963,-0.358279,99.574207,-13.273161,-82.880558
53793,NaN,2.242070,9.492243,-1.587684,-0.015870,0.025355,0.069083,-0.008471,0.017707,-0.009754,0.539200,0.519268,-0.557907,-0.358279,99.569206,-13.271256,-82.873296
53794,NaN,2.276396,9.475815,-1.625078,0.028631,-0.005181,0.067246,-0.009455,0.017660,-0.004919,0.539249,0.519282,-0.557858,-0.358261,99.564427,-13.271909,-82.865162
53795,NaN,2.256886,9.440660,-1.579338,-0.010208,-0.000290,0.021630,-0.017959,0.019618,-0.000111,0.539335,0.519253,-0.557805,-0.358257,99.553952,-13.275632,-82.857734
53796,NaN,2.283305,9.492742,-1.591815,-0.003697,-0.012424,0.079700,-0.012372,0.018481,-0.000548,0.539397,0.519245,-0.557766,-0.358234,99.547913,-13.278920,-82.850550
53797,NaN,2.258395,9.510181,-1.573703,-0.026256,0.013106,0.087796,-0.020854,0.013524,0.001403,0.539476,0.519193,-0.557729,-0.358250,99.536625,-13.282918,-82.846807
53798,NaN,2.300249,9.510064,-1.580623,-0.012987,-0.025116,0.098420,-0.016572,0.008865,0.005988,0.539533,0.519127,-0.557731,-0.358256,99.528936,-13.289315,-82.847403
53799,NaN,2.316670,9.492576,-1.572185,-0.014265,-0.044561,0.084056,-0.022060,0.018397,0.005836,0.539637,0.519068,-0.557689,-0.358250,99.516405,-13.296278,-82.841261
53800,NaN,2.227925,9.442562,-1.582288,-0.003677,0.034075,0.017271,-0.025823,0.013733,0.008745,0.539739,0.518988,-0.557662,-0.358254,99.503282,-13.304409,-82.837735
53801,NaN,2.336653,9.424998,-1.613498,0.045552,-0.067982,0.030443,-0.027953,0.012608,0.005022,0.539839,0.518906,-0.557624,-0.358282,99.488128,-13.310362,-82.834871
53802,NaN,2.334799,9.475752,-1.557119,-0.016765,-0.063494,0.069695,-0.034932,0.013170,0.005204,0.539955,0.518809,-0.557576,-0.358323,99.469957,-13.316470,-82.831821
53803,NaN,2.280684,9.409283,-1.605003,0.039030,-0.015638,0.001099,-0.033867,0.013733,0.007062,0.540078,0.518706,-0.557529,-0.358359,99.451308,-13.323680,-82.828498
53804,NaN,2.346818,9.546106,-1.570341,-0.009863,-0.055619,0.142134,-0.034710,0.023049,0.001179,0.540217,0.518643,-0.557438,-0.358382,99.431612,-13.328281,-82.818230
53805,NaN,2.187651,9.495204,-1.503039,-0.081667,0.078183,0.045866,-0.039442,0.011420,0.006055,0.540346,0.518524,-0.557385,-0.358442,99.410055,-13.334702,-82.816149
53806,NaN,2.334776,9.527871,-1.488925,-0.080585,-0.058199,0.108931,-0.038871,-0.000393,0.001975,0.540428,0.518402,-0.557357,-0.358538,99.391426,-13.337667,-82.820527
53807,NaN,2.249283,9.531509,-1.548229,-0.030607,0.035551,0.102137,-0.042944,-0.011986,0.003623,0.540496,0.518239,-0.557355,-0.358675,99.370945,-13.340527,-82.831806
53808,NaN,2.356240,9.445288,-1.580736,0.033484,-0.079420,0.049190,-0.038104,-0.010212,0.001148,0.540549,0.518098,-0.557354,-0.358800,99.353520,-13.342262,-82.842225
53809,NaN,2.305640,9.480198,-1.544747,-0.011164,-0.028603,0.065341,-0.042492,-0.010479,-0.001433,0.540612,0.517953,-0.557335,-0.358945,99.332985,-13.342410,-82.852143
53810,NaN,2.327813,9.513978,-1.504122,-0.051350,-0.049328,0.096490,-0.038179,-0.010711,-0.005555,0.540651,0.517831,-0.557318,-0.359089,99.315613,-13.340270,-82.862118
53811,NaN,2.244579,9.515271,-1.482814,-0.079311,0.028043,0.075193,-0.040549,-0.014800,-0.002410,0.540694,0.517686,-0.557311,-0.359243,99.296749,-13.339473,-82.874454
53812,NaN,2.376658,9.446603,-1.530775,-0.000670,-0.105795,0.047276,-0.039363,-0.012752,-0.003987,0.540736,0.517559,-0.557296,-0.359386,99.278980,-13.337901,-82.884668
53813,NaN,2.316319,9.515474,-1.471429,-0.075752,-0.042957,0.090196,-0.035797,-0.010067,-0.010146,0.540767,0.517456,-0.557265,-0.359535,99.262035,-13.333172,-82.893520
53814,NaN,2.349740,9.499760,-1.507184,-0.031388,-0.073554,0.088420,-0.029981,-0.004777,-0.016015,0.540783,0.517407,-0.557214,-0.359661,99.248856,-13.325428,-82.897699
53815,NaN,2.304236,9.516346,-1.443377,-0.099788,-0.036896,0.083896,-0.027445,-0.003145,-0.007205,0.540816,0.517331,-0.557187,-0.359761,99.235833,-13.323004,-82.902808
53816,NaN,2.223479,9.467330,-1.476360,-0.065980,0.036207,0.023377,-0.026380,-0.002587,-0.005344,0.540853,0.517253,-0.557166,-0.359852,99.223233,-13.321802,-82.907702
53817,NaN,2.299922,9.520114,-1.519416,-0.022700,-0.019954,0.098414,-0.024119,-0.003435,-0.006492,0.540878,0.517184,-0.557147,-0.359942,99.212169,-13.319757,-82.913049
53818,NaN,2.257870,9.486296,-1.509365,-0.029346,0.012431,0.054681,-0.024052,0.000511,0.001643,0.540930,0.517098,-0.557139,-0.360000,99.200640,-13.322791,-82.916801
53819,NaN,2.356308,9.468380,-1.518950,-0.003160,-0.084110,0.061650,-0.020080,0.003714,0.000575,0.540978,0.517033,-0.557127,-0.360041,99.191087,-13.325399,-82.918658
53820,NaN,2.216460,9.452602,-1.497559,-0.036426,0.045098,0.010943,-0.016449,0.010347,0.002558,0.541039,0.516983,-0.557109,-0.360049,99.182616,-13.329852,-82.916779
53821,NaN,2.292057,9.589625,-1.486304,-0.062418,-0.000272,0.158252,-0.019905,0.012601,0.006715,0.541122,0.516917,-0.557089,-0.360050,99.172105,-13.336746,-82.914046
53822,NaN,2.192319,9.435533,-1.477823,-0.051850,0.064502,-0.014082,-0.031183,0.009940,0.009566,0.541233,0.516807,-0.557063,-0.360082,99.155397,-13.345124,-82.913058
53823,NaN,2.461697,9.504398,-1.570961,0.060846,-0.164673,0.128673,-0.020058,0.036274,0.010096,0.541388,0.516773,-0.556987,-0.360013,99.141691,-13.356086,-82.896875
53824,NaN,2.232022,9.557366,-1.505811,-0.037799,0.060144,0.116441,-0.022448,0.053894,0.011741,0.541603,0.516760,-0.556864,-0.359901,99.124128,-13.369692,-82.870530
53825,NaN,2.179179,9.503482,-1.421354,-0.114040,0.089449,0.039431,-0.025360,0.036438,0.019032,0.541788,0.516688,-0.556801,-0.359822,99.107546,-13.385715,-82.855077
53826,NaN,2.286260,9.501276,-1.400042,-0.119155,-0.014767,0.058834,-0.026098,0.021096,0.019921,0.541935,0.516582,-0.556781,-0.359782,99.092469,-13.400960,-82.848557
53827,NaN,2.285536,9.504098,-1.478031,-0.041636,0.001823,0.073383,-0.025024,0.018200,0.020342,0.542071,0.516475,-0.556772,-0.359746,99.078557,-13.416066,-82.843823
53828,NaN,2.291457,9.522994,-1.526497,0.004618,0.010739,0.100347,-0.020956,0.014986,0.023095,0.542194,0.516364,-0.556786,-0.359700,99.067313,-13.432552,-82.841144
53829,NaN,2.258652,9.504699,-1.486430,-0.033298,0.035403,0.069009,-0.026014,0.018135,0.025168,0.542341,0.516240,-0.556788,-0.359653,99.052943,-13.450381,-82.836888
53830,NaN,2.343485,9.469390,-1.502584,0.001217,-0.047878,0.057304,-0.024940,0.015239,0.025589,0.542479,0.516111,-0.556800,-0.359610,99.039433,-13.468298,-82.834285
53831,NaN,2.377256,9.433713,-1.487432,-0.000919,-0.087066,0.028611,-0.026218,0.019611,0.023340,0.542628,0.515994,-0.556792,-0.359566,99.024701,-13.485223,-82.828991
53832,NaN,2.342924,9.522044,-1.523999,0.016564,-0.026634,0.111031,-0.030058,0.014457,0.019519,0.542766,0.515867,-0.556782,-0.359555,99.008231,-13.499635,-82.826273
53833,NaN,2.284413,9.521017,-1.467012,-0.043417,0.023341,0.087717,-0.033498,0.009810,0.020782,0.542901,0.515720,-0.556781,-0.359563,98.990600,-13.514231,-82.826436
53834,NaN,2.282785,9.501919,-1.412574,-0.090518,0.015055,0.060737,-0.036394,0.000263,0.020813,0.543019,0.515547,-0.556801,-0.359603,98.972456,-13.528103,-82.832090
53835,NaN,2.294348,9.502652,-1.431606,-0.068051,0.009772,0.067050,-0.037361,-0.010158,0.021309,0.543109,0.515352,-0.556849,-0.359672,98.955341,-13.541215,-82.843916
53836,NaN,2.331572,9.520828,-1.465756,-0.031030,-0.014308,0.098401,-0.035636,-0.009557,0.019951,0.543196,0.515165,-0.556895,-0.359738,98.938952,-13.553728,-82.855200
53837,NaN,2.390137,9.502774,-1.465405,-0.018643,-0.072314,0.094750,-0.032721,-0.006908,0.017031,0.543275,0.515001,-0.556932,-0.359797,98.923964,-13.564714,-82.864737
53838,NaN,2.398182,9.518875,-1.432400,-0.050374,-0.079673,0.107149,-0.034861,-0.001107,0.016186,0.543377,0.514842,-0.556946,-0.359849,98.906787,-13.575852,-82.870750
53839,NaN,2.304534,9.522195,-1.469946,-0.023129,0.019556,0.094022,-0.033791,-0.004005,0.016604,0.543466,0.514680,-0.556971,-0.359904,98.890781,-13.586859,-82.878552
53840,NaN,2.298979,9.471843,-1.497954,0.015286,0.021030,0.048565,-0.039606,-0.016197,0.019538,0.543544,0.514472,-0.557027,-0.359999,98.873024,-13.598563,-82.893653
53841,NaN,2.290499,9.436729,-1.473526,-0.000531,0.020392,0.009181,-0.040591,-0.019719,0.022914,0.543619,0.514247,-0.557099,-0.360097,98.855412,-13.611760,-82.911174
53842,NaN,2.355644,9.434604,-1.443179,-0.019434,-0.045258,0.017935,-0.039510,-0.029513,0.020432,0.543660,0.514012,-0.557193,-0.360223,98.839560,-13.622804,-82.934108
53843,NaN,2.380150,9.501922,-1.401178,-0.067126,-0.059363,0.082104,-0.042905,-0.029678,0.013009,0.543695,0.513790,-0.557263,-0.360380,98.821783,-13.629527,-82.956529
53844,NaN,2.389923,9.468422,-1.422074,-0.037102,-0.071137,0.055373,-0.035719,-0.035181,0.013208,0.543698,0.513575,-0.557360,-0.360530,98.808732,-13.635997,-82.982107
53845,NaN,2.387671,9.483787,-1.367045,-0.091770,-0.072917,0.061434,-0.037322,-0.030828,0.012579,0.543715,0.513367,-0.557442,-0.360675,98.794307,-13.642387,-83.005156
53846,NaN,2.422850,9.467726,-1.403562,-0.047235,-0.103512,0.059753,-0.025259,-0.023186,0.004562,0.543709,0.513227,-0.557503,-0.360789,98.785421,-13.645023,-83.022964
53847,NaN,2.413440,9.467184,-1.379271,-0.070598,-0.097637,0.053423,-0.022887,-0.012193,0.004345,0.543726,0.513115,-0.557539,-0.360868,98.776532,-13.648389,-83.034412
53848,NaN,2.397177,9.450761,-1.385200,-0.062628,-0.084092,0.034705,-0.015664,-0.009770,-0.002672,0.543719,0.513045,-0.557563,-0.360940,98.771147,-13.648107,-83.043751
53849,NaN,2.365130,9.452173,-1.397468,-0.053826,-0.050828,0.030323,-0.015133,-0.007773,-0.001013,0.543719,0.512976,-0.557587,-0.361002,98.765979,-13.648826,-83.052141
53850,NaN,2.371863,9.502848,-1.364875,-0.093117,-0.051643,0.075761,-0.013817,-0.007666,-0.007450,0.543705,0.512929,-0.557596,-0.361076,98.761261,-13.646025,-83.059824
53851,NaN,2.396821,9.520622,-1.379008,-0.079071,-0.070168,0.100812,-0.006516,-0.004777,-0.007774,0.543679,0.512908,-0.557610,-0.361124,98.760475,-13.643179,-83.065861
53852,NaN,2.389392,9.505009,-1.408521,-0.048190,-0.062215,0.088430,-0.002748,0.003342,-0.009180,0.543664,0.512915,-0.557605,-0.361144,98.760547,-13.640359,-83.066974
53853,NaN,2.338251,9.539329,-1.375348,-0.092745,-0.011251,0.104423,-0.000374,0.010888,-0.010844,0.543660,0.512948,-0.557579,-0.361143,98.761062,-13.637141,-83.063607
53854,NaN,2.337306,9.539585,-1.375176,-0.093173,-0.010934,0.104419,0.001884,0.010037,-0.011990,0.543647,0.512987,-0.557557,-0.361140,98.762808,-13.633315,-83.060566
53855,NaN,2.348293,9.490969,-1.451892,-0.008946,-0.020719,0.071666,0.012507,0.012623,-0.011591,0.543613,0.513060,-0.557548,-0.361101,98.770450,-13.629827,-83.056121
53856,NaN,2.416800,9.470210,-1.397221,-0.051670,-0.100494,0.059762,0.012626,0.017574,-0.013564,0.543591,0.513147,-0.557521,-0.361053,98.777283,-13.625768,-83.048547
53857,NaN,2.377176,9.455625,-1.441694,-0.011536,-0.059611,0.043001,0.018126,0.019402,-0.019230,0.543548,0.513269,-0.557484,-0.361002,98.787053,-13.618548,-83.039464
53858,NaN,2.398077,9.488481,-1.405534,-0.051700,-0.080145,0.074096,0.018909,0.020962,-0.025877,0.543496,0.513413,-0.557427,-0.360961,98.796762,-13.607817,-83.028805
53859,NaN,2.420959,9.471860,-1.423177,-0.030111,-0.105200,0.066110,0.019358,0.025941,-0.029464,0.543450,0.513579,-0.557349,-0.360917,98.806127,-13.595378,-83.014988
53860,NaN,2.408476,9.471612,-1.402086,-0.053443,-0.099287,0.059765,0.021873,0.024655,-0.038918,0.543378,0.513774,-0.557254,-0.360895,98.816756,-13.577592,-83.000997
53861,NaN,2.405666,9.506750,-1.402062,-0.061462,-0.092468,0.092815,0.023172,0.035107,-0.041009,0.543326,0.513999,-0.557128,-0.360848,98.826817,-13.559427,-82.980795
53862,NaN,2.322391,9.492844,-1.438331,-0.034905,-0.013008,0.065318,0.028354,0.033467,-0.046522,0.543248,0.514249,-0.557001,-0.360805,98.839803,-13.538117,-82.960979
53863,NaN,2.391137,9.457692,-1.436873,-0.023460,-0.090783,0.047398,0.029524,0.042418,-0.045192,0.543193,0.514515,-0.556855,-0.360733,98.852431,-13.518236,-82.936136
53864,NaN,2.361495,9.440894,-1.423740,-0.038360,-0.071652,0.022330,0.029983,0.043953,-0.050241,0.543133,0.514799,-0.556693,-0.360669,98.864858,-13.495755,-82.909871
53865,NaN,2.363851,9.457619,-1.395630,-0.070136,-0.078973,0.034696,0.030841,0.045984,-0.050204,0.543075,0.515089,-0.556527,-0.360597,98.877668,-13.473363,-82.882493
53866,NaN,2.322071,9.477853,-1.439702,-0.037517,-0.031558,0.050986,0.031917,0.043091,-0.049794,0.543009,0.515375,-0.556372,-0.360529,98.891348,-13.451070,-82.856764
53867,NaN,2.312760,9.531434,-1.469121,-0.021781,-0.010592,0.104713,0.037030,0.043873,-0.043731,0.542941,0.515660,-0.556239,-0.360427,98.908144,-13.432168,-82.831198
53868,NaN,2.194704,9.498638,-1.469090,-0.032540,0.093281,0.045777,0.034196,0.038245,-0.035572,0.542880,0.515904,-0.556138,-0.360326,98.924101,-13.417509,-82.809579
53869,NaN,2.332748,9.549651,-1.488675,-0.008199,-0.028815,0.129788,0.032440,0.044545,-0.031336,0.542848,0.516143,-0.556027,-0.360203,98.938451,-13.405696,-82.784748
53870,NaN,2.231406,9.498904,-1.482017,-0.019806,0.055304,0.056521,0.029512,0.045342,-0.026983,0.542835,0.516363,-0.555920,-0.360073,98.950956,-13.396540,-82.759782
53871,NaN,2.249178,9.500477,-1.528789,0.025535,0.044362,0.069237,0.032910,0.042076,-0.021004,0.542813,0.516570,-0.555844,-0.359926,98.966135,-13.390365,-82.737330
53872,NaN,2.239047,9.568733,-1.505530,-0.012932,0.063372,0.128963,0.023557,0.038534,-0.017730,0.542813,0.516736,-0.555768,-0.359806,98.976347,-13.385847,-82.717172
53873,NaN,2.259665,9.532614,-1.472074,-0.038000,0.029770,0.093951,0.020531,0.030928,-0.012826,0.542807,0.516867,-0.555721,-0.359700,98.986111,-13.383313,-82.701956
53874,NaN,2.300205,9.532514,-1.481769,-0.024842,-0.008495,0.104708,0.014648,0.025139,-0.013695,0.542800,0.516973,-0.555676,-0.359627,98.993110,-13.379885,-82.689961
53875,NaN,2.305936,9.583200,-1.451321,-0.064208,-0.009246,0.150103,0.013257,0.024561,-0.013956,0.542793,0.517076,-0.555630,-0.359561,98.999541,-13.376145,-82.678344
53876,NaN,2.221717,9.549124,-1.435949,-0.084212,0.061663,0.095534,0.009305,0.017900,-0.014351,0.542778,0.517156,-0.555593,-0.359524,99.004440,-13.371698,-82.670500
53877,NaN,2.259671,9.552315,-1.525391,0.006900,0.039471,0.120996,-0.002520,0.016670,-0.011761,0.542794,0.517196,-0.555546,-0.359517,99.002941,-13.368494,-82.663675
53878,NaN,2.254705,9.498918,-1.475202,-0.032588,0.024713,0.060898,-0.002743,0.006768,-0.007773,0.542791,0.517205,-0.555535,-0.359524,99.002575,-13.366771,-82.662912
53879,NaN,2.285374,9.463842,-1.461872,-0.034770,-0.014511,0.032255,-0.014008,0.000636,-0.006411,0.542802,0.517170,-0.555524,-0.359575,98.996765,-13.365157,-82.665907
53880,NaN,2.373766,9.480038,-1.448008,-0.039401,-0.098931,0.066142,-0.012057,-0.003685,-0.007379,0.542795,0.517134,-0.555526,-0.359634,98.992476,-13.362719,-82.671262
53881,NaN,2.357139,9.498122,-1.453176,-0.038987,-0.078892,0.080462,-0.011590,-0.002159,-0.012426,0.542781,0.517117,-0.555511,-0.359702,98.988298,-13.357451,-82.675329
53882,NaN,2.256930,9.447416,-1.443804,-0.050497,0.005207,0.007160,-0.010330,-0.003080,-0.008732,0.542769,0.517091,-0.555511,-0.359759,98.984888,-13.354304,-82.680207
53883,NaN,2.361030,9.480436,-1.422992,-0.063626,-0.092427,0.059771,-0.004407,-0.004189,-0.010747,0.542733,0.517085,-0.555519,-0.359807,98.985134,-13.349805,-82.685609
53884,NaN,2.308604,9.480088,-1.392032,-0.100497,-0.047912,0.042620,0.001223,-0.012225,-0.014037,0.542657,0.517089,-0.555551,-0.359870,98.989457,-13.342838,-82.695318
53885,NaN,2.300773,9.464354,-1.422245,-0.069602,-0.040060,0.030274,0.000794,-0.005824,-0.016244,0.542593,0.517109,-0.555559,-0.359923,98.992784,-13.335081,-82.701165
53886,NaN,2.318778,9.466145,-1.467530,-0.024259,-0.051013,0.043026,0.007955,-0.004402,-0.013124,0.542522,0.517143,-0.555584,-0.359944,98.999931,-13.329329,-82.706406
53887,NaN,2.345964,9.515320,-1.401093,-0.095868,-0.079038,0.086428,0.009995,-0.000319,-0.014645,0.542453,0.517194,-0.555597,-0.359954,99.007824,-13.322970,-82.709196
53888,NaN,2.306678,9.500209,-1.446046,-0.055611,-0.038222,0.069682,0.018991,0.006663,-0.014870,0.542381,0.517282,-0.555607,-0.359920,99.019772,-13.317222,-82.707840
53889,NaN,2.254416,9.499547,-1.416695,-0.092485,0.006278,0.052515,0.020025,0.010668,-0.011560,0.542323,0.517371,-0.555617,-0.359865,99.032005,-13.313595,-82.704524
53890,NaN,2.273087,9.500947,-1.463372,-0.047146,-0.004682,0.065275,0.025795,0.011514,-0.008699,0.542258,0.517469,-0.555642,-0.359783,99.047333,-13.311777,-82.700915
53891,NaN,2.297888,9.483829,-1.481795,-0.025587,-0.029792,0.057342,0.028890,0.016152,-0.008354,0.542197,0.517583,-0.555662,-0.359680,99.063979,-13.310460,-82.694705
53892,NaN,2.291335,9.501998,-1.512794,-0.002457,-0.015364,0.078039,0.029226,0.016179,-0.009967,0.542123,0.517698,-0.555690,-0.359583,99.081797,-13.308498,-82.690296
53893,NaN,2.348208,9.518549,-1.516164,0.002149,-0.066848,0.107552,0.028639,0.024533,-0.007305,0.542088,0.517824,-0.555689,-0.359456,99.097201,-13.308536,-82.679311
53894,NaN,2.302363,9.499344,-1.458549,-0.058667,-0.036510,0.069671,0.024934,0.024317,-0.013134,0.542047,0.517964,-0.555668,-0.359349,99.111617,-13.305132,-82.667450
53895,NaN,2.321021,9.500688,-1.505295,-0.013361,-0.047508,0.082447,0.028796,0.022583,-0.012187,0.541997,0.518100,-0.555660,-0.359240,99.127269,-13.302237,-82.657144
53896,NaN,2.330030,9.501271,-1.529669,0.008785,-0.052984,0.088838,0.025450,0.026324,-0.011486,0.541964,0.518251,-0.555633,-0.359114,99.142268,-13.299623,-82.642957
53897,NaN,2.293704,9.482891,-1.494229,-0.028940,-0.028236,0.057337,0.023234,0.020262,-0.013227,0.541920,0.518371,-0.555618,-0.359029,99.155022,-13.295934,-82.633901
53898,NaN,2.324372,9.482090,-1.482188,-0.038969,-0.060933,0.061744,0.022923,0.016786,-0.013055,0.541861,0.518490,-0.555618,-0.358948,99.169402,-13.291967,-82.627011
53899,NaN,2.307100,9.430693,-1.492622,-0.023328,-0.054055,0.009997,0.020681,0.014176,-0.013358,0.541807,0.518592,-0.555614,-0.358887,99.181505,-13.287652,-82.621479
53900,NaN,2.337953,9.464480,-1.479079,-0.040872,-0.080167,0.047433,0.018210,0.016491,-0.014052,0.541763,0.518701,-0.555598,-0.358822,99.192626,-13.283038,-82.613906
53901,NaN,2.270670,9.585048,-1.452218,-0.099664,0.003864,0.143621,0.018345,0.017989,-0.017494,0.541718,0.518816,-0.555569,-0.358768,99.202793,-13.276734,-82.605768
53902,NaN,2.231531,9.535096,-1.498679,-0.052064,0.037931,0.093859,0.021938,0.013265,-0.009663,0.541658,0.518925,-0.555580,-0.358684,99.217610,-13.274078,-82.600105
53903,NaN,2.193541,9.553966,-1.542910,-0.019393,0.085265,0.110155,0.021237,0.016672,-0.005007,0.541624,0.519010,-0.555593,-0.358592,99.229882,-13.274719,-82.593909
53904,NaN,2.291443,9.501620,-1.556338,0.013717,-0.018021,0.084442,0.017943,0.013502,-0.007178,0.541581,0.519093,-0.555606,-0.358517,99.241763,-13.273741,-82.589270
53905,NaN,2.271836,9.534606,-1.511774,-0.040094,0.000151,0.104661,0.015230,0.009371,-0.002425,0.541548,0.519142,-0.555634,-0.358454,99.251623,-13.275172,-82.587560
53906,NaN,2.281018,9.466115,-1.537619,-0.002615,-0.018495,0.045015,0.014149,0.012267,-0.002862,0.541524,0.519212,-0.555643,-0.358373,99.261601,-13.276221,-82.581890
53907,NaN,2.266015,9.552535,-1.542642,-0.017427,0.014731,0.125369,0.013136,0.012197,0.001971,0.541511,0.519248,-0.555672,-0.358296,99.269981,-13.280399,-82.578955
53908,NaN,2.256226,9.517114,-1.522515,-0.033238,0.014049,0.085937,0.013704,0.007295,0.000756,0.541480,0.519285,-0.555711,-0.358228,99.279997,-13.283385,-82.578322
53909,NaN,2.262352,9.533237,-1.493316,-0.065058,0.006815,0.098244,0.003227,0.006138,-0.003103,0.541467,0.519298,-0.555725,-0.358208,99.283397,-13.284135,-82.578427
53910,NaN,2.262068,9.498656,-1.494981,-0.058065,0.000413,0.065218,0.008574,-0.001432,0.001949,0.541427,0.519313,-0.555776,-0.358167,99.292123,-13.286678,-82.581616
53911,NaN,2.272234,9.499134,-1.518010,-0.035646,-0.004962,0.071626,0.004779,-0.002666,0.006266,0.541403,0.519287,-0.555841,-0.358140,99.297794,-13.291911,-82.587727
53912,NaN,2.308064,9.517261,-1.555504,0.001033,-0.029244,0.103167,0.000540,-0.001448,0.000219,0.541387,0.519289,-0.555866,-0.358123,99.301399,-13.293451,-82.589491
53913,NaN,2.313933,9.498971,-1.526891,-0.023165,-0.043073,0.082450,0.000540,-0.001448,0.000219,0.541366,0.519271,-0.555904,-0.358121,99.304347,-13.295376,-82.594320
53914,NaN,2.288435,9.515920,-1.510832,-0.045748,-0.017394,0.090337,-0.001931,0.000866,-0.000477,0.541353,0.519258,-0.555932,-0.358117,99.306422,-13.297079,-82.597573
53915,NaN,2.304362,9.532847,-1.503186,-0.054711,-0.030278,0.109052,-0.000540,0.001448,-0.000219,0.541342,0.519244,-0.555959,-0.358112,99.308355,-13.299025,-82.600678
53916,NaN,2.272658,9.533601,-1.516866,-0.045926,0.002899,0.104636,-0.004793,-0.008704,-0.000418,0.541308,0.519205,-0.556009,-0.358142,99.310142,-13.299822,-82.609723
53917,NaN,2.266407,9.517468,-1.546298,-0.014998,0.010681,0.092337,-0.007601,-0.006413,0.000498,0.541295,0.519156,-0.556047,-0.358174,99.309096,-13.301444,-82.617464
53918,NaN,2.297765,9.482323,-1.533169,-0.017483,-0.028685,0.063732,-0.006629,-0.014259,0.002943,0.541257,0.519104,-0.556112,-0.358206,99.311426,-13.303288,-82.628724
53919,NaN,2.303690,9.464100,-1.504033,-0.041677,-0.042509,0.043009,-0.009100,-0.011945,0.002247,0.541235,0.519036,-0.556166,-0.358253,99.310302,-13.305386,-82.639846
53920,NaN,2.297823,9.482479,-1.532119,-0.018577,-0.028120,0.063732,-0.009950,-0.013975,0.002207,0.541200,0.518958,-0.556237,-0.358309,99.310092,-13.307449,-82.653871
53921,NaN,2.313397,9.464981,-1.525246,-0.019909,-0.047609,0.049431,-0.006724,-0.007837,-0.000896,0.541178,0.518912,-0.556277,-0.358347,99.309712,-13.308151,-82.662308
53922,NaN,2.221065,9.498965,-1.484087,-0.077882,0.042144,0.054335,-0.008816,-0.005011,0.003502,0.541173,0.518853,-0.556321,-0.358371,99.308483,-13.311716,-82.670111
53923,NaN,2.266731,9.517897,-1.543179,-0.018273,0.012262,0.092329,-0.005062,-0.011693,0.006462,0.541149,0.518785,-0.556393,-0.358394,99.309734,-13.316220,-82.681488
53924,NaN,2.263666,9.533363,-1.490515,-0.073154,0.010698,0.098184,-0.009598,-0.010007,0.008732,0.541138,0.518702,-0.556466,-0.358418,99.309324,-13.322123,-82.692875
53925,NaN,2.311226,9.445887,-1.472286,-0.068608,-0.054941,0.022273,-0.004682,-0.011181,0.011553,0.541124,0.518621,-0.556550,-0.358425,99.310838,-13.329553,-82.704441
53926,NaN,2.461585,9.428654,-1.513943,-0.006918,-0.195951,0.046952,-0.000552,-0.009923,0.005624,0.541089,0.518580,-0.556622,-0.358426,99.315464,-13.333539,-82.713959
53927,NaN,2.311986,9.480289,-1.471019,-0.077325,-0.047820,0.055280,-0.004216,-0.002233,-0.007479,0.541064,0.518569,-0.556634,-0.358460,99.315630,-13.331038,-82.718513
53928,NaN,2.400196,9.496603,-1.458246,-0.082446,-0.132188,0.089263,0.004263,0.002753,-0.009370,0.541020,0.518591,-0.556654,-0.358465,99.320826,-13.328143,-82.721597
53929,NaN,2.282484,9.500394,-1.536064,-0.022363,-0.005896,0.078025,0.001279,0.003061,-0.011716,0.540988,0.518617,-0.556650,-0.358482,99.323338,-13.323737,-82.722671
53930,NaN,2.366407,9.497794,-1.472536,-0.074082,-0.098706,0.084842,0.008473,0.012417,-0.015872,0.540951,0.518691,-0.556628,-0.358463,99.329476,-13.317914,-82.718375
53931,NaN,2.332772,9.429777,-1.489248,-0.049804,-0.078748,0.014403,0.009148,0.012464,-0.019096,0.540912,0.518776,-0.556594,-0.358454,99.335077,-13.310209,-82.713281
53932,NaN,2.420112,9.446231,-1.477292,-0.054942,-0.163215,0.048395,0.017396,0.022380,-0.021385,0.540875,0.518921,-0.556535,-0.358390,99.344965,-13.301789,-82.700292
53933,NaN,2.297722,9.431014,-1.505004,-0.041424,-0.045350,0.009981,0.016343,0.021823,-0.023257,0.540836,0.519053,-0.556478,-0.358347,99.353347,-13.292603,-82.689361
53934,NaN,2.353257,9.517340,-1.504682,-0.052501,-0.083585,0.105573,0.014401,0.018746,-0.031875,0.540770,0.519200,-0.556410,-0.358339,99.361964,-13.278274,-82.680090
53935,NaN,2.267582,9.483273,-1.489983,-0.072134,-0.012729,0.050836,0.016971,0.010014,-0.027342,0.540689,0.519324,-0.556375,-0.358336,99.372195,-13.265681,-82.675625
53936,NaN,2.345848,9.520860,-1.588501,0.024455,-0.067185,0.120489,0.025478,0.011554,-0.030670,0.540581,0.519488,-0.556343,-0.358310,99.387762,-13.251285,-82.669688
53937,NaN,2.351317,9.534777,-1.479910,-0.085392,-0.090223,0.117839,0.027619,0.020592,-0.034218,0.540489,0.519679,-0.556281,-0.358268,99.402537,-13.235797,-82.658415
53938,NaN,2.258921,9.415282,-1.498272,-0.058418,-0.025224,-0.015187,0.027588,0.024050,-0.032791,0.540407,0.519879,-0.556213,-0.358209,99.417752,-13.221276,-82.644788
53939,NaN,2.234681,9.451388,-1.535382,-0.034239,0.008915,0.019844,0.024909,0.016464,-0.029467,0.540319,0.520042,-0.556169,-0.358173,99.431632,-13.208092,-82.636362
53940,NaN,2.340355,9.469464,-1.569376,0.006397,-0.086803,0.066755,0.029076,0.014271,-0.036835,0.540199,0.520227,-0.556125,-0.358153,99.448114,-13.190784,-82.629356
53941,NaN,2.364999,9.484921,-1.505585,-0.057757,-0.121197,0.076990,0.026264,0.016560,-0.035926,0.540096,0.520412,-0.556067,-0.358130,99.462618,-13.173963,-82.620244
53942,NaN,2.272810,9.434340,-1.521894,-0.046091,-0.042920,0.009972,0.030129,0.014839,-0.034973,0.539974,0.520602,-0.556029,-0.358098,99.480519,-13.157517,-82.612994
53943,NaN,2.305359,9.522030,-1.559449,-0.024747,-0.053888,0.107600,0.032603,0.023901,-0.040146,0.539867,0.520828,-0.555951,-0.358050,99.497597,-13.139010,-82.599203
53944,NaN,2.241232,9.590018,-1.506595,-0.099711,0.009644,0.149811,0.031447,0.033712,-0.037738,0.539794,0.521066,-0.555851,-0.357970,99.513274,-13.122737,-82.579639
53945,NaN,2.092184,9.487503,-1.523278,-0.085013,0.133037,0.020186,0.034299,0.020559,-0.026073,0.539699,0.521252,-0.555821,-0.357888,99.532080,-13.111872,-82.569149
53946,NaN,2.249643,9.506296,-1.588433,-0.008255,-0.007119,0.084462,0.030207,0.011887,-0.029706,0.539588,0.521439,-0.555787,-0.357836,99.550190,-13.097695,-82.560654
53947,NaN,2.290288,9.469667,-1.519893,-0.065634,-0.067913,0.047392,0.035839,0.007321,-0.031532,0.539443,0.521620,-0.555782,-0.357799,99.571500,-13.082493,-82.557303
53948,NaN,2.310337,9.420941,-1.621318,0.041446,-0.083971,0.021523,0.043813,0.006370,-0.043224,0.539252,0.521862,-0.555760,-0.357768,99.597805,-13.060476,-82.552484
53949,NaN,2.438418,9.470330,-1.539129,-0.035945,-0.216121,0.084482,0.052556,0.014370,-0.052036,0.539046,0.522157,-0.555713,-0.357721,99.627316,-13.034368,-82.543018
53950,NaN,2.281438,9.523973,-1.582589,-0.028275,-0.052108,0.107600,0.054615,0.026371,-0.060906,0.538849,0.522509,-0.555614,-0.357658,99.656825,-13.004361,-82.525542
53951,NaN,2.234895,9.593263,-1.576799,-0.057465,0.000074,0.162704,0.053896,0.029795,-0.056270,0.538674,0.522848,-0.555516,-0.357579,99.685003,-12.977356,-82.506691
53952,NaN,2.169078,9.592199,-1.527950,-0.117064,0.050317,0.138874,0.048422,0.036356,-0.051207,0.538543,0.523180,-0.555397,-0.357475,99.709880,-12.953654,-82.483021
53953,NaN,2.023199,9.507830,-1.596737,-0.055690,0.182048,0.036449,0.041482,0.026018,-0.038468,0.538421,0.523429,-0.555334,-0.357392,99.731842,-12.936353,-82.468105
53954,NaN,2.207577,9.542552,-1.596085,-0.042723,0.007333,0.110986,0.034611,0.020118,-0.034467,0.538307,0.523640,-0.555286,-0.357330,99.751160,-12.920779,-82.457054
53955,NaN,2.236323,9.507918,-1.585710,-0.044960,-0.031950,0.082417,0.030311,0.016864,-0.031790,0.538202,0.523824,-0.555244,-0.357284,99.768060,-12.906369,-82.448097
53956,NaN,2.247774,9.458301,-1.663254,0.039304,-0.042373,0.050122,0.024782,0.015011,-0.026107,0.538118,0.523985,-0.555205,-0.357234,99.782623,-12.894762,-82.439116
53957,NaN,2.279233,9.456080,-1.570078,-0.048614,-0.090791,0.039565,0.020184,0.020141,-0.022428,0.538065,0.524121,-0.555161,-0.357183,99.793510,-12.885962,-82.429190
53958,NaN,2.213828,9.526001,-1.597602,-0.045598,-0.011462,0.096694,0.017684,0.021932,-0.029856,0.538011,0.524288,-0.555082,-0.357143,99.803286,-12.872864,-82.415791
53959,NaN,2.191962,9.525142,-1.553926,-0.091721,0.000230,0.083741,0.012310,0.022074,-0.020912,0.537986,0.524402,-0.555022,-0.357104,99.809450,-12.865111,-82.404895
53960,NaN,2.127550,9.491378,-1.583564,-0.065524,0.059625,0.041883,0.011447,0.012140,-0.013609,0.537953,0.524485,-0.555000,-0.357067,99.816650,-12.860384,-82.399022
53961,NaN,2.182026,9.510952,-1.665942,0.016788,0.023938,0.086502,0.004781,0.004766,-0.007756,0.537924,0.524511,-0.555009,-0.357059,99.821025,-12.858370,-82.399466
53962,NaN,2.250503,9.492549,-1.609067,-0.026397,-0.055718,0.074605,-0.001707,0.007285,-0.005979,0.537927,0.524534,-0.554992,-0.357047,99.821656,-12.857328,-82.396342
53963,NaN,2.104338,9.492549,-1.620125,-0.034568,0.087580,0.043918,-0.002236,0.009241,0.000510,0.537943,0.524527,-0.554998,-0.357024,99.821618,-12.860417,-82.395023
53964,NaN,2.208792,9.561403,-1.598287,-0.056024,-0.003245,0.129674,-0.000710,0.011318,-0.002690,0.537960,0.524543,-0.554985,-0.356995,99.822044,-12.861824,-82.390824
53965,NaN,2.163301,9.577118,-1.537283,-0.124079,0.033955,0.124503,-0.008675,0.008298,0.000867,0.537991,0.524517,-0.554982,-0.356991,99.818446,-12.865023,-82.390086
53966,NaN,2.155919,9.528235,-1.647944,-0.007366,0.050721,0.094297,-0.006398,0.007466,-0.000263,0.538018,0.524505,-0.554974,-0.356980,99.815997,-12.867467,-82.388043
53967,NaN,2.229090,9.528364,-1.641525,-0.003968,-0.020519,0.109647,-0.005941,0.001074,0.002003,0.538024,0.524469,-0.554999,-0.356985,99.814923,-12.870601,-82.391603
53968,NaN,2.245127,9.511063,-1.634112,-0.005388,-0.040093,0.095370,-0.011834,-0.001314,0.002587,0.538043,0.524425,-0.555012,-0.357001,99.811281,-12.873536,-82.394600
53969,NaN,2.219693,9.527982,-1.617265,-0.027774,-0.014320,0.103160,-0.012176,-0.001334,0.004201,0.538062,0.524362,-0.555038,-0.357024,99.806995,-12.877677,-82.399774
53970,NaN,2.204153,9.511034,-1.623460,-0.019606,-0.000982,0.084448,-0.014812,-0.001030,0.000230,0.538091,0.524319,-0.555033,-0.357051,99.801016,-12.879325,-82.401371
53971,NaN,2.188388,9.563175,-1.627606,-0.026863,0.025748,0.131711,-0.017432,-0.000218,0.002973,0.538125,0.524248,-0.555043,-0.357089,99.793548,-12.882882,-82.405775
53972,NaN,2.169065,9.493120,-1.583240,-0.057587,0.024094,0.052753,-0.014363,0.004447,0.003293,0.538168,0.524200,-0.555041,-0.357099,99.787426,-12.887000,-82.406221
53973,NaN,2.207076,9.474940,-1.538842,-0.091262,-0.022592,0.036418,-0.017366,-0.003171,0.008268,0.538203,0.524108,-0.555073,-0.357129,99.780495,-12.893260,-82.412863
53974,NaN,2.211696,9.493708,-1.588303,-0.045176,-0.014031,0.063676,-0.020639,-0.006368,0.006106,0.538241,0.524023,-0.555090,-0.357172,99.772233,-12.897686,-82.418513
53975,NaN,2.263493,9.494830,-1.617190,-0.009474,-0.058095,0.081100,-0.018362,-0.007201,0.004975,0.538262,0.523931,-0.555122,-0.357225,99.765180,-12.901696,-82.427160
53976,NaN,2.247924,9.512481,-1.621966,-0.009106,-0.038044,0.095375,-0.021888,-0.005470,0.002391,0.538290,0.523841,-0.555139,-0.357289,99.756292,-12.904433,-82.434728
53977,NaN,2.206566,9.512499,-1.611555,-0.022873,0.000845,0.084441,-0.025209,-0.005207,0.001647,0.538328,0.523744,-0.555145,-0.357365,99.744985,-12.906760,-82.441888
53978,NaN,2.253974,9.529662,-1.587691,-0.041516,-0.044944,0.107588,-0.027780,-0.007855,0.002969,0.538372,0.523645,-0.555148,-0.357440,99.733036,-12.909267,-82.448544
53979,NaN,2.212726,9.529693,-1.576974,-0.055280,-0.006051,0.096650,-0.027870,-0.012803,0.005000,0.538402,0.523517,-0.555178,-0.357535,99.721263,-12.912755,-82.460436
53980,NaN,2.234534,9.529037,-1.538571,-0.088131,-0.033013,0.094584,-0.022770,-0.015912,0.002963,0.538410,0.523417,-0.555210,-0.357617,99.713192,-12.914443,-82.471631
53981,NaN,2.212698,9.530329,-1.573169,-0.056240,-0.005571,0.096645,-0.020356,-0.015254,-0.001623,0.538402,0.523324,-0.555244,-0.357715,99.705895,-12.913957,-82.484285
53982,NaN,2.248196,9.514475,-1.609848,-0.011963,-0.036554,0.095378,-0.016673,-0.014994,0.004220,0.538398,0.523230,-0.555294,-0.357781,99.700952,-12.916731,-82.496427
53983,NaN,2.295722,9.462452,-1.588794,-0.015114,-0.095645,0.052566,-0.020997,-0.006889,0.000997,0.538419,0.523142,-0.555310,-0.357851,99.692263,-12.918535,-82.504494
53984,NaN,2.295602,9.428262,-1.588138,-0.007872,-0.102101,0.019587,-0.016356,-0.003604,-0.003295,0.538434,0.523096,-0.555307,-0.357903,99.685930,-12.918022,-82.508477
53985,NaN,2.227788,9.548614,-1.559332,-0.066715,-0.017622,0.115345,-0.018452,0.007129,-0.006223,0.538475,0.523060,-0.555271,-0.357949,99.676724,-12.917101,-82.507707
53986,NaN,2.128720,9.565749,-1.547360,-0.092933,0.079656,0.107713,-0.017496,0.002746,-0.002322,0.538507,0.523013,-0.555258,-0.357989,99.669192,-12.917860,-82.509361
53987,NaN,2.128768,9.531488,-1.546853,-0.085651,0.073244,0.074727,-0.014900,-0.005973,0.002252,0.538517,0.522940,-0.555286,-0.358037,99.663906,-12.920465,-82.517021
53988,NaN,2.237693,9.550054,-1.576942,-0.045317,-0.022502,0.121848,-0.015631,-0.002561,0.006905,0.538546,0.522853,-0.555320,-0.358068,99.657792,-12.926290,-82.524031
53989,NaN,2.212926,9.394372,-1.564615,-0.029045,-0.030174,-0.035288,-0.018953,-0.002296,0.006162,0.538584,0.522765,-0.555342,-0.358106,99.649794,-12.931459,-82.529945
53990,NaN,2.286231,9.497981,-1.554618,-0.048942,-0.081347,0.079042,-0.008851,-0.001599,0.004936,0.538599,0.522716,-0.555369,-0.358112,99.647584,-12.935866,-82.533915
53991,NaN,2.282606,9.513771,-1.501400,-0.103666,-0.082690,0.084724,-0.013812,0.003004,0.003522,0.538633,0.522659,-0.555378,-0.358130,99.641787,-12.940053,-82.536497
53992,NaN,2.249611,9.447645,-1.597100,-0.001174,-0.047242,0.029428,-0.011536,0.002172,0.002391,0.538656,0.522608,-0.555394,-0.358146,99.637657,-12.943630,-82.539858
53993,NaN,2.239795,9.447165,-1.573441,-0.024440,-0.041230,0.022912,-0.015266,0.005377,-0.002028,0.538691,0.522566,-0.555380,-0.358177,99.630597,-12.944910,-82.540517
53994,NaN,2.338093,9.465289,-1.580801,-0.007028,-0.131312,0.063547,-0.018655,0.008607,-0.008061,0.538733,0.522542,-0.555333,-0.358220,99.621353,-12.943021,-82.538061
53995,NaN,2.321614,9.517718,-1.584204,-0.014314,-0.104543,0.110790,-0.018066,0.015570,-0.008438,0.538792,0.522529,-0.555269,-0.358249,99.611225,-12.941656,-82.532182
53996,NaN,2.222413,9.500449,-1.572929,-0.032783,-0.013942,0.070150,-0.018864,0.021944,-0.009074,0.538864,0.522526,-0.555192,-0.358265,99.600510,-12.940559,-82.523406
53997,NaN,2.207878,9.515876,-1.496382,-0.110320,-0.009520,0.069292,-0.017813,0.010644,-0.008030,0.538910,0.522503,-0.555143,-0.358305,99.591175,-12.938951,-82.520424
53998,NaN,2.280044,9.516330,-1.489024,-0.107122,-0.080717,0.084703,-0.014347,0.000007,-0.011569,0.538906,0.522476,-0.555127,-0.358376,99.585477,-12.934523,-82.524512
53999,NaN,2.294669,9.533860,-1.480287,-0.116223,-0.093521,0.103410,-0.009549,0.005284,-0.012589,0.538907,0.522478,-0.555096,-0.358419,99.581473,-12.929828,-82.524191
54000,NaN,2.291862,9.467821,-1.562154,-0.023263,-0.091009,0.052594,-0.010259,0.016610,-0.015247,0.538932,0.522502,-0.555032,-0.358445,99.575881,-12.924855,-82.518152
54001,NaN,2.263108,9.487560,-1.625909,0.032377,-0.049562,0.075464,-0.007942,0.024190,-0.016974,0.538974,0.522555,-0.554941,-0.358446,99.570252,-12.919484,-82.506444
54002,NaN,2.226146,9.538568,-1.585297,-0.020614,-0.011329,0.109642,-0.011352,0.019504,-0.015697,0.539014,0.522597,-0.554856,-0.358458,99.563838,-12.914169,-82.496397
54003,NaN,2.179510,9.519789,-1.524570,-0.080842,0.019284,0.071342,-0.011187,0.009623,-0.013265,0.539030,0.522604,-0.554808,-0.358497,99.558321,-12.909504,-82.493497
54004,NaN,2.194057,9.537327,-1.515850,-0.090014,0.006537,0.090047,-0.011519,-0.002269,-0.012484,0.539007,0.522577,-0.554807,-0.358573,99.554536,-12.904491,-82.499973
54005,NaN,2.259959,9.487017,-1.540093,-0.047577,-0.064081,0.060328,-0.009103,-0.001602,-0.017066,0.538980,0.522581,-0.554783,-0.358645,99.551584,-12.896611,-82.503210
54006,NaN,2.284380,9.470830,-1.554861,-0.026155,-0.089298,0.052602,-0.012663,0.004079,-0.011503,0.538983,0.522560,-0.554762,-0.358703,99.546056,-12.892764,-82.505576
54007,NaN,2.255550,9.490584,-1.618749,0.029495,-0.047870,0.075481,-0.009612,0.008256,-0.017885,0.538983,0.522582,-0.554709,-0.358753,99.541519,-12.885358,-82.503021
54008,NaN,2.249936,9.506722,-1.565413,-0.025245,-0.049159,0.081121,-0.010211,0.013159,-0.016681,0.539001,0.522612,-0.554641,-0.358785,99.536110,-12.879073,-82.497057
54009,NaN,2.202800,9.522436,-1.503744,-0.093201,-0.011805,0.075767,-0.011837,0.005629,-0.018188,0.538999,0.522625,-0.554590,-0.358849,99.530632,-12.871247,-82.495996
54010,NaN,2.174245,9.473196,-1.569668,-0.022072,0.016191,0.032713,-0.016070,-0.000611,-0.010232,0.539003,0.522591,-0.554573,-0.358920,99.523889,-12.867460,-82.499844
54011,NaN,2.251987,9.490109,-1.532707,-0.050351,-0.062346,0.060325,-0.012697,-0.004331,-0.010915,0.538989,0.522563,-0.554566,-0.358993,99.519362,-12.862800,-82.505265
54012,NaN,2.244907,9.508752,-1.560297,-0.027156,-0.048056,0.081121,-0.012610,0.000624,-0.012938,0.538983,0.522554,-0.554540,-0.359054,99.514654,-12.857399,-82.507215
54013,NaN,2.217997,9.491418,-1.544179,-0.041739,-0.028944,0.055870,-0.017608,-0.003185,-0.013763,0.538980,0.522523,-0.554514,-0.359144,99.507103,-12.851238,-82.511696
54014,NaN,2.252190,9.545106,-1.578514,-0.013087,-0.046496,0.120629,-0.013759,0.006973,-0.011955,0.538990,0.522506,-0.554484,-0.359200,99.500890,-12.847360,-82.512629
54015,NaN,2.237043,9.491366,-1.505141,-0.075105,-0.055445,0.053777,-0.008174,0.005398,-0.019057,0.538976,0.522531,-0.554438,-0.359256,99.497523,-12.839020,-82.511622
54016,NaN,2.276863,9.492380,-1.512478,-0.062443,-0.093807,0.064776,-0.008517,0.005372,-0.017444,0.538961,0.522549,-0.554400,-0.359309,99.494560,-12.831623,-82.511375
54017,NaN,2.269258,9.511110,-1.540369,-0.039177,-0.079499,0.085576,-0.005317,0.011538,-0.020556,0.538954,0.522597,-0.554339,-0.359346,99.492009,-12.823016,-82.506666
54018,NaN,2.209974,9.528592,-1.537869,-0.051899,-0.020727,0.088826,-0.004919,0.008110,-0.023603,0.538929,0.522639,-0.554286,-0.359404,99.489947,-12.812675,-82.504985
54019,NaN,2.192366,9.512028,-1.544863,-0.043666,-0.007386,0.070115,-0.003382,0.010685,-0.020072,0.538915,0.522689,-0.554231,-0.359436,99.488626,-12.804260,-82.500819
54020,NaN,2.174719,9.529948,-1.550599,-0.043215,0.012717,0.084365,-0.006702,0.010948,-0.020822,0.538907,0.522729,-0.554172,-0.359481,99.485470,-12.795595,-82.497130
54021,NaN,2.173139,9.496024,-1.550677,-0.035897,0.006254,0.051403,-0.011204,0.009145,-0.019997,0.538910,0.522754,-0.554108,-0.359538,99.479869,-12.787077,-82.493865
54022,NaN,2.165846,9.514720,-1.578255,-0.012679,0.020572,0.072205,-0.009890,0.005262,-0.010991,0.538911,0.522749,-0.554085,-0.359579,99.476028,-12.783423,-82.494467
54023,NaN,2.211817,9.532067,-1.555250,-0.031426,-0.025071,0.095371,-0.016968,0.000321,-0.015577,0.538913,0.522731,-0.554046,-0.359664,99.468352,-12.776571,-82.496745
54024,NaN,2.178878,9.532915,-1.567752,-0.022264,0.008149,0.090911,-0.016213,-0.002598,-0.013517,0.538902,0.522690,-0.554035,-0.359758,99.461479,-12.771077,-82.503441
54025,NaN,2.231026,9.497606,-1.516841,-0.056973,-0.058255,0.060314,-0.020221,-0.002393,-0.011038,0.538912,0.522646,-0.554009,-0.359847,99.452383,-12.766536,-82.507731
54026,NaN,2.239470,9.533510,-1.536223,-0.042459,-0.056955,0.099829,-0.016131,0.002361,-0.015539,0.538909,0.522621,-0.553979,-0.359932,99.445227,-12.760255,-82.511293
54027,NaN,2.227845,9.567773,-1.511210,-0.073475,-0.044140,0.126225,-0.015582,0.000916,-0.015317,0.538909,0.522607,-0.553941,-0.360011,99.438274,-12.753607,-82.513255
54028,NaN,2.175427,9.532388,-1.480357,-0.102176,-0.006113,0.075684,-0.014310,0.008418,-0.012188,0.538923,0.522589,-0.553908,-0.360066,99.431470,-12.749839,-82.513762
54029,NaN,2.198177,9.519172,-1.575634,-0.002754,-0.015936,0.083220,-0.014057,0.003013,-0.018509,0.538919,0.522592,-0.553859,-0.360144,99.425055,-12.741585,-82.514203
54030,NaN,2.192564,9.500707,-1.523235,-0.049731,-0.023853,0.055847,-0.013565,0.005022,-0.016854,0.538920,0.522591,-0.553814,-0.360212,99.418777,-12.734639,-82.514293
54031,NaN,2.226883,9.485597,-1.559933,-0.005526,-0.054962,0.054729,-0.014744,0.002955,-0.015281,0.538924,0.522583,-0.553773,-0.360283,99.412044,-12.728204,-82.515080
54032,NaN,2.215210,9.519825,-1.535015,-0.036554,-0.042066,0.081118,-0.013565,0.005023,-0.016855,0.538922,0.522576,-0.553733,-0.360356,99.405705,-12.721473,-82.516396
54033,NaN,2.197705,9.537810,-1.539973,-0.036072,-0.021981,0.095362,-0.014321,0.007945,-0.018917,0.538932,0.522588,-0.553670,-0.360423,99.398501,-12.713450,-82.513945
54034,NaN,2.196099,9.538424,-1.538458,-0.036587,-0.021614,0.095361,-0.014114,0.006470,-0.017080,0.538929,0.522575,-0.553634,-0.360500,99.391959,-12.706870,-82.516033
54035,NaN,2.200484,9.520757,-1.508443,-0.060756,-0.035343,0.074547,-0.010450,0.006240,-0.017945,0.538925,0.522592,-0.553584,-0.360557,99.387213,-12.699237,-82.514665
54036,NaN,2.250223,9.522860,-1.537681,-0.025300,-0.079450,0.092153,-0.011756,0.010608,-0.020229,0.538928,0.522608,-0.553525,-0.360620,99.381173,-12.691072,-82.512572
54037,NaN,2.197182,9.521956,-1.505690,-0.061672,-0.034721,0.074544,-0.014096,0.014884,-0.017666,0.538958,0.522630,-0.553447,-0.360665,99.373244,-12.684403,-82.506224
54038,NaN,2.097424,9.469622,-1.496409,-0.071919,0.049190,0.000802,-0.016866,0.013699,-0.018198,0.538985,0.522632,-0.553377,-0.360729,99.364051,-12.677671,-82.502705
54039,NaN,2.188391,9.541397,-1.530989,-0.038887,-0.020097,0.095356,-0.012031,0.007597,-0.013326,0.538997,0.522634,-0.553332,-0.360775,99.358324,-12.672775,-82.500997
54040,NaN,2.187574,9.507375,-1.530849,-0.031533,-0.026510,0.062406,-0.014878,0.001451,-0.011841,0.538999,0.522602,-0.553313,-0.360848,99.351613,-12.668578,-82.504890
54041,NaN,2.239587,9.506481,-1.479202,-0.074088,-0.086113,0.064765,-0.010456,-0.001699,-0.010644,0.538987,0.522584,-0.553304,-0.360907,99.348026,-12.664333,-82.508825
54042,NaN,2.201007,9.525372,-1.520971,-0.041181,-0.038909,0.081113,-0.010379,0.003262,-0.012661,0.538977,0.522567,-0.553291,-0.360967,99.343909,-12.659866,-82.512379
54043,NaN,2.152346,9.543381,-1.540491,-0.031021,0.014023,0.090881,-0.008650,0.003887,-0.014012,0.538969,0.522573,-0.553261,-0.361016,99.340578,-12.654237,-82.512758
54044,NaN,2.125948,9.525656,-1.525041,-0.045580,0.033204,0.065589,-0.006771,0.006956,-0.005360,0.538972,0.522554,-0.553263,-0.361035,99.338447,-12.654146,-82.514702
54045,NaN,2.188361,9.525542,-1.495816,-0.065372,-0.032198,0.074528,-0.012170,0.006091,-0.009876,0.538987,0.522543,-0.553231,-0.361076,99.332906,-12.651060,-82.514198
54046,NaN,2.187699,9.525884,-1.494611,-0.065902,-0.031881,0.074526,-0.010091,0.007215,-0.006114,0.539000,0.522523,-0.553221,-0.361104,99.328947,-12.650459,-82.515201
54047,NaN,2.191626,9.510858,-1.545593,-0.012058,-0.030206,0.068985,-0.012371,0.008036,-0.004987,0.539029,0.522502,-0.553197,-0.361127,99.323146,-12.650319,-82.514036
54048,NaN,2.234203,9.508953,-1.471438,-0.077431,-0.083902,0.064759,-0.013617,0.008952,-0.008706,0.539053,0.522478,-0.553169,-0.361168,99.316416,-12.648524,-82.513902
54049,NaN,2.221777,9.511419,-1.528695,-0.022644,-0.062423,0.073459,-0.011824,0.006125,-0.011494,0.539064,0.522473,-0.553134,-0.361213,99.311035,-12.644526,-82.513226
54050,NaN,2.195258,9.493760,-1.512936,-0.037186,-0.043246,0.048163,-0.009607,0.008757,-0.011184,0.539071,0.522467,-0.553108,-0.361250,99.306891,-12.641283,-82.513215
54051,NaN,2.183886,9.527745,-1.488308,-0.068204,-0.030353,0.074515,-0.007802,0.014346,-0.014549,0.539089,0.522497,-0.553051,-0.361270,99.302709,-12.636319,-82.507487
54052,NaN,2.198331,9.545335,-1.479460,-0.077448,-0.042982,0.093221,-0.010364,0.011681,-0.013246,0.539097,0.522489,-0.553021,-0.361315,99.297631,-12.632488,-82.507558
54053,NaN,2.233470,9.495778,-1.517808,-0.025503,-0.080960,0.059229,-0.005866,0.013495,-0.014063,0.539108,0.522520,-0.552970,-0.361331,99.294677,-12.627720,-82.502370
54054,NaN,2.191004,9.495405,-1.508777,-0.038999,-0.041955,0.048161,-0.006557,0.013431,-0.010832,0.539125,0.522532,-0.552933,-0.361345,99.291184,-12.625117,-82.498801
54055,NaN,2.168486,9.496910,-1.544257,-0.006971,-0.014674,0.050278,-0.006698,0.011457,-0.014109,0.539133,0.522557,-0.552886,-0.361368,99.288011,-12.620134,-82.494791
54056,NaN,2.146956,9.529930,-1.497585,-0.060711,0.004107,0.070027,-0.006979,0.007972,-0.013932,0.539135,0.522574,-0.552847,-0.361400,99.284801,-12.615137,-82.492619
54057,NaN,2.145883,9.530311,-1.496699,-0.061156,0.004389,0.070024,-0.008502,0.005867,-0.010746,0.539138,0.522575,-0.552821,-0.361434,99.281373,-12.611539,-82.492166
54058,NaN,2.144965,9.530675,-1.495697,-0.061648,0.004677,0.070021,-0.008774,0.010798,-0.011146,0.539153,0.522586,-0.552782,-0.361456,99.277427,-12.608240,-82.489032
54059,NaN,2.170000,9.514653,-1.510512,-0.040277,-0.020692,0.062388,-0.008222,0.009353,-0.010924,0.539164,0.522595,-0.552746,-0.361481,99.273715,-12.604863,-82.486543
54060,NaN,2.190437,9.548304,-1.471992,-0.081055,-0.040513,0.093203,-0.003931,0.013109,-0.006846,0.539174,0.522594,-0.552735,-0.361484,99.272258,-12.604643,-82.485430
54061,NaN,2.215611,9.532186,-1.487272,-0.059692,-0.065884,0.085574,-0.001994,0.011797,-0.013088,0.539172,0.522630,-0.552699,-0.361490,99.271761,-12.600268,-82.481322
54062,NaN,2.224325,9.533491,-1.509222,-0.037388,-0.071396,0.092176,0.000980,0.011045,-0.017446,0.539150,0.522680,-0.552664,-0.361505,99.273009,-12.593626,-82.478189
54063,NaN,2.223330,9.499349,-1.510335,-0.030031,-0.077924,0.059241,0.000913,0.014498,-0.016008,0.539143,0.522737,-0.552617,-0.361504,99.273778,-12.587850,-82.472239
54064,NaN,2.221402,9.534216,-1.508944,-0.038286,-0.070765,0.092178,0.003889,0.013747,-0.020367,0.539114,0.522802,-0.552576,-0.361516,99.276170,-12.579925,-82.468085
54065,NaN,2.168600,9.498329,-1.479993,-0.066729,-0.032784,0.041547,0.004720,0.015788,-0.020323,0.539093,0.522883,-0.552522,-0.361513,99.278870,-12.571829,-82.460979
54066,NaN,2.170932,9.517964,-1.530987,-0.020656,-0.024302,0.068987,0.003058,0.011708,-0.020415,0.539062,0.522942,-0.552484,-0.361533,99.280887,-12.563695,-82.457909
54067,NaN,2.148725,9.550908,-1.485334,-0.074441,-0.005513,0.088702,0.004995,0.010859,-0.019925,0.539027,0.523014,-0.552444,-0.361541,99.284374,-12.555368,-82.453697
54068,NaN,2.131963,9.499583,-1.494495,-0.058267,0.001049,0.037057,0.002712,0.011676,-0.018801,0.538998,0.523064,-0.552413,-0.361559,99.286204,-12.548253,-82.451357
54069,NaN,2.171276,9.535367,-1.500944,-0.053500,-0.030522,0.081084,-0.003302,0.015706,-0.022114,0.538994,0.523129,-0.552340,-0.361584,99.284284,-12.539137,-82.444130
54070,NaN,2.090660,9.553360,-1.535339,-0.033566,0.055276,0.086334,0.000982,0.011049,-0.017455,0.538967,0.523172,-0.552312,-0.361603,99.285835,-12.532604,-82.442371
54071,NaN,2.105405,9.536373,-1.528576,-0.034972,0.035736,0.072108,-0.003172,0.009723,-0.011527,0.538966,0.523197,-0.552283,-0.361614,99.284961,-12.528922,-82.439613
54072,NaN,2.100453,9.517389,-1.477174,-0.081944,0.027963,0.044652,-0.002966,0.008245,-0.009688,0.538957,0.523205,-0.552274,-0.361630,99.284651,-12.526491,-82.439815
54073,NaN,2.141386,9.518466,-1.484680,-0.069376,-0.010428,0.055752,-0.004562,0.009589,-0.005063,0.538970,0.523208,-0.552259,-0.361627,99.283131,-12.526451,-82.437747
54074,NaN,2.145131,9.537894,-1.535000,-0.023343,-0.001954,0.083205,-0.004008,0.008144,-0.004840,0.538971,0.523192,-0.552266,-0.361638,99.282077,-12.526902,-82.439499
54075,NaN,2.186437,9.538921,-1.542353,-0.010787,-0.040348,0.094312,-0.006639,0.008926,-0.002100,0.538994,0.523180,-0.552257,-0.361636,99.279510,-12.528477,-82.438096
54076,NaN,2.197705,9.537002,-1.482958,-0.066481,-0.061035,0.085562,-0.005185,0.006069,-0.003269,0.538995,0.523149,-0.552273,-0.361654,99.277847,-12.529792,-82.441752
54077,NaN,2.160545,9.521052,-1.526475,-0.025622,-0.020815,0.068983,-0.005738,0.007514,-0.003493,0.539008,0.523141,-0.552267,-0.361656,99.275946,-12.530449,-82.441035
54078,NaN,2.181195,9.554670,-1.487850,-0.066467,-0.040572,0.099778,-0.008434,0.011289,-0.006048,0.539026,0.523124,-0.552255,-0.361673,99.272249,-12.530469,-82.440953
54079,NaN,2.165476,9.537636,-1.494896,-0.058121,-0.027301,0.081067,-0.003043,0.003740,-0.000939,0.539026,0.523109,-0.552270,-0.361671,99.272419,-12.532222,-82.442664
54080,NaN,2.176093,9.504186,-1.517898,-0.027936,-0.039628,0.054764,-0.006228,0.005967,0.001578,0.539042,0.523068,-0.552290,-0.361675,99.270126,-12.536116,-82.445608
54081,NaN,2.176104,9.504285,-1.517267,-0.028383,-0.039348,0.054764,-0.004631,0.004624,-0.003047,0.539046,0.523056,-0.552295,-0.361681,99.269232,-12.536758,-82.446608
54082,NaN,2.191225,9.521627,-1.509121,-0.037623,-0.051936,0.073474,-0.002275,0.000357,-0.005610,0.539019,0.523029,-0.552326,-0.361711,99.270020,-12.536202,-82.453341
54083,NaN,2.206594,9.504497,-1.502470,-0.039048,-0.071480,0.059258,-0.001927,0.000391,-0.007226,0.538996,0.523029,-0.552335,-0.361732,99.271121,-12.534091,-82.456398
54084,NaN,2.148198,9.521117,-1.500912,-0.051532,-0.012623,0.062349,0.001330,-0.005287,-0.011182,0.538934,0.523024,-0.552370,-0.361778,99.274929,-12.529643,-82.464956
54085,NaN,2.163186,9.504015,-1.494635,-0.052956,-0.032167,0.048133,0.000081,-0.003911,-0.008173,0.538893,0.523024,-0.552392,-0.361806,99.277701,-12.526599,-82.470415
54086,NaN,2.130392,9.538786,-1.507611,-0.051401,0.007883,0.076559,0.000081,-0.003911,-0.008173,0.538845,0.523005,-0.552429,-0.361848,99.280140,-12.524182,-82.478923
54087,NaN,2.124425,9.522686,-1.537650,-0.020287,0.015260,0.064481,-0.000481,-0.002007,-0.001662,0.538822,0.522988,-0.552462,-0.361855,99.282485,-12.524995,-82.483896
54088,NaN,2.139880,9.539907,-1.529811,-0.029565,0.002653,0.083188,-0.001730,-0.000630,0.001347,0.538803,0.522945,-0.552515,-0.361867,99.284064,-12.528155,-82.491618
54089,NaN,2.146061,9.521604,-1.500876,-0.053740,-0.011008,0.062339,-0.004637,-0.003337,0.004265,0.538797,0.522899,-0.552559,-0.361874,99.284317,-12.532197,-82.497923
54090,NaN,2.187959,9.522458,-1.508617,-0.041257,-0.049348,0.073472,-0.002426,-0.000699,0.004580,0.538789,0.522851,-0.552613,-0.361874,99.285552,-12.537034,-82.504855
54091,NaN,2.193858,9.538592,-1.478422,-0.073268,-0.056149,0.085543,-0.001597,0.001342,0.004626,0.538789,0.522820,-0.552651,-0.361859,99.286967,-12.541712,-82.508485
54092,NaN,2.219540,9.556754,-1.492862,-0.059856,-0.074681,0.110890,0.000901,-0.001411,-0.001393,0.538757,0.522798,-0.552698,-0.361868,99.290355,-12.543013,-82.515236
54093,NaN,2.213966,9.540574,-1.522881,-0.028742,-0.067321,0.098821,0.000899,0.007007,-0.001971,0.538755,0.522802,-0.552708,-0.361849,99.292352,-12.544485,-82.514959
54094,NaN,2.204087,9.505164,-1.501933,-0.044090,-0.067923,0.059262,0.001113,0.005070,-0.006866,0.538732,0.522802,-0.552725,-0.361858,99.294487,-12.543481,-82.517915
54095,NaN,2.192904,9.538816,-1.478389,-0.075117,-0.054884,0.085536,0.001461,0.005104,-0.008482,0.538711,0.522823,-0.552725,-0.361860,99.296911,-12.541095,-82.518123
54096,NaN,2.234232,9.505389,-1.487646,-0.054761,-0.100033,0.063764,-0.000823,0.005919,-0.007358,0.538694,0.522816,-0.552737,-0.361877,99.297570,-12.540070,-82.521148
54097,NaN,2.191402,9.539191,-1.478198,-0.075969,-0.054193,0.085533,0.001603,0.006619,-0.011938,0.538671,0.522849,-0.552723,-0.361884,99.299813,-12.535871,-82.520152
54098,NaN,2.158930,9.539509,-1.492410,-0.066656,-0.021054,0.081028,0.002707,0.012147,-0.012071,0.538651,0.522883,-0.552711,-0.361882,99.302303,-12.532503,-82.518484
54099,NaN,2.142026,9.556986,-1.498991,-0.066109,-0.000940,0.095232,0.006300,0.015382,-0.011487,0.538641,0.522943,-0.552684,-0.361852,99.306146,-12.529371,-82.512455
54100,NaN,2.156897,9.539908,-1.492801,-0.067512,-0.020372,0.081024,0.005963,0.014890,-0.016607,0.538614,0.522996,-0.552661,-0.361852,99.309445,-12.523910,-82.509561
54101,NaN,2.165717,9.541133,-1.515353,-0.045222,-0.025994,0.087672,0.008653,0.019536,-0.014631,0.538603,0.523079,-0.552618,-0.361813,99.314052,-12.519386,-82.500827
54102,NaN,2.212157,9.523936,-1.495148,-0.056478,-0.078260,0.077973,0.010242,0.018653,-0.012523,0.538586,0.523149,-0.552595,-0.361772,99.319518,-12.516357,-82.494324
54103,NaN,2.179542,9.524192,-1.509854,-0.047089,-0.045191,0.073466,0.008797,0.021051,-0.018091,0.538573,0.523245,-0.552540,-0.361738,99.323946,-12.510020,-82.484383
54104,NaN,2.172709,9.508247,-1.540152,-0.015996,-0.037800,0.061410,0.006587,0.018413,-0.018407,0.538551,0.523318,-0.552499,-0.361726,99.327592,-12.503653,-82.478261
54105,NaN,2.107982,9.543119,-1.567432,-0.004600,0.034929,0.085308,0.002503,0.013629,-0.013919,0.538541,0.523372,-0.552464,-0.361718,99.329433,-12.498986,-82.473015
54106,NaN,2.132509,9.561598,-1.581671,0.008886,0.016427,0.110673,-0.000959,0.012365,-0.011226,0.538538,0.523393,-0.552442,-0.361724,99.329190,-12.496164,-82.470835
54107,NaN,2.128087,9.508100,-1.531551,-0.030176,0.001817,0.050245,-0.003799,0.014624,-0.010328,0.538553,0.523422,-0.552402,-0.361720,99.327370,-12.493620,-82.465355
54108,NaN,2.158796,9.508366,-1.516421,-0.040473,-0.030576,0.054753,-0.008294,0.012798,-0.009522,0.538568,0.523412,-0.552380,-0.361747,99.323131,-12.491981,-82.464706
54109,NaN,2.137064,9.509645,-1.551932,-0.008332,-0.003432,0.056903,-0.006374,0.012409,-0.002292,0.538599,0.523408,-0.552362,-0.361735,99.320278,-12.493775,-82.461274
54110,NaN,2.116249,9.542332,-1.505088,-0.062015,0.015611,0.076489,-0.011901,0.010019,-0.003372,0.538639,0.523385,-0.552336,-0.361748,99.314083,-12.494898,-82.459063
54111,NaN,2.204747,9.526277,-1.491177,-0.060456,-0.075421,0.077971,-0.007457,0.006421,-0.008895,0.538644,0.523385,-0.552315,-0.361772,99.311224,-12.492403,-82.458471
54112,NaN,2.188692,9.509343,-1.497987,-0.052089,-0.062148,0.059261,-0.010093,0.007199,-0.006157,0.538658,0.523362,-0.552304,-0.361801,99.307014,-12.491820,-82.459510
54113,NaN,2.223674,9.528920,-1.533522,-0.015942,-0.086656,0.091300,-0.009393,0.007270,-0.009391,0.538669,0.523360,-0.552276,-0.361830,99.302929,-12.489123,-82.458380
54114,NaN,2.166413,9.542489,-1.450134,-0.106327,-0.042783,0.078834,-0.007594,0.012871,-0.012757,0.538680,0.523372,-0.552238,-0.361855,99.299249,-12.485377,-82.455659
54115,NaN,2.148967,9.528704,-1.537784,-0.019861,-0.014562,0.075610,-0.008022,0.016288,-0.009704,0.538713,0.523390,-0.552187,-0.361857,99.294814,-12.483338,-82.449277
54116,NaN,2.137570,9.562549,-1.512956,-0.050904,-0.001381,0.101847,-0.012167,0.014496,-0.010517,0.538744,0.523384,-0.552144,-0.361886,99.288246,-12.481102,-82.446173
54117,NaN,2.127968,9.492883,-1.492109,-0.058359,-0.008969,0.029364,-0.008372,0.016254,-0.008088,0.538780,0.523397,-0.552097,-0.361885,99.283649,-12.479972,-82.439965
54118,NaN,2.142960,9.510381,-1.483235,-0.067662,-0.021559,0.048072,-0.006786,0.015371,-0.005977,0.538811,0.523398,-0.552068,-0.361882,99.280003,-12.480308,-82.435944
54119,NaN,2.105570,9.528902,-1.525022,-0.034490,0.025401,0.064420,-0.011505,0.015478,-0.000278,0.538867,0.523379,-0.552038,-0.361871,99.273868,-12.483522,-82.430924
54120,NaN,2.153127,9.511796,-1.502908,-0.045767,-0.026845,0.054741,-0.010044,0.012624,-0.001446,0.538908,0.523351,-0.552023,-0.361874,99.268462,-12.486236,-82.429083
54121,NaN,2.146749,9.564791,-1.528837,-0.030339,-0.005754,0.108510,-0.013713,0.012838,-0.000598,0.538962,0.523323,-0.551995,-0.361876,99.261385,-12.489025,-82.425562
54122,NaN,2.121937,9.512232,-1.514323,-0.036761,0.006540,0.050221,-0.012603,0.009948,-0.000149,0.539005,0.523285,-0.551983,-0.361886,99.255233,-12.492093,-82.424777
54123,NaN,2.153114,9.546820,-1.497384,-0.054960,-0.019039,0.087639,-0.009160,0.011669,0.003899,0.539052,0.523254,-0.551978,-0.361866,99.251002,-12.497316,-82.422356
54124,NaN,2.159275,9.528622,-1.467597,-0.079129,-0.032610,0.066767,-0.009760,0.007692,-0.001045,0.539081,0.523225,-0.551973,-0.361875,99.246711,-12.499628,-82.422335
54125,NaN,2.154181,9.512555,-1.496580,-0.047976,-0.025340,0.054734,-0.008254,0.010260,0.002507,0.539119,0.523198,-0.551970,-0.361860,99.243147,-12.503934,-82.420598
54126,NaN,2.195862,9.513687,-1.503469,-0.035578,-0.063678,0.065934,-0.008028,0.008326,-0.002390,0.539139,0.523168,-0.551971,-0.361873,99.239622,-12.505780,-82.421731
54127,NaN,2.185164,9.547270,-1.479025,-0.066610,-0.050536,0.092151,-0.006171,0.010930,-0.000454,0.539169,0.523156,-0.551963,-0.361859,99.237107,-12.508473,-82.419327
54128,NaN,2.175754,9.511806,-1.457478,-0.081893,-0.051157,0.052569,-0.004235,0.010083,0.000042,0.539188,0.523136,-0.551969,-0.361848,99.235667,-12.511729,-82.419172
54129,NaN,2.170074,9.530152,-1.485689,-0.058605,-0.036979,0.073439,-0.000917,0.009832,0.000812,0.539203,0.523133,-0.551976,-0.361819,99.236325,-12.515037,-82.417523
54130,NaN,2.138985,9.530166,-1.499730,-0.049101,-0.003868,0.068916,-0.000442,0.011839,0.002475,0.539224,0.523122,-0.551990,-0.361785,99.236750,-12.519809,-82.416191
54131,NaN,2.117374,9.565748,-1.534570,-0.024789,0.030150,0.103974,-0.001120,0.011314,-0.001030,0.539241,0.523126,-0.551987,-0.361758,99.237068,-12.522213,-82.413510
54132,NaN,2.113587,9.546317,-1.483401,-0.071673,0.022575,0.076410,-0.000116,0.012327,0.007596,0.539268,0.523098,-0.552018,-0.361710,99.237890,-12.530045,-82.413149
54133,NaN,2.134716,9.548247,-1.527656,-0.026692,0.010952,0.089784,0.002727,0.010070,0.006702,0.539285,0.523089,-0.552046,-0.361655,99.240726,-12.536707,-82.411918
54134,NaN,2.177619,9.514632,-1.536542,-0.006495,-0.034320,0.068102,-0.005086,0.008492,0.006730,0.539311,0.523040,-0.552080,-0.361636,99.239334,-12.543761,-82.414497
54135,NaN,2.203834,9.532874,-1.550131,0.006869,-0.052912,0.093504,-0.006942,0.005888,0.004793,0.539338,0.523003,-0.552097,-0.361623,99.237117,-12.548958,-82.415509
54136,NaN,2.157400,9.515753,-1.571497,0.025268,-0.006885,0.070270,-0.008174,0.006810,0.001063,0.539360,0.522961,-0.552110,-0.361631,99.233822,-12.552560,-82.417779
54137,NaN,2.184183,9.530907,-1.503989,-0.039431,-0.040356,0.080120,-0.008799,0.003285,0.002856,0.539381,0.522919,-0.552126,-0.361635,99.230830,-12.556423,-82.420117
54138,NaN,2.205584,9.529925,-1.466426,-0.072489,-0.066787,0.077952,-0.010585,0.005652,-0.001100,0.539403,0.522875,-0.552132,-0.361658,99.226167,-12.558691,-82.422781
54139,NaN,2.174207,9.530163,-1.479563,-0.063002,-0.033749,0.073423,-0.013145,0.002975,0.000195,0.539430,0.522828,-0.552134,-0.361683,99.220669,-12.561021,-82.425047
54140,NaN,2.173826,9.564793,-1.477020,-0.071367,-0.026440,0.106313,-0.009353,0.004730,0.002630,0.539448,0.522772,-0.552160,-0.361696,99.217323,-12.565398,-82.429555
54141,NaN,2.164356,9.529349,-1.455343,-0.086642,-0.027128,0.066721,-0.006916,0.005438,-0.001945,0.539462,0.522753,-0.552161,-0.361703,99.215040,-12.566744,-82.430193
54142,NaN,2.174520,9.530552,-1.476593,-0.064362,-0.032735,0.073418,-0.010382,0.004170,0.000740,0.539484,0.522704,-0.552173,-0.361721,99.210792,-12.569904,-82.433260
54143,NaN,2.200688,9.514456,-1.491499,-0.043137,-0.058268,0.065937,-0.004426,0.003144,-0.001222,0.539486,0.522685,-0.552187,-0.361725,99.210240,-12.571450,-82.435296
54144,NaN,2.247937,9.497241,-1.470057,-0.054604,-0.110518,0.056288,-0.004910,0.009562,-0.003464,0.539497,0.522671,-0.552188,-0.361727,99.208685,-12.572699,-82.435618
54145,NaN,2.205506,9.530879,-1.460326,-0.075690,-0.064567,0.077943,-0.001443,0.010830,-0.006149,0.539503,0.522688,-0.552173,-0.361716,99.208772,-12.572163,-82.432737
54146,NaN,2.215662,9.497656,-1.483471,-0.045584,-0.077140,0.051758,-0.001847,0.013797,-0.009832,0.539506,0.522707,-0.552152,-0.361716,99.208299,-12.570198,-82.429991
54147,NaN,2.214403,9.532361,-1.481726,-0.053919,-0.069908,0.084646,0.001742,0.017035,-0.009237,0.539516,0.522752,-0.552118,-0.361688,99.209365,-12.568485,-82.423225
54148,NaN,2.124757,9.548856,-1.494655,-0.056086,0.021780,0.083050,0.001823,0.013583,-0.010677,0.539509,0.522780,-0.552102,-0.361683,99.210674,-12.566100,-82.420770
54149,NaN,2.155430,9.548923,-1.480548,-0.066495,-0.010682,0.087580,0.010664,0.015722,-0.008809,0.539492,0.522846,-0.552089,-0.361633,99.217027,-12.564509,-82.414805
54150,NaN,2.155532,9.514472,-1.482385,-0.059090,-0.017304,0.054691,0.006087,0.017345,-0.006577,0.539492,0.522887,-0.552078,-0.361591,99.220769,-12.564624,-82.409767
