// General information: 
//  MT Manager version: 2019.0.1 
//  XDA version: 2019.0.1 build 2740 rev 84096 built on 2019-01-30
// Device information: 
//  DeviceId: 00B4381A
//  ProductCode: MTW2-3A7G6
//  Firmware Version: 4.3.4
//  Hardware Version: 1.1.0
// Device settings: 
//  Filter Profile: human(46.1)
//  Option Flags: Orientation Smoother Disabled, AHS Disabled, ICC Disabled
// Coordinate system: ENU
PacketCounter,SampleTimeFine,Acc_X,Acc_Y,Acc_Z,FreeAcc_E,FreeAcc_N,FreeAcc_U,Gyr_X,Gyr_Y,Gyr_Z,Quat_q0,Quat_q1,Quat_q2,Quat_q3,Roll,Pitch,Yaw
05066,NaN,-7.699126,0.257878,6.179406,-0.008459,0.020430,0.062920,-0.018764,-0.001619,0.012154,-0.403738,0.380770,-0.207348,-0.805616,2.442938,51.346454,127.938597
05067,NaN,-7.668712,0.262454,6.150458,-0.010790,0.013621,0.021226,-0.017771,-0.002805,0.012302,-0.403722,0.380757,-0.207318,-0.805638,2.441217,51.343213,127.940686
05068,NaN,-7.693624,0.278370,6.168142,-0.021910,0.002941,0.052140,-0.019557,0.002121,0.013270,-0.403693,0.380765,-0.207292,-0.805655,2.439395,51.342576,127.944142
05069,NaN,-7.670980,0.286187,6.192941,-0.048025,0.025103,0.050143,-0.017524,-0.000752,0.011667,-0.403678,0.380760,-0.207266,-0.805672,2.437423,51.340525,127.945729
05070,NaN,-7.722694,0.261231,6.176139,-0.000440,0.003206,0.079377,-0.018564,0.000935,0.013416,-0.403652,0.380762,-0.207242,-0.805690,2.436286,51.339315,127.949096
05071,NaN,-7.693628,0.277928,6.168157,-0.021530,0.002353,0.052141,-0.015049,0.000985,0.010701,-0.403645,0.380760,-0.207228,-0.805698,2.435095,51.338282,127.949866
05072,NaN,-7.722792,0.260985,6.176028,-0.000170,0.002784,0.079377,-0.016040,0.002170,0.010550,-0.403633,0.380764,-0.207210,-0.805707,2.433342,51.337716,127.950884
05073,NaN,-7.722872,0.260665,6.175941,-0.000049,0.002586,0.079377,-0.015943,0.001167,0.006748,-0.403639,0.380769,-0.207185,-0.805708,2.428816,51.336884,127.948039
05074,NaN,-7.698958,0.256467,6.179674,-0.007312,0.018802,0.062924,-0.014596,-0.003810,0.014007,-0.403625,0.380739,-0.207172,-0.805732,2.430737,51.332708,127.951772
05075,NaN,-7.714839,0.257535,6.122521,0.024027,-0.026797,0.039675,-0.011327,-0.005814,0.011924,-0.403627,0.380701,-0.207161,-0.805752,2.432347,51.327753,127.953398
05076,NaN,-7.699357,0.268759,6.201811,-0.025771,0.024376,0.077385,-0.011231,-0.006816,0.008122,-0.403645,0.380661,-0.207143,-0.805766,2.431566,51.322188,127.951535
05077,NaN,-7.716211,0.281610,6.166112,-0.013188,-0.015260,0.068595,-0.011477,-0.008871,0.008750,-0.403662,0.380614,-0.207120,-0.805786,2.430728,51.315561,127.950135
05078,NaN,-7.688825,0.322345,6.201320,-0.071712,-0.004172,0.070285,-0.013705,-0.008554,0.009080,-0.403672,0.380571,-0.207087,-0.805810,2.429088,51.308770,127.949471
05079,NaN,-7.675178,0.276297,6.228510,-0.051543,0.046160,0.075399,-0.013165,-0.004945,0.005920,-0.403693,0.380546,-0.207059,-0.805818,2.425380,51.304459,127.945634
05080,NaN,-7.663227,0.305535,6.184526,-0.060160,0.005931,0.039374,-0.016138,-0.001387,0.005472,-0.403710,0.380541,-0.207029,-0.805820,2.420129,51.302213,127.941242
05081,NaN,-7.668485,0.284071,6.196127,-0.046278,0.022785,0.050157,-0.019404,0.000616,0.007553,-0.403707,0.380550,-0.206991,-0.805827,2.414181,51.301045,127.939116
05082,NaN,-7.672879,0.250479,6.186165,-0.013599,0.033637,0.046477,-0.017381,0.007149,0.003286,-0.403718,0.380583,-0.206966,-0.805813,2.406849,51.303451,127.933621
05083,NaN,-7.666808,0.258791,6.152986,-0.008503,0.010419,0.021232,-0.016777,0.005406,0.009763,-0.403706,0.380603,-0.206951,-0.805813,2.404131,51.304972,127.933702
05084,NaN,-7.696099,0.241754,6.160699,0.012903,0.010845,0.048464,-0.017269,0.001296,0.011017,-0.403695,0.380603,-0.206933,-0.805822,2.402500,51.303958,127.934634
05085,NaN,-7.696080,0.241985,6.160713,0.013025,0.010645,0.048464,-0.015770,-0.000635,0.021441,-0.403644,0.380586,-0.206933,-0.805856,2.408523,51.301739,127.945177
05086,NaN,-7.696896,0.254743,6.182314,-0.005533,0.016404,0.062929,-0.012006,-0.007935,0.020762,-0.403609,0.380529,-0.206931,-0.805902,2.416188,51.295022,127.955323
05087,NaN,-7.688702,0.252563,6.129076,0.018277,-0.012811,0.023216,-0.013536,-0.010360,0.023764,-0.403563,0.380465,-0.206924,-0.805956,2.424852,51.287178,127.967613
05088,NaN,-7.720354,0.272836,6.201720,-0.016551,0.005573,0.093843,-0.011801,-0.014789,0.024685,-0.403522,0.380377,-0.206919,-0.806020,2.435237,51.276696,127.980574
05089,NaN,-7.711805,0.270971,6.148926,0.007248,-0.023646,0.054128,-0.009572,-0.015109,0.024351,-0.403486,0.380286,-0.206920,-0.806081,2.446437,51.266117,127.993206
05090,NaN,-7.687874,0.280263,6.175222,-0.018739,-0.001396,0.052147,-0.010605,-0.022832,0.028752,-0.403440,0.380157,-0.206912,-0.806166,2.460398,51.250824,128.009573
05091,NaN,-7.681196,0.302730,6.165330,-0.032406,-0.018608,0.041364,-0.006644,-0.018173,0.026687,-0.403404,0.380045,-0.206924,-0.806234,2.474831,51.238430,128.024204
05092,NaN,-7.708946,0.287625,6.174915,-0.011055,-0.018238,0.068593,-0.009612,-0.024021,0.028889,-0.403358,0.379912,-0.206914,-0.806322,2.488959,51.222540,128.040810
05093,NaN,-7.678370,0.305956,6.168690,-0.032157,-0.019001,0.041364,-0.009115,-0.019912,0.027632,-0.403315,0.379797,-0.206914,-0.806398,2.502577,51.209123,128.056217
05094,NaN,-7.684524,0.310325,6.224282,-0.055680,0.009829,0.081084,-0.011206,-0.021087,0.022262,-0.403289,0.379686,-0.206891,-0.806469,2.511095,51.195053,128.066911
05095,NaN,-7.736033,0.298733,6.230419,-0.026911,-0.006244,0.124757,-0.010170,-0.022774,0.020506,-0.403275,0.379569,-0.206867,-0.806538,2.518929,51.180173,128.075678
05096,NaN,-7.727079,0.296485,6.178231,-0.003131,-0.035452,0.085036,-0.012351,-0.022952,0.018933,-0.403267,0.379455,-0.206834,-0.806603,2.524670,51.165298,128.082647
05097,NaN,-7.684377,0.279878,6.219873,-0.022764,0.020282,0.077402,-0.010035,-0.024269,0.014801,-0.403279,0.379337,-0.206797,-0.806663,2.528469,51.149705,128.086137
05098,NaN,-7.658128,0.264117,6.203851,-0.011256,0.030545,0.046490,-0.013991,-0.019518,0.014212,-0.403284,0.379243,-0.206757,-0.806715,2.530443,51.136684,128.089039
05099,NaN,-7.659132,0.288194,6.247694,-0.048564,0.042406,0.075431,-0.014484,-0.014219,0.012817,-0.403284,0.379176,-0.206718,-0.806755,2.530596,51.126894,128.091120
05100,NaN,-7.609798,0.267880,6.234310,-0.044472,0.069142,0.028078,-0.018235,-0.006914,0.013506,-0.403273,0.379143,-0.206687,-0.806785,2.530019,51.121220,128.093674
05101,NaN,-7.627803,0.292589,6.219880,-0.050747,0.035505,0.033736,-0.017857,-0.006350,0.007186,-0.403282,0.379121,-0.206639,-0.806803,2.524489,51.116076,128.090938
05102,NaN,-7.627722,0.292139,6.220001,-0.050534,0.035315,0.033738,-0.017983,0.004552,0.010243,-0.403268,0.379136,-0.206622,-0.806808,2.521975,51.116773,128.091570
05103,NaN,-7.639942,0.261841,6.263647,-0.041473,0.075147,0.069781,-0.018183,0.011411,0.006329,-0.403261,0.379187,-0.206608,-0.806791,2.516206,51.121817,128.088767
05104,NaN,-7.652795,0.294947,6.214989,-0.042818,0.018466,0.050181,-0.019826,0.014850,0.001616,-0.403266,0.379257,-0.206585,-0.806761,2.506568,51.128669,128.082065
05105,NaN,-7.652878,0.281922,6.192385,-0.023981,0.012236,0.035710,-0.019123,0.021514,0.001645,-0.403266,0.379356,-0.206578,-0.806716,2.497244,51.139613,128.075389
05106,NaN,-7.672570,0.306068,6.175898,-0.030264,-0.021407,0.041365,-0.020694,0.019582,0.006537,-0.403245,0.379444,-0.206571,-0.806687,2.490581,51.149209,128.073206
05107,NaN,-7.679295,0.284466,6.185694,-0.016310,-0.004616,0.052150,-0.019002,0.025056,0.006712,-0.403221,0.379551,-0.206582,-0.806646,2.485030,51.162054,128.071287
05108,NaN,-7.703462,0.275867,6.159158,0.009967,-0.027337,0.054116,-0.019118,0.021512,0.001635,-0.403220,0.379647,-0.206576,-0.806603,2.476019,51.172745,128.064835
05109,NaN,-7.724007,0.312136,6.164161,-0.015070,-0.054925,0.074241,-0.015749,0.013637,0.007259,-0.403212,0.379701,-0.206577,-0.806581,2.472365,51.179039,128.062959
05110,NaN,-7.712656,0.277602,6.211080,-0.013309,0.001363,0.093849,-0.015171,0.007346,0.004851,-0.403223,0.379729,-0.206567,-0.806565,2.467568,51.181634,128.058605
05111,NaN,-7.723963,0.299137,6.141661,0.003917,-0.061362,0.059765,-0.014138,0.005662,0.003099,-0.403243,0.379752,-0.206551,-0.806549,2.461631,51.183466,128.052615
05112,NaN,-7.707911,0.297304,6.198917,-0.026846,-0.015945,0.083063,-0.013399,0.002418,0.003866,-0.403270,0.379756,-0.206540,-0.806536,2.457293,51.183414,128.046655
05113,NaN,-7.712308,0.264110,6.188982,0.005827,-0.005235,0.079374,-0.011466,0.000536,0.006057,-0.403288,0.379750,-0.206530,-0.806532,2.454836,51.182238,128.043165
05114,NaN,-7.665815,0.266955,6.217327,-0.027495,0.033600,0.060978,-0.013222,0.000439,-0.003728,-0.403344,0.379757,-0.206496,-0.806510,2.444549,51.181260,128.030644
05115,NaN,-7.646449,0.229082,6.210902,-0.002187,0.060778,0.040854,-0.012117,0.002790,0.001491,-0.403377,0.379766,-0.206480,-0.806493,2.438539,51.181485,128.023073
05116,NaN,-7.659764,0.274394,6.184205,-0.022370,0.010197,0.035716,-0.018632,0.006796,0.005649,-0.403379,0.379798,-0.206455,-0.806483,2.432153,51.183847,128.019321
05117,NaN,-7.661223,0.285508,6.205038,-0.040941,0.016080,0.050194,-0.015080,0.006355,0.001049,-0.403404,0.379828,-0.206433,-0.806462,2.424238,51.186122,128.011483
05118,NaN,-7.663723,0.308369,6.247206,-0.078212,0.028013,0.079149,-0.018543,0.005807,0.001849,-0.403416,0.379863,-0.206394,-0.806450,2.414667,51.187936,128.004853
05119,NaN,-7.692317,0.278595,6.233244,-0.038155,0.022218,0.091894,-0.020224,0.009746,-0.000965,-0.403437,0.379919,-0.206354,-0.806423,2.402470,51.192200,127.995304
05120,NaN,-7.662655,0.282180,6.203422,-0.040543,0.015471,0.050196,-0.022787,0.008996,0.003776,-0.403433,0.379971,-0.206312,-0.806411,2.392292,51.195788,127.990204
05121,NaN,-7.663147,0.281016,6.202867,-0.040417,0.015281,0.050197,-0.025261,0.007259,0.004720,-0.403424,0.380021,-0.206257,-0.806406,2.381178,51.198490,127.985749
05122,NaN,-7.663773,0.279757,6.202151,-0.040245,0.015095,0.050198,-0.028018,0.013374,0.005554,-0.403401,0.380099,-0.206208,-0.806394,2.369616,51.204526,127.982274
05123,NaN,-7.664402,0.278626,6.201425,-0.040119,0.014905,0.050199,-0.023079,0.007431,0.006286,-0.403389,0.380144,-0.206166,-0.806389,2.360871,51.207289,127.979255
05124,NaN,-7.688625,0.281631,6.197398,-0.032626,-0.001801,0.066632,-0.027439,0.007085,0.003137,-0.403379,0.380199,-0.206097,-0.806386,2.347329,51.209772,127.973731
05125,NaN,-7.633953,0.269268,6.149987,-0.023716,0.001863,-0.005979,-0.026629,0.007866,0.010874,-0.403342,0.380248,-0.206050,-0.806393,2.339829,51.212675,127.974918
05126,NaN,-7.683143,0.288751,6.163575,-0.027492,-0.025198,0.041364,-0.025139,0.010790,0.009780,-0.403313,0.380303,-0.206018,-0.806390,2.333237,51.217057,127.974989
05127,NaN,-7.670868,0.241869,6.189000,-0.006940,0.024970,0.046510,-0.024888,0.012846,0.009158,-0.403280,0.380370,-0.205985,-0.806383,2.325655,51.222852,127.974793
05128,NaN,-7.720278,0.261505,6.202303,-0.010804,-0.002118,0.093852,-0.020482,0.012697,0.010404,-0.403251,0.380427,-0.205972,-0.806375,2.321484,51.228518,127.975792
05129,NaN,-7.671260,0.229177,6.165889,0.012000,0.018470,0.032030,-0.016372,0.010983,0.014169,-0.403216,0.380465,-0.205979,-0.806372,2.322299,51.233129,127.980106
05130,NaN,-7.691319,0.265729,6.171572,-0.013051,-0.009039,0.052152,-0.019314,0.009543,0.002955,-0.403225,0.380511,-0.205953,-0.806353,2.313887,51.236990,127.974030
05131,NaN,-7.720119,0.236616,6.157208,0.026991,-0.014924,0.064888,-0.011285,0.012982,0.006589,-0.403229,0.380554,-0.205970,-0.806326,2.312269,51.242921,127.971486
05132,NaN,-7.749846,0.219795,6.164335,0.048442,-0.014665,0.092104,-0.012289,0.004753,0.009059,-0.403236,0.380559,-0.205979,-0.806318,2.312505,51.243967,127.970335
05133,NaN,-7.726328,0.215309,6.167570,0.041231,0.001634,0.075675,-0.010916,0.004149,0.002894,-0.403264,0.380569,-0.205973,-0.806300,2.308209,51.244926,127.964086
05134,NaN,-7.699493,0.255306,6.202211,-0.017179,0.013274,0.077425,-0.007705,0.002640,0.002719,-0.403304,0.380564,-0.205980,-0.806281,2.306113,51.244884,127.957442
05135,NaN,-7.717997,0.280264,6.187150,-0.023637,-0.020342,0.083063,-0.005480,0.002320,0.002396,-0.403346,0.380557,-0.205991,-0.806260,2.304524,51.244808,127.950670
05136,NaN,-7.759857,0.404841,6.451338,-0.226289,0.053329,0.284094,-0.018182,-0.012443,0.000739,-0.403385,0.380514,-0.205917,-0.806280,2.294403,51.235875,127.942331
05137,NaN,-7.960300,0.661691,6.942027,-0.576531,0.112343,0.753813,-0.063305,-0.037523,-0.002200,-0.403377,0.380468,-0.205606,-0.806385,2.255284,51.213090,127.929914
05138,NaN,-8.431933,1.005263,7.372271,-0.866668,-0.060520,1.399076,-0.155585,-0.098761,-0.012822,-0.403299,0.380369,-0.204780,-0.806681,2.154407,51.155230,127.905910
05139,NaN,-8.746017,1.283704,7.571148,-1.062479,-0.279685,1.774193,-0.276583,-0.200060,-0.025631,-0.403146,0.380121,-0.203235,-0.807265,1.972457,51.039834,127.866958
05140,NaN,-8.773783,1.436757,7.274788,-1.043464,-0.614234,1.610962,-0.375691,-0.312766,-0.025833,-0.402919,0.379612,-0.201065,-0.808161,1.732202,50.859515,127.825447
05141,NaN,-9.177587,1.898615,6.920068,-1.093013,-1.373612,1.704182,-0.471687,-0.483470,-0.001834,-0.402579,0.378583,-0.198205,-0.809518,1.451181,50.581223,127.802715
05142,NaN,-9.581422,2.328286,6.638863,-1.133503,-2.093036,1.833451,-0.581869,-0.730720,0.022934,-0.402171,0.376741,-0.194446,-0.811490,1.122904,50.160644,127.799951
05143,NaN,-9.565743,2.372415,6.387692,-1.024496,-2.378796,1.642645,-0.696947,-0.989570,0.052310,-0.401665,0.374044,-0.189748,-0.814096,0.748305,49.591765,127.823351
05144,NaN,-9.246859,2.207721,6.329250,-0.943623,-2.285812,1.337221,-0.798672,-1.196897,0.078187,-0.401045,0.370662,-0.184264,-0.817202,0.336256,48.903938,127.873548
05145,NaN,-8.728666,2.103806,6.769511,-1.213438,-1.842910,1.213218,-0.886611,-1.365200,0.114211,-0.400244,0.366718,-0.178135,-0.820725,-0.099086,48.120040,127.961417
05146,NaN,-8.094965,2.036006,7.405239,-1.647543,-1.267604,1.150292,-1.001412,-1.533277,0.163451,-0.399155,0.362238,-0.171283,-0.824695,-0.562473,47.240408,128.099794
05147,NaN,-7.210186,1.502816,7.892288,-1.759221,-0.371353,0.831433,-1.099133,-1.639619,0.252101,-0.397573,0.357410,-0.163953,-0.829043,-1.023867,46.301415,128.321498
05148,NaN,-6.446995,1.260472,8.292368,-2.021509,0.225853,0.568786,-1.178829,-1.658578,0.299885,-0.395637,0.352584,-0.156344,-0.833494,-1.497738,45.354143,128.589300
05149,NaN,-6.093759,0.863440,8.352573,-1.845251,0.516604,0.383880,-1.248753,-1.598307,0.386044,-0.393119,0.348045,-0.148677,-0.837984,-1.964063,44.443738,128.932615
05150,NaN,-6.784347,1.143237,8.581585,-1.801042,-0.112790,1.037119,-1.223149,-1.524450,0.422911,-0.390413,0.343698,-0.141345,-0.842301,-2.393851,43.579486,129.306745
05151,NaN,-7.857589,1.252319,8.524334,-1.300819,-1.005362,1.731481,-1.289155,-1.522933,0.395766,-0.387651,0.339475,-0.133644,-0.846536,-2.880877,42.716439,129.664670
05152,NaN,-8.349822,1.194947,8.247621,-0.824312,-1.580054,1.848816,-1.319023,-1.608894,0.353731,-0.385036,0.334935,-0.125577,-0.850762,-3.403352,41.805451,129.999013
05153,NaN,-8.122265,1.046738,7.888324,-0.571330,-1.722085,1.412126,-1.311384,-1.731438,0.374655,-0.382373,0.329810,-0.117315,-0.855133,-3.908812,40.827191,130.361142
05154,NaN,-7.285016,0.801073,7.398719,-0.479740,-1.486516,0.483466,-1.243005,-1.811667,0.436164,-0.379560,0.324133,-0.109282,-0.859610,-4.343173,39.807741,130.779244
05155,NaN,-6.214477,0.543288,6.978328,-0.540343,-1.037890,-0.526132,-1.108999,-1.787187,0.546151,-0.376432,0.318209,-0.102033,-0.864078,-4.655054,38.809448,131.279166
05156,NaN,-5.498148,0.321690,6.675659,-0.517512,-0.728490,-1.204720,-0.900560,-1.690794,0.677472,-0.372977,0.312205,-0.096067,-0.868439,-4.798644,37.873786,131.867647
05157,NaN,-5.362075,0.560391,6.677618,-0.663690,-0.930463,-1.306901,-0.690281,-1.653994,0.771374,-0.369390,0.305896,-0.091216,-0.872731,-4.793903,36.964341,132.515075
05158,NaN,-4.827389,0.667619,6.846354,-1.005543,-0.733920,-1.501826,-0.651427,-1.664868,0.773534,-0.365821,0.299434,-0.086514,-0.876943,-4.777768,36.048541,133.157200
05159,NaN,-4.272705,0.175468,7.056820,-0.976222,-0.081293,-1.619740,-0.706255,-1.591377,0.779042,-0.362082,0.293368,-0.081702,-0.880998,-4.806354,35.175178,133.791300
05160,NaN,-4.299714,-0.009574,7.450813,-0.931915,0.077691,-1.261287,-0.672574,-1.441773,0.832418,-0.358064,0.287849,-0.077384,-0.884842,-4.809666,34.389754,134.448035
05161,NaN,-4.862112,-0.157632,7.582035,-0.483797,-0.187437,-0.819249,-0.597846,-1.299095,0.898520,-0.353779,0.282785,-0.073738,-0.888502,-4.760563,33.688921,135.135480
05162,NaN,-5.342851,0.050223,7.830952,-0.363976,-0.615593,-0.359653,-0.548579,-1.203949,0.949080,-0.349280,0.278014,-0.070550,-0.892039,-4.676569,33.043924,135.846191
05163,NaN,-5.178668,-0.176648,7.938134,-0.273893,-0.381093,-0.344705,-0.528416,-1.079223,0.984061,-0.344588,0.273738,-0.067709,-0.895400,-4.582309,32.471069,136.567303
05164,NaN,-4.706531,-0.299350,7.842638,-0.366910,-0.095522,-0.669178,-0.513069,-0.882761,1.054522,-0.339515,0.270272,-0.065372,-0.898560,-4.466999,32.012277,137.320529
05165,NaN,-4.677043,-0.354898,7.745241,-0.247866,-0.099210,-0.761837,-0.492785,-0.655710,1.125502,-0.334059,0.267759,-0.063600,-0.901479,-4.328594,31.685131,138.104934
05166,NaN,-4.769645,-0.429584,7.574748,-0.018405,-0.160498,-0.852520,-0.464317,-0.496394,1.182664,-0.328317,0.265882,-0.062301,-0.904231,-4.162216,31.449421,138.916722
05167,NaN,-4.969985,-0.528553,7.387930,0.298003,-0.250276,-0.901457,-0.420207,-0.398779,1.252080,-0.322275,0.264343,-0.061446,-0.906910,-3.953513,31.270304,139.767252
05168,NaN,-5.126889,-0.566632,7.140926,0.576523,-0.363725,-1.030090,-0.346519,-0.356020,1.305592,-0.316059,0.262847,-0.061066,-0.909554,-3.687626,31.114408,140.649624
05169,NaN,-5.001475,-0.528607,6.983566,0.584463,-0.345977,-1.233478,-0.265404,-0.292938,1.341722,-0.309751,0.261490,-0.061195,-0.912103,-3.367932,30.992267,141.550916
05170,NaN,-5.078024,-0.570471,6.810000,0.780634,-0.368164,-1.342584,-0.211024,-0.226888,1.358011,-0.303404,0.260328,-0.061698,-0.914532,-3.014357,30.903643,142.459131
05171,NaN,-5.000488,-0.674718,6.721430,0.868070,-0.226364,-1.456092,-0.141710,-0.150240,1.349784,-0.297148,0.259406,-0.062615,-0.916783,-2.627574,30.853877,143.357640
05172,NaN,-4.971451,-0.724375,6.979894,0.799241,-0.052350,-1.250146,-0.071060,-0.064126,1.357227,-0.290908,0.258756,-0.063995,-0.918870,-2.198994,30.847857,144.258347
05173,NaN,-5.048606,-0.694840,7.443093,0.664936,0.066257,-0.816914,-0.022237,0.024914,1.361134,-0.284673,0.258435,-0.065727,-0.920789,-1.742633,30.887177,145.159343
05174,NaN,-4.761864,-0.627498,7.803192,0.293723,0.311356,-0.659803,0.009445,0.115792,1.390455,-0.278299,0.258461,-0.067773,-0.922580,-1.256836,30.972387,146.079599
05175,NaN,-4.697906,-0.588830,8.034126,0.143003,0.440971,-0.498780,0.005792,0.240422,1.414350,-0.271755,0.259050,-0.069999,-0.924198,-0.763737,31.122736,147.015980
05176,NaN,-4.732936,-0.597328,8.036016,0.178510,0.508294,-0.482935,-0.000241,0.372717,1.416240,-0.265133,0.260242,-0.072380,-0.925602,-0.268866,31.341708,147.956461
05177,NaN,-4.699658,-0.557903,7.938338,0.173223,0.545424,-0.588418,0.007725,0.487204,1.423258,-0.258435,0.261939,-0.074950,-0.926813,0.238268,31.619503,148.906009
05178,NaN,-4.577892,-0.601059,7.629027,0.233437,0.637920,-0.921213,0.031023,0.581002,1.434880,-0.251662,0.264018,-0.077764,-0.927854,0.771231,31.943336,149.870262
05179,NaN,-4.455917,-0.587553,7.331319,0.254094,0.686385,-1.244594,0.073245,0.658325,1.448489,-0.244837,0.266384,-0.080881,-0.928737,1.341872,32.303700,150.851609
05180,NaN,-4.600300,-0.441909,7.160882,0.345882,0.549003,-1.314783,0.120253,0.732032,1.471500,-0.237921,0.269005,-0.084336,-0.929471,1.959239,32.696957,151.858790
05181,NaN,-4.944628,-0.346131,7.203700,0.514935,0.444947,-1.094987,0.167882,0.750880,1.476187,-0.231025,0.271640,-0.088031,-0.930102,2.616339,33.091736,152.878986
05182,NaN,-5.381850,-0.237642,7.434481,0.664899,0.362956,-0.662973,0.229667,0.728542,1.489480,-0.224143,0.274072,-0.092003,-0.930688,3.325177,33.462782,153.917780
05183,NaN,-5.637478,-0.147115,7.654497,0.698753,0.375689,-0.338331,0.282120,0.684246,1.493767,-0.217320,0.276222,-0.096165,-0.931250,4.074814,33.797578,154.967093
05184,NaN,-5.758255,-0.136021,7.814378,0.700597,0.498104,-0.143139,0.329829,0.660733,1.485492,-0.210596,0.278192,-0.100509,-0.931749,4.858513,34.107275,156.018977
05185,NaN,-5.818874,-0.012429,7.959500,0.613468,0.542701,0.012827,0.372673,0.688274,1.459852,-0.204024,0.280243,-0.105037,-0.932098,5.667056,34.422199,157.063639
05186,NaN,-5.792154,0.148575,8.012483,0.485614,0.557267,0.047492,0.395092,0.732347,1.431978,-0.197575,0.282468,-0.109670,-0.932281,6.489993,34.751286,158.101883
05187,NaN,-5.727046,0.340267,7.887014,0.398459,0.500054,-0.080809,0.425259,0.792677,1.406372,-0.191242,0.284943,-0.114457,-0.932273,7.333273,35.104309,159.137211
05188,NaN,-5.672839,0.584298,7.805933,0.274543,0.405539,-0.157964,0.460339,0.839182,1.383168,-0.185027,0.287591,-0.119413,-0.932093,8.201980,35.472490,160.171982
05189,NaN,-5.673594,0.745172,7.728000,0.225398,0.371951,-0.206641,0.499199,0.878249,1.374973,-0.178870,0.290373,-0.124564,-0.931758,9.103893,35.850736,161.216648
05190,NaN,-5.750601,0.768342,7.462527,0.385436,0.382160,-0.375911,0.539270,0.877055,1.397776,-0.172652,0.293074,-0.129927,-0.931353,10.051172,36.212059,162.289617
05191,NaN,-5.414422,0.540803,7.266786,0.296512,0.744641,-0.769980,0.604780,0.841681,1.425988,-0.166410,0.295517,-0.135593,-0.930909,11.056951,36.535987,163.389697
05192,NaN,-4.582327,0.224052,7.478813,-0.354535,1.437074,-1.164686,0.662229,1.023728,1.445833,-0.160021,0.298719,-0.141698,-0.930098,12.133037,36.943332,164.542414
05193,NaN,-4.602582,0.564326,8.311904,-0.955804,1.571482,-0.474378,0.618680,1.553939,1.416722,-0.153312,0.304413,-0.147965,-0.928404,13.241886,37.633378,165.776250
05194,NaN,-5.833327,0.457283,8.816625,-0.353641,1.793363,0.609555,0.613514,2.091128,1.296948,-0.146731,0.312648,-0.154418,-0.925676,14.386911,38.618889,167.049982
05195,NaN,-7.910925,1.011470,10.428111,-0.042376,1.759156,3.196688,0.492165,2.610050,1.125025,-0.140329,0.323452,-0.160391,-0.921933,15.495168,39.897574,168.344734
05196,NaN,-9.626693,0.760121,10.957330,0.728648,2.198220,4.607164,0.425462,3.149241,0.919030,-0.134302,0.336872,-0.166065,-0.917008,16.605198,41.485747,169.662470
05197,NaN,-11.353125,1.221991,10.183302,1.876164,1.542266,5.292414,0.433396,3.409539,0.703685,-0.129022,0.351564,-0.171537,-0.911225,17.732229,43.233444,170.956260
05198,NaN,-11.269553,1.146077,7.881033,2.815702,0.980846,3.660218,0.471505,3.257925,0.530834,-0.124687,0.365584,-0.176732,-0.905299,18.850532,44.910285,172.165512
05199,NaN,-9.428759,1.085096,5.785390,2.523678,0.587075,0.995946,0.565654,2.944237,0.494923,-0.120934,0.378067,-0.182047,-0.899611,20.023661,46.407145,173.342944
05200,NaN,-7.901287,0.437398,3.927578,2.663419,0.700497,-1.418782,0.738473,2.744838,0.522086,-0.117539,0.389439,-0.188030,-0.893961,21.346135,47.773060,174.561342
05201,NaN,-7.057828,0.368307,2.243908,3.054896,0.249868,-3.061014,1.144861,2.706286,0.513915,-0.114984,0.400326,-0.195750,-0.887806,22.969587,49.098797,175.845113
05202,NaN,-6.791839,1.151879,0.937327,3.332458,-0.877069,-3.774766,1.419958,2.658221,0.530051,-0.112928,0.410732,-0.204651,-0.881286,24.839670,50.368849,177.220560
05203,NaN,-6.785761,1.597026,-0.117341,3.761932,-1.624271,-4.172014,1.598444,2.461919,0.603540,-0.111090,0.420005,-0.214331,-0.874824,26.896738,51.488305,178.681560
05204,NaN,-7.066693,1.735902,-0.696903,4.183277,-1.901483,-4.127713,1.832796,2.053773,0.756335,-0.109489,0.427108,-0.225085,-0.868866,29.139697,52.324786,-179.811592
05205,NaN,-7.067029,2.029868,0.033669,3.484303,-1.678051,-3.559226,2.130386,1.573089,0.931459,-0.108282,0.431678,-0.237198,-0.863520,31.556987,52.834444,-178.313525
05206,NaN,-7.235048,2.639004,1.333119,2.385501,-1.395232,-2.501918,2.354680,1.154711,1.117187,-0.107231,0.434014,-0.250405,-0.858738,34.092913,53.045227,-176.835003
05207,NaN,-7.490045,3.337811,3.280626,0.873978,-0.763610,-1.057524,2.494041,0.888770,1.242396,-0.106256,0.434884,-0.264288,-0.854247,36.684958,53.050087,-175.388215
05208,NaN,-7.435621,4.152703,6.061694,-1.422030,0.325806,0.538250,2.473839,0.849167,1.284497,-0.105086,0.435449,-0.278098,-0.849707,39.270159,52.983055,-173.934992
05209,NaN,-8.547220,4.732954,9.027833,-3.031514,1.920374,2.996239,2.279910,0.913599,1.250052,-0.103530,0.436349,-0.290988,-0.845108,41.748090,52.918239,-172.475612
05210,NaN,-10.870150,4.521223,11.067269,-2.936914,3.829807,5.607456,1.970966,0.825050,1.106648,-0.102017,0.437170,-0.302164,-0.840935,43.916441,52.836534,-171.181118
05211,NaN,-8.463743,2.865065,9.616712,-2.660387,4.384030,2.271196,1.888516,0.628528,1.032524,-0.100919,0.437259,-0.312690,-0.837165,45.884229,52.676865,-170.077087
05212,NaN,-3.073157,2.944306,7.226667,-4.289851,2.528450,-3.064444,1.982325,0.634859,1.273539,-0.098994,0.436890,-0.324096,-0.833240,48.017108,52.394922,-168.829491
05213,NaN,-1.737002,3.123811,4.898882,-3.611961,0.943313,-5.033944,2.074118,1.014946,1.498448,-0.095699,0.437621,-0.336508,-0.828307,50.499357,52.127165,-167.202087
05214,NaN,-4.667392,4.692079,4.530807,-2.340991,0.115439,-2.142617,2.175282,1.471982,1.516887,-0.091761,0.440071,-0.349528,-0.822039,53.284861,51.967066,-165.258807
05215,NaN,-7.705979,5.911312,3.953327,-0.762850,-0.402901,0.637225,2.268158,1.774526,1.476732,-0.087640,0.443686,-0.362893,-0.814721,56.268289,51.865946,-163.128360
05216,NaN,-10.340376,7.385649,4.166452,-0.114402,-0.471889,3.550649,2.380028,1.714682,1.515805,-0.083693,0.446816,-0.376678,-0.807134,59.275587,51.658873,-161.044496
05217,NaN,-11.513430,7.535461,4.471300,0.239142,0.302533,4.650012,2.397744,1.257141,1.618139,-0.080213,0.447785,-0.390473,-0.800366,62.008578,51.208024,-159.315018
05218,NaN,-10.896660,6.688121,4.728850,0.116315,1.337490,3.752528,2.407014,0.670286,1.720065,-0.077472,0.446094,-0.404204,-0.794744,64.356785,50.505850,-158.074273
05219,NaN,-9.905659,5.189075,4.358908,0.556197,2.176454,1.976871,2.370794,0.298587,1.719773,-0.075385,0.442842,-0.417557,-0.789845,66.394450,49.685821,-157.197735
05220,NaN,-9.126841,4.062566,3.502112,1.269123,2.353168,0.430097,2.347583,0.135042,1.640629,-0.073885,0.439023,-0.430491,-0.785160,68.245625,48.852770,-156.538742
05221,NaN,-8.382771,3.929773,2.521112,1.575063,1.735332,-0.508187,2.324546,0.073094,1.549430,-0.072811,0.435079,-0.443027,-0.780469,69.981666,48.042963,-156.007841
05222,NaN,-7.452371,4.641693,2.431387,0.764206,1.191895,-0.813438,2.272224,0.166746,1.427390,-0.071879,0.431707,-0.455042,-0.775500,71.680240,47.306581,-155.480330
05223,NaN,-6.714359,5.636827,2.041374,0.074585,0.316752,-0.817461,2.149097,0.411433,1.305830,-0.070582,0.429531,-0.466328,-0.770103,73.396708,46.668485,-154.826257
05224,NaN,-6.368889,6.565748,1.067106,-0.029572,-0.847999,-0.642807,2.019997,0.692960,1.201709,-0.068743,0.428658,-0.476919,-0.764248,75.154407,46.118273,-154.006380
05225,NaN,-6.150517,7.473052,-0.041567,0.002416,-2.058072,-0.355563,1.885906,0.904113,1.135420,-0.066355,0.428736,-0.486859,-0.758123,76.918819,45.616999,-153.063132
05226,NaN,-5.903445,8.061174,-0.472231,-0.234164,-2.563159,-0.146915,1.720246,1.092379,1.097086,-0.063290,0.429615,-0.496083,-0.751882,78.662718,45.140099,-152.007193
05227,NaN,-5.822020,8.075404,-1.403403,0.220780,-3.125857,-0.260009,1.541847,1.204297,1.086653,-0.059595,0.430942,-0.504587,-0.745741,80.339575,44.658856,-150.892860
05228,NaN,-6.134423,8.105925,-1.941630,0.688903,-3.254606,-0.012894,1.416686,1.172901,1.104347,-0.055636,0.432092,-0.512591,-0.739900,81.901371,44.142635,-149.830440
05229,NaN,-6.476061,8.283649,-1.483054,0.529041,-2.640084,0.458835,1.249539,0.988710,1.126350,-0.051701,0.432506,-0.519920,-0.734812,83.242001,43.581282,-148.938805
05230,NaN,-7.100998,8.344414,-0.143763,0.112966,-1.158294,1.083035,1.063168,0.723237,1.133531,-0.048022,0.431937,-0.526467,-0.730724,84.310115,42.985862,-148.279295
05231,NaN,-8.849366,8.078354,1.702467,0.302202,1.301591,2.215680,0.829097,0.372389,1.086440,-0.044931,0.430241,-0.531940,-0.727952,85.039316,42.391300,-147.914524
05232,NaN,-9.145615,6.543720,2.271754,1.020029,2.674640,1.297119,0.653136,0.025090,0.994134,-0.042718,0.427546,-0.536474,-0.726344,85.473939,41.830204,-147.834558
05233,NaN,-7.798042,5.549297,1.892407,0.967692,2.344622,-0.391925,0.691796,-0.034874,0.906074,-0.041068,0.424848,-0.540929,-0.724716,85.892368,41.316502,-147.811621
05234,NaN,-6.640232,6.225824,1.224878,0.308620,1.142886,-0.704907,0.750706,0.044227,0.857501,-0.039503,0.422542,-0.545492,-0.722728,86.378328,40.833488,-147.736888
05235,NaN,-5.928125,7.450776,0.663094,-0.429152,-0.005678,-0.277942,0.765255,0.104757,0.801458,-0.038005,0.420591,-0.549985,-0.720538,86.896459,40.384101,-147.624989
05236,NaN,-5.595726,8.286474,0.018101,-0.684957,-0.903333,0.121701,0.718891,0.127209,0.768615,-0.036466,0.418807,-0.554229,-0.718402,87.393371,39.953411,-147.503604
05237,NaN,-5.618685,8.421805,-0.374147,-0.496824,-1.174186,0.237690,0.684136,0.133031,0.720330,-0.035010,0.417174,-0.558234,-0.716321,87.868219,39.549731,-147.384707
05238,NaN,-5.587413,8.330448,-0.364014,-0.453866,-1.053743,0.158821,0.642706,0.118515,0.697176,-0.033590,0.415550,-0.562025,-0.714365,88.308246,39.158274,-147.282120
05239,NaN,-5.830620,8.318335,0.052151,-0.496674,-0.516344,0.320408,0.590383,0.081873,0.666491,-0.032273,0.413881,-0.565549,-0.712611,88.697959,38.783320,-147.211188
05240,NaN,-5.814337,7.951934,0.213161,-0.381832,-0.178491,0.031447,0.547090,0.074469,0.662726,-0.030900,0.412196,-0.568898,-0.710982,89.056728,38.410015,-147.149365
05241,NaN,-5.580770,7.747623,0.182471,-0.387368,-0.157375,-0.271795,0.523007,0.088802,0.647410,-0.029490,0.410602,-0.572122,-0.709375,89.405920,38.045375,-147.080369
05242,NaN,-5.325953,7.649692,0.136649,-0.455708,-0.200241,-0.503873,0.503016,0.107803,0.629605,-0.028048,0.409121,-0.575231,-0.707773,89.749628,37.690607,-147.000933
05243,NaN,-5.459782,8.088670,0.645778,-0.845406,0.206760,-0.071287,0.506173,0.105518,0.606023,-0.026702,0.407694,-0.578294,-0.706150,90.092056,37.349068,-146.926100
05244,NaN,-6.879959,8.191196,1.103743,-0.174789,1.243082,0.867739,0.445016,0.058453,0.554745,-0.025548,0.406250,-0.581022,-0.704785,90.376928,37.036591,-146.887774
05245,NaN,-7.170910,7.153207,0.203516,1.060711,1.010914,0.211503,0.453142,0.018492,0.475172,-0.024806,0.404892,-0.583605,-0.703457,90.648375,36.769872,-146.879479
05246,NaN,-6.666836,7.181594,-0.557413,1.138772,0.195282,-0.066022,0.515279,-0.025343,0.476119,-0.024315,0.403363,-0.586396,-0.702030,90.935509,36.502858,-146.904289
05247,NaN,-6.155125,8.031085,-0.438669,0.319970,-0.138884,0.309286,0.510548,-0.123540,0.519585,-0.023949,0.401359,-0.589239,-0.700810,91.177647,36.212146,-147.000811
05248,NaN,-5.981284,8.068290,-0.448543,0.215194,-0.182641,0.236905,0.447743,-0.181844,0.534467,-0.023577,0.399108,-0.591876,-0.699886,91.358972,35.913890,-147.139983
05249,NaN,-5.493795,8.070221,-0.637766,0.012114,-0.508903,-0.042448,0.431604,-0.178760,0.553091,-0.023098,0.396810,-0.594487,-0.698995,91.532573,35.605320,-147.277779
05250,NaN,-5.363410,8.347061,-0.233267,-0.398805,-0.253642,0.100451,0.389914,-0.137262,0.572972,-0.022342,0.394597,-0.596988,-0.698140,91.699070,35.284974,-147.387501
05251,NaN,-5.983778,8.285170,0.055197,-0.059059,0.333190,0.401904,0.357702,-0.088214,0.545385,-0.021474,0.392637,-0.599322,-0.697272,91.867479,34.979866,-147.462875
05252,NaN,-5.144815,8.417718,0.166957,-0.729997,0.073147,0.026845,0.380884,-0.092225,0.570304,-0.020575,0.390581,-0.601778,-0.696338,92.046900,34.660698,-147.542607
05253,NaN,-5.378450,8.004301,0.315677,-0.405472,0.468880,-0.183999,0.386466,-0.110901,0.573369,-0.019732,0.388446,-0.604250,-0.695415,92.222175,34.340435,-147.636159
05254,NaN,-5.336629,7.952828,-0.292939,-0.063043,-0.006356,-0.231007,0.425894,-0.134493,0.551021,-0.019115,0.386287,-0.606806,-0.694409,92.410932,34.033686,-147.746433
05255,NaN,-5.039453,7.988027,-0.861063,0.030570,-0.583107,-0.346704,0.459314,-0.117371,0.564250,-0.018464,0.384140,-0.609497,-0.693260,92.625403,33.719330,-147.846062
05256,NaN,-5.329712,8.382521,-0.514784,-0.109131,-0.203572,0.131346,0.453801,-0.086286,0.566392,-0.017700,0.382088,-0.612168,-0.692059,92.848140,33.403135,-147.925614
05257,NaN,-5.007824,8.329129,-0.772911,-0.150325,-0.498681,-0.077265,0.431266,-0.075988,0.592923,-0.016770,0.379989,-0.614804,-0.690900,93.061263,33.071789,-148.000071
05258,NaN,-5.019159,8.163276,-1.155908,0.162402,-0.728183,-0.189268,0.386271,-0.011992,0.597122,-0.015542,0.378096,-0.617290,-0.689750,93.271744,32.736157,-148.032377
05259,NaN,-5.612940,8.540360,-0.502500,0.107121,0.066991,0.418588,0.320852,0.058998,0.608955,-0.013931,0.376412,-0.619571,-0.688659,93.470069,32.391554,-148.018155
05260,NaN,-5.631211,8.495679,-0.535487,0.197142,0.114516,0.391304,0.260485,0.108371,0.641414,-0.011941,0.374797,-0.621701,-0.687657,93.649874,32.026501,-147.973437
05261,NaN,-5.547134,8.356250,-0.323816,0.140180,0.347449,0.215357,0.233976,0.102442,0.663016,-0.009846,0.373092,-0.623773,-0.686741,93.811041,31.649301,-147.935008
05262,NaN,-4.882206,8.480340,0.634946,-0.829806,0.899421,-0.083490,0.172136,-0.020025,0.723828,-0.007808,0.370774,-0.625731,-0.686240,93.891564,31.241899,-147.982587
05263,NaN,-4.851900,8.178653,0.724317,-0.697875,1.074379,-0.362070,0.168009,-0.096253,0.745358,-0.005928,0.368124,-0.627704,-0.685885,93.943288,30.825304,-148.082236
05264,NaN,-4.632219,8.299356,0.474580,-0.733382,0.778680,-0.356614,0.199876,-0.106263,0.771869,-0.004046,0.365347,-0.629824,-0.685439,94.009635,30.393952,-148.189955
05265,NaN,-4.527279,8.420541,-0.182819,-0.485034,0.185815,-0.264654,0.223933,-0.045675,0.772231,-0.002016,0.362773,-0.632019,-0.684795,94.110696,29.960161,-148.257749
05266,NaN,-4.415669,8.527720,-0.918413,-0.199739,-0.469935,-0.179288,0.244635,0.045880,0.790093,0.000327,0.360448,-0.634307,-0.683909,94.252889,29.512362,-148.267067
05267,NaN,-4.550242,8.957940,-1.021053,-0.190457,-0.520804,0.271150,0.237887,0.082141,0.836276,0.002955,0.358095,-0.636645,-0.682966,94.401422,29.036733,-148.256030
05268,NaN,-4.594933,9.153861,-0.762383,-0.311226,-0.249491,0.450256,0.188774,0.092691,0.872070,0.005827,0.355655,-0.638866,-0.682148,94.523279,28.540047,-148.241412
05269,NaN,-4.801362,8.592425,-0.526268,0.044280,0.213075,0.041844,0.090024,0.111640,0.889972,0.008996,0.353214,-0.640770,-0.681596,94.593594,28.032371,-148.216302
05270,NaN,-5.076276,8.272334,-1.126626,0.754207,-0.067081,-0.071259,0.095725,0.159105,0.864734,0.012221,0.351008,-0.642632,-0.680931,94.681207,27.536756,-148.160281
05271,NaN,-4.739902,8.420465,-0.943244,0.411529,-0.035864,-0.112722,0.089739,0.136694,0.883681,0.015448,0.348659,-0.644498,-0.680309,94.757660,27.031431,-148.120576
05272,NaN,-4.852856,8.669715,-0.842987,0.409570,0.116433,0.149382,0.093747,0.055578,0.901658,0.018468,0.345968,-0.646401,-0.679802,94.811690,26.519574,-148.134660
05273,NaN,-4.458473,8.734974,-0.820930,0.142871,-0.007667,0.027563,0.131046,-0.026872,0.923998,0.021233,0.342922,-0.648464,-0.679300,94.863473,25.999063,-148.202774
05274,NaN,-3.910853,8.853798,-0.633164,-0.345615,-0.070042,-0.119371,0.145616,-0.103554,0.936383,0.023765,0.339568,-0.650591,-0.678867,94.902476,25.475176,-148.320430
05275,NaN,-3.278750,8.822791,-0.664891,-0.730546,-0.340542,-0.411433,0.139465,-0.149993,0.969398,0.026268,0.335942,-0.652745,-0.678511,94.926010,24.934874,-148.468855
05276,NaN,-4.109851,8.898987,-0.770095,0.007977,0.002334,0.019662,0.140049,-0.172738,0.973775,0.028711,0.332215,-0.654894,-0.678176,94.945041,24.393124,-148.631493
05277,NaN,-3.660697,9.363682,-0.439131,-0.607551,0.064528,0.232112,0.136402,-0.169064,0.989630,0.031224,0.328441,-0.657041,-0.677827,94.964414,23.842312,-148.792073
05278,NaN,-3.578606,8.919958,-0.058173,-0.602468,0.468220,-0.231848,0.049850,-0.107291,1.005154,0.034135,0.324802,-0.658893,-0.677642,94.950693,23.279455,-148.914482
05279,NaN,-4.148870,8.963960,-0.134222,-0.052062,0.717240,0.039510,0.056359,0.025429,0.984970,0.037403,0.321674,-0.660696,-0.677205,94.974797,22.721684,-148.952929
05280,NaN,-3.509267,9.020438,-0.458672,-0.340210,0.177989,-0.130467,0.038814,0.143207,1.021536,0.041211,0.318811,-0.662460,-0.676615,95.015863,22.137053,-148.920932
05281,NaN,-4.491878,9.123146,-1.206065,0.846323,0.044870,0.392418,0.047345,0.227402,0.991173,0.045180,0.316329,-0.664170,-0.675850,95.081399,21.565611,-148.836104
05282,NaN,-4.095498,9.589740,-1.263547,0.474302,-0.183789,0.678882,0.085109,0.208488,1.013221,0.049101,0.313708,-0.666029,-0.674968,95.162466,20.982334,-148.765310
05283,NaN,-4.157303,8.918939,-1.205852,0.812623,0.032855,0.067720,0.059533,0.208022,0.990222,0.052981,0.311149,-0.667749,-0.674159,95.228446,20.412240,-148.694479
05284,NaN,-4.001902,8.613727,-1.340866,0.934130,-0.068250,-0.266408,0.104085,0.195610,0.954070,0.056627,0.308672,-0.669549,-0.673215,95.316791,19.863240,-148.630344
05285,NaN,-3.584222,8.819000,-1.374314,0.615793,-0.259341,-0.217744,0.180266,0.156514,0.962084,0.060050,0.306053,-0.671614,-0.672057,95.439925,19.311755,-148.591528
05286,NaN,-3.298974,9.177277,-0.988262,0.148534,-0.033058,-0.011752,0.193169,0.051890,0.990197,0.063196,0.302982,-0.673780,-0.670991,95.548337,18.749831,-148.618864
05287,NaN,-3.114558,9.404337,-0.714452,-0.134355,0.158046,0.117500,0.181381,-0.018954,0.995338,0.066135,0.299646,-0.675920,-0.670053,95.636583,18.189048,-148.689930
05288,NaN,-2.630309,9.347414,-0.382542,-0.595721,0.272576,-0.116863,0.147270,-0.033668,1.014390,0.069139,0.296177,-0.677960,-0.669230,95.702501,17.618255,-148.771594
05289,NaN,-3.005947,9.467311,-0.391289,-0.244530,0.503753,0.112250,0.162110,0.003567,1.008550,0.072225,0.292850,-0.680013,-0.668285,95.784491,17.048828,-148.831099
05290,NaN,-2.893464,9.614396,-0.630296,-0.186543,0.298203,0.241237,0.214285,0.070154,1.018954,0.075495,0.289721,-0.682212,-0.667045,95.907693,16.469609,-148.852575
05291,NaN,-3.017207,9.422093,-0.613333,0.037675,0.456408,0.089078,0.223187,0.162537,0.994989,0.078984,0.286978,-0.684354,-0.665631,96.051765,15.898661,-148.818997
05292,NaN,-3.593124,9.274613,-0.834056,0.729826,0.633392,0.121595,0.281507,0.242815,0.931088,0.082451,0.284736,-0.686548,-0.663912,96.242077,15.359025,-148.735776
05293,NaN,-3.273089,9.217499,-0.988595,0.616957,0.420807,-0.009923,0.372030,0.268523,0.893715,0.085750,0.282739,-0.688963,-0.661843,96.487754,14.838808,-148.637181
05294,NaN,-2.953460,9.094589,-0.794384,0.345084,0.513173,-0.237599,0.407754,0.219749,0.899666,0.088848,0.280567,-0.691507,-0.659702,96.744793,14.317978,-148.570357
05295,NaN,-3.270004,9.282013,-0.449003,0.436544,1.048545,-0.027011,0.498062,0.088528,0.874299,0.091279,0.278084,-0.694355,-0.657426,97.034336,13.820327,-148.581311
05296,NaN,-2.968177,9.668343,-0.159113,-0.010251,1.225369,0.227718,0.580630,-0.087114,0.871587,0.092975,0.275062,-0.697531,-0.655093,97.346295,13.336877,-148.697531
05297,NaN,-2.312190,9.907554,-0.090089,-0.602390,1.043081,0.289892,0.624182,-0.222732,0.905260,0.094246,0.271492,-0.700940,-0.652758,97.665393,12.845078,-148.897841
05298,NaN,-2.010190,9.923990,-0.341750,-0.685360,0.770677,0.265929,0.667301,-0.268137,0.945043,0.095425,0.267644,-0.704540,-0.650295,98.003568,12.335383,-149.130328
05299,NaN,-2.240596,10.034408,-0.444643,-0.419351,0.901845,0.430210,0.730420,-0.224517,0.967559,0.096744,0.263881,-0.708330,-0.647515,98.384610,11.810779,-149.342110
05300,NaN,-2.784129,10.263885,-0.193826,-0.086688,1.504860,0.716456,0.743696,-0.139970,0.959543,0.098315,0.260415,-0.712084,-0.644558,98.784047,11.284916,-149.507643
05301,NaN,-3.440543,10.086000,-0.229160,0.581496,1.904346,0.658765,0.728992,-0.102649,0.947117,0.099994,0.257097,-0.715731,-0.641585,99.180610,10.763878,-149.653839
05302,NaN,-3.916664,9.907112,0.051120,0.949587,2.478404,0.504696,0.687571,-0.133867,0.917010,0.101514,0.253757,-0.719195,-0.638796,99.550908,10.263799,-149.818534
05303,NaN,-3.850687,9.666485,-0.305607,1.170924,2.214608,0.291059,0.632862,-0.226383,0.859149,0.102584,0.250294,-0.722438,-0.636328,99.882915,9.806287,-150.033357
05304,NaN,-3.699552,9.453044,-0.339505,1.155630,2.175459,0.040902,0.592402,-0.314572,0.772780,0.103107,0.246835,-0.725466,-0.634146,100.185446,9.407639,-150.292300
05305,NaN,-3.404274,9.612755,-0.241300,0.864329,2.197576,0.110791,0.569590,-0.409962,0.693486,0.103059,0.243343,-0.728357,-0.632186,100.469385,9.064643,-150.599140
05306,NaN,-3.531308,9.967724,0.229448,0.717227,2.758269,0.373355,0.493255,-0.465400,0.545869,0.102432,0.240169,-0.730837,-0.630637,100.707885,8.812249,-150.923297
05307,NaN,-4.880980,10.198671,2.108339,1.015003,5.105790,0.443163,0.275066,-0.392996,0.287883,0.101517,0.238051,-0.732276,-0.629919,100.833430,8.698089,-151.178803
05308,NaN,-4.287057,10.283387,4.543372,-0.572268,6.969359,-0.021390,-0.058599,-0.461704,0.170283,0.100376,0.235976,-0.732549,-0.630565,100.763404,8.657982,-151.460798
05309,NaN,-5.609889,10.285982,3.783601,0.952221,6.910591,0.332495,-0.156932,-0.537904,-0.035866,0.098423,0.234365,-0.732306,-0.631754,100.634491,8.741190,-151.763816
05310,NaN,-4.980058,11.009648,3.235178,0.512773,6.163480,1.060585,-0.150359,-0.688347,-0.181659,0.095447,0.232814,-0.731974,-0.633168,100.496751,8.922154,-152.137586
05311,NaN,-3.666238,11.859164,3.209736,-0.795510,5.558668,1.713432,-0.342050,-0.696057,-0.304866,0.092276,0.231594,-0.730889,-0.635335,100.250065,9.171582,-152.503519
05312,NaN,-2.987162,12.123528,3.324321,-1.496512,5.292901,1.879141,-0.642074,-0.492631,-0.488221,0.089610,0.231547,-0.728523,-0.638443,99.849903,9.502717,-152.736546
05313,NaN,-2.825371,11.442172,2.266184,-1.054896,4.113605,1.412527,-0.892203,-0.245549,-0.719567,0.087395,0.233013,-0.724968,-0.642253,99.333439,9.938465,-152.808221
05314,NaN,-2.114288,10.882683,1.832716,-1.405536,3.235821,0.855670,-1.027122,-0.038491,-0.885229,0.085549,0.235676,-0.720656,-0.646369,98.760470,10.449301,-152.750337
05315,NaN,-0.829167,10.455421,1.546081,-2.355692,2.235849,0.279062,-1.097789,0.200596,-0.958337,0.084410,0.239333,-0.715902,-0.650445,98.174987,10.981251,-152.553099
05316,NaN,-0.231078,10.130608,1.156933,-2.680235,1.457595,-0.080740,-1.156538,0.468451,-0.986418,0.084201,0.243923,-0.710758,-0.654397,97.585497,11.510752,-152.204241
05317,NaN,0.173303,9.835487,0.731026,-2.817394,0.736962,-0.388336,-1.166768,0.715475,-0.996355,0.084847,0.249336,-0.705427,-0.658032,97.023491,12.030627,-151.715630
05318,NaN,0.481941,9.687738,0.346638,-2.912176,0.102422,-0.554637,-1.158498,0.944775,-0.980784,0.086334,0.255432,-0.699981,-0.661308,96.495857,12.531338,-151.099203
05319,NaN,0.453421,9.522615,-0.094216,-2.674181,-0.417354,-0.671162,-1.131917,1.151872,-0.969060,0.088546,0.262162,-0.694500,-0.664154,96.016382,13.017089,-150.365455
05320,NaN,-0.045231,9.292721,-0.409146,-2.070776,-0.583637,-0.763159,-1.083117,1.310109,-0.958941,0.091267,0.269379,-0.689050,-0.666570,95.589421,13.494106,-149.542720
05321,NaN,-0.811796,9.257735,-0.821043,-1.243456,-0.682470,-0.591747,-1.039024,1.375066,-0.964485,0.094126,0.276827,-0.683655,-0.668672,95.205094,13.975895,-148.682838
05322,NaN,-1.296622,9.154678,-1.168858,-0.666244,-0.839188,-0.554903,-0.999512,1.380508,-0.972052,0.096914,0.284310,-0.678302,-0.670584,94.849035,14.467638,-147.821345
05323,NaN,-1.512232,8.834573,-1.537268,-0.243321,-1.115720,-0.790768,-0.913873,1.403607,-0.994856,0.099574,0.291963,-0.673139,-0.672106,94.554829,14.975531,-146.945482
05324,NaN,-1.785620,8.678438,-1.757541,0.107947,-1.223652,-0.863764,-0.795652,1.466130,-1.000304,0.102242,0.299874,-0.668259,-0.673092,94.343653,15.488027,-146.033196
05325,NaN,-2.003840,8.873885,-1.926454,0.291601,-1.329049,-0.613740,-0.714391,1.519076,-1.005599,0.104940,0.307996,-0.663565,-0.673652,94.197657,16.003496,-145.088032
05326,NaN,-2.124524,9.039344,-1.876369,0.280363,-1.296023,-0.432631,-0.681107,1.633643,-1.012434,0.107931,0.316512,-0.658836,-0.673874,94.096553,16.520659,-144.073704
05327,NaN,-2.256093,9.059679,-1.856813,0.328099,-1.262354,-0.383267,-0.658175,1.749463,-1.024339,0.111217,0.325437,-0.654042,-0.673759,94.039984,17.040687,-142.987133
05328,NaN,-2.688652,9.200458,-1.827970,0.561141,-1.055633,-0.128206,-0.640952,1.780731,-0.999265,0.114647,0.334355,-0.649244,-0.673457,94.006757,17.546558,-141.880965
05329,NaN,-3.225882,9.515816,-1.714689,0.761255,-0.736003,0.325145,-0.649112,1.674655,-0.967363,0.117843,0.342774,-0.644473,-0.673256,93.960837,18.038530,-140.836500
05330,NaN,-3.562146,9.655289,-1.527075,0.805555,-0.457051,0.550092,-0.687913,1.476514,-0.931444,0.120574,0.350353,-0.639677,-0.673445,93.862174,18.519644,-139.911184
05331,NaN,-3.762367,9.892173,-1.304846,0.699032,-0.261531,0.824770,-0.764958,1.197619,-0.890276,0.122680,0.356789,-0.634822,-0.674279,93.674174,18.989238,-139.153963
05332,NaN,-3.685550,9.768250,-1.159371,0.553489,-0.255529,0.674154,-0.852651,0.927542,-0.832067,0.124270,0.362052,-0.629890,-0.675806,93.385410,19.438793,-138.563096
05333,NaN,-3.752545,9.507439,-1.028457,0.570579,-0.155483,0.443057,-0.890970,0.687093,-0.771479,0.125374,0.366270,-0.625066,-0.677805,93.030494,19.863780,-138.120804
05334,NaN,-3.813825,9.347611,-0.997000,0.628428,-0.155359,0.311408,-0.902119,0.431683,-0.713211,0.125889,0.369417,-0.620434,-0.680254,92.615858,20.266207,-137.838412
05335,NaN,-3.714664,9.258441,-0.960483,0.558844,-0.268408,0.190054,-0.900162,0.224660,-0.678012,0.125877,0.371740,-0.615993,-0.683021,92.160459,20.654642,-137.685299
05336,NaN,-3.251732,9.290999,-0.907000,0.199567,-0.625366,0.050747,-0.894473,0.056610,-0.614033,0.125547,0.373283,-0.611766,-0.686032,91.669396,21.011651,-137.640182
05337,NaN,-3.151905,9.159496,-0.876302,0.160739,-0.734924,-0.115678,-0.912960,-0.038229,-0.571256,0.125109,0.374349,-0.607607,-0.689220,91.147218,21.345036,-137.656581
05338,NaN,-2.899709,9.016522,-0.827803,0.011826,-0.921523,-0.350071,-0.898906,-0.087925,-0.553393,0.124547,0.375186,-0.603535,-0.692437,90.618846,21.669280,-137.707741
05339,NaN,-2.728892,9.022952,-0.770132,-0.128616,-1.081352,-0.417636,-0.877011,-0.087408,-0.533677,0.124015,0.375970,-0.599568,-0.695546,90.103288,21.980977,-137.761272
05340,NaN,-2.632764,9.038542,-0.740237,-0.201146,-1.214646,-0.450098,-0.866291,-0.054045,-0.514813,0.123621,0.376810,-0.595628,-0.698541,89.598585,22.282229,-137.797922
05341,NaN,-2.516285,8.985287,-0.717132,-0.263866,-1.344247,-0.555039,-0.855843,0.000321,-0.500878,0.123419,0.377796,-0.591713,-0.701366,89.113125,22.574780,-137.802987
05342,NaN,-2.488596,8.903158,-0.619084,-0.308994,-1.351115,-0.651846,-0.836631,0.075595,-0.479161,0.123473,0.378983,-0.587835,-0.703971,88.654187,22.856395,-137.764344
05343,NaN,-2.438759,8.946419,-0.643336,-0.321138,-1.490603,-0.643484,-0.805833,0.134450,-0.448364,0.123751,0.380299,-0.584085,-0.706330,88.228284,23.120848,-137.690164
05344,NaN,-2.338650,9.007230,-0.692682,-0.354725,-1.680232,-0.640457,-0.780529,0.213979,-0.423246,0.124296,0.381829,-0.580401,-0.708443,87.834645,23.373615,-137.568472
05345,NaN,-2.304471,9.072349,-0.702051,-0.371544,-1.796503,-0.606977,-0.761602,0.317997,-0.393583,0.125212,0.383646,-0.576774,-0.710261,87.479451,23.611916,-137.381993
05346,NaN,-2.451064,9.210407,-0.846264,-0.192901,-1.915846,-0.439991,-0.729081,0.418735,-0.376274,0.126412,0.385782,-0.573211,-0.711774,87.167158,23.844577,-137.133873
05347,NaN,-2.470702,9.432239,-1.018393,-0.102315,-2.154883,-0.249512,-0.691665,0.498224,-0.354256,0.127846,0.388155,-0.569770,-0.712989,86.898864,24.067570,-136.835460
05348,NaN,-2.290045,9.665013,-1.193756,-0.143404,-2.520726,-0.132453,-0.667117,0.594038,-0.327332,0.129597,0.390798,-0.566388,-0.713924,86.669013,24.279929,-136.477212
05349,NaN,-2.051047,9.722039,-1.512212,-0.071646,-2.962280,-0.208982,-0.648861,0.715615,-0.296032,0.131767,0.393791,-0.563047,-0.714524,86.484106,24.479226,-136.041075
05350,NaN,-1.874888,9.768765,-1.809089,0.035784,-3.337516,-0.269296,-0.629306,0.869720,-0.272809,0.134410,0.397269,-0.559698,-0.714737,86.351175,24.672269,-135.507642
05351,NaN,-1.764867,9.845150,-2.151912,0.217600,-3.702474,-0.277665,-0.592222,1.056040,-0.262938,0.137533,0.401398,-0.556364,-0.714439,86.291955,24.866924,-134.855416
05352,NaN,-1.511648,9.979694,-2.395936,0.228375,-4.101294,-0.286566,-0.559228,1.245331,-0.248340,0.141162,0.406167,-0.553017,-0.713634,86.303551,25.060773,-134.082798
05353,NaN,-1.323657,10.093447,-2.707029,0.344328,-4.486435,-0.288457,-0.521889,1.431769,-0.222462,0.145316,0.411536,-0.549701,-0.712285,86.391073,25.245735,-133.189461
05354,NaN,-1.383733,10.238490,-2.898895,0.527125,-4.629168,-0.146365,-0.513190,1.583154,-0.203929,0.149925,0.417371,-0.546304,-0.710546,86.527267,25.424019,-132.198311
05355,NaN,-1.285835,10.285741,-3.023637,0.591627,-4.788592,-0.152904,-0.487812,1.700100,-0.186339,0.154851,0.423564,-0.542910,-0.708423,86.714690,25.593518,-131.129973
05356,NaN,-1.326990,10.190777,-3.097831,0.738261,-4.761820,-0.221584,-0.469904,1.815724,-0.172523,0.160091,0.430104,-0.539471,-0.705940,86.947432,25.755214,-129.985920
05357,NaN,-1.362752,10.106400,-3.003252,0.745507,-4.629037,-0.271618,-0.437059,1.908155,-0.169731,0.165503,0.436953,-0.536034,-0.703099,87.229211,25.913397,-128.780349
05358,NaN,-1.421779,10.020311,-2.918117,0.766975,-4.479666,-0.310705,-0.374063,1.948495,-0.134156,0.170996,0.443855,-0.532809,-0.699906,87.562163,26.046241,-127.545867
05359,NaN,-1.406437,10.063209,-2.784474,0.672267,-4.397078,-0.262132,-0.327178,1.927314,-0.076082,0.176514,0.450528,-0.529844,-0.696515,87.920209,26.138864,-126.321149
05360,NaN,-1.414749,9.920195,-2.700524,0.670977,-4.254330,-0.370502,-0.304911,1.854200,-0.010755,0.182002,0.456749,-0.527121,-0.693108,88.272758,26.185475,-125.140467
05361,NaN,-1.424217,9.703499,-2.596695,0.668433,-4.068380,-0.542825,-0.270484,1.761131,0.068123,0.187422,0.462435,-0.524737,-0.689694,88.620247,26.179374,-124.017197
05362,NaN,-1.652434,9.504074,-2.501830,0.774277,-3.726153,-0.602198,-0.214712,1.642144,0.158253,0.192701,0.467490,-0.522829,-0.686272,88.965909,26.113531,-122.969086
05363,NaN,-1.887150,9.328513,-2.347098,0.817156,-3.347625,-0.635722,-0.138405,1.484534,0.260790,0.197726,0.471784,-0.521539,-0.682877,89.309428,25.982504,-122.021799
05364,NaN,-2.003495,9.200183,-2.162294,0.758699,-3.055544,-0.679202,-0.079252,1.300204,0.360111,0.202464,0.475220,-0.520845,-0.679629,89.632593,25.787903,-121.193445
05365,NaN,-2.149325,9.136930,-1.942296,0.664699,-2.743779,-0.652718,-0.022573,1.120362,0.469330,0.206958,0.477801,-0.520760,-0.676523,89.934565,25.527018,-120.481958
05366,NaN,-2.211376,9.050790,-1.788704,0.591428,-2.518157,-0.684977,0.028441,0.952945,0.572764,0.211242,0.479581,-0.521255,-0.673552,90.215844,25.202846,-119.879823
05367,NaN,-2.346093,9.018276,-1.625233,0.529594,-2.246240,-0.639451,0.080560,0.794048,0.668944,0.215299,0.480619,-0.522304,-0.670709,90.479302,24.822428,-119.382061
05368,NaN,-2.345470,9.028886,-1.505827,0.435983,-2.113714,-0.613172,0.122275,0.657032,0.752617,0.219179,0.481008,-0.523834,-0.667974,90.726171,24.391877,-118.974544
05369,NaN,-2.288341,8.976059,-1.423002,0.363819,-2.017767,-0.667925,0.156330,0.560820,0.827423,0.222964,0.480909,-0.525744,-0.665287,90.962867,23.918739,-118.631718
05370,NaN,-2.357223,8.941100,-1.310742,0.318072,-1.808719,-0.656025,0.193688,0.492607,0.895159,0.226706,0.480431,-0.528010,-0.662568,91.199871,23.405117,-118.335623
05371,NaN,-2.524611,8.945388,-1.180963,0.291200,-1.520195,-0.571923,0.230425,0.428275,0.950482,0.230360,0.479625,-0.530583,-0.659830,91.437563,22.860666,-118.084060
05372,NaN,-2.716634,8.888890,-1.069194,0.302785,-1.194815,-0.538232,0.259345,0.361744,0.998002,0.233925,0.478489,-0.533434,-0.657096,91.672576,22.287856,-117.877835
05373,NaN,-2.797926,8.789515,-0.907027,0.230552,-0.919443,-0.592749,0.290099,0.285383,1.031368,0.237309,0.477039,-0.536532,-0.654410,91.903622,21.697762,-117.722975
05374,NaN,-2.861361,8.722222,-0.826857,0.215851,-0.706942,-0.625686,0.323081,0.210265,1.055001,0.240489,0.475300,-0.539874,-0.651760,92.134394,21.093789,-117.617816
05375,NaN,-2.935668,8.668906,-0.695269,0.156953,-0.464809,-0.646997,0.364249,0.146212,1.066066,0.243421,0.473361,-0.543429,-0.649123,92.372079,20.485819,-117.555415
05376,NaN,-3.011772,8.732725,-0.498246,0.017398,-0.222649,-0.564515,0.398005,0.077062,1.080035,0.246129,0.471182,-0.547200,-0.646514,92.613347,19.870012,-117.538311
05377,NaN,-3.125061,8.796725,-0.240354,-0.158890,0.082387,-0.476032,0.427627,-0.000742,1.091953,0.248578,0.468743,-0.551166,-0.643977,92.853979,19.250776,-117.571816
05378,NaN,-3.262124,8.820781,-0.010473,-0.290063,0.407689,-0.421394,0.438777,-0.084785,1.099876,0.250792,0.466005,-0.555279,-0.641567,93.084486,18.628297,-117.658786
05379,NaN,-2.931015,8.488593,0.147169,-0.492142,0.397925,-0.853492,0.450025,-0.081871,1.137988,0.253095,0.463171,-0.559485,-0.639055,93.321204,17.985602,-117.747817
05380,NaN,-3.338861,9.066912,0.503338,-0.724277,0.881768,-0.205034,0.574458,-0.068371,1.080029,0.254960,0.460680,-0.563924,-0.636207,93.632883,17.374667,-117.829378
05381,NaN,-4.085298,9.921598,0.668535,-0.694896,1.511094,0.808382,0.572459,-0.131504,1.042789,0.256517,0.458077,-0.568324,-0.633540,93.932131,16.789162,-117.950523
05382,NaN,-3.994279,9.990619,0.605883,-0.675567,1.510945,0.835935,0.450238,-0.271450,1.106451,0.258155,0.454672,-0.572647,-0.631431,94.137932,16.172147,-118.159935
05383,NaN,-3.873879,9.790933,0.559018,-0.619793,1.547544,0.598917,0.436937,-0.354992,1.113928,0.259591,0.450951,-0.577025,-0.629522,94.323761,15.556363,-118.420961
05384,NaN,-3.907367,9.803456,0.584641,-0.595808,1.703578,0.601660,0.456926,-0.400593,1.111705,0.260840,0.447098,-0.581504,-0.627630,94.516673,14.943484,-118.710124
05385,NaN,-3.928090,9.869592,0.599578,-0.577491,1.832735,0.651755,0.453531,-0.429694,1.097072,0.261949,0.443178,-0.585947,-0.625813,94.705750,14.342448,-119.017149
05386,NaN,-4.085229,9.851416,0.690024,-0.542240,2.128314,0.646312,0.447938,-0.458430,1.060864,0.262868,0.439245,-0.590314,-0.624095,94.890988,13.763311,-119.340452
05387,NaN,-4.070675,9.620628,0.813872,-0.572847,2.324457,0.388142,0.409823,-0.512578,1.032493,0.263607,0.435164,-0.594542,-0.622626,95.049929,13.205125,-119.695150
05388,NaN,-3.901174,9.318392,0.938088,-0.664407,2.391403,0.024508,0.409168,-0.510287,0.976553,0.264177,0.431237,-0.598627,-0.621202,95.212705,12.678708,-120.046355
05389,NaN,-3.760573,9.197037,1.258740,-0.948759,2.547618,-0.173157,0.401136,-0.469773,0.875656,0.264557,0.427717,-0.602392,-0.619832,95.379781,12.209706,-120.369316
05390,NaN,-3.859781,9.165084,1.573338,-1.129593,2.883165,-0.232354,0.373416,-0.453642,0.781321,0.264751,0.424479,-0.605836,-0.618617,95.536329,11.793637,-120.678434
05391,NaN,-3.875197,9.109060,1.646160,-1.142126,3.015973,-0.310008,0.328074,-0.489209,0.696309,0.264660,0.421323,-0.608990,-0.617716,95.665606,11.429673,-121.004015
05392,NaN,-3.669328,9.085093,1.644385,-1.209108,2.909689,-0.390466,0.281905,-0.516717,0.606502,0.264305,0.418283,-0.611839,-0.617119,95.767997,11.118377,-121.340768
05393,NaN,-3.402612,8.970094,1.551085,-1.217799,2.703814,-0.557835,0.251640,-0.496765,0.505162,0.263752,0.415572,-0.614344,-0.616698,95.858126,10.864991,-121.660104
05394,NaN,-3.239612,8.947611,1.407471,-1.155008,2.537647,-0.606064,0.218446,-0.439328,0.413653,0.263164,0.413265,-0.616474,-0.616374,95.937394,10.660215,-121.940854
05395,NaN,-3.255749,8.892537,1.305854,-1.033979,2.537531,-0.654408,0.185122,-0.389183,0.324874,0.262519,0.411344,-0.618246,-0.616159,96.005063,10.504021,-122.187168
05396,NaN,-3.289165,8.817361,1.222066,-0.919389,2.554089,-0.719327,0.160628,-0.344097,0.231553,0.261778,0.409811,-0.619687,-0.616048,96.064533,10.398037,-122.401832
05397,NaN,-3.152748,8.792164,1.237510,-0.991129,2.470978,-0.774695,0.144165,-0.288184,0.143942,0.260970,0.408703,-0.620822,-0.615984,96.122148,10.339297,-122.578631
05398,NaN,-3.076579,8.777032,1.278974,-1.059934,2.444320,-0.810508,0.116206,-0.210103,0.057042,0.260197,0.408063,-0.621589,-0.615962,96.172288,10.325033,-122.704983
05399,NaN,-3.008486,8.938449,1.319024,-1.162071,2.400721,-0.670871,0.092843,-0.102884,-0.021625,0.259558,0.407972,-0.621985,-0.615892,96.221697,10.349456,-122.764172
05400,NaN,-3.009399,9.150346,1.348114,-1.234127,2.396822,-0.467374,0.062728,0.013814,-0.104334,0.259092,0.408453,-0.621965,-0.615790,96.266116,10.413465,-122.750724
05401,NaN,-3.085255,9.412594,1.401460,-1.301773,2.455945,-0.202615,0.013577,0.137176,-0.178484,0.258878,0.409485,-0.621484,-0.615679,96.297048,10.512258,-122.660871
05402,NaN,-3.306667,9.621328,1.417323,-1.255454,2.611335,0.042134,-0.040823,0.230001,-0.243727,0.258866,0.410930,-0.620577,-0.615637,96.306636,10.642146,-122.513227
05403,NaN,-3.524739,9.826158,1.367368,-1.158608,2.720218,0.292005,-0.098504,0.274830,-0.292984,0.258956,0.412594,-0.619335,-0.615737,96.289969,10.797469,-122.336158
05404,NaN,-3.687006,9.925051,1.243808,-1.009712,2.746110,0.438505,-0.149722,0.280069,-0.326155,0.259067,0.414304,-0.617852,-0.616032,96.244235,10.971387,-122.154203
05405,NaN,-3.730443,10.062914,1.074462,-0.891266,2.639154,0.607163,-0.189914,0.280931,-0.357327,0.259164,0.416063,-0.616181,-0.616479,96.177702,11.163246,-121.969563
05406,NaN,-3.747688,10.193700,0.878845,-0.761386,2.492176,0.767399,-0.219952,0.283300,-0.380530,0.259259,0.417855,-0.614356,-0.617048,96.093737,11.368496,-121.782553
05407,NaN,-3.765458,10.267670,0.739135,-0.665424,2.378697,0.866679,-0.252713,0.299489,-0.399362,0.259411,0.419714,-0.612371,-0.617696,95.995115,11.583712,-121.584844
05408,NaN,-3.809182,10.257728,0.614882,-0.551150,2.301727,0.888107,-0.282114,0.315229,-0.417905,0.259615,0.421632,-0.610224,-0.618429,95.880895,11.809143,-121.377472
05409,NaN,-3.885747,10.219999,0.487127,-0.410692,2.251525,0.889950,-0.311657,0.318662,-0.438229,0.259824,0.423584,-0.607939,-0.619256,95.752697,12.046168,-121.166839
05410,NaN,-3.893539,10.073915,0.390078,-0.308190,2.171505,0.769604,-0.336966,0.305811,-0.460318,0.259978,0.425523,-0.605532,-0.620220,95.607823,12.297371,-120.963216
05411,NaN,-3.860517,9.923806,0.197079,-0.143875,2.005267,0.645910,-0.351602,0.291558,-0.503014,0.259984,0.427527,-0.603008,-0.621297,95.455770,12.573862,-120.765554
05412,NaN,-3.734366,9.783681,0.058254,-0.073339,1.785741,0.505971,-0.359356,0.276877,-0.548560,0.259818,0.429604,-0.600366,-0.622492,95.297024,12.878153,-120.574967
05413,NaN,-3.645397,9.764137,-0.152992,0.052920,1.539502,0.496409,-0.358357,0.271454,-0.605519,0.259452,0.431834,-0.597612,-0.623750,95.141494,13.215228,-120.384669
05414,NaN,-3.535682,9.788713,-0.304938,0.108743,1.296297,0.517864,-0.348708,0.268830,-0.656464,0.258895,0.434211,-0.594763,-0.625053,94.990893,13.582640,-120.194400
05415,NaN,-3.457006,9.861583,-0.530265,0.230836,1.029871,0.597331,-0.338390,0.258547,-0.706012,0.258125,0.436712,-0.591853,-0.626390,94.848285,13.978680,-120.007840
05416,NaN,-3.416300,9.912136,-0.604048,0.245191,0.872958,0.649803,-0.330799,0.242258,-0.746757,0.257158,0.439282,-0.588877,-0.627794,94.707403,14.399945,-119.830070
05417,NaN,-3.349294,9.943869,-0.724916,0.289435,0.669828,0.679729,-0.322260,0.213378,-0.772819,0.256001,0.441845,-0.585907,-0.629245,94.570428,14.837113,-119.668285
05418,NaN,-3.322830,10.042057,-0.708700,0.221805,0.556054,0.771610,-0.295096,0.177984,-0.792169,0.254614,0.444375,-0.583003,-0.630721,94.442929,15.288101,-119.527801
05419,NaN,-3.304496,10.214911,-0.724239,0.168600,0.415772,0.938438,-0.281163,0.143843,-0.804519,0.253053,0.446847,-0.580160,-0.632223,94.320946,15.747120,-119.407154
05420,NaN,-3.292407,10.311750,-0.673021,0.075548,0.325261,1.027649,-0.281712,0.122357,-0.819117,0.251379,0.449281,-0.577287,-0.633795,94.194118,16.216511,-119.299980
05421,NaN,-3.312329,10.255011,-0.618128,0.025298,0.291877,0.977693,-0.303410,0.112059,-0.837465,0.249662,0.451702,-0.574317,-0.635449,94.055877,16.696185,-119.198436
05422,NaN,-3.335629,10.100965,-0.640422,0.063145,0.241698,0.841088,-0.302346,0.110773,-0.859348,0.247863,0.454170,-0.571278,-0.637130,93.916890,17.189550,-119.098329
05423,NaN,-3.291805,9.997516,-0.575001,-0.016890,0.168680,0.727115,-0.306565,0.116709,-0.885783,0.246001,0.456721,-0.568158,-0.638816,93.779365,17.697132,-118.993948
05424,NaN,-3.248493,9.859919,-0.671744,0.050035,0.022125,0.590109,-0.306628,0.116582,-0.909729,0.244057,0.459325,-0.564959,-0.640530,93.640693,18.219572,-118.890359
05425,NaN,-3.168850,9.679745,-0.729988,0.075686,-0.123890,0.397606,-0.310857,0.121701,-0.934168,0.242053,0.462002,-0.561681,-0.642245,93.503428,18.755118,-118.783108
05426,NaN,-3.062006,9.402610,-0.863633,0.175415,-0.303237,0.107360,-0.312660,0.125949,-0.946691,0.240018,0.464711,-0.558338,-0.643968,93.364768,19.298856,-118.674552
05427,NaN,-2.954021,9.159718,-0.961004,0.237249,-0.469012,-0.154881,-0.305791,0.123421,-0.952942,0.237934,0.467428,-0.555003,-0.645655,93.232221,19.845564,-118.567612
05428,NaN,-2.817828,8.917333,-1.055837,0.285263,-0.651610,-0.428279,-0.287962,0.122795,-0.950919,0.235807,0.470144,-0.551705,-0.647288,93.108420,20.392279,-118.462782
05429,NaN,-2.762573,8.792098,-1.158947,0.352162,-0.797840,-0.565268,-0.263461,0.118131,-0.935603,0.233654,0.472823,-0.548526,-0.648817,93.000079,20.929653,-118.361387
05430,NaN,-2.648388,8.717657,-1.265013,0.385154,-1.004156,-0.677344,-0.247915,0.124225,-0.919843,0.231525,0.475482,-0.545403,-0.650268,92.900537,21.458889,-118.258179
05431,NaN,-2.594891,8.511012,-1.366388,0.470501,-1.113618,-0.892162,-0.234478,0.137842,-0.892240,0.229487,0.478118,-0.542372,-0.651591,92.814072,21.971208,-118.147240
05432,NaN,-2.565768,8.305067,-1.441386,0.544808,-1.183454,-1.098499,-0.213562,0.150650,-0.860511,0.227531,0.480720,-0.539449,-0.652788,92.741140,22.465993,-118.030459
05433,NaN,-2.609408,8.151659,-1.476837,0.604553,-1.183508,-1.229387,-0.171457,0.156819,-0.819871,0.225620,0.483275,-0.536754,-0.653786,92.696056,22.936627,-117.910441
05434,NaN,-2.698430,8.149571,-1.454113,0.598652,-1.160930,-1.204261,-0.132146,0.143339,-0.766300,0.223747,0.485674,-0.534312,-0.654651,92.668729,23.377810,-117.801035
05435,NaN,-2.844231,8.259009,-1.468070,0.622779,-1.141981,-1.051190,-0.086883,0.110807,-0.705773,0.221874,0.487853,-0.532205,-0.655385,92.661100,23.784471,-117.712759
05436,NaN,-2.983805,8.353553,-1.378044,0.556996,-1.069836,-0.917245,-0.066568,0.047613,-0.625840,0.220042,0.489625,-0.530414,-0.656133,92.647028,24.147796,-117.666930
05437,NaN,-3.102555,8.408812,-1.378542,0.573019,-1.040725,-0.822544,-0.043184,-0.037039,-0.541727,0.218202,0.490920,-0.529003,-0.656918,92.625399,24.464502,-117.675973
05438,NaN,-3.220090,8.412035,-1.368167,0.595210,-0.985088,-0.775079,-0.026765,-0.138002,-0.444762,0.216372,0.491639,-0.527981,-0.657807,92.583844,24.728997,-117.752264
05439,NaN,-3.324783,8.353644,-1.398923,0.667495,-0.932486,-0.786096,-0.002049,-0.252728,-0.339255,0.214525,0.491730,-0.527431,-0.658785,92.525961,24.935307,-117.903574
05440,NaN,-3.343317,8.299641,-1.447178,0.723045,-0.953011,-0.827976,0.023375,-0.355308,-0.231343,0.212698,0.491220,-0.527329,-0.659838,92.451865,25.082850,-118.123795
05441,NaN,-3.257619,8.313563,-1.466806,0.697238,-1.059587,-0.853333,0.052493,-0.422021,-0.122228,0.210983,0.490234,-0.527668,-0.660851,92.376232,25.168670,-118.388851
05442,NaN,-3.163103,8.399144,-1.478842,0.646597,-1.186432,-0.817572,0.090028,-0.456834,-0.013418,0.209443,0.488880,-0.528423,-0.661740,92.309790,25.193268,-118.679620
05443,NaN,-3.169445,8.618456,-1.550476,0.660395,-1.300642,-0.614897,0.131719,-0.464537,0.084957,0.208105,0.487284,-0.529570,-0.662422,92.265530,25.160917,-118.977128
05444,NaN,-3.117350,8.975104,-1.599164,0.596162,-1.488300,-0.312307,0.173006,-0.444529,0.188430,0.207061,0.485517,-0.531074,-0.662842,92.248256,25.069203,-119.264980
05445,NaN,-3.199125,9.169351,-1.576511,0.569686,-1.466238,-0.100718,0.189758,-0.420130,0.281866,0.206349,0.483600,-0.532839,-0.663048,92.248087,24.922934,-119.538855
05446,NaN,-3.254986,9.258630,-1.532597,0.541409,-1.407346,0.005266,0.217477,-0.389132,0.367413,0.205935,0.481580,-0.534860,-0.663020,92.270811,24.727411,-119.795487
05447,NaN,-3.314008,9.224504,-1.457004,0.518794,-1.278092,0.000273,0.242218,-0.354235,0.435154,0.205777,0.479518,-0.537092,-0.662759,92.318346,24.492075,-120.031014
05448,NaN,-3.449233,9.139079,-1.351869,0.519330,-1.049287,-0.021025,0.275651,-0.336575,0.486701,0.205756,0.477403,-0.539530,-0.662313,92.389001,24.227320,-120.257047
05449,NaN,-3.512760,9.082927,-1.199227,0.439775,-0.856616,-0.047965,0.317481,-0.341564,0.520659,0.205731,0.475221,-0.542191,-0.661716,92.484071,23.943260,-120.486574
05450,NaN,-3.589885,9.019293,-1.105501,0.418626,-0.677513,-0.074999,0.357711,-0.363109,0.543979,0.205628,0.472937,-0.545051,-0.661035,92.596542,23.647004,-120.730699
05451,NaN,-3.644515,9.020625,-0.967371,0.332992,-0.511568,-0.054759,0.395491,-0.403364,0.541205,0.205312,0.470561,-0.548067,-0.660334,92.722766,23.353646,-120.999565
05452,NaN,-3.653336,9.036029,-0.962229,0.334570,-0.455636,-0.035018,0.426286,-0.450690,0.540478,0.204790,0.468053,-0.551219,-0.659655,92.855307,23.062770,-121.298397
05453,NaN,-3.667397,9.097853,-0.901266,0.279310,-0.379648,0.026552,0.459755,-0.512778,0.535436,0.203997,0.465382,-0.554528,-0.659017,92.994335,22.777056,-121.635360
05454,NaN,-3.703615,9.146749,-0.862894,0.257118,-0.293882,0.085377,0.486092,-0.580328,0.536893,0.202956,0.462500,-0.557980,-0.658454,93.132960,22.493491,-122.014654
05455,NaN,-3.735866,9.215154,-0.839139,0.241183,-0.224717,0.160829,0.504580,-0.649147,0.533640,0.201665,0.459411,-0.561546,-0.657980,93.268648,22.214665,-122.436005
05456,NaN,-3.747326,9.263554,-0.795990,0.204901,-0.155440,0.208446,0.519268,-0.703322,0.529927,0.200172,0.456155,-0.565189,-0.657583,93.401311,21.940823,-122.890876
05457,NaN,-3.744914,9.402150,-0.795636,0.175052,-0.146244,0.336480,0.521901,-0.746929,0.521929,0.198517,0.452770,-0.568855,-0.657262,93.528527,21.673880,-123.371775
05458,NaN,-3.739235,9.412263,-0.716425,0.111948,-0.060024,0.339628,0.519542,-0.774699,0.503114,0.196722,0.449331,-0.572478,-0.657017,93.649685,21.419787,-123.869097
05459,NaN,-3.709143,9.372165,-0.687849,0.091440,-0.010154,0.289774,0.497450,-0.781318,0.480686,0.194877,0.445902,-0.575973,-0.656848,93.759959,21.179569,-124.368977
05460,NaN,-3.656877,9.296735,-0.691498,0.094821,0.009829,0.200851,0.481433,-0.770574,0.453640,0.193006,0.442557,-0.579325,-0.656715,93.865001,20.955397,-124.861181
05461,NaN,-3.635517,9.237092,-0.643204,0.067995,0.076451,0.134371,0.462037,-0.761544,0.417338,0.191079,0.439319,-0.582514,-0.656632,93.964064,20.752323,-125.345754
05462,NaN,-3.544462,9.168582,-0.586683,-0.000895,0.093491,0.034214,0.436426,-0.742931,0.383792,0.189149,0.436202,-0.585509,-0.656605,94.053780,20.568536,-125.817565
05463,NaN,-3.499171,9.091303,-0.619605,0.027726,0.090253,-0.052006,0.412276,-0.722494,0.351216,0.187220,0.433218,-0.588326,-0.656615,94.136765,20.403083,-126.274935
05464,NaN,-3.461960,9.026421,-0.564081,-0.012997,0.140340,-0.129728,0.389649,-0.699126,0.322446,0.185310,0.430364,-0.590970,-0.656660,94.212614,20.253797,-126.716865
05465,NaN,-3.436907,9.051502,-0.556779,-0.033305,0.146827,-0.115817,0.368857,-0.668870,0.299204,0.183455,0.427652,-0.593460,-0.656706,94.285190,20.116936,-127.138821
05466,NaN,-3.428619,9.147665,-0.547762,-0.064652,0.149614,-0.029609,0.352231,-0.644964,0.289957,0.181674,0.425023,-0.595840,-0.656753,94.353533,19.984919,-127.545932
05467,NaN,-3.473680,9.390911,-0.572043,-0.079079,0.138384,0.215146,0.329726,-0.609619,0.279453,0.180008,0.422516,-0.598087,-0.656787,94.418220,19.857692,-127.930602
05468,NaN,-3.458738,9.522135,-0.595492,-0.097843,0.107745,0.334593,0.285670,-0.551610,0.276404,0.178596,0.420161,-0.600119,-0.656830,94.469658,19.730100,-128.280043
05469,NaN,-3.452422,9.600905,-0.567322,-0.135720,0.127375,0.404149,0.240434,-0.484395,0.271343,0.177463,0.417999,-0.601930,-0.656859,94.510612,19.602547,-128.587998
05470,NaN,-3.457675,9.562042,-0.627470,-0.066230,0.123661,0.373683,0.206186,-0.400828,0.276132,0.176667,0.416062,-0.603555,-0.656813,94.548656,19.468773,-128.845685
05471,NaN,-3.468756,9.679124,-0.598137,-0.102696,0.149744,0.485003,0.173569,-0.315906,0.280322,0.176208,0.414362,-0.605006,-0.656675,94.586505,19.328796,-129.051725
05472,NaN,-3.545556,9.666965,-0.573125,-0.060488,0.248945,0.496724,0.140649,-0.234599,0.287587,0.176086,0.412873,-0.606287,-0.656465,94.621237,19.181149,-129.209151
05473,NaN,-3.597643,9.668091,-0.459569,-0.101873,0.385203,0.505616,0.103289,-0.166862,0.288824,0.176250,0.411571,-0.607389,-0.656219,94.649225,19.029646,-129.325336
05474,NaN,-3.635933,9.581730,-0.397247,-0.087740,0.494927,0.431074,0.072834,-0.115778,0.286799,0.176625,0.410413,-0.608337,-0.655966,94.669216,18.877078,-129.410848
05475,NaN,-3.718216,9.537020,-0.334442,-0.058212,0.627689,0.409557,0.050739,-0.082360,0.275296,0.177108,0.409381,-0.609162,-0.655715,94.684350,18.729431,-129.475296
05476,NaN,-3.738249,9.587345,-0.267808,-0.094588,0.697181,0.457091,0.036356,-0.053522,0.253965,0.177639,0.408493,-0.609864,-0.655472,94.696356,18.592775,-129.521610
05477,NaN,-3.759155,9.637481,-0.234473,-0.105834,0.743405,0.507360,0.010441,-0.043413,0.228872,0.178170,0.407693,-0.610426,-0.655303,94.696892,18.469833,-129.560254
05478,NaN,-3.818899,9.605799,-0.253131,-0.033437,0.796033,0.496756,-0.004969,-0.042688,0.190884,0.178611,0.406995,-0.610853,-0.655219,94.688414,18.368739,-129.596885
05479,NaN,-3.802424,9.612423,-0.249631,-0.034898,0.795945,0.496758,-0.029648,-0.053717,0.154541,0.178949,0.406352,-0.611140,-0.655259,94.665340,18.288712,-129.637980
05480,NaN,-3.649235,9.560827,-0.275584,-0.082648,0.683460,0.401435,-0.041745,-0.052918,0.121422,0.179205,0.405799,-0.611313,-0.655369,94.635006,18.227792,-129.677266
05481,NaN,-3.587324,9.574533,-0.320212,-0.080678,0.610285,0.398294,-0.049425,-0.017530,0.080795,0.179452,0.405482,-0.611352,-0.655461,94.608634,18.188173,-129.692912
05482,NaN,-3.568974,9.645716,-0.347813,-0.082133,0.566533,0.462072,-0.071371,0.022204,0.051923,0.179770,0.405361,-0.611219,-0.655573,94.576488,18.163504,-129.683616
05483,NaN,-3.516364,9.639846,-0.375256,-0.086465,0.510086,0.442292,-0.088403,0.081999,0.016500,0.180189,0.405532,-0.610911,-0.655640,94.547417,18.156056,-129.636306
05484,NaN,-3.652953,9.573287,-0.287665,-0.048966,0.675890,0.415481,-0.112389,0.118488,-0.020886,0.180646,0.405912,-0.610409,-0.655747,94.510857,18.168665,-129.565650
05485,NaN,-3.702177,9.439951,-0.284406,0.014366,0.732506,0.304768,-0.120946,0.120797,-0.049707,0.181032,0.406382,-0.609824,-0.655893,94.471419,18.197348,-129.491871
05486,NaN,-3.641297,9.392076,-0.275545,-0.016407,0.692857,0.240458,-0.134724,0.120409,-0.082288,0.181338,0.406935,-0.609120,-0.656119,94.423344,18.245099,-129.417197
05487,NaN,-3.602228,9.381035,-0.265113,-0.045926,0.659812,0.217900,-0.151658,0.121991,-0.118900,0.181563,0.407591,-0.608292,-0.656418,94.367653,18.313375,-129.339509
05488,NaN,-3.532526,9.417199,-0.302708,-0.070587,0.559906,0.233979,-0.172778,0.131322,-0.153591,0.181745,0.408362,-0.607306,-0.656801,94.300979,18.401584,-129.255070
05489,NaN,-3.459974,9.329886,-0.358073,-0.052338,0.467199,0.133435,-0.199531,0.150496,-0.185519,0.181935,0.409269,-0.606157,-0.657246,94.224438,18.506881,-129.157310
05490,NaN,-3.416979,9.385990,-0.409624,-0.056712,0.367024,0.177427,-0.213459,0.164702,-0.218940,0.182086,0.410309,-0.604871,-0.657741,94.141993,18.631289,-129.050025
05491,NaN,-3.385645,9.374415,-0.496440,-0.010570,0.263737,0.163232,-0.234772,0.186012,-0.240229,0.182275,0.411464,-0.603457,-0.658265,94.053226,18.766666,-128.928652
05492,NaN,-3.370598,9.449247,-0.493622,-0.045125,0.210114,0.229553,-0.251388,0.203559,-0.261713,0.182478,0.412723,-0.601918,-0.658829,93.957597,18.914310,-128.796338
05493,NaN,-3.347132,9.418830,-0.526541,-0.030465,0.146966,0.195923,-0.274501,0.220437,-0.277901,0.182727,0.414065,-0.600259,-0.659431,93.853846,19.070262,-128.652867
05494,NaN,-3.343692,9.441352,-0.505161,-0.058565,0.120123,0.215106,-0.295288,0.244516,-0.291997,0.183043,0.415506,-0.598470,-0.660063,93.742160,19.234137,-128.494877
05495,NaN,-3.344841,9.430728,-0.518267,-0.048836,0.080119,0.206608,-0.317852,0.265867,-0.304989,0.183426,0.417035,-0.596564,-0.660718,93.623681,19.404431,-128.323183
05496,NaN,-3.327710,9.397353,-0.478221,-0.084480,0.063591,0.167357,-0.336963,0.288392,-0.318442,0.183870,0.418656,-0.594533,-0.661399,93.498083,19.582496,-128.137976
05497,NaN,-3.311127,9.334106,-0.542080,-0.031854,-0.012945,0.106065,-0.358141,0.304571,-0.335966,0.184348,0.420362,-0.592385,-0.662112,93.365685,19.769888,-127.942060
05498,NaN,-3.218359,9.295581,-0.599707,-0.033967,-0.149151,0.041336,-0.372158,0.327411,-0.356055,0.184853,0.422184,-0.590114,-0.662839,93.229430,19.968992,-127.732246
05499,NaN,-3.129748,9.209367,-0.711261,0.020750,-0.305213,-0.064871,-0.383986,0.356264,-0.368574,0.185427,0.424126,-0.587752,-0.663537,93.094522,20.174271,-127.504200
05500,NaN,-3.097375,9.092514,-0.758788,0.066016,-0.371645,-0.184567,-0.389552,0.380439,-0.379249,0.186045,0.426168,-0.585313,-0.664211,92.961049,20.385961,-127.261742
05501,NaN,-3.078122,9.049761,-0.838202,0.124913,-0.464961,-0.229177,-0.391959,0.402655,-0.385847,0.186710,0.428298,-0.582833,-0.664835,92.833117,20.600769,-127.005218
05502,NaN,-3.110301,9.025116,-0.834021,0.142608,-0.472002,-0.242994,-0.385812,0.408261,-0.382840,0.187385,0.430437,-0.580360,-0.665427,92.709462,20.814743,-126.745962
05503,NaN,-3.144809,8.982254,-0.814771,0.153990,-0.462121,-0.273443,-0.383405,0.408530,-0.372964,0.188088,0.432547,-0.577916,-0.665987,92.589270,21.023059,-126.486478
05504,NaN,-3.175230,8.942151,-0.830501,0.190685,-0.475862,-0.301065,-0.378495,0.400198,-0.354990,0.188812,0.434576,-0.575523,-0.666534,92.469466,21.222300,-126.233164
05505,NaN,-3.172573,8.952750,-0.858056,0.206674,-0.532692,-0.292885,-0.367147,0.393066,-0.332504,0.189566,0.436524,-0.573224,-0.667028,92.356346,21.408826,-125.984461
05506,NaN,-3.188404,8.985584,-0.903680,0.242994,-0.589991,-0.256743,-0.354341,0.387542,-0.300828,0.190378,0.438369,-0.571030,-0.667468,92.248545,21.578266,-125.740467
05507,NaN,-3.177158,9.001586,-0.966529,0.284157,-0.670282,-0.245715,-0.346968,0.375985,-0.268708,0.191248,0.440089,-0.568944,-0.667869,92.143848,21.729517,-125.503975
05508,NaN,-3.165517,9.016196,-0.995156,0.300216,-0.727304,-0.237539,-0.342419,0.374826,-0.230690,0.192229,0.441696,-0.566946,-0.668225,92.040583,21.859867,-125.269542
05509,NaN,-3.159366,8.960765,-0.997266,0.316587,-0.740624,-0.293094,-0.322262,0.369131,-0.184193,0.193304,0.443170,-0.565127,-0.668480,91.948718,21.963633,-125.039246
05510,NaN,-3.170108,8.927793,-1.018404,0.353287,-0.754394,-0.320677,-0.308620,0.363069,-0.144238,0.194463,0.444520,-0.563438,-0.668673,91.862267,22.045374,-124.813935
05511,NaN,-3.180453,8.892718,-1.006752,0.364721,-0.744580,-0.351090,-0.289193,0.349460,-0.101452,0.195684,0.445722,-0.561925,-0.668790,91.784746,22.102753,-124.597495
05512,NaN,-3.181823,8.942368,-0.970186,0.331621,-0.748315,-0.306834,-0.264924,0.334955,-0.064710,0.196931,0.446792,-0.560582,-0.668838,91.716714,22.139970,-124.391088
05513,NaN,-3.204571,8.995130,-0.937201,0.312457,-0.735472,-0.251232,-0.248409,0.326543,-0.030361,0.198232,0.447753,-0.559381,-0.668815,91.656979,22.157500,-124.190147
05514,NaN,-3.227341,8.999113,-0.928585,0.325186,-0.719401,-0.239874,-0.226957,0.316253,-0.004919,0.199540,0.448627,-0.558312,-0.668734,91.606138,22.161136,-123.996354
05515,NaN,-3.246477,9.068186,-0.878934,0.287001,-0.699870,-0.170492,-0.215176,0.303872,0.012823,0.200847,0.449422,-0.557338,-0.668621,91.559900,22.154627,-123.810192
05516,NaN,-3.235465,9.123850,-0.880908,0.279023,-0.727052,-0.123394,-0.193482,0.296327,0.032473,0.202148,0.450156,-0.556482,-0.668449,91.523386,22.137396,-123.629337
05517,NaN,-3.236316,9.239408,-0.931420,0.303481,-0.787958,-0.014985,-0.179669,0.292029,0.050716,0.203467,0.450839,-0.555720,-0.668222,91.494385,22.109586,-123.451151
05518,NaN,-3.246639,9.313530,-0.919042,0.290479,-0.791999,0.057241,-0.164010,0.289511,0.065186,0.204791,0.451486,-0.555041,-0.667945,91.472876,22.073844,-123.275054
05519,NaN,-3.223122,9.393421,-0.973180,0.313692,-0.859314,0.123867,-0.146542,0.285836,0.072046,0.206088,0.452120,-0.554441,-0.667615,91.461067,22.034029,-123.101098
05520,NaN,-3.233634,9.584722,-1.055191,0.351603,-0.947473,0.307361,-0.124154,0.283351,0.078717,0.207349,0.452748,-0.553929,-0.667224,91.460714,21.990638,-122.929070
05521,NaN,-3.262090,9.695887,-1.045543,0.339616,-0.945063,0.421379,-0.108523,0.279287,0.088902,0.208598,0.453351,-0.553499,-0.666783,91.468787,21.941269,-122.759531
05522,NaN,-3.319668,9.741474,-1.049126,0.367414,-0.906184,0.485905,-0.093311,0.267454,0.095271,0.209800,0.453910,-0.553142,-0.666321,91.482120,21.888529,-122.597674
05523,NaN,-3.346253,9.671954,-0.993079,0.355372,-0.823017,0.430684,-0.087611,0.244580,0.114702,0.210990,0.454346,-0.552874,-0.665871,91.493691,21.824836,-122.450119
05524,NaN,-3.353392,9.611195,-0.881280,0.285212,-0.726153,0.374967,-0.073389,0.226548,0.131244,0.212152,0.454689,-0.552706,-0.665406,91.508552,21.751982,-122.314208
05525,NaN,-3.308207,9.485683,-0.840895,0.263040,-0.688930,0.241450,-0.062668,0.201862,0.141805,0.213257,0.454932,-0.552626,-0.664953,91.524096,21.673346,-122.193614
05526,NaN,-3.280580,9.431028,-0.794974,0.229218,-0.655412,0.180128,-0.046709,0.183666,0.153636,0.214315,0.455097,-0.552643,-0.664486,91.544021,21.588205,-122.084659
05527,NaN,-3.297324,9.415924,-0.751343,0.210532,-0.599049,0.171965,-0.041654,0.170886,0.164722,0.215361,0.455196,-0.552716,-0.664019,91.564055,21.496851,-121.983719
05528,NaN,-3.251841,9.305828,-0.692676,0.169480,-0.555117,0.052189,-0.036938,0.152287,0.172916,0.216374,0.455213,-0.552842,-0.663574,91.582065,21.401048,-121.894575
05529,NaN,-3.196945,9.219098,-0.682478,0.159697,-0.551398,-0.048035,-0.030125,0.139857,0.180732,0.217361,0.455175,-0.553022,-0.663126,91.601273,21.300956,-121.813186
05530,NaN,-3.155390,9.222226,-0.681203,0.144321,-0.568138,-0.059414,-0.016583,0.125528,0.179820,0.218276,0.455106,-0.553259,-0.662676,91.624637,21.201532,-121.740777
05531,NaN,-3.155953,9.313931,-0.658128,0.112113,-0.565412,0.026530,-0.013418,0.108446,0.187417,0.219160,0.454963,-0.553542,-0.662245,91.646079,21.098068,-121.678988
05532,NaN,-3.018354,9.320574,-0.624527,0.021605,-0.641119,-0.016665,-0.000911,0.106797,0.195097,0.220037,0.454805,-0.553885,-0.661776,91.673933,20.990105,-121.618515
05533,NaN,-2.878084,9.307052,-0.453861,-0.183519,-0.639286,-0.082930,0.016503,0.154671,0.187826,0.220982,0.454845,-0.554217,-0.661155,91.722357,20.885558,-121.528598
05534,NaN,-2.990605,9.397461,-0.347471,-0.235051,-0.500384,0.039778,0.014604,0.198342,0.172918,0.222004,0.455067,-0.554459,-0.660457,91.778934,20.788541,-121.411869
05535,NaN,-3.050446,9.308816,-0.255020,-0.264070,-0.360476,-0.023683,0.002831,0.219846,0.156940,0.223058,0.455392,-0.554601,-0.659758,91.833473,20.700347,-121.281770
05536,NaN,-2.931090,9.161983,-0.263001,-0.283794,-0.402610,-0.202290,-0.003829,0.237098,0.129713,0.224087,0.455840,-0.554639,-0.659068,91.887716,20.627088,-121.140794
05537,NaN,-2.742887,9.004831,-0.259999,-0.345578,-0.494002,-0.415106,-0.003665,0.273294,0.098025,0.225109,0.456495,-0.554564,-0.658329,91.950045,20.571366,-120.977101
05538,NaN,-2.553192,8.865460,-0.272351,-0.401175,-0.602126,-0.611283,0.004818,0.344839,0.062891,0.226195,0.457490,-0.554355,-0.657441,92.032511,20.533865,-120.769101
05539,NaN,-2.553202,8.749036,-0.192155,-0.453061,-0.518148,-0.722712,0.014154,0.418248,0.019112,0.227318,0.458859,-0.553991,-0.656407,92.136459,20.519864,-120.515277
05540,NaN,-2.590555,8.773821,-0.103521,-0.528617,-0.441525,-0.689791,0.032920,0.475141,-0.013605,0.228448,0.460521,-0.553546,-0.655224,92.263397,20.522509,-120.226016
05541,NaN,-2.603797,8.892471,0.033949,-0.682232,-0.388016,-0.580087,0.045119,0.538249,-0.058482,0.229575,0.462528,-0.552962,-0.653908,92.411518,20.549075,-119.896950
05542,NaN,-2.601863,8.795978,0.183293,-0.811204,-0.283440,-0.678461,0.019708,0.605362,-0.087595,0.230851,0.464799,-0.552147,-0.652536,92.559770,20.589416,-119.526022
05543,NaN,-2.767133,8.995319,0.334415,-0.931776,-0.128068,-0.442525,0.056881,0.667119,-0.110753,0.232131,0.467376,-0.551321,-0.650938,92.743438,20.640794,-119.116349
05544,NaN,-3.049842,9.292355,0.486481,-1.027207,0.095994,-0.075048,0.067736,0.674441,-0.105774,0.233422,0.469967,-0.550529,-0.649279,92.934976,20.687370,-118.702160
05545,NaN,-3.068957,9.413861,0.581579,-1.155797,0.125996,0.037476,0.030992,0.650459,-0.067693,0.234851,0.472330,-0.549727,-0.647726,93.100486,20.712161,-118.303495
05546,NaN,-3.137139,9.508395,0.539580,-1.134888,0.138066,0.149003,0.028550,0.657296,-0.039176,0.236399,0.474626,-0.548971,-0.646124,93.265436,20.718815,-117.901669
05547,NaN,-3.318555,9.716750,0.646017,-1.216501,0.286281,0.399242,-0.004381,0.653520,0.011585,0.238172,0.476730,-0.548228,-0.644554,93.410448,20.696074,-117.503798
05548,NaN,-3.526797,9.522001,0.537968,-1.008662,0.470840,0.294592,-0.046144,0.622436,0.036679,0.240042,0.478605,-0.547441,-0.643137,93.523667,20.658656,-117.126211
05549,NaN,-3.634503,9.463138,0.524969,-0.953092,0.579730,0.276500,-0.059690,0.543809,0.054190,0.241779,0.480164,-0.546742,-0.641917,93.612227,20.613969,-116.797290
05550,NaN,-3.518593,9.220320,0.439219,-0.883173,0.520781,0.012611,-0.084227,0.451267,0.085050,0.243425,0.481304,-0.546147,-0.640948,93.665370,20.554069,-116.526532
05551,NaN,-3.335917,8.980457,0.302811,-0.791155,0.381973,-0.268222,-0.093896,0.388338,0.107137,0.244986,0.482173,-0.545648,-0.640124,93.699579,20.484214,-116.294956
05552,NaN,-3.246613,8.866043,0.215368,-0.726046,0.308856,-0.401468,-0.102704,0.340846,0.117532,0.246477,0.482844,-0.545201,-0.639427,93.717313,20.409536,-116.093222
05553,NaN,-3.229854,8.727248,0.108313,-0.606018,0.294962,-0.530755,-0.104942,0.296315,0.129122,0.247883,0.483342,-0.544829,-0.638824,93.724694,20.330387,-115.918916
05554,NaN,-3.155944,8.635641,0.005143,-0.520791,0.221437,-0.635867,-0.111548,0.263216,0.129916,0.249222,0.483716,-0.544476,-0.638320,93.720098,20.251475,-115.765248
05555,NaN,-3.124996,8.633184,-0.078568,-0.452783,0.167287,-0.643684,-0.113263,0.240487,0.124425,0.250480,0.484036,-0.544133,-0.637878,93.710521,20.177101,-115.624938
05556,NaN,-3.184295,8.677659,-0.179389,-0.341588,0.168648,-0.575343,-0.111257,0.218004,0.130564,0.251696,0.484263,-0.543837,-0.637479,93.696114,20.099541,-115.498971
05557,NaN,-3.186274,8.738435,-0.190668,-0.335832,0.157792,-0.516923,-0.115441,0.199825,0.137887,0.252891,0.484412,-0.543569,-0.637122,93.676228,20.019034,-115.384039
05558,NaN,-3.178420,8.803834,-0.234292,-0.304820,0.123410,-0.455520,-0.116995,0.193641,0.147954,0.254109,0.484505,-0.543325,-0.636774,93.652832,19.932509,-115.273660
05559,NaN,-3.222185,8.874918,-0.165214,-0.354335,0.182720,-0.377913,-0.114915,0.194999,0.162368,0.255367,0.484572,-0.543122,-0.636394,93.631578,19.838262,-115.162671
05560,NaN,-3.253058,8.935968,-0.148731,-0.359521,0.211767,-0.311008,-0.114773,0.205263,0.173636,0.256692,0.484633,-0.542930,-0.635977,93.611105,19.736715,-115.046292
05561,NaN,-3.311784,9.030434,-0.100248,-0.389034,0.270655,-0.205291,-0.113985,0.219872,0.183540,0.258081,0.484720,-0.542747,-0.635504,93.594807,19.629538,-114.921079
05562,NaN,-3.343310,9.107121,-0.065981,-0.413309,0.306417,-0.124706,-0.101232,0.224847,0.192996,0.259488,0.484806,-0.542618,-0.634976,93.585332,19.516289,-114.793662
05563,NaN,-3.368580,9.154583,-0.071564,-0.399660,0.328698,-0.071484,-0.091683,0.237378,0.194769,0.260905,0.484945,-0.542508,-0.634383,93.584699,19.402101,-114.658397
05564,NaN,-3.369516,9.152303,-0.005535,-0.450933,0.375347,-0.077490,-0.084785,0.234996,0.189832,0.262288,0.485091,-0.542407,-0.633787,93.586134,19.290328,-114.524893
05565,NaN,-3.341424,9.165245,0.052279,-0.510406,0.388819,-0.078323,-0.069428,0.219294,0.182046,0.263560,0.485234,-0.542358,-0.633192,93.594244,19.184052,-114.400292
05566,NaN,-3.266509,9.153398,0.011114,-0.495365,0.325348,-0.111984,-0.056564,0.217936,0.167651,0.264757,0.485421,-0.542313,-0.632588,93.608137,19.085566,-114.276493
05567,NaN,-3.413214,9.121249,-0.080333,-0.347410,0.436154,-0.089380,-0.031412,0.220034,0.148552,0.265832,0.485706,-0.542300,-0.631929,93.638124,18.998348,-114.150374
05568,NaN,-3.215419,9.252348,-0.122709,-0.409617,0.226533,-0.027965,-0.016150,0.181313,0.145076,0.266760,0.485890,-0.542374,-0.631333,93.667760,18.914027,-114.048089
05569,NaN,-3.277498,9.185615,-0.178295,-0.323689,0.288616,-0.067883,0.014176,0.183457,0.123287,0.267545,0.486187,-0.542491,-0.630671,93.716617,18.842460,-113.943321
05570,NaN,-3.292025,9.254400,-0.239455,-0.278792,0.270466,0.005041,0.027351,0.164894,0.116215,0.268230,0.486455,-0.542652,-0.630034,93.767974,18.775118,-113.850055
05571,NaN,-2.997848,9.292338,-0.230369,-0.410216,0.022682,-0.054670,0.022683,0.175568,0.112221,0.268937,0.486767,-0.542778,-0.629382,93.820012,18.710001,-113.749826
05572,NaN,-3.038252,9.223111,-0.191204,-0.421258,0.105827,-0.109872,0.032297,0.221751,0.107871,0.269738,0.487242,-0.542857,-0.628603,93.884987,18.645076,-113.622129
05573,NaN,-3.111517,9.199777,-0.194754,-0.392540,0.188115,-0.108777,0.037255,0.283959,0.105883,0.270684,0.487931,-0.542866,-0.627654,93.966031,18.579113,-113.456497
05574,NaN,-3.099266,9.300094,-0.157671,-0.457995,0.180973,-0.020879,0.029781,0.335972,0.102627,0.271783,0.488773,-0.542768,-0.626609,94.051117,18.512285,-113.260018
05575,NaN,-3.669430,9.565954,-0.064370,-0.391364,0.661395,0.404244,0.081714,0.292758,0.085402,0.272578,0.489603,-0.542851,-0.625542,94.159139,18.457174,-113.088539
05576,NaN,-3.103722,9.470358,-0.098924,-0.562092,0.193132,0.136046,0.020777,0.258621,0.110876,0.273514,0.490165,-0.542847,-0.624696,94.223646,18.388311,-112.939395
05577,NaN,-3.518570,9.479456,-0.154567,-0.368394,0.544858,0.278482,0.069410,0.253245,0.093923,0.274257,0.490830,-0.542964,-0.623746,94.316557,18.329549,-112.792380
05578,NaN,-3.483319,9.734248,-0.108860,-0.480417,0.480536,0.504251,0.061449,0.136023,0.100787,0.274729,0.491091,-0.543228,-0.623102,94.380883,18.271413,-112.716869
05579,NaN,-3.126849,9.465931,-0.224162,-0.460650,0.203718,0.146107,0.051427,0.109967,0.101720,0.275151,0.491262,-0.543504,-0.622540,94.436037,18.214170,-112.656645
05580,NaN,-3.135532,9.728974,-0.187736,-0.544732,0.172105,0.394828,0.062055,0.069879,0.132565,0.275540,0.491231,-0.543938,-0.622014,94.487566,18.140708,-112.622583
05581,NaN,-2.976442,9.679479,-0.192480,-0.591933,0.059983,0.298423,0.054984,0.103242,0.161453,0.276120,0.491223,-0.544380,-0.621376,94.542425,18.049544,-112.569398
05582,NaN,-3.789603,9.924326,-0.057591,-0.467213,0.784953,0.771366,0.078617,0.042015,0.168295,0.276504,0.491030,-0.544991,-0.620822,94.597523,17.956875,-112.553979
05583,NaN,-2.789676,9.818218,-0.030256,-0.833267,-0.035213,0.360070,0.000637,-0.040387,0.237004,0.277060,0.490294,-0.545647,-0.620579,94.593402,17.829085,-112.590831
05584,NaN,-3.438816,9.780440,0.015960,-0.626251,0.585159,0.519208,0.077514,0.036677,0.200937,0.277533,0.489993,-0.546340,-0.619996,94.646231,17.718020,-112.580319
05585,NaN,-3.424614,10.276365,0.160545,-0.852963,0.530111,0.973823,0.025376,-0.132985,0.238274,0.277779,0.488999,-0.547203,-0.619909,94.639560,17.593828,-112.672790
05586,NaN,-2.397865,9.713883,0.018965,-0.981456,-0.269076,0.140901,-0.009504,-0.141545,0.276269,0.278211,0.487817,-0.548056,-0.619894,94.609147,17.447997,-112.772708
05587,NaN,-2.513378,9.825007,0.042832,-0.969330,-0.161274,0.281073,0.017680,-0.116041,0.270978,0.278622,0.486774,-0.548949,-0.619739,94.601122,17.304290,-112.856388
05588,NaN,-2.681825,9.638861,-0.113194,-0.716202,-0.007568,0.167270,-0.014614,-0.149203,0.299635,0.279117,0.485494,-0.549851,-0.619721,94.566573,17.145324,-112.961754
05589,NaN,-2.464552,9.542415,-0.277520,-0.611817,-0.217319,0.025355,-0.024238,-0.246569,0.350796,0.279517,0.483765,-0.550987,-0.619883,94.511096,16.961854,-113.126881
05590,NaN,-2.036067,9.331572,-0.261849,-0.728899,-0.509263,-0.299453,0.010837,-0.243378,0.379925,0.279938,0.482003,-0.552289,-0.619907,94.474446,16.761043,-113.291760
05591,NaN,-2.156532,9.347732,-0.162474,-0.760419,-0.333644,-0.254056,0.029637,-0.166685,0.402163,0.280586,0.480452,-0.553599,-0.619650,94.464072,16.544473,-113.411069
05592,NaN,-2.359141,9.482184,-0.041251,-0.800192,-0.099388,-0.074684,0.011097,-0.155762,0.455441,0.281480,0.478748,-0.554955,-0.619350,94.442640,16.296431,-113.526752
05593,NaN,-2.604295,9.301666,0.012320,-0.702554,0.218968,-0.181395,0.026705,-0.153226,0.469512,0.282378,0.477042,-0.556393,-0.618967,94.433034,16.040729,-113.640745
05594,NaN,-2.821412,9.371113,0.156958,-0.740968,0.496975,-0.065558,0.026737,-0.218074,0.504643,0.283211,0.475024,-0.557996,-0.618696,94.410847,15.767235,-113.795261
05595,NaN,-2.848320,9.227696,0.120884,-0.648353,0.579685,-0.193888,0.036964,-0.294813,0.518780,0.283838,0.472750,-0.559775,-0.618543,94.385053,15.489533,-113.995001
05596,NaN,-2.719888,9.154648,0.140525,-0.678875,0.534038,-0.300651,0.065680,-0.349569,0.529069,0.284282,0.470304,-0.561732,-0.618429,94.365786,15.207725,-114.227880
05597,NaN,-2.656983,9.296713,0.105862,-0.674867,0.479261,-0.178670,0.091846,-0.365448,0.527557,0.284603,0.467856,-0.563791,-0.618265,94.362538,14.927974,-114.469101
05598,NaN,-2.815953,9.450326,0.039705,-0.556418,0.605099,0.014004,0.100951,-0.366228,0.524125,0.284897,0.465413,-0.565857,-0.618086,94.363305,14.649673,-114.710926
05599,NaN,-2.948567,9.494052,-0.028283,-0.426745,0.728606,0.092800,0.093062,-0.384205,0.515128,0.285118,0.462934,-0.567906,-0.617966,94.360532,14.377831,-114.962031
05600,NaN,-3.075007,9.405916,-0.050310,-0.315940,0.890069,0.038059,0.093796,-0.411568,0.501989,0.285225,0.460393,-0.569951,-0.617932,94.353163,14.114155,-115.228961
05601,NaN,-3.179292,9.373411,-0.112047,-0.187811,1.001087,0.033309,0.097074,-0.446672,0.481938,0.285151,0.457812,-0.572013,-0.617979,94.346541,13.863938,-115.514715
05602,NaN,-3.272043,9.317265,-0.151947,-0.079155,1.112507,0.000400,0.106494,-0.486042,0.457361,0.284872,0.455177,-0.574088,-0.618131,94.338861,13.628993,-115.822802
05603,NaN,-3.388920,9.285844,-0.085435,-0.059166,1.284736,-0.011423,0.109371,-0.529147,0.423721,0.284347,0.452515,-0.576159,-0.618400,94.330969,13.415536,-116.153790
05604,NaN,-3.459758,9.378167,-0.082275,-0.022531,1.362494,0.090327,0.114903,-0.568300,0.384040,0.283579,0.449838,-0.578196,-0.618804,94.320040,13.226046,-116.506287
05605,NaN,-3.494849,9.393477,-0.108422,0.037189,1.404328,0.111501,0.100058,-0.586901,0.332378,0.282619,0.447237,-0.580101,-0.619345,94.302274,13.067131,-116.866515
05606,NaN,-3.492575,9.259274,-0.043102,0.025176,1.475058,-0.027107,0.080279,-0.596139,0.277123,0.281510,0.444724,-0.581817,-0.620050,94.270861,12.939807,-117.230048
05607,NaN,-3.501168,9.104053,-0.085847,0.115061,1.501586,-0.175194,0.065179,-0.589018,0.214841,0.280252,0.442399,-0.583342,-0.620850,94.235645,12.847786,-117.585861
05608,NaN,-3.548302,8.950258,-0.098781,0.194348,1.567868,-0.314725,0.047462,-0.578779,0.146366,0.278854,0.440267,-0.584629,-0.621783,94.190100,12.794126,-117.933147
05609,NaN,-3.518292,8.766427,-0.056089,0.192348,1.592671,-0.503652,0.036392,-0.566563,0.077624,0.277294,0.438364,-0.585720,-0.622798,94.143312,12.779058,-118.269650
05610,NaN,-3.531586,8.655254,-0.104901,0.275347,1.592073,-0.604757,0.018977,-0.544383,0.001696,0.275604,0.436716,-0.586542,-0.623931,94.087398,12.806233,-118.590556
05611,NaN,-3.590409,8.542678,-0.090714,0.321974,1.655231,-0.700436,0.006883,-0.525794,-0.067710,0.273770,0.435319,-0.587158,-0.625135,94.030047,12.871956,-118.897156
05612,NaN,-3.607878,8.505658,-0.076119,0.334345,1.664778,-0.730536,-0.013166,-0.515550,-0.141126,0.271784,0.434130,-0.587519,-0.626487,93.959975,12.979117,-119.195549
05613,NaN,-3.661631,8.574534,-0.147471,0.417638,1.639228,-0.642608,-0.024265,-0.506327,-0.203801,0.269645,0.433144,-0.587707,-0.627916,93.887398,13.121163,-119.485667
05614,NaN,-3.736036,8.786569,-0.208762,0.476122,1.605601,-0.410528,-0.050376,-0.497559,-0.265366,0.267398,0.432320,-0.587648,-0.629498,93.797903,13.298054,-119.769253
05615,NaN,-3.771384,8.968660,-0.277066,0.525366,1.532849,-0.215230,-0.086110,-0.484992,-0.320444,0.265085,0.431654,-0.587350,-0.631209,93.691903,13.505108,-120.043217
05616,NaN,-3.737744,9.193623,-0.411267,0.589521,1.352938,0.009960,-0.131022,-0.456036,-0.370171,0.262798,0.431155,-0.586744,-0.633067,93.560575,13.739549,-120.299662
05617,NaN,-3.742588,9.390254,-0.551012,0.680505,1.199747,0.216506,-0.176734,-0.410431,-0.419149,0.260582,0.430886,-0.585838,-0.635002,93.411495,13.999248,-120.527666
05618,NaN,-3.683873,9.462499,-0.684016,0.755744,1.011266,0.286004,-0.235438,-0.350960,-0.461979,0.258531,0.430845,-0.584554,-0.637048,93.233543,14.281542,-120.720859
05619,NaN,-3.562236,9.471967,-0.859712,0.846094,0.753939,0.279990,-0.285176,-0.287451,-0.512226,0.256608,0.431091,-0.582932,-0.639143,93.038458,14.589278,-120.875403
05620,NaN,-3.473467,9.394402,-0.995006,0.932527,0.556942,0.193792,-0.327339,-0.202863,-0.554657,0.254885,0.431666,-0.580951,-0.641244,92.828278,14.919110,-120.980679
05621,NaN,-3.403419,9.402078,-1.071775,0.961857,0.386777,0.190104,-0.367276,-0.127517,-0.608251,0.253290,0.432588,-0.578640,-0.643341,92.609097,15.276357,-121.040505
05622,NaN,-3.375455,9.333647,-1.180568,1.051229,0.246007,0.124029,-0.393550,-0.057102,-0.656095,0.251799,0.433830,-0.576028,-0.645431,92.382797,15.659935,-121.059552
05623,NaN,-3.390488,9.339495,-1.254069,1.116630,0.141615,0.138536,-0.415095,0.012312,-0.704804,0.250393,0.435407,-0.573160,-0.647465,92.157964,16.068824,-121.037003
05624,NaN,-3.379568,9.314065,-1.396834,1.231622,-0.016610,0.117404,-0.424424,0.066381,-0.745916,0.249025,0.437254,-0.570078,-0.649466,91.934122,16.501241,-120.983687
05625,NaN,-3.401027,9.349329,-1.433422,1.258698,-0.107514,0.159032,-0.417873,0.107205,-0.781674,0.247637,0.439339,-0.566894,-0.651374,91.723859,16.952570,-120.906117
05626,NaN,-3.395136,9.463816,-1.562659,1.334308,-0.289928,0.270350,-0.397588,0.143366,-0.811848,0.246204,0.441640,-0.563637,-0.653185,91.529420,17.421939,-120.808573
05627,NaN,-3.441178,9.631925,-1.642479,1.380086,-0.419116,0.445602,-0.379547,0.164820,-0.833831,0.244714,0.444089,-0.560368,-0.654895,91.352218,17.902805,-120.698400
05628,NaN,-3.419081,9.676452,-1.691281,1.385194,-0.559915,0.480580,-0.360293,0.182890,-0.856150,0.243153,0.446671,-0.557063,-0.656538,91.187710,18.397677,-120.578964
05629,NaN,-3.440911,9.682335,-1.684521,1.367403,-0.626662,0.490804,-0.333613,0.195577,-0.877848,0.241491,0.449380,-0.553784,-0.658075,91.044024,18.904002,-120.451933
05630,NaN,-3.469522,9.653690,-1.686567,1.363160,-0.683662,0.470772,-0.296560,0.188079,-0.893954,0.239665,0.452141,-0.550572,-0.659545,90.918772,19.421076,-120.330847
05631,NaN,-3.418454,9.665854,-1.688314,1.309266,-0.816179,0.462718,-0.252484,0.170028,-0.911042,0.237630,0.454934,-0.547491,-0.660925,90.818086,19.947155,-120.220579
05632,NaN,-3.392672,9.629157,-1.598476,1.193986,-0.868000,0.415033,-0.211744,0.151944,-0.925021,0.235398,0.457741,-0.544507,-0.662248,90.735801,20.482720,-120.122423
05633,NaN,-3.372173,9.558459,-1.517863,1.091899,-0.909345,0.337176,-0.168660,0.124199,-0.938943,0.232943,0.460536,-0.541667,-0.663506,90.674903,21.025401,-120.040863
05634,NaN,-3.365318,9.515775,-1.491619,1.034718,-0.975234,0.290668,-0.125547,0.094754,-0.953886,0.230251,0.463313,-0.538946,-0.664728,90.631050,21.578053,-119.978168
05635,NaN,-3.291208,9.492394,-1.417094,0.897160,-1.076134,0.236293,-0.073503,0.057668,-0.965799,0.227296,0.466048,-0.536411,-0.665882,90.610821,22.136645,-119.937744
05636,NaN,-3.265352,9.413580,-1.399591,0.839378,-1.148142,0.147901,-0.033987,0.029669,-0.968474,0.224157,0.468729,-0.534010,-0.666993,90.605415,22.698041,-119.915226
05637,NaN,-3.178023,9.389935,-1.417784,0.770926,-1.303072,0.086187,0.006673,-0.004041,-0.969240,0.220827,0.471336,-0.531779,-0.668049,90.616960,23.258989,-119.912958
05638,NaN,-3.125174,9.344949,-1.395936,0.685802,-1.401433,0.016265,0.051326,-0.027584,-0.968090,0.217325,0.473898,-0.529703,-0.669033,90.646908,23.820433,-119.925735
05639,NaN,-3.105503,9.350915,-1.446365,0.665037,-1.524387,0.006118,0.093945,-0.047135,-0.955449,0.213711,0.476397,-0.527818,-0.669912,90.697689,24.373766,-119.949938
05640,NaN,-3.064740,9.336334,-1.482407,0.624606,-1.646959,-0.032404,0.132815,-0.066960,-0.934926,0.210012,0.478805,-0.526112,-0.670706,90.764222,24.916396,-119.986796
05641,NaN,-3.035061,9.277941,-1.460379,0.547573,-1.711857,-0.107354,0.166434,-0.085584,-0.907107,0.206276,0.481103,-0.524602,-0.671404,90.846095,25.442394,-120.034563
05642,NaN,-2.949321,9.272775,-1.440764,0.435074,-1.836498,-0.158880,0.197961,-0.096923,-0.867275,0.202560,0.483280,-0.523287,-0.671998,90.941586,25.946476,-120.089690
05643,NaN,-2.884236,9.271838,-1.427475,0.336460,-1.944658,-0.198739,0.218287,-0.105919,-0.827396,0.198905,0.485333,-0.522142,-0.672499,91.046968,26.427151,-120.149792
05644,NaN,-2.877169,9.312270,-1.331245,0.183367,-1.976432,-0.177946,0.236735,-0.105704,-0.779338,0.195361,0.487271,-0.521161,-0.672898,91.161737,26.880952,-120.209957
05645,NaN,-2.809360,9.345303,-1.282164,0.046388,-2.071017,-0.190868,0.239510,-0.083925,-0.726482,0.192044,0.489140,-0.520294,-0.673168,91.285010,27.303763,-120.255614
05646,NaN,-2.787323,9.294814,-1.238836,-0.041527,-2.095999,-0.257474,0.228805,-0.065396,-0.670432,0.188987,0.490907,-0.519498,-0.673362,91.406644,27.694648,-120.289643
05647,NaN,-2.718058,9.152764,-1.151059,-0.161267,-2.092576,-0.427557,0.219665,-0.032907,-0.610737,0.186235,0.492615,-0.518786,-0.673430,91.533360,28.050585,-120.302433
05648,NaN,-2.681287,9.040036,-1.118150,-0.222278,-2.097220,-0.554511,0.206705,0.006776,-0.544046,0.183842,0.494264,-0.518149,-0.673370,91.664007,28.367825,-120.290060
05649,NaN,-2.618299,8.924451,-1.047590,-0.322218,-2.094378,-0.696311,0.200316,0.055167,-0.479690,0.181804,0.495902,-0.517604,-0.673138,91.806530,28.647233,-120.246239
05650,NaN,-2.610762,8.891020,-1.045391,-0.357173,-2.110343,-0.736461,0.192689,0.109737,-0.401382,0.180191,0.497509,-0.517173,-0.672717,91.961159,28.880536,-120.167756
05651,NaN,-2.622222,8.840018,-1.033206,-0.383968,-2.093121,-0.781586,0.178947,0.160036,-0.331878,0.178973,0.499092,-0.516822,-0.672139,92.124260,29.072956,-120.056836
05652,NaN,-2.630996,8.839632,-0.996218,-0.443306,-2.079220,-0.783073,0.163128,0.218538,-0.257201,0.178199,0.500660,-0.516551,-0.671387,92.296360,29.220665,-119.908818
05653,NaN,-2.682069,8.875178,-0.962212,-0.488240,-2.042948,-0.731054,0.149837,0.270278,-0.178542,0.177853,0.502187,-0.516383,-0.670466,92.477406,29.322088,-119.728105
05654,NaN,-2.686952,8.922661,-0.867466,-0.605133,-2.008662,-0.692099,0.136127,0.319624,-0.097556,0.177943,0.503654,-0.516329,-0.669383,92.665468,29.374754,-119.517016
05655,NaN,-2.723914,8.962923,-0.833942,-0.650080,-1.972386,-0.640108,0.116020,0.363192,-0.020095,0.178451,0.505050,-0.516360,-0.668170,92.855370,29.381906,-119.279354
05656,NaN,-2.773080,8.956663,-0.828479,-0.648316,-1.916406,-0.620016,0.089439,0.401454,0.055271,0.179382,0.506349,-0.516460,-0.666859,93.040804,29.343252,-119.019257
05657,NaN,-2.826687,8.996058,-0.764430,-0.704224,-1.840193,-0.559510,0.066903,0.448565,0.123226,0.180711,0.507612,-0.516609,-0.665424,93.227127,29.264385,-118.730858
05658,NaN,-2.834465,9.033838,-0.782297,-0.704965,-1.834257,-0.517804,0.045070,0.500145,0.184907,0.182441,0.508859,-0.516796,-0.663852,93.415366,29.146590,-118.411690
05659,NaN,-2.838739,9.053920,-0.785307,-0.711544,-1.811563,-0.492791,0.018593,0.547918,0.244140,0.184549,0.510089,-0.516994,-0.662170,93.601603,28.993448,-118.064387
05660,NaN,-2.835895,9.041845,-0.792763,-0.704516,-1.778569,-0.497863,-0.003020,0.603076,0.306225,0.187067,0.511309,-0.517228,-0.660337,93.789933,28.800430,-117.684938
05661,NaN,-2.905806,9.026410,-0.781214,-0.680630,-1.673324,-0.471025,-0.021358,0.649633,0.366615,0.189941,0.512510,-0.517500,-0.658369,93.979285,28.571339,-117.279210
05662,NaN,-2.965404,8.964775,-0.794605,-0.623904,-1.564538,-0.487722,-0.038014,0.685642,0.424194,0.193147,0.513649,-0.517830,-0.656286,94.166382,28.305135,-116.854657
05663,NaN,-3.042060,8.890384,-0.708937,-0.642004,-1.384874,-0.514011,-0.045215,0.713497,0.482237,0.196621,0.514721,-0.518243,-0.654084,94.353889,28.004933,-116.416865
05664,NaN,-3.133320,8.892277,-0.653418,-0.648060,-1.232685,-0.465096,-0.054065,0.732718,0.538136,0.200358,0.515685,-0.518749,-0.651786,94.537349,27.668938,-115.971962
05665,NaN,-3.193235,8.916291,-0.607888,-0.662523,-1.113909,-0.411280,-0.062672,0.747673,0.590654,0.204311,0.516549,-0.519329,-0.649408,94.715636,27.302779,-115.522679
05666,NaN,-3.261373,8.952576,-0.511186,-0.720915,-0.964374,-0.347152,-0.066810,0.758304,0.645150,0.208488,0.517282,-0.520021,-0.646939,94.889127,26.901858,-115.072454
05667,NaN,-3.341402,8.997361,-0.454293,-0.740615,-0.822587,-0.268146,-0.079094,0.752612,0.692804,0.212818,0.517854,-0.520782,-0.644454,95.048770,26.474769,-114.631335
05668,NaN,-3.425822,9.108828,-0.354536,-0.812061,-0.677061,-0.132071,-0.092713,0.753325,0.754417,0.217390,0.518231,-0.521652,-0.641917,95.194553,26.009396,-114.196406
05669,NaN,-3.525085,9.206738,-0.371728,-0.767596,-0.560382,0.006915,-0.102162,0.742403,0.815570,0.222136,0.518398,-0.522638,-0.639350,95.326071,25.510802,-113.774839
05670,NaN,-3.607336,9.317597,-0.330638,-0.781002,-0.429140,0.144470,-0.121674,0.731341,0.878828,0.227113,0.518315,-0.523730,-0.636770,95.436720,24.973782,-113.367174
05671,NaN,-3.597878,9.452492,-0.315422,-0.805946,-0.387566,0.266662,-0.148197,0.727483,0.937265,0.232313,0.518030,-0.524868,-0.634184,95.525335,24.405138,-112.968114
05672,NaN,-3.619892,9.530184,-0.354847,-0.750819,-0.316683,0.355351,-0.177693,0.746866,0.995852,0.237831,0.517588,-0.526029,-0.631532,95.595197,23.799303,-112.563446
05673,NaN,-3.505334,9.557288,-0.415663,-0.708094,-0.347690,0.345000,-0.207341,0.795876,1.039906,0.243671,0.517140,-0.527124,-0.628754,95.654584,23.167383,-112.133449
05674,NaN,-3.640846,9.609799,-0.552856,-0.511592,-0.199858,0.463832,-0.240979,0.848829,1.083899,0.249878,0.516665,-0.528145,-0.625844,95.700234,22.504762,-111.676354
05675,NaN,-3.611213,9.665735,-0.620824,-0.432263,-0.159199,0.513941,-0.272517,0.871750,1.130042,0.256345,0.516087,-0.529124,-0.622871,95.726686,21.816517,-111.210414
05676,NaN,-3.642619,9.683966,-0.735164,-0.278050,-0.066214,0.555788,-0.286289,0.905344,1.163898,0.263043,0.515467,-0.530083,-0.619769,95.745099,21.104601,-110.728812
05677,NaN,-3.788551,9.855329,-0.743349,-0.216336,0.128764,0.768821,-0.297772,0.942483,1.198750,0.269947,0.514837,-0.531010,-0.616523,95.758317,20.372837,-110.228987
05678,NaN,-3.891507,9.985486,-0.802732,-0.110692,0.287430,0.929829,-0.321843,0.955302,1.223617,0.277022,0.514103,-0.531884,-0.613234,95.752238,19.623874,-109.725622
05679,NaN,-3.966385,10.056131,-0.807762,-0.050210,0.464055,1.017405,-0.341375,0.971056,1.243438,0.284218,0.513319,-0.532687,-0.609893,95.731504,18.865076,-109.215845
05680,NaN,-4.046259,10.112013,-0.801295,0.004891,0.657931,1.088341,-0.353058,0.980074,1.260223,0.291515,0.512455,-0.533455,-0.606494,95.697608,18.094232,-108.703868
05681,NaN,-4.155897,10.136849,-0.871019,0.145291,0.863472,1.142556,-0.361615,0.986657,1.265330,0.298833,0.511563,-0.534160,-0.603055,95.653655,17.322625,-108.189682
05682,NaN,-4.255020,10.129705,-0.850649,0.202687,1.101278,1.150160,-0.361296,0.979801,1.263131,0.306119,0.510610,-0.534840,-0.599595,95.600830,16.551001,-107.681194
05683,NaN,-4.325366,10.092040,-0.862859,0.284323,1.308917,1.119225,-0.357288,0.972764,1.246884,0.313294,0.509665,-0.535461,-0.596129,95.543400,15.791573,-107.176922
05684,NaN,-4.403340,9.952165,-0.799295,0.310156,1.569082,0.981477,-0.339193,0.945973,1.222777,0.320272,0.508689,-0.536087,-0.592682,95.484927,15.045967,-106.688449
05685,NaN,-4.524298,9.911091,-0.666236,0.259242,1.862248,0.939343,-0.318664,0.909524,1.180703,0.326944,0.507732,-0.536689,-0.589306,95.428019,14.328711,-106.219746
05686,NaN,-4.622679,9.792992,-0.531941,0.207902,2.143506,0.813489,-0.301289,0.848029,1.126108,0.333240,0.506730,-0.537278,-0.586096,95.366390,13.644733,-105.785098
05687,NaN,-4.673222,9.714303,-0.384829,0.120497,2.365026,0.710894,-0.283556,0.771915,1.057759,0.339058,0.505705,-0.537843,-0.583118,95.301469,13.005915,-105.391535
05688,NaN,-4.696888,9.525508,-0.270972,0.071140,2.560994,0.497734,-0.270108,0.678190,0.978985,0.344357,0.504611,-0.538388,-0.580452,95.227956,12.416085,-105.048958
05689,NaN,-4.696849,9.374468,-0.209743,0.057717,2.699168,0.321189,-0.256660,0.581200,0.890878,0.349084,0.503489,-0.538897,-0.578126,95.148967,11.883349,-104.758030
05690,NaN,-4.625928,9.333840,-0.245395,0.103154,2.712080,0.247799,-0.246550,0.482403,0.795694,0.353244,0.502334,-0.539353,-0.576175,95.061601,11.409375,-104.519688
05691,NaN,-4.493972,9.234573,-0.345439,0.203039,2.648297,0.113909,-0.236654,0.402424,0.692520,0.356850,0.501243,-0.539710,-0.574566,94.971255,10.999669,-104.322010
05692,NaN,-4.339654,9.242953,-0.489675,0.325957,2.522865,0.088481,-0.235706,0.338003,0.590856,0.359990,0.500228,-0.539920,-0.573293,94.873011,10.650819,-104.156472
05693,NaN,-4.148321,9.213663,-0.689562,0.498027,2.343799,0.027739,-0.235126,0.310032,0.489130,0.362750,0.499411,-0.539924,-0.572262,94.773382,10.362341,-104.001534
05694,NaN,-3.984222,9.292537,-0.884222,0.657311,2.166704,0.080760,-0.234031,0.306277,0.396390,0.365235,0.498825,-0.539697,-0.571405,94.672975,10.126918,-103.844155
05695,NaN,-3.919357,9.262820,-1.081923,0.854692,2.093121,0.047332,-0.236613,0.316893,0.315044,0.367514,0.498487,-0.539242,-0.570669,94.573486,9.938076,-103.676284
05696,NaN,-3.947920,9.284561,-1.123121,0.914713,2.134159,0.069576,-0.231492,0.325571,0.243896,0.369603,0.498367,-0.538599,-0.570030,94.476763,9.789709,-103.500068
05697,NaN,-3.991692,9.391247,-1.139487,0.941960,2.177925,0.177150,-0.231245,0.335332,0.183131,0.371539,0.498442,-0.537790,-0.569470,94.382376,9.675966,-103.315094
05698,NaN,-3.960935,9.418330,-1.141756,0.946477,2.160146,0.194084,-0.235128,0.340113,0.129762,0.373345,0.498661,-0.536820,-0.569012,94.285245,9.593056,-103.125041
05699,NaN,-3.869198,9.467081,-1.084853,0.876099,2.090507,0.219034,-0.236304,0.377402,0.086956,0.375129,0.499099,-0.535674,-0.568535,94.192204,9.533092,-102.911269
05700,NaN,-3.892833,9.522763,-1.030237,0.831193,2.126226,0.271301,-0.237211,0.404095,0.047467,0.376873,0.499714,-0.534367,-0.568072,94.100281,9.495467,-102.680464
05701,NaN,-3.845475,9.454579,-0.929806,0.738154,2.118375,0.187757,-0.249997,0.424720,0.010990,0.378598,0.500459,-0.532897,-0.567649,94.004170,9.477691,-102.436007
05702,NaN,-3.722545,9.421587,-0.898730,0.692182,2.012730,0.132218,-0.252234,0.441625,-0.024038,0.380270,0.501338,-0.531290,-0.567262,93.907622,9.480499,-102.180472
05703,NaN,-3.495652,9.334019,-0.831975,0.595648,1.819519,0.004146,-0.265747,0.458731,-0.051235,0.381943,0.502309,-0.529548,-0.566907,93.806158,9.497806,-101.913810
05704,NaN,-3.090343,9.253872,-0.877937,0.573255,1.425585,-0.138277,-0.266248,0.490275,-0.075183,0.383628,0.503429,-0.527673,-0.566525,93.706761,9.529163,-101.628100
05705,NaN,-2.630247,9.174932,-0.969410,0.586486,0.968164,-0.286092,-0.264230,0.535135,-0.085823,0.385396,0.504703,-0.525694,-0.566031,93.613988,9.564354,-101.315870
05706,NaN,-2.377040,9.120396,-1.037738,0.617299,0.712089,-0.377609,-0.259576,0.604847,-0.094685,0.387302,0.506203,-0.523557,-0.565370,93.529995,9.603846,-100.963040
05707,NaN,-2.345980,9.142301,-1.128522,0.704516,0.656232,-0.355845,-0.245062,0.667497,-0.102625,0.389312,0.507922,-0.521323,-0.564512,93.461552,9.644906,-100.573470
05708,NaN,-2.312015,9.269372,-1.203228,0.764685,0.585783,-0.232158,-0.235999,0.711312,-0.106012,0.391394,0.509787,-0.519005,-0.563527,93.402094,9.688181,-100.158474
05709,NaN,-2.437912,9.318171,-1.207416,0.789042,0.696482,-0.162718,-0.225124,0.736054,-0.116718,0.393481,0.511760,-0.516642,-0.562454,93.352457,9.735782,-99.728625
05710,NaN,-2.550207,9.254527,-1.161462,0.768670,0.819458,-0.208706,-0.213593,0.715270,-0.129321,0.395439,0.513726,-0.514305,-0.561430,93.307174,9.793085,-99.310482
05711,NaN,-2.610989,9.238624,-1.074317,0.692994,0.889986,-0.218352,-0.197306,0.670540,-0.145919,0.397193,0.515631,-0.512061,-0.560496,93.268011,9.860205,-98.917620
05712,NaN,-2.748175,9.226424,-1.014537,0.653618,1.025740,-0.209080,-0.168078,0.580610,-0.175588,0.398547,0.517417,-0.509986,-0.559780,93.236744,9.949029,-98.576030
05713,NaN,-2.751887,9.288057,-0.934824,0.567005,1.018972,-0.150650,-0.127340,0.436632,-0.191394,0.399388,0.518913,-0.508277,-0.559351,93.215525,10.050121,-98.317416
05714,NaN,-2.675343,9.329735,-0.906381,0.521470,0.925206,-0.122745,-0.086020,0.258191,-0.204541,0.399623,0.520028,-0.506993,-0.559312,93.199855,10.166241,-98.162076
05715,NaN,-2.608116,9.384549,-0.857353,0.456617,0.838525,-0.081530,-0.034267,0.053742,-0.211817,0.399190,0.520688,-0.506252,-0.559679,93.193598,10.291380,-98.125243
05716,NaN,-2.524185,9.385346,-0.825330,0.410840,0.738751,-0.095547,0.020185,-0.170678,-0.223102,0.398008,0.520861,-0.506072,-0.560522,93.194772,10.431955,-98.218606
05717,NaN,-2.366080,9.485514,-0.808135,0.359561,0.544997,-0.024938,0.087617,-0.343290,-0.240604,0.396170,0.520722,-0.506386,-0.561669,93.216575,10.586277,-98.411784
05718,NaN,-2.085667,9.617713,-0.684072,0.177984,0.240328,0.047782,0.144932,-0.448349,-0.270353,0.393823,0.520479,-0.506979,-0.563008,93.259100,10.763011,-98.665211
05719,NaN,-2.000878,9.657572,-0.501212,-0.030828,0.150154,0.061513,0.194532,-0.515571,-0.297083,0.391106,0.520201,-0.507779,-0.564435,93.322454,10.955589,-98.956831
05720,NaN,-2.001860,9.682868,-0.339262,-0.208934,0.142133,0.077535,0.240970,-0.578190,-0.310718,0.388058,0.519873,-0.508782,-0.565936,93.404093,11.160330,-99.284485
05721,NaN,-1.893955,9.599236,-0.131190,-0.443127,0.057912,-0.037730,0.281212,-0.641052,-0.325489,0.384707,0.519469,-0.509986,-0.567510,93.501000,11.374291,-99.648131
05722,NaN,-1.721683,9.460735,-0.021483,-0.589279,-0.093706,-0.215082,0.312388,-0.690384,-0.335871,0.381105,0.519009,-0.511327,-0.569152,93.608275,11.598462,-100.040155
05723,NaN,-1.471757,9.355205,0.178016,-0.843425,-0.306187,-0.383351,0.339592,-0.725982,-0.342544,0.377323,0.518500,-0.512796,-0.570810,93.725975,11.826622,-100.452511
05724,NaN,-1.261826,9.233080,0.281061,-0.997907,-0.490833,-0.556116,0.357113,-0.741393,-0.327085,0.373486,0.517936,-0.514365,-0.572433,93.849563,12.049202,-100.874421
05725,NaN,-1.245271,9.146899,0.391152,-1.129378,-0.490673,-0.655554,0.366487,-0.753451,-0.324159,0.369601,0.517332,-0.515990,-0.574036,93.976056,12.269656,-101.303251
05726,NaN,-1.317941,9.068672,0.407671,-1.152603,-0.423599,-0.722256,0.370900,-0.771227,-0.310660,0.365684,0.516643,-0.517674,-0.575646,94.100408,12.485745,-101.743038
05727,NaN,-1.462159,9.038536,0.431678,-1.172682,-0.294184,-0.726567,0.377921,-0.791522,-0.304136,0.361714,0.515877,-0.519432,-0.577256,94.225305,12.698168,-102.194733
05728,NaN,-1.615255,9.183321,0.420707,-1.175686,-0.198265,-0.555377,0.387951,-0.827579,-0.287430,0.357658,0.514972,-0.521304,-0.578901,94.348600,12.905162,-102.668368
05729,NaN,-1.769609,9.430363,0.366714,-1.148220,-0.131032,-0.280527,0.388722,-0.862507,-0.262829,0.353578,0.513889,-0.523303,-0.580565,94.466795,13.098996,-103.163347
05730,NaN,-1.875125,9.696740,0.343838,-1.162324,-0.106636,0.000500,0.368503,-0.885112,-0.234158,0.349560,0.512618,-0.525333,-0.582285,94.567421,13.279931,-103.673134
05731,NaN,-1.924256,9.769579,0.263280,-1.105357,-0.109887,0.085939,0.330440,-0.896407,-0.202137,0.345700,0.511149,-0.527352,-0.584054,94.643932,13.442328,-104.190918
05732,NaN,-1.947745,9.686456,0.215529,-1.059666,-0.097166,0.012548,0.274403,-0.900548,-0.180304,0.342023,0.509502,-0.529246,-0.585941,94.684861,13.594425,-104.712613
05733,NaN,-1.884851,9.531099,0.184831,-1.036671,-0.145248,-0.151793,0.239863,-0.893244,-0.154720,0.338525,0.507737,-0.531091,-0.587832,94.706634,13.730388,-105.231220
05734,NaN,-1.862666,9.344713,0.169723,-1.010567,-0.143410,-0.337448,0.212236,-0.894064,-0.140216,0.335127,0.505874,-0.532869,-0.589773,94.709679,13.859594,-105.751577
05735,NaN,-1.669002,9.284464,0.103255,-0.996274,-0.341937,-0.437827,0.174900,-0.886692,-0.126475,0.331879,0.503922,-0.534561,-0.591747,94.692435,13.979168,-106.268253
05736,NaN,-1.541601,9.151774,0.014255,-0.931865,-0.470958,-0.590892,0.143589,-0.868419,-0.126523,0.328750,0.501961,-0.536106,-0.593759,94.657214,14.098965,-106.774837
05737,NaN,-1.492125,9.036584,-0.010849,-0.908650,-0.513013,-0.713371,0.116749,-0.853037,-0.138051,0.325691,0.500023,-0.537518,-0.595799,94.609355,14.222998,-107.271829
05738,NaN,-1.278060,8.909079,-0.114476,-0.855644,-0.731187,-0.882321,0.078818,-0.820157,-0.141902,0.322797,0.498121,-0.538733,-0.597866,94.541811,14.348394,-107.750038
05739,NaN,-1.199280,8.879854,-0.225942,-0.771761,-0.848969,-0.923102,0.060017,-0.750112,-0.151129,0.320106,0.496417,-0.539759,-0.599803,94.474393,14.474209,-108.186555
05740,NaN,-1.082356,8.944246,-0.307492,-0.743063,-1.013811,-0.886007,0.043924,-0.646460,-0.160711,0.317702,0.495014,-0.540528,-0.601545,94.410480,14.601405,-108.562261
05741,NaN,-1.112283,9.120183,-0.285046,-0.785644,-1.033249,-0.712616,0.031921,-0.511577,-0.161597,0.315687,0.493998,-0.541050,-0.602970,94.360696,14.721844,-108.858219
05742,NaN,-1.296441,9.337463,-0.320769,-0.730703,-0.940041,-0.455645,0.005905,-0.398810,-0.141350,0.314101,0.493220,-0.541353,-0.604162,94.310377,14.826397,-109.089136
05743,NaN,-1.610598,9.607986,-0.325532,-0.669892,-0.728642,-0.115590,-0.005065,-0.323492,-0.127010,0.312787,0.492614,-0.541548,-0.605162,94.266365,14.918530,-109.275937
05744,NaN,-1.705406,9.692010,-0.396428,-0.585076,-0.699863,-0.006135,-0.035503,-0.294425,-0.104207,0.311697,0.491982,-0.541649,-0.606147,94.206979,14.996912,-109.447144
05745,NaN,-1.603933,9.690844,-0.398160,-0.611838,-0.805730,-0.034138,-0.063505,-0.265799,-0.076015,0.310836,0.491320,-0.541700,-0.607081,94.137192,15.057133,-109.602338
05746,NaN,-1.566000,9.554649,-0.464027,-0.535841,-0.845345,-0.171254,-0.068029,-0.231755,-0.069212,0.310101,0.490730,-0.541690,-0.607943,94.067962,15.112430,-109.738238
05747,NaN,-1.423951,9.571249,-0.411531,-0.629023,-0.969848,-0.196580,-0.056667,-0.180449,-0.060772,0.309500,0.490294,-0.541664,-0.608622,94.014777,15.160151,-109.843759
05748,NaN,-1.591572,9.486781,-0.461862,-0.510596,-0.826051,-0.231333,-0.049096,-0.127115,-0.058393,0.309035,0.490020,-0.541575,-0.609158,93.972219,15.204698,-109.918315
05749,NaN,-1.655772,9.646032,-0.398357,-0.569763,-0.788603,-0.065910,-0.056724,-0.130446,-0.042012,0.308626,0.489686,-0.541518,-0.609685,93.926392,15.239558,-109.995104
05750,NaN,-1.533747,9.468555,-0.424050,-0.554745,-0.875559,-0.267459,-0.048773,-0.103056,-0.028243,0.308318,0.489403,-0.541466,-0.610114,93.887316,15.265697,-110.056726
05751,NaN,-1.632313,9.549541,-0.463286,-0.495010,-0.822801,-0.161222,-0.036890,-0.075799,-0.007392,0.308114,0.489171,-0.541469,-0.610400,93.860936,15.278555,-110.102588
05752,NaN,-1.900827,9.651313,-0.455435,-0.425894,-0.602040,0.006914,-0.030783,-0.067454,0.007146,0.307967,0.488928,-0.541505,-0.610637,93.837304,15.282906,-110.144564
05753,NaN,-1.849063,9.641197,-0.526512,-0.372333,-0.673128,-0.011810,-0.030582,-0.071779,0.024847,0.307856,0.488631,-0.541599,-0.610847,93.814819,15.277142,-110.189334
05754,NaN,-1.777690,9.730990,-0.576195,-0.360124,-0.775100,0.059186,-0.021210,-0.071748,0.040756,0.307777,0.488298,-0.541753,-0.611017,93.795651,15.262313,-110.235180
05755,NaN,-1.600578,9.558434,-0.662854,-0.309679,-0.925638,-0.147690,-0.012336,-0.040035,0.053281,0.307795,0.488049,-0.541924,-0.611055,93.788300,15.239065,-110.262246
05756,NaN,-1.595488,9.588977,-0.713990,-0.266673,-0.951033,-0.115870,0.000794,0.000438,0.070161,0.307948,0.487890,-0.542106,-0.610944,93.792717,15.204564,-110.266460
05757,NaN,-1.616330,9.562814,-0.730236,-0.240261,-0.925195,-0.133873,0.016045,0.033767,0.086269,0.308198,0.487821,-0.542330,-0.610674,93.812769,15.159657,-110.251103
05758,NaN,-1.685662,9.485912,-0.718957,-0.215930,-0.832182,-0.189709,0.020384,0.061020,0.102859,0.308568,0.487788,-0.542559,-0.610311,93.837463,15.104029,-110.220746
05759,NaN,-1.797708,9.391634,-0.672743,-0.208150,-0.682099,-0.253475,0.032884,0.085868,0.116361,0.309009,0.487822,-0.542827,-0.609822,93.874829,15.039898,-110.175795
05760,NaN,-1.940773,9.376007,-0.629604,-0.200063,-0.520394,-0.233457,0.051673,0.084713,0.133883,0.309462,0.487824,-0.543190,-0.609266,93.920689,14.965480,-110.132751
05761,NaN,-2.149067,9.378912,-0.612020,-0.150574,-0.310346,-0.177438,0.070558,0.060744,0.156908,0.309866,0.487729,-0.543710,-0.608673,93.975238,14.879094,-110.104456
05762,NaN,-2.266031,9.359070,-0.564073,-0.156358,-0.164740,-0.169366,0.095024,0.007865,0.184808,0.310159,0.487426,-0.544448,-0.608107,94.033604,14.778513,-110.109124
05763,NaN,-2.298036,9.374283,-0.498330,-0.212618,-0.094688,-0.150790,0.119245,-0.054379,0.214020,0.310304,0.486899,-0.545433,-0.607572,94.098003,14.664108,-110.151465
05764,NaN,-2.266763,9.400963,-0.370842,-0.348921,-0.059371,-0.141673,0.146831,-0.107642,0.242556,0.310331,0.486166,-0.546646,-0.607055,94.168195,14.535281,-110.227030
05765,NaN,-2.210201,9.542712,-0.295533,-0.463933,-0.086405,-0.024281,0.176081,-0.143322,0.270750,0.310266,0.485300,-0.548077,-0.606490,94.251556,14.392304,-110.324569
05766,NaN,-2.288933,9.812744,-0.185101,-0.586583,-0.000045,0.248091,0.198619,-0.174106,0.294955,0.310143,0.484299,-0.549674,-0.605908,94.341420,14.236569,-110.441925
05767,NaN,-2.379258,10.152570,-0.129675,-0.665629,0.067339,0.594265,0.208947,-0.193856,0.315797,0.309994,0.483204,-0.551388,-0.605301,94.436266,14.070369,-110.571600
05768,NaN,-2.507242,10.491664,-0.110262,-0.697293,0.160026,0.951209,0.204116,-0.203115,0.329786,0.309880,0.482023,-0.553126,-0.604714,94.525277,13.896374,-110.707986
05769,NaN,-2.668516,10.681309,-0.104620,-0.679015,0.310876,1.172049,0.184755,-0.212514,0.355163,0.309854,0.480721,-0.554885,-0.604152,94.603895,13.708927,-110.850809
05770,NaN,-2.768332,10.729554,-0.072629,-0.679512,0.445191,1.238656,0.157682,-0.216768,0.371436,0.309938,0.479306,-0.556599,-0.603657,94.664669,13.512122,-110.997466
05771,NaN,-2.870659,10.597020,-0.022446,-0.663145,0.622615,1.128540,0.124726,-0.233382,0.376287,0.310059,0.477784,-0.558254,-0.603273,94.706720,13.313883,-111.153728
05772,NaN,-2.865407,10.370436,0.025105,-0.663149,0.716266,0.901984,0.105440,-0.255171,0.368125,0.310147,0.476177,-0.559855,-0.603015,94.733323,13.121017,-111.322816
05773,NaN,-2.807624,10.056729,-0.005472,-0.594525,0.743887,0.585084,0.082656,-0.272869,0.340200,0.310146,0.474566,-0.561353,-0.602892,94.747465,12.945398,-111.500419
05774,NaN,-2.727505,9.719242,-0.136648,-0.437299,0.710148,0.248427,0.069768,-0.275572,0.293771,0.310035,0.473046,-0.562695,-0.602893,94.752708,12.796088,-111.677710
05775,NaN,-2.535581,9.513416,-0.264487,-0.347792,0.546241,0.015071,0.081302,-0.261006,0.234608,0.309749,0.471762,-0.563916,-0.602905,94.769664,12.680259,-111.843076
05776,NaN,-2.386675,9.485657,-0.444089,-0.228126,0.364522,-0.030756,0.097092,-0.240723,0.175613,0.309314,0.470719,-0.565004,-0.602925,94.796947,12.596892,-111.994119
05777,NaN,-2.312464,9.583047,-0.545485,-0.177904,0.254806,0.055608,0.109024,-0.219491,0.122372,0.308740,0.469918,-0.565977,-0.602932,94.836748,12.543302,-112.129675
05778,NaN,-2.181515,9.582462,-0.599173,-0.179640,0.125117,0.030771,0.112758,-0.215432,0.082061,0.308056,0.469238,-0.566850,-0.602991,94.877477,12.512324,-112.261320
05779,NaN,-2.243881,9.469676,-0.586126,-0.155279,0.212493,-0.066711,0.116698,-0.217391,0.058545,0.307277,0.468634,-0.567691,-0.603068,94.922777,12.495260,-112.392493
05780,NaN,-2.435240,9.416917,-0.538716,-0.124536,0.417598,-0.080830,0.128637,-0.229905,0.032823,0.306365,0.468073,-0.568516,-0.603189,94.971370,12.493309,-112.530142
05781,NaN,-2.596907,9.362060,-0.424515,-0.165973,0.621328,-0.109146,0.136895,-0.261632,0.021336,0.305300,0.467470,-0.569397,-0.603367,95.023067,12.499908,-112.685303
05782,NaN,-2.733733,9.257638,-0.268172,-0.245500,0.826981,-0.194740,0.141135,-0.301637,0.017161,0.304106,0.466754,-0.570330,-0.603642,95.069863,12.510786,-112.864091
05783,NaN,-2.796337,9.194199,-0.135294,-0.337042,0.949387,-0.254645,0.143904,-0.349788,0.012334,0.302744,0.465919,-0.571342,-0.604015,95.114447,12.527256,-113.070321
05784,NaN,-2.850771,9.163938,0.005168,-0.442202,1.061401,-0.284699,0.145438,-0.392328,-0.001010,0.301223,0.464984,-0.572379,-0.604514,95.152234,12.553490,-113.301192
05785,NaN,-2.762560,9.136483,0.032111,-0.499026,0.996708,-0.332939,0.131658,-0.428738,-0.029417,0.299535,0.464007,-0.573370,-0.605163,95.180027,12.598119,-113.551397
05786,NaN,-2.603979,9.027950,0.004725,-0.519665,0.856516,-0.470260,0.110905,-0.451340,-0.059815,0.297745,0.463006,-0.574248,-0.605980,95.190713,12.661244,-113.813732
