// General information: 
//  MT Manager version: 2019.0.1 
//  XDA version: 2019.0.1 build 2740 rev 84096 built on 2019-01-30
// Device information: 
//  DeviceId: 00B43876
//  ProductCode: MTW2-3A7G6
//  Firmware Version: 4.3.4
//  Hardware Version: 1.1.0
// Device settings: 
//  Filter Profile: human(46.1)
//  Option Flags: Orientation Smoother Disabled, AHS Disabled, ICC Disabled
// Coordinate system: ENU
PacketCounter,SampleTimeFine,Acc_X,Acc_Y,Acc_Z,FreeAcc_E,FreeAcc_N,FreeAcc_U,Gyr_X,Gyr_Y,Gyr_Z,Quat_q0,Quat_q1,Quat_q2,Quat_q3,Roll,Pitch,Yaw
16714,NaN,1.338379,9.721991,-1.083164,0.014490,-0.059916,0.060398,-0.002647,0.009044,-0.006864,0.559048,0.566128,-0.484266,-0.363938,96.370756,-7.434059,-74.435328
16715,NaN,1.344978,9.698574,-1.058465,-0.003765,-0.075529,0.035457,-0.005784,0.009021,-0.008616,0.559057,0.566135,-0.484241,-0.363946,96.368845,-7.432211,-74.433167
16716,NaN,1.359881,9.729549,-1.056982,-0.005117,-0.087242,0.067747,-0.008341,0.009197,-0.007962,0.559080,0.566129,-0.484218,-0.363951,96.365416,-7.431808,-74.430914
16717,NaN,1.338731,9.740252,-1.064615,-0.004631,-0.064116,0.076396,-0.002364,0.007368,-0.008922,0.559075,0.566143,-0.484203,-0.363956,96.365585,-7.429680,-74.429682
16718,NaN,1.348584,9.735703,-1.096665,0.029371,-0.065184,0.076708,-0.004636,0.005866,-0.010325,0.559077,0.566148,-0.484186,-0.363968,96.364349,-7.427722,-74.428847
16719,NaN,1.309138,9.697892,-1.121564,0.048374,-0.024543,0.037080,-0.006636,0.006594,-0.011377,0.559078,0.566155,-0.484159,-0.363992,96.362107,-7.424148,-74.427903
16720,NaN,1.323792,9.728882,-1.120301,0.047036,-0.036236,0.069373,-0.003500,0.006618,-0.009625,0.559076,0.566158,-0.484150,-0.364002,96.361480,-7.422703,-74.427869
16721,NaN,1.319303,9.710216,-1.063152,-0.005705,-0.050275,0.044117,-0.005215,0.005669,-0.012734,0.559069,0.566170,-0.484124,-0.364029,96.360109,-7.418297,-74.427369
16722,NaN,1.315731,9.692664,-1.079329,0.011476,-0.044471,0.028132,-0.001251,0.008475,-0.012336,0.559063,0.566194,-0.484102,-0.364032,96.360636,-7.415338,-74.425100
16723,NaN,1.330346,9.723645,-1.078202,0.010151,-0.056353,0.060424,-0.004957,0.011806,-0.009975,0.559074,0.566211,-0.484067,-0.364033,96.358982,-7.412893,-74.421253
16724,NaN,1.306747,9.716566,-1.102608,0.028300,-0.027741,0.053082,-0.002329,0.003111,-0.007221,0.559070,0.566213,-0.484068,-0.364036,96.359336,-7.412494,-74.421571
16725,NaN,1.321593,9.747507,-1.101563,0.026970,-0.039621,0.085375,-0.003229,0.008850,-0.009276,0.559071,0.566229,-0.484046,-0.364039,96.358896,-7.410260,-74.419467
16726,NaN,1.292192,9.703767,-1.086124,0.010525,-0.020074,0.036780,-0.000058,0.004614,-0.005818,0.559064,0.566235,-0.484053,-0.364031,96.360504,-7.410627,-74.419487
16727,NaN,1.284518,9.727407,-1.110146,0.027838,-0.003834,0.061727,-0.001208,0.007770,-0.004111,0.559066,0.566241,-0.484053,-0.364018,96.361346,-7.411265,-74.418333
16728,NaN,1.338130,9.719523,-1.109159,0.042200,-0.055882,0.060764,-0.003479,0.006268,-0.005515,0.559072,0.566240,-0.484051,-0.364012,96.360984,-7.411951,-74.417574
16729,NaN,1.306730,9.734803,-1.084596,0.008210,-0.031166,0.069076,-0.002322,0.006665,-0.000700,0.559081,0.566233,-0.484061,-0.363996,96.361297,-7.414462,-74.417273
16730,NaN,1.304334,9.793916,-1.075143,-0.009854,-0.025355,0.125988,-0.004879,0.006840,-0.000047,0.559102,0.566212,-0.484074,-0.363981,96.359951,-7.418289,-74.417240
16731,NaN,1.299656,9.758485,-1.107556,0.025036,-0.014448,0.094027,-0.009129,0.005710,0.001610,0.559131,0.566179,-0.484081,-0.363977,96.356454,-7.422054,-74.417635
16732,NaN,1.320476,9.747981,-1.098700,0.023564,-0.036809,0.085395,-0.002500,-0.004441,0.006471,0.559133,0.566135,-0.484141,-0.363963,96.357495,-7.428770,-74.423181
16733,NaN,1.275342,9.733504,-1.147978,0.060405,0.019721,0.070704,-0.008193,-0.004290,0.005369,0.559142,0.566077,-0.484189,-0.363975,96.355308,-7.434041,-74.429559
16734,NaN,1.232568,9.736746,-1.181014,0.079556,0.071133,0.071990,0.004342,-0.007747,0.005865,0.559114,0.566042,-0.484274,-0.363960,96.360363,-7.440385,-74.437898
16735,NaN,1.283504,9.709702,-1.124739,0.041680,0.004594,0.045760,0.013506,-0.017719,0.005958,0.559031,0.566019,-0.484400,-0.363956,96.371614,-7.445138,-74.452026
16736,NaN,1.287411,9.728331,-1.183018,0.093458,0.019413,0.071050,0.015506,-0.018444,0.007008,0.558944,0.565989,-0.484543,-0.363945,96.383894,-7.451508,-74.467415
16737,NaN,1.261921,9.701953,-1.152625,0.059391,0.033505,0.038416,0.009772,-0.006572,0.013134,0.558912,0.565958,-0.484651,-0.363898,96.392238,-7.461052,-74.475606
16738,NaN,1.353501,9.713933,-1.143773,0.071882,-0.053528,0.061149,0.004395,-0.004896,0.020611,0.558914,0.565889,-0.484775,-0.363838,96.397273,-7.475979,-74.484184
16739,NaN,1.335299,9.801005,-1.126268,0.037097,-0.030319,0.142658,-0.008709,0.001919,0.024232,0.558974,0.565795,-0.484857,-0.363781,96.394490,-7.492383,-74.488215
16740,NaN,1.416911,9.878976,-1.220924,0.137377,-0.071182,0.240597,-0.004995,0.002144,0.028390,0.559032,0.565692,-0.484969,-0.363704,96.393715,-7.512191,-74.493713
16741,NaN,1.128468,10.099381,-1.878636,0.658182,0.412281,0.492506,-0.044184,-0.016470,0.015162,0.559132,0.565488,-0.485012,-0.363810,96.371914,-7.522260,-74.507720
16742,NaN,0.997143,9.754504,-1.630276,0.438040,0.436922,0.107981,-0.029266,-0.050033,0.001881,0.559084,0.565288,-0.485149,-0.364012,96.361096,-7.523602,-74.541074
16743,NaN,1.916071,9.833551,-0.912513,-0.011412,-0.633358,0.227305,-0.070681,-0.074726,-0.006965,0.559077,0.564958,-0.485244,-0.364409,96.328307,-7.517392,-74.587123
16744,NaN,2.063672,9.769418,-1.361228,0.470862,-0.655594,0.232296,-0.079801,-0.036586,-0.021021,0.559168,0.564704,-0.485177,-0.364751,96.287301,-7.506407,-74.609651
16745,NaN,1.752803,9.863565,-1.120423,0.152947,-0.416258,0.258108,-0.067053,0.018010,-0.021337,0.559349,0.564587,-0.484979,-0.364918,96.249504,-7.497874,-74.601527
16746,NaN,1.741042,9.974668,-0.653829,-0.302591,-0.522433,0.315897,-0.096617,0.068564,-0.014667,0.559750,0.564458,-0.484611,-0.364992,96.191019,-7.497188,-74.565212
16747,NaN,1.343879,10.121802,-0.774733,-0.301217,-0.092271,0.422440,-0.117117,0.074289,-0.011207,0.560227,0.564279,-0.484193,-0.365092,96.120403,-7.497867,-74.525397
16748,NaN,1.163017,10.124397,-0.308372,-0.782712,-0.044627,0.352767,-0.126674,0.030008,0.014417,0.560673,0.563923,-0.483960,-0.365267,96.047707,-7.511306,-74.513206
16749,NaN,1.272210,10.108609,-0.294314,-0.753581,-0.149329,0.350920,-0.129642,-0.046034,0.009766,0.560932,0.563437,-0.483915,-0.365678,95.979112,-7.516615,-74.543812
16750,NaN,1.405304,10.165745,-0.539317,-0.480959,-0.198325,0.450716,-0.139586,-0.141898,0.009577,0.560988,0.562741,-0.484127,-0.366382,95.911879,-7.517110,-74.630217
16751,NaN,1.619291,10.130616,-0.380056,-0.562178,-0.447220,0.428400,-0.125685,-0.193105,0.002030,0.560865,0.562015,-0.484479,-0.367219,95.856545,-7.509440,-74.744900
16752,NaN,1.693546,10.267519,-0.382507,-0.549618,-0.502236,0.573940,-0.124927,-0.197205,-0.012585,0.560707,0.561318,-0.484803,-0.368098,95.801755,-7.494131,-74.860384
16753,NaN,1.911230,10.108879,-0.700481,-0.158120,-0.639416,0.478039,-0.143768,-0.205210,-0.024109,0.560556,0.560581,-0.485081,-0.369084,95.736708,-7.471091,-74.980516
16754,NaN,2.029663,10.041593,-1.100498,0.272885,-0.653337,0.466559,-0.101408,-0.217363,-0.032815,0.560243,0.559956,-0.485449,-0.370022,95.696502,-7.443428,-75.107217
16755,NaN,2.019750,10.237593,-1.048885,0.201730,-0.642018,0.653208,-0.089167,-0.219042,-0.030489,0.559892,0.559360,-0.485847,-0.370932,95.663613,-7.416152,-75.234958
16756,NaN,1.745296,10.350852,-0.869107,-0.047988,-0.417644,0.711798,-0.106707,-0.212300,-0.015033,0.559637,0.558678,-0.486245,-0.371822,95.619727,-7.399254,-75.360723
16757,NaN,1.547310,10.215531,-0.760819,-0.177858,-0.269337,0.542307,-0.091317,-0.210397,0.014118,0.559393,0.557982,-0.486738,-0.372587,95.585226,-7.398069,-75.486037
16758,NaN,1.563738,10.014884,-0.762545,-0.143201,-0.300993,0.346720,-0.064444,-0.193425,0.055311,0.559194,0.557283,-0.487357,-0.373123,95.564976,-7.422423,-75.604900
16759,NaN,1.613584,9.805838,-1.011751,0.134880,-0.298779,0.171014,-0.035617,-0.172602,0.091805,0.559031,0.556623,-0.488064,-0.373429,95.560238,-7.467726,-75.712844
16760,NaN,1.676411,9.508303,-1.103740,0.272932,-0.356842,-0.105238,-0.010244,-0.153628,0.122061,0.558903,0.555988,-0.488853,-0.373533,95.568627,-7.532205,-75.811895
16761,NaN,1.632925,9.226277,-1.196481,0.381451,-0.310002,-0.379735,0.012396,-0.125222,0.141499,0.558814,0.555428,-0.489655,-0.373450,95.588414,-7.608454,-75.895418
16762,NaN,1.612646,9.007024,-1.182572,0.383690,-0.305186,-0.599370,0.029843,-0.083727,0.157385,0.558814,0.554953,-0.490416,-0.373159,95.614862,-7.696820,-75.955424
16763,NaN,1.710023,8.823200,-1.119951,0.362297,-0.421349,-0.772858,0.035560,-0.043680,0.166654,0.558906,0.554547,-0.491101,-0.372721,95.642055,-7.791922,-75.993552
16764,NaN,1.798876,8.586618,-1.107704,0.394075,-0.521647,-0.994210,0.047389,0.009820,0.166309,0.559098,0.554264,-0.491667,-0.372110,95.671448,-7.890828,-76.002047
16765,NaN,1.743759,8.425623,-1.148565,0.432872,-0.462348,-1.155329,0.053858,0.037163,0.164380,0.559333,0.554064,-0.492153,-0.371409,95.702824,-7.989185,-75.993623
16766,NaN,1.606850,8.386935,-1.266743,0.510362,-0.291888,-1.199814,0.064574,0.028909,0.159063,0.559514,0.553885,-0.492670,-0.370717,95.740275,-8.084992,-75.989668
16767,NaN,1.790363,8.328989,-1.104923,0.396475,-0.504192,-1.246072,0.085994,0.004181,0.147720,0.559547,0.553755,-0.493261,-0.370075,95.792603,-8.171964,-75.999400
16768,NaN,1.854357,8.430336,-0.946917,0.235487,-0.584356,-1.151919,0.093665,-0.005015,0.130447,0.559503,0.553656,-0.493858,-0.369492,95.849602,-8.249697,-76.015476
16769,NaN,1.678556,8.698280,-0.847636,0.051151,-0.401200,-0.922664,0.088738,-0.005847,0.125541,0.559462,0.553569,-0.494421,-0.368932,95.904197,-8.323421,-76.029842
16770,NaN,1.349132,8.969661,-0.721978,-0.195171,-0.076073,-0.715856,0.071113,-0.001800,0.126454,0.559482,0.553425,-0.494953,-0.368405,95.948035,-8.399002,-76.043403
16771,NaN,1.117848,9.230714,-0.637331,-0.376509,0.164950,-0.501786,0.059751,-0.022480,0.132444,0.559492,0.553208,-0.495527,-0.367943,95.987544,-8.475646,-76.067890
16772,NaN,1.058992,9.266412,-0.632708,-0.408362,0.235686,-0.476422,0.042336,-0.057482,0.137825,0.559469,0.552843,-0.496203,-0.367617,96.019757,-8.554515,-76.116397
16773,NaN,0.977230,9.293970,-0.578151,-0.491472,0.314777,-0.467824,0.028721,-0.097129,0.134632,0.559383,0.552396,-0.496934,-0.367432,96.048012,-8.627882,-76.184134
16774,NaN,0.903651,9.319346,-0.627939,-0.470028,0.411857,-0.449432,0.001231,-0.141283,0.121423,0.559238,0.551806,-0.497715,-0.367482,96.063638,-8.692062,-76.278800
16775,NaN,0.848878,9.276994,-0.751283,-0.361999,0.499858,-0.487092,-0.012280,-0.177949,0.110407,0.559018,0.551155,-0.498529,-0.367689,96.075398,-8.746689,-76.391706
16776,NaN,0.872983,9.505031,-0.850873,-0.294104,0.538398,-0.249460,-0.031020,-0.200491,0.106049,0.558784,0.550402,-0.499373,-0.368029,96.077702,-8.798270,-76.520055
16777,NaN,0.922581,9.562663,-0.953260,-0.192019,0.532239,-0.175041,-0.060361,-0.206473,0.107734,0.558619,0.549569,-0.500170,-0.368441,96.064619,-8.849642,-76.649276
16778,NaN,0.907358,9.520715,-1.184102,0.036329,0.608357,-0.195100,-0.107303,-0.225225,0.116940,0.558553,0.548532,-0.500967,-0.369003,96.025823,-8.905937,-76.791708
16779,NaN,1.132809,9.268962,-1.349611,0.287741,0.410042,-0.391041,-0.134164,-0.269875,0.118060,0.558449,0.547348,-0.501831,-0.369744,95.976469,-8.959551,-76.958100
16780,NaN,0.985319,9.040396,-1.424637,0.366337,0.549645,-0.631572,-0.146415,-0.299042,0.106153,0.558282,0.546090,-0.502729,-0.370635,95.921959,-9.005447,-77.142368
16781,NaN,0.324287,9.013197,-1.559314,0.365945,1.220708,-0.749008,-0.171962,-0.303865,0.065271,0.558095,0.544867,-0.503471,-0.371708,95.853758,-9.027301,-77.325163
16782,NaN,-0.672847,8.814025,-1.683913,0.313790,2.186974,-1.089501,-0.196897,-0.297723,0.001622,0.557874,0.543740,-0.503978,-0.373000,95.770049,-9.014366,-77.500706
16783,NaN,-1.331156,8.437652,-2.409643,0.943211,2.936260,-1.490366,-0.123561,-0.286924,-0.047568,0.557385,0.542965,-0.504453,-0.374218,95.726945,-8.973305,-77.667101
16784,NaN,-0.211909,10.190593,-4.255155,2.744956,2.489828,0.592377,0.073485,-0.284058,-0.106721,0.556258,0.542889,-0.505130,-0.375091,95.795789,-8.899349,-77.828432
16785,NaN,-0.311421,11.973189,-4.983445,3.195271,2.962404,2.406288,0.017162,-0.149224,-0.043405,0.555740,0.542751,-0.505494,-0.375568,95.820752,-8.868474,-77.915534
16786,NaN,0.524184,11.548921,-4.557171,3.012612,1.998566,2.076385,-0.034583,-0.064598,0.007054,0.555671,0.542499,-0.505666,-0.375801,95.809269,-8.871793,-77.956912
16787,NaN,1.203960,10.618600,-3.601317,2.351945,1.011937,1.169935,-0.064223,-0.030940,0.069741,0.555885,0.542071,-0.505855,-0.375848,95.778091,-8.912277,-77.982401
16788,NaN,1.602373,9.758495,-2.186917,1.182124,0.212357,0.243947,-0.138792,0.046358,0.119486,0.556588,0.541455,-0.505828,-0.375731,95.698246,-8.986024,-77.966335
16789,NaN,1.464737,8.895850,-0.892760,0.023373,-0.038931,-0.753078,-0.199445,0.116980,0.151476,0.557695,0.540721,-0.505572,-0.375491,95.576960,-9.081507,-77.910980
16790,NaN,2.044306,8.814803,0.424529,-1.107063,-0.884944,-0.865543,-0.225249,0.169969,0.155412,0.559011,0.540003,-0.505135,-0.375157,95.436508,-9.182475,-77.825220
16791,NaN,3.698975,9.899699,1.187890,-1.618400,-2.485666,0.400034,-0.221702,0.204609,0.176842,0.560444,0.539305,-0.504658,-0.374664,95.294283,-9.296862,-77.720105
16792,NaN,4.673242,11.251225,1.346829,-1.710566,-3.246842,1.882398,-0.253524,0.163450,0.231605,0.561959,0.538299,-0.504389,-0.374203,95.138314,-9.440638,-77.641533
16793,NaN,1.989660,11.045693,1.287806,-2.160551,-0.641714,1.257294,-0.408481,0.204880,0.235348,0.564001,0.536924,-0.503715,-0.374013,94.888909,-9.587793,-77.538439
16794,NaN,1.375829,10.418831,0.872583,-1.775362,-0.013462,0.582219,-0.392988,0.116553,0.184748,0.565682,0.535550,-0.503186,-0.374158,94.656440,-9.702087,-77.483528
16795,NaN,1.805358,10.653431,0.545368,-1.361785,-0.287915,0.916471,-0.312689,0.024633,0.209150,0.566959,0.534170,-0.503125,-0.374280,94.478777,-9.825259,-77.482445
16796,NaN,1.442817,10.134683,0.059035,-0.885329,0.125410,0.385222,-0.271395,-0.053866,0.240328,0.567986,0.532677,-0.503449,-0.374415,94.332886,-9.963433,-77.528021
16797,NaN,1.532838,9.574255,-0.290446,-0.450314,0.061863,-0.122815,-0.182167,-0.154299,0.246559,0.568531,0.531234,-0.504237,-0.374577,94.248265,-10.100301,-77.631780
16798,NaN,2.233664,9.525408,-0.360567,-0.224865,-0.578675,-0.041956,-0.115644,-0.256261,0.240277,0.568630,0.529802,-0.505424,-0.374856,94.212441,-10.230004,-77.794438
16799,NaN,2.384307,9.482547,-0.282416,-0.267122,-0.725671,-0.061514,-0.089355,-0.308832,0.221827,0.568488,0.528392,-0.506756,-0.375262,94.197272,-10.346401,-77.986762
16800,NaN,2.316786,9.583235,-0.190087,-0.385724,-0.645887,0.019710,-0.079153,-0.304899,0.179134,0.568249,0.527122,-0.507985,-0.375748,94.187599,-10.439273,-78.175098
16801,NaN,2.494650,9.786153,-0.222046,-0.343317,-0.761611,0.254261,-0.086373,-0.244894,0.141786,0.568107,0.526041,-0.508926,-0.376203,94.167396,-10.512692,-78.326928
16802,NaN,2.402571,9.848309,-0.323674,-0.268652,-0.627575,0.306614,-0.097856,-0.160797,0.113207,0.568158,0.525154,-0.509534,-0.376543,94.131625,-10.574045,-78.428734
16803,NaN,2.374059,9.876833,-0.508799,-0.092600,-0.544578,0.343183,-0.103034,-0.071215,0.088813,0.568401,0.524486,-0.509811,-0.376733,94.083210,-10.624500,-78.477344
16804,NaN,2.249938,9.856217,-0.584785,-0.033595,-0.402301,0.305920,-0.104208,0.012485,0.067966,0.568824,0.524021,-0.509795,-0.376762,94.024984,-10.667218,-78.476442
16805,NaN,1.975682,9.738681,-0.562597,-0.088438,-0.153995,0.138704,-0.089166,0.064113,0.052015,0.569306,0.523741,-0.509616,-0.376667,93.969700,-10.702137,-78.444758
16806,NaN,1.859578,9.725363,-0.475910,-0.187154,-0.055563,0.098371,-0.067971,0.078918,0.043020,0.569756,0.523568,-0.509414,-0.376500,93.924836,-10.733229,-78.404127
16807,NaN,1.888619,9.765970,-0.377788,-0.276453,-0.091756,0.137134,-0.034196,0.069629,0.035923,0.570078,0.523495,-0.509279,-0.376296,93.900285,-10.759119,-78.368534
16808,NaN,2.000270,9.716008,-0.252580,-0.369965,-0.229927,0.100735,0.005835,0.046168,0.030534,0.570228,0.523502,-0.509276,-0.376063,93.901111,-10.781713,-78.346372
16809,NaN,2.027483,9.719863,-0.230900,-0.389272,-0.257538,0.108092,0.051950,0.019000,0.021984,0.570169,0.523615,-0.509412,-0.375811,93.931303,-10.797656,-78.339682
16810,NaN,1.975325,9.693872,-0.302225,-0.334379,-0.195871,0.077420,0.081124,-0.004344,0.006832,0.569949,0.523802,-0.509632,-0.375586,93.980560,-10.804779,-78.346020
16811,NaN,2.046249,9.797637,-0.429502,-0.216844,-0.221069,0.200773,0.108186,-0.006737,-0.011014,0.569615,0.524110,-0.509861,-0.375353,94.045530,-10.800841,-78.352985
16812,NaN,2.036772,9.749078,-0.599446,-0.059557,-0.187545,0.162961,0.130937,0.000007,-0.028128,0.569209,0.524536,-0.510070,-0.375088,94.122559,-10.788154,-78.355347
16813,NaN,2.000150,9.711024,-0.670960,-0.005688,-0.148879,0.123739,0.141515,0.014148,-0.038911,0.568788,0.525049,-0.510228,-0.374794,94.204127,-10.769125,-78.348971
16814,NaN,1.981232,9.724328,-0.797059,0.099354,-0.108001,0.142291,0.143010,0.039281,-0.057296,0.568396,0.525657,-0.510271,-0.374479,94.283561,-10.741436,-78.327192
16815,NaN,2.041826,9.689289,-0.896409,0.200194,-0.158630,0.126611,0.141122,0.057382,-0.068318,0.568030,0.526324,-0.510227,-0.374155,94.359982,-10.707491,-78.294331
16816,NaN,2.053834,9.656078,-0.846614,0.146402,-0.195136,0.092629,0.146434,0.068280,-0.080352,0.567659,0.527054,-0.510134,-0.373820,94.438082,-10.667967,-78.254591
16817,NaN,2.081616,9.690511,-0.727986,0.021524,-0.252356,0.122348,0.147862,0.083749,-0.101975,0.567279,0.527875,-0.509938,-0.373504,94.515282,-10.616063,-78.204790
16818,NaN,2.051325,9.741101,-0.679611,-0.047954,-0.237531,0.162287,0.146391,0.088518,-0.116370,0.566891,0.528733,-0.509691,-0.373217,94.590946,-10.557007,-78.151534
16819,NaN,2.018033,9.733458,-0.642650,-0.099627,-0.228472,0.145401,0.144147,0.098993,-0.132570,0.566502,0.529649,-0.509363,-0.372957,94.664218,-10.488464,-78.091320
16820,NaN,2.002146,9.777149,-0.660044,-0.100151,-0.217186,0.186296,0.139307,0.105531,-0.146613,0.566118,0.530594,-0.508973,-0.372728,94.733859,-10.413078,-78.026605
16821,NaN,1.991846,9.796244,-0.654125,-0.118423,-0.221960,0.202222,0.133138,0.107543,-0.163899,0.565720,0.531573,-0.508516,-0.372561,94.799790,-10.327199,-77.959772
16822,NaN,1.852452,9.752326,-0.728058,-0.076967,-0.095696,0.139920,0.119943,0.106280,-0.175280,0.565335,0.532537,-0.508011,-0.372459,94.858157,-10.235637,-77.893079
16823,NaN,1.613685,9.749965,-0.958709,0.092092,0.167256,0.114469,0.109015,0.097967,-0.182211,0.564941,0.533475,-0.507486,-0.372429,94.911273,-10.138972,-77.830752
16824,NaN,1.668502,9.695650,-1.103551,0.245182,0.120047,0.083413,0.106396,0.069622,-0.194925,0.564461,0.534381,-0.507005,-0.372514,94.965630,-10.034501,-77.784185
16825,NaN,1.711128,9.662680,-1.091630,0.241527,0.051855,0.057771,0.097562,0.055894,-0.195285,0.563965,0.535240,-0.506542,-0.372662,95.016491,-9.928390,-77.745437
16826,NaN,1.559057,9.659543,-1.062866,0.178524,0.171384,0.026309,0.079712,0.051744,-0.209491,0.563483,0.536072,-0.506022,-0.372902,95.057371,-9.814779,-77.708342
16827,NaN,1.520831,9.753069,-1.121400,0.213544,0.214364,0.117127,0.069640,0.037661,-0.214580,0.562978,0.536866,-0.505505,-0.373223,95.093983,-9.696788,-77.679028
16828,NaN,1.713637,9.753601,-1.068690,0.201265,-0.004062,0.145767,0.060577,0.012887,-0.208190,0.562449,0.537568,-0.505060,-0.373611,95.127822,-9.581963,-77.664365
16829,NaN,1.915913,9.668244,-0.929873,0.119021,-0.263468,0.083106,0.048805,0.015664,-0.212337,0.561948,0.538256,-0.504571,-0.374037,95.154720,-9.464156,-77.647780
16830,NaN,1.888293,9.731275,-0.816501,-0.003797,-0.274769,0.129872,0.037590,0.027412,-0.221265,0.561492,0.538952,-0.504007,-0.374480,95.173958,-9.342642,-77.623942
16831,NaN,1.810979,9.841985,-0.738823,-0.106716,-0.224572,0.218679,0.024891,0.044701,-0.234440,0.561085,0.539681,-0.503331,-0.374948,95.184320,-9.213735,-77.589343
16832,NaN,1.711813,9.811659,-0.828951,-0.032856,-0.135057,0.180647,0.015656,0.055687,-0.242432,0.560719,0.540420,-0.502587,-0.375429,95.188312,-9.081623,-77.548019
16833,NaN,1.640398,9.745264,-0.888005,0.022213,-0.084459,0.109105,0.007886,0.069583,-0.249333,0.560391,0.541184,-0.501768,-0.375914,95.186715,-8.945512,-77.498269
16834,NaN,1.470407,9.728201,-0.835327,-0.057415,0.042020,0.061149,0.001619,0.064401,-0.257573,0.560054,0.541937,-0.500931,-0.376447,95.181958,-8.805213,-77.451158
16835,NaN,1.559748,9.772039,-0.933258,0.057869,-0.039740,0.126707,-0.008547,0.051916,-0.260636,0.559703,0.542648,-0.500098,-0.377051,95.172655,-8.661731,-77.411078
16836,NaN,1.695142,9.669871,-0.892180,0.066608,-0.216919,0.042481,-0.009147,0.038408,-0.268825,0.559307,0.543348,-0.499281,-0.377713,95.164127,-8.513646,-77.378444
16837,NaN,1.779278,9.732770,-0.866783,0.059571,-0.321221,0.113902,-0.003344,0.037106,-0.274228,0.558878,0.544077,-0.498461,-0.378381,95.159169,-8.361634,-77.346271
16838,NaN,1.665441,9.744122,-0.854306,0.028935,-0.238349,0.106674,-0.018081,0.034035,-0.280786,0.558471,0.544772,-0.497605,-0.379108,95.145975,-8.206509,-77.315626
16839,NaN,1.471078,9.760872,-0.936090,0.072692,-0.055817,0.102275,-0.027988,0.036426,-0.288199,0.558078,0.545464,-0.496700,-0.379877,95.127036,-8.046475,-77.283214
16840,NaN,1.218752,9.712576,-1.116843,0.207598,0.198080,0.035380,-0.026059,0.040133,-0.289058,0.557690,0.546166,-0.495788,-0.380629,95.108910,-7.886930,-77.248736
16841,NaN,1.242274,9.746144,-1.049149,0.151602,0.137403,0.066045,-0.014034,0.040055,-0.284871,0.557272,0.546894,-0.494906,-0.381343,95.097900,-7.728962,-77.214523
16842,NaN,1.377219,9.780837,-0.968311,0.106820,-0.033476,0.111351,-0.019545,0.035439,-0.276428,0.556876,0.547572,-0.494052,-0.382055,95.084179,-7.576354,-77.183517
16843,NaN,1.357673,9.795054,-0.802629,-0.051495,-0.076642,0.108098,-0.017251,0.048981,-0.271794,0.556512,0.548273,-0.493174,-0.382714,95.070936,-7.426286,-77.144932
16844,NaN,1.317897,9.764560,-0.727953,-0.120871,-0.083331,0.066168,-0.021827,0.053946,-0.269865,0.556179,0.548962,-0.492280,-0.383361,95.054756,-7.278331,-77.103669
16845,NaN,1.229539,9.800117,-0.747146,-0.118090,-0.014426,0.091760,-0.008226,0.055613,-0.270712,0.555807,0.549697,-0.491401,-0.383976,95.046423,-7.129198,-77.061421
16846,NaN,1.054414,9.784371,-0.840773,-0.057529,0.150477,0.062868,-0.008150,0.043510,-0.270349,0.555407,0.550403,-0.490559,-0.384618,95.039018,-6.980429,-77.026226
16847,NaN,0.965983,9.818774,-0.861527,-0.054727,0.219380,0.088449,0.001802,0.025468,-0.265302,0.554942,0.551092,-0.489796,-0.385275,95.038773,-6.832857,-77.001641
16848,NaN,0.978461,9.838245,-0.780643,-0.127432,0.165808,0.102658,0.011636,0.008610,-0.253991,0.554432,0.551744,-0.489133,-0.385918,95.045344,-6.691647,-76.987354
16849,NaN,0.841008,9.796044,-0.683204,-0.243510,0.248332,0.036959,0.009700,-0.002038,-0.244230,0.553916,0.552349,-0.488518,-0.386571,95.051690,-6.554719,-76.979631
16850,NaN,0.707316,9.815283,-0.754225,-0.202917,0.373257,0.047759,0.012968,-0.021086,-0.236763,0.553362,0.552903,-0.487986,-0.387245,95.061111,-6.421824,-76.983252
16851,NaN,0.735081,9.740816,-0.932363,-0.013102,0.358683,-0.006349,0.025352,-0.060248,-0.230934,0.552685,0.553405,-0.487598,-0.387983,95.080230,-6.289540,-77.009585
16852,NaN,1.103766,9.805767,-0.992311,0.121103,-0.001434,0.104033,0.041742,-0.088993,-0.219569,0.551917,0.553864,-0.487355,-0.388725,95.110432,-6.162956,-77.052945
16853,NaN,0.964880,9.844903,-1.017155,0.109431,0.120097,0.130214,0.046517,-0.082990,-0.206063,0.551173,0.554318,-0.487138,-0.389405,95.143072,-6.043674,-77.093467
16854,NaN,0.703256,9.695813,-1.112039,0.159136,0.362760,-0.036029,0.042136,-0.079055,-0.195741,0.550473,0.554738,-0.486934,-0.390052,95.172847,-5.931151,-77.132227
16855,NaN,0.710957,9.762425,-1.187761,0.226447,0.358242,0.038278,0.041338,-0.063414,-0.192274,0.549816,0.555181,-0.486690,-0.390651,95.201268,-5.820710,-77.162094
16856,NaN,0.817187,9.799297,-1.178319,0.236003,0.236340,0.085336,0.049312,-0.036776,-0.192919,0.549203,0.555696,-0.486390,-0.391156,95.232584,-5.711938,-77.176637
16857,NaN,0.725142,9.833810,-1.171819,0.204377,0.307087,0.110351,0.055457,0.003482,-0.196940,0.548660,0.556318,-0.485977,-0.391546,95.265163,-5.602308,-77.167774
16858,NaN,0.574968,9.742740,-1.169184,0.177385,0.425971,0.005949,0.058229,0.051794,-0.201770,0.548219,0.557051,-0.485425,-0.391806,95.296602,-5.493123,-77.130975
16859,NaN,0.975312,9.947760,-1.128949,0.203362,0.023248,0.244238,0.059924,0.102047,-0.211115,0.547874,0.557912,-0.484710,-0.391950,95.326341,-5.380645,-77.064754
16860,NaN,1.150653,10.157917,-0.916072,0.014653,-0.200165,0.449192,0.013279,0.151204,-0.195257,0.547810,0.558700,-0.483815,-0.392023,95.326924,-5.280452,-76.971234
16861,NaN,1.479608,10.302957,-0.825916,-0.007188,-0.547205,0.614334,-0.039495,0.218978,-0.197038,0.548051,0.559482,-0.482622,-0.392041,95.293898,-5.182204,-76.838799
16862,NaN,1.420787,10.372200,-0.527487,-0.303563,-0.571764,0.649641,-0.076268,0.264121,-0.205584,0.548489,0.560268,-0.481211,-0.392041,95.237652,-5.082009,-76.680252
16863,NaN,1.182120,10.312163,-0.212177,-0.640798,-0.436204,0.540195,-0.084692,0.261319,-0.213129,0.548924,0.561045,-0.479766,-0.392092,95.177015,-4.976543,-76.522943
16864,NaN,1.195118,10.360453,-0.320990,-0.521307,-0.437342,0.599192,-0.086828,0.279593,-0.218668,0.549399,0.561860,-0.478252,-0.392108,95.114459,-4.869354,-76.355078
16865,NaN,1.224176,10.595946,-0.549839,-0.299878,-0.412764,0.855707,-0.112276,0.338354,-0.217428,0.550085,0.562719,-0.476526,-0.392017,95.034899,-4.764978,-76.153726
16866,NaN,1.171103,10.681068,-0.332877,-0.509564,-0.425021,0.917045,-0.129832,0.388554,-0.200508,0.550972,0.563581,-0.474676,-0.391776,94.943208,-4.673150,-75.924691
16867,NaN,0.959393,11.205556,-0.370723,-0.557742,-0.194032,1.424465,-0.105725,0.425684,-0.166078,0.551942,0.564502,-0.472862,-0.391279,94.864221,-4.601766,-75.676211
16868,NaN,0.422651,12.186814,-0.251059,-0.890284,0.339683,2.346757,-0.060093,0.445270,-0.098499,0.552962,0.565420,-0.471275,-0.390428,94.810815,-4.570318,-75.419936
16869,NaN,-0.234867,12.961582,-0.199606,-1.177874,1.001127,3.060074,-0.011335,0.450041,0.004970,0.554051,0.566239,-0.470057,-0.389163,94.785696,-4.597305,-75.165879
16870,NaN,-0.735223,12.681380,-0.317677,-1.163038,1.507442,2.750505,-0.076469,0.499687,0.097382,0.555620,0.566750,-0.468837,-0.387650,94.720824,-4.679909,-74.887906
16871,NaN,-1.042382,12.071459,-0.635423,-0.873980,1.876740,2.142410,-0.142743,0.566252,0.220290,0.557765,0.566917,-0.467644,-0.385762,94.614949,-4.834699,-74.577207
16872,NaN,-0.966438,12.056914,-0.885471,-0.613042,1.914948,2.147418,-0.141177,0.606721,0.408191,0.560358,0.566717,-0.466872,-0.383225,94.507269,-5.098646,-74.251731
16873,NaN,-1.218654,12.331505,-1.634483,-0.001105,2.453733,2.442972,-0.137111,0.685741,0.635061,0.563546,0.566143,-0.466518,-0.379814,94.397012,-5.494514,-73.890171
16874,NaN,-3.549621,12.545697,-3.300248,0.912019,5.273580,2.525958,-0.335172,0.654373,0.787394,0.567498,0.564578,-0.466299,-0.376514,94.172608,-5.975553,-73.552152
16875,NaN,-4.840434,10.930973,-2.176400,-0.374225,6.163649,0.652532,-0.434595,0.598839,0.884060,0.571764,0.562388,-0.466305,-0.373317,93.892117,-6.507584,-73.247138
16876,NaN,-3.564911,10.034054,-1.336465,-0.732528,4.727595,-0.205966,-0.293077,0.396042,1.021455,0.575395,0.559881,-0.467531,-0.369958,93.703861,-7.109488,-73.062243
16877,NaN,-0.309853,10.550070,-1.271653,0.076662,1.782199,0.667468,-0.098653,0.161352,1.168969,0.578189,0.557139,-0.470184,-0.366362,93.643010,-7.786454,-73.015924
16878,NaN,0.719478,10.304824,-0.981292,0.094617,0.815419,0.531141,-0.085141,0.003672,1.228725,0.580659,0.553984,-0.473472,-0.362989,93.602618,-8.491983,-73.062992
16879,NaN,0.916095,9.869332,-1.220601,0.392036,0.765402,0.136793,-0.012102,-0.069382,1.184842,0.582656,0.550994,-0.476960,-0.359758,93.610692,-9.169654,-73.149814
16880,NaN,1.337297,9.639125,-2.178955,1.411555,0.728789,0.032329,0.089164,-0.086068,1.120569,0.584197,0.548405,-0.480487,-0.356508,93.679156,-9.809697,-73.244802
16881,NaN,2.110274,9.650293,-2.652069,2.038408,0.242314,0.207297,0.104300,0.020222,1.085570,0.585873,0.546116,-0.483619,-0.353020,93.746331,-10.433774,-73.277443
16882,NaN,1.583710,9.597006,-2.569199,1.777629,0.806701,0.056444,0.063417,0.202522,1.055038,0.588029,0.544088,-0.486045,-0.349213,93.770651,-11.046867,-73.203417
16883,NaN,-1.477317,8.756052,-1.749696,0.198561,3.389675,-1.423268,-0.049243,0.412420,0.918265,0.590748,0.542412,-0.487274,-0.345500,93.704468,-11.589924,-73.001408
16884,NaN,-5.230406,6.857312,-0.425518,-1.932242,6.230259,-4.154865,-0.150019,0.542496,0.636415,0.593555,0.541340,-0.487168,-0.342507,93.561228,-11.975702,-72.711646
16885,NaN,-7.579572,5.486512,0.040946,-2.923032,8.049717,-6.042913,-0.113506,0.549141,0.251022,0.595614,0.541316,-0.486056,-0.340544,93.433387,-12.141112,-72.402969
16886,NaN,-6.760630,5.603167,0.284828,-2.955831,7.223344,-5.779201,-0.001120,0.404383,-0.118089,0.596380,0.542280,-0.484561,-0.339801,93.384847,-12.089012,-72.165742
16887,NaN,-5.946697,5.841067,0.025472,-2.515297,6.569974,-5.341619,0.002314,0.373293,-0.485010,0.596438,0.544080,-0.482170,-0.340221,93.339901,-11.826811,-71.934312
16888,NaN,-6.438050,6.448997,-0.213058,-2.526019,7.172985,-4.787707,0.013827,0.375824,-0.830136,0.595870,0.546751,-0.478838,-0.341638,93.300611,-11.365603,-71.690098
16889,NaN,-6.081345,6.952670,-0.118030,-2.572841,6.837451,-4.158917,0.048810,0.278688,-1.126084,0.594457,0.550047,-0.475040,-0.344102,93.292545,-10.733324,-71.493337
16890,NaN,-5.203139,7.481900,-0.042448,-2.425206,5.998942,-3.395290,0.057633,0.155721,-1.400090,0.592225,0.553795,-0.470840,-0.347693,93.303374,-9.938240,-71.359154
16891,NaN,-4.344817,7.797551,0.051531,-2.259338,5.111227,-2.852024,0.069775,0.072814,-1.645896,0.589309,0.557971,-0.466208,-0.352183,93.329551,-9.001873,-71.265070
16892,NaN,-3.516628,8.297035,-0.110235,-1.865981,4.328890,-2.131795,0.048891,0.054372,-1.854291,0.585989,0.562507,-0.460965,-0.357371,93.346047,-7.943299,-71.174275
16893,NaN,-2.776381,8.720590,-0.339022,-1.415666,3.608717,-1.515570,0.046868,0.091892,-2.009511,0.582436,0.567399,-0.455140,-0.362869,93.359508,-6.799651,-71.056813
16894,NaN,-1.807505,9.300395,-0.737242,-0.736042,2.711441,-0.734640,0.088202,0.194172,-2.121417,0.578725,0.572802,-0.448713,-0.368282,93.392400,-5.592786,-70.876234
16895,NaN,-0.762148,9.848730,-1.068408,-0.080032,1.684306,-0.021225,0.117595,0.375743,-2.202596,0.575127,0.578727,-0.441542,-0.373287,93.436526,-4.348515,-70.588498
16896,NaN,0.378339,10.195320,-1.083823,0.342875,0.425814,0.432279,0.146201,0.610574,-2.245392,0.571801,0.585204,-0.433554,-0.377638,93.494643,-3.085317,-70.163747
16897,NaN,1.360340,10.255941,-1.033043,0.691277,-0.724647,0.535975,0.173444,0.883663,-2.266449,0.568876,0.592225,-0.424728,-0.381124,93.570760,-1.823048,-69.581280
16898,NaN,2.035631,10.179477,-1.146223,1.114399,-1.525355,0.458959,0.219862,1.140460,-2.254246,0.566284,0.599763,-0.415216,-0.383670,93.683397,-0.575232,-68.850406
16899,NaN,2.673915,10.383494,-1.182346,1.447522,-2.307130,0.624870,0.302725,1.359719,-2.176323,0.563966,0.607684,-0.405423,-0.385090,93.858832,0.615150,-67.994456
16900,NaN,3.294441,10.640452,-1.021060,1.604833,-3.137424,0.802981,0.330566,1.492697,-2.048085,0.561977,0.615591,-0.395618,-0.385637,94.069330,1.726677,-67.063084
16901,NaN,4.118291,10.686949,-0.497185,1.542039,-4.273590,0.712191,0.287688,1.416534,-1.927874,0.560126,0.622887,-0.386268,-0.386095,94.270624,2.766728,-66.176068
16902,NaN,5.830015,10.273939,0.346721,1.594997,-6.301273,0.056912,0.277362,1.187029,-1.803730,0.558019,0.629399,-0.377864,-0.386898,94.474541,3.745022,-65.421106
16903,NaN,6.985841,9.982669,0.918130,1.680858,-7.698327,-0.474314,0.373630,0.979416,-1.674577,0.555417,0.635458,-0.370603,-0.387762,94.736775,4.653743,-64.786475
16904,NaN,9.649582,11.807393,2.429566,1.466099,-11.073321,0.848412,0.551144,0.651735,-1.445039,0.552034,0.640903,-0.365286,-0.388675,95.093472,5.445853,-64.345033
16905,NaN,14.657310,13.511252,2.233007,3.789395,-15.814341,1.931332,0.409715,0.204501,-0.742718,0.549636,0.643770,-0.363171,-0.389316,95.344933,5.856421,-64.192384
16906,NaN,22.035952,14.454153,3.215825,6.026714,-23.024596,1.951372,0.410978,-0.186494,0.048391,0.548054,0.644438,-0.364672,-0.389039,95.570723,5.837286,-64.305364
16907,NaN,25.573053,14.475982,1.823211,8.629766,-25.619264,1.850523,0.364396,-0.585946,0.896160,0.547536,0.642640,-0.369905,-0.387800,95.743143,5.356888,-64.695430
16908,NaN,11.186013,12.237453,2.204576,2.085227,-12.500579,1.101838,0.105977,-0.506411,0.977454,0.548139,0.640115,-0.374674,-0.386544,95.774398,4.825371,-65.045322
16909,NaN,-5.355744,8.836938,2.282923,-4.809422,2.876135,-0.835811,-0.142915,-0.236129,0.384731,0.548885,0.638532,-0.376312,-0.386511,95.680968,4.617015,-65.205993
16910,NaN,-12.763007,7.317885,0.906382,-6.567890,10.349203,-1.625863,0.063171,-0.080287,0.152458,0.548822,0.638245,-0.377184,-0.386225,95.713882,4.530987,-65.264269
16911,NaN,-13.739386,10.102737,-0.704528,-5.686355,11.603392,1.338934,0.324426,-0.133699,0.392261,0.548280,0.638123,-0.379465,-0.384960,95.893521,4.312617,-65.367027
16912,NaN,-8.008972,11.846068,-2.816830,-1.523326,7.121033,2.811792,0.354459,-0.418662,0.574549,0.547449,0.637179,-0.383162,-0.384044,96.077800,4.007444,-65.644179
16913,NaN,-1.210164,11.139741,-3.511716,1.904074,1.341678,1.696630,0.488684,-0.480275,0.691571,0.546283,0.636249,-0.387651,-0.382739,96.338089,3.640788,-65.964836
16914,NaN,1.400899,10.539613,-1.967474,1.530904,-1.556969,0.777330,0.455640,-0.446617,0.689305,0.545271,0.635282,-0.391967,-0.381389,96.582319,3.274642,-66.267610
16915,NaN,5.844964,10.628418,-1.896311,3.169037,-5.624851,0.629560,0.413460,-0.142698,0.538728,0.544691,0.635065,-0.394890,-0.379559,96.814301,2.975153,-66.388547
16916,NaN,10.800986,11.748348,-1.342603,4.485521,-10.456163,1.458332,0.320106,0.079716,0.396577,0.544574,0.635288,-0.396577,-0.377591,96.999910,2.741323,-66.374094
16917,NaN,5.859824,11.695725,1.207478,0.175635,-6.895302,1.368065,-0.065479,0.643343,0.307185,0.546623,0.635699,-0.395711,-0.374837,96.979732,2.519324,-66.032850
16918,NaN,-1.846860,8.242950,-1.583845,-0.084484,1.588939,-1.366754,-0.088412,0.657212,0.094169,0.548372,0.636482,-0.394087,-0.372658,96.946133,2.416756,-65.668932
16919,NaN,-2.737217,8.226585,-2.327085,0.202000,2.706766,-1.256000,0.272955,0.319856,0.021895,0.548162,0.637770,-0.393825,-0.371040,97.111607,2.379436,-65.491992
16920,NaN,-2.549675,10.341401,-1.463911,-0.741131,1.993149,0.726117,0.372989,0.054232,0.125909,0.547304,0.638627,-0.394809,-0.369782,97.327500,2.300757,-65.473872
16921,NaN,-1.463684,10.925751,-1.431675,-0.413714,0.946497,1.255148,0.207019,-0.161025,0.252280,0.546780,0.638385,-0.396474,-0.369196,97.443358,2.166848,-65.587616
16922,NaN,-0.377443,9.810023,-1.794062,0.446753,0.216772,0.154810,0.249295,-0.317603,0.303453,0.545905,0.637861,-0.398810,-0.368880,97.580099,2.015188,-65.794546
16923,NaN,0.715071,9.702650,-1.411862,0.523307,-0.914334,-0.038431,0.328830,-0.276849,0.264948,0.544779,0.637705,-0.401052,-0.368382,97.764021,1.883516,-65.975714
16924,NaN,0.710729,9.785887,-1.659268,0.699467,-0.810588,0.080517,0.258257,-0.083365,0.242724,0.544227,0.637751,-0.402568,-0.367464,97.911253,1.749172,-66.045703
16925,NaN,0.294699,9.551777,-2.216451,1.032230,-0.176002,-0.058745,0.183436,0.148715,0.232789,0.544357,0.638042,-0.403279,-0.365985,98.019856,1.602888,-65.983380
16926,NaN,0.173836,9.748468,-1.746279,0.505989,-0.251265,0.076350,0.191013,0.300604,0.254949,0.544810,0.638580,-0.403663,-0.363941,98.134694,1.430943,-65.837023
16927,NaN,-0.308886,10.251015,-1.286695,-0.198449,-0.015426,0.521458,0.196175,0.334460,0.276549,0.545349,0.639151,-0.404027,-0.361722,98.252590,1.244427,-65.673501
16928,NaN,-0.681201,10.312603,-1.273603,-0.404722,0.335971,0.587268,0.188312,0.279623,0.300679,0.545846,0.639545,-0.404606,-0.359622,98.364608,1.047696,-65.543543
16929,NaN,-0.551586,10.140167,-1.302769,-0.336772,0.265678,0.416697,0.194986,0.188653,0.304414,0.546139,0.639787,-0.405451,-0.357792,98.479298,0.856974,-65.465777
16930,NaN,-0.123368,9.952274,-1.404622,-0.075156,-0.046152,0.238584,0.184772,0.142857,0.302676,0.546369,0.639917,-0.406398,-0.356128,98.587359,0.670266,-65.414266
16931,NaN,0.045264,9.898731,-1.638732,0.182372,-0.077788,0.218909,0.176455,0.138192,0.300673,0.546608,0.640021,-0.407333,-0.354504,98.690631,0.485712,-65.365494
16932,NaN,0.064222,9.888352,-1.839256,0.342307,0.011003,0.239629,0.165900,0.163379,0.306127,0.546942,0.640124,-0.408199,-0.352802,98.787617,0.295080,-65.303333
16933,NaN,-0.043634,9.947703,-1.879256,0.296511,0.145475,0.305667,0.143481,0.171274,0.304643,0.547357,0.640183,-0.408995,-0.351125,98.871737,0.105207,-65.236797
16934,NaN,-0.060166,9.868994,-1.849996,0.247669,0.178659,0.223736,0.121434,0.160786,0.306884,0.547826,0.640154,-0.409790,-0.349517,98.942853,-0.085804,-65.176732
16935,NaN,-0.031771,9.790660,-1.695342,0.107377,0.119306,0.122420,0.104956,0.166906,0.309320,0.548359,0.640086,-0.410542,-0.347918,99.004467,-0.278099,-65.113563
16936,NaN,0.140517,9.759786,-1.606389,0.080845,-0.045368,0.078973,0.099924,0.194452,0.320689,0.548986,0.640024,-0.411248,-0.346206,99.062750,-0.480073,-65.036108
16937,NaN,0.195755,9.817331,-1.415618,-0.099239,-0.150390,0.106471,0.103917,0.225293,0.338182,0.549689,0.639990,-0.411928,-0.344341,99.123014,-0.694115,-64.942916
16938,NaN,0.088099,9.932909,-1.363409,-0.234374,-0.051474,0.210866,0.109076,0.252903,0.351491,0.550455,0.639985,-0.412584,-0.342335,99.185538,-0.919003,-64.835620
16939,NaN,-0.039192,9.967712,-1.372449,-0.313277,0.096990,0.243790,0.118055,0.246621,0.377034,0.551217,0.639940,-0.413349,-0.340262,99.253024,-1.157182,-64.734392
16940,NaN,-0.028796,9.924270,-1.455085,-0.257704,0.157955,0.213164,0.119805,0.231916,0.397225,0.551978,0.639827,-0.414223,-0.338172,99.321159,-1.406222,-64.643694
16941,NaN,-0.101287,9.839153,-1.618280,-0.160261,0.332081,0.152345,0.116647,0.203217,0.429524,0.552738,0.639589,-0.415269,-0.336092,99.387759,-1.670272,-64.572446
16942,NaN,0.051668,9.804051,-1.724823,-0.025221,0.278604,0.138124,0.115231,0.183446,0.454178,0.553502,0.639256,-0.416446,-0.334006,99.453484,-1.947143,-64.515052
16943,NaN,0.105510,9.764303,-1.766266,0.010148,0.288723,0.106424,0.104188,0.162286,0.474518,0.554285,0.638814,-0.417723,-0.331954,99.513280,-2.232915,-64.471774
16944,NaN,0.155481,9.820321,-1.885351,0.097352,0.334718,0.182095,0.086551,0.139850,0.499469,0.555117,0.638225,-0.419112,-0.329936,99.563232,-2.531332,-64.443882
16945,NaN,0.307623,9.728967,-1.961284,0.216012,0.277096,0.110537,0.066940,0.113975,0.511541,0.555971,0.637513,-0.420574,-0.328009,99.602706,-2.833487,-64.431942
16946,NaN,0.501039,9.687445,-1.780679,0.118107,0.070708,0.048817,0.054721,0.094717,0.524261,0.556844,0.636702,-0.422109,-0.326129,99.635621,-3.141610,-64.432365
16947,NaN,0.553570,9.793855,-1.764567,0.080313,0.060077,0.153728,0.039680,0.086857,0.533099,0.557755,0.635815,-0.423664,-0.324281,99.660369,-3.453351,-64.438178
16948,NaN,0.470953,9.844335,-1.854141,0.088093,0.220479,0.212977,0.025992,0.087058,0.543009,0.558724,0.634861,-0.425227,-0.322429,99.677239,-3.771320,-64.445010
16949,NaN,0.577237,9.926279,-1.642435,-0.094648,0.080798,0.264319,0.019512,0.082356,0.548547,0.559706,0.633868,-0.426805,-0.320590,99.690787,-4.091349,-64.455064
16950,NaN,0.777619,9.937022,-1.524526,-0.140611,-0.100747,0.269132,0.005057,0.057268,0.555093,0.560689,0.632773,-0.428449,-0.318838,99.697092,-4.413251,-64.480078
16951,NaN,0.919257,9.824687,-1.535664,-0.074193,-0.172269,0.171917,-0.003793,0.046163,0.558900,0.561675,0.631624,-0.430117,-0.317130,99.699122,-4.735632,-64.511728
16952,NaN,0.969668,9.711821,-1.596863,-0.001696,-0.140312,0.076182,-0.009639,0.042187,0.562579,0.562675,0.630437,-0.431797,-0.315431,99.698074,-5.060305,-64.546062
16953,NaN,0.963653,9.717067,-1.732309,0.090579,-0.024918,0.104057,-0.012555,0.054258,0.561688,0.563702,0.629261,-0.433429,-0.313703,99.695049,-5.385042,-64.573413
16954,NaN,0.882940,9.956064,-1.736050,-0.010654,0.104960,0.331534,-0.017855,0.077527,0.583885,0.564829,0.628050,-0.435057,-0.311845,99.687945,-5.725163,-64.589752
16955,NaN,0.876929,10.221585,-1.684340,-0.134724,0.149310,0.581832,-0.042220,0.098365,0.604323,0.566101,0.626755,-0.436645,-0.309917,99.666086,-6.078238,-64.596107
16956,NaN,0.794095,10.431247,-1.684625,-0.234609,0.291141,0.776895,-0.068769,0.128663,0.636485,0.567569,0.625353,-0.438205,-0.307855,99.627368,-6.452979,-64.588220
16957,NaN,0.765598,10.598352,-1.546444,-0.425884,0.329623,0.911686,-0.082846,0.153925,0.689830,0.569210,0.623828,-0.439831,-0.305593,99.579555,-6.859678,-64.570756
16958,NaN,0.731182,10.734503,-1.406706,-0.615815,0.380142,1.014070,-0.114264,0.178673,0.746639,0.571084,0.622115,-0.441512,-0.303154,99.512354,-7.301364,-64.544255
16959,NaN,0.586889,10.743175,-1.463360,-0.653843,0.619084,1.008135,-0.143569,0.181358,0.810855,0.573141,0.620173,-0.443331,-0.300586,99.428810,-7.779005,-64.521677
16960,NaN,0.522070,10.669534,-1.639748,-0.535918,0.843830,0.948364,-0.174291,0.172592,0.884518,0.575376,0.617952,-0.445351,-0.297894,99.328867,-8.297935,-64.510275
16961,NaN,0.746274,10.682137,-1.554029,-0.545164,0.705917,0.970795,-0.182743,0.140731,0.965706,0.577671,0.615467,-0.447688,-0.295080,99.227846,-8.859307,-64.523717
16962,NaN,1.079625,10.770702,-1.366559,-0.615767,0.438054,1.071657,-0.204530,0.112024,1.019815,0.580036,0.612736,-0.450233,-0.292238,99.117553,-9.449125,-64.557595
16963,NaN,1.302464,10.886396,-1.451161,-0.500777,0.400389,1.228309,-0.224074,0.127189,1.061255,0.582536,0.609863,-0.452817,-0.289267,98.995557,-10.063386,-64.585395
16964,NaN,1.318664,10.669414,-1.675164,-0.278862,0.585947,1.048210,-0.246386,0.162352,1.093488,0.585215,0.606881,-0.455352,-0.286135,98.857515,-10.699473,-64.594503
16965,NaN,1.323955,10.560797,-1.607322,-0.341546,0.660781,0.925664,-0.237132,0.217599,1.117441,0.588004,0.603934,-0.457795,-0.282736,98.719087,-11.353585,-64.572342
16966,NaN,1.171416,10.650172,-1.434315,-0.607955,0.849671,0.946623,-0.219552,0.287260,1.115926,0.590879,0.601116,-0.460039,-0.279079,98.581767,-12.013134,-64.508077
16967,NaN,0.763419,11.399535,-0.903940,-1.447407,1.186630,1.494156,-0.190049,0.340668,1.148128,0.593810,0.598368,-0.462245,-0.275091,98.454411,-12.694968,-64.413929
16968,NaN,0.666429,12.184045,-0.563630,-2.005106,1.361090,2.159684,-0.208172,0.342152,1.259089,0.596930,0.595284,-0.464736,-0.270799,98.316832,-13.439863,-64.326503
16969,NaN,0.132680,12.687646,-0.245953,-2.670227,1.916262,2.444946,-0.244636,0.341163,1.390746,0.600303,0.591758,-0.467549,-0.266189,98.159689,-14.258857,-64.248579
16970,NaN,-0.321799,13.179473,0.028265,-3.267570,2.444523,2.723129,-0.271037,0.300582,1.524373,0.603804,0.587751,-0.470816,-0.261344,97.994155,-15.150260,-64.202776
16971,NaN,0.048032,13.486955,0.602116,-3.743630,2.112454,2.985018,-0.311839,0.235614,1.666829,0.607416,0.583162,-0.474614,-0.256339,97.817509,-16.117163,-64.204073
16972,NaN,-0.023545,14.064455,1.234790,-4.524634,2.217907,3.375839,-0.401231,0.200655,1.799328,0.611329,0.577894,-0.478749,-0.251226,97.597170,-17.156466,-64.232990
16973,NaN,-0.375353,14.377884,1.660017,-5.175809,2.642865,3.447769,-0.481964,0.170579,1.926486,0.615504,0.571985,-0.483200,-0.245980,97.338709,-18.266017,-64.285625
16974,NaN,-0.931283,14.791315,2.066821,-5.916484,3.303748,3.528761,-0.572800,0.121390,2.066433,0.619928,0.565335,-0.488034,-0.240640,97.039751,-19.451406,-64.372655
16975,NaN,-1.467191,15.220110,2.320474,-6.513229,4.059761,3.613955,-0.673832,0.044683,2.233612,0.624571,0.557802,-0.493400,-0.235212,96.703344,-20.727494,-64.512413
16976,NaN,-1.775562,15.651865,2.009259,-6.516919,4.928381,3.803416,-0.747633,-0.058074,2.412400,0.629288,0.549394,-0.499418,-0.229664,96.351630,-22.098629,-64.719865
16977,NaN,-1.889157,16.395644,1.245262,-6.119593,5.981215,4.354011,-0.835223,-0.181453,2.596233,0.634035,0.540013,-0.506149,-0.224051,95.987058,-23.568870,-65.009291
16978,NaN,-1.694678,16.913037,-0.638362,-4.547973,7.268757,4.877150,-0.852238,-0.335329,2.756698,0.638496,0.529896,-0.513670,-0.218350,95.659750,-25.121943,-65.397922
16979,NaN,-2.264552,16.650163,-3.180166,-2.464281,9.219720,4.377932,-0.795322,-0.390199,2.838255,0.642612,0.519573,-0.521544,-0.212333,95.391695,-26.721599,-65.823329
16980,NaN,-2.487616,16.283102,-4.973395,-0.871566,10.462807,3.818623,-0.726672,-0.327400,2.907675,0.646646,0.509245,-0.529339,-0.205714,95.154799,-28.364013,-66.209537
16981,NaN,-1.790951,16.099873,-6.225868,0.513688,10.765818,3.788347,-0.647471,-0.255084,3.007361,0.650618,0.498860,-0.537125,-0.198320,94.953755,-30.070096,-66.554248
16982,NaN,-1.877515,15.300171,-6.406906,0.823709,10.945364,2.763895,-0.568492,-0.126646,3.040574,0.654617,0.488660,-0.544511,-0.190252,94.762483,-31.799962,-66.813533
16983,NaN,-1.594887,13.629431,-6.390924,1.319679,10.296856,1.204016,-0.388833,-0.046024,2.999932,0.658202,0.479111,-0.551592,-0.181572,94.650826,-33.513423,-67.016375
16984,NaN,-1.101556,11.212807,-6.326416,2.046035,9.011292,-0.781334,-0.069621,-0.047989,2.941152,0.660816,0.470681,-0.558690,-0.172185,94.727165,-35.190274,-67.219683
16985,NaN,-0.394819,9.802869,-6.028616,2.324986,7.860034,-1.725362,0.279368,-0.233050,2.821414,0.661851,0.463465,-0.566316,-0.162603,95.088532,-36.792054,-67.559321
16986,NaN,0.870356,8.608873,-3.915655,1.071146,5.572692,-2.197159,0.371215,-0.461409,2.694453,0.661789,0.456654,-0.574352,-0.153696,95.618298,-38.303595,-68.076621
16987,NaN,3.688798,6.037038,-2.270304,1.131573,1.591205,-2.643849,0.324464,-0.539184,2.578517,0.661403,0.449859,-0.582254,-0.145437,96.180889,-39.743927,-68.672143
16988,NaN,5.881127,4.218999,-2.705827,2.634872,-0.675029,-2.580195,0.326323,-0.454255,2.018653,0.660755,0.444717,-0.588520,-0.138833,96.701708,-40.862933,-69.185348
16989,NaN,1.770649,5.154091,-0.642637,-0.719540,1.968828,-4.741372,0.264450,-0.153709,1.487092,0.660708,0.441086,-0.592533,-0.133467,97.024193,-41.700801,-69.441924
16990,NaN,0.178248,2.848776,-0.095251,-0.853746,1.566324,-7.582430,-0.324533,-0.017644,0.954920,0.661975,0.437179,-0.594490,-0.131318,96.911644,-42.241534,-69.548831
16991,NaN,1.859204,3.775977,-1.047498,0.129483,1.365206,-5.697925,-0.600036,0.168641,0.297848,0.663960,0.434407,-0.594217,-0.131733,96.503501,-42.424769,-69.450788
16992,NaN,-1.300572,1.409127,-1.315829,0.375746,2.279716,-9.547664,-0.916790,0.377160,-0.481608,0.666720,0.433048,-0.591324,-0.135241,95.760605,-42.172341,-69.124574
16993,NaN,-6.541096,1.957256,-0.789341,-1.694987,6.017942,-12.667587,-1.022735,1.052594,-1.366573,0.671069,0.434360,-0.584167,-0.140522,94.579043,-41.449424,-68.228749
16994,NaN,-8.254664,1.616202,-0.971309,-1.996664,7.109483,-13.955277,-0.865234,1.409609,-1.815572,0.675715,0.437731,-0.574859,-0.146076,93.326333,-40.466031,-67.070920
16995,NaN,-7.670449,1.545356,-0.202865,-2.622219,6.363484,-13.539923,-0.577534,1.274864,-2.078594,0.679053,0.442643,-0.565568,-0.151944,92.340874,-39.315313,-66.047763
16996,NaN,-5.050953,2.675807,0.254989,-2.629520,4.966556,-10.887125,-0.391575,1.018431,-2.294047,0.680976,0.448555,-0.556706,-0.158583,91.618092,-38.020273,-65.246567
16997,NaN,-3.395336,3.568860,1.348262,-3.349397,3.780018,-9.054923,-0.256781,0.817092,-2.636340,0.681653,0.455615,-0.547787,-0.166414,91.091765,-36.524020,-64.617709
16998,NaN,-2.861538,4.054185,2.062413,-3.934953,3.290841,-8.211883,-0.248611,0.662738,-3.052814,0.681385,0.463642,-0.538314,-0.175981,90.662086,-34.779091,-64.121101
16999,NaN,-2.127308,4.631527,2.317401,-4.020439,2.854887,-7.161388,-0.264333,0.592349,-3.509142,0.680379,0.472625,-0.527877,-0.187234,90.276447,-32.774173,-63.696943
17000,NaN,-1.875894,5.544302,2.393645,-4.160098,2.957746,-6.080648,-0.256534,0.585572,-3.923552,0.678698,0.482580,-0.516281,-0.199850,89.924076,-30.524714,-63.301428
17001,NaN,-1.745129,6.525510,1.952040,-3.851089,3.338659,-4.969837,-0.236779,0.589836,-4.252917,0.676369,0.493224,-0.503697,-0.213412,89.607740,-28.089477,-62.929024
17002,NaN,-1.881052,7.569461,1.572699,-3.672032,3.842818,-3.892664,-0.109771,0.501055,-4.496604,0.672906,0.504602,-0.490677,-0.227619,89.414331,-25.508512,-62.634936
17003,NaN,-1.463968,8.737839,0.684537,-2.791112,4.091634,-2.435983,0.007141,0.426879,-4.607938,0.668496,0.516272,-0.477528,-0.241956,89.324720,-22.868718,-62.402214
17004,NaN,-0.630789,10.161819,0.399248,-2.253023,3.692093,-0.588088,0.117854,0.371074,-4.669264,0.663221,0.528138,-0.464254,-0.256273,89.323853,-20.188589,-62.210248
17005,NaN,0.874609,12.060891,0.406761,-1.669507,2.589726,1.886664,0.113465,0.373514,-4.672057,0.657606,0.539683,-0.450733,-0.270436,89.329319,-17.512263,-62.020777
17006,NaN,1.418010,13.242350,0.657142,-1.542174,1.823136,3.304832,0.096419,0.291552,-4.562097,0.651637,0.550551,-0.437483,-0.284380,89.347508,-14.893902,-61.880768
17007,NaN,1.435469,13.344773,0.869593,-1.464885,1.199008,3.502199,0.143262,0.079660,-4.464153,0.644894,0.560748,-0.425067,-0.298313,89.427627,-12.338684,-61.865243
17008,NaN,1.646275,13.212659,0.913685,-1.148132,0.435362,3.475773,0.349319,-0.223000,-4.385198,0.636719,0.570740,-0.413914,-0.312282,89.659120,-9.824423,-62.018222
17009,NaN,2.786853,13.768461,0.242067,0.146843,-0.715166,4.216962,0.573126,-0.402224,-4.338676,0.627311,0.580768,-0.403646,-0.325974,90.025538,-7.342057,-62.261457
17010,NaN,3.428954,14.679152,-0.245455,1.024975,-1.550054,5.147465,0.644103,-0.337185,-4.304957,0.617570,0.590800,-0.393160,-0.339099,90.416303,-4.871936,-62.448544
17011,NaN,4.187964,14.858455,-0.657074,1.939624,-2.640017,5.286142,0.651996,-0.136445,-4.325587,0.607883,0.600933,-0.381854,-0.351490,90.795114,-2.395699,-62.503894
17012,NaN,5.348403,14.699135,-1.567789,3.495799,-3.874434,5.014902,0.766303,0.102022,-4.337461,0.597980,0.611586,-0.369770,-0.362839,91.233920,0.090743,-62.403864
17013,NaN,7.331564,15.216223,-2.492583,5.426520,-5.824793,5.289632,0.893683,0.288109,-4.285900,0.587852,0.622546,-0.357374,-0.373029,91.752900,2.538467,-62.178119
17014,NaN,9.204091,15.739093,-2.752031,6.725991,-7.988683,5.382866,0.921822,0.361174,-4.108186,0.577810,0.633137,-0.345172,-0.382269,92.301565,4.885801,-61.890021
17015,NaN,10.490246,15.938655,-2.110810,6.954440,-10.004173,5.021363,0.878969,0.242580,-3.867830,0.567930,0.642679,-0.333877,-0.391081,92.831543,7.090741,-61.654029
17016,NaN,11.733466,15.732706,-1.264226,6.955830,-11.976246,4.149220,0.860513,0.112351,-3.585304,0.558222,0.651222,-0.323676,-0.399415,93.351088,9.140142,-61.479954
17017,NaN,12.734909,15.043088,-0.820917,7.141158,-13.386852,2.793148,0.902863,-0.034567,-3.245608,0.548657,0.658822,-0.315000,-0.407068,93.886839,10.994625,-61.384287
17018,NaN,13.514628,14.405212,-1.143354,7.830145,-14.167945,1.562372,1.016251,-0.243448,-2.859346,0.539022,0.665541,-0.308298,-0.414080,94.466282,12.639469,-61.407477
17019,NaN,14.288440,14.088515,-1.669526,8.637502,-14.851431,0.686793,1.078339,-0.397111,-2.413519,0.529769,0.671274,-0.303580,-0.420208,95.058475,14.033843,-61.526073
17020,NaN,14.951472,13.971519,-2.019337,9.198247,-15.512211,0.065352,0.984049,-0.444403,-1.894217,0.521763,0.675779,-0.300474,-0.425209,95.583630,15.137833,-61.687255
17021,NaN,15.268085,13.587627,-1.672496,8.957165,-16.045865,-0.711760,0.787574,-0.307290,-1.327526,0.515794,0.679142,-0.298493,-0.428515,96.008266,15.909821,-61.792976
17022,NaN,15.644882,13.088449,-1.397326,8.827409,-16.470874,-1.517685,0.530401,0.032615,-0.806721,0.512293,0.681768,-0.296834,-0.429694,96.332938,16.365988,-61.725368
17023,NaN,14.850740,13.201221,-2.163051,9.153496,-15.538921,-1.195797,0.483548,0.501546,-0.264377,0.510810,0.684460,-0.295723,-0.427943,96.699849,16.481401,-61.413488
17024,NaN,15.202332,13.575043,-0.372371,7.779012,-16.717693,-1.121546,0.363357,0.965670,0.298789,0.511617,0.686992,-0.295091,-0.423333,97.064311,16.242644,-60.866052
17025,NaN,15.381752,11.717673,0.798733,6.868145,-16.744871,-2.958987,-0.163119,1.039827,0.845595,0.515482,0.687501,-0.295022,-0.417832,97.123521,15.685845,-60.317067
17026,NaN,9.015724,10.890245,3.571221,1.466138,-12.353743,-2.205631,-0.207345,1.021510,1.066100,0.519909,0.687495,-0.295658,-0.411863,97.144218,15.003411,-59.797385
17027,NaN,-6.751064,11.683860,5.646457,-7.979953,-0.348865,2.441715,-0.337843,1.124675,0.675740,0.524104,0.687907,-0.294393,-0.406732,97.107306,14.536856,-59.189484
17028,NaN,-16.523940,8.969212,5.001382,-12.384760,8.820759,2.324534,-0.340838,0.779483,0.349341,0.527126,0.688062,-0.292902,-0.403629,97.020153,14.279411,-58.761223
17029,NaN,-16.139685,10.089843,0.424565,-8.287084,10.430714,3.788716,0.172389,0.219804,0.465173,0.527784,0.688265,-0.294308,-0.401395,97.142908,13.996955,-58.669905
17030,NaN,-6.337231,13.925474,-2.040762,-1.226075,2.534963,5.363394,0.433841,-0.149139,0.782236,0.527632,0.687938,-0.298302,-0.399202,97.357197,13.560135,-58.819233
17031,NaN,-1.428262,13.219161,-1.909890,1.013923,-1.333105,3.514968,0.427309,-0.437007,1.236545,0.527957,0.686321,-0.304592,-0.396798,97.522965,12.887617,-59.172194
17032,NaN,0.877965,12.033332,-0.305360,0.653092,-3.631430,1.678579,0.411375,-0.536714,1.255742,0.528201,0.684398,-0.311166,-0.394689,97.670114,12.212151,-59.585700
17033,NaN,0.690997,11.164021,-0.183082,0.351248,-3.220783,0.894689,0.301096,-0.555140,1.216448,0.528686,0.682177,-0.317419,-0.392900,97.757513,11.561776,-60.007074
17034,NaN,-0.943207,9.439452,-0.974183,0.194250,-0.962044,-0.327018,0.142814,-0.458355,1.030315,0.529483,0.679993,-0.322461,-0.391506,97.771983,11.009200,-60.357548
17035,NaN,-0.183189,7.369157,-2.909712,2.262572,-0.166399,-2.219447,0.069905,-0.300527,0.836842,0.530384,0.678222,-0.326273,-0.390197,97.768194,10.555011,-60.600873
17036,NaN,1.793413,7.113201,-4.386430,4.480728,-1.079084,-2.614557,0.256065,-0.013055,0.719125,0.530889,0.677682,-0.329285,-0.387912,97.903903,10.144644,-60.669308
17037,NaN,1.661486,9.640329,-3.968316,3.915844,-1.671275,-0.152645,0.228777,0.318837,0.708859,0.532000,0.677723,-0.331319,-0.384571,98.057828,9.714685,-60.546556
17038,NaN,-0.742923,10.620858,-3.019715,1.832935,-0.195813,1.099446,0.003271,0.423368,0.666960,0.533963,0.677420,-0.332500,-0.381351,98.091786,9.298866,-60.361294
17039,NaN,-2.091027,10.067428,-4.195509,2.181324,1.693133,0.943822,0.054559,0.142354,0.631687,0.535207,0.676773,-0.334399,-0.379090,98.128907,8.926675,-60.334887
17040,NaN,-0.893277,10.793962,-3.173577,1.792426,0.086631,1.329952,0.294688,-0.200515,0.679762,0.535153,0.676025,-0.337836,-0.377451,98.272767,8.554168,-60.509967
17041,NaN,-1.800999,11.269103,-0.427534,-1.120289,-0.458121,1.543087,0.104978,-0.295127,0.705847,0.535617,0.674540,-0.341244,-0.376380,98.300885,8.175978,-60.741669
17042,NaN,-1.170099,8.990498,-0.879184,-0.328231,-0.292727,-0.714477,0.086337,-0.316421,0.690256,0.536075,0.672978,-0.344624,-0.375445,98.318251,7.807430,-60.984358
17043,NaN,0.132691,9.061477,-1.360128,0.671834,-1.168625,-0.748443,0.305303,-0.301178,0.677981,0.535787,0.672046,-0.348320,-0.374112,98.463920,7.445959,-61.217445
17044,NaN,0.139057,10.648598,-1.220732,0.387950,-1.488244,0.795625,0.306990,-0.282879,0.689377,0.535541,0.671118,-0.352009,-0.372674,98.613071,7.075977,-61.441969
17045,NaN,-0.159184,10.679502,-1.397404,0.340194,-1.105751,0.896699,0.228965,-0.180748,0.676008,0.535700,0.670189,-0.355223,-0.371065,98.726068,6.706350,-61.607561
17046,NaN,-0.535108,10.209011,-1.710126,0.421631,-0.505894,0.531426,0.225196,-0.078358,0.631374,0.535968,0.669506,-0.358009,-0.369229,98.844879,6.352197,-61.711675
17047,NaN,-0.559606,10.192231,-1.783371,0.427790,-0.402298,0.532840,0.179189,-0.011379,0.619202,0.536478,0.668841,-0.360478,-0.367286,98.942198,6.000369,-61.776987
17048,NaN,-0.759127,9.999539,-1.868127,0.380655,-0.108524,0.380444,0.141595,0.059554,0.630429,0.537260,0.668175,-0.362729,-0.365133,99.022257,5.634737,-61.803646
17049,NaN,-0.832771,9.818983,-1.913959,0.360241,0.056603,0.219054,0.121324,0.144099,0.633283,0.538258,0.667600,-0.364714,-0.362728,99.095428,5.261105,-61.782799
17050,NaN,-0.603212,9.823007,-1.906537,0.419510,-0.096522,0.202529,0.109081,0.192874,0.628677,0.539376,0.667078,-0.366534,-0.360186,99.163849,4.884406,-61.734492
17051,NaN,-0.784722,9.965734,-1.938755,0.307244,0.110540,0.364906,0.066084,0.246497,0.632401,0.540732,0.666526,-0.368132,-0.357535,99.209788,4.501860,-61.656314
17052,NaN,-1.028613,9.634583,-2.050882,0.285802,0.479434,0.075560,0.045855,0.297765,0.615801,0.542217,0.666029,-0.369503,-0.354785,99.245869,4.122719,-61.548032
17053,NaN,-1.037009,9.432901,-1.842471,0.083159,0.472645,-0.157686,0.073128,0.317161,0.618515,0.543642,0.665632,-0.370868,-0.351915,99.297598,3.741387,-61.429163
17054,NaN,-0.946007,9.477094,-1.696214,-0.045283,0.371540,-0.145891,0.082826,0.286993,0.619779,0.544978,0.665194,-0.372338,-0.349114,99.352998,3.360840,-61.328095
17055,NaN,-0.959295,9.554337,-1.742017,-0.060183,0.446592,-0.064005,0.082847,0.234261,0.631433,0.546226,0.664638,-0.373979,-0.346457,99.406010,2.979724,-61.258186
17056,NaN,-0.707101,9.580164,-2.025963,0.264188,0.408032,-0.007209,0.100235,0.189118,0.645430,0.547353,0.664014,-0.375823,-0.343871,99.467194,2.593709,-61.215724
17057,NaN,-0.417299,9.749910,-1.850489,0.189145,0.105766,0.117662,0.096333,0.161856,0.660685,0.548459,0.663299,-0.377774,-0.341342,99.525129,2.202765,-61.190357
17058,NaN,-0.084846,9.835388,-1.678972,0.149025,-0.220588,0.161768,0.079518,0.135041,0.656728,0.549559,0.662489,-0.379759,-0.338934,99.572746,1.815436,-61.180323
17059,NaN,-0.024494,9.864539,-1.528950,0.005407,-0.291917,0.165379,0.063430,0.140384,0.654898,0.550710,0.661642,-0.381685,-0.336547,99.611139,1.429770,-61.167205
17060,NaN,-0.026315,9.918099,-1.544312,-0.027361,-0.232513,0.222206,0.055549,0.168444,0.648005,0.551927,0.660824,-0.383500,-0.334091,99.645295,1.044142,-61.138000
17061,NaN,0.001700,10.006736,-1.318217,-0.259498,-0.315992,0.272197,0.054703,0.185898,0.655436,0.553182,0.660013,-0.385279,-0.331561,99.678883,0.653779,-61.099700
17062,NaN,-0.010308,10.042100,-1.235189,-0.380135,-0.290782,0.293753,0.051050,0.188980,0.652996,0.554448,0.659191,-0.387037,-0.329024,99.710130,0.263312,-61.059827
17063,NaN,-0.044376,10.093343,-1.333757,-0.356525,-0.160336,0.360967,0.036083,0.183292,0.661101,0.555755,0.658299,-0.388802,-0.326514,99.732524,-0.130038,-61.023954
17064,NaN,-0.139073,10.110764,-1.446185,-0.345270,0.034940,0.396010,0.024417,0.166362,0.676065,0.557090,0.657305,-0.390646,-0.324032,99.748019,-0.531367,-60.999396
17065,NaN,-0.087400,10.119828,-1.504374,-0.308731,0.078673,0.413737,0.021022,0.145465,0.694577,0.558414,0.656228,-0.392592,-0.321575,99.761600,-0.939968,-60.988361
17066,NaN,-0.009649,10.103482,-1.563308,-0.255538,0.104504,0.407277,0.008546,0.130233,0.727809,0.559799,0.655013,-0.394671,-0.319090,99.768145,-1.366996,-60.989398
17067,NaN,-0.032545,10.155639,-1.616854,-0.267625,0.214311,0.465163,0.009837,0.118825,0.756728,0.561192,0.653721,-0.396866,-0.316560,99.775741,-1.808103,-60.999576
17068,NaN,0.178137,10.034793,-1.511303,-0.275204,0.055381,0.332928,-0.012475,0.107161,0.772932,0.562655,0.652302,-0.399112,-0.314056,99.770867,-2.258343,-61.018097
17069,NaN,0.272324,10.053965,-1.649114,-0.152090,0.110402,0.377508,-0.030264,0.102234,0.797055,0.564192,0.650771,-0.401410,-0.311537,99.756222,-2.720610,-61.041516
17070,NaN,0.293613,10.010246,-1.844224,-0.003954,0.262691,0.366841,-0.049473,0.101033,0.815256,0.565811,0.649132,-0.403740,-0.308998,99.730815,-3.194149,-61.067384
17071,NaN,0.573163,9.997374,-1.896110,0.141713,0.120554,0.377308,-0.065646,0.114553,0.823837,0.567510,0.647444,-0.406021,-0.306424,99.695998,-3.672752,-61.086042
17072,NaN,0.865267,10.004287,-1.774832,0.142747,-0.115722,0.382905,-0.088862,0.121813,0.817888,0.569283,0.645698,-0.408226,-0.303879,99.647638,-4.149796,-61.099832
17073,NaN,1.027036,9.949076,-1.723662,0.155131,-0.202268,0.333463,-0.120804,0.142234,0.807920,0.571172,0.643905,-0.410279,-0.301362,99.580149,-4.622087,-61.100466
17074,NaN,1.056939,9.940281,-1.638921,0.069246,-0.190326,0.315035,-0.133403,0.170584,0.800240,0.573143,0.642119,-0.412206,-0.298791,99.503922,-5.093830,-61.083854
17075,NaN,0.931371,10.024016,-1.463147,-0.185230,-0.087520,0.358183,-0.145376,0.185604,0.795378,0.575162,0.640325,-0.414044,-0.296211,99.419851,-5.563119,-61.057427
17076,NaN,0.694193,10.319523,-1.528520,-0.327518,0.235872,0.634669,-0.161914,0.181146,0.833360,0.577273,0.638382,-0.415990,-0.293559,99.326566,-6.054519,-61.036497
17077,NaN,0.598222,10.547457,-1.595216,-0.389250,0.444951,0.855075,-0.187705,0.178416,0.875715,0.579509,0.636263,-0.418027,-0.290847,99.218884,-6.568483,-61.020017
17078,NaN,0.570825,10.706737,-1.521643,-0.526060,0.533344,0.990707,-0.211536,0.176047,0.937218,0.581895,0.633925,-0.420228,-0.288002,99.098037,-7.118049,-61.009628
17079,NaN,0.632923,10.922889,-1.383373,-0.687987,0.524496,1.181596,-0.246571,0.181337,1.014782,0.584497,0.631318,-0.422592,-0.284986,98.957433,-7.710893,-61.001835
17080,NaN,0.470456,11.407108,-1.142121,-1.104059,0.685631,1.587197,-0.254928,0.188277,1.126179,0.587283,0.628436,-0.425268,-0.281626,98.812497,-8.368398,-60.998655
17081,NaN,0.105385,11.820703,-1.301366,-1.267787,1.240063,1.946847,-0.292052,0.186705,1.249546,0.590331,0.625162,-0.428262,-0.277982,98.647848,-9.094612,-61.005300
17082,NaN,-0.228922,11.977472,-1.474691,-1.356347,1.781432,2.047806,-0.334104,0.207962,1.375741,0.593706,0.621489,-0.431514,-0.273972,98.458479,-9.895066,-61.008476
17083,NaN,-0.178586,12.312710,-1.384196,-1.530251,1.893373,2.337251,-0.342176,0.252947,1.525245,0.597371,0.617499,-0.435057,-0.269384,98.261783,-10.783110,-60.995562
17084,NaN,-0.766460,12.204809,-1.426844,-1.805925,2.601482,2.084704,-0.390177,0.305331,1.647725,0.601426,0.613124,-0.438730,-0.264351,98.032626,-11.745580,-60.959152
17085,NaN,-1.286605,13.323400,-1.235166,-2.529448,3.278767,2.975615,-0.299465,0.407090,1.746633,0.605506,0.608895,-0.442482,-0.258493,97.843337,-12.771335,-60.867870
17086,NaN,-1.185901,14.348505,-0.267255,-3.621294,3.070470,3.781749,-0.360807,0.408362,1.997527,0.610044,0.603867,-0.446875,-0.251980,97.620463,-13.939823,-60.791543
17087,NaN,-1.178131,14.957808,0.749132,-4.714941,2.919648,4.148713,-0.491950,0.425936,2.227677,0.615231,0.597875,-0.451688,-0.244977,97.321409,-15.239498,-60.716702
17088,NaN,-1.880669,16.169781,1.859673,-6.376809,3.477109,4.873695,-0.571932,0.446773,2.457344,0.620896,0.591053,-0.456958,-0.237348,96.973532,-16.671008,-60.638341
17089,NaN,-3.020215,17.971369,3.404163,-8.769184,4.373309,5.923758,-0.733882,0.417985,2.704111,0.627151,0.583024,-0.462770,-0.229366,96.538347,-18.240221,-60.583828
17090,NaN,-3.923259,19.232118,4.337219,-10.396888,5.391761,6.523878,-0.981294,0.373840,2.936148,0.634155,0.573501,-0.469006,-0.221308,95.968034,-19.938062,-60.555806
17091,NaN,-4.075576,20.103659,4.857845,-11.216133,6.023743,6.987380,-1.169433,0.252216,3.147080,0.641475,0.562603,-0.475906,-0.213311,95.313684,-21.749197,-60.595323
17092,NaN,-3.394603,19.377016,3.890814,-9.964117,6.386900,6.374191,-1.251463,0.013456,3.306492,0.648442,0.550640,-0.483779,-0.205612,94.664264,-23.638809,-60.768588
17093,NaN,-2.359180,18.033460,0.106180,-5.978175,7.689523,5.545699,-1.150340,-0.292746,3.378747,0.654253,0.538340,-0.492805,-0.198205,94.153064,-25.558666,-61.119956
17094,NaN,-3.732131,16.885461,-4.930209,-1.995049,11.453056,3.904939,-0.893673,-0.447823,3.301028,0.658718,0.526754,-0.502217,-0.190786,93.836194,-27.428624,-61.555895
17095,NaN,-4.248639,16.136794,-7.139269,-0.139767,13.103031,2.744431,-0.718317,-0.462072,3.345173,0.662525,0.515461,-0.511823,-0.182752,93.638332,-29.326584,-62.002020
17096,NaN,-2.648739,14.815078,-7.965272,1.561155,12.115543,2.049190,-0.604848,-0.546131,3.405638,0.665681,0.504164,-0.521796,-0.174402,93.548135,-31.254820,-62.508162
17097,NaN,-1.793732,12.571795,-7.694951,2.257791,10.678167,0.254387,-0.342274,-0.593792,3.389401,0.667833,0.493581,-0.531973,-0.165475,93.646586,-33.174298,-63.057520
17098,NaN,-1.391874,9.811056,-7.033554,2.592005,9.023483,-2.097970,0.046615,-0.634199,3.255036,0.668613,0.484491,-0.542106,-0.156029,94.006242,-35.010700,-63.648805
17099,NaN,-0.883300,8.200805,-6.811412,3.000829,7.926518,-3.286528,0.444691,-0.798657,3.078286,0.667668,0.476941,-0.552543,-0.146437,94.691962,-36.737281,-64.381187
17100,NaN,-0.585882,7.172880,-5.361592,2.087877,6.619096,-4.123510,0.426754,-1.016213,2.738983,0.665753,0.470011,-0.562737,-0.138528,95.492284,-38.248086,-65.291336
17101,NaN,4.602139,5.190151,-3.066214,2.355850,0.907668,-2.661268,0.287414,-0.991059,2.455463,0.663911,0.463322,-0.571987,-0.131851,96.233684,-39.592148,-66.206578
17102,NaN,4.322971,4.924482,-2.761930,1.985815,0.913769,-3.046066,0.226535,-0.694859,1.907547,0.662598,0.458147,-0.578851,-0.126481,96.805756,-40.631920,-66.890081
17103,NaN,-0.325605,2.215876,0.397808,-1.251810,1.271723,-8.402025,-0.400789,-0.475054,1.389592,0.662981,0.452475,-0.583369,-0.124109,96.898523,-41.392396,-67.378820
17104,NaN,0.064068,3.681948,-0.813688,-0.592991,2.397867,-6.962871,-0.503958,-0.134338,0.657613,0.664107,0.448810,-0.585003,-0.123709,96.721848,-41.756424,-67.544861
17105,NaN,2.167841,1.167826,-2.841956,2.728203,0.443216,-7.263084,-0.897132,-0.155990,0.053896,0.665670,0.445563,-0.585113,-0.126490,96.295105,-41.779449,-67.673364
17106,NaN,-3.840056,1.727982,-1.833621,-0.067070,4.453869,-10.931899,-0.912429,0.526034,-0.893786,0.668636,0.445475,-0.580798,-0.130966,95.464958,-41.299958,-67.206930
17107,NaN,-7.946203,1.902359,-1.534970,-1.640094,7.278760,-13.479499,-1.105737,1.119859,-1.646765,0.673210,0.447256,-0.572657,-0.137167,94.214203,-40.416484,-66.260957
17108,NaN,-8.521170,0.600026,-1.985665,-1.109444,7.183940,-14.718847,-0.849450,1.335409,-2.002354,0.677479,0.451023,-0.563073,-0.143349,93.033898,-39.318658,-65.175703
17109,NaN,-7.305134,1.491342,-0.824151,-2.160765,6.341243,-13.186903,-0.581829,1.183420,-2.268635,0.680420,0.456241,-0.553516,-0.149978,92.115699,-38.053278,-64.237456
17110,NaN,-4.739356,2.393591,0.233461,-2.574040,4.545339,-10.791399,-0.413237,1.006072,-2.488658,0.682192,0.462451,-0.544072,-0.157289,91.410428,-36.644271,-63.461467
17111,NaN,-3.610984,3.871143,1.441000,-3.692363,3.932297,-8.811362,-0.279043,0.821082,-2.883618,0.682707,0.469929,-0.534356,-0.165956,90.891082,-35.004637,-62.844534
17112,NaN,-2.625058,4.757171,1.944443,-3.996751,3.363448,-7.360642,-0.290652,0.708220,-3.294986,0.682424,0.478278,-0.523894,-0.176303,90.439771,-33.119825,-62.331959
17113,NaN,-2.013969,5.464197,2.122617,-4.048255,3.064802,-6.258363,-0.316443,0.628724,-3.701512,0.681427,0.487355,-0.512559,-0.188215,90.031037,-31.003349,-61.900479
17114,NaN,-1.737871,6.112598,2.099358,-3.989973,3.020682,-5.369632,-0.345339,0.576022,-4.076163,0.679737,0.497080,-0.500243,-0.201557,89.651508,-28.664975,-61.530789
17115,NaN,-1.824153,6.794903,1.671211,-3.691946,3.400765,-4.608156,-0.276547,0.489849,-4.376579,0.677058,0.507451,-0.487336,-0.215846,89.362005,-26.157939,-61.242604
17116,NaN,-2.446683,7.849738,0.881494,-3.352077,4.456386,-3.707468,-0.058072,0.295114,-4.615021,0.672738,0.518699,-0.474445,-0.230818,89.268574,-23.509645,-61.094087
17117,NaN,-1.925169,9.423530,0.150392,-2.614192,4.654054,-1.811404,0.180763,0.086055,-4.698852,0.666850,0.530401,-0.462083,-0.245898,89.368109,-20.819904,-61.078899
17118,NaN,-1.002886,11.115317,-0.057964,-2.103857,4.147832,0.331544,0.298318,-0.092357,-4.724689,0.659823,0.542065,-0.450107,-0.261155,89.569735,-18.110866,-61.164363
17119,NaN,-0.165536,12.325199,-0.513681,-1.274364,3.535426,1.936798,0.282463,-0.256840,-4.697455,0.652150,0.553074,-0.438504,-0.276631,89.783179,-15.423173,-61.337279
17120,NaN,0.108700,13.032569,-0.559488,-0.958047,2.971002,2.852120,0.362473,-0.426769,-4.619847,0.643619,0.563660,-0.427509,-0.292024,90.056006,-12.773656,-61.595803
17121,NaN,0.322313,13.191102,-0.289749,-0.885702,2.143201,3.179026,0.527161,-0.647834,-4.548894,0.633922,0.573973,-0.417466,-0.307277,90.433514,-10.168609,-61.966473
17122,NaN,1.463386,13.563431,0.283205,-0.695681,0.362207,3.808651,0.758694,-0.825865,-4.502975,0.622905,0.584368,-0.408219,-0.322274,90.939747,-7.580014,-62.416558
17123,NaN,3.154597,14.275881,-0.078581,0.518346,-1.501836,4.719897,0.969727,-0.753278,-4.494950,0.611111,0.595180,-0.398921,-0.336401,91.538921,-4.998653,-62.797914
17124,NaN,4.416134,15.320500,-0.635889,1.686256,-2.973792,5.772315,1.009432,-0.415123,-4.481542,0.599552,0.606358,-0.388449,-0.349249,92.129474,-2.421526,-62.956303
17125,NaN,5.781368,15.864141,-1.321585,3.070623,-4.566530,6.203261,0.987264,0.015864,-4.485510,0.588589,0.617885,-0.376463,-0.360634,92.694642,0.143093,-62.842406
17126,NaN,7.298327,16.237641,-2.393862,4.916225,-6.130422,6.338270,0.925020,0.404821,-4.500953,0.578194,0.629654,-0.362940,-0.370814,93.235572,2.709355,-62.479916
17127,NaN,9.997745,17.460057,-2.583098,6.556083,-9.192049,7.037894,0.864184,0.703534,-4.429063,0.568378,0.641318,-0.348509,-0.379736,93.770852,5.215005,-61.924639
17128,NaN,12.071859,17.986630,-1.102851,6.518939,-12.394060,6.748997,0.750800,0.835096,-4.170124,0.559349,0.652160,-0.334118,-0.387532,94.274993,7.567139,-61.278503
17129,NaN,12.939711,16.269792,-0.372079,6.598801,-13.763762,4.302622,0.638021,0.714368,-3.868891,0.550846,0.661651,-0.320713,-0.394880,94.730360,9.742297,-60.693266
17130,NaN,13.941848,14.930201,-0.476315,7.404375,-14.744322,2.239256,0.809752,0.498591,-3.559494,0.541822,0.670462,-0.309125,-0.401685,95.283593,11.750350,-60.225412
17131,NaN,14.991820,14.605121,-0.936846,8.476930,-15.691951,1.178685,1.010926,0.379585,-3.153539,0.532603,0.678733,-0.299551,-0.407338,95.951945,13.524700,-59.825940
17132,NaN,15.323669,14.566768,-1.058944,8.858015,-16.189317,0.557623,0.984792,0.365288,-2.614280,0.524412,0.685946,-0.291704,-0.411557,96.611938,14.990908,-59.445397
17133,NaN,15.318545,14.184433,-1.049728,8.924318,-16.293608,-0.230483,0.783873,0.394334,-2.000778,0.518142,0.691678,-0.285442,-0.414285,97.162405,16.099456,-59.073592
17134,NaN,15.550986,15.535473,-1.921435,9.910018,-16.605556,0.813632,0.874041,0.704848,-1.137591,0.513738,0.696999,-0.281513,-0.413542,97.807028,16.692138,-58.571175
17135,NaN,18.192338,13.569461,2.125920,7.771760,-20.138250,-2.487507,0.175196,0.943792,-0.520680,0.513363,0.700112,-0.277670,-0.411341,98.082159,16.910482,-57.972425
17136,NaN,19.871120,12.937470,0.454342,10.236124,-20.399362,-3.368469,-0.015860,1.313575,0.117783,0.515464,0.702584,-0.274710,-0.406456,98.296257,16.734189,-57.207937
17137,NaN,19.093719,13.148896,1.228819,9.413133,-20.072573,-2.924493,-0.104050,1.672856,0.681852,0.519484,0.704740,-0.272610,-0.398951,98.500708,16.205347,-56.282453
17138,NaN,14.597467,11.536715,3.172573,5.560444,-16.805694,-3.263931,-0.409750,1.789317,1.121245,0.525570,0.705662,-0.271127,-0.390266,98.526804,15.414421,-55.331528
17139,NaN,-4.883489,10.263050,2.295923,-4.342360,-0.422441,0.930453,-0.435285,1.797804,0.761673,0.530994,0.706949,-0.268266,-0.382494,98.535866,14.827673,-54.347152
17140,NaN,-21.521117,9.563200,0.012020,-12.009692,14.060736,4.770479,-0.305903,1.446089,0.485641,0.534928,0.708214,-0.265600,-0.376487,98.564037,14.425051,-53.547225
17141,NaN,-20.095909,10.337260,-2.906768,-9.000405,14.308215,5.465342,0.335004,0.631959,0.506004,0.535519,0.709611,-0.266368,-0.372450,98.836516,14.081361,-53.226938
17142,NaN,-4.059875,15.991956,-0.232535,-1.914659,-1.217366,6.531379,0.534936,-0.165021,1.033060,0.535312,0.709335,-0.271508,-0.369551,99.097876,13.508395,-53.422013
17143,NaN,3.816481,14.131520,0.365803,1.960337,-7.072632,2.857304,0.372449,-0.758572,1.641340,0.535962,0.706663,-0.280075,-0.367329,99.177732,12.646619,-54.019622
17144,NaN,2.807060,12.701380,0.701961,0.927423,-5.948829,1.739133,0.210641,-0.672166,1.648273,0.537279,0.703642,-0.288118,-0.364977,99.183948,11.772507,-54.566702
17145,NaN,-2.185451,10.306767,-0.293192,-1.169104,-0.679564,0.640127,-0.043710,-0.398718,1.345515,0.539291,0.700831,-0.293874,-0.362821,99.089624,11.045332,-54.925407
17146,NaN,-1.798096,7.455896,-1.613980,0.151722,0.526205,-1.994245,-0.167125,-0.306161,1.053495,0.541327,0.698251,-0.298127,-0.361291,98.943344,10.473218,-55.201971
17147,NaN,5.919464,5.920375,-9.206454,10.762279,-1.217259,-3.685671,0.331775,-0.479382,1.100877,0.541422,0.696618,-0.303899,-0.359486,99.068005,9.890914,-55.581611
17148,NaN,7.304965,10.151489,-8.734615,10.896705,-3.583425,0.243444,0.784291,-0.274256,1.259348,0.540518,0.696300,-0.310475,-0.355825,99.472520,9.200426,-55.860669
17149,NaN,-1.851317,13.084488,-1.717123,-0.269183,-0.429638,3.503494,0.061059,0.212831,1.132656,0.542632,0.695064,-0.313984,-0.351924,99.510678,8.537953,-55.850964
17150,NaN,-2.088468,9.550494,-2.311674,0.218654,0.945474,0.186057,-0.228627,0.288574,0.938274,0.545518,0.693455,-0.316104,-0.348724,99.391626,7.976533,-55.779322
17151,NaN,-0.025614,8.927889,-1.506453,0.686545,-0.971999,-0.837136,0.183541,0.255012,0.888697,0.546818,0.692978,-0.318844,-0.345123,99.506167,7.447981,-55.721932
17152,NaN,-1.276756,11.205412,-1.092836,-0.566357,-0.555812,1.490195,0.155701,0.068651,0.867115,0.547874,0.692119,-0.321974,-0.342255,99.591045,6.947536,-55.769861
17153,NaN,-0.940687,10.316437,-0.994585,-0.458395,-0.638198,0.564442,0.011879,-0.015498,0.907478,0.549344,0.690647,-0.325212,-0.339802,99.587910,6.434055,-55.869584
17154,NaN,-0.094551,9.497354,-0.385975,-0.485507,-1.442809,-0.429743,0.217177,-0.048727,0.855265,0.549957,0.689748,-0.328712,-0.337257,99.701642,5.951640,-55.983802
17155,NaN,0.376424,10.574961,-0.689741,-0.127659,-1.803619,0.636102,0.234031,-0.023155,0.832668,0.550500,0.688968,-0.332077,-0.334660,99.827634,5.481451,-56.081958
17156,NaN,0.168427,10.434061,-0.820860,-0.189708,-1.480481,0.547979,0.218964,0.075497,0.764953,0.551142,0.688406,-0.334916,-0.331921,99.951263,5.038200,-56.118717
17157,NaN,-0.380564,10.489731,-1.111232,-0.322319,-0.826865,0.705202,0.196686,0.112505,0.718394,0.551830,0.687917,-0.337440,-0.329223,100.064642,4.619399,-56.130499
17158,NaN,-0.739132,10.086410,-1.544290,-0.182371,-0.180735,0.414748,0.199954,0.077475,0.701047,0.552419,0.687393,-0.340012,-0.326674,100.178307,4.212093,-56.161434
17159,NaN,-0.547598,9.911633,-1.651956,-0.023822,-0.206919,0.248401,0.194396,0.012558,0.667861,0.552848,0.686801,-0.342626,-0.324455,100.286824,3.832008,-56.226186
17160,NaN,-0.345567,9.879680,-2.172446,0.470193,-0.045467,0.297878,0.156183,0.020568,0.629056,0.553359,0.686169,-0.345029,-0.322368,100.374141,3.471240,-56.283300
17161,NaN,-0.060446,9.971009,-2.438181,0.790467,-0.109622,0.421190,0.119917,0.089397,0.583904,0.554029,0.685625,-0.347014,-0.320238,100.443732,3.130713,-56.297093
17162,NaN,-0.038532,9.954295,-2.365761,0.703352,-0.120116,0.394021,0.072021,0.176035,0.542652,0.554949,0.685146,-0.348548,-0.317996,100.488505,2.802557,-56.258304
17163,NaN,-0.167024,9.729247,-2.095688,0.401717,-0.084187,0.132631,0.043400,0.236915,0.492881,0.555983,0.684772,-0.349684,-0.315740,100.518672,2.497924,-56.179942
17164,NaN,-0.367218,9.688036,-1.961717,0.152910,0.055477,0.077437,0.039575,0.244549,0.456715,0.556988,0.684451,-0.350678,-0.313554,100.546403,2.210934,-56.093919
17165,NaN,-0.517412,9.603932,-1.869494,-0.026405,0.178939,-0.016498,0.038135,0.205991,0.452028,0.557914,0.684076,-0.351747,-0.311523,100.572276,1.932483,-56.029022
17166,NaN,-0.529373,9.566959,-1.894071,-0.038736,0.244061,-0.048816,0.045325,0.153572,0.460599,0.558739,0.683614,-0.353011,-0.309623,100.600834,1.652811,-55.994969
17167,NaN,-0.440902,9.583567,-2.023605,0.083144,0.275568,-0.012121,0.060116,0.104088,0.471470,0.559433,0.683099,-0.354461,-0.307843,100.637091,1.374102,-55.989842
17168,NaN,-0.230266,9.574530,-2.231305,0.339840,0.251824,0.011989,0.063138,0.077867,0.476321,0.560081,0.682534,-0.356014,-0.306123,100.674571,1.093576,-56.000433
17169,NaN,-0.081301,9.502067,-2.346539,0.495709,0.235793,-0.040245,0.062334,0.085554,0.473765,0.560731,0.681984,-0.357523,-0.304393,100.711865,0.815539,-56.006349
17170,NaN,-0.020578,9.413219,-2.440171,0.587134,0.282444,-0.110169,0.068459,0.110337,0.462763,0.561391,0.681500,-0.358943,-0.302586,100.752758,0.539199,-55.997585
17171,NaN,0.037847,9.424696,-2.416804,0.567219,0.255007,-0.102882,0.065028,0.145433,0.459836,0.562112,0.681066,-0.360236,-0.300683,100.791896,0.262598,-55.968687
17172,NaN,-0.037529,9.522366,-2.357416,0.429359,0.310240,-0.017102,0.066878,0.168366,0.459626,0.562870,0.680661,-0.361475,-0.298686,100.831908,-0.018228,-55.927314
17173,NaN,-0.071095,9.538808,-2.298930,0.327030,0.340593,-0.011879,0.073804,0.179211,0.474558,0.563636,0.680267,-0.362732,-0.296607,100.875742,-0.306799,-55.881391
17174,NaN,0.053531,9.667518,-2.111527,0.189440,0.159232,0.079777,0.068985,0.183334,0.493895,0.564457,0.679821,-0.364044,-0.294455,100.916537,-0.608577,-55.835718
17175,NaN,0.090225,9.803106,-1.929982,0.005384,0.055844,0.178832,0.055520,0.191501,0.518884,0.565366,0.679303,-0.365385,-0.292237,100.949389,-0.923482,-55.788093
17176,NaN,0.120097,9.782868,-1.796010,-0.118919,0.002101,0.133677,0.047099,0.179931,0.540660,0.566315,0.678693,-0.366828,-0.290001,100.977287,-1.251242,-55.749775
17177,NaN,0.240015,9.732816,-1.583918,-0.249914,-0.166308,0.046508,0.037560,0.161953,0.547111,0.567262,0.678019,-0.368316,-0.287832,100.999803,-1.578843,-55.722154
17178,NaN,0.264770,9.794987,-1.601732,-0.267806,-0.136566,0.111363,0.032586,0.139241,0.569106,0.568217,0.677246,-0.369943,-0.285674,101.019726,-1.918171,-55.710093
17179,NaN,0.262333,9.808757,-1.566796,-0.335754,-0.108603,0.117598,0.032123,0.128106,0.577324,0.569154,0.676440,-0.371615,-0.283539,101.039625,-2.259072,-55.705059
17180,NaN,0.367117,9.826977,-1.536279,-0.341012,-0.165722,0.133184,0.023715,0.092307,0.594935,0.570078,0.675515,-0.373444,-0.281478,101.055547,-2.607770,-55.722464
17181,NaN,0.503464,9.984955,-1.597311,-0.280589,-0.206520,0.305737,0.020141,0.075625,0.598391,0.570977,0.674550,-0.375313,-0.279478,101.070076,-2.954750,-55.749489
17182,NaN,0.474329,10.063622,-1.575104,-0.365976,-0.148939,0.376816,-0.005506,0.067633,0.615734,0.571972,0.673454,-0.377234,-0.277491,101.070334,-3.312416,-55.783220
17183,NaN,0.515975,10.057335,-1.702419,-0.273980,-0.057541,0.396902,-0.031860,0.068936,0.631942,0.573070,0.672255,-0.379156,-0.275509,101.055861,-3.677527,-55.817729
17184,NaN,0.606374,9.979303,-1.796438,-0.166265,-0.018097,0.343741,-0.058935,0.081782,0.644396,0.574299,0.670958,-0.381051,-0.273488,101.025577,-4.052868,-55.846473
17185,NaN,0.689686,9.989851,-1.801161,-0.150492,-0.025084,0.360478,-0.080805,0.097969,0.667905,0.575653,0.669574,-0.382935,-0.271393,100.982566,-4.441415,-55.868206
17186,NaN,0.669411,10.091350,-1.796312,-0.218224,0.048269,0.456675,-0.109103,0.110564,0.688658,0.577153,0.668072,-0.384818,-0.269238,100.922946,-4.844821,-55.884987
17187,NaN,0.646316,10.162698,-1.832389,-0.248120,0.153532,0.529951,-0.140813,0.121371,0.728273,0.578819,0.666415,-0.386745,-0.266998,100.845203,-5.269911,-55.899266
17188,NaN,0.540133,10.341436,-1.870043,-0.345241,0.332033,0.699404,-0.179405,0.140461,0.763872,0.580695,0.664585,-0.388688,-0.264654,100.744593,-5.718880,-55.906155
17189,NaN,0.463436,10.496223,-1.902744,-0.425436,0.492030,0.844804,-0.205222,0.148840,0.814469,0.582724,0.662589,-0.390724,-0.262190,100.629360,-6.195466,-55.912643
17190,NaN,0.390482,10.721235,-1.816857,-0.615591,0.590474,1.034887,-0.239485,0.146463,0.882411,0.584945,0.660337,-0.392948,-0.259588,100.495254,-6.711810,-55.926832
17191,NaN,0.303902,10.794500,-1.776457,-0.745476,0.737898,1.080804,-0.283481,0.126719,0.952565,0.587345,0.657784,-0.395387,-0.256936,100.338305,-7.263948,-55.958041
17192,NaN,0.498214,10.832504,-1.932012,-0.555522,0.775644,1.160582,-0.315998,0.106648,1.023665,0.589892,0.654944,-0.398074,-0.254189,100.165139,-7.855868,-56.006608
17193,NaN,0.738949,10.913565,-1.681845,-0.677991,0.553133,1.219700,-0.326966,0.116594,1.096580,0.592565,0.651926,-0.400935,-0.251218,99.986348,-8.488407,-56.054936
17194,NaN,0.837693,11.044578,-1.542397,-0.805794,0.521116,1.329171,-0.340513,0.143552,1.162745,0.595402,0.648740,-0.403910,-0.247972,99.798526,-9.162681,-56.092668
17195,NaN,0.516151,11.303428,-1.555598,-1.076754,0.936782,1.519345,-0.346253,0.196488,1.250482,0.598445,0.645405,-0.406980,-0.244304,99.604068,-9.890152,-56.106297
17196,NaN,0.218880,11.599157,-1.480859,-1.421347,1.300220,1.722830,-0.347235,0.238835,1.371414,0.601701,0.641836,-0.410300,-0.240120,99.406326,-10.691507,-56.104887
17197,NaN,-0.209384,11.842295,-1.396448,-1.841003,1.779516,1.835275,-0.370508,0.279852,1.486916,0.605216,0.637979,-0.413809,-0.235498,99.192389,-11.560458,-56.087655
17198,NaN,-1.132938,12.343682,-1.205426,-2.687281,2.634932,2.058929,-0.358592,0.312263,1.572765,0.608826,0.633971,-0.417487,-0.230467,98.981842,-12.482179,-56.056382
17199,NaN,-0.865142,13.804229,-0.689668,-3.402285,2.452854,3.385173,-0.311909,0.361557,1.778058,0.612577,0.629692,-0.421682,-0.224546,98.794732,-13.523029,-56.011616
17200,NaN,-1.222863,14.694840,0.135169,-4.588441,2.602191,3.957538,-0.429622,0.419940,2.027295,0.617046,0.624525,-0.426313,-0.217899,98.535036,-14.710963,-55.950572
17201,NaN,-2.208442,15.472320,0.694916,-5.887791,3.454987,4.263499,-0.550814,0.531125,2.279364,0.622321,0.618493,-0.431198,-0.210363,98.191534,-16.049673,-55.839081
17202,NaN,-3.089820,16.940868,1.920807,-7.867648,3.999675,5.097571,-0.660296,0.613871,2.598266,0.628348,0.611411,-0.436624,-0.201776,97.772652,-17.575815,-55.694823
17203,NaN,-3.728117,18.475104,4.103456,-10.516303,3.901130,5.879069,-0.906911,0.620601,2.910193,0.635319,0.602754,-0.442639,-0.192687,97.210836,-19.277769,-55.556165
17204,NaN,-4.553088,19.719653,5.973159,-12.934288,4.199647,6.321373,-1.224683,0.638277,3.186360,0.643385,0.592325,-0.449000,-0.183320,96.457428,-21.136430,-55.404106
17205,NaN,-5.179660,20.538456,6.849109,-14.323317,4.951471,6.492236,-1.437576,0.560938,3.384343,0.651875,0.580508,-0.455858,-0.173961,95.589579,-23.101024,-55.282551
17206,NaN,-3.981726,20.217424,5.588094,-12.699114,5.376449,6.484691,-1.566232,0.297400,3.465591,0.659986,0.567648,-0.463526,-0.165341,94.697386,-25.095652,-55.294492
17207,NaN,-2.756521,18.494548,0.125492,-7.257897,7.841782,5.531750,-1.440637,-0.075820,3.420752,0.666595,0.554800,-0.472249,-0.157571,93.968907,-27.049306,-55.511404
17208,NaN,-3.418369,16.779943,-6.645043,-1.679646,12.267603,3.754342,-0.965654,-0.393805,3.324954,0.670854,0.543330,-0.481970,-0.149841,93.603528,-28.936319,-55.911274
17209,NaN,-3.788325,15.449870,-8.617538,0.098183,13.587142,2.131752,-0.627077,-0.664605,3.389914,0.673374,0.532470,-0.492898,-0.141756,93.535893,-30.853786,-56.493059
17210,NaN,-2.214947,12.641442,-9.094100,2.100070,11.921528,0.230732,-0.321941,-0.968960,3.446447,0.674164,0.522120,-0.505044,-0.133508,93.775534,-32.789303,-57.295906
17211,NaN,-1.450213,10.014176,-8.972432,3.181069,10.405190,-1.781527,0.109345,-1.210345,3.410853,0.672970,0.512975,-0.518051,-0.124863,94.397271,-34.691869,-58.299294
17212,NaN,-1.033749,8.197398,-8.479618,3.534401,9.154222,-3.188769,0.400445,-1.405544,3.240656,0.670202,0.504976,-0.531276,-0.116514,95.316451,-36.473458,-59.482341
17213,NaN,-1.095892,6.971261,-7.149344,2.811350,7.968107,-4.379693,0.388403,-1.554271,2.921762,0.666682,0.497534,-0.544046,-0.109590,96.346809,-38.050957,-60.813590
17214,NaN,2.000119,5.760260,-3.491160,1.359650,3.329832,-3.776819,0.150193,-1.514662,2.547278,0.663489,0.490229,-0.555470,-0.104455,97.266448,-39.396464,-62.143475
17215,NaN,4.043687,4.958899,-3.265517,2.136372,1.476909,-3.114989,-0.023508,-1.419894,2.144277,0.660648,0.483407,-0.565410,-0.100867,98.070440,-40.507955,-63.413783
17216,NaN,1.025659,3.810852,-1.157955,-0.260757,1.882230,-6.165165,-0.294022,-1.373873,1.733558,0.658285,0.476822,-0.573971,-0.099295,98.707465,-41.374707,-64.640474
17217,NaN,-0.346262,2.649307,-1.275234,-0.119588,2.290011,-7.940146,-0.769362,-1.250628,1.158860,0.657056,0.470314,-0.580475,-0.100655,98.992123,-41.922888,-65.729585
17218,NaN,3.056140,2.754760,-5.156683,4.231173,1.963319,-5.147680,-1.055122,-1.072394,0.347243,0.656557,0.465296,-0.584282,-0.105104,98.965666,-42.022283,-66.591615
17219,NaN,-0.706432,1.099487,-4.334445,3.115685,3.178680,-8.985912,-1.229081,-0.437319,-0.536972,0.657819,0.462581,-0.583840,-0.111461,98.446529,-41.682575,-66.866488
17220,NaN,-5.932941,2.578340,-2.550393,-0.538983,6.712128,-11.547254,-1.626386,0.675588,-1.537040,0.662627,0.462075,-0.577134,-0.119702,97.078154,-40.861059,-66.202084
17221,NaN,-8.366266,1.115542,-2.303876,-1.014581,7.503961,-14.195160,-1.612059,1.230294,-1.871866,0.668698,0.462820,-0.567746,-0.127690,95.463888,-39.874438,-65.133324
17222,NaN,-7.482022,0.083238,-1.609736,-1.098312,6.041078,-14.381664,-1.211849,1.196893,-2.162223,0.673431,0.465641,-0.557930,-0.135588,94.130276,-38.695708,-64.120657
17223,NaN,-4.815484,1.914995,-0.758783,-1.644706,4.764388,-11.236136,-0.965220,1.026541,-2.412311,0.676822,0.469763,-0.548181,-0.143988,93.054759,-37.355753,-63.269880
17224,NaN,-4.143170,4.081205,0.542501,-3.259531,4.782620,-9.027754,-0.839851,0.728310,-2.737609,0.678719,0.474914,-0.538637,-0.153840,92.215124,-35.806256,-62.664894
17225,NaN,-3.561980,5.388034,1.340848,-4.105062,4.601917,-7.471019,-0.911773,0.444412,-3.125998,0.679567,0.480508,-0.528966,-0.165816,91.478715,-34.027080,-62.288208
17226,NaN,-2.472545,6.174515,1.752095,-4.187810,3.916094,-6.014096,-0.898469,0.171588,-3.507916,0.679134,0.486814,-0.519136,-0.179686,90.877231,-32.017509,-62.125247
17227,NaN,-2.162367,7.327002,2.054990,-4.508188,3.958852,-4.657141,-0.889758,-0.072401,-3.862328,0.677491,0.493649,-0.509115,-0.195240,90.381297,-29.807067,-62.149080
17228,NaN,-1.924462,8.017529,1.516186,-3.936358,4.171044,-3.698755,-0.877313,-0.306193,-4.210552,0.674584,0.501000,-0.498794,-0.212463,89.973686,-27.391590,-62.343500
17229,NaN,-1.586237,8.476139,0.243143,-2.573466,4.471711,-2.899762,-0.753441,-0.467513,-4.467626,0.670369,0.508965,-0.488286,-0.230515,89.680301,-24.835517,-62.653996
17230,NaN,-1.604021,9.309970,-1.080569,-1.345726,5.131504,-1.922436,-0.522106,-0.673526,-4.627573,0.664509,0.517613,-0.478037,-0.248969,89.559678,-22.183879,-63.096787
17231,NaN,-1.021839,10.284916,-2.390306,0.139271,5.226370,-0.583281,-0.312984,-0.827078,-4.649531,0.657354,0.526502,-0.468264,-0.267226,89.571480,-19.526427,-63.628888
17232,NaN,-0.011455,11.288966,-3.362358,1.538068,4.678772,0.886084,-0.184720,-0.887772,-4.686245,0.649287,0.535547,-0.458470,-0.285343,89.641504,-16.841744,-64.186329
17233,NaN,0.646500,12.475516,-3.867141,2.382305,4.138083,2.360250,-0.086523,-0.911387,-4.657564,0.640589,0.544481,-0.448742,-0.303012,89.743410,-14.178851,-64.746405
17234,NaN,1.324541,12.997905,-3.630289,2.652363,3.000172,3.141451,0.031659,-0.961771,-4.563460,0.631229,0.553233,-0.439329,-0.320116,89.891944,-11.562490,-65.322819
17235,NaN,2.242192,13.062038,-3.054972,2.729061,1.375525,3.438917,0.203150,-0.993649,-4.460310,0.621169,0.561925,-0.430374,-0.336404,90.113941,-9.009727,-65.904551
17236,NaN,2.692795,13.247608,-2.379098,2.472043,0.126719,3.687351,0.455188,-0.992327,-4.402455,0.610160,0.571014,-0.421746,-0.351822,90.452822,-6.480987,-66.468384
17237,NaN,3.142635,13.898287,-2.325380,2.722344,-0.857035,4.338792,0.696540,-0.832677,-4.415548,0.598480,0.580826,-0.412833,-0.366104,90.894784,-3.948440,-66.920798
17238,NaN,3.928788,14.738093,-2.537143,3.329807,-2.101144,5.138614,0.798486,-0.464187,-4.412293,0.586943,0.591338,-0.402769,-0.378938,91.364649,-1.412180,-67.139795
17239,NaN,5.115937,15.030438,-2.977142,4.331607,-3.682944,5.306232,0.832621,0.075122,-4.447160,0.576047,0.602716,-0.390913,-0.389988,91.843190,1.130879,-67.028779
17240,NaN,6.655484,14.995272,-4.074741,6.108292,-5.306715,5.027939,0.864471,0.659922,-4.452159,0.565868,0.615046,-0.377185,-0.399053,92.360430,3.669376,-66.559779
17241,NaN,8.762372,15.275236,-4.973981,7.961000,-7.473014,4.870260,0.940448,1.224091,-4.365007,0.556415,0.628204,-0.362112,-0.405756,92.970805,6.132346,-65.743325
17242,NaN,9.527659,15.483671,-4.259005,7.841215,-8.990873,4.550459,1.010277,1.497386,-4.186796,0.547282,0.641478,-0.346763,-0.410785,93.679668,8.479992,-64.742483
17243,NaN,9.738482,15.311195,-2.812661,6.838242,-10.223750,3.820270,1.084229,1.381708,-3.971818,0.537905,0.654005,-0.332427,-0.415244,94.462738,10.691151,-63.781335
17244,NaN,10.453203,14.843534,-1.485886,6.139070,-11.763529,2.665420,1.162623,1.033128,-3.717826,0.527962,0.665329,-0.319855,-0.419863,95.291338,12.764961,-62.997013
17245,NaN,11.562232,14.532394,-1.043020,6.377145,-13.234326,1.594139,1.199773,0.734227,-3.403939,0.517903,0.675357,-0.309096,-0.424418,96.129157,14.661227,-62.370036
17246,NaN,12.378864,14.412644,-1.155898,6.956277,-14.180556,0.807723,1.136950,0.612597,-2.953547,0.508648,0.684080,-0.299932,-0.428196,96.932705,16.303230,-61.811595
17247,NaN,12.728763,14.221558,-1.698832,7.685608,-14.435186,0.172332,1.008739,0.606462,-2.398044,0.500921,0.691467,-0.292358,-0.430672,97.669667,17.619491,-61.272463
17248,NaN,13.930681,14.116206,-1.682538,8.301760,-15.585945,-0.630539,0.860895,0.713760,-1.778730,0.495108,0.697722,-0.286289,-0.431383,98.343657,18.571187,-60.700377
17249,NaN,16.539903,13.925918,-0.928188,8.939905,-18.093316,-1.998211,0.655949,0.923392,-1.153175,0.491630,0.702953,-0.281424,-0.430067,98.932473,19.142619,-60.046628
17250,NaN,18.370878,14.416408,-1.855327,10.772962,-19.331206,-2.130939,0.600767,1.387972,-0.386152,0.490610,0.707932,-0.277977,-0.425279,99.564079,19.231199,-59.181412
17251,NaN,16.644676,13.657682,1.639711,7.048127,-19.167320,-2.798512,0.261906,1.704826,0.243734,0.492545,0.711823,-0.275242,-0.418271,100.039230,18.925030,-58.191986
17252,NaN,15.097304,12.792000,3.961294,4.458662,-18.592698,-3.356678,-0.228186,1.577439,0.812112,0.497197,0.713405,-0.273809,-0.410947,100.182359,18.304643,-57.343086
17253,NaN,10.575854,11.489718,7.674558,-0.917157,-16.220643,-3.583241,-0.429965,0.968311,1.276500,0.502654,0.712543,-0.275100,-0.404898,100.071316,17.484861,-56.908183
17254,NaN,-4.910054,10.230800,7.822877,-9.088015,-3.416116,-0.029383,-0.440663,0.447766,0.964260,0.506781,0.710990,-0.276568,-0.401467,99.868493,16.891425,-56.747884
17255,NaN,-21.736995,10.365391,2.223473,-13.160619,12.887539,5.858610,-0.200190,-0.056382,0.643613,0.508696,0.709464,-0.278634,-0.400315,99.725969,16.531273,-56.850480
17256,NaN,-23.369818,11.248512,-3.618650,-9.014470,16.951321,7.996337,0.396824,-0.564563,0.693624,0.507882,0.708354,-0.283370,-0.399990,99.840525,16.190505,-57.257131
17257,NaN,-5.076869,16.799280,0.440169,-3.003911,-1.474247,7.420524,0.620589,-1.060942,1.136502,0.506427,0.706162,-0.291358,-0.399971,99.993927,15.651496,-58.000257
17258,NaN,5.048694,16.098565,1.994262,0.610482,-10.100314,3.833894,0.392967,-1.566132,1.917019,0.506547,0.701163,-0.302899,-0.400041,99.928241,14.721566,-59.116845
17259,NaN,3.175491,13.428073,0.282859,0.972295,-6.755297,2.182763,0.170362,-1.494258,1.957789,0.507555,0.695575,-0.313902,-0.400035,99.763812,13.760470,-60.188812
17260,NaN,-1.963278,10.354984,-2.144364,0.587655,-0.276659,0.922984,-0.017073,-1.144468,1.651910,0.509095,0.690598,-0.322548,-0.399825,99.563484,12.933546,-61.020463
17261,NaN,-1.130508,7.388319,-3.886016,2.595655,0.711831,-1.830097,-0.137189,-0.744923,1.405827,0.511152,0.686458,-0.329052,-0.399029,99.362331,12.206907,-61.591238
17262,NaN,2.068865,5.606699,-4.032711,4.264618,-1.447310,-4.182771,-0.015802,-0.268266,1.325215,0.513394,0.683669,-0.334294,-0.396573,99.296449,11.478566,-61.875910
17263,NaN,1.651704,7.426705,-3.447663,3.416598,-1.738517,-2.391499,0.224000,0.180945,1.197451,0.515286,0.682576,-0.338397,-0.392501,99.423921,10.782459,-61.889114
17264,NaN,2.303834,8.674399,-7.482591,7.152058,-0.753675,-0.602879,0.192297,0.323591,1.172988,0.517466,0.681692,-0.341987,-0.388033,99.548477,10.084769,-61.819731
17265,NaN,3.784258,10.887338,-6.009470,6.305523,-3.104430,1.122071,0.478172,0.203879,1.227021,0.518544,0.681200,-0.346599,-0.383338,99.822964,9.369835,-61.826638
17266,NaN,-1.005139,14.598559,-0.165786,-1.459884,-2.215006,4.578818,0.061675,0.389581,1.240538,0.521370,0.679926,-0.349977,-0.378668,99.875471,8.626736,-61.731028
17267,NaN,-0.776490,12.847357,-0.277503,-1.180877,-1.841516,2.873796,-0.291608,0.375532,1.172696,0.525218,0.677799,-0.352463,-0.374838,99.723739,7.925748,-61.636056
17268,NaN,1.075379,10.169026,-0.414413,-0.005412,-2.729496,0.050675,-0.138275,0.329865,1.139907,0.528391,0.676016,-0.355247,-0.370951,99.656190,7.245418,-61.562972
17269,NaN,-0.556501,10.189296,-0.098117,-1.102967,-1.349595,0.242267,0.002481,0.200079,1.085316,0.530732,0.674444,-0.358423,-0.367398,99.659898,6.610886,-61.557923
17270,NaN,0.180064,10.031127,-0.350364,-0.573698,-1.756430,0.054611,0.062990,0.189297,1.047169,0.532772,0.673055,-0.361615,-0.363850,99.698126,5.996370,-61.555815
17271,NaN,0.142163,10.132110,-0.886401,-0.191417,-1.412354,0.258725,0.156567,0.185878,0.968541,0.534325,0.672039,-0.364696,-0.360357,99.790247,5.429150,-61.548414
17272,NaN,-0.384849,10.352811,-1.641644,0.135479,-0.563770,0.660461,0.127932,0.190233,0.894744,0.535845,0.671066,-0.367474,-0.357077,99.866796,4.900497,-61.532426
17273,NaN,-0.588050,10.031610,-1.818702,0.173672,-0.182667,0.396257,0.135937,0.226779,0.788079,0.537197,0.670369,-0.369787,-0.353952,99.950165,4.431080,-61.485657
17274,NaN,-0.557721,10.243713,-1.594692,-0.083114,-0.279779,0.565273,0.138518,0.152094,0.719227,0.538280,0.669657,-0.372084,-0.351237,100.032094,4.005185,-61.475276
17275,NaN,-0.278687,10.106010,-1.833864,0.227925,-0.336717,0.454075,0.115256,0.103712,0.668229,0.539246,0.668891,-0.374279,-0.348875,100.099003,3.615578,-61.487401
17276,NaN,0.093577,9.883945,-1.935077,0.480043,-0.531923,0.233801,0.080110,0.134631,0.610687,0.540289,0.668177,-0.376149,-0.346612,100.147319,3.252620,-61.476925
17277,NaN,0.439235,9.724867,-1.844599,0.551872,-0.806502,0.046990,0.060233,0.255858,0.529064,0.541471,0.667773,-0.377365,-0.344214,100.188208,2.926130,-61.389711
17278,NaN,0.088237,9.804943,-2.017140,0.492402,-0.381504,0.178573,0.030129,0.403636,0.484635,0.542960,0.667613,-0.377993,-0.341480,100.215687,2.606876,-61.215070
17279,NaN,-0.592451,9.794570,-1.920453,0.052770,0.217871,0.183424,0.012360,0.459052,0.473035,0.544579,0.667521,-0.378382,-0.338638,100.233301,2.291226,-61.007846
17280,NaN,-0.761986,9.647084,-1.745581,-0.191540,0.348649,0.012555,0.024195,0.427247,0.499538,0.546146,0.667343,-0.378977,-0.335790,100.255851,1.961022,-60.821724
17281,NaN,-0.879903,9.692667,-1.747998,-0.286385,0.494137,0.059043,0.049949,0.328314,0.531597,0.547479,0.667009,-0.379974,-0.333146,100.290126,1.625541,-60.694585
17282,NaN,-0.827909,9.727459,-1.994311,-0.090087,0.611622,0.132344,0.063989,0.248875,0.585305,0.548707,0.666464,-0.381401,-0.330575,100.330479,1.265114,-60.618282
17283,NaN,-0.623963,9.679289,-2.048015,0.025127,0.516852,0.087020,0.067373,0.198626,0.630527,0.549888,0.665760,-0.383103,-0.328053,100.371573,0.887050,-60.574936
17284,NaN,-0.361983,9.493803,-2.191544,0.266350,0.431295,-0.075702,0.052370,0.179916,0.655386,0.551125,0.664921,-0.384926,-0.325535,100.403714,0.494197,-60.545237
17285,NaN,-0.068036,9.382715,-2.258805,0.448050,0.274214,-0.175994,0.047926,0.179365,0.671557,0.552388,0.664038,-0.386777,-0.322993,100.432995,0.094958,-60.517447
17286,NaN,0.118047,9.393811,-2.078770,0.346538,0.080731,-0.197495,0.039990,0.171033,0.670305,0.553660,0.663106,-0.388644,-0.320480,100.457676,-0.305392,-60.494701
17287,NaN,0.322341,9.473471,-1.978957,0.312774,-0.096114,-0.134909,0.036036,0.159403,0.664815,0.554900,0.662154,-0.390499,-0.318038,100.479854,-0.698779,-60.477807
17288,NaN,0.325185,9.501961,-1.881511,0.190634,-0.092093,-0.123109,0.027222,0.143103,0.655732,0.556123,0.661155,-0.392366,-0.315674,100.497151,-1.088031,-60.469578
17289,NaN,0.384950,9.517969,-1.867994,0.171935,-0.096447,-0.107528,0.013150,0.128940,0.647696,0.557339,0.660110,-0.394204,-0.313419,100.506334,-1.468602,-60.468285
17290,NaN,0.439056,9.484159,-1.911845,0.209211,-0.063966,-0.130281,-0.002209,0.125532,0.643693,0.558593,0.659010,-0.396025,-0.311197,100.506917,-1.849246,-60.468823
17291,NaN,0.401982,9.525226,-1.796536,0.054378,-0.034736,-0.111422,-0.015083,0.126884,0.646380,0.559884,0.657871,-0.397812,-0.309001,100.499943,-2.228861,-60.468562
17292,NaN,0.392590,9.682669,-1.618300,-0.161170,-0.064971,0.010578,-0.022569,0.111900,0.662540,0.561195,0.656640,-0.399692,-0.306805,100.489277,-2.618703,-60.478678
17293,NaN,0.452678,9.947948,-1.476343,-0.332291,-0.140565,0.247909,-0.020596,0.086913,0.678539,0.562461,0.655346,-0.401679,-0.304654,100.480407,-3.012269,-60.504197
17294,NaN,0.539969,10.124487,-1.535039,-0.304803,-0.132529,0.436325,-0.035515,0.074844,0.691380,0.563771,0.653948,-0.403729,-0.302518,100.463770,-3.414496,-60.538082
17295,NaN,0.682157,10.204799,-1.496757,-0.314609,-0.213234,0.516817,-0.054214,0.087784,0.694097,0.565158,0.652513,-0.405703,-0.300380,100.436053,-3.816934,-60.564509
17296,NaN,0.742876,10.286470,-1.640427,-0.209053,-0.129648,0.627300,-0.082188,0.113632,0.706223,0.566707,0.650996,-0.407611,-0.298162,100.391664,-4.231568,-60.577642
17297,NaN,0.637173,10.248654,-1.831278,-0.119636,0.129181,0.616261,-0.125899,0.155973,0.722712,0.568495,0.649384,-0.409368,-0.295860,100.320448,-4.657200,-60.567842
17298,NaN,0.548561,10.223040,-1.947851,-0.086057,0.340811,0.602756,-0.145378,0.187929,0.754454,0.570456,0.647680,-0.411116,-0.293384,100.236794,-5.106637,-60.542920
17299,NaN,0.467300,10.352646,-1.856605,-0.255410,0.445494,0.702934,-0.177352,0.211379,0.788324,0.572603,0.645848,-0.412839,-0.290811,100.133525,-5.574852,-60.507128
17300,NaN,0.384347,10.545472,-1.801531,-0.408065,0.577494,0.869047,-0.205673,0.213350,0.843406,0.574921,0.643803,-0.414699,-0.288112,100.014191,-6.076881,-60.475105
17301,NaN,0.242959,10.646385,-1.876758,-0.461085,0.834880,0.958395,-0.246810,0.198377,0.923567,0.577436,0.641447,-0.416778,-0.285325,99.872577,-6.619979,-60.458106
17302,NaN,0.281883,10.641412,-1.893296,-0.455250,0.915862,0.950980,-0.273735,0.192188,0.999096,0.580124,0.638821,-0.419081,-0.282374,99.716618,-7.207609,-60.450877
17303,NaN,0.504771,10.780140,-1.540260,-0.704441,0.663262,1.045545,-0.286120,0.169746,1.080204,0.582895,0.635947,-0.421664,-0.279291,99.555864,-7.836344,-60.462366
17304,NaN,0.599932,11.165766,-1.483440,-0.820957,0.692366,1.415844,-0.319262,0.151517,1.165585,0.585839,0.632740,-0.424525,-0.276064,99.378719,-8.514091,-60.490801
17305,NaN,0.734038,11.420824,-1.569976,-0.773492,0.772751,1.686942,-0.342145,0.178109,1.260178,0.589011,0.629286,-0.427545,-0.272526,99.187394,-9.245424,-60.510456
17306,NaN,0.586685,11.669194,-1.537884,-0.967837,1.052130,1.884891,-0.347819,0.225126,1.358101,0.592414,0.625631,-0.430719,-0.268539,98.989716,-10.038827,-60.509891
17307,NaN,0.314690,12.037788,-1.585369,-1.186608,1.505274,2.180812,-0.381335,0.295562,1.446455,0.596154,0.621755,-0.433880,-0.264140,98.766296,-10.886114,-60.473518
17308,NaN,-0.299243,12.105907,-1.529999,-1.597759,2.191300,2.087959,-0.373695,0.380508,1.577710,0.600194,0.617682,-0.437189,-0.259040,98.538658,-11.817128,-60.396324
17309,NaN,-0.830095,13.066988,-1.188198,-2.429845,2.763568,2.808774,-0.284218,0.465097,1.671833,0.604216,0.613743,-0.440608,-0.253194,98.351452,-12.806120,-60.274229
17310,NaN,-0.805573,14.208177,-0.650813,-3.224843,2.828862,3.771724,-0.323612,0.495140,1.915854,0.608685,0.609124,-0.444605,-0.246572,98.139233,-13.937453,-60.151358
17311,NaN,-1.475632,14.872253,0.041412,-4.387599,3.396866,4.064069,-0.454915,0.534425,2.166826,0.613874,0.603533,-0.449024,-0.239341,97.847235,-15.211851,-60.020156
17312,NaN,-1.931192,15.568859,0.488379,-5.258413,3.970502,4.432649,-0.534600,0.567474,2.394130,0.619567,0.597132,-0.453874,-0.231448,97.503798,-16.618647,-59.879426
17313,NaN,-2.315536,17.023130,2.166694,-7.334174,4.033143,5.345476,-0.649743,0.559696,2.643057,0.625760,0.589703,-0.459271,-0.223037,97.094932,-18.163901,-59.751481
17314,NaN,-2.797068,18.641885,3.857246,-9.518135,4.306025,6.344699,-0.887138,0.550406,2.861901,0.632747,0.580886,-0.464983,-0.214461,96.548249,-19.832895,-59.629953
17315,NaN,-3.130044,20.022979,5.153319,-11.232413,4.739698,7.175802,-1.153972,0.535809,3.084445,0.640547,0.570550,-0.470979,-0.205794,95.846728,-21.625449,-59.511398
17316,NaN,-3.013103,20.186244,5.005570,-11.182010,5.371837,7.148652,-1.294548,0.420774,3.208790,0.648425,0.559181,-0.477413,-0.197328,95.079955,-23.481226,-59.444344
17317,NaN,-1.820043,19.455232,2.859363,-8.697337,5.987214,6.874608,-1.301498,0.238963,3.275444,0.655747,0.547284,-0.484472,-0.189110,94.345491,-25.365391,-59.467627
17318,NaN,-3.062299,17.421167,-2.939882,-3.876727,9.941166,4.596713,-1.108759,0.116078,3.224863,0.662007,0.535857,-0.491821,-0.180875,93.743422,-27.215090,-59.541840
17319,NaN,-4.521354,16.253486,-6.944299,-0.877109,13.208961,2.739941,-0.814442,0.048684,3.178799,0.667077,0.525308,-0.499408,-0.172193,93.325383,-29.037313,-59.641450
17320,NaN,-3.265725,14.782533,-7.803469,0.770940,12.511262,1.717040,-0.660072,-0.129528,3.279037,0.671204,0.514730,-0.507835,-0.163222,93.052406,-30.910016,-59.850573
17321,NaN,-1.647259,12.409690,-7.986427,2.265001,10.727892,0.200586,-0.438861,-0.319572,3.309817,0.674111,0.504512,-0.517030,-0.154019,92.980340,-32.796828,-60.187294
17322,NaN,-1.334846,9.872782,-7.930046,3.056404,9.577761,-1.998773,-0.064200,-0.435644,3.216472,0.675517,0.495582,-0.526514,-0.144427,93.179118,-34.623869,-60.609299
17323,NaN,-0.852377,7.743494,-7.722531,3.675905,8.285959,-3.635851,0.382383,-0.622222,3.059001,0.675038,0.488302,-0.536439,-0.134602,93.731407,-36.354549,-61.180249
17324,NaN,-0.659824,7.180335,-6.453388,2.769981,7.328820,-4.133541,0.426929,-0.843737,2.705440,0.673461,0.481877,-0.546145,-0.126378,94.428560,-37.865963,-61.927184
17325,NaN,2.317489,5.622144,-3.257177,1.608351,2.926148,-3.776296,0.171024,-0.883379,2.387252,0.672071,0.475329,-0.554967,-0.119980,95.022376,-39.190020,-62.720421
17326,NaN,3.999932,4.490004,-2.548084,1.926917,0.901909,-3.638155,-0.016794,-0.812512,2.020992,0.671002,0.469160,-0.562478,-0.115166,95.491390,-40.299694,-63.465782
17327,NaN,1.662343,2.943996,-1.321991,0.596420,1.114869,-6.409844,-0.300954,-0.717751,1.604931,0.670567,0.463197,-0.568488,-0.112296,95.753757,-41.177076,-64.129447
17328,NaN,0.674074,3.508772,0.267112,-1.329610,1.345868,-6.770019,-0.598533,-0.478205,1.056725,0.671146,0.457919,-0.572211,-0.111566,95.710356,-41.751323,-64.578653
17329,NaN,3.078401,2.383307,-3.299908,2.975568,0.850482,-5.754521,-1.061710,-0.494267,0.366827,0.672335,0.453015,-0.574139,-0.114490,95.377440,-41.935690,-64.988971
17330,NaN,-1.191180,1.557864,-2.696714,1.428052,2.964164,-9.271899,-0.997465,0.027721,-0.482217,0.674361,0.451066,-0.572395,-0.118916,94.775248,-41.661058,-64.939726
17331,NaN,-6.481086,3.223698,-1.255342,-2.107819,6.806013,-11.603580,-1.387095,0.884879,-1.423354,0.679116,0.450955,-0.565375,-0.125670,93.489744,-40.886803,-64.193278
17332,NaN,-8.555082,1.845100,-2.396927,-1.385646,8.000588,-13.863347,-1.434223,1.275040,-1.837702,0.684711,0.452055,-0.555972,-0.133087,92.009812,-39.869036,-63.173801
17333,NaN,-8.469474,1.181060,-1.796025,-1.788513,7.326064,-14.226300,-1.084787,1.117997,-2.090223,0.688803,0.454850,-0.546684,-0.140707,90.844455,-38.690508,-62.312283
17334,NaN,-6.060746,2.260566,-0.972314,-2.051939,5.897176,-11.761909,-0.811657,0.798493,-2.244689,0.691168,0.458735,-0.538233,-0.148841,90.019147,-37.406291,-61.723605
17335,NaN,-4.870351,3.572085,0.561949,-3.356015,5.052634,-9.857420,-0.569025,0.376277,-2.469965,0.691573,0.463650,-0.530834,-0.158020,89.540540,-35.993157,-61.465534
17336,NaN,-3.490370,4.535780,1.366000,-3.772709,4.179445,-8.104334,-0.511292,0.024850,-2.839536,0.690479,0.469411,-0.523722,-0.169136,89.254746,-34.364120,-61.473316
17337,NaN,-2.222650,5.489585,1.676208,-3.734103,3.542337,-6.437684,-0.461231,-0.220594,-3.204807,0.688166,0.475955,-0.516537,-0.181891,89.095208,-32.532816,-61.660294
17338,NaN,-1.860915,6.523645,1.849641,-3.900755,3.595030,-5.197803,-0.478050,-0.401884,-3.574163,0.684872,0.483118,-0.508908,-0.196366,88.988034,-30.486625,-61.974351
17339,NaN,-1.738269,7.035213,1.294930,-3.352801,3.856591,-4.514440,-0.501934,-0.555543,-3.925499,0.680664,0.490738,-0.500768,-0.212377,88.906243,-28.246617,-62.390578
17340,NaN,-1.494742,7.351211,0.312642,-2.301252,4.072847,-3.940712,-0.422322,-0.654382,-4.210772,0.675406,0.499057,-0.492110,-0.229340,88.883365,-25.838775,-62.867108
17341,NaN,-1.636415,8.242914,-0.607491,-1.541425,4.724865,-3.009714,-0.197247,-0.820830,-4.396444,0.668653,0.508133,-0.483598,-0.246652,89.009834,-23.331764,-63.438595
17342,NaN,-1.037124,9.470299,-1.595000,-0.435857,4.811117,-1.448873,0.030151,-0.954149,-4.441322,0.660590,0.517685,-0.475424,-0.263809,89.267723,-20.792196,-64.072806
17343,NaN,-0.340714,10.843167,-2.090263,0.284319,4.499918,0.272352,0.118396,-1.025062,-4.476378,0.651754,0.527218,-0.467290,-0.280887,89.555891,-18.236446,-64.727171
17344,NaN,0.146364,12.259723,-2.543439,0.922104,4.211909,1.942028,0.071339,-1.057434,-4.467224,0.642618,0.536285,-0.458942,-0.298015,89.789219,-15.676629,-65.378846
17345,NaN,0.784193,12.965432,-2.647581,1.419070,3.348471,2.933731,0.073526,-1.087006,-4.385991,0.633215,0.544818,-0.450703,-0.314768,89.995273,-13.167653,-66.030087
17346,NaN,1.210851,13.097378,-2.544254,1.694316,2.404138,3.256380,0.189113,-1.122918,-4.307739,0.623199,0.553242,-0.442713,-0.330987,90.241534,-10.694096,-66.685376
17347,NaN,1.428044,13.414229,-1.850732,1.303649,1.421116,3.665322,0.370870,-1.206579,-4.279059,0.612254,0.561723,-0.435177,-0.346747,90.568690,-8.240355,-67.371902
17348,NaN,1.736346,13.929389,-1.810143,1.508470,0.595084,4.246363,0.557931,-1.225240,-4.270057,0.600430,0.570475,-0.427796,-0.361985,90.973430,-5.780347,-68.048824
17349,NaN,2.539495,14.573171,-1.968522,2.054226,-0.662039,4.952350,0.675193,-1.064369,-4.295174,0.588292,0.579608,-0.419892,-0.376375,91.406703,-3.310033,-68.612447
17350,NaN,3.930042,15.027730,-2.598914,3.250250,-2.368730,5.412840,0.723604,-0.687301,-4.323501,0.576435,0.589393,-0.410645,-0.389498,91.835494,-0.818523,-68.939086
17351,NaN,5.539795,15.228590,-3.684829,4.957336,-4.151258,5.495039,0.776505,-0.192489,-4.357855,0.565114,0.600046,-0.399807,-0.400931,92.281967,1.677949,-68.962946
17352,NaN,7.490180,15.738882,-5.067384,7.074621,-6.149040,5.730441,0.808362,0.430553,-4.334621,0.554685,0.611724,-0.387113,-0.410197,92.765733,4.152033,-68.609628
17353,NaN,9.531026,16.375258,-5.714318,8.579587,-8.464985,5.882333,0.889024,0.970813,-4.212593,0.545061,0.624172,-0.373303,-0.417088,93.340503,6.529959,-67.926101
17354,NaN,10.763586,16.823053,-4.947028,8.527581,-10.481152,5.702624,0.903149,1.266824,-4.019067,0.536063,0.636643,-0.359117,-0.422325,93.977899,8.784670,-67.049964
17355,NaN,11.252110,16.132728,-3.326850,7.443747,-11.898692,4.361765,0.912718,1.299689,-3.769707,0.527411,0.648456,-0.345524,-0.426563,94.658896,10.879782,-66.134833
17356,NaN,12.071388,14.960480,-2.191357,6.925664,-13.235803,2.481684,1.044434,1.159479,-3.478407,0.518479,0.659583,-0.333373,-0.430108,95.435813,12.808336,-65.282568
17357,NaN,13.200053,14.355118,-1.682947,7.076373,-14.619356,1.110416,1.238478,1.031357,-3.119094,0.509318,0.670096,-0.323063,-0.432663,96.333780,14.522948,-64.492719
17358,NaN,13.597412,14.402828,-2.164119,7.804063,-15.049277,0.656802,1.249102,1.045988,-2.650972,0.500997,0.679745,-0.314208,-0.433847,97.263461,15.960561,-63.692684
17359,NaN,12.986305,16.232210,-3.960604,9.260948,-14.550433,2.448058,1.455020,1.253756,-1.901246,0.493844,0.689021,-0.307771,-0.432025,98.351620,16.939834,-62.800092
17360,NaN,14.417151,15.160569,1.240244,5.304633,-17.711967,0.055245,0.708535,1.275822,-1.177586,0.490777,0.695309,-0.302117,-0.429428,99.015903,17.495252,-61.940160
17361,NaN,17.695880,14.531029,1.329013,6.879185,-20.309513,-1.672822,0.273495,1.381056,-0.383332,0.491068,0.699494,-0.298012,-0.425146,99.431111,17.582915,-61.087939
17362,NaN,18.418119,13.719509,4.398244,4.709430,-21.903830,-3.116834,0.061420,1.417709,0.331947,0.493643,0.702141,-0.295861,-0.419263,99.710139,17.257289,-60.285082
17363,NaN,18.840711,14.055328,5.773832,3.893885,-22.890416,-2.977487,-0.105559,1.149859,1.027529,0.497846,0.702738,-0.296438,-0.412837,99.817259,16.563088,-59.714662
17364,NaN,13.646222,13.682836,10.796483,-2.918704,-20.648182,-2.387862,-0.393594,0.502021,1.593768,0.503240,0.700394,-0.300021,-0.407659,99.630779,15.609419,-59.583957
17365,NaN,-4.064842,12.317141,5.554471,-6.969000,-2.952988,2.095175,-0.472232,-0.038326,1.360112,0.507586,0.697057,-0.303948,-0.405071,99.320073,14.842095,-59.743161
17366,NaN,-17.222621,11.044942,0.634485,-9.064831,10.878120,4.969136,-0.241854,-0.444430,1.088110,0.509952,0.693858,-0.308431,-0.404204,99.091253,14.261630,-60.109933
17367,NaN,-16.038574,11.820565,-1.826373,-6.327635,10.990863,5.661622,0.331776,-0.752293,1.221923,0.510087,0.691269,-0.315288,-0.403178,99.148847,13.636379,-60.666550
17368,NaN,-3.945076,15.349017,2.440668,-4.463028,-1.951486,5.464096,0.312285,-1.083991,1.490137,0.510279,0.687484,-0.323869,-0.402604,99.152162,12.887681,-61.439941
17369,NaN,1.488562,10.963088,2.571445,-2.031908,-5.263410,0.045291,0.114340,-1.495444,1.976736,0.511395,0.681499,-0.334722,-0.402487,98.993342,11.902038,-62.492824
17370,NaN,-1.231598,8.224757,-0.704538,-0.326359,-0.645637,-1.497953,0.233865,-1.568056,1.838967,0.511637,0.675793,-0.345493,-0.402697,98.915055,10.996335,-63.569575
17371,NaN,0.207794,7.353479,-7.407293,6.322847,1.129734,-1.582863,0.279761,-1.395552,1.619635,0.511502,0.670849,-0.355116,-0.402764,98.901636,10.201027,-64.523129
17372,NaN,6.577787,8.149667,-10.687619,11.850350,-3.439337,-1.348315,0.649387,-1.203765,1.654041,0.510487,0.667091,-0.365081,-0.401383,99.131767,9.368323,-65.368958
17373,NaN,4.838272,11.319225,-5.516339,6.047088,-4.558376,1.350368,0.562950,-0.532592,1.673338,0.510963,0.664363,-0.373173,-0.397845,99.383955,8.468849,-65.833650
17374,NaN,1.660034,11.248208,-3.102945,2.468216,-2.477149,1.442334,-0.191969,0.158602,1.415092,0.514696,0.661512,-0.377133,-0.394033,99.269966,7.648591,-65.879683
17375,NaN,1.536955,8.854754,-2.058315,1.657658,-2.178978,-1.008813,-0.319053,0.620382,1.351850,0.519559,0.659331,-0.379405,-0.389092,99.117216,6.824893,-65.654411
17376,NaN,-0.975716,10.013506,-0.319774,-1.092916,-0.654548,0.172313,-0.162949,0.714260,1.285522,0.523935,0.657821,-0.381518,-0.383676,99.058346,6.027193,-65.368728
17377,NaN,-1.620895,11.794111,-0.019230,-1.851785,-0.337983,1.942456,-0.284402,0.547158,1.277837,0.528341,0.655659,-0.383769,-0.379062,98.915996,5.252745,-65.176166
17378,NaN,-1.868562,11.225580,0.308198,-2.235067,-0.017015,1.349864,-0.157297,0.198486,1.284127,0.531657,0.653122,-0.387205,-0.375293,98.827787,4.502508,-65.181183
17379,NaN,-1.014356,10.851782,0.558834,-2.116431,-0.708815,0.869967,0.057568,-0.218343,1.252250,0.533374,0.650415,-0.392012,-0.372557,98.845192,3.810429,-65.419282
17380,NaN,-0.434172,10.175364,-0.084564,-1.282598,-0.776242,0.261276,0.188924,-0.397023,1.235987,0.534270,0.647721,-0.397490,-0.370154,98.935063,3.140239,-65.757983
17381,NaN,0.169141,10.064588,-0.855675,-0.391464,-0.906598,0.241193,0.216433,-0.423585,1.127952,0.534793,0.645249,-0.402704,-0.368075,99.043674,2.537512,-66.102748
17382,NaN,0.887351,10.001129,-1.782806,0.681089,-1.104213,0.301871,0.215545,-0.347527,1.068236,0.535353,0.643002,-0.407525,-0.365880,99.157583,1.958960,-66.400303
17383,NaN,0.567464,9.819733,-1.971506,0.689455,-0.641593,0.174720,0.147770,-0.306041,0.986103,0.536039,0.640807,-0.411816,-0.363917,99.236034,1.426949,-66.667471
17384,NaN,0.575311,9.690671,-2.014755,0.701078,-0.548432,0.061851,0.111965,-0.270402,0.873133,0.536704,0.638788,-0.415593,-0.362188,99.297392,0.952381,-66.904914
17385,NaN,0.927703,9.840215,-2.074098,0.829405,-0.797045,0.220692,0.108553,-0.173866,0.770283,0.537375,0.637146,-0.418750,-0.360446,99.359020,0.530730,-67.078427
17386,NaN,1.069700,10.212387,-1.795981,0.537775,-1.000579,0.549353,0.093708,-0.036188,0.673345,0.538208,0.635897,-0.421215,-0.358532,99.414388,0.147635,-67.165753
17387,NaN,1.100792,10.094148,-1.495141,0.259983,-1.079954,0.390489,0.066988,0.111226,0.595172,0.539281,0.635007,-0.422962,-0.356433,99.454446,-0.201495,-67.162450
17388,NaN,0.769933,9.893944,-1.386774,0.035077,-0.752687,0.179212,0.058562,0.217119,0.512537,0.540463,0.634443,-0.424163,-0.354214,99.489743,-0.517562,-67.092032
17389,NaN,0.385931,9.787265,-1.353511,-0.153546,-0.360550,0.067480,0.069370,0.238243,0.464623,0.541557,0.634052,-0.425151,-0.352052,99.530164,-0.804949,-67.005050
17390,NaN,0.156524,9.728829,-1.420987,-0.198233,-0.078496,0.018293,0.076435,0.200914,0.442656,0.542517,0.633646,-0.426200,-0.350030,99.574993,-1.080130,-66.937577
17391,NaN,0.134982,9.719464,-1.621610,-0.049521,0.059344,0.041736,0.094423,0.138940,0.454333,0.543295,0.633163,-0.427463,-0.348154,99.630105,-1.352353,-66.906175
17392,NaN,0.082332,9.611465,-1.827242,0.105928,0.232651,-0.032079,0.099271,0.090440,0.467326,0.543983,0.632566,-0.428925,-0.346362,99.689051,-1.630960,-66.903989
17393,NaN,0.277028,9.553030,-2.123890,0.433267,0.211523,-0.034375,0.087966,0.083274,0.469686,0.544682,0.631928,-0.430371,-0.344629,99.741194,-1.906533,-66.906051
17394,NaN,0.481972,9.552463,-2.145838,0.507181,0.073176,-0.023731,0.070959,0.146624,0.472208,0.545582,0.631333,-0.431641,-0.342703,99.782824,-2.193339,-66.873090
17395,NaN,0.627647,9.656371,-1.996059,0.386436,-0.079063,0.059895,0.049872,0.249736,0.476128,0.546765,0.630854,-0.432583,-0.340505,99.809360,-2.488773,-66.782108
17396,NaN,0.563473,9.702339,-1.771450,0.126658,-0.062619,0.065102,0.028572,0.327273,0.487181,0.548206,0.630410,-0.433328,-0.338054,99.821754,-2.801717,-66.648771
17397,NaN,0.503488,9.730895,-1.561574,-0.114422,-0.042305,0.054794,0.025068,0.365375,0.510099,0.549765,0.629976,-0.434010,-0.335446,99.829886,-3.127683,-66.495851
17398,NaN,0.415235,9.726544,-1.621329,-0.119514,0.114742,0.055395,0.025740,0.368656,0.531691,0.551369,0.629485,-0.434769,-0.332742,99.838020,-3.469845,-66.343499
17399,NaN,0.377670,9.667920,-1.646781,-0.126562,0.214186,-0.001418,0.022567,0.354487,0.568024,0.552997,0.628886,-0.435651,-0.330008,99.843649,-3.827485,-66.202402
17400,NaN,0.404735,9.649447,-1.405877,-0.355807,0.147879,-0.060594,0.035542,0.325123,0.603257,0.554581,0.628180,-0.436761,-0.327214,99.857682,-4.205795,-66.081695
17401,NaN,0.500797,9.780336,-1.373153,-0.400119,0.104479,0.067593,0.046327,0.287253,0.638974,0.556092,0.627367,-0.438080,-0.324435,99.878536,-4.596950,-65.985689
17402,NaN,0.490959,10.090188,-1.533491,-0.351565,0.242715,0.396210,0.044895,0.257391,0.668911,0.557592,0.626418,-0.439588,-0.321644,99.899998,-5.005699,-65.909952
17403,NaN,0.575181,10.293277,-1.705941,-0.235447,0.306313,0.629672,0.021061,0.255994,0.702405,0.559201,0.625328,-0.441141,-0.318833,99.907206,-5.429635,-65.838069
17404,NaN,0.710449,10.345124,-1.803119,-0.136341,0.298111,0.707273,-0.017844,0.260063,0.741294,0.561003,0.624030,-0.442755,-0.315960,99.892121,-5.879469,-65.767949
17405,NaN,0.714544,10.279729,-1.811392,-0.144937,0.374642,0.642099,-0.050700,0.278758,0.779640,0.562991,0.622585,-0.444358,-0.313010,99.856496,-6.349202,-65.690444
17406,NaN,0.722194,10.362234,-1.764117,-0.230578,0.433916,0.711923,-0.072036,0.294125,0.818503,0.565139,0.620995,-0.446015,-0.309925,99.807774,-6.845827,-65.607918
17407,NaN,0.609891,10.613165,-1.738202,-0.380867,0.623862,0.934289,-0.101329,0.294165,0.878123,0.567450,0.619188,-0.447785,-0.306749,99.741792,-7.372532,-65.530323
17408,NaN,0.491696,10.857221,-1.737262,-0.511547,0.841667,1.149430,-0.141556,0.267926,0.956225,0.569942,0.617026,-0.449816,-0.303497,99.655298,-7.944146,-65.474786
17409,NaN,0.524280,11.119304,-1.736367,-0.584209,0.938313,1.399171,-0.195677,0.235835,1.048521,0.572645,0.614447,-0.452111,-0.300214,99.540597,-8.561303,-65.445085
17410,NaN,0.531543,11.285061,-1.692057,-0.685971,1.050391,1.541728,-0.252588,0.207429,1.159939,0.575614,0.611380,-0.454747,-0.296798,99.397249,-9.242004,-65.441104
17411,NaN,0.552975,11.556980,-1.463326,-0.969609,1.095778,1.757446,-0.290906,0.184832,1.295567,0.578819,0.607846,-0.457769,-0.293155,99.235523,-9.993957,-65.460706
17412,NaN,0.341740,11.878263,-1.527479,-1.103773,1.504157,2.021995,-0.324945,0.187522,1.427545,0.582305,0.603874,-0.461128,-0.289167,99.056416,-10.824045,-65.489043
17413,NaN,-0.251516,12.195061,-2.000544,-1.034348,2.455311,2.257241,-0.347237,0.234405,1.562559,0.586119,0.599568,-0.464682,-0.284697,98.861211,-11.731637,-65.499646
17414,NaN,-0.624400,12.513491,-1.729194,-1.540874,2.907597,2.399395,-0.361975,0.295510,1.686833,0.590261,0.594965,-0.468391,-0.279676,98.652215,-12.717907,-65.482975
17415,NaN,-0.231572,13.297176,-1.120232,-2.151511,2.618780,3.095889,-0.333169,0.345512,1.801291,0.594540,0.590209,-0.472279,-0.274096,98.453902,-13.770279,-65.443281
17416,NaN,0.227328,14.038072,-0.323428,-2.907911,2.227728,3.744530,-0.355839,0.398700,2.005253,0.599238,0.584910,-0.476547,-0.267763,98.237710,-14.945159,-65.386104
17417,NaN,-0.110538,14.039705,0.447621,-3.796524,2.461018,3.485733,-0.408307,0.464243,2.141915,0.604353,0.579158,-0.480879,-0.260939,97.981301,-16.200008,-65.296205
17418,NaN,-0.537002,14.584784,0.740091,-4.431199,3.108095,3.761067,-0.444742,0.500510,2.293169,0.609783,0.572892,-0.485438,-0.253593,97.697465,-17.545365,-65.190527
17419,NaN,-1.276422,15.712308,1.725683,-5.954078,3.879183,4.363783,-0.509322,0.509961,2.467390,0.615542,0.565940,-0.490300,-0.245818,97.374077,-18.987592,-65.084515
17420,NaN,-2.118224,17.158238,2.692938,-7.586982,4.895312,5.173957,-0.667936,0.476572,2.706364,0.621855,0.557760,-0.495663,-0.237738,96.966175,-20.564306,-65.006067
17421,NaN,-2.878200,18.802244,3.393198,-9.001134,6.122418,6.149491,-0.855706,0.416335,2.962631,0.628702,0.548175,-0.501588,-0.229451,96.463853,-22.280472,-64.968614
17422,NaN,-3.507529,20.600526,3.108978,-9.530150,7.868440,7.321347,-1.011419,0.326432,3.202161,0.635867,0.537245,-0.508141,-0.220984,95.891523,-24.127966,-64.984598
17423,NaN,-2.989026,21.607076,1.006891,-7.799355,9.372465,8.300590,-1.043783,0.136920,3.416212,0.642675,0.525303,-0.515682,-0.212363,95.349996,-26.086104,-65.113956
17424,NaN,-4.371471,21.431704,-2.993401,-4.789466,12.913493,7.439502,-0.927243,0.021007,3.495354,0.648760,0.513235,-0.523752,-0.203428,94.906146,-28.084081,-65.304702
17425,NaN,-6.222011,20.186112,-6.856444,-1.755214,16.237297,5.234643,-0.751820,0.092786,3.516329,0.654387,0.501590,-0.531659,-0.193711,94.541793,-30.098902,-65.437906
17426,NaN,-5.099851,17.973069,-8.061082,0.271514,15.455905,3.416824,-0.602058,0.163166,3.618470,0.659709,0.490072,-0.539549,-0.183032,94.239039,-32.174003,-65.517710
17427,NaN,-3.930116,15.498520,-8.162965,1.388944,13.903848,1.457022,-0.393765,0.295109,3.629227,0.664662,0.479162,-0.547050,-0.171360,94.004770,-34.262790,-65.498890
17428,NaN,-3.318948,12.411256,-7.465778,1.778193,11.979550,-1.204492,-0.129748,0.419805,3.548049,0.669033,0.469315,-0.553976,-0.158898,93.863111,-36.306896,-65.379607
17429,NaN,-2.776112,9.107100,-6.731498,2.199517,9.804854,-3.898618,0.305224,0.488036,3.309043,0.672184,0.461484,-0.560305,-0.145805,93.928035,-38.220088,-65.195232
17430,NaN,-1.591029,7.810195,-5.466121,1.763803,7.853421,-4.463217,0.546151,0.212364,2.909365,0.673538,0.455287,-0.566660,-0.134002,94.243885,-39.890051,-65.196443
17431,NaN,3.144826,4.914536,-2.787050,1.781781,1.864138,-3.883258,0.600474,0.139877,2.631264,0.674249,0.449898,-0.572562,-0.123096,94.624059,-41.401936,-65.249294
17432,NaN,4.695035,3.992786,-3.409874,3.052744,0.701670,-3.503984,0.522907,0.179661,1.957056,0.674726,0.446163,-0.576671,-0.114604,94.921177,-42.526107,-65.241962
17433,NaN,0.975810,2.601193,-0.135682,-0.523029,0.925146,-7.242235,0.098456,0.483594,1.427936,0.676680,0.442634,-0.578297,-0.108408,94.789979,-43.367347,-64.964143
17434,NaN,0.672469,4.025569,0.919873,-2.069748,1.489423,-6.495872,-0.278428,0.798440,0.824662,0.680008,0.439751,-0.577280,-0.104666,94.237610,-43.872590,-64.391046
17435,NaN,1.363124,1.037238,-2.049430,1.852162,0.706217,-8.022482,-0.929717,0.413758,0.027627,0.683232,0.436714,-0.575472,-0.106331,93.483385,-43.906977,-64.069077
17436,NaN,-6.268769,0.406304,0.848209,-2.898283,3.911629,-13.872292,-0.987444,0.779797,-1.160435,0.686958,0.437098,-0.569749,-0.111442,92.466478,-43.264396,-63.410957
17437,NaN,-11.261813,-0.142199,-0.665526,-3.144586,7.600404,-17.534770,-1.124459,1.347346,-2.127718,0.691984,0.439999,-0.559823,-0.118985,91.080873,-42.072499,-62.314796
17438,NaN,-10.843291,-0.755150,-0.954205,-2.762709,7.187486,-17.543032,-0.555315,1.312636,-2.332539,0.695395,0.445370,-0.549786,-0.125725,90.093594,-40.741535,-61.299072
