// General information: 
//  MT Manager version: 2019.0.1 
//  XDA version: 2019.0.1 build 2740 rev 84096 built on 2019-01-30
// Device information: 
//  DeviceId: 00B4381A
//  ProductCode: MTW2-3A7G6
//  Firmware Version: 4.3.4
//  Hardware Version: 1.1.0
// Device settings: 
//  Filter Profile: human(46.1)
//  Option Flags: Orientation Smoother Disabled, AHS Disabled, ICC Disabled
// Coordinate system: ENU
PacketCounter,SampleTimeFine,Acc_X,Acc_Y,Acc_Z,FreeAcc_E,FreeAcc_N,FreeAcc_U,Gyr_X,Gyr_Y,Gyr_Z,Quat_q0,Quat_q1,Quat_q2,Quat_q3,Roll,Pitch,Yaw
34725,NaN,-2.801708,10.690419,-1.718133,0.991074,2.244392,1.099058,-0.920571,-0.135561,-0.036550,-0.173522,-0.273171,0.745133,0.583134,105.079511,3.439600,-142.369190
34726,NaN,-1.905384,10.197579,-1.924426,0.564806,1.371812,0.633495,-0.918328,-0.529806,0.168366,-0.173193,-0.270154,0.743178,0.587118,104.539235,3.428296,-142.699229
34727,NaN,-1.100429,9.847188,-2.170920,0.206579,0.562490,0.313075,-0.863092,-0.822529,0.374675,-0.172342,-0.265638,0.741866,0.591074,104.020584,3.343021,-143.209623
34728,NaN,-0.568050,9.725616,-2.311235,-0.043876,0.056953,0.199618,-0.770991,-1.017469,0.541558,-0.171089,-0.259909,0.741208,0.594799,103.547210,3.185123,-143.862065
34729,NaN,-0.340115,9.736056,-2.506388,-0.047296,-0.275744,0.242637,-0.730022,-1.066061,0.649040,-0.169956,-0.253744,0.740792,0.598294,103.098378,2.970532,-144.543058
34730,NaN,-0.499507,9.744887,-2.719864,0.272861,-0.392817,0.305644,-0.676400,-1.113956,0.704027,-0.168695,-0.247186,0.740628,0.601591,102.680220,2.724292,-145.266518
34731,NaN,-0.602839,9.815343,-2.644627,0.379176,-0.302196,0.358973,-0.685212,-1.178191,0.726353,-0.167303,-0.240409,0.740456,0.604928,102.259649,2.470222,-146.016324
34732,NaN,-0.465986,9.675658,-2.736794,0.411484,-0.517485,0.231605,-0.712621,-1.245496,0.740936,-0.165693,-0.233266,0.740246,0.608415,101.823981,2.208623,-146.812943
34733,NaN,-0.287572,9.515382,-2.734598,0.354021,-0.680282,0.062259,-0.693020,-1.268251,0.724457,-0.163950,-0.226187,0.740030,0.611813,101.403998,1.954844,-147.608951
34734,NaN,0.077539,9.272859,-2.735805,0.140973,-0.949793,-0.192178,-0.614784,-1.228726,0.710766,-0.162173,-0.219252,0.739978,0.614866,101.032369,1.696942,-148.389413
34735,NaN,0.392914,9.024685,-2.907668,0.040711,-1.319806,-0.415340,-0.441519,-1.137674,0.687157,-0.160501,-0.212891,0.740301,0.617148,100.765832,1.440097,-149.104430
34736,NaN,0.837837,8.833422,-3.156494,-0.158530,-1.791047,-0.568137,-0.198216,-0.991331,0.687877,-0.159076,-0.207099,0.741239,0.618360,100.643037,1.162968,-149.744547
34737,NaN,1.269987,8.813707,-3.238849,-0.461096,-2.060133,-0.575398,0.054049,-0.768933,0.768909,-0.158491,-0.201953,0.742826,0.618308,100.671117,0.818004,-150.259316
34738,NaN,1.457509,8.435334,-3.315230,-0.520338,-2.233316,-0.923863,0.221174,-0.538269,0.798264,-0.158648,-0.197470,0.744773,0.617373,100.799211,0.430422,-150.656526
34739,NaN,1.506225,8.036596,-3.425797,-0.445621,-2.352685,-1.277033,0.545616,-0.324116,0.858672,-0.159496,-0.193744,0.747575,0.614944,101.116828,-0.010771,-150.932586
34740,NaN,2.017232,7.625002,-3.740402,-0.682353,-2.843903,-1.587982,1.036063,-0.103761,1.033134,-0.161195,-0.190358,0.751864,0.610311,101.717281,-0.575152,-151.116584
34741,NaN,2.434444,7.337235,-4.002637,-0.876835,-3.184943,-1.758654,1.566679,0.154292,1.207255,-0.163906,-0.187586,0.757656,0.603244,102.621899,-1.263420,-151.176072
34742,NaN,1.663253,7.493373,-4.017688,-0.190328,-2.609217,-1.553721,2.166195,0.327357,1.333722,-0.167047,-0.185255,0.765151,0.593565,103.869162,-2.046510,-151.176641
34743,NaN,0.748609,8.222992,-3.829291,0.462688,-1.600133,-0.865037,2.719989,0.265517,1.410400,-0.169657,-0.182941,0.774240,0.581636,105.436082,-2.860265,-151.233724
34744,NaN,0.305513,9.201578,-3.449956,0.572379,-0.520735,-0.011805,2.939314,0.101625,1.411021,-0.171365,-0.180211,0.783934,0.568863,107.136863,-3.649141,-151.413577
34745,NaN,0.107336,10.109937,-2.967420,0.414352,0.558259,0.700907,2.819803,-0.119096,1.372591,-0.172189,-0.176932,0.793218,0.556643,108.780032,-4.369704,-151.721134
34746,NaN,0.199570,10.825475,-2.046884,-0.185781,1.811107,1.054614,2.480437,-0.303248,1.218629,-0.172087,-0.173334,0.801430,0.545941,110.240869,-4.966363,-152.128969
34747,NaN,0.666913,11.053224,-1.531468,-0.875838,2.362317,1.078186,1.998037,-0.248130,0.989581,-0.172002,-0.170446,0.807925,0.537234,111.422057,-5.439263,-152.463949
34748,NaN,0.912996,10.884700,-1.349486,-1.172489,2.546284,0.830163,1.489006,-0.091475,0.747320,-0.172295,-0.168431,0.812650,0.530609,112.302072,-5.813436,-152.680441
34749,NaN,0.842049,10.476145,-1.492311,-1.012966,2.458482,0.464186,1.045824,0.046441,0.533146,-0.172966,-0.167333,0.815840,0.525821,112.916873,-6.099229,-152.772712
34750,NaN,0.736249,10.046713,-1.990655,-0.653689,2.042671,0.229265,0.735037,0.146002,0.365466,-0.173837,-0.166834,0.817980,0.522356,113.344430,-6.320929,-152.785481
34751,NaN,0.934610,9.584991,-2.795746,-0.417553,1.201499,0.134344,0.573333,0.172190,0.294782,-0.174784,-0.166623,0.819589,0.519578,113.676205,-6.508750,-152.761034
34752,NaN,1.160681,9.241220,-3.391414,-0.308986,0.548942,0.079325,0.512697,0.180495,0.274952,-0.175778,-0.166450,0.820999,0.517065,113.969929,-6.689952,-152.728440
34753,NaN,1.370516,8.961480,-3.977591,-0.192675,-0.063308,0.085100,0.534259,0.192416,0.328708,-0.176925,-0.166115,0.822501,0.514389,114.279081,-6.900500,-152.703352
34754,NaN,1.427713,8.931527,-4.063559,-0.190724,-0.102326,0.100727,0.578138,0.149286,0.413793,-0.178090,-0.165346,0.824204,0.511500,114.616312,-7.147066,-152.722256
34755,NaN,1.078674,8.878731,-4.167655,0.180932,0.028693,0.052941,0.657786,0.055509,0.510345,-0.179031,-0.164017,0.826272,0.508253,115.011029,-7.419441,-152.815507
34756,NaN,0.871858,9.159213,-3.887030,0.220143,0.545493,0.157953,0.678308,-0.091160,0.591193,-0.179568,-0.161987,0.828564,0.504973,115.428586,-7.698982,-153.007154
34757,NaN,0.930943,9.453228,-3.723028,0.081922,0.857156,0.353391,0.547068,-0.208861,0.650074,-0.179852,-0.159306,0.830671,0.502256,115.784863,-7.976781,-153.277131
34758,NaN,0.916595,9.547805,-3.731362,0.114668,0.967728,0.432983,0.340057,-0.284660,0.673474,-0.180058,-0.156137,0.832320,0.500443,116.028031,-8.247911,-153.593898
34759,NaN,0.925137,9.490281,-3.834313,0.190092,0.908902,0.422583,0.151403,-0.354989,0.677228,-0.180109,-0.152615,0.833561,0.499445,116.172589,-8.500534,-153.949561
34760,NaN,1.055084,9.399485,-3.909029,0.152622,0.786905,0.390318,-0.016147,-0.423113,0.686659,-0.180041,-0.148721,0.834429,0.499196,116.225902,-8.741721,-154.343472
34761,NaN,1.262507,9.379097,-3.928182,0.020156,0.694207,0.410300,-0.163612,-0.447464,0.696138,-0.179986,-0.144601,0.834954,0.499548,116.201260,-8.979964,-154.753050
34762,NaN,1.049099,9.234806,-3.899606,0.254224,0.748574,0.235396,-0.263242,-0.472416,0.696595,-0.179911,-0.140315,0.835226,0.500341,116.120662,-9.214014,-155.175505
34763,NaN,1.155259,9.153800,-3.996863,0.253524,0.591400,0.221622,-0.310751,-0.524089,0.682916,-0.179601,-0.135920,0.835412,0.501355,116.020874,-9.427166,-155.621596
34764,NaN,1.375782,9.287966,-3.838128,0.026162,0.685016,0.307599,-0.347223,-0.567373,0.672911,-0.179121,-0.131415,0.835508,0.502565,115.902391,-9.626577,-156.087305
34765,NaN,1.335341,9.384936,-3.777322,0.078968,0.786966,0.360934,-0.397755,-0.619978,0.670555,-0.178430,-0.126747,0.835516,0.503995,115.763688,-9.811238,-156.580054
34766,NaN,1.445242,9.526158,-3.702796,-0.008670,0.856206,0.473892,-0.442925,-0.648169,0.665088,-0.177646,-0.121979,0.835398,0.505641,115.600136,-9.988756,-157.085653
34767,NaN,1.684337,9.571777,-3.595398,-0.222365,0.856067,0.512052,-0.498316,-0.625289,0.653932,-0.176944,-0.117272,0.835104,0.507484,115.406517,-10.166303,-157.576478
34768,NaN,1.753186,9.548383,-3.495916,-0.274191,0.878983,0.464405,-0.559084,-0.607291,0.632384,-0.176308,-0.112635,0.834592,0.509594,115.173959,-10.340280,-158.051713
34769,NaN,1.737200,9.358170,-3.572745,-0.176191,0.710423,0.327416,-0.579557,-0.554036,0.588109,-0.175774,-0.108306,0.833947,0.511767,114.926795,-10.504760,-158.487788
34770,NaN,1.655420,9.328421,-3.688002,-0.009642,0.604773,0.335966,-0.516597,-0.500352,0.501839,-0.175220,-0.104519,0.833338,0.513732,114.704644,-10.640448,-158.873504
34771,NaN,1.443606,9.336957,-3.868546,0.291966,0.508539,0.379682,-0.453379,-0.462355,0.394372,-0.174497,-0.101339,0.832803,0.515481,114.513834,-10.729180,-159.213009
34772,NaN,1.682015,9.278341,-4.277378,0.259096,0.037111,0.538359,-0.363950,-0.386485,0.301208,-0.173818,-0.098811,0.832360,0.516914,114.359876,-10.789667,-159.489172
34773,NaN,2.006990,9.186550,-4.558551,0.084471,-0.364557,0.630542,-0.209901,-0.259749,0.220816,-0.173366,-0.097087,0.832175,0.517690,114.281231,-10.837272,-159.678974
34774,NaN,1.978001,9.059283,-4.659079,0.156787,-0.497053,0.551600,0.006494,-0.080299,0.128034,-0.173330,-0.096392,0.832334,0.517577,114.301553,-10.880168,-159.750702
34775,NaN,2.048925,8.963669,-4.839494,0.159163,-0.693273,0.553609,0.328337,0.062398,0.038608,-0.173487,-0.096726,0.833171,0.516114,114.490929,-10.908689,-159.725526
34776,NaN,1.759835,9.266161,-4.698969,0.362551,-0.293785,0.714465,0.693922,0.194705,-0.068790,-0.173753,-0.098157,0.834764,0.513170,114.868705,-10.914424,-159.603802
34777,NaN,1.429288,9.902480,-4.245730,0.468337,0.557121,1.031562,0.898347,0.207093,-0.134612,-0.173785,-0.100079,0.836838,0.509397,115.362168,-10.888576,-159.459647
34778,NaN,1.317543,10.710170,-3.769933,0.346685,1.444333,1.520842,0.933094,0.267823,-0.226762,-0.173828,-0.102561,0.838868,0.505534,115.862372,-10.832632,-159.259734
34779,NaN,1.233976,11.307360,-3.353731,0.203634,2.172401,1.843429,0.818269,0.308202,-0.338545,-0.173799,-0.105519,0.840509,0.502200,116.290496,-10.729676,-159.009963
34780,NaN,0.849193,11.724801,-2.990015,0.343445,2.858052,1.970575,0.602131,0.292161,-0.480395,-0.173469,-0.108837,0.841515,0.499916,116.586890,-10.552438,-158.730817
34781,NaN,0.766190,11.927326,-2.545420,0.167761,3.363768,1.933965,0.235895,0.270865,-0.590415,-0.172959,-0.112251,0.841565,0.499252,116.674310,-10.313268,-158.434001
34782,NaN,0.790660,11.887532,-2.265708,-0.031450,3.534062,1.788213,-0.188689,0.218644,-0.666392,-0.172287,-0.115481,0.840532,0.500488,116.517504,-10.022318,-158.144553
34783,NaN,0.916354,11.712442,-2.225160,-0.212715,3.363223,1.659660,-0.617157,0.128778,-0.737297,-0.171293,-0.118418,0.838463,0.503603,116.125656,-9.670048,-157.885779
34784,NaN,1.194520,11.331793,-2.419185,-0.417213,2.805995,1.485070,-1.021975,0.140161,-0.789923,-0.170458,-0.121248,0.835287,0.508468,115.496588,-9.291658,-157.610800
34785,NaN,1.080489,10.868469,-2.745384,-0.193141,2.217694,1.226792,-1.332140,0.193998,-0.871075,-0.169810,-0.124289,0.831202,0.514607,114.689166,-8.880436,-157.293119
34786,NaN,0.729041,10.504945,-2.847954,0.159887,1.924462,0.923411,-1.557230,0.173161,-0.975990,-0.168942,-0.127506,0.826407,0.521779,113.749375,-8.405015,-156.967885
34787,NaN,0.645707,10.120447,-2.888446,0.241953,1.563000,0.612208,-1.659313,0.086472,-1.071954,-0.167506,-0.130801,0.821303,0.529427,112.763350,-7.853886,-156.675753
34788,NaN,0.828752,9.789046,-3.000808,0.104771,1.058435,0.404067,-1.713916,0.044056,-1.183999,-0.165593,-0.134324,0.815928,0.537399,111.747024,-7.229970,-156.399295
34789,NaN,0.829845,9.679439,-2.798157,-0.013560,0.973257,0.250039,-1.746644,0.079544,-1.314353,-0.163502,-0.138493,0.810260,0.545495,110.714100,-6.538067,-156.080876
34790,NaN,0.677793,9.410337,-2.926055,0.146868,0.613877,0.044959,-1.778903,0.035064,-1.377718,-0.161032,-0.142693,0.804392,0.553769,109.666098,-5.798356,-155.794535
34791,NaN,0.639937,9.236171,-2.956789,0.154335,0.328290,-0.100670,-1.778025,0.005143,-1.462049,-0.158214,-0.147193,0.798392,0.562026,108.627056,-5.001494,-155.515055
34792,NaN,0.783305,9.047089,-2.944604,-0.023758,0.005084,-0.266508,-1.732863,-0.011782,-1.513855,-0.155098,-0.151805,0.792384,0.570112,107.615911,-4.169188,-155.258212
34793,NaN,0.945874,8.837701,-3.094296,-0.153504,-0.458911,-0.413935,-1.622949,-0.052597,-1.524758,-0.151716,-0.156473,0.786615,0.577698,106.677021,-3.319013,-155.028482
34794,NaN,1.094729,8.786217,-3.043804,-0.368111,-0.684838,-0.482464,-1.474200,-0.045813,-1.518455,-0.148213,-0.161170,0.781179,0.584651,105.824190,-2.470524,-154.817254
34795,NaN,1.337016,8.556135,-3.164966,-0.582652,-1.129823,-0.680691,-1.309309,0.047846,-1.510754,-0.144981,-0.166276,0.776083,0.590786,105.070782,-1.636985,-154.559823
34796,NaN,1.656995,8.341408,-3.436216,-0.803340,-1.711016,-0.837319,-1.017715,0.224821,-1.516486,-0.142126,-0.172056,0.771644,0.595619,104.483526,-0.824021,-154.222146
34797,NaN,1.721437,8.258655,-3.345005,-0.956987,-1.805826,-0.970770,-0.675420,0.441374,-1.457268,-0.140013,-0.178550,0.768062,0.598830,104.099018,-0.070809,-153.770806
34798,NaN,0.998876,8.506130,-3.021185,-0.542751,-1.247907,-0.833452,-0.366306,0.603527,-1.407697,-0.138350,-0.185473,0.765289,0.600659,103.895402,0.633533,-153.249228
34799,NaN,-0.427843,9.128628,-2.324490,0.268789,0.057009,-0.387109,-0.163656,0.628721,-1.430108,-0.136555,-0.192756,0.763036,0.601643,103.817095,1.349337,-152.703060
34800,NaN,-1.602783,9.831879,-1.578548,0.780769,1.317526,0.156234,-0.164266,0.459616,-1.511073,-0.133825,-0.199754,0.760777,0.602833,103.740917,2.132773,-152.250492
34801,NaN,-1.532562,10.193168,-1.122238,0.335580,1.663669,0.416003,-0.385283,0.246193,-1.616402,-0.130215,-0.206421,0.757832,0.605083,103.542130,3.006035,-151.894550
34802,NaN,-0.698645,10.224215,-0.873048,-0.639809,1.372313,0.360294,-0.688283,0.209249,-1.653658,-0.126611,-0.212828,0.753908,0.608521,103.171926,3.905662,-151.568884
34803,NaN,-0.558060,10.063858,-1.013058,-0.782753,1.008289,0.236522,-0.981407,0.313406,-1.649976,-0.123756,-0.219410,0.748953,0.612872,102.644996,4.793546,-151.181554
34804,NaN,-0.932962,9.797778,-1.331503,-0.354447,0.705930,0.087453,-1.197715,0.382812,-1.611957,-0.121457,-0.225831,0.743270,0.617899,101.999931,5.654555,-150.779108
34805,NaN,-1.076707,9.623699,-1.314276,-0.278005,0.591019,-0.062171,-1.383721,0.331691,-1.508163,-0.119531,-0.231648,0.737072,0.623520,101.251358,6.469162,-150.416956
34806,NaN,-0.966808,9.280702,-1.492446,-0.275590,0.163868,-0.368751,-1.499718,0.250470,-1.351472,-0.117863,-0.236457,0.730678,0.629528,100.430108,7.208123,-150.140236
34807,NaN,-0.974348,8.835298,-1.797523,-0.070363,-0.308672,-0.749549,-1.456965,0.077807,-1.152495,-0.116180,-0.240083,0.724674,0.635382,99.622294,7.857118,-149.980325
34808,NaN,-1.067812,8.533793,-1.980211,0.139192,-0.595344,-1.008621,-1.346041,-0.158491,-0.900157,-0.114249,-0.242009,0.719420,0.640948,98.853703,8.386180,-149.999137
34809,NaN,-1.239301,8.246548,-2.392177,0.532267,-1.014217,-1.213220,-1.125593,-0.447748,-0.615619,-0.111967,-0.242177,0.715329,0.645847,98.184313,8.779518,-150.203381
34810,NaN,-0.987413,8.188380,-2.514993,0.383629,-1.351012,-1.305241,-0.862149,-0.610784,-0.378785,-0.109483,-0.241022,0.712458,0.649866,97.644787,9.047906,-150.537393
34811,NaN,-0.569481,8.333499,-2.263067,-0.120096,-1.404771,-1.274254,-0.645372,-0.758646,-0.088321,-0.107212,-0.238553,0.710683,0.653091,97.212902,9.160780,-150.967921
34812,NaN,-0.547533,8.342816,-1.975675,-0.260160,-1.216610,-1.312239,-0.534494,-0.752275,0.139513,-0.105517,-0.235265,0.709540,0.655797,96.840434,9.139347,-151.423772
34813,NaN,-0.542147,8.182078,-2.073285,-0.164254,-1.346520,-1.464119,-0.428218,-0.700535,0.315453,-0.104511,-0.231658,0.708892,0.657939,96.533935,9.013060,-151.849503
34814,NaN,-0.391308,8.016953,-1.853310,-0.331643,-1.245441,-1.676461,-0.274497,-0.664281,0.507558,-0.104026,-0.227478,0.708961,0.659399,96.317056,8.771603,-152.278367
34815,NaN,-0.350412,7.974786,-1.740407,-0.371134,-1.164658,-1.734650,-0.116090,-0.615902,0.669774,-0.104125,-0.223047,0.709676,0.660127,96.197038,8.435076,-152.676209
34816,NaN,-0.387578,7.998864,-1.757257,-0.290453,-1.144328,-1.699372,0.038504,-0.594742,0.822196,-0.104570,-0.218135,0.711064,0.660204,96.167659,8.008200,-153.082588
34817,NaN,-0.318483,8.061641,-1.897287,-0.250701,-1.263633,-1.625431,0.197999,-0.597611,0.990918,-0.105442,-0.212775,0.713123,0.659594,96.232358,7.487223,-153.488778
34818,NaN,0.018760,8.312979,-1.722452,-0.607974,-1.194304,-1.429600,0.293637,-0.621625,1.163578,-0.106636,-0.206677,0.715685,0.658565,96.351899,6.868214,-153.931943
34819,NaN,0.062539,8.543902,-1.652466,-0.642584,-1.073794,-1.200723,0.341007,-0.530221,1.292094,-0.108581,-0.200521,0.718432,0.657158,96.509230,6.173061,-154.319985
34820,NaN,-0.089686,8.823484,-1.718244,-0.438016,-0.978477,-0.887224,0.339508,-0.427587,1.349262,-0.111029,-0.194402,0.721156,0.655602,96.675170,5.437681,-154.665937
34821,NaN,-0.427644,8.985298,-1.730505,-0.062060,-0.763598,-0.684430,0.259315,-0.329492,1.315736,-0.113843,-0.188755,0.723476,0.654212,96.805178,4.717672,-154.943686
34822,NaN,-0.790098,9.167987,-1.549580,0.261739,-0.374062,-0.492387,0.102180,-0.332787,1.248333,-0.116525,-0.183165,0.725203,0.653417,96.847791,4.034613,-155.229748
34823,NaN,-0.536516,9.153627,-1.333904,0.042780,-0.244565,-0.550210,-0.122373,-0.334387,1.179205,-0.119219,-0.177761,0.726090,0.653438,96.766097,3.392935,-155.501330
34824,NaN,-0.113470,8.998572,-1.069960,-0.330710,-0.170649,-0.757714,-0.340682,-0.375892,1.180063,-0.121907,-0.171997,0.726277,0.654276,96.560680,2.750734,-155.805957
34825,NaN,0.151143,8.713733,-0.990287,-0.473465,-0.224394,-1.057278,-0.517853,-0.333474,1.142331,-0.124821,-0.166477,0.725780,0.655704,96.258749,2.128130,-156.069874
34826,NaN,0.297082,8.599307,-0.885060,-0.535164,-0.202027,-1.181841,-0.598153,-0.321744,1.116367,-0.127711,-0.160956,0.724973,0.657417,95.913256,1.516020,-156.331916
34827,NaN,0.535892,8.542137,-0.959481,-0.617848,-0.379112,-1.230756,-0.601138,-0.279467,1.088415,-0.130703,-0.155744,0.724065,0.659084,95.570111,0.918025,-156.554488
34828,NaN,0.451593,8.576879,-1.223412,-0.341022,-0.591485,-1.164183,-0.521556,-0.259974,1.011334,-0.133403,-0.150845,0.723330,0.660487,95.274277,0.359486,-156.768262
34829,NaN,0.021606,8.671400,-1.574815,0.271691,-0.740464,-1.034812,-0.377052,-0.276566,0.841084,-0.135409,-0.146676,0.722924,0.661462,95.063796,-0.099719,-156.970375
34830,NaN,-0.047666,8.897259,-1.833522,0.494865,-0.930482,-0.789699,-0.191831,-0.387093,0.706636,-0.136386,-0.142667,0.723106,0.661938,94.960893,-0.479556,-157.238330
34831,NaN,0.521089,9.008391,-1.944072,0.060350,-1.228973,-0.664581,-0.002569,-0.455785,0.646610,-0.136826,-0.138857,0.723893,0.661798,94.968758,-0.819585,-157.531480
34832,NaN,1.087752,9.098345,-1.850451,-0.463153,-1.316933,-0.569412,0.274828,-0.448462,0.621202,-0.136969,-0.135271,0.725577,0.660666,95.137063,-1.147377,-157.829974
34833,NaN,1.628370,9.251381,-1.729348,-0.983384,-1.331407,-0.405776,0.614510,-0.359744,0.653797,-0.137353,-0.132170,0.728316,0.658196,95.500719,-1.494789,-158.070856
34834,NaN,2.167356,9.345436,-1.801958,-1.433228,-1.490165,-0.272998,0.997172,-0.224635,0.744108,-0.138232,-0.129367,0.732270,0.654168,96.083024,-1.901989,-158.252191
34835,NaN,2.357379,9.604332,-1.729018,-1.616569,-1.328424,0.006165,1.331357,-0.064843,0.819672,-0.139758,-0.127110,0.737206,0.648720,96.855221,-2.357964,-158.342816
34836,NaN,2.228122,10.076845,-1.476176,-1.572931,-0.821447,0.460327,1.578487,0.171742,0.796841,-0.141880,-0.125791,0.742725,0.642188,97.763922,-2.819701,-158.313305
34837,NaN,2.383262,10.448185,-1.247222,-1.787450,-0.431932,0.818192,1.657963,0.426195,0.753543,-0.144782,-0.125572,0.748216,0.635171,98.710339,-3.275473,-158.133772
34838,NaN,2.278841,10.766314,-0.851375,-1.825517,0.201724,1.071049,1.566449,0.680307,0.688906,-0.148445,-0.126248,0.753140,0.628336,99.594147,-3.723831,-157.820541
34839,NaN,1.775664,10.877712,-0.507142,-1.481390,0.885991,1.084719,1.363689,0.898309,0.564367,-0.152683,-0.127994,0.757113,0.622162,100.350594,-4.124918,-157.368904
34840,NaN,1.393609,10.778671,-0.432798,-1.153802,1.214046,0.934540,1.129410,1.063597,0.394078,-0.157124,-0.130622,0.760085,0.616864,100.961918,-4.456493,-156.820953
34841,NaN,1.275300,10.634795,-0.224858,-1.133140,1.515265,0.732229,0.846287,1.149372,0.204598,-0.161515,-0.134094,0.761933,0.612691,101.402967,-4.692687,-156.195858
34842,NaN,1.515319,10.414040,-0.207503,-1.368647,1.446553,0.522960,0.573726,1.223455,0.028456,-0.165796,-0.138151,0.762742,0.609631,101.680040,-4.845906,-155.519881
34843,NaN,1.817533,10.136447,-0.440125,-1.556989,1.078360,0.319322,0.348162,1.302758,-0.156480,-0.169992,-0.143048,0.762624,0.607490,101.821665,-4.903621,-154.768256
34844,NaN,2.201870,9.789081,-0.755090,-1.776923,0.555163,0.075628,0.180999,1.381879,-0.310778,-0.174102,-0.148532,0.761796,0.606047,101.861024,-4.888997,-153.964623
34845,NaN,2.537227,9.413778,-1.348849,-1.817095,-0.220052,-0.141815,0.100279,1.496924,-0.428080,-0.178375,-0.154824,0.760482,0.604879,101.848945,-4.818628,-153.071776
34846,NaN,2.637486,8.999301,-1.932276,-1.634340,-0.898569,-0.421265,0.144908,1.779502,-0.596477,-0.183131,-0.162539,0.758879,0.603446,101.848209,-4.691007,-152.012057
34847,NaN,3.145210,8.854612,-1.795272,-2.143710,-1.091715,-0.553529,0.263020,1.879293,-0.593666,-0.188196,-0.170738,0.757457,0.601407,101.913887,-4.573304,-150.884778
34848,NaN,2.774620,9.104855,-1.289969,-2.079936,-0.464468,-0.446846,0.335018,1.874978,-0.478804,-0.193474,-0.178430,0.756300,0.598950,102.022878,-4.525685,-149.786422
34849,NaN,2.141948,9.423467,-1.266765,-1.569109,-0.084350,-0.193691,0.288733,1.885377,-0.489809,-0.198817,-0.186244,0.754891,0.596595,102.106616,-4.470506,-148.668038
34850,NaN,2.242368,9.532462,-1.253044,-1.680478,-0.122795,-0.085045,0.301026,1.698372,-0.466798,-0.203453,-0.193287,0.753684,0.594312,102.205973,-4.412332,-147.671769
34851,NaN,2.661783,9.858082,-0.743883,-2.338838,0.114074,0.154105,0.246272,1.603692,-0.419007,-0.207954,-0.199920,0.752376,0.592214,102.280267,-4.366045,-146.720197
34852,NaN,2.441082,9.932443,-0.830068,-2.122481,0.142457,0.226034,0.088085,1.705973,-0.451536,-0.212862,-0.206708,0.750404,0.590639,102.255532,-4.317657,-145.717298
34853,NaN,1.740489,10.162586,-0.309111,-1.864146,0.946534,0.288385,-0.147879,1.708251,-0.531828,-0.217792,-0.213627,0.747592,0.589946,102.100610,-4.219741,-144.693535
34854,NaN,1.084040,10.278595,0.282293,-1.696449,1.729675,0.238860,-0.549839,1.764752,-0.740065,-0.222707,-0.220943,0.743241,0.590913,101.709182,-4.010206,-143.624060
34855,NaN,0.967085,9.982834,0.414637,-1.685103,1.713903,-0.066652,-0.890989,1.710122,-1.015653,-0.226979,-0.228810,0.737560,0.593407,101.132890,-3.627293,-142.546188
34856,NaN,1.525704,10.006178,0.981316,-2.494271,1.636548,-0.091021,-1.297709,1.769128,-1.300221,-0.231035,-0.237315,0.730174,0.597621,100.323370,-3.080651,-141.420041
34857,NaN,1.985223,9.909074,1.038532,-2.892709,1.134187,-0.140619,-1.755349,1.997798,-1.549221,-0.235699,-0.246930,0.720718,0.603355,99.262454,-2.394103,-140.140012
34858,NaN,2.107658,9.952938,1.047343,-2.984493,0.766063,-0.060939,-2.216364,2.319351,-1.786773,-0.241246,-0.257597,0.709036,0.610501,97.945443,-1.580229,-138.692167
34859,NaN,2.233400,10.067288,0.978514,-3.003420,0.280369,0.096059,-2.719702,2.674890,-1.957891,-0.248143,-0.269407,0.694845,0.618898,96.360711,-0.651483,-137.032223
34860,NaN,2.216865,10.384536,0.996827,-2.945110,-0.095930,0.436467,-3.251051,3.018131,-2.078912,-0.256418,-0.281804,0.678050,0.628558,94.492610,0.374208,-135.209537
34861,NaN,2.271320,10.591759,0.965010,-2.843278,-0.636809,0.664005,-3.813968,3.276108,-2.144401,-0.266005,-0.294416,0.658611,0.639368,92.344852,1.495213,-133.263507
34862,NaN,2.355541,11.042577,1.244098,-2.930067,-1.056549,1.109773,-4.377288,3.462211,-2.144543,-0.276845,-0.306595,0.636555,0.651271,89.908513,2.688085,-131.257012
34863,NaN,2.006714,11.442654,1.419085,-2.579636,-1.307304,1.526173,-4.993394,3.593599,-2.110494,-0.288857,-0.317980,0.611774,0.664216,87.170701,3.955712,-129.227983
34864,NaN,1.692753,11.800881,1.599889,-2.179425,-1.649443,1.898952,-5.678279,3.657698,-2.113852,-0.301839,-0.328189,0.583883,0.678429,84.077067,5.326405,-127.227602
34865,NaN,2.052594,11.981334,1.644136,-1.984023,-2.648428,1.996278,-6.376239,3.627424,-2.021234,-0.315752,-0.336572,0.553069,0.693638,80.630697,6.756725,-125.313843
34866,NaN,2.743627,11.958520,1.362119,-1.584825,-4.089343,1.723158,-7.008677,3.616366,-1.742689,-0.331208,-0.342584,0.519666,0.709144,76.852376,8.143250,-123.465554
34867,NaN,3.308255,11.660088,0.974215,-0.922237,-5.368264,1.054534,-7.495686,3.737210,-1.320580,-0.348709,-0.346582,0.484204,0.723761,72.851670,9.438709,-121.577778
34868,NaN,3.187857,11.149510,0.704777,0.040911,-5.840257,0.226049,-7.828800,3.917609,-0.828028,-0.368385,-0.348763,0.447143,0.736696,68.710308,10.627456,-119.589622
34869,NaN,2.632517,10.543010,0.459914,1.159008,-5.744616,-0.654274,-7.989779,4.250723,-0.430864,-0.389784,-0.350344,0.408711,0.747183,64.561335,11.825018,-117.414588
34870,NaN,1.851409,10.182662,0.519191,2.117191,-5.276644,-1.152821,-7.841218,4.558313,0.001403,-0.412395,-0.351707,0.370126,0.754480,60.576262,13.028484,-115.047160
34871,NaN,0.994220,9.981632,0.977302,2.735968,-4.583847,-1.267254,-7.629523,4.703523,0.398177,-0.435531,-0.352661,0.332012,0.758756,56.796125,14.238771,-112.561359
34872,NaN,0.219503,9.357336,1.164455,3.264367,-3.782497,-1.815287,-7.425671,4.653596,0.766933,-0.458792,-0.352507,0.294753,0.760506,53.183118,15.408975,-110.048832
34873,NaN,-0.809342,8.350494,1.120568,3.703172,-2.534664,-2.637942,-7.106612,4.425537,1.102224,-0.481552,-0.351127,0.259295,0.759989,49.794757,16.497684,-107.582108
34874,NaN,-1.837111,7.272435,0.856730,4.034949,-1.173840,-3.541761,-6.578504,4.102073,1.482059,-0.503629,-0.348658,0.226837,0.757193,46.730248,17.428728,-105.165169
34875,NaN,-2.983311,6.423380,0.733124,4.179708,0.286428,-4.056059,-5.872228,3.705775,1.864777,-0.524736,-0.345591,0.198411,0.752231,44.095582,18.161817,-102.795433
34876,NaN,-3.914451,5.883060,0.918596,4.052369,1.449492,-4.133700,-5.159219,3.298596,2.234774,-0.545002,-0.342043,0.174122,0.745427,41.878386,18.671496,-100.457842
34877,NaN,-4.421787,5.409027,1.219840,3.684688,2.177291,-4.157772,-4.518321,2.959454,2.528430,-0.564424,-0.338437,0.153494,0.737106,40.045822,19.005335,-98.133721
34878,NaN,-5.365928,5.037019,1.136467,3.609528,3.323095,-4.210659,-3.913972,2.701377,2.663614,-0.582678,-0.335166,0.135908,0.727791,38.550998,19.237266,-95.854071
34879,NaN,-6.295136,4.879456,2.032184,2.955664,4.191754,-3.389348,-3.344742,2.328975,2.746468,-0.599624,-0.331959,0.121541,0.717971,37.359542,19.324354,-93.676427
34880,NaN,-6.474258,4.572899,2.914623,2.108421,4.342884,-2.883398,-2.696561,1.883312,2.798346,-0.615098,-0.328855,0.110839,0.707972,36.488458,19.225464,-91.639685
34881,NaN,-6.155086,4.412039,3.232013,1.696847,4.092775,-2.872557,-1.937503,1.422711,2.833974,-0.628940,-0.326335,0.104272,0.697902,36.001745,18.925413,-89.750464
34882,NaN,-5.502521,4.609508,4.015088,1.311183,3.327737,-2.406495,-1.257128,1.116101,2.818000,-0.641268,-0.324769,0.100963,0.687828,35.850962,18.498600,-87.981718
34883,NaN,-4.902817,4.972434,4.530598,1.236893,2.655832,-2.021406,-0.671405,1.002404,2.741561,-0.652165,-0.324674,0.099907,0.677707,36.001549,18.044539,-86.293637
34884,NaN,-4.262524,5.406835,4.415246,1.592027,2.122066,-2.075907,-0.129720,0.951525,2.637409,-0.661668,-0.326138,0.100636,0.667609,36.422773,17.595245,-84.682334
34885,NaN,-3.946536,5.898765,4.384474,1.914682,1.872302,-1.912024,0.295114,1.082184,2.507143,-0.669983,-0.329467,0.102145,0.657375,37.073451,17.235233,-83.093479
34886,NaN,-4.404947,6.437919,4.895789,1.854713,2.181060,-1.059446,0.577582,1.313236,2.383689,-0.677416,-0.334488,0.103559,0.646917,37.880013,17.005658,-81.487780
34887,NaN,-5.265616,7.069234,5.266007,1.834582,2.887918,-0.131688,0.787796,1.523744,2.216475,-0.683935,-0.340937,0.104667,0.636427,38.804458,16.905372,-79.886424
34888,NaN,-6.058959,7.587621,5.310710,1.860339,3.621238,0.478443,0.913200,1.589360,1.991667,-0.689427,-0.348070,0.105520,0.626420,39.772603,16.892655,-78.367941
34889,NaN,-6.658694,8.032375,5.867975,1.529921,3.976189,1.373673,0.896434,1.515439,1.706297,-0.693905,-0.355014,0.106088,0.617419,40.687907,16.927125,-77.007761
34890,NaN,-6.857658,8.150817,6.647654,0.897499,3.850305,2.104542,0.769488,1.400070,1.375914,-0.697430,-0.361291,0.106036,0.609768,41.473138,17.019814,-75.842398
34891,NaN,-6.738796,8.104556,7.195924,0.376339,3.488322,2.457758,0.627230,1.235607,1.084746,-0.700178,-0.366691,0.105616,0.603436,42.124099,17.136489,-74.870044
34892,NaN,-6.561629,8.199362,7.192298,0.342581,3.280743,2.480861,0.501277,0.966283,0.912552,-0.702440,-0.370910,0.105405,0.598242,42.648448,17.199863,-74.082214
34893,NaN,-6.661466,8.561127,7.047987,0.557063,3.407897,2.653954,0.346186,0.628931,0.748532,-0.704305,-0.373643,0.105638,0.594294,43.024128,17.175763,-73.502481
34894,NaN,-6.453572,8.687212,6.340288,1.045909,3.504952,2.184667,0.135750,0.267758,0.591620,-0.705880,-0.374647,0.106190,0.591690,43.213342,17.063679,-73.140798
34895,NaN,-5.782719,8.265923,5.845235,1.163837,3.104957,1.364821,-0.053633,0.072988,0.418953,-0.707203,-0.374486,0.106578,0.590140,43.249125,16.933023,-72.933854
34896,NaN,-5.127451,7.779853,5.608838,1.103264,2.613425,0.686298,-0.055119,-0.024260,0.279405,-0.708047,-0.374121,0.107009,0.589281,43.253463,16.821410,-72.828839
34897,NaN,-4.674643,7.529254,5.510364,1.086716,2.250905,0.319366,0.083219,-0.095924,0.166889,-0.708278,-0.374079,0.107925,0.588863,43.315082,16.719138,-72.801376
34898,NaN,-4.647969,7.554944,5.646176,1.013930,2.179989,0.423506,0.244046,-0.107396,0.052439,-0.707845,-0.374653,0.109106,0.588800,43.452633,16.662379,-72.829527
34899,NaN,-4.475284,7.696287,5.978367,0.945454,1.890805,0.700769,0.348670,-0.141286,-0.043867,-0.706931,-0.375530,0.110569,0.589067,43.634623,16.624338,-72.912610
34900,NaN,-4.519844,7.957524,6.591209,0.732266,1.681768,1.315231,0.425742,-0.153987,-0.153155,-0.705519,-0.376723,0.112063,0.589715,43.845585,16.630206,-73.049202
34901,NaN,-4.896310,8.746895,7.452863,0.665095,1.684306,2.546432,0.464959,-0.240959,-0.234748,-0.703759,-0.377819,0.113861,0.590772,44.058793,16.627527,-73.256097
34902,NaN,-5.042544,9.324754,7.589497,0.954459,1.771524,3.068673,0.210507,-0.501557,-0.264729,-0.702215,-0.377288,0.115730,0.592583,44.091831,16.535811,-73.585094
34903,NaN,-4.595299,9.007821,7.670328,0.812872,1.357497,2.780467,-0.228214,-0.785304,-0.289328,-0.701273,-0.374359,0.117283,0.595245,43.838116,16.330400,-74.040987
34904,NaN,-4.373035,8.259928,7.729908,0.339437,1.191721,2.252331,-0.521708,-1.079749,-0.265840,-0.700735,-0.369529,0.118999,0.598547,43.388158,15.996963,-74.606837
34905,NaN,-3.909537,7.199263,7.378179,-0.042276,0.992222,1.167434,-0.708632,-1.467434,-0.195663,-0.700508,-0.362794,0.121674,0.602382,42.801711,15.462872,-75.294519
34906,NaN,-2.650381,6.070534,7.053668,-0.313241,0.054608,-0.141748,-0.708331,-1.708402,-0.112290,-0.700309,-0.355285,0.125298,0.606334,42.208872,14.794199,-76.035569
34907,NaN,-1.598489,5.496064,6.944853,-0.391909,-0.768303,-0.854590,-0.448812,-1.707064,0.013665,-0.699997,-0.348552,0.129955,0.609613,41.789358,14.065258,-76.711213
34908,NaN,-0.704095,5.352213,6.704042,-0.145349,-1.414679,-1.323721,-0.159437,-1.575235,0.149505,-0.699610,-0.343148,0.135222,0.611973,41.571791,13.343523,-77.269980
34909,NaN,0.005152,5.281375,6.470736,0.075775,-1.910824,-1.682160,0.111979,-1.360903,0.293992,-0.699326,-0.339205,0.140849,0.613225,41.550331,12.651456,-77.677398
34910,NaN,0.341010,5.324267,6.316863,0.227702,-2.094158,-1.817152,0.450230,-1.137205,0.504090,-0.699219,-0.336992,0.147043,0.613113,41.765369,11.981606,-77.906618
34911,NaN,0.051369,6.235947,8.032108,-0.280650,-2.204155,0.110300,0.737904,-0.912695,0.767817,-0.699587,-0.336238,0.153809,0.611444,42.188321,11.301779,-77.935627
34912,NaN,-0.494174,7.761746,8.313201,0.472899,-1.613104,1.446542,0.748970,-0.838350,0.896641,-0.700336,-0.335657,0.160523,0.609177,42.632722,10.609179,-77.885917
34913,NaN,-0.330600,8.081849,9.465375,-0.067808,-1.944036,2.484992,0.147944,-0.900468,0.906746,-0.702059,-0.332735,0.165667,0.607417,42.728294,9.880939,-77.858980
34914,NaN,-0.488955,7.332578,9.729750,-0.846755,-1.744157,2.225285,-0.342173,-0.900313,0.807422,-0.704252,-0.328183,0.169119,0.606402,42.535396,9.196248,-77.874677
34915,NaN,0.563375,5.865734,9.053577,-1.260209,-2.534101,0.612312,-0.637919,-0.607308,0.597661,-0.706535,-0.323624,0.170325,0.605859,42.177943,8.711607,-77.861592
34916,NaN,0.726251,5.470617,9.225175,-1.582057,-2.683954,0.475752,-0.536011,-0.185431,0.435614,-0.708494,-0.320852,0.170052,0.605123,41.892544,8.473242,-77.752597
34917,NaN,-0.521207,7.023457,9.030510,-0.513664,-1.297011,1.554124,-0.441975,0.036724,0.268320,-0.709991,-0.319207,0.169038,0.604522,41.663549,8.389654,-77.628305
34918,NaN,-1.341804,8.421742,8.067778,1.033611,-0.139105,1.880327,-0.873222,-0.192908,0.090981,-0.711426,-0.315496,0.167220,0.605287,41.162426,8.279498,-77.669226
34919,NaN,-1.685886,7.600893,6.568779,1.385629,0.556803,0.263659,-1.400849,-0.540259,-0.184629,-0.712553,-0.309062,0.164629,0.607985,40.324325,8.117060,-77.960148
34920,NaN,-1.522240,5.557534,5.630903,0.559658,0.539553,-1.793677,-1.485904,-1.077714,-0.456619,-0.712479,-0.300907,0.163234,0.612522,39.393887,7.817756,-78.569110
34921,NaN,0.088094,4.276741,5.465835,0.069450,-1.011659,-2.946481,-0.918107,-1.396159,-0.560184,-0.710926,-0.293845,0.164571,0.617378,38.772404,7.402036,-79.335171
34922,NaN,2.112350,4.378005,6.357595,0.008219,-3.107373,-2.437612,-0.339382,-1.330876,-0.414365,-0.708970,-0.288917,0.167639,0.621117,38.499056,6.961411,-80.008562
34923,NaN,4.171355,5.446642,10.485517,-1.293881,-5.831745,1.202228,0.205965,-0.595953,-0.111533,-0.707771,-0.287927,0.170254,0.622232,38.590812,6.736990,-80.279128
34924,NaN,1.677923,7.447775,9.226083,0.561800,-3.014799,1.763174,0.444632,0.435866,0.308234,-0.708398,-0.290638,0.170540,0.620176,38.884715,6.827128,-79.989512
34925,NaN,0.980569,6.061072,8.709325,-0.347361,-2.320792,0.581719,-0.007546,0.301387,0.660198,-0.710656,-0.291020,0.170432,0.617436,38.933575,6.726771,-79.589781
34926,NaN,0.723858,5.714580,10.530749,-1.759799,-2.476519,1.799673,0.171537,0.779172,0.784389,-0.713425,-0.293406,0.169337,0.613403,39.110730,6.795959,-78.961508
34927,NaN,-0.974709,6.782024,11.223772,-1.659212,-0.942525,3.197966,-0.220474,1.059099,0.624239,-0.716494,-0.295372,0.165820,0.609832,39.069842,7.044299,-78.302337
34928,NaN,-2.141980,5.804933,9.521808,-1.578927,0.421060,1.424705,-0.778639,0.994219,0.368871,-0.719523,-0.295342,0.160429,0.607719,38.693412,7.360105,-77.782485
34929,NaN,-2.798394,4.554544,7.662827,-1.526471,1.328294,-0.691344,-0.764581,0.722437,0.247037,-0.721921,-0.294623,0.155894,0.606403,38.308951,7.598742,-77.416809
34930,NaN,-2.680527,4.492542,6.612067,-0.894097,1.429820,-1.551714,-0.451657,0.470441,0.179429,-0.723438,-0.294316,0.153090,0.605458,38.086943,7.752223,-77.173608
34931,NaN,-2.960726,5.697356,7.446286,-0.474773,1.581053,-0.120029,-0.055086,0.584124,0.014728,-0.723956,-0.295912,0.150857,0.604620,38.090081,8.013202,-76.964441
34932,NaN,-3.067263,6.963876,8.102540,0.127382,1.586031,1.188347,-0.019149,0.548792,-0.267300,-0.723531,-0.297742,0.148414,0.604835,38.092998,8.360712,-76.896827
34933,NaN,-1.154585,6.719358,7.119748,0.939960,-0.088715,-0.000345,-0.000949,0.440624,-0.251532,-0.723046,-0.299295,0.146467,0.605124,38.103919,8.651080,-76.859970
34934,NaN,-0.478515,7.486839,7.590246,1.426355,-0.852028,0.729263,0.220344,0.735376,-0.138822,-0.722772,-0.302457,0.144264,0.604407,38.264387,9.037124,-76.666248
34935,NaN,-1.161118,7.511153,7.038322,1.596378,-0.115545,0.421641,0.175405,0.831230,0.029039,-0.723137,-0.305618,0.141857,0.602949,38.420022,9.403141,-76.359682
34936,NaN,-0.709485,6.959151,8.725802,0.293482,-1.108603,1.311946,0.076967,0.696719,0.225937,-0.724132,-0.307876,0.139915,0.601056,38.526461,9.640667,-76.011640
34937,NaN,-0.107057,5.927467,5.307649,1.578540,-0.861703,-2.061359,0.185577,0.878659,0.467866,-0.725807,-0.310896,0.138033,0.597909,38.727827,9.869450,-75.486234
34938,NaN,-1.965108,7.752148,7.778118,1.100486,0.348500,1.283427,0.381344,0.620461,0.572040,-0.727288,-0.313779,0.137812,0.594645,39.033702,9.945782,-75.007177
34939,NaN,-0.976243,8.849600,8.649770,1.677978,-0.763086,2.462859,-0.009164,0.692019,0.458408,-0.729085,-0.315522,0.136009,0.591931,39.113601,10.090919,-74.552276
34940,NaN,-2.402779,7.011314,6.774138,0.965797,0.946962,0.136743,-0.528271,0.771952,0.352077,-0.731420,-0.315682,0.132189,0.589827,38.893367,10.312888,-74.116565
34941,NaN,-2.621243,5.158739,6.044987,-0.092637,1.171339,-1.527477,-0.465873,0.422462,0.314581,-0.733307,-0.315052,0.129789,0.588352,38.684745,10.391489,-73.825575
34942,NaN,-1.784507,4.907728,5.933828,0.018177,0.383921,-1.917572,-0.140317,0.277207,0.237167,-0.734347,-0.315244,0.128737,0.587182,38.646387,10.435973,-73.623229
34943,NaN,-1.809874,4.721087,6.298839,-0.336802,0.265372,-1.746969,-0.009481,0.249044,0.116638,-0.734813,-0.315904,0.128001,0.586405,38.672003,10.508481,-73.485492
34944,NaN,-1.490481,4.172461,6.296923,-0.681580,-0.108314,-2.144187,0.161025,0.152458,0.078588,-0.734829,-0.316938,0.128040,0.585818,38.785245,10.553897,-73.400609
34945,NaN,-0.659612,4.039693,6.515140,-0.699192,-0.987450,-2.214188,0.509083,0.135878,0.130960,-0.734439,-0.319159,0.129262,0.584832,39.101854,10.570144,-73.297432
34946,NaN,-1.595369,5.117370,8.777522,-1.465045,-0.729216,0.341064,0.909790,0.238769,0.214911,-0.733704,-0.323100,0.131389,0.583113,39.661261,10.603183,-73.118717
34947,NaN,-3.396379,7.958988,11.641005,-1.531698,0.304049,4.607900,0.988169,0.392082,0.079553,-0.732536,-0.327850,0.132981,0.581568,40.266146,10.749050,-72.942250
34948,NaN,-4.110493,8.815395,10.821969,-0.686319,1.279858,4.665337,0.204638,0.064360,-0.141813,-0.731773,-0.328923,0.133108,0.581893,40.379928,10.835303,-72.987443
34949,NaN,-2.372102,6.911526,9.111540,-0.638639,-0.000176,1.849564,-0.415453,-0.227596,-0.195039,-0.731684,-0.326908,0.132432,0.583294,40.114382,10.810963,-73.165962
34950,NaN,-1.571273,5.419944,8.728768,-1.286359,-0.761472,0.473286,-0.484647,-0.298807,-0.165049,-0.731737,-0.324413,0.131840,0.584752,39.805651,10.746151,-73.358156
34951,NaN,-2.022880,4.919397,8.250913,-1.487587,-0.214573,-0.111604,-0.276895,-0.198521,-0.228991,-0.731333,-0.323008,0.131407,0.586131,39.618963,10.745419,-73.540788
34952,NaN,-2.671368,5.045856,8.424429,-1.643611,0.364532,0.223921,-0.127335,-0.247874,-0.360131,-0.730262,-0.322092,0.131357,0.587979,39.501928,10.772941,-73.801328
34953,NaN,-1.023125,5.241295,8.483391,-1.056984,-1.162090,0.087717,-0.196412,-0.653996,-0.263260,-0.729319,-0.319661,0.132765,0.590156,39.327474,10.582127,-74.167964
34954,NaN,-0.339456,4.848309,9.272725,-1.610407,-2.052815,0.326205,-0.308839,-0.408727,-0.225195,-0.728818,-0.317515,0.132980,0.591882,39.107420,10.487797,-74.426846
34955,NaN,-0.428420,4.028712,7.772574,-1.388712,-1.561958,-1.300427,-0.441530,-0.282182,-0.138912,-0.728867,-0.315200,0.132503,0.593165,38.829204,10.415010,-74.599127
34956,NaN,0.209906,2.928338,7.349743,-1.819356,-2.129065,-2.410326,-0.195743,-0.124281,0.014112,-0.729081,-0.314142,0.132395,0.593488,38.712632,10.359584,-74.644688
34957,NaN,-0.325044,3.583054,7.579762,-1.584895,-1.623004,-1.734901,0.323253,0.052450,0.158160,-0.729025,-0.315409,0.133434,0.592651,38.919111,10.329044,-74.559735
34958,NaN,-0.869130,5.484033,7.798994,-0.408927,-0.997567,-0.299975,0.543690,0.246682,0.277581,-0.729099,-0.317964,0.134580,0.590934,39.271534,10.343324,-74.350309
34959,NaN,-2.246863,7.147186,8.468504,0.082849,0.249555,1.491155,0.366956,0.331173,0.312636,-0.729607,-0.320106,0.134976,0.589055,39.534059,10.379145,-74.093099
34960,NaN,-4.197785,8.195217,8.901190,0.083435,2.050720,2.828582,0.122037,0.210929,0.169050,-0.730000,-0.321087,0.134834,0.588067,39.633923,10.415436,-73.945524
34961,NaN,-3.162773,8.333566,8.232891,0.855114,1.302365,2.220784,-0.253588,-0.181250,0.086274,-0.730487,-0.319608,0.134910,0.588251,39.488449,10.306814,-73.979951
34962,NaN,-0.729642,7.524244,7.752549,1.200241,-0.897325,0.911236,-0.534993,-0.194136,0.200306,-0.731744,-0.316978,0.134361,0.588237,39.187574,10.153201,-73.968024
34963,NaN,0.532429,6.423272,7.546901,0.856711,-2.108458,-0.152578,-0.608824,0.117267,0.376478,-0.733839,-0.314879,0.132760,0.587117,38.881143,10.072411,-73.760797
34964,NaN,0.316552,5.782957,7.436111,0.414135,-1.926791,-0.595621,-0.494804,0.515485,0.433537,-0.736175,-0.314317,0.130097,0.585086,38.667692,10.151835,-73.382767
34965,NaN,-0.740649,5.607259,7.335405,0.080630,-0.928209,-0.596949,-0.426666,0.703521,0.400848,-0.738418,-0.314579,0.126910,0.582814,38.506021,10.326493,-72.950842
34966,NaN,-1.001506,5.201917,6.931846,-0.052079,-0.622352,-1.110773,-0.370058,0.651358,0.415804,-0.740568,-0.314874,0.124081,0.580532,38.373320,10.475087,-72.531785
34967,NaN,-0.836532,5.064918,6.947497,-0.094840,-0.817208,-1.213617,-0.224828,0.690597,0.485116,-0.742702,-0.315780,0.121656,0.577821,38.335703,10.615700,-72.066321
34968,NaN,-1.582210,5.651705,7.249197,-0.017063,-0.163826,-0.486979,-0.069518,0.749172,0.535881,-0.744758,-0.317386,0.119519,0.574732,38.394047,10.765954,-71.556764
34969,NaN,-1.175307,6.031356,8.619953,-0.328762,-0.977004,0.722942,-0.207671,0.768871,0.580787,-0.747157,-0.318510,0.117002,0.571506,38.382241,10.907412,-71.018667
34970,NaN,-2.079892,6.308750,7.716534,0.109822,0.177271,0.367070,-0.343601,0.999431,0.464806,-0.749556,-0.319832,0.113026,0.568417,38.297899,11.195538,-70.450480
34971,NaN,-2.847037,5.824391,6.817121,-0.009929,1.099911,-0.469654,-0.528832,0.734614,0.413326,-0.751933,-0.319739,0.109451,0.566025,38.088841,11.382691,-70.001319
34972,NaN,-2.002411,5.495271,7.549052,-0.333466,-0.005141,-0.268869,-0.496473,0.601292,0.405571,-0.754147,-0.319378,0.106433,0.563855,37.886822,11.515505,-69.604718
34973,NaN,-1.896861,5.853670,7.628358,-0.021842,-0.086880,-0.012318,-0.442130,0.678192,0.448128,-0.756420,-0.319420,0.103366,0.561352,37.728768,11.667854,-69.160520
34974,NaN,-2.317602,6.137480,8.223163,-0.215926,0.108967,0.704047,-0.451148,0.700649,0.433307,-0.758662,-0.319481,0.100141,0.558870,37.564554,11.838382,-68.715935
34975,NaN,-2.581006,6.093958,8.492044,-0.442059,0.221394,0.942224,-0.481155,0.689576,0.445817,-0.760964,-0.319395,0.096913,0.556354,37.387160,11.999231,-68.269136
34976,NaN,-2.781139,5.911206,8.613319,-0.679523,0.311793,0.971897,-0.516122,0.548587,0.481980,-0.763338,-0.318749,0.094158,0.553939,37.181246,12.086387,-67.856477
34977,NaN,-2.152463,5.198472,8.827573,-1.077377,-0.480051,0.588849,-0.453788,0.614908,0.572608,-0.765880,-0.318485,0.091487,0.551022,37.027890,12.172121,-67.377541
34978,NaN,-2.492356,5.052961,7.048566,-0.427022,0.470349,-0.811414,-0.204426,0.724101,0.645589,-0.768258,-0.319426,0.089176,0.547535,37.031046,12.284990,-66.826483
34979,NaN,-2.933956,4.591270,6.587325,-0.745181,0.940881,-1.348640,-0.007103,0.538600,0.716273,-0.770414,-0.320589,0.088251,0.543963,37.143513,12.286349,-66.307071
34980,NaN,-1.817977,4.414789,5.925222,-0.155229,0.161165,-2.206541,0.300321,0.396761,0.806712,-0.772245,-0.322495,0.088828,0.540134,37.427359,12.191897,-65.796612
34981,NaN,-0.252282,3.906463,5.802984,0.096704,-1.295719,-2.934435,0.488965,0.449437,0.998459,-0.774291,-0.325186,0.090042,0.535369,37.843320,12.049216,-65.178485
34982,NaN,-1.225968,3.901639,6.472483,-0.685850,-0.735357,-2.222757,0.889729,0.970774,0.981104,-0.775834,-0.330805,0.090253,0.529627,38.523646,12.143624,-64.381636
34983,NaN,-3.143491,4.952865,5.734510,-0.418378,1.448310,-1.748979,0.933219,0.650287,1.019021,-0.777212,-0.335717,0.091904,0.524204,39.210770,12.070192,-63.683585
34984,NaN,-0.312030,3.989342,6.239112,-0.257311,-1.483379,-2.555169,0.908229,0.316722,1.363212,-0.779331,-0.339468,0.095333,0.517993,39.884527,11.717822,-62.956634
34985,NaN,-0.784543,3.892151,6.197381,-0.604731,-1.092478,-2.559283,1.146181,0.755344,1.475086,-0.781479,-0.345209,0.097875,0.510433,40.736029,11.504077,-62.018786
34986,NaN,-2.494620,4.361942,6.508727,-1.318031,0.316165,-1.702560,1.351751,0.891772,1.472476,-0.783247,-0.352054,0.100370,0.502502,41.708862,11.337469,-61.034381
34987,NaN,-1.897615,5.429503,6.976231,-0.650966,-0.207648,-0.797195,1.489022,0.942838,1.438337,-0.784614,-0.359550,0.102961,0.494473,42.760723,11.186685,-60.047807
34988,NaN,-1.731379,6.526491,6.899906,0.095638,-0.121083,-0.159957,1.462336,1.369266,1.215437,-0.785595,-0.368050,0.103373,0.486512,43.808223,11.285786,-58.988935
34989,NaN,-2.478784,6.349746,6.627355,-0.391836,0.472551,-0.325546,1.394679,1.704914,0.947261,-0.786110,-0.377200,0.101820,0.478940,44.829059,11.608903,-57.902115
34990,NaN,-2.841859,5.803265,6.476176,-0.983222,0.542096,-0.733575,1.571765,2.143561,0.590750,-0.785532,-0.388205,0.098251,0.471787,45.966569,12.236123,-56.771766
34991,NaN,-3.415621,5.763486,6.034833,-1.195247,1.013951,-0.933439,1.911337,2.369845,0.262024,-0.783465,-0.401168,0.093963,0.465208,47.311232,13.062878,-55.659965
34992,NaN,-2.741809,5.918766,5.368519,-0.487995,0.634322,-1.402923,2.202414,2.375281,0.075900,-0.780189,-0.415261,0.089905,0.459109,48.825285,13.946404,-54.595106
34993,NaN,-1.647440,6.151879,4.598971,0.561730,0.032281,-1.977604,2.532544,2.306348,0.143691,-0.776134,-0.430349,0.087018,0.452598,50.552372,14.742422,-53.505485
34994,NaN,-1.036875,7.120304,5.829199,0.723721,-1.187068,-0.657768,2.994350,2.080106,0.440550,-0.771412,-0.446441,0.086638,0.445093,52.562639,15.292591,-52.382640
34995,NaN,-2.377619,8.848777,6.611581,0.351298,-0.571192,1.465753,3.180419,2.133745,0.581373,-0.766337,-0.463159,0.086776,0.436671,54.717909,15.753383,-51.161070
34996,NaN,-4.106207,10.316151,6.783342,-0.199486,0.589217,3.183319,2.898531,1.306518,0.584591,-0.761318,-0.476832,0.089422,0.430150,56.609629,15.906118,-50.327985
34997,NaN,-4.114514,10.720795,8.206897,-1.034200,-0.500474,4.254609,2.163889,0.638820,0.596233,-0.757625,-0.486183,0.093065,0.425404,57.994110,15.820927,-49.820785
34998,NaN,-2.568666,9.382854,7.385555,-0.560261,-1.487952,2.297276,1.458307,0.858093,0.414551,-0.755282,-0.493351,0.093900,0.421113,58.986095,15.882835,-49.261552
34999,NaN,-1.814112,8.732452,6.291049,0.046852,-1.547999,0.991163,1.334353,1.121079,0.472647,-0.753431,-0.500548,0.093642,0.415963,59.952571,15.980612,-48.547785
35000,NaN,-2.252133,9.375475,5.939479,0.181578,-1.025355,1.463909,1.443645,1.237544,0.763507,-0.751897,-0.508203,0.093868,0.409352,61.019971,15.956646,-47.687204
35001,NaN,-1.767424,9.627498,5.040893,0.983637,-0.836656,1.121334,1.363156,1.596934,0.992176,-0.751113,-0.516136,0.093172,0.400940,62.112661,15.897299,-46.573497
35002,NaN,-2.132386,9.184979,4.272520,0.803170,-0.223141,0.505632,1.310168,1.967683,1.093670,-0.750729,-0.524474,0.091202,0.391170,63.232304,15.865584,-45.238232
35003,NaN,-3.598198,9.093965,4.188391,-0.347787,0.686359,0.798298,1.524917,2.121249,1.152020,-0.749824,-0.533808,0.089235,0.380592,64.502980,15.813372,-43.806110
35004,NaN,-5.093076,9.563913,3.518436,-1.004889,2.051228,1.348031,1.890544,2.133090,1.075599,-0.747642,-0.544441,0.087673,0.370039,65.975580,15.773341,-42.389381
35005,NaN,-6.536667,10.448449,3.286715,-1.738923,3.038265,2.452498,2.080683,1.919582,0.714463,-0.744011,-0.555438,0.086281,0.361235,67.504478,15.836852,-41.175250
35006,NaN,-7.746998,11.181452,3.376237,-2.548319,3.546886,3.504811,1.904968,1.530147,0.116494,-0.739485,-0.565227,0.084319,0.355767,68.838889,16.109487,-40.307454
35007,NaN,-7.784967,10.918094,3.220440,-2.737223,3.385791,3.272388,1.595524,1.175748,-0.460435,-0.734563,-0.573422,0.081501,0.353499,69.915774,16.599096,-39.750985
35008,NaN,-7.624327,10.128058,3.122584,-2.946210,3.042753,2.537021,1.442284,0.734776,-0.956418,-0.728949,-0.580415,0.078571,0.354370,70.809972,17.266446,-39.533395
35009,NaN,-7.625908,9.967713,3.355179,-3.118815,2.633527,2.520233,1.407987,0.108580,-1.315710,-0.722489,-0.586267,0.076843,0.358324,71.563057,18.005621,-39.730301
35010,NaN,-7.398610,9.993937,3.510184,-2.963484,2.188929,2.571289,1.439376,-0.462742,-1.592747,-0.715134,-0.591248,0.076379,0.364932,72.212682,18.801337,-40.299232
35011,NaN,-7.418288,10.426018,3.849262,-2.897202,1.793551,3.107719,1.523754,-1.151627,-1.658704,-0.707053,-0.595218,0.078363,0.373699,72.772671,19.514821,-41.271542
35012,NaN,-6.891598,10.202677,3.636323,-2.432232,1.531934,2.699245,1.608881,-2.148448,-1.458226,-0.698553,-0.597425,0.084569,0.384650,73.187173,19.965012,-42.786383
35013,NaN,-3.954746,10.428652,3.956509,-0.457220,-0.638817,1.995509,1.214991,-2.731147,-1.331959,-0.691059,-0.596935,0.092451,0.396936,73.259012,20.249693,-44.619874
35014,NaN,-2.197538,10.858201,4.150046,0.788793,-2.001100,1.820270,0.923231,-2.427196,-1.216394,-0.684632,-0.595839,0.098983,0.407992,73.220572,20.527757,-46.259581
35015,NaN,-0.233228,11.273743,4.810396,1.815528,-3.909945,1.663676,0.698615,-1.515013,-1.181968,-0.679299,-0.595729,0.102064,0.416224,73.237140,20.931375,-47.360621
35016,NaN,-1.431873,9.954903,2.751487,1.795141,-1.615204,0.330717,0.323096,-0.548322,-1.211183,-0.675458,-0.596316,0.100948,0.421869,73.229346,21.516079,-47.902917
35017,NaN,-2.947541,8.969099,1.730412,1.119182,0.144250,-0.281016,0.155656,0.108909,-1.095117,-0.672673,-0.597650,0.097639,0.425197,73.274761,22.140568,-48.036805
35018,NaN,-2.541405,9.203807,1.358356,1.778881,0.029878,-0.333883,0.015879,0.692414,-0.969934,-0.670827,-0.599664,0.092406,0.426445,73.376779,22.797232,-47.802958
35019,NaN,-3.467571,8.880652,0.091690,1.908671,1.521040,-0.596338,0.073994,1.101938,-0.876585,-0.669172,-0.602686,0.086234,0.426076,73.621475,23.463805,-47.303293
35020,NaN,-4.732603,8.503606,-0.640680,1.434904,2.845615,-0.595214,0.161605,1.257104,-0.933655,-0.667154,-0.606316,0.079520,0.425397,73.955726,24.188910,-46.715192
35021,NaN,-6.757045,7.593906,-1.874037,0.526384,5.076032,-0.824240,0.325177,1.105175,-1.122182,-0.664142,-0.610212,0.073118,0.425688,74.344998,24.986092,-46.241880
35022,NaN,-8.209825,8.513001,0.986223,-1.679030,3.630740,1.360503,0.707743,0.856656,-1.301053,-0.659432,-0.614871,0.067770,0.427189,74.884498,25.845945,-45.941296
35023,NaN,-7.363139,9.387093,1.380002,-0.927288,2.521515,1.892789,0.418754,0.507199,-0.965833,-0.656185,-0.617685,0.064018,0.428705,75.196663,26.461352,-45.791061
35024,NaN,-7.418213,9.363277,1.664447,-1.069800,2.247652,1.988732,-0.004103,-0.190292,-1.065755,-0.653768,-0.617630,0.061299,0.432856,75.065580,27.035194,-46.088873
35025,NaN,-7.950589,9.501712,2.007606,-1.430688,2.271900,2.447629,-0.062022,-0.625331,-0.889158,-0.651776,-0.616369,0.060459,0.437747,74.788193,27.439706,-46.630432
35026,NaN,-6.360578,8.810411,1.641178,-0.453602,1.633691,1.045371,-0.447927,-1.214764,-0.799857,-0.650942,-0.612509,0.060926,0.444292,74.120546,27.706824,-47.529951
35027,NaN,-6.453948,8.482110,2.034737,-0.775895,1.489588,0.907236,-0.558340,-1.166568,-1.052604,-0.649877,-0.608432,0.060255,0.451486,73.375728,28.104470,-48.450663
35028,NaN,-6.457330,8.877006,2.515528,-0.703267,1.110344,1.371933,-0.646137,-1.257236,-1.312408,-0.648391,-0.603896,0.058840,0.459822,72.517706,28.624467,-49.488674
35029,NaN,-6.054734,9.180069,2.386484,-0.029416,0.922669,1.402147,-0.905582,-1.379015,-1.424319,-0.647349,-0.598204,0.056923,0.468883,71.449010,29.161762,-50.639000
35030,NaN,-5.728117,8.994557,2.342497,0.310068,0.807052,1.070699,-1.246821,-1.451012,-1.486204,-0.647051,-0.591181,0.054201,0.478426,70.136217,29.704762,-51.867292
35031,NaN,-5.679565,8.364734,2.237489,0.300039,1.004503,0.489153,-1.509616,-1.444768,-1.546133,-0.647311,-0.583241,0.050690,0.488108,68.648386,30.248047,-53.125869
35032,NaN,-5.807424,7.789871,1.929824,0.350050,1.458040,-0.020920,-1.521504,-1.442334,-1.563559,-0.647428,-0.575178,0.047036,0.497789,67.128896,30.779171,-54.411634
35033,NaN,-5.293520,7.308700,1.683970,0.708135,1.396288,-0.767293,-1.350991,-1.411018,-1.489896,-0.647166,-0.567630,0.043955,0.506991,65.707775,31.243365,-55.679129
35034,NaN,-5.019844,7.325385,1.572660,1.118298,1.307284,-0.959950,-1.035730,-1.216688,-1.427990,-0.646097,-0.561512,0.041167,0.515333,64.518453,31.704330,-56.830355
35035,NaN,-5.583368,7.946852,1.472829,1.487187,1.685394,-0.250235,-0.863232,-1.064139,-1.443306,-0.644492,-0.556280,0.038330,0.523176,63.459493,32.185226,-57.908308
35036,NaN,-6.354463,8.349745,1.230933,1.742660,2.330133,0.343233,-0.834516,-1.052997,-1.499642,-0.642569,-0.551134,0.035325,0.531139,62.393436,32.687718,-59.014451
35037,NaN,-6.702502,8.143079,1.094300,1.753271,2.701528,0.289523,-0.790258,-1.205463,-1.551522,-0.640319,-0.545665,0.032827,0.539596,61.278004,33.150353,-60.244774
35038,NaN,-6.856807,7.842519,0.904536,1.825955,2.984399,0.040964,-0.600671,-1.419713,-1.600540,-0.637278,-0.540182,0.031341,0.548724,60.173744,33.564583,-61.637534
35039,NaN,-6.502743,7.639241,0.956461,2.005179,2.716840,-0.317793,-0.357219,-1.656769,-1.626688,-0.633417,-0.534744,0.031251,0.558440,59.110672,33.893830,-63.194197
35040,NaN,-6.217704,7.635657,1.168039,2.168045,2.347317,-0.425776,-0.075585,-1.754940,-1.681410,-0.628510,-0.529874,0.032058,0.568490,58.150715,34.205183,-64.842132
35041,NaN,-5.863504,8.327919,2.286596,2.220752,1.197622,0.316223,0.114425,-1.799325,-1.770071,-0.622777,-0.525387,0.033354,0.578796,57.252756,34.516206,-66.559852
35042,NaN,-5.495204,9.332106,3.463086,2.433416,-0.068095,1.293607,-0.050569,-1.832456,-1.732121,-0.617447,-0.520222,0.034321,0.589024,56.243347,34.782605,-68.295262
35043,NaN,-5.562415,9.264616,4.324873,1.982304,-0.527526,1.644493,-0.494813,-1.960322,-1.570897,-0.613660,-0.513175,0.034837,0.599048,54.963463,34.895210,-70.049809
35044,NaN,-5.620114,8.159269,4.770939,1.105014,-0.434994,1.119224,-0.798779,-2.203899,-1.500034,-0.610680,-0.504384,0.035318,0.609442,53.443679,34.865317,-71.917950
35045,NaN,-4.751294,7.391505,5.154050,0.732680,-1.070450,0.291135,-0.810912,-2.309672,-1.503037,-0.607613,-0.495110,0.036117,0.619975,51.886835,34.751630,-73.841692
35046,NaN,-3.865645,7.120637,5.147127,0.914912,-1.630710,-0.397743,-0.683056,-2.177625,-1.385502,-0.604469,-0.486538,0.037150,0.629696,50.480513,34.599067,-75.636130
35047,NaN,-2.865766,7.012441,5.484717,0.944279,-2.531763,-0.859110,-0.547304,-1.802443,-1.208488,-0.601562,-0.479429,0.037946,0.637833,49.318801,34.467412,-77.142782
35048,NaN,-2.485452,7.002254,5.673331,0.968551,-2.911598,-0.982069,-0.332275,-1.140243,-1.056898,-0.598664,-0.475024,0.037754,0.643839,48.518299,34.504736,-78.230531
35049,NaN,-3.702694,7.351591,5.500868,1.195267,-1.946998,-0.179640,-0.112840,-0.590639,-0.915075,-0.595804,-0.472975,0.036999,0.648030,48.041189,34.674639,-78.967662
35050,NaN,-4.201087,7.626466,5.300709,1.496784,-1.553856,0.149970,0.036727,-0.316046,-0.797341,-0.592983,-0.472247,0.036152,0.651189,47.757520,34.901587,-79.511782
35051,NaN,-4.600897,7.999373,5.368527,1.699260,-1.423320,0.630763,0.098525,-0.099550,-0.740519,-0.590256,-0.472370,0.035034,0.653634,47.586293,35.180572,-79.918791
35052,NaN,-5.034301,8.122381,4.939459,2.036783,-0.944468,0.707520,0.102622,-0.114572,-0.650074,-0.587781,-0.472452,0.034154,0.655848,47.434289,35.419760,-80.293815
35053,NaN,-5.992855,8.224295,5.219518,1.830413,-0.390897,1.469742,-0.015755,-0.257749,-0.635735,-0.585624,-0.471690,0.033374,0.658361,47.173777,35.591010,-80.737180
35054,NaN,-6.688201,8.091460,5.599007,1.452447,-0.010799,1.995885,-0.147452,-0.572720,-0.729757,-0.583383,-0.469533,0.032830,0.661910,46.714730,35.681036,-81.390672
35055,NaN,-6.871661,7.926689,5.732932,1.313178,0.116357,2.069217,-0.235795,-0.917221,-0.846902,-0.580910,-0.465963,0.032752,0.666595,46.068228,35.673506,-82.277828
35056,NaN,-6.897219,7.796625,5.929979,1.206565,0.094056,2.106095,-0.369608,-1.178548,-0.932550,-0.578369,-0.461145,0.032757,0.672133,45.244730,35.591984,-83.338693
35057,NaN,-7.203755,7.379744,6.156906,0.863872,0.402253,2.160276,-0.454290,-1.390240,-0.929925,-0.575980,-0.455317,0.033123,0.678113,44.316529,35.405326,-84.499227
35058,NaN,-7.170064,6.900785,6.929599,0.166728,0.219068,2.310483,-0.524027,-1.567320,-1.003599,-0.573400,-0.448684,0.033563,0.684667,43.284920,35.163334,-85.776356
35059,NaN,-7.445324,6.991052,8.185591,-0.408990,-0.102992,3.268958,-0.632999,-1.687791,-1.120656,-0.570606,-0.441278,0.033737,0.691769,42.133789,34.891493,-87.160444
35060,NaN,-7.456063,7.450837,10.081046,-1.055896,-1.019181,4.698506,-0.874519,-1.893849,-1.095516,-0.568304,-0.432431,0.033686,0.699213,40.811382,34.502030,-88.614068
35061,NaN,-7.657512,6.641776,10.224272,-1.477154,-0.492852,4.499904,-1.317863,-2.176908,-1.111312,-0.566785,-0.421244,0.032878,0.707267,39.180958,33.958691,-90.180713
35062,NaN,-6.555346,5.613801,10.632524,-2.203783,-1.052684,3.661768,-1.469356,-2.378967,-1.127977,-0.565355,-0.408846,0.032035,0.715676,37.440933,33.297107,-91.812562
35063,NaN,-6.939054,5.460117,10.868030,-2.100761,-0.596443,4.018176,-1.710854,-2.512897,-1.275886,-0.563746,-0.395190,0.030426,0.724631,35.527302,32.576710,-93.540053
35064,NaN,-6.389550,5.001291,10.885717,-2.100394,-0.718749,3.581041,-1.951901,-2.697672,-1.433140,-0.561829,-0.380103,0.028113,0.734220,33.432879,31.773994,-95.382042
35065,NaN,-5.317346,4.642746,10.436564,-1.796348,-1.154486,2.604044,-2.122152,-2.681483,-1.613545,-0.559400,-0.364479,0.024808,0.744050,31.241657,30.972499,-97.266642
35066,NaN,-5.281738,4.350882,10.291470,-1.537563,-0.884637,2.417509,-2.317250,-2.600725,-1.748233,-0.556615,-0.348502,0.020264,0.753867,28.959822,30.191343,-99.150202
35067,NaN,-5.310368,3.800257,9.919820,-1.357258,-0.396058,1.978375,-2.379220,-2.631765,-1.780571,-0.553613,-0.332094,0.015541,0.763534,26.680449,29.335469,-101.007485
35068,NaN,-5.196251,3.380308,9.802687,-1.243585,-0.175232,1.716720,-2.320116,-2.631207,-1.841556,-0.550049,-0.315731,0.010901,0.773072,24.466226,28.435794,-102.846832
35069,NaN,-5.232824,3.341745,9.890309,-0.899903,-0.044064,1.829521,-2.174357,-2.637902,-1.877296,-0.545918,-0.299617,0.006816,0.782405,22.380141,27.477628,-104.651616
35070,NaN,-4.489556,3.271827,9.958659,-0.763132,-0.568322,1.550297,-2.076376,-2.572771,-1.927438,-0.541229,-0.283918,0.002823,0.791488,20.391862,26.511704,-106.418078
35071,NaN,-4.795511,2.539499,9.345159,-0.664132,0.270813,0.969348,-1.979340,-2.350425,-2.073914,-0.535647,-0.269260,-0.001562,0.800362,18.492798,25.638002,-108.171789
35072,NaN,-4.695150,1.626783,9.096438,-1.030978,0.717883,0.475605,-1.617128,-2.211357,-2.129448,-0.529170,-0.256042,-0.004979,0.808948,16.836598,24.804203,-109.890986
35073,NaN,-4.362112,1.902623,9.010024,-0.577826,0.401240,0.352354,-1.139913,-1.938019,-2.095292,-0.522082,-0.245122,-0.007109,0.816881,15.521894,24.072610,-111.504418
35074,NaN,-4.553167,2.829974,8.988047,0.522958,0.187248,0.637796,-0.861120,-1.643753,-2.046038,-0.514720,-0.236080,-0.008845,0.824167,14.421480,23.468426,-113.016922
35075,NaN,-4.602631,3.092304,8.732687,1.061550,0.175393,0.475451,-0.723044,-1.307142,-2.131417,-0.506746,-0.228734,-0.010939,0.831125,13.423627,23.035411,-114.510277
35076,NaN,-5.352153,3.282528,8.141208,1.905625,0.816267,0.257030,-0.601718,-0.935153,-2.298756,-0.497823,-0.223195,-0.013698,0.837955,12.484404,22.810979,-116.043356
35077,NaN,-6.287461,3.229824,7.359864,2.693609,1.726151,-0.122847,-0.478743,-0.803412,-2.462114,-0.487996,-0.218464,-0.016412,0.844905,11.595046,22.654923,-117.650402
35078,NaN,-6.153760,2.740133,6.680928,2.634823,1.938201,-0.907068,-0.319954,-0.757787,-2.539911,-0.477565,-0.214272,-0.018687,0.851863,10.782351,22.513970,-119.296735
35079,NaN,-6.158294,2.121531,6.110350,2.479883,2.320816,-1.552944,-0.087696,-0.772609,-2.607680,-0.466521,-0.210521,-0.019968,0.858860,10.095698,22.349038,-120.980207
35080,NaN,-5.731998,1.730599,5.763587,2.214084,2.203984,-2.111495,0.242155,-0.748077,-2.597133,-0.455075,-0.207618,-0.019914,0.865682,9.603800,22.184272,-122.652542
35081,NaN,-6.314583,1.672502,5.426270,2.693875,2.691665,-2.222440,0.500517,-0.686041,-2.652942,-0.443038,-0.205514,-0.018899,0.872424,9.258420,22.045174,-124.347654
35082,NaN,-6.937417,1.125668,4.924783,2.891114,3.526446,-2.542753,0.793378,-0.748601,-2.744897,-0.430200,-0.203751,-0.016599,0.879283,9.059127,21.875557,-126.104259
35083,NaN,-7.088113,0.492869,4.567384,2.752942,4.040112,-2.924873,1.245569,-0.899265,-2.838861,-0.416409,-0.202225,-0.012039,0.886320,9.102992,21.623032,-127.928078
35084,NaN,-7.196582,0.609657,4.800331,2.961806,3.943387,-2.679583,1.735270,-1.088463,-2.949227,-0.401509,-0.200837,-0.005068,0.893549,9.402009,21.283590,-129.836724
35085,NaN,-7.225941,1.989950,5.437792,3.867010,2.866794,-1.902554,2.104698,-1.327980,-3.082227,-0.385520,-0.199021,0.003947,0.900971,9.892108,20.828996,-131.845886
35086,NaN,-6.770774,3.521184,5.621455,4.666608,1.364822,-1.676256,1.870225,-1.510350,-3.327153,-0.368484,-0.195885,0.011963,0.908684,10.201962,20.314795,-134.021080
35087,NaN,-7.032137,3.538493,5.028555,5.160629,1.466963,-2.166082,1.340789,-1.642813,-3.669989,-0.350255,-0.191075,0.017525,0.916790,10.158323,19.759601,-136.408082
35088,NaN,-5.835405,2.418074,4.613354,3.909391,1.426146,-3.189880,1.011688,-1.849795,-3.875403,-0.331199,-0.184707,0.021687,0.925051,9.901085,19.108662,-138.931287
35089,NaN,-4.743161,1.645573,4.620513,2.792757,1.235182,-3.711273,0.895698,-1.885484,-3.881161,-0.312076,-0.177852,0.025405,0.932916,9.611279,18.420330,-141.446109
35090,NaN,-3.667008,0.942131,4.364495,1.795940,1.107125,-4.433928,0.872768,-1.762523,-3.688647,-0.293724,-0.171472,0.028932,0.939940,9.375207,17.779290,-143.823151
35091,NaN,-3.558816,0.377108,4.168414,1.576326,1.473617,-4.760395,0.916050,-1.496697,-3.551906,-0.275911,-0.166269,0.032427,0.946138,9.226238,17.261439,-146.081350
35092,NaN,-4.284368,0.153376,4.217345,2.126642,1.992655,-4.552398,0.988202,-1.306548,-3.468024,-0.258342,-0.162033,0.036004,0.951687,9.153285,16.846329,-148.267007
35093,NaN,-4.821745,-0.046167,4.095059,2.623094,2.366489,-4.564996,1.030508,-1.249105,-3.342860,-0.241270,-0.157997,0.039851,0.956680,9.148425,16.443876,-150.366237
35094,NaN,-5.810874,-0.154218,4.033264,3.545377,2.840083,-4.388757,1.160333,-1.283315,-3.277334,-0.224300,-0.153936,0.044339,0.961263,9.238002,16.024938,-152.428201
35095,NaN,-5.670500,-0.484933,4.116959,3.401415,2.982000,-4.439178,1.304588,-1.488146,-3.189299,-0.207537,-0.148929,0.049860,0.965538,9.442035,15.479694,-154.452199
35096,NaN,-5.119340,-0.794343,4.062567,2.962934,2.960293,-4.733454,1.514349,-1.565393,-3.110653,-0.190883,-0.143748,0.056449,0.969388,9.790016,14.900676,-156.437373
35097,NaN,-5.374785,-0.935334,3.965490,3.309764,3.127991,-4.838029,1.900195,-1.575494,-3.003913,-0.174416,-0.138746,0.065038,0.972676,10.400296,14.313269,-158.358654
35098,NaN,-5.624131,-0.528369,4.345153,3.687738,2.820408,-4.405802,2.435811,-1.611604,-3.026212,-0.157363,-0.134046,0.076149,0.975433,11.324431,13.741400,-160.302341
35099,NaN,-5.949826,0.712806,5.010440,4.262271,1.788865,-3.516266,2.599863,-1.652354,-3.180830,-0.139379,-0.129211,0.088023,0.977819,12.345044,13.188394,-162.342799
35100,NaN,-5.418699,1.705548,5.627365,3.924154,0.734162,-2.884490,2.393860,-1.729875,-3.267634,-0.120977,-0.123894,0.098768,0.979928,13.244360,12.645426,-164.450326
35101,NaN,-3.616172,1.714608,6.115711,2.156892,0.318685,-2.836690,1.948828,-1.642435,-3.295924,-0.102723,-0.118626,0.107292,0.981766,13.913081,12.174074,-166.562753
35102,NaN,-2.216577,1.196612,6.733243,0.621914,0.630513,-2.678469,1.489692,-1.270401,-3.242975,-0.085135,-0.114940,0.113281,0.983213,14.340259,11.930926,-168.596124
35103,NaN,-2.103040,0.573918,6.925057,0.420090,1.273533,-2.677561,1.169303,-0.868217,-3.079422,-0.068759,-0.112895,0.117659,0.984217,14.628307,11.890751,-170.475830
35104,NaN,-2.537463,-0.051752,6.513908,0.911518,1.867635,-3.137861,1.131092,-0.616042,-2.964971,-0.053072,-0.112045,0.121711,0.984792,14.905515,11.991310,-172.256160
35105,NaN,-2.753405,-0.435248,6.101574,1.231688,2.174985,-3.587569,1.365884,-0.463488,-2.895214,-0.037700,-0.111869,0.126967,0.984857,15.335220,12.167906,-173.971324
35106,NaN,-3.761233,-0.171388,5.650224,2.360992,1.910002,-3.739894,1.697937,-0.297469,-2.828998,-0.022538,-0.112566,0.133742,0.984344,15.952089,12.449525,-175.625563
35107,NaN,-4.995089,0.261381,4.919233,3.751915,1.369835,-4.045138,1.967443,-0.289448,-2.757126,-0.007603,-0.113187,0.141932,0.983355,16.734910,12.735309,-177.233276
35108,NaN,-5.867507,0.598706,3.987959,4.807860,0.775827,-4.619215,2.334582,-0.343665,-2.664000,0.007152,-0.113522,0.151846,0.981837,17.719850,13.008266,-178.798451
35109,NaN,-7.328368,1.117183,3.267039,6.356438,0.018894,-4.790612,2.867963,-0.544885,-2.525828,0.021654,-0.112636,0.164488,0.979688,19.025466,13.168752,179.683847
35110,NaN,-8.831605,2.039818,2.834526,7.816197,-1.107945,-4.533399,3.462391,-0.986146,-2.473726,0.036620,-0.109509,0.179858,0.976892,20.646353,13.128182,178.107838
35111,NaN,-9.910757,3.477510,3.575109,8.519801,-2.338851,-3.101587,3.964301,-1.620734,-2.702768,0.053498,-0.103259,0.197430,0.973395,22.511732,12.835167,176.273045
35112,NaN,-8.451244,5.025515,4.500490,6.650336,-3.393563,-1.990300,4.005479,-2.239294,-3.054071,0.072716,-0.094349,0.214622,0.969406,24.327126,12.364938,174.095476
35113,NaN,-6.051899,6.042899,4.837791,4.001333,-3.939829,-1.749667,3.716531,-2.459107,-3.352851,0.093390,-0.084636,0.230119,0.964966,25.958760,11.907015,171.697989
35114,NaN,-4.733448,6.725364,4.994019,2.448106,-4.234685,-1.527243,3.295545,-2.440444,-3.422604,0.114170,-0.075322,0.243302,0.960258,27.346316,11.549343,169.257986
35115,NaN,-1.570547,6.836978,5.401371,-0.738872,-3.439424,-1.688186,2.681313,-2.912059,-3.126710,0.133756,-0.063585,0.253302,0.955983,28.418136,10.913945,166.841701
35116,NaN,-1.307589,6.601370,5.111554,-0.964893,-3.190221,-2.047020,1.916034,-2.284748,-3.158958,0.152423,-0.055457,0.259827,0.951936,29.087412,10.648903,164.576307
35117,NaN,-1.851793,6.208364,5.145124,-0.408479,-2.897039,-2.074191,1.514892,-1.910097,-3.253558,0.170836,-0.049421,0.264670,0.947799,29.554670,10.609416,162.370955
35118,NaN,-0.354683,4.831659,3.631103,-1.404950,-2.047881,-4.291205,1.499837,-1.764900,-3.146817,0.188516,-0.044013,0.269404,0.943369,30.019913,10.638744,160.258843
35119,NaN,-0.177965,4.078929,4.321540,-1.310993,-0.927002,-4.088552,1.970726,-1.595235,-3.004572,0.205291,-0.038663,0.276527,0.938026,30.786688,10.723613,158.270880
35120,NaN,0.044501,4.289297,4.808979,-1.577450,-0.595739,-3.593337,2.721335,-1.610677,-2.797536,0.221211,-0.032251,0.286998,0.931482,31.988429,10.781009,156.380043
35121,NaN,1.117254,5.500844,5.450058,-2.975915,-0.481556,-2.593596,3.372249,-1.735839,-2.549133,0.236116,-0.024079,0.300340,0.923832,33.589902,10.738080,154.575827
35122,NaN,1.460119,7.227483,6.873386,-3.825444,-0.418030,-0.496619,3.662189,-1.756702,-2.303763,0.249862,-0.015161,0.314786,0.915559,35.368536,10.665106,152.879944
35123,NaN,2.574666,8.540180,7.627670,-5.165814,0.039488,0.724839,3.504792,-1.761182,-1.884330,0.261521,-0.005676,0.328455,0.907575,37.107607,10.492010,151.381238
35124,NaN,2.659843,9.478256,7.896068,-5.464032,0.048183,1.562056,3.222811,-1.564174,-1.474776,0.270912,0.003160,0.340897,0.900214,38.724659,10.312497,150.135145
35125,NaN,0.167196,10.570954,8.004149,-3.672589,-1.417301,2.849504,2.799614,-1.423004,-1.196554,0.278694,0.011324,0.351585,0.893638,40.144955,10.121172,149.064974
35126,NaN,-1.688132,11.137303,7.937329,-2.251477,-2.466468,3.556392,2.135620,-1.704484,-1.061782,0.286367,0.020003,0.358745,0.888198,41.170608,9.783867,147.942322
35127,NaN,-1.413604,10.973098,7.489716,-2.389651,-2.331371,3.123877,1.547300,-1.812333,-1.095987,0.294358,0.028306,0.363144,0.883560,41.866175,9.425736,146.761567
35128,NaN,-1.919813,10.612682,6.677292,-1.939045,-2.786075,2.409328,1.226319,-1.531717,-1.173463,0.302210,0.034705,0.366426,0.879316,42.385671,9.232566,145.651948
35129,NaN,-3.041330,10.313551,6.330056,-0.953252,-3.363511,2.165043,1.093995,-1.335838,-1.275307,0.310108,0.039899,0.369461,0.875065,42.846568,9.167288,144.576498
35130,NaN,-2.662201,9.977645,6.137215,-1.146947,-2.992597,1.764623,1.128401,-1.218143,-1.300522,0.317883,0.044536,0.372732,0.870654,43.324584,9.173175,143.534870
35131,NaN,-2.334954,10.073384,6.427203,-1.358692,-2.555589,2.013365,1.286835,-1.070062,-1.262876,0.325121,0.048891,0.376938,0.865924,43.913618,9.231820,142.570065
35132,NaN,-1.794553,10.440114,6.581501,-1.904043,-2.182463,2.317525,1.350124,-0.949049,-1.195813,0.331815,0.052903,0.381502,0.861136,44.542006,9.326665,141.681056
35133,NaN,-2.200777,10.794769,6.585701,-1.746997,-2.468604,2.661072,1.138812,-0.996886,-1.008901,0.337796,0.057165,0.385047,0.856951,45.066106,9.332196,140.851907
35134,NaN,-1.453252,10.495108,6.643147,-2.099762,-1.734444,2.392753,0.833274,-1.186213,-0.748335,0.343109,0.062180,0.386809,0.853691,45.413527,9.164520,140.050068
35135,NaN,-0.725597,9.863845,5.689670,-2.615203,-1.509952,1.190702,0.723271,-1.175868,-0.582858,0.347685,0.067319,0.388093,0.850862,45.719214,8.934835,139.320618
35136,NaN,-1.450042,9.523821,5.036769,-2.096269,-2.176504,0.629680,0.693689,-1.099180,-0.513592,0.351830,0.072174,0.389297,0.848206,46.013156,8.713610,138.649065
35137,NaN,-1.722476,9.204874,4.632437,-1.842698,-2.413662,0.184036,0.818480,-1.086122,-0.529729,0.355934,0.077195,0.391082,0.845226,46.387492,8.505530,137.976806
35138,NaN,-1.716861,9.329116,4.560312,-1.899866,-2.451439,0.244986,1.028410,-1.030753,-0.542175,0.359900,0.082293,0.393797,0.841798,46.880895,8.331880,137.320647
35139,NaN,-2.032420,9.906730,4.214156,-2.078758,-3.050819,0.502529,1.086062,-1.072584,-0.529779,0.363830,0.087724,0.396688,0.838195,47.413311,8.140109,136.651381
35140,NaN,-4.124904,10.030332,2.512708,-1.372753,-5.498572,-0.230559,0.579616,-1.252692,-0.702254,0.369057,0.092610,0.397147,0.835162,47.632286,7.958257,135.836084
35141,NaN,-2.160420,8.750746,2.547139,-2.071179,-3.580613,-1.409098,0.492428,-1.681712,-0.438451,0.374031,0.099674,0.396331,0.832519,47.800031,7.499541,134.940719
35142,NaN,-1.603112,8.869038,4.548141,-1.564503,-2.070473,-0.056639,0.703064,-2.081189,-0.436996,0.379661,0.108757,0.395580,0.829184,48.071248,6.892967,133.873447
35143,NaN,1.104360,8.987807,3.335027,-3.989287,-0.872341,-1.069339,0.761197,-2.387692,-0.157223,0.384637,0.119789,0.394303,0.825972,48.390237,6.052597,132.780824
35144,NaN,2.392354,9.218431,4.116355,-4.485792,0.432551,-0.467284,0.561721,-1.954088,-0.169952,0.388893,0.128580,0.392974,0.823287,48.623798,5.389888,131.867496
35145,NaN,0.895238,9.190698,4.189658,-3.359353,-0.622513,-0.265405,0.167310,-1.577382,-0.254793,0.392965,0.134903,0.390792,0.821378,48.655393,4.906051,131.084228
35146,NaN,0.476561,8.188894,3.133613,-3.075246,-1.133562,-1.666371,-0.209929,-1.458459,-0.283067,0.397160,0.139913,0.387276,0.820186,48.477890,4.480068,130.342395
35147,NaN,1.206045,7.174180,2.915550,-3.097568,-0.320086,-2.620581,-0.067895,-1.412578,-0.241386,0.400966,0.145110,0.384397,0.818785,48.392599,4.050355,129.637812
35148,NaN,1.167675,7.009689,2.759185,-3.037717,-0.367527,-2.830614,0.328337,-1.274166,-0.210117,0.404078,0.150573,0.383367,0.816749,48.542316,3.661392,129.004623
35149,NaN,1.587115,7.374657,2.973309,-3.327204,-0.050289,-2.418656,0.769190,-1.156701,-0.240452,0.406730,0.156396,0.384389,0.813853,48.952729,3.331784,128.409125
35150,NaN,1.284858,7.964518,2.969795,-3.386595,-0.465695,-1.924893,1.043022,-1.052984,-0.215488,0.408849,0.162385,0.386689,0.810521,49.524968,3.035932,127.865372
35151,NaN,1.094835,8.643172,4.354993,-2.725887,-0.130867,-0.462834,1.280506,-1.168091,-0.076678,0.410405,0.169592,0.389584,0.806865,50.237623,2.642190,127.319384
35152,NaN,2.182387,9.312067,5.182029,-3.094902,0.951455,0.572112,1.512485,-1.109620,0.041612,0.411140,0.177253,0.393400,0.802983,51.089230,2.224991,126.837154
35153,NaN,2.987914,10.096202,5.707324,-3.482148,1.641211,1.528031,1.542253,-0.870168,0.088275,0.411154,0.184093,0.397756,0.799282,51.965854,1.879284,126.472955
35154,NaN,2.551389,10.814156,6.312969,-3.031316,1.414733,2.520830,1.433285,-0.515634,0.024383,0.410789,0.189157,0.402435,0.795939,52.785845,1.691478,126.242302
35155,NaN,2.773010,11.000059,6.563928,-2.945443,1.736863,2.839652,1.163748,-0.213253,-0.025011,0.410249,0.192351,0.406691,0.793283,53.455407,1.633823,126.130933
35156,NaN,1.309847,11.029565,6.489525,-2.039998,0.596150,2.874424,0.914474,0.184112,-0.115591,0.409484,0.193279,0.410848,0.791309,53.986914,1.752592,126.171803
35157,NaN,-0.796535,11.117691,5.837873,-1.192530,-1.374757,2.637437,0.652820,0.112380,-0.121164,0.409138,0.193930,0.413822,0.789777,54.367177,1.850867,126.178474
35158,NaN,-1.484400,11.281321,5.902091,-0.778777,-1.905158,2.839192,0.380444,-0.258147,-0.109789,0.409769,0.195521,0.414949,0.788466,54.586707,1.818996,126.016539
35159,NaN,0.286806,10.984418,5.991473,-1.601870,-0.325732,2.595590,-0.091742,-0.412668,-0.178512,0.411456,0.196598,0.413962,0.787838,54.532111,1.769555,125.759591
35160,NaN,0.709827,10.285603,5.421062,-1.905811,-0.048936,1.678644,-0.406181,-0.183267,-0.273298,0.413342,0.195940,0.412302,0.787885,54.300828,1.838737,125.578089
35161,NaN,-0.448115,9.543089,4.707463,-1.386762,-1.109347,0.688620,-0.511948,-0.104643,-0.382032,0.415600,0.194515,0.410488,0.787997,54.007452,1.985354,125.396294
35162,NaN,-0.941534,8.896272,3.841554,-1.396842,-1.727078,-0.333578,-0.368409,-0.195945,-0.420910,0.418048,0.193681,0.409089,0.787635,53.795445,2.116855,125.158430
35163,NaN,-2.052308,8.576025,3.663832,-0.749013,-2.621533,-0.661167,-0.130632,-0.582338,-0.329355,0.420699,0.195036,0.407721,0.786598,53.712497,2.076032,124.772570
35164,NaN,-0.065003,8.339104,4.543392,-1.187664,-0.508547,-0.404285,0.159952,-0.963264,-0.137228,0.423072,0.198904,0.406510,0.784982,53.795416,1.816229,124.275816
35165,NaN,-0.039619,9.007345,4.882461,-1.279557,-0.541507,0.338255,0.364782,-0.802237,-0.234125,0.425293,0.202356,0.406520,0.782892,53.996627,1.658036,123.820260
35166,NaN,0.113516,9.808800,5.601300,-1.246897,-0.324134,1.409613,0.309400,-0.827280,-0.199289,0.427466,0.205872,0.406229,0.780940,54.169925,1.475573,123.364385
35167,NaN,0.746753,10.172854,5.809074,-1.598946,0.187222,1.814787,0.172991,-0.754982,-0.219686,0.429713,0.208752,0.405561,0.779288,54.264543,1.329055,122.934832
35168,NaN,0.793433,10.727943,6.537226,-1.387706,0.380206,2.692643,-0.031177,-0.646029,-0.209030,0.431895,0.210806,0.404328,0.778168,54.247163,1.213020,122.559510
35169,NaN,0.454670,11.061865,6.712153,-1.266081,0.047233,3.072155,-0.417376,-0.577292,-0.233356,0.434444,0.211688,0.401748,0.777846,54.006848,1.131833,122.208150
35170,NaN,0.611692,11.273890,7.069420,-1.262212,0.223239,3.446565,-0.692582,-0.675096,-0.212639,0.437381,0.212411,0.397870,0.777996,53.611843,1.004527,121.819085
35171,NaN,-0.138661,11.531619,6.955694,-1.153413,-0.623418,3.590988,-0.991454,-0.843109,-0.194174,0.440895,0.213143,0.392414,0.778584,53.042528,0.809476,121.360164
35172,NaN,-0.421070,12.223830,7.565025,-1.067114,-0.966062,4.496468,-1.510406,-1.401228,-0.037583,0.445402,0.215218,0.383529,0.779874,52.179898,0.341684,120.704176
35173,NaN,1.023573,12.406352,7.774120,-1.903740,0.061640,4.739470,-2.003821,-1.921117,0.182636,0.450524,0.218588,0.371251,0.781933,51.038319,-0.419831,119.901349
35174,NaN,1.850761,11.896391,6.924906,-2.776368,0.312749,3.791963,-2.464405,-2.029663,0.437998,0.455239,0.221795,0.356585,0.785118,49.647508,-1.352774,119.160894
35175,NaN,1.494276,11.662987,6.894356,-2.695604,-0.277450,3.545108,-3.017432,-2.249708,0.540109,0.460431,0.224696,0.339005,0.789045,47.950060,-2.430830,118.389231
35176,NaN,2.153742,11.349407,7.039625,-2.960447,0.079968,3.386412,-3.147271,-2.320802,0.637795,0.465318,0.227689,0.320534,0.793029,46.195636,-3.602128,117.657843
35177,NaN,3.152276,11.251592,6.842974,-3.734568,0.562388,3.190435,-3.339530,-2.161046,0.621736,0.470060,0.229456,0.301542,0.797161,44.334328,-4.723127,117.021842
35178,NaN,3.886886,11.375208,6.790735,-4.445535,0.776184,3.234609,-3.685921,-2.062256,0.719968,0.474444,0.230101,0.281185,0.801805,42.281384,-5.864684,116.503234
35179,NaN,4.331337,11.560879,6.841543,-5.044431,0.732445,3.348466,-3.910709,-1.677655,0.667194,0.478553,0.228454,0.260745,0.806726,40.085729,-6.836680,116.150103
35180,NaN,5.101118,11.866154,7.254312,-5.714879,1.004919,3.816409,-4.406967,-1.257376,0.618951,0.482625,0.223796,0.239264,0.812244,37.595964,-7.620111,115.966355
35181,NaN,5.474605,11.652492,7.975845,-5.790749,1.171577,4.130810,-4.901409,-0.851677,0.599913,0.486577,0.216098,0.216609,0.818306,34.795987,-8.214261,115.949411
35182,NaN,5.877751,11.065713,8.394936,-5.878873,1.466844,3.997283,-5.212223,-0.446812,0.607026,0.490064,0.205914,0.193551,0.824606,31.801780,-8.620570,116.093813
35183,NaN,6.041420,10.624788,9.139058,-5.866125,1.528467,4.191107,-5.467010,0.074887,0.695102,0.492606,0.192831,0.170457,0.831324,28.620399,-8.781938,116.457482
35184,NaN,5.601225,10.212106,9.928809,-5.675141,1.040158,4.360913,-5.709882,0.466802,0.765217,0.494354,0.177502,0.147154,0.838125,25.285548,-8.745510,116.967658
35185,NaN,5.792365,9.590412,10.117683,-5.941290,1.158555,4.014389,-5.860154,0.801810,0.942635,0.494833,0.160302,0.123726,0.845065,21.831732,-8.539092,117.647559
35186,NaN,5.425808,8.669557,10.049607,-5.811737,0.930913,3.259781,-5.903573,1.040561,1.181102,0.493731,0.142075,0.100445,0.852030,18.342078,-8.216791,118.488708
35187,NaN,5.178662,7.288188,8.716943,-5.700213,1.033107,1.246967,-5.706030,1.050843,1.425713,0.491005,0.124199,0.077723,0.858748,14.944630,-7.873509,119.446591
35188,NaN,5.940775,5.738150,7.277279,-5.762773,2.172329,-0.690337,-5.308633,1.208956,1.803641,0.485923,0.106761,0.056840,0.865592,11.763664,-7.445499,120.614217
35189,NaN,5.543682,4.978884,7.726845,-5.314210,1.982833,-0.700858,-4.628411,1.768684,2.131954,0.478533,0.088464,0.039994,0.872686,8.947133,-6.668524,122.001859
35190,NaN,4.464685,4.615300,7.288290,-4.963012,1.079087,-1.533885,-3.898450,2.099376,2.381107,0.469340,0.070575,0.027033,0.879778,6.567442,-5.670398,123.516750
35191,NaN,4.092438,4.280472,6.630919,-4.938422,0.796153,-2.464004,-3.457910,2.129857,2.823030,0.457758,0.053488,0.015861,0.887325,4.437209,-4.611616,125.244155
35192,NaN,3.582212,3.768436,5.559996,-4.630037,0.530193,-3.794501,-3.046334,2.212826,3.281590,0.443745,0.037105,0.006617,0.895360,2.571286,-3.472618,127.195600
35193,NaN,2.450915,3.470904,5.455567,-3.933605,-0.341563,-4.136302,-2.533252,2.258889,3.726720,0.427365,0.021519,-0.000361,0.903823,1.017294,-2.247011,129.366534
35194,NaN,1.460108,3.108080,4.698659,-3.192403,-0.995867,-5.049960,-1.959130,2.012528,4.141872,0.408783,0.008397,-0.005272,0.912578,-0.158016,-1.125101,131.742210
35195,NaN,0.493244,2.581599,3.886495,-2.223450,-1.456605,-5.946608,-1.333314,1.792447,4.499026,0.388282,-0.002594,-0.007836,0.921504,-0.942908,-0.074745,134.303717
35196,NaN,-0.767722,2.129380,2.908497,-0.990843,-2.085328,-6.939998,-0.542873,1.528490,4.750734,0.366381,-0.010699,-0.007220,0.930376,-1.219168,0.837547,137.002189
35197,NaN,-2.084408,1.656281,1.626186,0.414730,-2.621864,-8.174126,0.479397,1.156103,4.958845,0.343315,-0.015342,-0.002561,0.939091,-0.879585,1.550432,139.825050
35198,NaN,-3.219221,1.346369,0.757696,1.648415,-3.051701,-8.965987,1.702476,0.636949,5.133602,0.319279,-0.015297,0.007004,0.947511,0.200897,1.917539,142.759204
35199,NaN,-4.087568,1.391444,0.281392,2.496765,-3.505031,-9.365742,3.127924,0.132511,5.173414,0.294916,-0.010716,0.022469,0.955199,2.098943,1.932627,145.719440
35200,NaN,-4.323112,1.908160,-0.470961,2.590101,-3.973655,-10.034692,4.718144,-0.362292,5.005476,0.271182,-0.001298,0.044804,0.961484,4.903841,1.535443,148.564029
35201,NaN,-4.631251,3.143925,-0.737572,2.401920,-5.101656,-10.085609,6.196212,-0.880051,4.725562,0.248553,0.012415,0.073434,0.965751,8.512299,0.717669,151.187719
35202,NaN,-5.486080,5.474093,-0.295401,2.334365,-7.357948,-9.075472,7.393945,-1.143667,4.262091,0.227750,0.028825,0.107463,0.967342,12.770280,-0.390636,153.459577
35203,NaN,-6.914068,9.534884,1.740246,2.503972,-10.913224,-5.773224,7.948891,-1.079638,3.489715,0.210146,0.044959,0.144112,0.965945,17.301977,-1.506318,155.223328
35204,NaN,-7.402099,14.200263,4.324563,2.138245,-14.071315,-1.300501,7.170652,-1.074615,2.612704,0.196569,0.059663,0.177020,0.962530,21.383240,-2.594152,156.425571
35205,NaN,-6.928696,16.362186,5.828401,1.905136,-14.753402,1.515489,5.190338,-1.181073,1.991669,0.186455,0.072198,0.200221,0.959132,24.320494,-3.659683,157.208987
35206,NaN,-6.165512,15.536654,6.862148,2.261492,-13.007242,2.522640,2.860629,-0.992701,1.545795,0.179006,0.081279,0.212565,0.957166,25.938354,-4.559486,157.763660
35207,NaN,-5.586804,13.290826,8.345219,3.136429,-10.147230,3.020478,1.011671,-0.544761,1.390721,0.172562,0.086276,0.216398,0.957053,26.475348,-5.189922,158.336452
35208,NaN,-5.291266,10.390214,8.401237,3.951455,-7.504177,1.789287,0.047225,-0.006841,1.416971,0.165795,0.087985,0.216165,0.958146,26.455805,-5.562222,159.057315
35209,NaN,-5.129334,8.364746,8.476503,4.514959,-5.674709,0.936360,-0.303278,0.542604,1.615676,0.157647,0.086886,0.214496,0.959995,26.193334,-5.692582,160.023201
35210,NaN,-5.388988,6.636485,8.267545,5.243206,-4.314625,-0.049048,-0.358414,1.167084,1.809536,0.147891,0.083030,0.213072,0.962203,25.889966,-5.552706,161.246770
35211,NaN,-5.494001,5.207287,7.990346,5.653634,-3.123785,-0.900760,-0.234812,1.866864,1.793897,0.137408,0.075788,0.212613,0.964454,25.633173,-5.034633,162.636895
35212,NaN,-6.297170,3.919684,7.063837,6.493900,-2.444126,-2.278271,0.146868,2.455882,1.484164,0.127607,0.065696,0.214604,0.966098,25.629554,-4.138536,164.009560
35213,NaN,-6.412030,3.143007,7.072310,6.707290,-1.587001,-2.498460,0.664855,2.579637,1.233805,0.118700,0.054984,0.219085,0.966896,25.935846,-3.113642,165.285156
35214,NaN,-6.941114,3.123356,7.667111,7.235254,-1.211727,-1.882109,1.187377,2.431177,1.069966,0.110563,0.045166,0.226130,0.966748,26.584729,-2.139078,166.445968
35215,NaN,-7.930675,3.617282,8.561732,8.155995,-1.206601,-0.796096,1.601031,1.828684,0.991822,0.103384,0.038335,0.234688,0.965797,27.477412,-1.462445,167.422477
35216,NaN,-7.893726,4.293544,9.227754,8.065326,-1.196510,0.157736,1.672983,0.881230,1.034502,0.097068,0.036201,0.243188,0.964431,28.439137,-1.295909,168.176900
35217,NaN,-6.922972,4.479115,8.964838,7.114039,-1.044205,0.018602,1.426544,-0.100018,1.152758,0.091423,0.038780,0.249850,0.963178,29.248444,-1.662951,168.721695
35218,NaN,-5.543651,3.856799,8.800887,5.961941,-0.163021,-0.459194,1.050122,-0.849799,1.237268,0.086364,0.044923,0.254445,0.962175,29.857934,-2.435668,169.092304
35219,NaN,-4.412258,2.693295,8.814413,5.180184,1.137565,-1.078646,0.809021,-1.504631,1.305875,0.081864,0.054172,0.257432,0.961297,30.316563,-3.554771,169.301567
35220,NaN,-3.094757,1.420029,9.116911,4.297076,2.668091,-1.498672,0.929566,-2.200464,1.387052,0.077821,0.066922,0.260772,0.959929,30.867021,-5.042494,169.337487
35221,NaN,-1.168675,0.256774,9.327195,2.820222,4.172030,-1.871553,1.421202,-2.655187,1.462831,0.073828,0.082118,0.266087,0.957603,31.695648,-6.775780,169.257242
35222,NaN,1.274607,0.004978,10.494682,0.976847,5.521067,-0.850783,2.098572,-2.833557,1.525577,0.069473,0.098479,0.274578,0.953982,32.935834,-8.612041,169.119478
35223,NaN,4.451528,0.704878,11.732691,-1.550419,6.322651,0.937921,2.481448,-2.571345,1.556761,0.064394,0.113724,0.284757,0.949649,34.377094,-10.330341,169.038210
35224,NaN,7.406418,1.574465,12.565939,-3.922864,6.801262,2.580044,2.490024,-1.773562,1.452964,0.058650,0.125006,0.295292,0.945376,35.803961,-11.637407,169.129136
35225,NaN,9.100009,2.287727,13.727588,-5.032283,7.364476,4.220335,2.302309,-0.750827,1.514383,0.051205,0.131452,0.305034,0.941835,37.035750,-12.496103,169.575811
35226,NaN,8.374094,2.527510,13.645183,-4.276695,7.139493,4.095634,1.797205,0.365219,1.726895,0.041380,0.132833,0.312566,0.939652,37.876916,-12.930314,170.503537
35227,NaN,5.461611,2.174398,12.956998,-1.712851,6.630017,2.659243,1.304310,0.963564,1.907704,0.030091,0.131544,0.317657,0.938554,38.353337,-13.167855,171.730032
35228,NaN,3.471932,1.641519,12.746448,0.061156,6.711001,1.684218,1.153306,0.722132,2.130224,0.018231,0.131726,0.321869,0.937399,38.741033,-13.604809,172.968666
35229,NaN,2.350534,1.525378,12.427168,1.032908,6.549507,1.064933,1.157430,0.132174,2.301502,0.006517,0.134900,0.325820,0.935736,39.144332,-14.371906,174.068630
35230,NaN,1.706210,1.708764,11.438465,1.469160,5.831363,0.212494,1.348234,-0.531986,2.219528,-0.003866,0.141060,0.330685,0.933132,39.720597,-15.415230,174.877275
35231,NaN,2.055345,2.689948,11.133883,1.287585,5.028234,0.602578,1.681877,-1.114362,2.132536,-0.013110,0.149731,0.337071,0.929404,40.541585,-16.687942,175.415089
35232,NaN,3.311243,4.075578,11.175725,0.475468,4.234480,1.776429,1.847148,-1.269613,2.047922,-0.021826,0.158962,0.344253,0.925065,41.484584,-18.006634,175.835356
35233,NaN,4.032755,5.346791,10.861137,0.112620,3.278752,2.518030,1.781031,-0.957594,1.852501,-0.030112,0.166362,0.351148,0.920930,42.370926,-19.120885,176.275601
35234,NaN,2.905136,6.699347,10.902979,1.596379,2.377340,2.993260,1.414852,-0.368202,1.464955,-0.037345,0.170423,0.356560,0.917838,43.025071,-19.844789,176.771223
35235,NaN,3.433210,7.910498,12.031723,1.746974,2.372056,4.694069,0.771232,0.229488,0.946345,-0.042707,0.170900,0.359301,0.916445,43.298517,-20.116506,177.281763
35236,NaN,2.631573,8.649494,14.338728,3.292747,3.352005,6.474092,-0.305610,0.667339,0.374506,-0.045320,0.168589,0.357509,0.917448,42.981208,-19.983426,177.720020
35237,NaN,2.185166,8.797515,13.692723,3.498635,2.644897,6.012004,-1.418883,0.501826,-0.048634,-0.044750,0.166507,0.350975,0.920374,42.113476,-19.749538,177.898884
35238,NaN,5.999462,6.902115,11.916015,-1.024210,2.760111,4.916497,-2.159589,0.486384,-0.222497,-0.042735,0.164354,0.341159,0.924539,40.853738,-19.454750,177.986967
35239,NaN,6.497929,4.466749,11.251016,-2.227532,3.924663,3.163758,-2.131621,0.885319,-0.154203,-0.041731,0.160434,0.331279,0.928856,39.549761,-19.007315,178.256118
35240,NaN,3.793551,4.842822,11.184356,0.285970,3.268063,2.522899,-1.709780,0.898879,0.076592,-0.042160,0.156743,0.323133,0.932330,38.456301,-18.633871,178.628286
35241,NaN,3.355423,5.556503,12.259097,1.053729,3.128965,3.659995,-1.732729,0.428926,0.144925,-0.042121,0.155329,0.314897,0.935382,37.398804,-18.488308,178.850481
35242,NaN,5.097708,5.642806,11.405803,-0.864747,2.351621,3.664614,-1.582007,0.735037,0.020350,-0.042101,0.152258,0.307367,0.938387,36.412796,-18.157744,179.120597
35243,NaN,4.351674,5.265752,10.149957,-0.661497,1.704284,2.284420,-1.398770,1.329818,-0.163472,-0.042263,0.146047,0.300693,0.941524,35.499848,-17.483447,179.504573
35244,NaN,2.671138,4.968622,9.157667,0.493321,1.195665,0.864780,-1.226137,1.536562,-0.252290,-0.042446,0.138696,0.294812,0.944483,34.684642,-16.679570,179.904312
35245,NaN,-0.245555,4.521507,4.663711,2.036689,-1.099546,-3.738428,-1.011835,1.156946,-0.411522,-0.041456,0.132830,0.290122,0.946819,34.060033,-15.996940,-179.914833
35246,NaN,-0.257943,4.567513,4.807654,2.022316,-1.100532,-3.588465,-0.363580,0.714762,-0.605693,-0.039339,0.128648,0.288698,0.947922,33.874702,-15.462709,-179.982168
35247,NaN,0.945427,5.206636,6.730668,1.310780,-0.567005,-1.370855,0.053372,0.616228,-0.821073,-0.036321,0.124524,0.289411,0.948375,33.965424,-14.904866,179.811172
35248,NaN,1.047954,5.781644,7.600836,1.400312,-0.542989,-0.323637,0.137280,0.223912,-1.022953,-0.031833,0.121959,0.290702,0.948475,34.159036,-14.469121,179.377429
35249,NaN,3.025324,5.630425,8.641592,-0.377863,0.209199,0.927170,-0.065479,-0.129854,-1.130996,-0.026191,0.120934,0.291154,0.948640,34.276513,-14.163872,178.774953
35250,NaN,4.548788,4.615549,9.067939,-1.934096,1.349143,1.080481,-0.175151,-0.147105,-1.147394,-0.020381,0.119985,0.291080,0.948926,34.330070,-13.861645,178.160203
35251,NaN,5.214586,3.614111,9.383291,-2.658069,2.415004,0.929846,-0.044807,-0.097726,-1.016192,-0.015340,0.118967,0.291539,0.949008,34.436919,-13.576665,177.626785
35252,NaN,6.100799,3.744076,9.839896,-3.443009,2.649543,1.553338,0.248473,0.105968,-0.698083,-0.012285,0.117436,0.293167,0.948742,34.655731,-13.299164,177.317496
35253,NaN,5.288417,4.585499,10.113130,-2.572690,2.127088,2.024779,0.447039,0.471244,-0.378173,-0.011394,0.114613,0.295535,0.948363,34.924862,-12.951369,177.286747
35254,NaN,3.876914,5.468208,9.916718,-1.238532,1.273211,2.024426,0.454095,0.743601,-0.151031,-0.011994,0.110853,0.297767,0.948105,35.150943,-12.553012,177.459050
35255,NaN,2.438668,6.215462,8.751554,-0.096049,-0.020473,1.194504,0.451849,0.965501,-0.135016,-0.012991,0.106041,0.299978,0.947945,35.361298,-12.054157,177.715042
35256,NaN,0.812571,6.935839,8.283656,1.371911,-0.899929,0.896756,0.369289,0.992573,-0.221055,-0.013585,0.100997,0.301812,0.947905,35.530540,-11.517688,177.940742
35257,NaN,0.218710,7.636633,7.714546,1.818704,-1.787211,0.740876,0.207830,0.857023,-0.303779,-0.013492,0.096456,0.302944,0.948018,35.628118,-11.014544,178.081573
35258,NaN,0.256640,7.743978,7.422349,1.655514,-2.030821,0.592158,-0.057683,0.698876,-0.386039,-0.012648,0.092574,0.302846,0.948448,35.590134,-10.559965,178.129985
35259,NaN,0.325526,6.976595,7.258234,1.417376,-1.508554,0.045078,-0.247143,0.647180,-0.474477,-0.011212,0.088796,0.301905,0.949127,35.456701,-10.097712,178.117959
35260,NaN,1.033069,6.663206,7.679475,0.684215,-1.011448,0.333646,-0.315757,0.578008,-0.541431,-0.009328,0.085262,0.300655,0.949868,35.292099,-9.647385,178.049856
35261,NaN,1.870915,6.527746,8.087268,-0.171646,-0.672572,0.724538,-0.457689,0.562142,-0.575871,-0.007190,0.081742,0.298752,0.950796,35.050843,-9.191578,177.958399
35262,NaN,2.409781,6.009358,8.172741,-0.808364,-0.224558,0.580023,-0.559072,0.590418,-0.535200,-0.005252,0.078164,0.296333,0.951866,34.745492,-8.737941,177.893703
35263,NaN,2.569536,5.653045,8.470607,-1.028592,0.190601,0.637929,-0.580306,0.679523,-0.432125,-0.003923,0.074299,0.293773,0.952975,34.417357,-8.274462,177.904894
35264,NaN,2.603537,5.613503,8.333310,-1.166050,0.088983,0.500674,-0.598731,0.732524,-0.247158,-0.003551,0.070468,0.291038,0.954106,34.063206,-7.847395,178.019115
35265,NaN,2.147152,5.591120,7.955381,-0.835727,-0.181917,0.108338,-0.624431,0.723322,0.004176,-0.004350,0.067030,0.288096,0.955243,33.680872,-7.502302,178.248036
35266,NaN,1.748887,5.499693,7.671227,-0.533372,-0.342667,-0.234042,-0.665363,0.687412,0.217973,-0.006111,0.064089,0.284870,0.956402,33.263770,-7.242571,178.566025
35267,NaN,1.233485,5.522794,7.371653,-0.090130,-0.607730,-0.539819,-0.677427,0.574493,0.407394,-0.008607,0.061938,0.281533,0.957512,32.835240,-7.091726,178.937965
35268,NaN,0.699385,5.641262,7.091540,0.403020,-0.937782,-0.781594,-0.727281,0.418845,0.565447,-0.011630,0.060774,0.277900,0.958615,32.374400,-7.064213,179.337147
35269,NaN,1.190152,5.561884,7.018100,-0.093680,-0.981161,-0.833118,-0.860821,0.377373,0.621057,-0.014816,0.059874,0.273613,0.959860,31.836353,-7.068041,179.750458
35270,NaN,1.351067,4.977266,6.591660,-0.336849,-0.790644,-1.487461,-0.860089,0.563241,0.560040,-0.017968,0.058014,0.269319,0.961134,31.295194,-6.961158,-179.810071
35271,NaN,0.766698,4.639948,6.726220,0.215614,-0.500648,-1.623580,-0.676152,0.701831,0.435721,-0.020757,0.055284,0.265930,0.962182,30.863904,-6.743608,-179.391889
35272,NaN,0.451816,5.211644,8.049538,0.666336,-0.364692,-0.242781,-0.545339,0.573769,0.328954,-0.022902,0.053032,0.263203,0.963010,30.519180,-6.557307,-179.066023
35273,NaN,0.942851,5.533089,9.002101,0.264322,-0.230270,0.790068,-0.710003,0.373131,0.275293,-0.024476,0.051675,0.259720,0.963990,30.091278,-6.450380,-178.826656
35274,NaN,1.833769,4.596470,9.487448,-0.661474,0.718104,0.843198,-0.845434,0.283869,0.311123,-0.026076,0.050828,0.255577,0.965100,29.586606,-6.398122,-178.595888
35275,NaN,2.387389,4.110081,9.892557,-1.228636,1.237637,1.023047,-0.661662,0.420523,0.492745,-0.028769,0.049511,0.252255,0.965965,29.173606,-6.324832,-178.235712
35276,NaN,2.491578,4.852398,10.461895,-1.252039,0.782273,1.893068,-0.531284,0.675398,0.695100,-0.032796,0.047217,0.249463,0.966676,28.816397,-6.179875,-177.702859
35277,NaN,2.602393,5.238605,10.314732,-1.387349,0.277015,1.960438,-0.581262,1.037475,0.808266,-0.037805,0.043302,0.246340,0.967477,28.417025,-5.878098,-177.014102
35278,NaN,1.496046,4.819512,9.608460,-0.446224,0.269075,1.027774,-0.579138,1.340189,0.838652,-0.043336,0.037979,0.243141,0.968278,28.012961,-5.429526,-176.230099
35279,NaN,0.859296,4.738285,9.341561,0.076775,0.175865,0.695240,-0.530959,1.415740,0.791873,-0.048734,0.032198,0.240158,0.968975,27.644673,-4.922305,-175.453330
35280,NaN,1.033787,4.852055,9.068215,-0.184355,-0.140211,0.521183,-0.533737,1.432641,0.710819,-0.053760,0.026258,0.237144,0.969630,27.284026,-4.382769,-174.717261
35281,NaN,0.764537,4.719633,9.180050,-0.018972,-0.023430,0.537708,-0.588471,1.372859,0.654413,-0.058426,0.020532,0.233882,0.970291,26.903502,-3.851670,-174.029762
35282,NaN,1.631686,4.770418,9.591846,-0.962592,-0.057241,0.980426,-0.614959,1.439538,0.582094,-0.062818,0.014427,0.230454,0.970946,26.514801,-3.265813,-173.366174
35283,NaN,2.297087,4.917653,10.137817,-1.726495,-0.125732,1.555501,-0.649548,1.761519,0.480778,-0.067076,0.006629,0.226754,0.971617,26.114103,-2.481722,-172.677333
35284,NaN,1.659042,4.993763,10.587264,-1.247326,-0.036901,1.943982,-0.730718,1.938021,0.439895,-0.071331,-0.002021,0.222570,0.972302,25.675086,-1.594337,-171.971612
35285,NaN,1.116288,5.016455,10.566167,-0.874526,-0.121890,1.903595,-0.823776,1.952901,0.421483,-0.075500,-0.010755,0.217912,0.972984,25.195315,-0.686164,-171.279201
35286,NaN,0.985904,4.977680,10.452981,-0.906401,-0.251497,1.768576,-0.869342,1.895599,0.457267,-0.079781,-0.019126,0.213022,0.973597,24.698879,0.186269,-170.590007
35287,NaN,0.931941,5.126591,10.650179,-1.005295,-0.435022,1.992944,-0.863148,1.986829,0.504888,-0.084375,-0.027918,0.208114,0.974059,24.218528,1.104018,-169.861718
35288,NaN,0.705240,5.145054,10.538913,-0.933623,-0.598333,1.883636,-0.853387,2.090297,0.605092,-0.089557,-0.037079,0.203188,0.974330,23.756200,2.055131,-169.064303
35289,NaN,0.763128,5.425000,10.420668,-1.098808,-1.049065,1.861702,-0.820799,2.172419,0.648998,-0.095013,-0.046636,0.198373,0.974395,23.328979,3.048916,-168.231834
35290,NaN,0.991756,5.179183,10.315054,-1.526508,-1.059725,1.621891,-0.813965,2.427031,0.613067,-0.100535,-0.057433,0.193423,0.974260,22.921892,4.187284,-167.367516
35291,NaN,0.318120,4.931580,10.067872,-1.069889,-0.933218,1.312184,-0.941672,2.555530,0.567188,-0.105971,-0.068857,0.187745,0.974054,22.460417,5.413919,-166.506286
35292,NaN,-0.080487,4.722142,9.935978,-0.898774,-0.855808,1.118134,-0.988884,2.604180,0.436000,-0.110815,-0.080567,0.181724,0.973758,21.982359,6.697711,-165.712964
35293,NaN,0.162780,4.345420,10.095986,-1.441327,-0.687337,1.063060,-1.064791,2.599600,0.298987,-0.114990,-0.092358,0.175250,0.973414,21.469180,8.018963,-165.003102
35294,NaN,0.282456,3.728638,9.835980,-1.822252,-0.415178,0.542495,-1.087819,2.603120,0.247109,-0.118909,-0.104140,0.168599,0.972928,20.952376,9.354729,-164.330486
35295,NaN,0.243791,3.407853,10.197266,-2.147771,-0.178814,0.723223,-1.007042,2.665778,0.231916,-0.122735,-0.116306,0.162266,0.972152,20.497995,10.737136,-163.661923
35296,NaN,0.917032,3.873724,10.744592,-3.061849,-0.820174,1.198080,-0.927221,2.844066,0.329465,-0.127114,-0.129241,0.156229,0.970944,20.120716,12.195780,-162.911133
35297,NaN,0.716983,3.734764,10.201340,-2.980426,-0.977830,0.612396,-1.013307,3.061420,0.516918,-0.132590,-0.143040,0.149723,0.969300,19.746487,13.744599,-162.018421
35298,NaN,0.189901,3.166854,9.591125,-2.652363,-0.646002,-0.086723,-1.043619,3.256473,0.710445,-0.139141,-0.157529,0.143033,0.967143,19.413196,15.361150,-160.983384
35299,NaN,-0.428707,3.146026,9.047813,-2.139612,-0.741910,-0.495595,-0.994696,3.493913,0.861637,-0.146501,-0.173091,0.136490,0.964338,19.175447,17.088229,-159.816011
35300,NaN,-0.852661,3.261046,8.548753,-1.779378,-0.986134,-0.851845,-1.030438,3.689950,0.942509,-0.154370,-0.189397,0.129648,0.960984,18.977340,18.904204,-158.560401
35301,NaN,-1.571111,3.051456,8.073238,-1.238461,-0.800466,-1.165395,-1.103314,3.742166,0.929872,-0.162213,-0.205887,0.122355,0.957250,18.780874,20.761312,-157.293941
35302,NaN,-1.523499,2.258188,7.551296,-1.483846,-0.336721,-1.930999,-1.145455,3.749340,0.847794,-0.169653,-0.222286,0.114719,0.953229,18.582791,22.634715,-156.066019
35303,NaN,-0.916503,1.682581,7.488449,-2.344101,-0.207549,-2.450401,-1.007195,3.875670,0.808295,-0.176746,-0.239396,0.107546,0.948622,18.509610,24.593394,-154.823124
35304,NaN,-1.119958,1.790560,7.105542,-2.182416,-0.428782,-2.741932,-0.759972,4.138985,0.805564,-0.183603,-0.257807,0.101258,0.943172,18.647098,26.687819,-153.508260
35305,NaN,-2.235892,2.408649,6.436521,-0.990311,-0.742399,-2.692861,-0.605499,4.190512,0.781330,-0.190079,-0.276559,0.095577,0.937150,18.932746,28.817421,-152.162886
35306,NaN,-2.780187,2.872882,5.906531,-0.356525,-1.085207,-2.772756,-0.585774,4.004349,0.765971,-0.196292,-0.294277,0.090098,0.930995,19.264418,30.835208,-150.828756
35307,NaN,-2.706551,3.028498,5.807552,-0.506746,-1.356404,-2.875508,-0.652644,3.796465,0.816404,-0.202656,-0.310887,0.084554,0.924733,19.614407,32.731579,-149.465887
35308,NaN,-2.278171,2.848364,5.683786,-0.981155,-1.470649,-3.295032,-0.507471,3.750175,0.891643,-0.209055,-0.327213,0.079809,0.918073,20.128038,34.572046,-148.021130
35309,NaN,-3.239317,3.056904,6.599193,-1.023059,-1.324822,-2.029373,-0.470594,3.881703,0.899624,-0.215392,-0.344118,0.075080,0.910798,20.759322,36.476961,-146.481201
35310,NaN,-5.415075,3.712903,6.554956,0.441768,-1.034651,-0.603776,-0.528733,3.760116,1.065377,-0.222464,-0.360140,0.070472,0.903240,21.481425,38.259976,-144.798539
35311,NaN,-4.837401,3.658764,5.762418,0.354654,-1.298518,-1.555785,-0.804735,3.607390,1.100543,-0.230043,-0.375085,0.064825,0.895650,22.120942,39.946000,-143.063261
35312,NaN,-4.883739,2.694225,5.208712,0.218215,-0.464987,-2.198695,-0.891954,3.507948,1.180182,-0.238036,-0.389256,0.059027,0.887882,22.806163,41.538641,-141.236158
35313,NaN,-5.586662,2.049049,5.587558,-0.099337,0.327355,-1.657416,-0.875073,3.382724,1.194362,-0.245929,-0.402817,0.053459,0.880000,23.571665,43.052076,-139.362697
35314,NaN,-6.496406,1.669656,4.798813,0.609520,1.108984,-1.663240,-0.791064,3.203576,1.194750,-0.253538,-0.415498,0.048465,0.872199,24.426725,44.444563,-137.475903
35315,NaN,-7.021453,1.704909,4.829286,0.647639,1.279568,-1.241321,-0.691043,2.905750,1.145837,-0.260571,-0.426968,0.044168,0.864784,25.329311,45.680231,-135.650142
35316,NaN,-6.412463,2.069765,5.032925,0.127707,0.591548,-1.424350,-0.598105,2.750461,1.069480,-0.266988,-0.437741,0.040298,0.857599,26.273130,46.827248,-133.873884
35317,NaN,-6.106155,2.496412,4.737506,0.196564,0.072807,-1.693946,-0.490061,2.826975,0.936090,-0.272543,-0.448975,0.036491,0.850182,27.307546,48.033064,-132.096327
35318,NaN,-6.918955,2.800099,4.041899,1.043518,0.294661,-1.394245,-0.387424,2.767762,0.765738,-0.277081,-0.459972,0.032806,0.842956,28.358985,49.226148,-130.403731
35319,NaN,-8.506513,2.786512,3.778839,1.716735,1.103040,-0.313352,-0.280734,2.397165,0.620349,-0.280642,-0.469555,0.029748,0.836584,29.347168,50.259462,-128.906055
35320,NaN,-9.331734,2.791401,3.822341,1.824828,1.462306,0.385954,-0.217120,1.900528,0.511974,-0.283498,-0.477052,0.027389,0.831445,30.184137,51.055525,-127.667125
35321,NaN,-8.435180,2.863262,3.938113,1.265642,0.900587,-0.197860,-0.220329,1.494598,0.473841,-0.286118,-0.482879,0.025505,0.827233,30.892828,51.657125,-126.605857
35322,NaN,-7.117919,2.942252,4.384363,0.338715,0.051760,-0.956841,-0.278236,1.333794,0.539652,-0.289118,-0.487873,0.023760,0.823302,31.566750,52.147647,-125.551089
35323,NaN,-6.403018,2.978457,4.419859,-0.024436,-0.365271,-1.489814,-0.358236,1.428736,0.630642,-0.292677,-0.493152,0.021778,0.818943,32.320089,52.653264,-124.348806
35324,NaN,-6.554716,2.803745,4.498088,-0.215431,-0.189601,-1.388038,-0.475453,1.621465,0.736716,-0.296964,-0.498953,0.019285,0.813933,33.172990,53.204091,-122.942577
35325,NaN,-6.516412,2.756642,4.235821,-0.149454,-0.125295,-1.568568,-0.455991,1.843594,0.946588,-0.302043,-0.505666,0.017071,0.807948,34.311658,53.783569,-121.208458
35326,NaN,-7.366236,3.448640,4.340229,0.202852,-0.309100,-0.601120,-0.393393,2.202442,1.133520,-0.307716,-0.513791,0.015030,0.800689,35.812372,54.441737,-119.081983
35327,NaN,-8.236140,4.444951,4.225260,0.836761,-0.659065,0.400377,-0.570061,2.433299,1.182004,-0.313994,-0.522525,0.012057,0.792610,37.433028,55.159430,-116.706469
35328,NaN,-7.422366,4.170524,4.060411,0.455506,-0.830269,-0.427985,-0.944329,2.519092,1.190376,-0.321231,-0.530859,0.007477,0.784183,38.960540,55.871099,-114.201010
35329,NaN,-7.635551,3.098282,3.516842,0.252505,0.269189,-0.861164,-1.147194,2.782865,1.292924,-0.329335,-0.539815,0.001956,0.774683,40.680298,56.624499,-111.349494
35330,NaN,-8.777849,3.115469,2.607180,1.041357,1.125856,-0.262948,-1.030765,2.841809,1.313215,-0.337121,-0.549003,-0.003164,0.764810,42.608132,57.341295,-108.350161
35331,NaN,-9.230909,3.041300,2.045077,1.315841,1.603781,-0.100160,-1.034478,2.697101,1.304203,-0.344792,-0.557533,-0.008072,0.755123,44.548925,57.949165,-105.358347
35332,NaN,-8.658014,2.059487,1.307352,1.107691,2.343467,-1.199376,-0.994241,2.422842,1.369045,-0.352530,-0.564930,-0.012182,0.745941,46.446413,58.364096,-102.458198
35333,NaN,-8.401535,0.967251,0.746794,0.741531,3.272240,-2.014116,-0.655478,2.221289,1.502799,-0.359747,-0.572106,-0.014284,0.736935,48.546796,58.592952,-99.560878
35334,NaN,-8.702173,1.042317,0.685425,0.640571,3.412823,-1.736666,-0.004780,2.094139,1.525500,-0.365130,-0.579850,-0.013707,0.728194,50.962052,58.704062,-96.733628
35335,NaN,-8.726998,1.912945,1.447926,0.261949,2.475228,-1.111141,0.442914,1.804308,1.594160,-0.369429,-0.587303,-0.010755,0.720057,53.474599,58.619632,-94.096222
35336,NaN,-9.292789,3.157310,2.503313,-0.159174,1.423828,0.213924,0.857024,1.828677,1.567938,-0.372354,-0.595487,-0.006453,0.711833,56.201318,58.493414,-91.479947
35337,NaN,-10.227693,5.343411,3.233407,0.139389,0.025284,2.170025,1.005718,1.847995,1.295070,-0.373810,-0.603943,-0.002448,0.703927,58.881249,58.440144,-89.018983
35338,NaN,-9.176268,7.088469,2.842119,1.138587,-1.600315,1.962951,0.717166,1.758152,1.016640,-0.375103,-0.611432,-0.000154,0.696742,61.176276,58.444690,-86.812088
35339,NaN,-7.597677,6.732480,2.288500,1.271583,-1.921177,0.335135,0.103431,1.755254,0.873187,-0.377738,-0.617723,-0.000408,0.689733,63.064367,58.477677,-84.673421
35340,NaN,-8.232068,4.994621,1.776929,0.616324,-0.119378,-0.041577,-0.124535,1.742330,0.849591,-0.380958,-0.623454,-0.001515,0.682769,64.794957,58.485135,-82.564078
35341,NaN,-8.380012,4.154678,0.832701,0.816984,0.999034,-0.511516,-0.034983,1.604267,0.913969,-0.384089,-0.628856,-0.001835,0.676027,66.489368,58.392359,-80.559111
35342,NaN,-7.253687,4.308619,1.550272,0.239888,-0.043648,-1.238162,-0.006730,1.671472,0.890400,-0.387013,-0.634461,-0.002280,0.669085,68.229767,58.296775,-78.514643
35343,NaN,-6.790495,4.582692,2.027071,-0.112303,-0.722307,-1.405258,-0.021862,1.889514,0.951875,-0.390153,-0.640727,-0.002985,0.661241,70.164994,58.176837,-76.230949
35344,NaN,-6.317585,4.434218,1.961801,-0.216174,-0.845662,-1.896927,-0.156769,2.127246,1.074887,-0.394077,-0.647414,-0.004221,0.652335,72.239615,57.993577,-73.685845
35345,NaN,-5.745188,3.789181,1.351146,-0.099296,-0.392364,-2.810907,-0.152322,2.422064,1.293054,-0.398629,-0.654992,-0.005301,0.641913,74.605060,57.685037,-70.795844
35346,NaN,-6.699099,3.710122,0.857620,-0.077649,0.387081,-2.117318,0.122968,2.768353,1.432948,-0.402631,-0.664071,-0.005744,0.629972,77.395859,57.279516,-67.574730
35347,NaN,-7.752984,4.689144,0.603468,0.176815,0.363800,-0.741245,0.396604,2.909388,1.473587,-0.405749,-0.673999,-0.005457,0.617304,80.397786,56.777804,-64.274859
35348,NaN,-7.633277,5.715348,0.069219,0.889012,-0.115282,-0.319204,0.439183,2.988910,1.505960,-0.408705,-0.684052,-0.005105,0.604157,83.388753,56.173167,-60.994184
35349,NaN,-8.130176,6.580984,-0.112067,1.041768,-0.373489,0.588711,0.376217,2.960664,1.440579,-0.411569,-0.693721,-0.005092,0.591047,86.207816,55.510947,-57.855516
35350,NaN,-8.476065,7.215844,-0.716477,1.447211,-0.306463,1.243071,0.235118,2.791102,1.254546,-0.414270,-0.702399,-0.005806,0.578777,88.685019,54.872576,-55.008043
35351,NaN,-6.801485,7.128528,-1.124679,2.033222,-0.812946,-0.140973,-0.018643,2.581570,1.151507,-0.417483,-0.709808,-0.007166,0.567300,90.760413,54.226187,-52.454798
35352,NaN,-6.193722,5.978885,-1.588915,1.861476,-0.064117,-1.259237,-0.173695,2.524557,1.139951,-0.421133,-0.716578,-0.008898,0.555953,92.616216,53.539119,-50.040105
35353,NaN,-6.890710,4.982890,-1.285549,0.682433,0.711524,-1.269360,-0.119331,2.359858,1.189019,-0.424655,-0.722891,-0.009944,0.544974,94.299308,52.783868,-47.859325
35354,NaN,-7.737373,4.696844,-0.988604,-0.229806,1.083822,-0.775340,0.120647,2.017577,1.273110,-0.427488,-0.728659,-0.009314,0.534998,95.780884,51.964183,-46.082178
35355,NaN,-6.971595,4.809651,-1.165998,0.093098,0.783903,-1.299791,0.343774,1.755593,1.325981,-0.429607,-0.734122,-0.007322,0.525785,97.133512,51.102571,-44.613946
35356,NaN,-5.805009,4.742564,-1.540408,0.691989,0.558493,-2.212055,0.506097,1.700238,1.475989,-0.431468,-0.739688,-0.004246,0.516410,98.462358,50.141381,-43.276514
35357,NaN,-5.842312,5.018720,-1.402409,0.510390,0.319226,-2.007477,0.747060,1.851799,1.552675,-0.432573,-0.746071,-0.000578,0.506220,99.960035,49.099843,-41.880369
35358,NaN,-6.617127,6.334456,-1.468038,0.534825,-0.131738,-0.552128,0.926411,2.155424,1.565944,-0.432960,-0.753468,0.002925,0.494797,101.677406,47.995606,-40.304305
35359,NaN,-8.175953,8.519249,-1.723852,0.576037,-0.702089,2.085313,0.944001,2.367550,1.134307,-0.432135,-0.761295,0.004398,0.483394,103.515956,47.071941,-38.553474
35360,NaN,-7.127661,8.920245,-2.370508,1.511846,-1.031606,1.704226,0.329238,2.197853,0.830890,-0.432838,-0.767255,0.003585,0.473242,104.880381,46.310255,-36.944967
35361,NaN,-5.890273,7.633221,-3.037399,1.959300,-0.320526,0.099064,-0.087122,2.204921,0.763228,-0.434922,-0.772235,0.001523,0.463135,105.974846,45.559102,-35.360781
35362,NaN,-5.823498,6.833840,-3.162092,1.585868,0.223283,-0.429428,-0.064901,2.394721,0.696411,-0.436702,-0.777584,-0.001168,0.452386,107.151727,44.793692,-33.656826
35363,NaN,-6.307401,6.973226,-3.155358,1.158496,0.297326,0.032690,0.001824,2.481585,0.670896,-0.438096,-0.783158,-0.003987,0.441270,108.370460,44.000314,-31.925045
35364,NaN,-6.602561,7.145641,-3.375235,0.995715,0.422289,0.428057,-0.066828,2.411668,0.677413,-0.439702,-0.788298,-0.006786,0.430352,109.463050,43.193074,-30.293410
35365,NaN,-6.605817,6.619034,-3.577491,0.726282,0.863894,0.135674,-0.166074,2.224810,0.746719,-0.441792,-0.792708,-0.009107,0.419941,110.348933,42.363207,-28.857853
35366,NaN,-6.193655,5.760122,-3.435167,0.382013,1.124475,-0.761298,-0.082080,2.068625,0.845395,-0.443702,-0.796874,-0.010520,0.409889,111.149987,41.498107,-27.597652
35367,NaN,-5.529754,5.626354,-3.337333,0.530164,0.890237,-1.310008,0.169545,2.018774,0.990716,-0.444858,-0.801407,-0.010720,0.399666,112.008215,40.551259,-26.447366
35368,NaN,-5.420177,5.990328,-3.547312,0.685790,0.766017,-1.049960,0.408863,1.994814,1.158956,-0.445329,-0.806327,-0.009720,0.389133,112.923824,39.508607,-25.397795
35369,NaN,-5.845594,6.686940,-3.653296,0.499746,0.541054,-0.237398,0.514088,1.922665,1.266807,-0.445533,-0.811236,-0.007912,0.378595,113.810329,38.411781,-24.466002
35370,NaN,-5.886765,7.129942,-3.657811,0.410014,0.270960,0.118279,0.482383,1.773842,1.324397,-0.445914,-0.815688,-0.005604,0.368486,114.573403,37.310731,-23.683613
35371,NaN,-6.381372,7.374352,-3.953929,0.087688,0.483379,0.698781,0.443717,1.708239,1.284405,-0.446333,-0.819831,-0.003376,0.358682,115.266338,36.237308,-22.960902
35372,NaN,-7.433256,8.177887,-3.777015,-0.749208,0.172024,1.840741,0.434806,1.587798,0.896915,-0.446042,-0.823648,-0.002491,0.350205,115.955051,35.388205,-22.220962
35373,NaN,-6.195261,8.429636,-3.523393,-0.050988,-0.576062,1.210847,0.066384,1.313770,0.630529,-0.446782,-0.826102,-0.002729,0.343415,116.362568,34.738435,-21.588287
35374,NaN,-5.096090,7.702059,-3.985698,0.698267,-0.132064,0.220831,-0.172117,1.335804,0.559720,-0.448354,-0.828017,-0.003725,0.336679,116.643156,34.117489,-20.929153
35375,NaN,-4.963206,7.420656,-3.638677,0.411464,-0.250826,-0.184275,-0.338037,1.420095,0.518746,-0.450525,-0.829654,-0.005353,0.329656,116.853462,33.492199,-20.213853
35376,NaN,-5.250512,7.276180,-3.701401,0.065724,-0.026605,-0.106767,-0.306190,1.534086,0.502468,-0.452498,-0.831499,-0.007257,0.322182,117.112430,32.844203,-19.431866
35377,NaN,-5.192012,7.263868,-4.220605,0.260808,0.355456,0.053340,-0.190368,1.636269,0.476311,-0.453920,-0.833711,-0.009309,0.314319,117.461696,32.178172,-18.590294
35378,NaN,-5.450143,7.537736,-4.593088,0.191508,0.533712,0.545626,-0.073155,1.708568,0.471710,-0.454800,-0.836241,-0.011364,0.306153,117.888024,31.491433,-17.715216
35379,NaN,-5.097540,7.759264,-4.857806,0.532224,0.496164,0.639975,-0.010041,1.605186,0.523374,-0.455475,-0.838694,-0.012865,0.298276,118.294320,30.800107,-16.930200
35380,NaN,-4.480632,7.793597,-5.060366,1.003412,0.465394,0.443934,0.015315,1.516638,0.643145,-0.456188,-0.841027,-0.013629,0.290483,118.656766,30.069056,-16.245507
35381,NaN,-4.221999,7.893964,-4.483448,0.828434,-0.102858,0.164418,-0.041834,1.389563,0.830343,-0.457401,-0.842998,-0.013393,0.282771,118.906890,29.275019,-15.703984
35382,NaN,-5.418036,8.718178,-3.178800,-0.689665,-1.305956,0.830797,-0.152851,1.276467,0.859421,-0.459093,-0.844510,-0.012936,0.275445,119.048908,28.496818,-15.243103
35383,NaN,-5.035449,8.338573,-4.025741,-0.226765,-0.501880,0.712949,-0.107657,1.346642,0.859790,-0.460570,-0.846166,-0.012571,0.267807,119.225954,27.697114,-14.748990
35384,NaN,-4.674949,7.887381,-4.575694,0.050740,0.115493,0.433523,-0.077532,1.521298,0.902371,-0.461927,-0.848071,-0.012390,0.259318,119.450375,26.826248,-14.176724
35385,NaN,-6.032796,8.040235,-4.246419,-1.386690,0.060068,1.010588,-0.039616,1.508734,0.814765,-0.462982,-0.849975,-0.012499,0.251064,119.693619,25.999862,-13.592419
35386,NaN,-7.198220,8.367097,-4.661838,-2.301465,0.434199,1.937561,-0.066008,1.219674,0.644977,-0.463920,-0.851397,-0.012696,0.244419,119.866856,25.339117,-13.120674
35387,NaN,-6.963396,8.726978,-4.635180,-2.128791,0.158936,2.085896,-0.281671,0.760566,0.405618,-0.465504,-0.851711,-0.013106,0.240257,119.835416,24.926888,-12.828876
35388,NaN,-6.104709,9.193194,-4.611662,-1.327295,-0.267899,2.070741,-0.481127,0.439003,0.294003,-0.467809,-0.851154,-0.013490,0.237718,119.629709,24.663602,-12.677939
35389,NaN,-5.699772,9.528686,-4.669851,-0.896640,-0.431034,2.191498,-0.700556,0.257206,0.261374,-0.471022,-0.849853,-0.013840,0.236000,119.260188,24.467003,-12.615744
35390,NaN,-4.903813,9.099831,-5.027019,-0.174395,0.021955,1.680508,-0.914046,0.216601,0.229742,-0.475092,-0.847984,-0.014490,0.234522,118.764139,24.299745,-12.564493
35391,NaN,-4.194414,7.970277,-5.774786,0.445241,1.196337,0.809765,-0.861947,0.347289,0.198500,-0.478892,-0.846370,-0.015512,0.232551,118.331220,24.111035,-12.430524
35392,NaN,-4.316218,7.003987,-6.258721,0.243036,2.198538,0.285044,-0.511672,0.574673,0.182263,-0.481156,-0.845843,-0.016749,0.229691,118.152712,23.871279,-12.164949
35393,NaN,-4.838702,6.919357,-6.058804,-0.368084,2.198561,0.337696,-0.048942,0.478680,0.208401,-0.481504,-0.846311,-0.017104,0.227199,118.213023,23.642795,-11.960562
35394,NaN,-4.858080,7.405921,-5.761381,-0.421661,1.682579,0.610029,0.296454,0.301225,0.289398,-0.480481,-0.847415,-0.016306,0.225302,118.423037,23.423134,-11.878196
35395,NaN,-5.191496,8.225650,-5.767467,-0.562530,1.282778,1.408473,0.401734,0.076921,0.347831,-0.479106,-0.848513,-0.014594,0.224211,118.635632,23.233277,-11.937779
35396,NaN,-5.910075,8.927649,-5.539335,-1.147411,0.829910,2.158562,0.281433,-0.166842,0.147653,-0.478016,-0.849037,-0.013292,0.224636,118.752142,23.213353,-12.070591
35397,NaN,-4.807829,8.740518,-5.303639,-0.273255,0.517713,1.469940,0.106821,-0.475807,-0.068762,-0.477458,-0.848772,-0.012356,0.226865,118.725339,23.385257,-12.308295
35398,NaN,-3.618174,8.286408,-5.845260,0.925065,0.969745,0.870315,0.114957,-0.504733,-0.063366,-0.476853,-0.848494,-0.011331,0.229216,118.697441,23.564658,-12.563103
35399,NaN,-3.507150,8.312665,-5.731526,1.025272,0.833032,0.794181,0.167196,-0.578271,-0.031395,-0.476082,-0.848246,-0.009923,0.231791,118.676488,23.745763,-12.869065
35400,NaN,-5.550475,9.446237,-5.317917,-0.633879,0.293745,2.345886,0.141934,-0.901645,-0.095602,-0.475332,-0.847554,-0.008058,0.235896,118.577660,24.049765,-13.333490
35401,NaN,-4.326439,9.805296,-5.684652,0.765821,0.145208,2.293874,0.041075,-1.103902,-0.226436,-0.474870,-0.846348,-0.006374,0.241148,118.385318,24.471710,-13.873506
35402,NaN,-2.779740,9.354581,-6.025940,2.258758,0.343000,1.426824,-0.174043,-1.059462,-0.266271,-0.475235,-0.844665,-0.005235,0.246303,118.082116,24.901727,-14.379825
35403,NaN,-3.131363,8.719714,-6.433805,2.054734,1.108029,1.222820,-0.058453,-0.814751,-0.325408,-0.475040,-0.843527,-0.004773,0.250551,117.903354,25.291768,-14.736500
35404,NaN,-3.737246,8.924184,-6.392644,1.639783,1.090481,1.615147,0.160992,-0.674289,-0.361586,-0.473841,-0.843081,-0.004532,0.254299,117.888655,25.663510,-15.004330
35405,NaN,-5.181196,10.064576,-6.060491,0.604672,0.505744,3.003241,0.277967,-0.728881,-0.340088,-0.472191,-0.842819,-0.003913,0.258219,117.920117,26.037460,-15.311226
35406,NaN,-5.372919,10.468387,-5.815004,0.526603,0.104936,3.301443,0.218437,-0.946592,-0.381406,-0.470709,-0.842126,-0.003039,0.263150,117.869116,26.491979,-15.728518
35407,NaN,-4.131800,9.523086,-5.251559,1.212940,-0.134158,1.756655,0.120099,-1.071602,-0.426340,-0.469592,-0.840999,-0.002181,0.268700,117.728479,27.000715,-16.207270
35408,NaN,-3.911385,8.605880,-4.498727,0.923008,-0.284231,0.611578,0.131632,-0.995651,-0.383738,-0.468446,-0.839986,-0.001315,0.273824,117.606410,27.467758,-16.657390
35409,NaN,-4.757892,8.075972,-3.900831,-0.128716,-0.249665,0.336008,0.120956,-0.888672,-0.334462,-0.467421,-0.839062,-0.000499,0.278374,117.492322,27.879477,-17.065203
35410,NaN,-5.613896,7.528820,-3.143017,-1.275298,-0.314305,0.003212,0.089081,-0.869081,-0.367832,-0.466452,-0.838082,0.000079,0.282915,117.369236,28.303250,-17.452842
35411,NaN,-6.022877,7.078382,-2.286432,-2.068176,-0.619560,-0.488280,0.126345,-0.897511,-0.507740,-0.465138,-0.837117,0.000198,0.287893,117.272560,28.804057,-17.819126
35412,NaN,-4.730425,6.248990,-1.204121,-1.662163,-1.338852,-2.175867,0.083045,-0.899028,-0.562572,-0.463893,-0.836034,0.000019,0.293001,117.157073,29.334068,-18.171423
35413,NaN,-4.510260,5.708977,-0.453042,-1.939913,-1.674532,-2.988275,0.126848,-0.745868,-0.478678,-0.462597,-0.835248,-0.000092,0.297263,117.091890,29.779334,-18.463088
35414,NaN,-4.674548,5.879071,0.258026,-2.342995,-2.275383,-3.044056,0.133266,-0.679092,-0.339858,-0.461455,-0.834567,0.000223,0.300928,117.028525,30.137926,-18.757960
35415,NaN,-4.314422,6.030952,0.512631,-2.105379,-2.651426,-3.195539,-0.006472,-0.612577,-0.228894,-0.461074,-0.833646,0.000646,0.304047,116.883801,30.420259,-19.049560
35416,NaN,-4.316831,6.038410,0.623942,-2.134893,-2.720783,-3.215254,-0.334946,-0.572768,-0.113213,-0.462222,-0.832020,0.000950,0.306744,116.544058,30.634303,-19.353793
35417,NaN,-3.947998,5.645076,-0.358286,-1.417972,-1.815529,-3.310764,-0.484207,-0.392873,-0.026046,-0.464132,-0.830315,0.000983,0.308476,116.157730,30.753938,-19.578906
35418,NaN,-4.930771,6.436388,-0.052959,-2.116070,-2.182053,-2.295838,-0.650992,-0.296816,-0.052735,-0.466682,-0.828359,0.000413,0.309886,115.708222,30.864339,-19.739965
35419,NaN,-3.462176,7.374307,-0.385367,-0.450927,-2.836717,-2.179542,-0.870957,-0.033867,-0.117986,-0.470042,-0.826287,-0.001370,0.310336,115.222970,30.940086,-19.724861
35420,NaN,-3.181966,7.193168,-1.349607,0.253936,-2.012658,-2.094379,-1.187709,0.414975,-0.107216,-0.474709,-0.824136,-0.004665,0.308916,114.692876,30.904425,-19.442382
35421,NaN,-4.381551,6.456188,-3.543513,0.180105,0.519280,-1.260822,-1.184805,0.801836,-0.028723,-0.479456,-0.822561,-0.008540,0.305682,114.274327,30.735398,-18.946065
35422,NaN,-4.642884,5.995938,-4.605385,0.326213,1.739320,-1.118711,-0.960989,0.852937,0.041497,-0.483367,-0.821559,-0.011917,0.302084,113.987562,30.522752,-18.438260
35423,NaN,-5.060955,6.184910,-4.500099,-0.046532,1.707568,-0.801633,-0.554992,0.614822,0.162209,-0.485791,-0.821170,-0.013598,0.299169,113.843221,30.301394,-18.107111
35424,NaN,-4.798249,7.438252,-4.457254,0.501416,0.963064,0.038141,-0.226407,0.492673,0.224331,-0.486959,-0.821384,-0.014247,0.296641,113.839630,30.078690,-17.867420
35425,NaN,-4.301133,8.141444,-5.091505,1.390950,0.993219,0.569262,-0.245892,0.415022,0.239183,-0.488232,-0.821436,-0.014664,0.294374,113.798997,29.863697,-17.678774
35426,NaN,-4.764255,7.921603,-5.064260,0.892401,1.233529,0.617007,-0.313171,0.337119,0.213175,-0.489742,-0.821199,-0.015107,0.292500,113.699146,29.682869,-17.530455
35427,NaN,-4.036527,7.565123,-5.109911,1.379263,1.293710,-0.011684,-0.266602,0.164604,0.228482,-0.491099,-0.820824,-0.014986,0.291283,113.572365,29.531542,-17.490058
35428,NaN,-3.580844,7.180081,-5.301682,1.705095,1.552539,-0.476412,-0.128927,0.125194,0.251391,-0.491918,-0.820728,-0.014484,0.290194,113.510248,29.379371,-17.479056
35429,NaN,-3.341906,7.016087,-5.403021,1.875506,1.667472,-0.686440,0.049611,0.108884,0.284813,-0.492060,-0.821049,-0.013535,0.289088,113.540904,29.211262,-17.486785
35430,NaN,-3.114118,6.862069,-5.292198,1.937344,1.593319,-0.952608,0.201714,0.173691,0.308519,-0.491595,-0.821840,-0.012437,0.287677,113.675651,29.017568,-17.461530
35431,NaN,-3.520086,6.961833,-5.508140,1.689477,1.806996,-0.588918,0.391017,0.245983,0.351320,-0.490418,-0.823195,-0.011060,0.285864,113.932713,28.782925,-17.405638
35432,NaN,-3.517965,7.721451,-5.855659,2.030297,1.658968,0.157816,0.577063,0.266602,0.313968,-0.488400,-0.825031,-0.009629,0.284071,114.307959,28.564052,-17.328199
35433,NaN,-3.964700,8.633760,-5.732707,1.816244,1.149205,1.073299,0.590050,0.243778,0.259620,-0.486261,-0.826847,-0.008340,0.282496,114.688230,28.377168,-17.252296
35434,NaN,-4.218036,9.109235,-5.537503,1.604069,0.757033,1.513718,0.492364,0.174422,0.222740,-0.484455,-0.828327,-0.007179,0.281292,114.999541,28.226638,-17.207477
35435,NaN,-4.208483,9.033051,-5.182642,1.390371,0.468644,1.323478,0.381746,0.119356,0.162675,-0.483038,-0.829445,-0.006283,0.280455,115.236986,28.119596,-17.180561
35436,NaN,-3.584438,8.598962,-4.570009,1.484876,0.011046,0.457182,0.340455,0.134457,0.107059,-0.481694,-0.830491,-0.005716,0.279684,115.464779,28.038042,-17.128487
35437,NaN,-3.240060,8.508432,-4.057989,1.490101,-0.472263,0.031861,0.336810,0.187372,0.094156,-0.480362,-0.831586,-0.005331,0.278726,115.703616,27.949391,-17.043596
35438,NaN,-2.800102,8.264922,-3.792007,1.647035,-0.696216,-0.467566,0.277944,0.212049,0.110924,-0.479278,-0.832584,-0.005020,0.277617,115.915784,27.845666,-16.948139
35439,NaN,-2.234399,7.883608,-3.583259,1.899390,-0.823955,-1.112291,0.236028,0.242073,0.158829,-0.478450,-0.833510,-0.004637,0.276272,116.102445,27.709416,-16.850692
35440,NaN,-1.762998,7.499958,-3.422828,2.091116,-0.882361,-1.693460,0.247042,0.324101,0.225935,-0.477649,-0.834585,-0.004155,0.274414,116.310805,27.517048,-16.724182
35441,NaN,-1.421340,7.129153,-3.427724,2.247145,-0.781135,-2.135818,0.298864,0.488201,0.256241,-0.476682,-0.835991,-0.003868,0.271807,116.584734,27.267362,-16.514046
35442,NaN,-1.846781,6.951734,-3.720722,1.920078,-0.367008,-1.953984,0.459212,0.653565,0.353583,-0.475153,-0.838006,-0.003346,0.268262,116.981645,26.922814,-16.238083
35443,NaN,-2.517961,7.479527,-4.286720,1.669296,-0.072769,-0.988462,0.588510,0.620882,0.458856,-0.473227,-0.840256,-0.002136,0.264614,117.424459,26.532689,-16.016609
35444,NaN,-2.345690,7.525881,-5.158633,2.137053,0.512246,-0.651764,0.596856,0.582475,0.530675,-0.471338,-0.842469,-0.000516,0.260933,117.852459,26.112985,-15.841028
35445,NaN,-3.373136,7.508585,-5.588545,1.349185,1.068713,-0.013434,0.704833,0.567062,0.549339,-0.469019,-0.844881,0.001354,0.257285,118.330356,25.688624,-15.685259
35446,NaN,-3.472123,7.805199,-5.071840,1.021016,0.458002,0.058842,0.826739,0.552555,0.471337,-0.466056,-0.847551,0.003093,0.253851,118.884850,25.303948,-15.517258
35447,NaN,-3.283488,8.450164,-4.139654,0.842750,-0.756621,0.088802,0.843976,0.691917,0.408609,-0.462942,-0.850396,0.004256,0.249986,119.483977,24.912505,-15.259089
35448,NaN,-2.715329,8.740069,-3.673360,1.116541,-1.489310,-0.128174,0.656957,0.839041,0.365474,-0.460543,-0.852981,0.004668,0.245567,120.014508,24.495829,-14.910636
35449,NaN,-2.374307,8.701396,-3.472721,1.237146,-1.756392,-0.389568,0.537606,1.024979,0.366455,-0.458657,-0.855474,0.004503,0.240370,120.510341,24.024745,-14.468198
35450,NaN,-2.383526,8.759541,-3.678354,1.238290,-1.670439,-0.241036,0.440633,1.080059,0.384054,-0.457180,-0.857792,0.004179,0.234865,120.956982,23.522499,-14.006591
