// General information: 
//  MT Manager version: 2019.0.1 
//  XDA version: 2019.0.1 build 2740 rev 84096 built on 2019-01-30
// Device information: 
//  DeviceId: 00B43876
//  ProductCode: MTW2-3A7G6
//  Firmware Version: 4.3.4
//  Hardware Version: 1.1.0
// Device settings: 
//  Filter Profile: human(46.1)
//  Option Flags: Orientation Smoother Disabled, AHS Disabled, ICC Disabled
// Coordinate system: ENU
PacketCounter,SampleTimeFine,Acc_X,Acc_Y,Acc_Z,FreeAcc_E,FreeAcc_N,FreeAcc_U,Gyr_X,Gyr_Y,Gyr_Z,Quat_q0,Quat_q1,Quat_q2,Quat_q3,Roll,Pitch,Yaw
41132,NaN,-0.619602,9.642996,-2.100599,0.021079,0.005340,0.075858,0.003835,0.018555,-0.003244,0.428961,0.566147,-0.533550,-0.459124,102.169339,3.561471,-89.479920
41133,NaN,-0.622184,9.595541,-2.064585,-0.004858,0.011151,0.022143,0.002286,0.015155,-0.004308,0.428966,0.566184,-0.533538,-0.459087,102.172799,3.561308,-89.474550
41134,NaN,-0.635201,9.625588,-2.075755,-0.000964,0.022277,0.054617,0.002633,0.017001,-0.004414,0.428977,0.566226,-0.533522,-0.459044,102.176346,3.560823,-89.468072
41135,NaN,-0.633034,9.653493,-2.055853,-0.026744,0.018669,0.077516,0.000190,0.017421,-0.002618,0.428996,0.566250,-0.533513,-0.459007,102.178382,3.558963,-89.463084
41136,NaN,-0.643948,9.602885,-2.073549,0.000588,0.032877,0.032544,0.003141,0.014857,-0.003029,0.429003,0.566284,-0.533507,-0.458966,102.182135,3.557961,-89.457977
41137,NaN,-0.641599,9.630772,-2.053791,-0.025224,0.029202,0.055442,0.002593,0.020520,-0.000274,0.429032,0.566323,-0.533495,-0.458905,102.185823,3.554818,-89.450105
41138,NaN,-0.634552,9.625387,-2.076888,-0.001928,0.022930,0.054615,-0.000177,0.017332,-0.000441,0.429060,0.566348,-0.533483,-0.458860,102.187741,3.552066,-89.443923
41139,NaN,-0.662584,9.638231,-2.062469,-0.019546,0.050765,0.065842,0.004643,0.010190,0.003196,0.429061,0.566351,-0.533516,-0.458818,102.192117,3.547900,-89.443487
41140,NaN,-0.664062,9.610245,-2.082956,0.005774,0.054725,0.042944,0.000978,0.010821,0.005889,0.429084,0.566348,-0.533538,-0.458775,102.194423,3.542391,-89.441727
41141,NaN,-0.641487,9.602774,-2.074824,-0.000590,0.033714,0.032542,-0.002319,0.011537,0.006406,0.429116,0.566330,-0.533559,-0.458741,102.194641,3.536235,-89.440770
41142,NaN,-0.616883,9.623274,-2.046433,-0.032557,0.008855,0.045035,-0.000917,0.005578,0.004930,0.429128,0.566313,-0.533586,-0.458720,102.195687,3.531896,-89.441836
41143,NaN,-0.617959,9.614814,-2.122894,0.043976,0.010943,0.052967,-0.005068,0.006590,0.004168,0.429149,0.566285,-0.533606,-0.458712,102.194368,3.527682,-89.443414
41144,NaN,-0.624348,9.620261,-2.099731,0.020196,0.017531,0.053790,-0.002417,0.010241,-0.001293,0.429163,0.566292,-0.533602,-0.458695,102.194762,3.526264,-89.441109
41145,NaN,-0.624196,9.620332,-2.099451,0.019912,0.017664,0.053791,-0.005021,0.014648,-0.000989,0.429194,0.566302,-0.533586,-0.458672,102.194050,3.524250,-89.436740
41146,NaN,-0.609114,9.618203,-2.068260,-0.010034,0.003047,0.044211,-0.000320,0.007974,-0.002981,0.429193,0.566313,-0.533586,-0.458660,102.195579,3.524052,-89.435502
41147,NaN,-0.643596,9.655872,-2.087257,0.000034,0.035388,0.087084,-0.001238,0.013550,0.001949,0.429218,0.566319,-0.533589,-0.458625,102.196698,3.520409,-89.432204
41148,NaN,-0.637011,9.631105,-2.053656,-0.027880,0.031009,0.055430,0.001553,0.014974,0.000049,0.429237,0.566342,-0.533588,-0.458581,102.199519,3.517666,-89.427406
41149,NaN,-0.677951,9.674062,-2.050223,-0.041368,0.069826,0.099120,0.004989,0.012031,0.003094,0.429240,0.566351,-0.533617,-0.458533,102.204298,3.513402,-89.425919
41150,NaN,-0.627150,9.653589,-2.057205,-0.030421,0.021118,0.077500,0.003233,0.004564,0.005694,0.429239,0.566338,-0.533658,-0.458502,102.207681,3.508759,-89.427647
41151,NaN,-0.637645,9.602959,-2.075153,-0.003030,0.035301,0.032536,0.006393,0.006074,0.001618,0.429222,0.566343,-0.533694,-0.458470,102.212797,3.506120,-89.428710
41152,NaN,-0.628432,9.625480,-2.078314,-0.005311,0.025224,0.054608,0.002220,0.008845,0.002924,0.429229,0.566345,-0.533716,-0.458435,102.215767,3.502509,-89.427701
41153,NaN,-0.643043,9.627576,-2.109786,0.024113,0.040144,0.064191,0.006552,0.002087,0.003110,0.429201,0.566336,-0.533769,-0.458411,102.221225,3.499537,-89.431760
41154,NaN,-0.590437,9.634980,-2.096834,0.009474,-0.012348,0.065467,0.007427,0.000031,0.002319,0.429168,0.566331,-0.533820,-0.458389,102.226881,3.497334,-89.435623
41155,NaN,-0.629593,9.597200,-2.100225,0.019537,0.029488,0.031718,0.005011,0.010269,0.001024,0.429167,0.566345,-0.533841,-0.458349,102.231250,3.494504,-89.433909
41156,NaN,-0.627119,9.625079,-2.080570,-0.006280,0.025869,0.054606,0.003789,0.010479,0.001921,0.429172,0.566357,-0.533859,-0.458307,102.235183,3.491255,-89.431863
41157,NaN,-0.626878,9.625006,-2.080978,-0.006596,0.025991,0.054605,0.003305,0.010859,-0.001533,0.429166,0.566378,-0.533869,-0.458274,102.239301,3.490070,-89.429600
41158,NaN,-0.646267,9.660400,-2.069548,-0.026234,0.043584,0.087890,0.006052,0.015802,0.000707,0.429176,0.566411,-0.533878,-0.458214,102.244721,3.486855,-89.424421
41159,NaN,-0.595631,9.639863,-2.076663,-0.015336,-0.005139,0.066280,0.005676,0.004142,0.003902,0.429160,0.566406,-0.533924,-0.458183,102.249626,3.483287,-89.426688
41160,NaN,-0.616784,9.647322,-2.085344,-0.009397,0.016220,0.076678,0.003925,0.008252,0.005482,0.429167,0.566403,-0.533958,-0.458140,102.253534,3.478315,-89.426326
41161,NaN,-0.618165,9.619283,-2.106032,0.015880,0.020139,0.053793,0.006348,0.009590,0.005759,0.429165,0.566405,-0.534001,-0.458088,102.259204,3.472984,-89.426270
41162,NaN,-0.608660,9.641817,-2.109196,0.013584,0.010065,0.075868,0.001533,0.016727,0.002117,0.429193,0.566426,-0.534002,-0.458035,102.262053,3.468865,-89.420745
41163,NaN,-0.601983,9.617019,-2.075842,-0.014383,0.005725,0.044204,0.004642,0.010180,0.003201,0.429190,0.566430,-0.534037,-0.457993,102.266800,3.464826,-89.420580
41164,NaN,-0.588116,9.606207,-2.121903,0.032426,-0.007065,0.042588,0.002242,0.007082,0.000855,0.429188,0.566434,-0.534056,-0.457968,102.269738,3.462587,-89.420312
41165,NaN,-0.602907,9.608310,-2.153224,0.061868,0.007873,0.052179,0.002273,0.016894,-0.002234,0.429197,0.566458,-0.534058,-0.457927,102.273218,3.460535,-89.416301
41166,NaN,-0.603427,9.588940,-2.096675,0.010436,0.009992,0.021322,-0.003953,0.018412,-0.003384,0.429232,0.566486,-0.534027,-0.457895,102.273021,3.459289,-89.409161
41167,NaN,-0.579809,9.609435,-2.068016,-0.021607,-0.014799,0.033805,-0.004601,0.011204,-0.007311,0.429237,0.566502,-0.534005,-0.457897,102.272357,3.461079,-89.406568
41168,NaN,-0.566923,9.598719,-2.113364,0.025197,-0.027604,0.032195,-0.003355,0.009233,-0.010276,0.429231,0.566529,-0.533975,-0.457905,102.272244,3.464809,-89.403736
41169,NaN,-0.591536,9.578330,-2.141265,0.056752,-0.002476,0.019713,-0.007159,0.012088,-0.011149,0.429238,0.566550,-0.533934,-0.457920,102.269934,3.468479,-89.400187
41170,NaN,-0.597122,9.611754,-2.097638,0.007397,0.000416,0.043397,-0.008169,0.016365,-0.013919,0.429256,0.566593,-0.533867,-0.457928,102.267331,3.473381,-89.392910
41171,NaN,-0.605050,9.617220,-2.074019,-0.016384,0.007090,0.044200,-0.010379,0.019092,-0.017862,0.429273,0.566639,-0.533788,-0.457946,102.263653,3.479938,-89.385115
41172,NaN,-0.606341,9.617346,-2.073056,-0.016629,0.007243,0.044200,-0.011949,0.017456,-0.016861,0.429298,0.566684,-0.533702,-0.457968,102.258945,3.486354,-89.376870
41173,NaN,-0.614594,9.622769,-2.049493,-0.040377,0.013883,0.045001,-0.005487,0.018246,-0.021442,0.429296,0.566755,-0.533617,-0.457980,102.257891,3.495245,-89.367779
41174,NaN,-0.606585,9.664765,-2.108336,0.008490,0.001823,0.097945,-0.004847,0.013882,-0.016497,0.429292,0.566806,-0.533557,-0.457992,102.257129,3.501893,-89.361583
41175,NaN,-0.639328,9.630244,-2.056973,-0.034672,0.035412,0.055393,-0.004104,0.014049,-0.020846,0.429273,0.566865,-0.533491,-0.458014,102.256895,3.510855,-89.355773
41176,NaN,-0.655887,9.632395,-2.087533,-0.005188,0.050275,0.064988,-0.008281,0.016814,-0.019545,0.429279,0.566923,-0.533407,-0.458033,102.254291,3.518854,-89.347561
41177,NaN,-0.613408,9.636832,-2.126995,0.033289,0.006089,0.075071,-0.006871,0.010862,-0.021020,0.429253,0.566962,-0.533351,-0.458074,102.252554,3.527993,-89.345089
41178,NaN,-0.630743,9.619601,-2.100839,0.011597,0.022953,0.053793,-0.007935,0.007089,-0.018635,0.429235,0.566996,-0.533292,-0.458118,102.249808,3.536665,-89.342444
41179,NaN,-0.677801,9.606716,-2.136613,0.049383,0.069267,0.051708,-0.010889,0.009643,-0.018229,0.429229,0.567021,-0.533230,-0.458166,102.245372,3.544537,-89.339863
41180,NaN,-0.618276,9.637090,-2.124416,0.032567,0.006585,0.075073,-0.012619,0.011987,-0.018717,0.429236,0.567056,-0.533149,-0.458209,102.240114,3.552660,-89.334461
41181,NaN,-0.635291,9.619985,-2.097710,0.010814,0.023497,0.053793,-0.014216,0.012110,-0.015647,0.429248,0.567072,-0.533086,-0.458253,102.234313,3.558783,-89.331339
41182,NaN,-0.665131,9.633011,-2.081758,-0.006733,0.051353,0.064981,-0.015250,0.006578,-0.015334,0.429256,0.567080,-0.533020,-0.458310,102.227334,3.565669,-89.329386
41183,NaN,-0.637625,9.620454,-2.094850,0.010355,0.023775,0.053792,-0.016712,0.004479,-0.008707,0.429281,0.567066,-0.532970,-0.458363,102.219232,3.569255,-89.328739
41184,NaN,-0.647455,9.598151,-2.090426,0.012193,0.034140,0.031715,-0.020971,0.005944,-0.015104,0.429305,0.567060,-0.532894,-0.458437,102.208952,3.576090,-89.327171
41185,NaN,-0.620211,9.585718,-2.102946,0.029192,0.006581,0.020529,-0.022884,0.002463,-0.014002,0.429323,0.567037,-0.532828,-0.458525,102.197788,3.582743,-89.328418
41186,NaN,-0.612757,9.608766,-2.103259,0.026865,-0.003482,0.042607,-0.025649,-0.000726,-0.014179,0.429344,0.567003,-0.532758,-0.458628,102.184586,3.589868,-89.330708
41187,NaN,-0.616255,9.581302,-2.120899,0.052272,0.000410,0.019738,-0.027861,0.001994,-0.018119,0.429369,0.566975,-0.532670,-0.458742,102.169947,3.598632,-89.331988
41188,NaN,-0.638275,9.597652,-2.049810,-0.018519,0.020101,0.022112,-0.025994,-0.002576,-0.014074,0.429386,0.566936,-0.532604,-0.458852,102.156481,3.605920,-89.335332
41189,NaN,-0.631137,9.620745,-2.049754,-0.020837,0.010060,0.044189,-0.029402,-0.001408,-0.019190,0.429402,0.566901,-0.532516,-0.458981,102.141078,3.615842,-89.338205
41190,NaN,-0.632854,9.621188,-2.047140,-0.021081,0.010214,0.044189,-0.024935,0.001190,-0.016451,0.429421,0.566880,-0.532437,-0.459082,102.128370,3.624006,-89.339153
41191,NaN,-0.656124,9.629045,-2.053091,-0.015178,0.031608,0.054580,-0.022515,0.002531,-0.016168,0.429429,0.566857,-0.532374,-0.459176,102.117557,3.631604,-89.341382
41192,NaN,-0.648937,9.652047,-2.053476,-0.017512,0.021553,0.076657,-0.023711,0.000977,-0.017344,0.429442,0.566840,-0.532295,-0.459276,102.105549,3.640293,-89.342345
41193,NaN,-0.659265,9.629769,-2.048686,-0.015734,0.031921,0.054578,-0.022173,0.004369,-0.016268,0.429455,0.566826,-0.532224,-0.459363,102.094955,3.647949,-89.342794
41194,NaN,-0.623515,9.640042,-2.063732,-0.000787,-0.005854,0.065477,-0.023534,0.006796,-0.018926,0.429479,0.566827,-0.532129,-0.459450,102.083268,3.656826,-89.340305
41195,NaN,-0.655697,9.625204,-2.067270,0.007261,0.025700,0.053790,-0.021280,0.012118,-0.020124,0.429505,0.566846,-0.532027,-0.459519,102.073270,3.665756,-89.335285
41196,NaN,-0.642463,9.623294,-2.034209,-0.022725,0.011187,0.044184,-0.021457,0.006291,-0.018541,0.429523,0.566849,-0.531939,-0.459601,102.062752,3.674479,-89.333129
41197,NaN,-0.635618,9.646193,-2.034998,-0.025095,0.001165,0.066261,-0.016893,0.013427,-0.025081,0.429527,0.566889,-0.531836,-0.459668,102.055326,3.685842,-89.327535
41198,NaN,-0.632768,9.613241,-2.076719,0.023783,-0.001536,0.042615,-0.014132,0.016614,-0.024897,0.429537,0.566948,-0.531724,-0.459715,102.049428,3.696892,-89.318823
41199,NaN,-0.641813,9.618617,-2.052498,0.000010,0.005152,0.043399,-0.016520,0.013506,-0.027252,0.429537,0.566998,-0.531611,-0.459784,102.042181,3.709621,-89.312293
41200,NaN,-0.651017,9.623955,-2.028353,-0.023743,0.011842,0.044181,-0.012535,0.016489,-0.027962,0.429535,0.567069,-0.531495,-0.459833,102.037221,3.722405,-89.303286
41201,NaN,-0.652677,9.643703,-2.083722,0.027159,0.009972,0.075086,-0.012536,0.016484,-0.027961,0.429527,0.567129,-0.531390,-0.459888,102.032317,3.734840,-89.296214
41202,NaN,-0.670730,9.626320,-2.057227,0.005512,0.026869,0.053788,-0.012505,0.014723,-0.030033,0.429515,0.567201,-0.531271,-0.459946,102.027330,3.748996,-89.287952
41203,NaN,-0.680310,9.631544,-2.033402,-0.018240,0.033573,0.054568,-0.010224,0.018289,-0.033299,0.429497,0.567291,-0.531145,-0.459998,102.023819,3.764502,-89.277989
41204,NaN,-0.652469,9.646830,-2.026627,-0.026831,0.002333,0.066257,-0.014615,0.016964,-0.028341,0.429501,0.567359,-0.531022,-0.460052,102.017696,3.777444,-89.268674
41205,NaN,-0.658517,9.591175,-2.066097,0.024122,0.009805,0.020540,-0.011313,0.016262,-0.028850,0.429489,0.567432,-0.530910,-0.460102,102.013666,3.790764,-89.260371
41206,NaN,-0.652505,9.613948,-2.067316,0.021770,-0.000244,0.042620,-0.018534,0.020249,-0.034830,0.429499,0.567516,-0.530752,-0.460172,102.005477,3.806952,-89.248438
41207,NaN,-0.707622,9.606210,-2.079786,0.036121,0.052530,0.041319,-0.015060,0.015569,-0.033861,0.429482,0.567586,-0.530625,-0.460248,101.999164,3.822945,-89.240975
41208,NaN,-0.685083,9.654645,-2.029381,-0.021604,0.024187,0.076643,-0.018566,0.012195,-0.029702,0.429481,0.567639,-0.530499,-0.460329,101.990620,3.837222,-89.234182
41209,NaN,-0.719903,9.611697,-2.053635,0.012151,0.059403,0.042095,-0.020643,0.012682,-0.030084,0.429485,0.567684,-0.530371,-0.460418,101.980832,3.851556,-89.227926
41210,NaN,-0.668636,9.647663,-2.017372,-0.028324,0.003327,0.066252,-0.021322,0.008990,-0.029886,0.429484,0.567723,-0.530244,-0.460516,101.970591,3.866320,-89.222916
41211,NaN,-0.716534,9.634879,-2.051977,0.009572,0.049534,0.064173,-0.026191,0.008036,-0.028383,0.429495,0.567742,-0.530117,-0.460629,101.957436,3.880221,-89.219380
41212,NaN,-0.712190,9.630066,-2.072353,0.032838,0.043132,0.063399,-0.026191,0.008031,-0.028381,0.429508,0.567764,-0.529987,-0.460739,101.944359,3.894257,-89.215094
41213,NaN,-0.678105,9.620841,-2.030285,-0.003479,0.007454,0.043397,-0.031398,0.005231,-0.026781,0.429527,0.567763,-0.529859,-0.460869,101.928565,3.907772,-89.213364
41214,NaN,-0.731123,9.641138,-2.021121,-0.014714,0.056549,0.064944,-0.027545,0.000646,-0.027988,0.429526,0.567765,-0.529742,-0.461003,101.914427,3.922464,-89.213282
41215,NaN,-0.712162,9.634108,-2.010219,-0.021182,0.035569,0.054555,-0.027509,-0.001115,-0.030062,0.429512,0.567760,-0.529631,-0.461151,101.900107,3.938224,-89.215317
41216,NaN,-0.714829,9.634437,-2.007693,-0.021421,0.035726,0.054554,-0.024264,-0.008094,-0.023380,0.429488,0.567736,-0.529553,-0.461291,101.887473,3.951364,-89.220699
41217,NaN,-0.710542,9.629674,-2.027958,0.001836,0.029379,0.053782,-0.027832,-0.012766,-0.026922,0.429447,0.567692,-0.529479,-0.461468,101.872680,3.966688,-89.230481
41218,NaN,-0.684424,9.617583,-2.039906,0.018838,0.001779,0.042626,-0.025651,-0.013724,-0.020916,0.429419,0.567646,-0.529417,-0.461622,101.859009,3.979107,-89.239326
41219,NaN,-0.730542,9.632713,-2.053574,0.031062,0.044304,0.063400,-0.030071,-0.018110,-0.025736,0.429374,0.567589,-0.529348,-0.461814,101.843022,3.994776,-89.251139
41220,NaN,-0.727169,9.608159,-2.016947,0.003189,0.040036,0.031700,-0.031082,-0.023651,-0.025446,0.429324,0.567520,-0.529282,-0.462021,101.825882,4.010896,-89.265037
41221,NaN,-0.706806,9.628935,-1.985594,-0.028969,0.015410,0.044162,-0.022201,-0.021449,-0.029726,0.429240,0.567482,-0.529226,-0.462210,101.814099,4.028992,-89.278320
41222,NaN,-0.687621,9.641823,-2.031180,0.015660,-0.007774,0.064709,-0.028475,-0.018241,-0.028794,0.429189,0.567440,-0.529145,-0.462401,101.798686,4.046350,-89.288793
41223,NaN,-0.720990,9.626822,-2.034125,0.023800,0.023786,0.053014,-0.027841,-0.012802,-0.026907,0.429149,0.567400,-0.529067,-0.462576,101.783948,4.061870,-89.297841
41224,NaN,-0.693742,9.642546,-2.025658,0.015159,-0.007438,0.064710,-0.026206,-0.014672,-0.032048,0.429094,0.567380,-0.528974,-0.462758,101.769998,4.080629,-89.305934
41225,NaN,-0.755922,9.639876,-2.014024,0.006098,0.051878,0.064164,-0.029097,-0.002816,-0.029036,0.429082,0.567369,-0.528862,-0.462911,101.754824,4.096230,-89.308539
41226,NaN,-0.756990,9.667984,-1.990925,-0.019773,0.048426,0.087009,-0.025312,-0.003880,-0.026100,0.429067,0.567359,-0.528765,-0.463048,101.741765,4.110390,-89.311269
41227,NaN,-0.768084,9.645562,-1.985998,-0.017816,0.058816,0.064926,-0.026204,-0.001842,-0.025298,0.429058,0.567343,-0.528670,-0.463185,101.727951,4.123641,-89.314317
41228,NaN,-0.797445,9.685981,-1.948424,-0.060910,0.083140,0.098916,-0.023644,-0.002707,-0.021469,0.429051,0.567327,-0.528587,-0.463304,101.715855,4.135065,-89.316934
41229,NaN,-0.757189,9.643971,-1.949864,-0.048066,0.044524,0.055300,-0.030853,-0.003757,-0.012554,0.429082,0.567271,-0.528516,-0.463426,101.699551,4.141677,-89.321297
41230,NaN,-0.751764,9.639401,-1.970023,-0.024805,0.038097,0.054537,-0.024539,-0.008719,-0.015566,0.429076,0.567224,-0.528461,-0.463552,101.686647,4.150486,-89.327989
41231,NaN,-0.781883,9.652066,-1.953096,-0.042280,0.066015,0.065681,-0.020457,-0.006176,-0.010649,0.429074,0.567179,-0.528425,-0.463650,101.676262,4.156339,-89.333989
41232,NaN,-0.761133,9.645104,-1.942707,-0.048793,0.044992,0.055295,-0.024654,-0.003459,-0.009331,0.429096,0.567128,-0.528376,-0.463747,101.663452,4.161037,-89.338451
41233,NaN,-0.768223,9.670610,-1.973795,-0.021343,0.049565,0.087000,-0.023133,-0.008105,-0.003145,0.429117,0.567050,-0.528358,-0.463843,101.650945,4.162763,-89.346522
41234,NaN,-0.756851,9.613263,-1.981394,-0.000073,0.042322,0.031691,-0.024212,-0.010137,0.001291,0.429145,0.566956,-0.528354,-0.463936,101.638026,4.162270,-89.355975
41235,NaN,-0.746685,9.664221,-1.960916,-0.028147,0.028707,0.076614,-0.023024,-0.008580,0.002474,0.429170,0.566861,-0.528361,-0.464022,101.626133,4.160907,-89.365943
41236,NaN,-0.755030,9.641963,-1.956186,-0.026235,0.039055,0.054530,-0.024808,-0.004500,0.004081,0.429221,0.566772,-0.528352,-0.464094,101.613080,4.158194,-89.372546
41237,NaN,-0.732733,9.635160,-1.945595,-0.032750,0.018043,0.044145,-0.024474,-0.010709,0.009082,0.429265,0.566652,-0.528375,-0.464175,101.599889,4.153332,-89.383891
41238,NaN,-0.755539,9.615319,-1.971896,-0.001057,0.042973,0.031688,-0.023063,-0.014887,0.009647,0.429296,0.566527,-0.528408,-0.464260,101.587367,4.148688,-89.396981
41239,NaN,-0.710702,9.621308,-2.009772,0.037242,-0.001446,0.041878,-0.019312,-0.006137,0.009565,0.429336,0.566428,-0.528435,-0.464313,101.577411,4.143103,-89.406028
41240,NaN,-0.774119,9.651336,-1.955369,-0.020894,0.060891,0.064907,-0.021949,-0.001770,0.009899,0.429400,0.566335,-0.528443,-0.464358,101.566060,4.136806,-89.411763
41241,NaN,-0.736066,9.662252,-1.970505,-0.006143,0.023081,0.075853,-0.018088,-0.006334,0.008669,0.429432,0.566241,-0.528473,-0.464410,101.557101,4.131717,-89.420944
41242,NaN,-0.735236,9.662665,-1.968791,-0.006381,0.023242,0.075853,-0.016379,-0.006912,0.011219,0.429469,0.566145,-0.528509,-0.464451,101.548724,4.125266,-89.429723
41243,NaN,-0.719270,9.660643,-1.936206,-0.036345,0.008872,0.066223,-0.014856,-0.003507,0.012311,0.429512,0.566050,-0.528549,-0.464482,101.541021,4.117577,-89.437904
41244,NaN,-0.750073,9.617983,-1.960961,-0.002481,0.043970,0.031683,-0.017458,-0.008951,0.015655,0.429557,0.565935,-0.528599,-0.464522,101.531909,4.108867,-89.448338
41245,NaN,-0.740243,9.641107,-1.961937,-0.004858,0.033939,0.053767,-0.010027,-0.000779,0.012885,0.429596,0.565862,-0.528642,-0.464528,101.527294,4.100836,-89.454053
41246,NaN,-0.760955,9.648779,-1.968995,0.001202,0.055281,0.064147,-0.012071,-0.002050,0.010427,0.429632,0.565788,-0.528675,-0.464546,101.521592,4.094269,-89.460001
41247,NaN,-0.746616,9.618992,-1.957328,-0.003179,0.044393,0.031681,-0.011335,-0.017984,0.016257,0.429638,0.565668,-0.528757,-0.464593,101.515688,4.086538,-89.475053
41248,NaN,-0.701350,9.624783,-1.996376,0.035099,-0.000043,0.041886,-0.006135,-0.015160,0.014659,0.429633,0.565566,-0.528844,-0.464623,101.512829,4.079094,-89.488864
41249,NaN,-0.692190,9.627501,-1.941676,-0.018477,-0.007847,0.033003,-0.008062,-0.008848,0.012733,0.429640,0.565479,-0.528911,-0.464646,101.509500,4.072128,-89.499422
41250,NaN,-0.714888,9.607431,-1.969578,0.013239,0.017054,0.020551,-0.007504,-0.004673,0.006932,0.429648,0.565419,-0.528950,-0.464667,101.506341,4.067821,-89.506444
41251,NaN,-0.712605,9.635284,-1.948320,-0.012681,0.013661,0.043382,-0.005760,-0.007003,0.007401,0.429642,0.565352,-0.529006,-0.464691,101.504251,4.063496,-89.515776
41252,NaN,-0.696687,9.653290,-1.972788,0.008398,-0.002980,0.064721,-0.009030,-0.008079,0.005841,0.429643,0.565283,-0.529046,-0.464728,101.500093,4.060191,-89.524590
41253,NaN,-0.704947,9.630726,-1.969702,0.010277,0.007359,0.042636,-0.006091,-0.000786,0.002407,0.429642,0.565244,-0.529073,-0.464746,101.498238,4.057976,-89.529844
41254,NaN,-0.731783,9.670802,-1.933902,-0.032798,0.031777,0.076590,-0.002233,-0.005350,0.001171,0.429620,0.565209,-0.529110,-0.464767,101.498121,4.056980,-89.536587
41255,NaN,-0.726663,9.638317,-1.976868,0.016171,0.028874,0.053016,-0.008135,-0.002055,-0.000051,0.429622,0.565169,-0.529123,-0.464800,101.494390,4.056211,-89.541568
41256,NaN,-0.731732,9.671000,-1.932931,-0.033209,0.032120,0.076588,-0.000706,-0.001944,0.002263,0.429607,0.565142,-0.529159,-0.464805,101.495275,4.054212,-89.546519
41257,NaN,-0.731505,9.671030,-1.932866,-0.033498,0.032251,0.076586,-0.000188,-0.004082,0.003629,0.429586,0.565108,-0.529206,-0.464812,101.496660,4.051879,-89.552982
41258,NaN,-0.678976,9.678969,-1.919185,-0.048534,-0.020115,0.077912,0.004979,0.000496,0.004109,0.429566,0.565094,-0.529255,-0.464791,101.500885,4.048566,-89.556771
41259,NaN,-0.717687,9.640820,-1.923035,-0.038126,0.021569,0.044119,0.002751,0.003213,0.000195,0.429546,0.565090,-0.529286,-0.464779,101.504084,4.047191,-89.559232
41260,NaN,-0.689094,9.628409,-1.938271,-0.021194,-0.006082,0.032998,0.006091,0.000786,-0.002407,0.429509,0.565096,-0.529319,-0.464769,101.509010,4.047504,-89.562112
41261,NaN,-0.704237,9.630747,-1.969855,0.008347,0.008609,0.042637,0.005019,0.006811,-0.003057,0.429486,0.565114,-0.529338,-0.464747,101.513664,4.047548,-89.562136
41262,NaN,-0.719542,9.633061,-2.001469,0.037906,0.023306,0.052276,0.006096,0.008851,-0.007492,0.429458,0.565152,-0.529339,-0.464725,101.518955,4.049793,-89.559893
41263,NaN,-0.711906,9.635386,-1.948071,-0.015629,0.015546,0.043375,0.003646,0.009237,-0.005697,0.429441,0.565183,-0.529338,-0.464704,101.522948,4.051142,-89.557604
41264,NaN,-0.720360,9.632802,-2.002421,0.037413,0.023597,0.052277,0.003646,0.009236,-0.005697,0.429425,0.565212,-0.529338,-0.464683,101.526836,4.052335,-89.555350
41265,NaN,-0.741133,9.647492,-1.934117,-0.033266,0.043682,0.054489,0.003976,0.003019,-0.000702,0.429402,0.565214,-0.529367,-0.464670,101.530618,4.051493,-89.557453
41266,NaN,-0.712356,9.635118,-1.949233,-0.016342,0.016023,0.043373,0.002197,0.007100,0.000910,0.429400,0.565217,-0.529387,-0.464645,101.533538,4.049221,-89.557160
41267,NaN,-0.755754,9.649870,-1.965648,-0.003959,0.058513,0.064128,0.000117,0.007582,0.000533,0.429403,0.565220,-0.529400,-0.464625,101.535414,4.047239,-89.556560
41268,NaN,-0.733465,9.642498,-1.957640,-0.010517,0.037500,0.053750,0.001820,-0.001060,0.008168,0.429397,0.565185,-0.529456,-0.464608,101.537735,4.041828,-89.561693
41269,NaN,-0.747388,9.644990,-1.988871,0.019038,0.052184,0.063392,0.002085,0.004289,0.012238,0.429411,0.565149,-0.529517,-0.464569,101.540447,4.033526,-89.564886
41270,NaN,-0.737921,9.647537,-1.935121,-0.034480,0.044476,0.054481,0.000642,0.010216,0.013760,0.429452,0.565123,-0.529563,-0.464511,101.542495,4.023683,-89.564316
41271,NaN,-0.744939,9.624887,-1.932949,-0.032537,0.054800,0.032393,0.002077,-0.003777,0.017325,0.429456,0.565056,-0.529655,-0.464484,101.544869,4.013495,-89.572547
41272,NaN,-0.697386,9.658093,-1.952705,-0.020010,0.006795,0.065456,0.004612,0.005168,0.018145,0.429482,0.565015,-0.529733,-0.464420,101.548957,4.001770,-89.575323
41273,NaN,-0.731077,9.675412,-1.915491,-0.060847,0.041442,0.077296,0.004275,0.003319,0.018236,0.429506,0.564968,-0.529813,-0.464364,101.552609,3.990237,-89.579104
41274,NaN,-0.724181,9.642855,-1.959339,-0.011935,0.038456,0.053744,0.003085,0.001761,0.017053,0.429524,0.564919,-0.529892,-0.464317,101.555699,3.979516,-89.583673
41275,NaN,-0.663495,9.645891,-1.968597,-0.003477,-0.020533,0.054348,0.002568,0.003897,0.015687,0.429547,0.564872,-0.529963,-0.464272,101.558136,3.969184,-89.587538
41276,NaN,-0.707632,9.612859,-1.949396,-0.016465,0.027797,0.021279,0.001127,0.009824,0.017208,0.429593,0.564836,-0.530020,-0.464207,101.560418,3.957451,-89.587589
41277,NaN,-0.690699,9.630684,-1.974946,0.004544,0.011115,0.042637,0.004536,0.003895,0.010446,0.429595,0.564811,-0.530082,-0.464166,101.564651,3.950271,-89.590739
41278,NaN,-0.682940,9.625724,-1.998217,0.027779,0.004610,0.041908,0.002132,0.010596,0.005072,0.429612,0.564812,-0.530106,-0.464122,101.567635,3.945261,-89.588959
41279,NaN,-0.682185,9.625686,-1.998660,0.027563,0.004773,0.041909,0.005222,0.015651,0.005177,0.429632,0.564827,-0.530129,-0.464058,101.572450,3.939588,-89.584979
41280,NaN,-0.716852,9.642946,-1.961585,-0.013289,0.039443,0.053739,0.004334,0.017690,0.005983,0.429664,0.564847,-0.530145,-0.463987,101.576962,3.933251,-89.579314
41281,NaN,-0.730760,9.645342,-1.993337,0.016256,0.054068,0.063386,0.008512,0.006907,0.009747,0.429662,0.564841,-0.530205,-0.463927,101.583593,3.926259,-89.580205
41282,NaN,-0.684380,9.658116,-1.957191,-0.022339,0.008394,0.065450,0.005029,0.011568,0.008807,0.429682,0.564841,-0.530244,-0.463864,101.588244,3.919040,-89.578311
41283,NaN,-0.700301,9.612602,-1.953306,-0.018171,0.028887,0.021273,0.008938,0.018080,0.012269,0.429713,0.564851,-0.530291,-0.463768,101.595400,3.909105,-89.573825
41284,NaN,-0.711976,9.642629,-1.964916,-0.014277,0.040056,0.053735,0.011905,0.015553,0.011843,0.429731,0.564867,-0.530346,-0.463670,101.604118,3.899722,-89.570042
41285,NaN,-0.681727,9.630137,-1.980726,0.002563,0.012346,0.042636,0.008227,0.016134,0.014533,0.429764,0.564868,-0.530401,-0.463575,101.611034,3.888902,-89.566635
41286,NaN,-0.695519,9.612201,-1.956984,-0.018938,0.029346,0.021270,0.020006,0.019339,0.013985,0.429774,0.564904,-0.530473,-0.463439,101.624520,3.877880,-89.560973
41287,NaN,-0.699981,9.637150,-1.992124,0.008387,0.033834,0.053010,0.013397,0.020696,0.015019,0.429806,0.564924,-0.530533,-0.463317,101.634498,3.866127,-89.555332
41288,NaN,-0.674691,9.657243,-1.964847,-0.023883,0.009346,0.065446,0.013946,0.016808,0.014307,0.429827,0.564940,-0.530597,-0.463205,101.644411,3.855215,-89.551136
41289,NaN,-0.665928,9.652126,-1.989037,-0.000689,0.002825,0.064724,0.010606,0.019235,0.016904,0.429866,0.564944,-0.530660,-0.463091,101.652690,3.842557,-89.546749
41290,NaN,-0.686424,9.639286,-1.942047,-0.045654,0.026516,0.044075,0.009754,0.019523,0.015628,0.429909,0.564954,-0.530712,-0.462979,101.660291,3.830588,-89.541182
41291,NaN,-0.684507,9.639206,-1.943116,-0.045862,0.026686,0.044074,0.009929,0.015540,0.017089,0.429944,0.564947,-0.530780,-0.462877,101.667647,3.818219,-89.538583
41292,NaN,-0.638651,9.644390,-1.984111,-0.007734,-0.017856,0.054351,0.010713,0.013981,0.010665,0.429959,0.564960,-0.530832,-0.462789,101.675627,3.809675,-89.535560
41293,NaN,-0.639080,9.616574,-2.005614,0.017718,-0.014211,0.031544,0.007234,0.018642,0.009719,0.429989,0.564971,-0.530869,-0.462703,101.681754,3.801016,-89.531018
41294,NaN,-0.659631,9.623924,-2.014653,0.023829,0.007115,0.041917,0.007609,0.018736,0.007548,0.430018,0.564996,-0.530895,-0.462616,101.688154,3.793669,-89.524961
41295,NaN,-0.680516,9.631250,-2.023711,0.029964,0.028516,0.052290,0.007681,0.015238,0.003387,0.430022,0.565012,-0.530929,-0.462555,101.694373,3.788620,-89.522619
41296,NaN,-0.650079,9.626269,-1.962231,-0.029923,-0.000268,0.032978,0.004340,0.017668,0.005981,0.430053,0.565031,-0.530946,-0.462483,101.698872,3.782274,-89.516982
41297,NaN,-0.671263,9.633605,-1.971172,-0.023861,0.021076,0.043349,0.008431,0.015427,-0.000956,0.430045,0.565067,-0.530965,-0.462425,101.706002,3.779987,-89.513190
41298,NaN,-0.686552,9.615728,-1.946911,-0.045341,0.038092,0.021972,0.009456,0.011155,0.001782,0.430035,0.565093,-0.530995,-0.462368,101.713223,3.776753,-89.510727
41299,NaN,-0.663815,9.628191,-1.996209,-0.000853,0.014685,0.042633,0.014363,0.010371,-0.001797,0.430001,0.565137,-0.531028,-0.462308,101.723113,3.775685,-89.508387
41300,NaN,-0.668989,9.660571,-1.954502,-0.050254,0.018096,0.066149,0.018683,0.015218,-0.002584,0.429965,0.565205,-0.531058,-0.462224,101.735805,3.774426,-89.503132
41301,NaN,-0.657681,9.602342,-1.966208,-0.028945,0.010683,0.010883,0.016477,0.008132,-0.003493,0.429914,0.565253,-0.531097,-0.462168,101.747048,3.774575,-89.501981
41302,NaN,-0.626823,9.637326,-2.018454,0.013279,-0.022876,0.053640,0.019984,0.011520,-0.007638,0.429854,0.565328,-0.531124,-0.462101,101.760387,3.776580,-89.498213
41303,NaN,-0.693338,9.639069,-1.988901,-0.018901,0.043222,0.053714,0.020661,0.015205,-0.007822,0.429797,0.565405,-0.531152,-0.462028,101.774093,3.778024,-89.493823
41304,NaN,-0.700899,9.643678,-1.967841,-0.042604,0.050092,0.054423,0.014466,0.014915,-0.011050,0.429753,0.565485,-0.531149,-0.461974,101.784422,3.781544,-89.487747
41305,NaN,-0.665916,9.625789,-2.007062,-0.002307,0.015652,0.042631,0.019810,0.015491,-0.009097,0.429698,0.565572,-0.531165,-0.461901,101.797946,3.783977,-89.481899
41306,NaN,-0.677885,9.683200,-1.999204,-0.024115,0.023386,0.097892,0.019810,0.015489,-0.009097,0.429645,0.565659,-0.531179,-0.461826,101.811343,3.786333,-89.475728
41307,NaN,-0.695616,9.637388,-1.996239,-0.019920,0.043838,0.053709,0.014388,0.018407,-0.006891,0.429617,0.565735,-0.531183,-0.461755,101.821956,3.787160,-89.468629
41308,NaN,-0.680417,9.654684,-2.023121,0.001062,0.027131,0.075091,0.017906,0.011996,-0.008016,0.429563,0.565807,-0.531204,-0.461693,101.834125,3.789316,-89.464548
41309,NaN,-0.667063,9.644248,-2.070310,0.047678,0.013874,0.073678,0.011335,0.011612,-0.009076,0.429516,0.565861,-0.531216,-0.461656,101.842904,3.791978,-89.462144
41310,NaN,-0.704655,9.633763,-2.054358,0.032592,0.052062,0.062663,0.007749,0.011728,-0.000774,0.429507,0.565892,-0.531234,-0.461606,101.849188,3.790104,-89.459066
41311,NaN,-0.697691,9.628545,-2.078014,0.055790,0.045518,0.061957,0.008175,0.000277,-0.002003,0.429458,0.565895,-0.531281,-0.461594,101.855434,3.790128,-89.463492
41312,NaN,-0.704599,9.633478,-2.055711,0.032091,0.052396,0.062663,0.002714,0.004948,0.002278,0.429452,0.565892,-0.531310,-0.461571,101.858558,3.787340,-89.464585
41313,NaN,-0.689379,9.631089,-2.024862,0.002018,0.038124,0.052997,0.002511,0.000881,0.005913,0.429441,0.565865,-0.531362,-0.461554,101.861373,3.782936,-89.469139
41314,NaN,-0.687073,9.658876,-2.004456,-0.023928,0.034862,0.075792,-0.000958,-0.004252,0.007979,0.429434,0.565817,-0.531419,-0.461554,101.862007,3.778035,-89.476076
41315,NaN,-0.700946,9.661340,-2.035417,0.005684,0.049479,0.085456,-0.001713,-0.004438,0.012322,0.429436,0.565750,-0.531491,-0.461551,101.862088,3.770582,-89.484600
41316,NaN,-0.693775,9.636355,-2.001859,-0.022146,0.045351,0.053697,0.001254,-0.006966,0.011907,0.429424,0.565690,-0.531570,-0.461544,101.863861,3.763799,-89.493525
41317,NaN,-0.692487,9.636427,-2.001957,-0.022416,0.045529,0.053696,0.001688,-0.005600,0.017435,0.429422,0.565613,-0.531670,-0.461524,101.866073,3.753644,-89.503678
41318,NaN,-0.660626,9.651782,-1.996209,-0.031293,0.014383,0.065419,0.002065,-0.005508,0.015264,0.429420,0.565550,-0.531757,-0.461504,101.868341,3.744806,-89.512181
41319,NaN,-0.696689,9.641566,-1.979651,-0.046329,0.052595,0.054393,0.006935,-0.004549,0.013769,0.429401,0.565499,-0.531852,-0.461475,101.873320,3.736629,-89.520649
41320,NaN,-0.657987,9.651725,-1.997357,-0.031755,0.014715,0.065417,0.008802,0.000687,0.014768,0.429395,0.565465,-0.531940,-0.461420,101.879681,3.727341,-89.525613
41321,NaN,-0.658460,9.623866,-2.018710,-0.006280,0.018258,0.042625,0.009556,0.000872,0.010425,0.429378,0.565445,-0.532016,-0.461373,101.886482,3.720586,-89.529874
41322,NaN,-0.650344,9.618667,-2.042583,0.016933,0.011675,0.041927,0.011595,0.002132,0.012888,0.429364,0.565426,-0.532102,-0.461311,101.894511,3.712182,-89.533806
41323,NaN,-0.636235,9.588386,-2.032967,0.012510,0.000790,0.009468,0.009933,0.000963,0.008253,0.429336,0.565412,-0.532177,-0.461268,101.901871,3.706651,-89.538446
41324,NaN,-0.648615,9.618369,-2.044537,0.016400,0.011964,0.041928,0.008400,0.007362,0.004138,0.429324,0.565421,-0.532219,-0.461219,101.908328,3.702536,-89.538406
41325,NaN,-0.668062,9.653368,-2.033491,-0.003173,0.029863,0.075083,0.014293,0.004052,0.005387,0.429289,0.565432,-0.532286,-0.461161,101.918081,3.698232,-89.540464
41326,NaN,-0.654535,9.623013,-2.024046,-0.007546,0.019002,0.042623,0.010516,0.005122,0.002445,0.429261,0.565445,-0.532333,-0.461116,101.925681,3.695331,-89.541483
41327,NaN,-0.661135,9.627885,-2.002294,-0.031220,0.025886,0.043317,0.011194,0.008806,0.002257,0.429242,0.565468,-0.532373,-0.461060,101.933688,3.692226,-89.540363
41328,NaN,-0.643431,9.673032,-2.008364,-0.035992,0.005766,0.087502,0.014159,0.006275,0.001844,0.429206,0.565493,-0.532424,-0.461003,101.943422,3.689526,-89.540663
41329,NaN,-0.660512,9.627365,-2.005000,-0.031656,0.026231,0.043314,0.015218,0.000258,0.002511,0.429150,0.565499,-0.532497,-0.460963,101.953269,3.687014,-89.545327
41330,NaN,-0.644692,9.644663,-2.031775,-0.010714,0.009498,0.064714,0.016274,0.004033,0.000151,0.429099,0.565528,-0.532554,-0.460911,101.964147,3.685529,-89.546687
41331,NaN,-0.662056,9.598939,-2.028570,-0.006472,0.029918,0.020527,0.016652,0.004124,-0.002020,0.429036,0.565562,-0.532609,-0.460864,101.975569,3.685324,-89.548525
41332,NaN,-0.653533,9.621280,-2.032591,-0.008983,0.019938,0.042620,0.016141,0.006255,-0.003393,0.428982,0.565605,-0.532651,-0.460813,101.986478,3.685561,-89.548215
41333,NaN,-0.646626,9.615835,-2.057046,0.014233,0.013352,0.041929,0.016442,0.009847,-0.001409,0.428940,0.565648,-0.532694,-0.460749,101.997627,3.684168,-89.546786
41334,NaN,-0.646691,9.615484,-2.058664,0.013991,0.013507,0.041929,0.016141,0.006253,-0.003392,0.428886,0.565691,-0.532736,-0.460699,102.008536,3.684405,-89.546477
41335,NaN,-0.653893,9.620275,-2.037228,-0.009662,0.020437,0.042618,0.011987,0.007232,-0.004164,0.428845,0.565727,-0.532764,-0.460659,102.016881,3.684885,-89.545781
41336,NaN,-0.625664,9.607415,-2.053173,0.007139,-0.007326,0.031565,0.016386,0.008564,-0.009108,0.428784,0.565792,-0.532785,-0.460614,102.028058,3.688049,-89.543491
41337,NaN,-0.646322,9.642307,-2.042412,-0.012415,0.010633,0.064711,0.010117,0.011783,-0.008191,0.428748,0.565844,-0.532790,-0.460576,102.035717,3.690214,-89.540191
41338,NaN,-0.648690,9.614224,-2.063914,0.013067,0.014158,0.041930,0.011554,0.005858,-0.009691,0.428692,0.565893,-0.532804,-0.460552,102.044032,3.694027,-89.539350
41339,NaN,-0.656546,9.619040,-2.042196,-0.010656,0.021119,0.042616,0.010705,0.006147,-0.010970,0.428630,0.565937,-0.532821,-0.460536,102.052080,3.698299,-89.539735
41340,NaN,-0.628746,9.606213,-2.057850,0.006137,-0.006650,0.031566,0.011550,0.015642,-0.012724,0.428593,0.566017,-0.532805,-0.460491,102.060771,3.702640,-89.533035
41341,NaN,-0.681148,9.605992,-1.996243,-0.055764,0.045061,0.021889,0.007268,0.009054,-0.014009,0.428546,0.566078,-0.532788,-0.460479,102.066863,3.708760,-89.529597
41342,NaN,-0.665478,9.643188,-2.078765,0.016182,0.025790,0.074388,0.009265,0.012068,-0.009469,0.428513,0.566136,-0.532784,-0.460443,102.074091,3.711704,-89.525293
41343,NaN,-0.672990,9.648088,-2.056790,-0.007446,0.032748,0.075071,0.007154,0.004524,-0.004745,0.428477,0.566154,-0.532807,-0.460427,102.079454,3.712744,-89.526493
41344,NaN,-0.681854,9.625209,-2.055146,-0.005403,0.043036,0.052976,0.008129,0.011799,-0.002954,0.428462,0.566192,-0.532819,-0.460381,102.085971,3.712070,-89.523123
41345,NaN,-0.680358,9.652816,-2.035697,-0.031359,0.039849,0.075752,0.009908,0.007716,-0.004548,0.428425,0.566225,-0.532842,-0.460347,102.093290,3.712721,-89.522345
41346,NaN,-0.666465,9.642386,-2.082164,0.015287,0.026448,0.074388,0.006397,0.004345,-0.000402,0.428401,0.566235,-0.532874,-0.460321,102.098523,3.711511,-89.523468
41347,NaN,-0.636133,9.657543,-2.076937,0.006333,-0.004671,0.086121,0.006776,0.004433,-0.002573,0.428367,0.566248,-0.532905,-0.460302,102.104021,3.711449,-89.525182
41348,NaN,-0.643282,9.662508,-2.054823,-0.017355,0.002268,0.086801,0.007114,0.006274,-0.002668,0.428341,0.566269,-0.532927,-0.460273,102.109753,3.711277,-89.524949
41349,NaN,-0.675665,9.619179,-2.081911,0.016833,0.037069,0.052292,0.009272,0.002279,-0.006432,0.428284,0.566291,-0.532960,-0.460262,102.116700,3.713578,-89.527757
41350,NaN,-0.658701,9.664372,-2.087614,0.012007,0.016967,0.096483,0.007114,0.006273,-0.002668,0.428257,0.566313,-0.532982,-0.460234,102.122432,3.713405,-89.527524
41351,NaN,-0.713618,9.608666,-2.066347,0.001616,0.075460,0.041236,0.002615,0.015192,-0.006386,0.428255,0.566351,-0.532970,-0.460203,102.126018,3.714155,-89.522726
41352,NaN,-0.653044,9.639165,-2.055065,-0.016064,0.013058,0.064703,0.006051,0.012284,-0.003342,0.428246,0.566386,-0.532975,-0.460162,102.131365,3.713637,-89.519039
41353,NaN,-0.685184,9.595908,-2.081834,0.018149,0.047828,0.030196,0.002960,0.007250,-0.003444,0.428230,0.566401,-0.532987,-0.460146,102.134790,3.713773,-89.518727
41354,NaN,-0.669394,9.613416,-2.107396,0.039052,0.031062,0.051616,0.001987,0.012796,0.001503,0.428245,0.566416,-0.532996,-0.460103,102.137789,3.710478,-89.515337
41355,NaN,-0.654281,9.611132,-2.076512,0.009001,0.016920,0.041930,0.001987,0.012796,0.001503,0.428257,0.566421,-0.533012,-0.460067,102.140442,3.706828,-89.513439
41356,NaN,-0.638238,9.628599,-2.102326,0.029898,0.000152,0.063352,0.008431,0.005606,0.002065,0.428236,0.566432,-0.533052,-0.460027,102.146867,3.704085,-89.514153
41357,NaN,-0.653511,9.610955,-2.077575,0.008551,0.017259,0.041930,0.000759,0.012995,0.002394,0.428254,0.566435,-0.533065,-0.459990,102.148969,3.700085,-89.511888
41358,NaN,-0.688568,9.628645,-2.040381,-0.032133,0.052164,0.053636,-0.001401,0.016989,0.006157,0.428301,0.566440,-0.533070,-0.459935,102.150141,3.693677,-89.506708
41359,NaN,-0.650222,9.638825,-2.057555,-0.017653,0.014233,0.064699,0.005553,0.007670,0.008095,0.428307,0.566433,-0.533117,-0.459885,102.154820,3.687381,-89.507068
41360,NaN,-0.663755,9.641069,-2.089120,0.011978,0.028735,0.074386,0.001315,0.012153,0.011469,0.428345,0.566418,-0.533153,-0.459825,102.157332,3.678581,-89.505245
41361,NaN,-0.634717,9.608749,-2.047485,-0.022293,0.003509,0.032240,0.004282,0.009622,0.011063,0.428364,0.566403,-0.533204,-0.459767,102.161592,3.670370,-89.505263
41362,NaN,-0.634968,9.580904,-2.068326,0.003208,0.006980,0.009473,0.004240,0.011373,0.013139,0.428396,0.566389,-0.533253,-0.459698,102.165738,3.660728,-89.504082
41363,NaN,-0.632154,9.608686,-2.048572,-0.022805,0.003796,0.032239,0.007119,0.009306,0.007111,0.428398,0.566392,-0.533298,-0.459640,102.171660,3.654855,-89.503402
41364,NaN,-0.646110,9.610802,-2.080595,0.006828,0.018290,0.041929,0.008897,0.015000,0.002483,0.428401,0.566424,-0.533320,-0.459571,102.178686,3.650743,-89.498897
41365,NaN,-0.659855,9.620948,-2.035780,-0.040320,0.032064,0.043265,0.005676,0.012187,-0.001168,0.428394,0.566450,-0.533335,-0.459529,102.184004,3.649029,-89.496271
41366,NaN,-0.645520,9.610523,-2.082065,0.006308,0.018594,0.041929,0.007032,0.009769,0.001489,0.428387,0.566469,-0.533362,-0.459482,102.189782,3.646105,-89.494582
41367,NaN,-0.643728,9.638247,-2.062300,-0.019670,0.015436,0.064693,0.003259,0.020610,-0.004501,0.428404,0.566519,-0.533341,-0.459428,102.193758,3.645271,-89.486356
41368,NaN,-0.656830,9.668178,-2.073815,-0.015783,0.026619,0.097149,0.008131,0.021556,-0.005986,0.428408,0.566587,-0.533323,-0.459361,102.200644,3.645106,-89.477146
41369,NaN,-0.643974,9.637890,-2.063890,-0.020148,0.015757,0.064691,0.007622,0.023681,-0.007361,0.428413,0.566658,-0.533300,-0.459295,102.207272,3.645396,-89.467266
41370,NaN,-0.665927,9.645037,-2.073334,-0.013943,0.037059,0.075049,0.010927,0.022988,-0.007859,0.428408,0.566741,-0.533281,-0.459220,102.215825,3.646104,-89.457025
41371,NaN,-0.659178,9.639614,-2.097265,0.009210,0.030386,0.074384,0.009912,0.017469,-0.007573,0.428389,0.566806,-0.533275,-0.459164,102.223818,3.647356,-89.450439
41372,NaN,-0.637858,9.631967,-2.089952,0.002517,0.009394,0.064026,0.010079,0.023272,-0.009139,0.428385,0.566890,-0.533250,-0.459094,102.231905,3.648744,-89.439883
41373,NaN,-0.647066,9.608962,-2.088782,0.004575,0.019694,0.041928,0.013429,0.020827,-0.011711,0.428352,0.566976,-0.533239,-0.459031,102.241960,3.651686,-89.431945
41374,NaN,-0.669379,9.615999,-2.098564,0.010786,0.040992,0.052285,0.012370,0.017061,-0.009349,0.428324,0.567051,-0.533231,-0.458972,102.251140,3.653943,-89.424848
41375,NaN,-0.633649,9.606136,-2.060038,-0.025823,0.005684,0.032231,0.008217,0.018037,-0.010133,0.428305,0.567120,-0.533214,-0.458925,102.258147,3.656514,-89.417749
41376,NaN,-0.640041,9.630813,-2.094598,0.001494,0.010039,0.064025,0.008343,0.015824,-0.006585,0.428292,0.567177,-0.533208,-0.458875,102.264956,3.657371,-89.411683
41377,NaN,-0.642166,9.602718,-2.115834,0.027030,0.013539,0.041267,0.008262,0.016282,-0.012207,0.428261,0.567238,-0.533195,-0.458842,102.271644,3.660940,-89.406682
41378,NaN,-0.687393,9.597488,-2.077111,-0.011284,0.058616,0.030844,0.006987,0.018234,-0.009243,0.428252,0.567305,-0.533173,-0.458794,102.277783,3.662991,-89.398939
41379,NaN,-0.670739,9.642690,-2.082676,-0.016149,0.038553,0.075040,0.004619,0.015131,-0.011615,0.428234,0.567362,-0.533148,-0.458769,102.282279,3.666693,-89.393214
41380,NaN,-0.649790,9.635196,-2.074616,-0.022852,0.017564,0.064683,0.001484,0.011857,-0.009647,0.428222,0.567403,-0.533126,-0.458755,102.285040,3.669746,-89.388999
41381,NaN,-0.621488,9.622549,-2.089359,-0.006159,-0.010279,0.053668,0.005761,0.008669,-0.005313,0.428197,0.567434,-0.533135,-0.458730,102.290272,3.670850,-89.387571
41382,NaN,-0.651029,9.634887,-2.075664,-0.023367,0.017858,0.064681,0.005895,0.013174,-0.014577,0.428165,0.567500,-0.533106,-0.458711,102.295647,3.676501,-89.382014
41383,NaN,-0.652072,9.634680,-2.076299,-0.023613,0.018013,0.064680,0.004440,0.028849,-0.016127,0.428173,0.567602,-0.533038,-0.458656,102.300783,3.681099,-89.367928
41384,NaN,-0.647037,9.609604,-2.043252,-0.051412,0.013980,0.032879,0.005121,0.022760,-0.013276,0.428172,0.567686,-0.532991,-0.458609,102.306050,3.684850,-89.357152
41385,NaN,-0.675390,9.641625,-2.086102,-0.017611,0.039499,0.075034,0.007203,0.012511,-0.009841,0.428142,0.567734,-0.532986,-0.458582,102.311996,3.687732,-89.353760
41386,NaN,-0.663253,9.603197,-2.152755,0.054761,0.029220,0.050973,0.007712,0.010386,-0.008463,0.428111,0.567782,-0.532985,-0.458553,102.318265,3.690299,-89.350513
41387,NaN,-0.653721,9.653579,-2.135565,0.026458,0.016021,0.095825,0.004398,0.020833,-0.011011,0.428111,0.567850,-0.532949,-0.458511,102.322787,3.692898,-89.341662
41388,NaN,-0.662931,9.630708,-2.133699,0.028555,0.026280,0.073726,0.004907,0.018708,-0.009632,0.428108,0.567914,-0.532920,-0.458469,102.327758,3.695101,-89.333604
41389,NaN,-0.663327,9.630553,-2.134272,0.028281,0.026448,0.073726,0.004694,0.014662,-0.005989,0.428098,0.567954,-0.532916,-0.458433,102.332617,3.695657,-89.329419
41390,NaN,-0.621824,9.587920,-2.137916,0.040858,-0.012429,0.030266,-0.000813,0.018044,-0.009439,0.428110,0.568004,-0.532876,-0.458407,102.334287,3.697832,-89.321757
41391,NaN,-0.687396,9.609903,-2.163264,0.060043,0.051152,0.061331,-0.004292,0.022690,-0.010419,0.428140,0.568057,-0.532818,-0.458380,102.334111,3.699915,-89.311827
41392,NaN,-0.687830,9.618099,-2.086207,-0.016940,0.050733,0.052926,-0.004407,0.015141,-0.010926,0.428151,0.568096,-0.532771,-0.458375,102.333628,3.703277,-89.305611
41393,NaN,-0.645350,9.595350,-2.145411,0.046624,0.009214,0.040624,-0.009790,0.016315,-0.010829,0.428177,0.568120,-0.532717,-0.458385,102.330007,3.706179,-89.299963
41394,NaN,-0.673419,9.635842,-2.110037,0.003669,0.034119,0.074376,-0.009118,0.019986,-0.011018,0.428214,0.568161,-0.532649,-0.458378,102.327003,3.709001,-89.291019
41395,NaN,-0.689759,9.618447,-2.083964,-0.017675,0.051221,0.052922,-0.011744,0.014592,-0.007678,0.428249,0.568174,-0.532598,-0.458388,102.322453,3.710709,-89.285801
41396,NaN,-0.674358,9.636198,-2.108110,0.003154,0.034406,0.074375,-0.011571,0.010632,-0.006205,0.428279,0.568175,-0.532559,-0.458405,102.317666,3.711982,-89.282693
41397,NaN,-0.660327,9.634198,-2.075923,-0.026976,0.020298,0.064667,-0.009109,0.010230,-0.007979,0.428295,0.568182,-0.532523,-0.458422,102.314206,3.714228,-89.280203
41398,NaN,-0.661913,9.606553,-2.095201,-0.001446,0.023688,0.041920,-0.014471,0.012699,-0.000187,0.428353,0.568166,-0.532490,-0.458428,102.307785,3.711879,-89.276674
41399,NaN,-0.668976,9.611945,-2.071363,-0.025151,0.030701,0.042564,-0.009200,0.003980,-0.000792,0.428366,0.568140,-0.532490,-0.458447,102.304331,3.710980,-89.278704
41400,NaN,-0.661702,9.607026,-2.093096,-0.001974,0.023984,0.041919,-0.013240,0.012496,-0.001073,0.428418,0.568129,-0.532457,-0.458452,102.298614,3.709153,-89.275179
41401,NaN,-0.668917,9.612418,-2.069184,-0.025644,0.031039,0.042562,-0.012293,0.008708,-0.003941,0.428445,0.568111,-0.532434,-0.458475,102.293386,3.709221,-89.274825
41402,NaN,-0.651847,9.658096,-2.072786,-0.030603,0.010991,0.086763,-0.013861,0.007071,-0.002960,0.428479,0.568091,-0.532406,-0.458501,102.287132,3.709112,-89.274113
41403,NaN,-0.617448,9.612910,-2.128848,0.035244,-0.020471,0.052383,-0.013810,0.005319,-0.005036,0.428497,0.568063,-0.532386,-0.458541,102.281029,3.710100,-89.275949
41404,NaN,-0.684163,9.615379,-2.096636,0.003511,0.045807,0.052269,-0.014879,0.011312,-0.005712,0.428539,0.568057,-0.532339,-0.458563,102.274368,3.711015,-89.272522
41405,NaN,-0.647006,9.625968,-2.111672,0.017835,0.007876,0.063378,-0.019529,0.004651,-0.004848,0.428576,0.568018,-0.532303,-0.458618,102.264766,3.712075,-89.273975
41406,NaN,-0.677888,9.610955,-2.115888,0.026450,0.039262,0.051628,-0.020831,0.005306,-0.009582,0.428610,0.567997,-0.532244,-0.458682,102.254507,3.715889,-89.273447
41407,NaN,-0.656990,9.603980,-2.105530,0.019720,0.018285,0.041277,-0.018419,0.006656,-0.009278,0.428640,0.567979,-0.532192,-0.458737,102.245641,3.719324,-89.272884
41408,NaN,-0.686377,9.616756,-2.089588,0.002560,0.046456,0.052267,-0.018188,0.011990,-0.005217,0.428694,0.567966,-0.532137,-0.458765,102.237105,3.719882,-89.269138
41409,NaN,-0.678018,9.639833,-2.090242,-0.000083,0.036501,0.074368,-0.018685,0.004359,-0.003565,0.428731,0.567930,-0.532105,-0.458814,102.228192,3.720502,-89.270316
41410,NaN,-0.678150,9.640250,-2.088272,-0.000325,0.036655,0.074367,-0.022716,0.003118,-0.000812,0.428784,0.567876,-0.532071,-0.458870,102.216704,3.719671,-89.272085
41411,NaN,-0.678188,9.648660,-2.009397,-0.077347,0.036375,0.065924,-0.021323,0.008711,-0.003257,0.428837,0.567837,-0.532031,-0.458916,102.206478,3.719354,-89.271962
41412,NaN,-0.656679,9.633799,-2.075631,-0.007351,0.015859,0.064015,-0.021820,0.001080,-0.001607,0.428881,0.567782,-0.532001,-0.458977,102.195435,3.719214,-89.274777
41413,NaN,-0.643804,9.604157,-2.062788,-0.011724,0.005026,0.031562,-0.019183,-0.003276,-0.001914,0.428901,0.567715,-0.531994,-0.459048,102.185744,3.719473,-89.281471
41414,NaN,-0.637032,9.599447,-2.083672,0.011444,-0.001715,0.030927,-0.019814,0.001053,-0.006830,0.428928,0.567679,-0.531954,-0.459115,102.175891,3.722260,-89.283669
41415,NaN,-0.658041,9.634939,-2.069902,-0.008089,0.016388,0.064014,-0.019091,0.002976,-0.009089,0.428949,0.567650,-0.531910,-0.459182,102.166591,3.725994,-89.285235
41416,NaN,-0.608283,9.615510,-2.073958,0.002064,-0.032621,0.042681,-0.016854,0.008285,-0.010249,0.428978,0.567645,-0.531851,-0.459228,102.158725,3.729822,-89.282962
41417,NaN,-0.646966,9.605396,-2.056016,-0.012734,0.005676,0.031560,-0.012556,0.011824,-0.018710,0.428981,0.567676,-0.531778,-0.459274,102.153685,3.737859,-89.278817
41418,NaN,-0.640013,9.628233,-2.057333,-0.015356,-0.004262,0.053663,-0.010092,0.011427,-0.020482,0.428976,0.567720,-0.531699,-0.459315,102.149888,3.747041,-89.273544
41419,NaN,-0.649201,9.633326,-2.033811,-0.039004,0.002803,0.054293,-0.007415,0.015075,-0.025887,0.428959,0.567790,-0.531606,-0.459352,102.147773,3.758776,-89.266058
41420,NaN,-0.674318,9.612817,-2.062256,-0.006944,0.027277,0.041908,-0.005568,0.020295,-0.024875,0.428954,0.567876,-0.531507,-0.459365,102.146932,3.769349,-89.255277
41421,NaN,-0.653329,9.633200,-2.033086,-0.039586,0.003093,0.054290,-0.001186,0.013623,-0.024697,0.428915,0.567955,-0.531436,-0.459385,102.148913,3.780758,-89.248761
41422,NaN,-0.661217,9.658108,-2.066447,-0.012292,0.007382,0.086113,-0.005728,0.014495,-0.023320,0.428899,0.568024,-0.531353,-0.459412,102.147759,3.791159,-89.241422
41423,NaN,-0.680076,9.612603,-2.061363,-0.007795,0.027728,0.041906,-0.005837,0.017989,-0.019163,0.428897,0.568083,-0.531281,-0.459423,102.146832,3.798741,-89.233833
41424,NaN,-0.660279,9.605291,-2.052271,-0.014554,0.006752,0.031557,-0.008259,0.015342,-0.027165,0.428882,0.568158,-0.531179,-0.459463,102.144291,3.811195,-89.225555
41425,NaN,-0.675483,9.627539,-2.139027,0.066034,0.018347,0.072479,-0.012291,0.014092,-0.024417,0.428876,0.568210,-0.531084,-0.459513,102.139585,3.822186,-89.219329
41426,NaN,-0.708109,9.620029,-2.067150,-0.002035,0.049333,0.052253,-0.016156,0.007598,-0.027903,0.428861,0.568252,-0.530979,-0.459597,102.132239,3.835987,-89.215312
41427,NaN,-0.660107,9.600595,-2.071163,0.008142,0.000368,0.030931,-0.019743,0.004685,-0.029401,0.428843,0.568275,-0.530874,-0.459707,102.122428,3.850652,-89.214152
41428,NaN,-0.684739,9.608071,-2.077845,0.014423,0.021650,0.041279,-0.019298,0.003020,-0.033646,0.428811,0.568315,-0.530755,-0.459824,102.113157,3.868222,-89.212017
41429,NaN,-0.686244,9.636066,-2.055444,-0.011602,0.018660,0.064006,-0.021187,0.000829,-0.024884,0.428797,0.568317,-0.530666,-0.459937,102.102565,3.881021,-89.213029
41430,NaN,-0.704646,9.618593,-2.028225,-0.032851,0.035824,0.042524,-0.024231,0.003792,-0.030100,0.428790,0.568339,-0.530544,-0.460058,102.090469,3.896512,-89.210894
41431,NaN,-0.691344,9.636648,-2.051004,-0.012044,0.018990,0.064005,-0.023321,0.003046,-0.023199,0.428793,0.568339,-0.530447,-0.460167,102.078573,3.908119,-89.210633
41432,NaN,-0.702064,9.614206,-2.046458,-0.009887,0.029230,0.041900,-0.023985,-0.000630,-0.023021,0.428790,0.568332,-0.530355,-0.460284,102.066391,3.920174,-89.211838
41433,NaN,-0.717339,9.644570,-2.054968,-0.006071,0.040407,0.074351,-0.023712,0.002950,-0.021029,0.428796,0.568330,-0.530265,-0.460386,102.054922,3.930806,-89.211546
41434,NaN,-0.697567,9.637646,-2.044196,-0.012841,0.019435,0.064003,-0.023199,0.000828,-0.019658,0.428802,0.568319,-0.530181,-0.460490,102.043218,3.940802,-89.212340
41435,NaN,-0.720963,9.645287,-2.050328,-0.006540,0.040728,0.074349,-0.026386,-0.000712,-0.015630,0.428820,0.568284,-0.530107,-0.460600,102.029533,3.948671,-89.215027
41436,NaN,-0.693450,9.633486,-2.062067,0.010090,0.012825,0.063383,-0.025542,-0.000998,-0.014347,0.428840,0.568250,-0.530037,-0.460704,102.016371,3.955908,-89.217488
41437,NaN,-0.673227,9.626655,-2.051068,0.003294,-0.008163,0.053037,-0.026239,0.005072,-0.017172,0.428869,0.568235,-0.529946,-0.460800,102.003193,3.964096,-89.216560
41438,NaN,-0.712501,9.616509,-2.031979,-0.011408,0.030136,0.041896,-0.028200,0.002049,-0.021726,0.428888,0.568222,-0.529842,-0.460919,101.988687,3.975105,-89.216432
41439,NaN,-0.707295,9.612005,-2.051932,0.011807,0.023333,0.041279,-0.030608,0.000683,-0.022033,0.428913,0.568205,-0.529729,-0.461047,101.972431,3.986583,-89.216190
41440,NaN,-0.671722,9.623071,-2.065568,0.026023,-0.014657,0.052422,-0.029163,0.005816,-0.018843,0.428951,0.568191,-0.529623,-0.461151,101.957496,3.995529,-89.214295
41441,NaN,-0.682114,9.600773,-2.060446,0.028225,-0.004413,0.030318,-0.032211,0.008775,-0.024053,0.428993,0.568188,-0.529490,-0.461268,101.940770,4.006992,-89.210543
41442,NaN,-0.713180,9.613406,-2.043316,0.011125,0.023807,0.041278,-0.029145,0.013805,-0.023914,0.429040,0.568206,-0.529353,-0.461360,101.926202,4.017835,-89.203560
41443,NaN,-0.708138,9.616410,-1.986535,-0.042461,0.016729,0.032161,-0.028715,0.004145,-0.023089,0.429060,0.568197,-0.529243,-0.461478,101.911559,4.029340,-89.202773
41444,NaN,-0.695611,9.607018,-2.029342,0.004095,0.002997,0.030933,-0.029291,0.008003,-0.022372,0.429095,0.568197,-0.529122,-0.461584,101.896668,4.040008,-89.199239
41445,NaN,-0.703578,9.640009,-1.983440,-0.045330,0.006950,0.054264,-0.024866,0.010637,-0.019585,0.429134,0.568206,-0.529011,-0.461664,101.884263,4.048910,-89.194171
41446,NaN,-0.714019,9.617530,-1.978993,-0.043156,0.017187,0.032157,-0.023698,0.010906,-0.026084,0.429153,0.568235,-0.528886,-0.461754,101.872723,4.061318,-89.188571
41447,NaN,-0.713700,9.665742,-2.012591,-0.018244,0.011407,0.086100,-0.020261,0.008031,-0.023042,0.429159,0.568249,-0.528789,-0.461842,101.862774,4.072128,-89.186148
41448,NaN,-0.718609,9.617979,-1.975145,-0.043592,0.017548,0.032154,-0.019139,0.018046,-0.032525,0.429169,0.568320,-0.528641,-0.461914,101.854188,4.087309,-89.175779
41449,NaN,-0.705598,9.636050,-1.998448,-0.022835,0.000704,0.053649,-0.017202,0.011779,-0.030594,0.429158,0.568369,-0.528524,-0.461999,101.846333,4.102000,-89.170512
41450,NaN,-0.774498,9.630132,-2.043160,0.022386,0.067350,0.061965,-0.014607,0.009188,-0.028833,0.429140,0.568420,-0.528415,-0.462076,101.839961,4.116156,-89.165562
41451,NaN,-0.746906,9.645841,-2.035328,0.013171,0.036349,0.073727,-0.017593,0.011679,-0.028425,0.429132,0.568462,-0.528306,-0.462158,101.832028,4.129553,-89.160888
41452,NaN,-0.736010,9.615949,-2.023154,0.008804,0.025459,0.041277,-0.015767,0.016903,-0.027395,0.429142,0.568524,-0.528182,-0.462213,101.825294,4.141996,-89.151773
41453,NaN,-0.753303,9.625765,-1.976042,-0.038237,0.039489,0.042491,-0.017932,0.000554,-0.030974,0.429107,0.568559,-0.528075,-0.462326,101.816788,4.158637,-89.150705
41454,NaN,-0.741475,9.616212,-2.019903,0.008312,0.025725,0.041276,-0.017668,0.004131,-0.028973,0.429084,0.568592,-0.527970,-0.462426,101.808461,4.173466,-89.148589
41455,NaN,-0.742998,9.643988,-1.997750,-0.017686,0.022785,0.063988,-0.014228,0.001264,-0.025933,0.429052,0.568614,-0.527889,-0.462521,101.801623,4.186860,-89.148845
41456,NaN,-0.732151,9.606750,-2.062569,0.054679,0.012122,0.040065,-0.013654,-0.011880,-0.029287,0.428974,0.568620,-0.527827,-0.462657,101.794941,4.203742,-89.155700
41457,NaN,-0.720967,9.604403,-2.030078,0.024495,-0.001848,0.030328,-0.009818,-0.006657,-0.033472,0.428886,0.568650,-0.527758,-0.462780,101.790687,4.222179,-89.160513
41458,NaN,-0.737565,9.634413,-2.039561,0.028386,0.009356,0.062778,-0.013714,-0.002147,-0.032260,0.428828,0.568686,-0.527666,-0.462895,101.784395,4.239587,-89.161549
41459,NaN,-0.755286,9.644091,-1.992639,-0.018679,0.023413,0.063985,-0.014104,-0.002243,-0.030093,0.428774,0.568718,-0.527579,-0.463005,101.778129,4.256013,-89.162662
41460,NaN,-0.793570,9.681379,-2.009993,-0.008226,0.055742,0.106776,-0.021904,-0.011781,-0.032944,0.428712,0.568715,-0.527488,-0.463169,101.766746,4.274931,-89.169041
41461,NaN,-0.784382,9.623913,-2.017923,0.013271,0.047974,0.051616,-0.019955,-0.008760,-0.028382,0.428661,0.568707,-0.527411,-0.463314,101.756337,4.290789,-89.175151
41462,NaN,-0.770728,9.676979,-1.943482,-0.068563,0.027799,0.087292,-0.016185,-0.009786,-0.025427,0.428606,0.568701,-0.527349,-0.463442,101.748245,4.305255,-89.181294
41463,NaN,-0.768030,9.617086,-2.005769,0.006247,0.027179,0.041274,-0.019952,-0.016767,-0.023325,0.428545,0.568663,-0.527304,-0.463598,101.737625,4.319304,-89.192316
41464,NaN,-0.770464,9.617266,-2.003973,0.006011,0.027337,0.041274,-0.015407,-0.008324,-0.022062,0.428499,0.568654,-0.527250,-0.463712,101.730008,4.331710,-89.198035
41465,NaN,-0.779907,9.622217,-1.979526,-0.017660,0.034466,0.041872,-0.018137,-0.002257,-0.019649,0.428477,0.568643,-0.527190,-0.463813,101.721352,4.342103,-89.201513
41466,NaN,-0.804570,9.601964,-2.006838,0.014500,0.058828,0.029506,-0.020020,-0.005749,-0.018598,0.428459,0.568621,-0.527130,-0.463925,101.711169,4.352265,-89.206192
41467,NaN,-0.811368,9.655092,-2.017519,0.015978,0.059998,0.084062,-0.020797,-0.005936,-0.014267,0.428449,0.568579,-0.527088,-0.464035,101.700371,4.359856,-89.212671
41468,NaN,-0.798119,9.653034,-1.984223,-0.014214,0.046025,0.074318,-0.019883,-0.006679,-0.007377,0.428454,0.568525,-0.527062,-0.464125,101.690125,4.363828,-89.219184
41469,NaN,-0.797852,9.681016,-1.961421,-0.040251,0.043076,0.097021,-0.022153,-0.010264,-0.004161,0.428464,0.568451,-0.527046,-0.464224,101.678248,4.366585,-89.227827
41470,NaN,-0.785154,9.651442,-1.948451,-0.044615,0.032187,0.064571,-0.025925,-0.009249,-0.007111,0.428480,0.568378,-0.527012,-0.464337,101.664428,4.370703,-89.235819
41471,NaN,-0.770026,9.669989,-1.971000,-0.023899,0.015289,0.086083,-0.020850,-0.010918,0.000563,0.428495,0.568291,-0.527016,-0.464426,101.653303,4.370748,-89.245786
41472,NaN,-0.763278,9.665675,-1.991500,-0.000751,0.008459,0.085488,-0.025015,-0.011276,-0.007915,0.428501,0.568217,-0.526987,-0.464543,101.639923,4.375548,-89.254828
41473,NaN,-0.750826,9.636081,-1.978584,-0.005177,-0.002484,0.053039,-0.022812,-0.005947,-0.009043,0.428511,0.568168,-0.526947,-0.464641,101.628393,4.380658,-89.260282
41474,NaN,-0.780965,9.648356,-1.961858,-0.022219,0.025786,0.063972,-0.025738,-0.005210,-0.010713,0.428529,0.568114,-0.526895,-0.464749,101.614883,4.386324,-89.265588
41475,NaN,-0.774856,9.644081,-1.982004,0.001004,0.019011,0.063379,-0.028665,-0.004474,-0.012382,0.428551,0.568050,-0.526837,-0.464873,101.599302,4.392505,-89.271754
41476,NaN,-0.789830,9.674528,-1.989786,0.004897,0.030224,0.095826,-0.026779,-0.010266,-0.016080,0.428546,0.567996,-0.526778,-0.465010,101.585024,4.401762,-89.279289
41477,NaN,-0.793610,9.626832,-1.951443,-0.020415,0.036384,0.041860,-0.032684,-0.015055,-0.012290,0.428550,0.567906,-0.526730,-0.465169,101.567232,4.409489,-89.290528
41478,NaN,-0.737095,9.603665,-1.977022,0.012948,-0.019685,0.020001,-0.030941,-0.009353,-0.016859,0.428558,0.567847,-0.526658,-0.465316,101.550612,4.419074,-89.297465
41479,NaN,-0.782403,9.618427,-1.990910,0.025853,0.022706,0.040679,-0.030296,-0.005679,-0.017016,0.428568,0.567795,-0.526584,-0.465454,101.534681,4.428301,-89.303316
41480,NaN,-0.770924,9.588869,-1.977451,0.021489,0.011811,0.008231,-0.030490,-0.011010,-0.021108,0.428559,0.567745,-0.526504,-0.465614,101.518282,4.440458,-89.310704
41481,NaN,-0.772119,9.616806,-1.953911,-0.004589,0.008887,0.030929,-0.025362,-0.006416,-0.020563,0.428549,0.567716,-0.526427,-0.465746,101.505058,4.451959,-89.315472
41482,NaN,-0.758752,9.635339,-1.976314,0.016096,-0.008017,0.052451,-0.024856,-0.000528,-0.024241,0.428545,0.567710,-0.526329,-0.465868,101.492371,4.464674,-89.316604
41483,NaN,-0.776625,9.617416,-1.949115,-0.005001,0.009238,0.030929,-0.024009,-0.000809,-0.022963,0.428539,0.567696,-0.526241,-0.465990,101.479805,4.476546,-89.319000
41484,NaN,-0.770789,9.640538,-1.948975,-0.007697,-0.000658,0.053038,-0.021036,0.004717,-0.028415,0.428529,0.567721,-0.526128,-0.466095,101.469573,4.491006,-89.316706
41485,NaN,-0.751558,9.633607,-1.938586,-0.014557,-0.021622,0.042700,-0.020985,0.012252,-0.027838,0.428535,0.567762,-0.526004,-0.466180,101.459896,4.504370,-89.310754
41486,NaN,-0.827697,9.632244,-1.960041,0.007449,0.051933,0.051602,-0.018839,0.010047,-0.029534,0.428530,0.567808,-0.525882,-0.466267,101.451171,4.518854,-89.305335
41487,NaN,-0.770023,9.663919,-1.945566,-0.010951,-0.010276,0.075147,-0.016570,0.014911,-0.025046,0.428537,0.567858,-0.525770,-0.466325,101.444211,4.530466,-89.298060
41488,NaN,-0.796016,9.622898,-1.917183,-0.029630,0.017016,0.031511,-0.018857,0.019319,-0.026867,0.428562,0.567918,-0.525636,-0.466380,101.435867,4.542399,-89.287726
41489,NaN,-0.805550,9.627614,-1.892948,-0.053197,0.024225,0.032093,-0.013255,0.014267,-0.025542,0.428559,0.567970,-0.525533,-0.466436,101.430250,4.554017,-89.281162
41490,NaN,-0.821096,9.650923,-1.979098,0.027424,0.035495,0.073128,-0.013782,0.016379,-0.026895,0.428562,0.568034,-0.525417,-0.466486,101.424686,4.566302,-89.272483
41491,NaN,-0.795246,9.618468,-1.936375,-0.006953,0.010492,0.030926,-0.011336,0.025296,-0.026001,0.428580,0.568122,-0.525292,-0.466503,101.421160,4.577179,-89.259215
41492,NaN,-0.840928,9.639415,-1.875362,-0.070710,0.052837,0.043005,-0.013071,0.019580,-0.021440,0.428602,0.568181,-0.525186,-0.466530,101.416101,4.586039,-89.249355
41493,NaN,-0.797978,9.645992,-1.913942,-0.033275,0.007785,0.053616,-0.002484,0.021355,-0.023083,0.428592,0.568269,-0.525098,-0.466530,101.417254,4.595653,-89.238808
41494,NaN,-0.807935,9.623012,-1.911617,-0.031035,0.018001,0.031505,-0.008798,0.024456,-0.022165,0.428613,0.568350,-0.524990,-0.466534,101.414873,4.604367,-89.226119
41495,NaN,-0.832335,9.602539,-1.940431,0.001189,0.042329,0.019150,-0.005204,0.018125,-0.023318,0.428600,0.568421,-0.524907,-0.466554,101.414254,4.614266,-89.218236
41496,NaN,-0.803469,9.645757,-1.912831,-0.033973,0.008310,0.053613,-0.002525,0.013812,-0.023661,0.428571,0.568495,-0.524832,-0.466575,101.415003,4.625028,-89.211374
41497,NaN,-0.820782,9.620617,-1.964701,0.021568,0.025539,0.040682,-0.005453,0.014537,-0.025329,0.428546,0.568569,-0.524745,-0.466605,101.414441,4.636817,-89.204074
41498,NaN,-0.822126,9.647990,-1.943562,-0.004515,0.022683,0.063370,-0.003263,0.019872,-0.026442,0.428529,0.568663,-0.524647,-0.466616,101.415071,4.648453,-89.193480
41499,NaN,-0.853419,9.659451,-1.929215,-0.021437,0.051021,0.074280,-0.000546,0.023093,-0.026201,0.428513,0.568763,-0.524552,-0.466615,101.416979,4.659412,-89.181932
41500,NaN,-0.832918,9.679718,-1.899862,-0.054130,0.027066,0.086631,-0.002843,0.011961,-0.023582,0.428481,0.568832,-0.524480,-0.466642,101.417465,4.670339,-89.176121
41501,NaN,-0.835607,9.652053,-1.920727,-0.028531,0.030236,0.063943,-0.000091,0.022716,-0.022758,0.428468,0.568928,-0.524397,-0.466631,101.420135,4.679612,-89.164777
41502,NaN,-0.815952,9.644812,-1.912314,-0.035375,0.009293,0.053608,-0.001957,0.017936,-0.029412,0.428436,0.569028,-0.524297,-0.466651,101.421461,4.693135,-89.154935
41503,NaN,-0.854454,9.654096,-1.952183,0.001004,0.044593,0.073702,0.000369,0.021062,-0.027007,0.428412,0.569137,-0.524200,-0.466650,101.424155,4.705164,-89.143036
41504,NaN,-0.885789,9.665499,-1.937921,-0.015981,0.072905,0.084608,-0.002737,0.017736,-0.025083,0.428391,0.569223,-0.524111,-0.466663,101.424989,4.716278,-89.133798
41505,NaN,-0.875131,9.607889,-1.948092,0.005515,0.064980,0.029477,-0.005379,0.012764,-0.027412,0.428359,0.569300,-0.524019,-0.466702,101.424108,4.729438,-89.126806
41506,NaN,-0.853782,9.649046,-1.974414,0.023678,0.038003,0.073128,-0.003717,0.004686,-0.025440,0.428306,0.569354,-0.523955,-0.466756,101.423779,4.742233,-89.124881
41507,NaN,-0.878932,9.635134,-1.926435,-0.020822,0.062328,0.052158,-0.006264,0.006781,-0.021580,0.428269,0.569392,-0.523899,-0.466806,101.422195,4.752489,-89.123572
41508,NaN,-0.850545,9.644302,-1.996306,0.046559,0.031297,0.072558,-0.004210,-0.001200,-0.021772,0.428210,0.569422,-0.523858,-0.466870,101.421275,4.763892,-89.125382
41509,NaN,-0.868213,9.625899,-1.970766,0.025445,0.048514,0.051016,-0.011794,-0.005465,-0.020560,0.428165,0.569426,-0.523808,-0.466963,101.415849,4.775314,-89.129376
41510,NaN,-0.834015,9.616458,-1.930038,-0.011394,0.013517,0.030918,-0.006254,-0.008746,-0.017145,0.428103,0.569422,-0.523791,-0.467043,101.413360,4.784974,-89.135968
41511,NaN,-0.842193,9.641864,-1.962366,0.015814,0.017670,0.062795,-0.011479,-0.003630,-0.020634,0.428057,0.569427,-0.523744,-0.467132,101.408471,4.796106,-89.139793
41512,NaN,-0.852063,9.618969,-1.959445,0.018078,0.027874,0.040683,-0.008701,-0.000865,-0.014788,0.428029,0.569430,-0.523711,-0.467192,101.404926,4.803548,-89.142213
41513,NaN,-0.852758,9.646529,-1.937608,-0.007957,0.025041,0.063362,-0.011389,0.003435,-0.014444,0.428022,0.569437,-0.523660,-0.467246,101.399707,4.810363,-89.141873
41514,NaN,-0.875659,9.653643,-1.945015,-0.001562,0.046308,0.073694,-0.011855,0.005082,-0.010193,0.428029,0.569435,-0.523619,-0.467287,101.394592,4.814550,-89.141463
41515,NaN,-0.897320,9.688278,-1.931583,-0.021066,0.064543,0.106703,-0.010628,0.006186,-0.003386,0.428050,0.569425,-0.523597,-0.467306,101.390392,4.815082,-89.140752
41516,NaN,-0.904800,9.693012,-1.907745,-0.044659,0.071769,0.107267,-0.011940,0.008105,-0.000412,0.428088,0.569404,-0.523578,-0.467318,101.385279,4.813434,-89.139750
41517,NaN,-0.882463,9.686236,-1.898393,-0.051466,0.050845,0.096933,-0.007470,0.010328,0.007989,0.428136,0.569371,-0.523591,-0.467298,101.382456,4.806745,-89.139297
41518,NaN,-0.839422,9.617514,-1.922414,-0.013228,0.014755,0.030914,-0.010107,0.005355,0.005657,0.428176,0.569332,-0.523600,-0.467300,101.378205,4.802000,-89.140534
41519,NaN,-0.867859,9.629287,-1.907224,-0.030191,0.043091,0.041808,-0.009553,0.010774,0.007597,0.428228,0.569298,-0.523608,-0.467284,101.374529,4.795533,-89.139852
41520,NaN,-0.851997,9.620467,-1.952105,0.016302,0.029117,0.040682,-0.007255,0.006377,0.009415,0.428271,0.569257,-0.523632,-0.467268,101.371925,4.788561,-89.140938
41521,NaN,-0.842904,9.643648,-1.953274,0.013574,0.019272,0.062795,-0.008515,-0.000977,0.009711,0.428294,0.569189,-0.523677,-0.467280,101.368200,4.782068,-89.147755
41522,NaN,-0.835601,9.618482,-1.919233,-0.014147,0.015442,0.030912,-0.009412,0.008565,0.011113,0.428352,0.569144,-0.523696,-0.467260,101.364447,4.773894,-89.147799
41523,NaN,-0.877417,9.660246,-1.914415,-0.026985,0.054858,0.074246,-0.010283,0.001308,0.009245,0.428385,0.569081,-0.523729,-0.467270,101.359952,4.767512,-89.152878
41524,NaN,-0.834136,9.591561,-1.938356,0.011247,0.018742,0.008238,-0.008061,-0.001348,0.013152,0.428418,0.569011,-0.523778,-0.467269,101.356490,4.759312,-89.158739
41525,NaN,-0.854129,9.626346,-1.924902,-0.008135,0.037061,0.041240,-0.013601,0.001930,0.009739,0.428469,0.568942,-0.523798,-0.467285,101.349581,4.752578,-89.162828
41526,NaN,-0.860551,9.631169,-1.901020,-0.031724,0.044303,0.041798,-0.009122,0.002872,0.010450,0.428510,0.568886,-0.523828,-0.467281,101.345734,4.745418,-89.166004
41527,NaN,-0.830294,9.619898,-1.914433,-0.015254,0.016274,0.030909,-0.009753,-0.000806,0.010597,0.428541,0.568819,-0.523867,-0.467291,101.341445,4.738664,-89.171844
41528,NaN,-0.858484,9.631679,-1.899370,-0.032199,0.044620,0.041795,-0.005589,-0.001702,0.011381,0.428562,0.568758,-0.523918,-0.467289,101.339402,4.731497,-89.177703
41529,NaN,-0.819286,9.670741,-1.894082,-0.044135,0.003603,0.075692,-0.006194,0.002149,0.012120,0.428594,0.568702,-0.523963,-0.467278,101.337353,4.723568,-89.181958
41530,NaN,-0.856080,9.632096,-1.898341,-0.032687,0.044934,0.041792,-0.003582,-0.000411,0.013863,0.428619,0.568642,-0.524022,-0.467261,101.336498,4.714860,-89.187369
41531,NaN,-0.818170,9.616165,-1.935335,0.007140,0.009830,0.030352,0.000973,-0.001211,0.012485,0.428622,0.568590,-0.524094,-0.467241,101.338276,4.706993,-89.193771
41532,NaN,-0.816355,9.643724,-1.914355,-0.018968,0.007049,0.053020,-0.001955,-0.000490,0.010815,0.428635,0.568541,-0.524149,-0.467227,101.338380,4.700007,-89.198882
41533,NaN,-0.794404,9.609327,-1.926673,0.000008,-0.010957,0.020023,-0.000328,-0.000567,0.007767,0.428633,0.568502,-0.524202,-0.467218,101.339544,4.694814,-89.204317
41534,NaN,-0.814896,9.643856,-1.914311,-0.019451,0.007365,0.053019,0.001404,0.005143,0.003221,0.428633,0.568493,-0.524231,-0.467195,101.341903,4.691459,-89.205395
41535,NaN,-0.778871,9.600289,-1.972574,0.046311,-0.024838,0.018919,0.002260,0.003599,-0.003195,0.428613,0.568499,-0.524244,-0.467191,101.344380,4.691995,-89.206614
41536,NaN,-0.792660,9.630221,-1.983111,0.050206,-0.013611,0.051363,-0.000109,0.009737,-0.002921,0.428615,0.568514,-0.524242,-0.467173,101.346141,4.691573,-89.204407
41537,NaN,-0.816077,9.616258,-1.935757,0.005883,0.010830,0.030351,0.001381,0.011868,-0.009483,0.428601,0.568543,-0.524229,-0.467166,101.348378,4.694265,-89.202029
41538,NaN,-0.831620,9.625208,-1.890289,-0.041055,0.025191,0.031452,-0.000172,0.010205,-0.008524,0.428591,0.568574,-0.524210,-0.467159,101.350176,4.696938,-89.198925
41539,NaN,-0.825586,9.593153,-1.934132,0.007938,0.021203,0.008236,0.000536,0.012140,-0.010760,0.428575,0.568611,-0.524189,-0.467153,101.352542,4.700531,-89.195748
41540,NaN,-0.860981,9.657509,-1.932333,-0.007385,0.050604,0.073670,0.002226,0.011593,-0.008204,0.428563,0.568649,-0.524173,-0.467134,101.355776,4.702867,-89.191898
41541,NaN,-0.839774,9.650363,-1.924138,-0.014300,0.029650,0.063342,0.002226,0.011592,-0.008204,0.428549,0.568687,-0.524159,-0.467117,101.359146,4.705333,-89.188280
41542,NaN,-0.862075,9.657271,-1.933033,-0.007869,0.050909,0.073668,0.003174,0.017104,-0.008423,0.428549,0.568741,-0.524133,-0.467081,101.363180,4.707169,-89.181298
41543,NaN,-0.826470,9.647569,-1.893801,-0.044667,0.016047,0.053561,0.006706,0.012532,-0.007491,0.428528,0.568780,-0.524132,-0.467052,101.368381,4.708677,-89.178163
41544,NaN,-0.833593,9.645380,-1.948712,0.008464,0.023089,0.062793,0.007688,0.010051,-0.002699,0.428510,0.568812,-0.524148,-0.467012,101.374622,4.708094,-89.175806
41545,NaN,-0.834417,9.617732,-1.970498,0.034143,0.026183,0.040131,0.008395,0.011985,-0.004935,0.428486,0.568850,-0.524160,-0.466974,101.381226,4.708441,-89.173116
41546,NaN,-0.798091,9.635472,-1.910518,-0.028657,-0.011644,0.042686,0.005861,0.012802,-0.008768,0.428466,0.568901,-0.524149,-0.466944,101.386604,4.710955,-89.168520
41547,NaN,-0.791717,9.603274,-1.955120,0.020301,-0.015719,0.019480,0.010263,0.015483,-0.005964,0.428446,0.568963,-0.524149,-0.466887,101.394859,4.711785,-89.162388
41548,NaN,-0.821458,9.614519,-1.942109,0.003389,0.012651,0.030350,0.012917,0.019173,-0.011320,0.428416,0.569050,-0.524133,-0.466826,101.404599,4.715009,-89.153911
41549,NaN,-0.835651,9.644131,-1.954006,0.007238,0.023837,0.062792,0.013785,0.026422,-0.009449,0.428404,0.569152,-0.524110,-0.466738,101.415442,4.716628,-89.141681
41550,NaN,-0.864650,9.682775,-1.920507,-0.035558,0.049308,0.096319,0.015867,0.025971,-0.009054,0.428389,0.569256,-0.524093,-0.466645,101.427166,4.717805,-89.129630
41551,NaN,-0.872978,9.659496,-1.920218,-0.033246,0.059476,0.074200,0.012683,0.024387,-0.005049,0.428388,0.569338,-0.524083,-0.466556,101.436960,4.717015,-89.119000
41552,NaN,-0.864737,9.682159,-1.923573,-0.036021,0.049619,0.096315,0.012919,0.027961,-0.003033,0.428401,0.569424,-0.524072,-0.466452,101.447031,4.714581,-89.106514
41553,NaN,-0.872470,9.658980,-1.923044,-0.033697,0.059814,0.074197,0.010871,0.020421,0.001586,0.428408,0.569473,-0.524089,-0.466367,101.455487,4.710359,-89.099347
41554,NaN,-0.835182,9.642712,-1.961195,0.006086,0.024635,0.062791,0.009925,0.014911,0.001806,0.428407,0.569509,-0.524112,-0.466298,101.463192,4.706689,-89.094767
41555,NaN,-0.864457,9.626623,-1.968881,0.015042,0.055859,0.050998,0.008293,0.014990,0.004852,0.428417,0.569538,-0.524138,-0.466224,101.470156,4.701580,-89.089992
41556,NaN,-0.863036,9.654014,-1.948810,-0.011081,0.053128,0.073653,0.006637,0.007550,0.007307,0.428418,0.569536,-0.524186,-0.466173,101.475586,4.695658,-89.090190
41557,NaN,-0.833434,9.614952,-1.984430,0.031207,0.027966,0.040135,0.003744,0.000287,0.010646,0.428409,0.569496,-0.524259,-0.466146,101.479225,4.688638,-89.096242
41558,NaN,-0.817886,9.612550,-1.953332,0.000951,0.014166,0.030349,0.001929,-0.003672,0.017280,0.428418,0.569431,-0.524348,-0.466117,101.481348,4.678397,-89.103903
41559,NaN,-0.801735,9.603498,-1.999133,0.047394,0.000059,0.029276,0.003083,0.004597,0.005779,0.428416,0.569416,-0.524392,-0.466088,101.484676,4.673677,-89.106056
41560,NaN,-0.853478,9.601177,-1.937984,-0.013627,0.052728,0.019090,0.006111,0.009656,0.005955,0.428421,0.569421,-0.524430,-0.466035,101.489913,4.668275,-89.104914
41561,NaN,-0.808748,9.614560,-1.900610,-0.053163,0.007827,0.021094,0.007008,0.000123,0.004556,0.428391,0.569407,-0.524491,-0.466011,101.495470,4.664764,-89.109793
41562,NaN,-0.777815,9.623688,-1.971678,0.014071,-0.023440,0.041608,0.009983,0.005645,-0.000872,0.428358,0.569429,-0.524527,-0.465974,101.502806,4.663652,-89.110129
41563,NaN,-0.793424,9.605071,-1.948178,-0.006946,-0.006103,0.020025,0.012799,0.014645,-0.002122,0.428335,0.569475,-0.524553,-0.465909,101.512168,4.662088,-89.106307
41564,NaN,-0.844325,9.623384,-1.943948,-0.017142,0.043378,0.041203,0.013326,0.012537,-0.000769,0.428311,0.569520,-0.524582,-0.465843,101.521733,4.660130,-89.102773
41565,NaN,-0.843439,9.650605,-1.924576,-0.043308,0.040630,0.063852,0.015116,0.017770,0.000290,0.428297,0.569580,-0.524608,-0.465755,101.532760,4.657200,-89.096400
41566,NaN,-0.864562,9.657346,-1.934784,-0.036849,0.061882,0.074173,0.016199,0.005575,0.008013,0.428267,0.569591,-0.524684,-0.465683,101.543571,4.651109,-89.097798
41567,NaN,-0.840500,9.670949,-1.983571,0.007046,0.037758,0.095228,0.010271,0.008756,0.006748,0.428258,0.569597,-0.524739,-0.465621,101.551080,4.645255,-89.097919
41568,NaN,-0.841449,9.622494,-1.949590,-0.018090,0.044005,0.041199,0.013036,0.011515,0.012602,0.428264,0.569604,-0.524808,-0.465530,101.560307,4.635906,-89.096502
41569,NaN,-0.816640,9.636148,-1.998332,0.025788,0.019865,0.062257,0.012746,0.001701,0.017694,0.428253,0.569569,-0.524917,-0.465460,101.568876,4.624763,-89.102161
41570,NaN,-0.830548,9.617735,-1.974683,0.004785,0.037187,0.040667,0.007978,0.006445,0.017634,0.428271,0.569540,-0.524999,-0.465386,101.574928,4.613172,-89.104183
41571,NaN,-0.806881,9.610703,-1.966950,-0.002189,0.016217,0.030345,0.009347,0.004065,0.020268,0.428284,0.569504,-0.525096,-0.465309,101.581897,4.600619,-89.107670
41572,NaN,-0.826636,9.617730,-1.976349,0.004276,0.037464,0.040667,0.006633,0.000843,0.020020,0.428297,0.569452,-0.525194,-0.465249,101.586904,4.588334,-89.113124
41573,NaN,-0.795583,9.606096,-1.991328,0.020631,0.009350,0.029818,0.010138,0.004250,0.015945,0.428297,0.569429,-0.525282,-0.465179,101.594403,4.578120,-89.116250
41574,NaN,-0.794645,9.612836,-1.915220,-0.056309,0.009895,0.021075,0.005502,0.006795,0.019400,0.428328,0.569390,-0.525363,-0.465106,101.599037,4.565499,-89.118283
41575,NaN,-0.799371,9.610607,-1.970484,-0.003207,0.016865,0.030344,0.017431,-0.001320,0.019849,0.428297,0.569349,-0.525501,-0.465029,101.610347,4.553330,-89.126703
41576,NaN,-0.819311,9.617497,-1.980529,0.003262,0.038110,0.040664,0.012427,-0.000148,0.017773,0.428286,0.569314,-0.525608,-0.464962,101.618655,4.542423,-89.132461
41577,NaN,-0.808528,9.667861,-1.962828,-0.025468,0.025402,0.085426,0.012270,0.003331,0.021949,0.428291,0.569274,-0.525721,-0.464877,101.627063,4.528862,-89.137137
41578,NaN,-0.800363,9.642442,-1.930761,-0.053164,0.021651,0.053508,0.013397,-0.002626,0.022572,0.428282,0.569222,-0.525850,-0.464804,101.635775,4.515550,-89.144850
41579,NaN,-0.834120,9.651837,-1.972045,-0.016647,0.056784,0.073625,0.013922,-0.004736,0.023928,0.428269,0.569165,-0.525986,-0.464733,101.644654,4.501915,-89.153695
41580,NaN,-0.832534,9.624243,-1.994110,0.009032,0.059783,0.050983,0.012683,-0.004560,0.024811,0.428261,0.569101,-0.526123,-0.464662,101.652855,4.487573,-89.162760
41581,NaN,-0.807873,9.644664,-1.965917,-0.023873,0.036001,0.063302,0.013921,-0.004742,0.023930,0.428244,0.569041,-0.526264,-0.464592,101.662073,4.473865,-89.172307
41582,NaN,-0.797912,9.640026,-1.989711,-0.000775,0.028991,0.062781,0.009061,-0.013747,0.030398,0.428236,0.568933,-0.526428,-0.464545,101.667749,4.457454,-89.187196
41583,NaN,-0.774441,9.605427,-2.002861,0.018232,0.010905,0.029821,0.013376,-0.018139,0.027021,0.428196,0.568831,-0.526604,-0.464509,101.675508,4.443426,-89.204620
41584,NaN,-0.758145,9.602934,-1.972609,-0.012046,-0.002846,0.020021,0.011919,-0.006039,0.021446,0.428179,0.568771,-0.526733,-0.464451,101.683245,4.431148,-89.214133
41585,NaN,-0.770402,9.605268,-2.005179,0.017719,0.011193,0.029822,0.013999,-0.006495,0.021844,0.428154,0.568715,-0.526869,-0.464389,101.692407,4.418858,-89.223952
41586,NaN,-0.768001,9.632675,-1.985705,-0.008432,0.008525,0.052460,0.015070,-0.011993,0.016865,0.428102,0.568660,-0.527005,-0.464350,101.701736,4.409845,-89.236286
41587,NaN,-0.759169,9.627859,-2.009760,0.014628,0.001506,0.051943,0.012902,-0.001819,0.013525,0.428072,0.568631,-0.527108,-0.464296,101.710485,4.401519,-89.243028
41588,NaN,-0.765452,9.632376,-1.988135,-0.008937,0.008845,0.052459,0.010619,0.002578,0.011694,0.428059,0.568613,-0.527188,-0.464238,101.717942,4.393716,-89.246561
41589,NaN,-0.780186,9.613924,-1.964857,-0.029897,0.026179,0.030854,0.019410,-0.000890,0.009037,0.428004,0.568613,-0.527289,-0.464175,101.730233,4.387864,-89.252055
41590,NaN,-0.770957,9.636528,-1.968641,-0.032723,0.016339,0.052973,0.017893,0.004973,0.010573,0.427974,0.568620,-0.527377,-0.464094,101.741972,4.380412,-89.254113
41591,NaN,-0.768650,9.691302,-1.929160,-0.084806,0.010845,0.098241,0.024680,0.000216,0.005432,0.427900,0.568645,-0.527476,-0.464020,101.757487,4.376538,-89.258142
41592,NaN,-0.798756,9.647445,-1.959169,-0.049807,0.044904,0.063803,0.029361,-0.002807,0.007588,0.427810,0.568666,-0.527599,-0.463937,101.775489,4.371670,-89.264231
41593,NaN,-0.782983,9.637589,-2.007370,-0.003408,0.030683,0.062775,0.026886,-0.002447,0.009353,0.427729,0.568676,-0.527724,-0.463857,101.792184,4.365811,-89.270877
41594,NaN,-0.817163,9.674196,-2.029105,0.007209,0.063003,0.105531,0.025252,-0.002361,0.012400,0.427662,0.568677,-0.527850,-0.463774,101.807809,4.358196,-89.277283
41595,NaN,-0.780747,9.636755,-2.012237,-0.003873,0.030968,0.062774,0.024536,-0.004290,0.014641,0.427599,0.568668,-0.527982,-0.463692,101.822896,4.349743,-89.284680
41596,NaN,-0.765124,9.599426,-2.080574,0.068465,0.019546,0.039120,0.019661,-0.005305,0.016086,0.427550,0.568640,-0.528112,-0.463624,101.835161,4.340410,-89.293180
41597,NaN,-0.792814,9.610966,-2.068175,0.051636,0.047924,0.049949,0.017186,-0.004942,0.017851,0.427513,0.568607,-0.528237,-0.463557,101.845990,4.330333,-89.301204
41598,NaN,-0.776968,9.608466,-2.038032,0.021349,0.034196,0.040142,0.009590,-0.009166,0.019053,0.427489,0.568540,-0.528360,-0.463520,101.852297,4.319793,-89.312229
41599,NaN,-0.767832,9.603699,-2.061634,0.044430,0.027188,0.039633,0.009590,-0.009168,0.019054,0.427457,0.568464,-0.528495,-0.463489,101.858656,4.309051,-89.325282
41600,NaN,-0.743897,9.624160,-2.033051,0.011537,0.003468,0.051946,0.008180,-0.014306,0.015845,0.427416,0.568392,-0.528617,-0.463477,101.863970,4.300918,-89.338819
41601,NaN,-0.758236,9.606009,-2.008789,-0.009395,0.020830,0.030332,0.003994,-0.004128,0.017701,0.427416,0.568326,-0.528715,-0.463446,101.867166,4.290501,-89.347443
41602,NaN,-0.777575,9.640733,-1.997168,-0.028825,0.039274,0.063277,0.006989,-0.006605,0.017296,0.427402,0.568264,-0.528822,-0.463412,101.872113,4.280648,-89.356824
41603,NaN,-0.731270,9.647039,-2.036647,0.008224,-0.006052,0.074068,0.005899,-0.009908,0.014009,0.427372,0.568200,-0.528927,-0.463399,101.876425,4.273060,-89.368220
41604,NaN,-0.767512,9.635978,-2.021030,-0.005991,0.032383,0.062769,0.006070,0.003390,0.013059,0.427377,0.568171,-0.528998,-0.463348,101.881304,4.264406,-89.371481
41605,NaN,-0.789289,9.622609,-1.973897,-0.050255,0.056984,0.041656,0.002236,-0.001838,0.017225,0.427384,0.568104,-0.529091,-0.463318,101.883723,4.253840,-89.379635
41606,NaN,-0.735420,9.624159,-2.036141,0.010120,0.004447,0.051947,0.010377,-0.008996,0.014729,0.427348,0.568051,-0.529204,-0.463288,101.890540,4.245711,-89.390059
41607,NaN,-0.741602,9.628814,-2.014257,-0.013462,0.011802,0.052451,0.008150,0.002928,0.013458,0.427343,0.568023,-0.529285,-0.463234,101.896739,4.236964,-89.394257
41608,NaN,-0.754640,9.631111,-2.046411,0.016361,0.025824,0.062263,0.007703,0.003295,0.010013,0.427336,0.568005,-0.529352,-0.463185,101.902579,4.230030,-89.397213
41609,NaN,-0.747625,9.605763,-2.013934,-0.011313,0.022091,0.030328,0.010748,0.008337,0.010175,0.427334,0.568006,-0.529415,-0.463115,101.910324,4.222523,-89.397377
41610,NaN,-0.759833,9.635605,-2.025709,-0.007422,0.033334,0.062765,0.011268,0.006226,0.011536,0.427328,0.567998,-0.529488,-0.463046,101.918314,4.214389,-89.398868
41611,NaN,-0.772924,9.637826,-2.058182,0.022439,0.047380,0.072578,0.011216,-0.001296,0.010971,0.427299,0.567969,-0.529580,-0.463003,101.925769,4.207287,-89.405588
41612,NaN,-0.779297,9.642472,-2.036363,-0.001113,0.054756,0.073078,0.008419,-0.002762,0.012815,0.427280,0.567932,-0.529669,-0.462964,101.931746,4.199501,-89.412286
41613,NaN,-0.728269,9.595777,-2.063293,0.034435,0.008314,0.029326,0.007327,-0.006062,0.009529,0.427249,0.567892,-0.529754,-0.462946,101.936840,4.193941,-89.420607
41614,NaN,-0.748962,9.602822,-2.072632,0.040946,0.029543,0.039641,0.008616,-0.006707,0.014256,0.427223,0.567842,-0.529856,-0.462914,101.942756,4.185815,-89.429695
41615,NaN,-0.717243,9.646108,-2.046021,0.005389,-0.004147,0.074071,0.006431,-0.013309,0.007684,0.427169,0.567789,-0.529948,-0.462922,101.947274,4.182270,-89.441835
41616,NaN,-0.746606,9.630331,-2.053018,0.014524,0.027071,0.062263,0.004011,-0.005418,0.010013,0.427149,0.567744,-0.530025,-0.462908,101.950644,4.176371,-89.449695
41617,NaN,-0.746744,9.602709,-2.073954,0.040236,0.029987,0.039643,0.002004,-0.006700,0.007530,0.427125,0.567696,-0.530094,-0.462910,101.952779,4.172017,-89.458318
41618,NaN,-0.715299,9.646086,-2.046805,0.004681,-0.003674,0.074072,0.001358,-0.010369,0.007690,0.427095,0.567639,-0.530169,-0.462922,101.954448,4.168009,-89.468684
41619,NaN,-0.738211,9.632793,-1.999234,-0.039563,0.020925,0.052940,0.000265,-0.013669,0.004404,0.427050,0.567581,-0.530239,-0.462955,101.955411,4.166267,-89.480769
41620,NaN,-0.714846,9.646136,-2.046730,0.004197,-0.003365,0.074072,0.000069,-0.009725,0.002963,0.427014,0.567535,-0.530296,-0.462979,101.956408,4.164832,-89.490211
41621,NaN,-0.730750,9.628018,-2.022016,-0.016740,0.013969,0.052443,0.003064,-0.004224,-0.002489,0.426972,0.567528,-0.530329,-0.462989,101.959483,4.166045,-89.495290
41622,NaN,-0.709296,9.620826,-2.013610,-0.023736,-0.006944,0.042129,0.002023,-0.007984,-0.000164,0.426928,0.567499,-0.530377,-0.463009,101.961699,4.166158,-89.503381
41623,NaN,-0.738035,9.625481,-2.076552,0.036196,0.020901,0.061769,0.003387,-0.002390,-0.002569,0.426887,0.567488,-0.530414,-0.463019,101.964777,4.166861,-89.508839
41624,NaN,-0.710063,9.620633,-2.014261,-0.024185,-0.006609,0.042128,0.005735,-0.000558,-0.007860,0.426834,0.567504,-0.530433,-0.463025,101.969489,4.170405,-89.511840
41625,NaN,-0.733363,9.599974,-2.044043,0.008368,0.017364,0.029825,0.004499,-0.000373,-0.006977,0.426790,0.567515,-0.530449,-0.463033,101.972994,4.173433,-89.514727
41626,NaN,-0.748980,9.609362,-1.999021,-0.038489,0.032004,0.030807,0.004752,0.011186,-0.010021,0.426766,0.567563,-0.530435,-0.463013,101.977641,4.176793,-89.510870
41627,NaN,-0.749748,9.609151,-1.999744,-0.038673,0.032191,0.030806,0.009374,0.000629,-0.008424,0.426704,0.567587,-0.530462,-0.463011,101.984190,4.180357,-89.513873
41628,NaN,-0.734872,9.627000,-2.025365,-0.018237,0.015125,0.052439,0.007563,-0.004598,-0.009465,0.426632,0.567602,-0.530490,-0.463027,101.989797,4.185282,-89.518953
41629,NaN,-0.765533,9.611029,-2.032755,-0.009037,0.046349,0.040626,0.009876,0.007784,-0.004417,0.426595,0.567633,-0.530515,-0.462994,101.997009,4.185823,-89.518500
41630,NaN,-0.765961,9.610796,-2.033692,-0.009272,0.046506,0.040625,0.008980,0.000537,-0.006260,0.426540,0.567655,-0.530544,-0.462985,102.003610,4.188341,-89.521075
41631,NaN,-0.765638,9.638245,-2.013723,-0.035455,0.043896,0.063236,0.005861,-0.002761,-0.004333,0.426490,0.567661,-0.530574,-0.462988,102.008268,4.190392,-89.525116
41632,NaN,-0.750222,9.656151,-2.039250,-0.015025,0.026826,0.084872,0.009302,-0.005609,-0.001291,0.426429,0.567656,-0.530632,-0.462985,102.014757,4.190860,-89.531739
41633,NaN,-0.744051,9.623524,-2.083460,0.033931,0.022439,0.061774,0.008209,-0.008912,-0.004575,0.426349,0.567649,-0.530688,-0.463002,102.020889,4.193674,-89.540469
41634,NaN,-0.701280,9.609149,-2.066740,0.020149,-0.019542,0.041152,0.002742,0.001919,-0.007456,0.426313,0.567664,-0.530696,-0.463008,102.023982,4.196699,-89.542123
41635,NaN,-0.745380,9.623209,-2.084441,0.033490,0.022706,0.061775,0.006702,0.004941,-0.008102,0.426275,0.567702,-0.530698,-0.462994,102.029283,4.199980,-89.540872
41636,NaN,-0.774453,9.662552,-2.050261,-0.009231,0.048465,0.095179,0.005538,0.003382,-0.009302,0.426230,0.567731,-0.530705,-0.462992,102.034055,4.203866,-89.541484
41637,NaN,-0.762646,9.604806,-2.060570,0.012397,0.040258,0.040135,0.000985,0.004214,-0.007935,0.426203,0.567746,-0.530704,-0.463000,102.036022,4.206849,-89.542206
41638,NaN,-0.814341,9.623687,-2.055228,0.002411,0.089808,0.061238,0.002492,-0.001661,-0.009458,0.426152,0.567757,-0.530714,-0.463021,102.038842,4.211424,-89.545632
41639,NaN,-0.763352,9.632237,-2.040348,-0.013995,0.037815,0.062741,0.003460,-0.004136,-0.004650,0.426106,0.567756,-0.530740,-0.463036,102.041885,4.213837,-89.550328
41640,NaN,-0.795113,9.596017,-1.990874,-0.055536,0.072448,0.019454,0.000644,0.003669,-0.000162,0.426097,0.567751,-0.530760,-0.463027,102.043784,4.212567,-89.551873
41641,NaN,-0.771124,9.636910,-2.018012,-0.037775,0.045412,0.063220,0.003908,-0.004501,-0.001204,0.426051,0.567733,-0.530808,-0.463037,102.047259,4.212763,-89.558829
41642,NaN,-0.772098,9.609175,-2.039025,-0.012053,0.048280,0.040613,0.004627,-0.010555,0.001602,0.425996,0.567699,-0.530873,-0.463054,102.050837,4.212206,-89.568577
41643,NaN,-0.740141,9.672940,-2.068093,0.003038,0.011201,0.106508,-0.000998,-0.022296,-0.002956,0.425917,0.567642,-0.530933,-0.463128,102.050818,4.215886,-89.583732
41644,NaN,-0.836213,9.678627,-2.099313,0.032588,0.105594,0.125621,-0.016099,-0.049714,-0.000204,0.425813,0.567478,-0.531028,-0.463315,102.040919,4.221023,-89.615266
41645,NaN,-0.834641,9.578279,-2.048067,0.006127,0.110765,0.016978,-0.031425,-0.105969,0.008017,0.425623,0.567129,-0.531230,-0.463685,102.019768,4.228348,-89.679355
41646,NaN,-0.675467,9.544646,-2.064344,0.032430,-0.047255,-0.024186,-0.008029,-0.106500,0.001013,0.425348,0.566847,-0.531468,-0.464009,102.012116,4.239560,-89.742948
41647,NaN,-0.689156,9.630032,-2.032307,-0.015531,-0.041412,0.053455,-0.007367,-0.070074,-0.006045,0.425154,0.566669,-0.531608,-0.464245,102.005994,4.250426,-89.785117
41648,NaN,-0.729670,9.591384,-2.035956,-0.003661,-0.000246,0.019513,0.002420,-0.052556,-0.013448,0.424959,0.566573,-0.531714,-0.464418,102.006681,4.263302,-89.816670
41649,NaN,-0.731898,9.591198,-2.036031,-0.003877,-0.000093,0.019513,0.006632,-0.045954,-0.012099,0.424773,0.566496,-0.531821,-0.464561,102.009922,4.274662,-89.844891
41650,NaN,-0.733787,9.590994,-2.036314,-0.004112,0.000066,0.019513,0.004980,-0.028591,-0.011460,0.424639,0.566456,-0.531888,-0.464656,102.013051,4.283569,-89.863214
41651,NaN,-0.757227,9.597878,-2.045183,0.002484,0.021306,0.029821,0.005864,-0.013341,-0.014677,0.424534,0.566456,-0.531919,-0.464716,102.017117,4.292352,-89.873428
41652,NaN,-0.757357,9.618165,-2.101477,0.052974,0.017996,0.061307,-0.002134,-0.008368,-0.008641,0.424481,0.566439,-0.531935,-0.464766,102.016992,4.297269,-89.880723
41653,NaN,-0.751248,9.620563,-2.047325,-0.000612,0.011639,0.051947,0.001030,0.002473,-0.010021,0.424445,0.566458,-0.531930,-0.464782,102.018922,4.301756,-89.881856
41654,NaN,-0.781375,9.632309,-2.033174,-0.017349,0.040144,0.062727,0.001419,0.002563,-0.012186,0.424402,0.566484,-0.531920,-0.464800,102.021324,4.307355,-89.882584
41655,NaN,-0.744936,9.643286,-2.049427,-0.003783,0.001978,0.074073,-0.005278,0.005602,-0.009120,0.424392,0.566495,-0.531900,-0.464821,102.020180,4.310938,-89.882290
41656,NaN,-0.783810,9.604618,-2.053493,0.008118,0.043132,0.040127,-0.000220,0.011942,-0.006497,0.424392,0.566524,-0.531883,-0.464804,102.021988,4.312230,-89.878427
41657,NaN,-0.775081,9.655094,-2.034951,-0.020740,0.030570,0.084850,-0.001388,0.010379,-0.007693,0.424394,0.566560,-0.531852,-0.464793,102.022991,4.314818,-89.873578
41658,NaN,-0.762043,9.625120,-2.024260,-0.025101,0.019635,0.052416,-0.001980,0.014238,-0.006972,0.424404,0.566592,-0.531825,-0.464776,102.023892,4.316102,-89.868367
41659,NaN,-0.754442,9.647933,-2.026421,-0.027989,0.009839,0.074541,0.001150,0.008259,-0.011546,0.424379,0.566627,-0.531806,-0.464778,102.026262,4.320615,-89.866299
41660,NaN,-0.756568,9.620164,-2.047240,-0.002255,0.012671,0.051945,0.000761,0.006875,-0.017073,0.424338,0.566675,-0.531772,-0.464796,102.028513,4.328438,-89.864017
41661,NaN,-0.737286,9.585310,-2.059487,0.016703,-0.005585,0.019043,-0.000288,0.011098,-0.019795,0.424306,0.566738,-0.531718,-0.464811,102.030220,4.337419,-89.858965
41662,NaN,-0.745492,9.610298,-2.093052,0.043888,-0.001628,0.051010,0.001589,0.013290,-0.028535,0.424254,0.566833,-0.531639,-0.464832,102.033323,4.350898,-89.851704
41663,NaN,-0.749391,9.589643,-2.036995,-0.007042,0.001953,0.019511,-0.001152,0.018058,-0.033816,0.424214,0.566955,-0.531520,-0.464856,102.035004,4.367193,-89.839659
41664,NaN,-0.744916,9.584619,-2.059956,0.016017,-0.005187,0.019045,0.002163,0.017409,-0.034305,0.424157,0.567076,-0.531419,-0.464876,102.038670,4.383413,-89.829391
41665,NaN,-0.727315,9.549616,-2.072381,0.034927,-0.023482,-0.013854,0.000519,0.024186,-0.043995,0.424103,0.567241,-0.531265,-0.464899,102.041902,4.404570,-89.813133
41666,NaN,-0.714590,9.595045,-2.076924,0.029330,-0.043251,0.030402,0.002392,0.027666,-0.045041,0.424048,0.567415,-0.531111,-0.464913,102.046250,4.425578,-89.795810
41667,NaN,-0.806553,9.602381,-2.055148,0.005665,0.044658,0.040122,-0.001523,0.032157,-0.043828,0.424019,0.567586,-0.530943,-0.464923,102.048263,4.445314,-89.776319
41668,NaN,-0.809077,9.629720,-2.034599,-0.020541,0.042159,0.062712,-0.001667,0.035644,-0.039660,0.424010,0.567755,-0.530778,-0.464913,102.050594,4.462352,-89.755154
41669,NaN,-0.833257,9.664086,-2.022550,-0.039945,0.060681,0.095607,-0.001815,0.022322,-0.038691,0.423968,0.567894,-0.530641,-0.464939,102.052297,4.480678,-89.741149
41670,NaN,-0.859545,9.615536,-2.072434,0.018587,0.087206,0.060731,-0.001861,0.016088,-0.031559,0.423925,0.567996,-0.530540,-0.464968,102.053594,4.495515,-89.731946
41671,NaN,-0.824149,9.654170,-2.067825,0.006176,0.046360,0.094680,-0.006023,0.016994,-0.032350,0.423896,0.568095,-0.530424,-0.465007,102.052534,4.510834,-89.721956
41672,NaN,-0.820539,9.628932,-2.033742,-0.021471,0.042729,0.062708,-0.010440,0.015617,-0.027453,0.423886,0.568166,-0.530316,-0.465052,102.048860,4.523427,-89.713511
41673,NaN,-0.821824,9.649270,-2.089348,0.028989,0.039336,0.094219,-0.003236,0.002952,-0.029707,0.423816,0.568231,-0.530245,-0.465118,102.048847,4.538960,-89.711953
41674,NaN,-0.789163,9.612310,-2.069522,0.017816,0.007336,0.051481,-0.010897,0.015966,-0.030894,0.423800,0.568311,-0.530125,-0.465170,102.044964,4.553440,-89.702900
41675,NaN,-0.813054,9.646813,-2.056800,-0.001507,0.025869,0.084373,-0.004188,0.012939,-0.033948,0.423756,0.568412,-0.530010,-0.465218,102.044397,4.570213,-89.694051
41676,NaN,-0.853067,9.635471,-2.039931,-0.015517,0.064357,0.073008,-0.010233,0.011656,-0.026008,0.423739,0.568471,-0.529915,-0.465270,102.040659,4.582471,-89.688007
41677,NaN,-0.803734,9.644441,-2.024092,-0.032026,0.012454,0.074526,-0.007760,0.011287,-0.027773,0.423711,0.568538,-0.529820,-0.465321,102.038039,4.595719,-89.681928
41678,NaN,-0.873886,9.589564,-2.034135,-0.010535,0.084594,0.028748,-0.011964,0.005967,-0.021439,0.423694,0.568568,-0.529746,-0.465384,102.033011,4.606097,-89.679631
41679,NaN,-0.837609,9.628493,-2.028855,-0.023002,0.043710,0.062700,-0.007247,0.010483,-0.018724,0.423684,0.568620,-0.529674,-0.465413,102.031024,4.614848,-89.673927
41680,NaN,-0.890540,9.619543,-2.042988,-0.006892,0.095936,0.061178,-0.013923,0.005528,-0.010625,0.423696,0.568616,-0.529627,-0.465459,102.024750,4.619219,-89.673173
41681,NaN,-0.882730,9.670326,-2.022865,-0.035782,0.083475,0.105889,-0.016015,-0.017048,-0.007103,0.423666,0.568550,-0.529628,-0.465567,102.016114,4.624493,-89.684735
41682,NaN,-0.919685,9.679982,-2.060207,0.000922,0.118422,0.126039,-0.030521,-0.052867,0.004126,0.423606,0.568336,-0.529708,-0.465792,101.997540,4.627558,-89.718580
41683,NaN,-1.016550,9.658115,-2.108504,0.056659,0.215370,0.122540,-0.046676,-0.120497,0.014073,0.423433,0.567903,-0.529923,-0.466232,101.966679,4.633147,-89.792024
41684,NaN,-0.956988,9.514545,-2.026682,0.012530,0.167346,-0.039169,-0.045594,-0.218755,0.030390,0.423036,0.567200,-0.530393,-0.466912,101.931667,4.641135,-89.922291
41685,NaN,-0.757053,9.597044,-2.052498,0.025040,-0.040545,0.030425,-0.002869,-0.204180,0.022271,0.422540,0.566644,-0.530905,-0.467455,101.921519,4.652017,-90.043009
41686,NaN,-0.777639,9.680390,-2.072212,0.030352,-0.028136,0.117419,-0.040078,-0.143795,0.024828,0.422313,0.566142,-0.531212,-0.467919,101.893104,4.654167,-90.130462
41687,NaN,-0.788182,9.589625,-1.974365,-0.042504,-0.008338,0.009653,-0.027399,-0.101292,0.030555,0.422183,0.565757,-0.531465,-0.468214,101.873448,4.648374,-90.193162
41688,NaN,-0.749372,9.629183,-1.967048,-0.054975,-0.049130,0.043608,-0.022490,-0.086501,0.022533,0.422052,0.565432,-0.531686,-0.468474,101.857753,4.644997,-90.248112
41689,NaN,-0.784940,9.639174,-2.003744,-0.018270,-0.014280,0.063762,-0.024636,-0.067466,0.027448,0.421995,0.565144,-0.531865,-0.468670,101.841683,4.637108,-90.291113
41690,NaN,-0.783397,9.639849,-2.001096,-0.018502,-0.014116,0.063762,-0.021432,-0.041497,0.027202,0.421992,0.564914,-0.532006,-0.468790,101.828610,4.625796,-90.321290
41691,NaN,-0.811181,9.624627,-2.004914,-0.009143,0.017011,0.051935,-0.023568,-0.022440,0.032116,0.422061,0.564715,-0.532110,-0.468850,101.814846,4.609706,-90.340454
41692,NaN,-0.824768,9.579543,-1.998254,-0.003953,0.037073,0.007675,-0.024267,-0.024384,0.034365,0.422129,0.564500,-0.532228,-0.468914,101.800869,4.592356,-90.361838
41693,NaN,-0.784715,9.591527,-2.012480,0.009631,-0.001144,0.019054,-0.021867,-0.023003,0.034670,0.422200,0.564297,-0.532342,-0.468965,101.787883,4.574890,-90.381244
41694,NaN,-0.816804,9.629315,-2.028737,0.020360,0.031174,0.061788,-0.026026,-0.011506,0.044246,0.422329,0.564082,-0.532457,-0.468976,101.773398,4.550481,-90.396533
41695,NaN,-0.849941,9.618973,-2.009594,0.006454,0.069641,0.050406,-0.024752,-0.004140,0.043926,0.422478,0.563891,-0.532553,-0.468963,101.759661,4.525596,-90.406862
41696,NaN,-0.852605,9.624514,-1.984296,-0.017052,0.077147,0.050852,-0.026062,0.007085,0.049558,0.422670,0.563705,-0.532644,-0.468911,101.745943,4.496030,-90.412299
41697,NaN,-0.810085,9.643415,-1.921831,-0.080213,0.039927,0.053269,-0.020727,0.007730,0.051524,0.422852,0.563527,-0.532751,-0.468839,101.735197,4.465423,-90.417693
41698,NaN,-0.783189,9.637109,-1.911705,-0.087282,0.019044,0.042965,-0.018054,0.003394,0.051180,0.423015,0.563345,-0.532873,-0.468772,101.725898,4.435376,-90.425384
41699,NaN,-0.770487,9.653901,-1.989119,-0.013510,0.008180,0.074061,-0.014301,0.001096,0.046423,0.423158,0.563190,-0.532980,-0.468707,101.718427,4.408811,-90.431558
41700,NaN,-0.767233,9.626934,-2.008905,0.012253,0.010943,0.051487,-0.007502,0.003873,0.041809,0.423271,0.563056,-0.533100,-0.468631,101.715286,4.383963,-90.437878
41701,NaN,-0.761566,9.675678,-2.043324,0.036721,0.004841,0.105605,-0.011322,0.012906,0.033842,0.423403,0.562964,-0.533159,-0.468553,101.710306,4.362974,-90.436786
41702,NaN,-0.759893,9.627841,-2.007346,0.011807,0.011194,0.051487,-0.006608,0.025443,0.031504,0.423547,0.562911,-0.533206,-0.468435,101.708695,4.341399,-90.429764
41703,NaN,-0.748376,9.657772,-1.932259,-0.067788,0.002409,0.064643,-0.001504,0.019479,0.021680,0.423636,0.562878,-0.533249,-0.468343,101.709646,4.326083,-90.425204
41704,NaN,-0.760867,9.660400,-1.963651,-0.037900,0.016274,0.074500,0.002954,0.019130,0.014675,0.423697,0.562875,-0.533284,-0.468253,101.713389,4.314684,-90.419772
41705,NaN,-0.722027,9.671539,-1.980628,-0.024411,-0.021966,0.085889,0.001752,0.025589,0.008445,0.423764,0.562905,-0.533280,-0.468161,101.716669,4.306363,-90.409318
41706,NaN,-0.759519,9.632874,-1.985447,-0.012351,0.019135,0.051927,0.006272,0.023495,-0.000646,0.423791,0.562960,-0.533270,-0.468082,101.722631,4.303050,-90.399643
41707,NaN,-0.751078,9.655607,-1.988257,-0.015318,0.009299,0.074057,0.006392,0.020003,-0.004819,0.423799,0.563021,-0.533253,-0.468021,101.728599,4.302818,-90.390899
41708,NaN,-0.765870,9.657957,-2.020114,0.014572,0.023154,0.083918,0.004370,0.018716,-0.007291,0.423802,0.563079,-0.533230,-0.467974,101.733327,4.303788,-90.383137
41709,NaN,-0.796628,9.642073,-2.026844,0.023874,0.054257,0.072087,0.002353,0.008134,-0.012423,0.423770,0.563124,-0.533209,-0.467973,101.736743,4.309159,-90.380476
41710,NaN,-0.834042,9.651666,-2.066179,0.060620,0.089153,0.092249,-0.006119,-0.011409,-0.007990,0.423721,0.563090,-0.533224,-0.468041,101.734195,4.314031,-90.389580
41711,NaN,-0.784572,9.632826,-2.071493,0.069993,0.039789,0.071213,-0.008574,-0.029640,-0.011530,0.423626,0.563024,-0.533253,-0.468174,101.729291,4.323396,-90.407471
41712,NaN,-0.889782,9.650213,-2.000348,-0.000038,0.142490,0.081725,-0.035672,-0.092032,-0.018250,0.423421,0.562766,-0.533341,-0.468569,101.706469,4.343403,-90.460740
41713,NaN,-0.957303,9.543351,-1.994356,0.020261,0.213356,-0.018633,-0.024238,-0.176296,-0.017987,0.422961,0.562337,-0.533630,-0.469170,101.686506,4.373284,-90.560962
41714,NaN,-0.790888,9.615298,-1.950924,-0.034757,0.037540,0.030226,-0.023794,-0.229634,-0.020684,0.422350,0.561787,-0.534028,-0.469925,101.664526,4.410573,-90.691403
41715,NaN,-0.702761,9.575737,-2.014297,0.037585,-0.054994,-0.002409,-0.017450,-0.197422,-0.013033,0.421831,0.561315,-0.534382,-0.470553,101.647105,4.440285,-90.802731
41716,NaN,-0.712701,9.628996,-2.023357,0.038738,-0.053661,0.052154,-0.026082,-0.129035,-0.012728,0.421512,0.560975,-0.534584,-0.471014,101.628000,4.461395,-90.877504
41717,NaN,-0.738187,9.615705,-1.972353,-0.005252,-0.028893,0.030890,-0.022110,-0.082431,-0.009885,0.421320,0.560753,-0.534694,-0.471326,101.612872,4.475946,-90.924802
41718,NaN,-0.812972,9.642007,-1.971384,-0.008177,0.041785,0.062219,-0.015848,-0.065176,-0.003436,0.421165,0.560560,-0.534811,-0.471560,101.602316,4.484441,-90.964714
41719,NaN,-0.785492,9.630609,-1.984081,0.008062,0.013454,0.051488,-0.019259,-0.045420,-0.003200,0.421080,0.560414,-0.534868,-0.471746,101.590324,4.490973,-90.991719
41720,NaN,-0.815045,9.642661,-1.967328,-0.008577,0.042041,0.062217,-0.015232,-0.016128,0.002006,0.421067,0.560324,-0.534898,-0.471830,101.582226,4.490754,-91.004647
41721,NaN,-0.807046,9.644988,-1.911928,-0.062172,0.035809,0.052780,-0.012234,-0.009287,0.004224,0.421078,0.560262,-0.534913,-0.471877,101.575915,4.489105,-91.011512
41722,NaN,-0.792587,9.636105,-1.956638,-0.015861,0.021227,0.051918,-0.011369,-0.000238,0.008155,0.421112,0.560200,-0.534936,-0.471894,101.570676,4.483605,-91.016202
41723,NaN,-0.761771,9.652108,-1.949692,-0.025690,-0.009706,0.063751,-0.008484,0.007082,0.004767,0.421157,0.560186,-0.534926,-0.471882,101.567403,4.479863,-91.013678
41724,NaN,-0.792382,9.609112,-1.975748,0.009695,0.024000,0.029356,-0.011094,0.018996,0.005703,0.421235,0.560177,-0.534903,-0.471849,101.563189,4.473531,-91.007255
41725,NaN,-0.776341,9.627623,-2.000154,0.030079,0.006744,0.051059,-0.004685,0.021699,0.003225,0.421309,0.560208,-0.534863,-0.471791,101.562263,4.468906,-90.996062
41726,NaN,-0.782450,9.632383,-1.976654,0.006581,0.014290,0.051488,-0.011462,0.034525,0.003415,0.421425,0.560241,-0.534800,-0.471721,101.558538,4.462076,-90.980631
41727,NaN,-0.767412,9.623489,-2.021742,0.052924,-0.000428,0.050633,-0.010820,0.038219,0.003255,0.421558,0.560300,-0.534712,-0.471632,101.555114,4.455628,-90.960128
41728,NaN,-0.795419,9.614546,-1.950188,-0.014363,0.031816,0.029782,-0.011238,0.055489,0.003059,0.421728,0.560384,-0.534604,-0.471503,101.552433,4.446593,-90.932852
41729,NaN,-0.772230,9.607651,-1.941362,-0.021389,0.010834,0.019484,-0.012416,0.053908,0.001871,0.421905,0.560478,-0.534476,-0.471378,101.548597,4.439012,-90.903576
41730,NaN,-0.828343,9.652225,-1.967136,-0.003765,0.064201,0.072508,-0.010809,0.063138,0.001477,0.422090,0.560584,-0.534348,-0.471229,101.546501,4.429992,-90.871811
41731,NaN,-0.790302,9.642683,-1.927526,-0.040928,0.029593,0.052338,-0.007820,0.060640,0.001041,0.422268,0.560701,-0.534219,-0.471078,101.545606,4.421917,-90.839542
41732,NaN,-0.744902,9.649467,-1.966916,-0.004243,-0.015986,0.063323,-0.007879,0.053059,0.000465,0.422416,0.560793,-0.534117,-0.470951,101.544751,4.414622,-90.813334
41733,NaN,-0.779829,9.665936,-1.928659,-0.044059,0.019981,0.074468,-0.013165,0.059961,-0.000900,0.422598,0.560895,-0.533979,-0.470823,101.540714,4.407407,-90.782466
41734,NaN,-0.780101,9.638691,-1.948902,-0.018273,0.022694,0.051910,-0.010331,0.059693,-0.004852,0.422758,0.561011,-0.533842,-0.470696,101.538781,4.402339,-90.751912
41735,NaN,-0.779314,9.638875,-1.948304,-0.018460,0.022794,0.051910,-0.010135,0.040101,0.001021,0.422885,0.561074,-0.533752,-0.470608,101.535803,4.396604,-90.731389
41736,NaN,-0.807103,9.671724,-1.988848,0.015565,0.047726,0.094212,-0.012528,0.045005,-0.006391,0.423009,0.561155,-0.533637,-0.470531,101.531987,4.394085,-90.708928
41737,NaN,-0.820847,9.681019,-1.942250,-0.031106,0.062597,0.095055,-0.011201,0.044337,-0.001676,0.423148,0.561236,-0.533524,-0.470439,101.528339,4.389455,-90.685079
41738,NaN,-0.828353,9.658367,-1.939365,-0.028580,0.072695,0.072921,-0.013620,0.027339,0.002461,0.423248,0.561249,-0.533468,-0.470396,101.523055,4.383993,-90.673581
41739,NaN,-0.784259,9.637897,-1.998695,0.034104,0.029523,0.061362,-0.014641,0.023543,0.004782,0.423352,0.561258,-0.533411,-0.470357,101.517001,4.378331,-90.662322
41740,NaN,-0.783858,9.617306,-1.941242,-0.016771,0.033365,0.029773,-0.019774,0.028217,0.006930,0.423482,0.561249,-0.533352,-0.470318,101.508187,4.370262,-90.650840
41741,NaN,-0.774372,9.640587,-1.941794,-0.019782,0.023499,0.051906,-0.013847,0.025000,0.008148,0.423593,0.561252,-0.533306,-0.470266,101.502746,4.362492,-90.639626
41742,NaN,-0.765874,9.636439,-1.963335,0.003249,0.016268,0.051486,-0.018393,0.025806,0.009555,0.423719,0.561233,-0.533262,-0.470225,101.494594,4.353228,-90.629801
41743,NaN,-0.793410,9.648574,-1.947073,-0.013313,0.044774,0.062200,-0.019511,0.031793,0.008947,0.423872,0.561239,-0.533185,-0.470167,101.485734,4.344205,-90.614089
41744,NaN,-0.762082,9.664692,-1.939330,-0.023182,0.013973,0.074036,-0.015438,0.031362,0.004104,0.423991,0.561254,-0.533121,-0.470114,101.479556,4.337371,-90.600509
41745,NaN,-0.746703,9.656002,-1.983786,0.023130,-0.000758,0.073202,-0.016991,0.029689,0.005073,0.424119,0.561270,-0.533047,-0.470064,101.472271,4.330746,-90.586037
41746,NaN,-0.782841,9.645167,-1.965847,0.009278,0.037777,0.061781,-0.017351,0.045174,0.002818,0.424278,0.561316,-0.532946,-0.469980,101.465592,4.323064,-90.564530
41747,NaN,-0.786619,9.704806,-1.900003,-0.066259,0.040246,0.107294,-0.010369,0.037708,0.006737,0.424408,0.561354,-0.532883,-0.469889,101.462536,4.314359,-90.546975
41748,NaN,-0.794537,9.654785,-1.918218,-0.037701,0.052863,0.062610,-0.012360,0.028380,0.009278,0.424523,0.561354,-0.532847,-0.469825,101.457944,4.304965,-90.535662
41749,NaN,-0.785893,9.650582,-1.940162,-0.014635,0.045552,0.062195,-0.011037,0.018422,0.011308,0.424618,0.561337,-0.532830,-0.469779,101.453448,4.295986,-90.528665
41750,NaN,-0.734658,9.604618,-1.966491,0.020653,-0.001250,0.018643,-0.012476,0.022563,0.010778,0.424722,0.561319,-0.532811,-0.469729,101.448528,4.286414,-90.520798
41751,NaN,-0.782952,9.651238,-1.938085,-0.015008,0.045816,0.062193,-0.014236,0.024859,0.010322,0.424845,0.561314,-0.532766,-0.469674,101.442172,4.277241,-90.509435
41752,NaN,-0.738316,9.630850,-1.997374,0.047652,0.002715,0.050660,-0.011446,0.017061,0.005777,0.424920,0.561299,-0.532746,-0.469647,101.437651,4.271103,-90.504094
41753,NaN,-0.759965,9.617270,-1.948606,0.003724,0.027613,0.029351,-0.014499,0.021272,0.008305,0.425022,0.561281,-0.532715,-0.469612,101.431228,4.263132,-90.496476
41754,NaN,-0.772177,9.647732,-1.957462,0.007609,0.038895,0.061778,-0.016642,0.023463,0.010016,0.425137,0.561259,-0.532682,-0.469571,101.423961,4.253888,-90.488012
41755,NaN,-0.756166,9.645393,-1.925029,-0.022730,0.025342,0.051895,-0.012801,0.020706,0.010856,0.425245,0.561247,-0.532651,-0.469522,101.418533,4.245026,-90.478989
41756,NaN,-0.754807,9.645762,-1.923713,-0.022962,0.025510,0.051894,-0.017814,0.021895,0.008816,0.425357,0.561222,-0.532615,-0.469492,101.410536,4.236636,-90.471269
41757,NaN,-0.746066,9.641613,-1.945479,0.000045,0.018146,0.051484,-0.008699,0.021525,0.013718,0.425458,0.561214,-0.532603,-0.469424,101.407796,4.226210,-90.462437
41758,NaN,-0.773580,9.653579,-1.930173,-0.016555,0.046768,0.062186,-0.010013,0.022191,0.009003,0.425550,0.561205,-0.532584,-0.469372,101.404277,4.217683,-90.454570
41759,NaN,-0.720653,9.662220,-1.914929,-0.033320,-0.005137,0.063732,-0.003728,0.027122,0.003055,0.425628,0.561246,-0.532544,-0.469299,101.404461,4.212375,-90.441723
41760,NaN,-0.727240,9.666788,-1.891889,-0.056811,0.002451,0.064138,-0.003870,0.029349,-0.000457,0.425699,0.561292,-0.532498,-0.469230,101.404835,4.208351,-90.428750
41761,NaN,-0.705215,9.653368,-1.960425,0.012771,-0.019713,0.062916,-0.002190,0.027542,-0.005606,0.425754,0.561360,-0.532435,-0.469171,101.405842,4.207836,-90.414666
41762,NaN,-0.742688,9.642148,-1.944117,-0.001047,0.018832,0.051482,-0.000249,0.029312,-0.008734,0.425795,0.561436,-0.532375,-0.469111,101.408358,4.208464,-90.400773
41763,NaN,-0.742960,9.642119,-1.944158,-0.001253,0.018960,0.051482,-0.003767,0.033902,-0.009647,0.425859,0.561520,-0.532290,-0.469049,101.408891,4.209302,-90.383692
41764,NaN,-0.737186,9.610233,-1.988003,0.047803,0.014196,0.028537,-0.001882,0.028131,-0.013376,0.425891,0.561603,-0.532215,-0.469006,101.410461,4.212670,-90.369937
41765,NaN,-0.736919,9.637602,-1.966731,0.021529,0.011847,0.051077,-0.007602,0.027370,-0.013183,0.425935,0.561669,-0.532131,-0.468982,101.408750,4.216129,-90.357034
41766,NaN,-0.737579,9.637606,-1.966464,0.021295,0.012012,0.051077,-0.002473,0.031981,-0.012626,0.425980,0.561757,-0.532049,-0.468928,101.410136,4.218640,-90.341196
41767,NaN,-0.738106,9.637615,-1.966223,0.021010,0.012109,0.051078,-0.007345,0.030939,-0.011160,0.426039,0.561833,-0.531959,-0.468886,101.408971,4.220839,-90.325704
41768,NaN,-0.738912,9.637689,-1.965554,0.020776,0.012273,0.051078,-0.010789,0.024518,-0.016865,0.426078,0.561897,-0.531862,-0.468884,101.405321,4.226577,-90.313587
41769,NaN,-0.748224,9.614865,-1.962974,0.023341,0.022325,0.028943,-0.008976,0.029756,-0.015802,0.426128,0.561975,-0.531759,-0.468862,101.402845,4.231293,-90.298566
41770,NaN,-0.763516,9.617682,-1.993456,0.053262,0.036091,0.038835,-0.011446,0.030100,-0.014023,0.426191,0.562044,-0.531655,-0.468840,101.399029,4.234804,-90.283628
41771,NaN,-0.740734,9.665324,-1.942143,-0.005866,0.010256,0.073614,-0.011059,0.030201,-0.016186,0.426251,0.562119,-0.531543,-0.468823,101.394941,4.239529,-90.268028
41772,NaN,-0.764343,9.645260,-1.970696,0.026845,0.033935,0.061371,-0.011973,0.032210,-0.015367,0.426318,0.562194,-0.531430,-0.468799,101.390924,4.243558,-90.251749
41773,NaN,-0.742393,9.665599,-1.940143,-0.006316,0.010556,0.073614,-0.016000,0.030885,-0.012629,0.426399,0.562252,-0.531316,-0.468785,101.384414,4.246391,-90.236283
41774,NaN,-0.751582,9.642860,-1.937158,-0.003759,0.020636,0.051478,-0.013073,0.028907,-0.018664,0.426452,0.562327,-0.531199,-0.468781,101.379658,4.252649,-90.221492
41775,NaN,-0.738215,9.640259,-1.904816,-0.034114,0.007139,0.041584,-0.013852,0.028689,-0.014333,0.426521,0.562394,-0.531083,-0.468768,101.374203,4.256902,-90.206002
41776,NaN,-0.783839,9.627399,-1.941578,0.005513,0.051844,0.039633,-0.013851,0.027444,-0.022032,0.426565,0.562472,-0.530957,-0.468778,101.368972,4.265219,-90.191654
41777,NaN,-0.768685,9.673355,-1.943934,-0.000225,0.032150,0.083904,-0.015867,0.027398,-0.016814,0.426632,0.562536,-0.530833,-0.468780,101.362042,4.270818,-90.176830
41778,NaN,-0.777934,9.650597,-1.940991,0.002339,0.042228,0.061767,-0.012620,0.028503,-0.015217,0.426690,0.562601,-0.530727,-0.468769,101.357506,4.275190,-90.162658
41779,NaN,-0.748863,9.666493,-1.933189,-0.007547,0.011443,0.073612,-0.015137,0.021315,-0.014052,0.426742,0.562640,-0.530632,-0.468783,101.350889,4.279759,-90.152495
41780,NaN,-0.779791,9.650933,-1.938573,0.001930,0.042553,0.061766,-0.014817,0.023151,-0.014120,0.426795,0.562685,-0.530535,-0.468790,101.344861,4.284122,-90.141463
41781,NaN,-0.758680,9.644002,-1.928683,-0.005168,0.021616,0.051475,-0.018711,0.019600,-0.007879,0.426870,0.562705,-0.530444,-0.468801,101.336117,4.285788,-90.131574
41782,NaN,-0.767487,9.621359,-1.925330,-0.002600,0.031691,0.029339,-0.017610,0.021649,-0.012274,0.426932,0.562735,-0.530349,-0.468816,101.328411,4.289286,-90.121597
41783,NaN,-0.774187,9.647312,-1.956756,0.024513,0.035472,0.061371,-0.019032,0.017755,-0.007809,0.426998,0.562746,-0.530268,-0.468834,101.319768,4.291044,-90.113752
41784,NaN,-0.789486,9.656449,-1.909262,-0.022210,0.050541,0.062156,-0.021640,0.020318,-0.009542,0.427073,0.562757,-0.530174,-0.468858,101.309674,4.293160,-90.104834
41785,NaN,-0.790604,9.629460,-1.928568,0.003545,0.053089,0.039627,-0.018579,0.017363,-0.004367,0.427142,0.562759,-0.530107,-0.468869,101.301531,4.293135,-90.097825
41786,NaN,-0.782535,9.652751,-1.928385,0.000508,0.043347,0.061763,-0.023702,0.012743,-0.004943,0.427214,0.562737,-0.530037,-0.468909,101.289899,4.293520,-90.093693
41787,NaN,-0.746499,9.643219,-1.886518,-0.036759,0.008837,0.041574,-0.022610,0.016031,-0.001636,0.427305,0.562722,-0.529962,-0.468928,101.278723,4.292090,-90.086600
41788,NaN,-0.774933,9.649194,-1.947160,0.023335,0.036150,0.061372,-0.020003,0.013463,0.000097,0.427381,0.562696,-0.529914,-0.468946,101.269197,4.289564,-90.082628
41789,NaN,-0.767753,9.651185,-1.891119,-0.030367,0.030131,0.051861,-0.021560,0.011793,0.001052,0.427456,0.562664,-0.529867,-0.468969,101.259058,4.287110,-90.079419
41790,NaN,-0.797566,9.635884,-1.895653,-0.020868,0.061235,0.040012,-0.025970,0.009119,-0.001757,0.427532,0.562619,-0.529809,-0.469019,101.245946,4.286114,-90.077686
41791,NaN,-0.780636,9.682214,-1.896794,-0.026764,0.041530,0.084284,-0.022738,0.011461,0.007544,0.427625,0.562565,-0.529778,-0.469033,101.234955,4.279989,-90.075490
41792,NaN,-0.809799,9.666932,-1.901545,-0.017260,0.072633,0.072435,-0.020789,0.013236,0.004428,0.427712,0.562525,-0.529741,-0.469044,101.224933,4.275057,-90.072128
41793,NaN,-0.763804,9.707580,-1.840405,-0.083427,0.025793,0.096902,-0.021050,0.010898,0.010098,0.427811,0.562470,-0.529715,-0.469048,101.214468,4.267606,-90.069461
41794,NaN,-0.742439,9.646300,-1.872315,-0.038476,0.009812,0.041566,-0.020730,0.012734,0.010033,0.427910,0.562414,-0.529695,-0.469048,101.204411,4.259582,-90.067007
41795,NaN,-0.725783,9.665278,-1.895125,-0.018230,-0.007436,0.063317,-0.016626,0.012335,0.005210,0.427990,0.562383,-0.529664,-0.469048,101.196410,4.254578,-90.063182
41796,NaN,-0.740724,9.647028,-1.869241,-0.038890,0.010104,0.041564,-0.014109,0.019516,0.004063,0.428074,0.562373,-0.529628,-0.469024,101.190479,4.249156,-90.056237
41797,NaN,-0.725155,9.638606,-1.913796,0.007454,-0.004707,0.040795,-0.011955,0.017339,0.002355,0.428150,0.562372,-0.529586,-0.469003,101.185130,4.245167,-90.048914
41798,NaN,-0.762606,9.627409,-1.896820,-0.006273,0.033861,0.029330,-0.009505,0.008254,-0.007748,0.428163,0.562376,-0.529552,-0.469025,101.181464,4.247636,-90.047000
41799,NaN,-0.739975,9.641827,-1.943067,0.037172,0.009139,0.050701,-0.014381,0.007201,-0.006300,0.428193,0.562367,-0.529508,-0.469058,101.174836,4.249652,-90.045326
41800,NaN,-0.704198,9.631995,-1.902084,-0.000165,-0.025277,0.030508,-0.012333,0.015998,-0.003182,0.428246,0.562371,-0.529463,-0.469055,101.169836,4.248695,-90.039555
41801,NaN,-0.792641,9.639485,-1.879343,-0.023290,0.062748,0.039997,-0.007456,0.017050,-0.004629,0.428284,0.562398,-0.529419,-0.469038,101.167874,4.248871,-90.032391
41802,NaN,-0.755352,9.651017,-1.894599,-0.010040,0.024512,0.051465,-0.010292,0.008029,-0.003421,0.428309,0.562388,-0.529396,-0.469053,101.163711,4.248934,-90.031085
41803,NaN,-0.755604,9.651168,-1.893731,-0.010310,0.024660,0.051464,-0.009259,0.011815,-0.005712,0.428332,0.562394,-0.529363,-0.469061,101.160530,4.249983,-90.028062
41804,NaN,-0.747657,9.674231,-1.894563,-0.013369,0.014928,0.073601,-0.010063,0.019611,-0.006358,0.428381,0.562421,-0.529307,-0.469049,101.157007,4.250413,-90.019902
41805,NaN,-0.784348,9.690184,-1.856812,-0.053192,0.050981,0.084645,-0.004607,0.018045,-0.000860,0.428423,0.562449,-0.529275,-0.469012,101.156802,4.248524,-90.012026
41806,NaN,-0.814757,9.647324,-1.884360,-0.017596,0.084492,0.050277,-0.008042,0.012868,0.001104,0.428466,0.562444,-0.529259,-0.468997,101.154094,4.245508,-90.008496
41807,NaN,-0.777014,9.658893,-1.899654,-0.004325,0.046213,0.061749,-0.007558,0.003234,0.001813,0.428485,0.562418,-0.529262,-0.469007,101.151058,4.243391,-90.009878
41808,NaN,-0.747309,9.647563,-1.913244,0.011738,0.017870,0.051084,-0.009151,0.010806,0.005494,0.428536,0.562394,-0.529261,-0.468991,101.147592,4.238135,-90.007998
41809,NaN,-0.753439,9.679330,-1.868409,-0.037801,0.023028,0.073974,-0.009076,0.009080,0.003395,0.428579,0.562380,-0.529248,-0.468983,101.144137,4.234738,-90.005573
41810,NaN,-0.754351,9.625053,-1.909988,0.014096,0.028015,0.028946,-0.009675,0.012921,0.004155,0.428634,0.562363,-0.529237,-0.468966,101.140470,4.230002,-90.002351
41811,NaN,-0.739461,9.622361,-1.877927,-0.016341,0.014580,0.019035,-0.007594,0.012473,0.004546,0.428682,0.562354,-0.529229,-0.468943,101.138130,4.225475,-89.998912
41812,NaN,-0.758935,9.684188,-1.843556,-0.061766,0.030962,0.074345,-0.004030,0.015420,0.006088,0.428731,0.562350,-0.529231,-0.468899,101.137785,4.219375,-89.994496
41813,NaN,-0.737678,9.622684,-1.876971,-0.016773,0.014852,0.019033,-0.008181,0.008294,0.010275,0.428788,0.562316,-0.529242,-0.468876,101.134517,4.212075,-89.993303
41814,NaN,-0.712943,9.664370,-1.902565,0.000554,-0.012262,0.062937,-0.002756,0.006012,0.002469,0.428801,0.562302,-0.529256,-0.468864,101.134541,4.209052,-89.993787
41815,NaN,-0.742465,9.648802,-1.908878,0.010053,0.018751,0.051085,-0.010518,0.013197,0.002878,0.428854,0.562293,-0.529236,-0.468850,101.130691,4.205419,-89.989854
41816,NaN,-0.749459,9.653295,-1.885313,-0.013414,0.026413,0.051456,-0.006878,0.014419,0.002321,0.428900,0.562290,-0.529223,-0.468826,101.128702,4.201549,-89.985583
41817,NaN,-0.741377,9.649169,-1.907444,0.009617,0.019025,0.051085,-0.009675,0.012916,0.004156,0.428958,0.562279,-0.529204,-0.468807,101.124831,4.197159,-89.981263
41818,NaN,-0.763148,9.629390,-1.936252,0.042404,0.042608,0.038861,-0.011234,0.011245,0.005104,0.429015,0.562253,-0.529195,-0.468797,101.120191,4.192076,-89.979088
41819,NaN,-0.732388,9.645384,-1.928232,0.032416,0.011838,0.050715,-0.013711,0.011578,0.006875,0.429084,0.562218,-0.529183,-0.468790,101.113913,4.186075,-89.976762
41820,NaN,-0.775623,9.665881,-1.866745,-0.030558,0.055529,0.062107,-0.019307,0.008571,0.010542,0.429169,0.562153,-0.529176,-0.468797,101.104494,4.178230,-89.976696
41821,NaN,-0.804213,9.650609,-1.872029,-0.020997,0.086584,0.050252,-0.015137,-0.000344,0.016292,0.429231,0.562062,-0.529214,-0.468806,101.097066,4.168298,-89.982415
41822,NaN,-0.751013,9.659509,-1.854993,-0.037980,0.034819,0.051819,-0.017859,-0.003572,0.016024,0.429293,0.561958,-0.529252,-0.468832,101.087935,4.158710,-89.989798
41823,NaN,-0.755437,9.685833,-1.886133,-0.010876,0.038586,0.083875,-0.018979,0.002382,0.015448,0.429371,0.561867,-0.529273,-0.468846,101.078406,4.148949,-89.993829
41824,NaN,-0.755862,9.637550,-1.849792,-0.035600,0.045020,0.029677,-0.019327,0.001756,0.023215,0.429467,0.561753,-0.529316,-0.468845,101.068597,4.134729,-89.998999
41825,NaN,-0.737790,9.656707,-1.872400,-0.015433,0.027717,0.051449,-0.017687,-0.006322,0.025130,0.429546,0.561626,-0.529377,-0.468856,101.059258,4.120751,-90.007605
41826,NaN,-0.735467,9.657220,-1.870668,-0.015668,0.027886,0.051448,-0.017366,-0.004489,0.025070,0.429625,0.561497,-0.529444,-0.468863,101.050308,4.106172,-90.016494
41827,NaN,-0.718909,9.654741,-1.837669,-0.046138,0.014495,0.041527,-0.016724,-0.000819,0.024949,0.429709,0.561379,-0.529504,-0.468859,101.042161,4.091554,-90.023416
41828,NaN,-0.751852,9.692693,-1.854428,-0.035305,0.046818,0.084234,-0.020215,-0.005486,0.021301,0.429784,0.561251,-0.529556,-0.468885,101.031573,4.079201,-90.032448
41829,NaN,-0.699661,9.647177,-1.879800,-0.000101,-0.000237,0.040799,-0.014890,-0.004831,0.023300,0.429855,0.561135,-0.529617,-0.468890,101.023720,4.065910,-90.040403
41830,NaN,-0.718899,9.682082,-1.865363,-0.019456,0.018580,0.073585,-0.018431,-0.008980,0.014047,0.429899,0.561022,-0.529660,-0.468936,101.014075,4.058017,-90.050605
41831,NaN,-0.726094,9.659604,-1.861999,-0.016761,0.028585,0.051445,-0.017713,-0.007028,0.011824,0.429948,0.560927,-0.529684,-0.468978,101.004489,4.051448,-90.058083
41832,NaN,-0.696624,9.621272,-1.895988,0.025345,0.002585,0.018298,-0.015112,-0.009598,0.013553,0.429980,0.560821,-0.529734,-0.469018,100.996727,4.043897,-90.068576
41833,NaN,-0.716440,9.656131,-1.881569,0.006058,0.021334,0.051083,-0.017391,-0.005195,0.011765,0.430033,0.560734,-0.529753,-0.469053,100.987461,4.037285,-90.074601
41834,NaN,-0.686281,9.644982,-1.894197,0.022080,-0.007037,0.040439,-0.018109,0.000880,0.009031,0.430090,0.560658,-0.529761,-0.469082,100.978435,4.031130,-90.078688
41835,NaN,-0.714823,9.656913,-1.878169,0.005553,0.021644,0.051082,-0.016203,-0.004844,0.005275,0.430115,0.560581,-0.529778,-0.469132,100.970496,4.027865,-90.086099
41836,NaN,-0.721812,9.661499,-1.853811,-0.017906,0.029336,0.051440,-0.014716,-0.001455,0.006432,0.430151,0.560514,-0.529792,-0.469163,100.963343,4.023425,-90.091217
41837,NaN,-0.713070,9.684730,-1.853818,-0.020933,0.019529,0.073580,-0.016920,0.001231,0.002543,0.430200,0.560470,-0.529769,-0.469197,100.954644,4.021420,-90.092029
41838,NaN,-0.721068,9.662103,-1.850953,-0.018307,0.029583,0.051439,-0.010678,-0.000115,0.003713,0.430221,0.560422,-0.529782,-0.469220,100.949879,4.018363,-90.096093
41839,NaN,-0.707298,9.632124,-1.839880,-0.022698,0.018540,0.019015,-0.011791,0.005843,0.003145,0.430259,0.560392,-0.529774,-0.469230,100.944994,4.015434,-90.096244
41840,NaN,-0.699002,9.655226,-1.840369,-0.025798,0.008828,0.041155,-0.010528,0.004481,-0.005450,0.430271,0.560379,-0.529752,-0.469260,100.940566,4.017032,-90.096717
41841,NaN,-0.705349,9.681357,-1.872208,0.001240,0.012513,0.073221,-0.010850,0.002644,-0.005390,0.430278,0.560368,-0.529728,-0.469293,100.936187,4.019326,-90.097419
41842,NaN,-0.692509,9.651306,-1.861163,-0.003104,0.001547,0.040799,-0.011567,0.008721,-0.008121,0.430298,0.560370,-0.529687,-0.469319,100.931352,4.021966,-90.095209
41843,NaN,-0.707311,9.654548,-1.891376,0.026884,0.015136,0.050727,-0.013003,0.012841,-0.008629,0.430336,0.560386,-0.529623,-0.469337,100.925676,4.024816,-90.089400
41844,NaN,-0.715510,9.658952,-1.867388,0.003428,0.022838,0.051081,-0.012607,0.012959,-0.010792,0.430363,0.560403,-0.529563,-0.469360,100.920434,4.028499,-90.084510
41845,NaN,-0.732207,9.640462,-1.841700,-0.017246,0.040301,0.029292,-0.016299,0.004222,-0.010888,0.430376,0.560401,-0.529507,-0.469414,100.913240,4.033882,-90.083527
41846,NaN,-0.722628,9.712511,-1.875856,0.004102,0.024313,0.105643,-0.018950,-0.000723,-0.013265,0.430379,0.560379,-0.529454,-0.469498,100.903840,4.040441,-90.086086
41847,NaN,-0.711228,9.655458,-1.885254,0.025800,0.015622,0.050729,-0.021428,-0.000397,-0.011492,0.430392,0.560350,-0.529398,-0.469583,100.893310,4.046350,-90.088510
41848,NaN,-0.727365,9.664147,-1.837770,-0.020873,0.030868,0.051430,-0.015705,0.000380,-0.011656,0.430393,0.560333,-0.529355,-0.469651,100.885800,4.051884,-90.090624
41849,NaN,-0.698597,9.679969,-1.829213,-0.030970,0.000086,0.063288,-0.017068,0.002782,-0.014267,0.430399,0.560330,-0.529292,-0.469720,100.877666,4.058975,-90.090455
41850,NaN,-0.737469,9.668774,-1.811655,-0.044568,0.038692,0.051777,-0.018034,-0.002730,-0.014093,0.430392,0.560307,-0.529243,-0.469809,100.868716,4.066216,-90.094060
41851,NaN,-0.723697,9.660613,-1.855607,0.001645,0.023709,0.051079,-0.017588,-0.003135,-0.010653,0.430395,0.560281,-0.529199,-0.469888,100.859892,4.071964,-90.097178
41852,NaN,-0.724726,9.660888,-1.853771,0.001409,0.023878,0.051079,-0.020266,0.001146,-0.010270,0.430414,0.560252,-0.529147,-0.469963,100.849788,4.076634,-90.099013
41853,NaN,-0.755622,9.645562,-1.858856,0.010993,0.054859,0.039219,-0.019424,0.000861,-0.008993,0.430431,0.560226,-0.529098,-0.470032,100.840394,4.081078,-90.100600
41854,NaN,-0.734666,9.638571,-1.848499,0.003775,0.034015,0.028937,-0.019821,0.000739,-0.006830,0.430456,0.560188,-0.529058,-0.470100,100.830502,4.083856,-90.103037
41855,NaN,-0.735546,9.638870,-1.846589,0.003540,0.034126,0.028937,-0.019670,-0.002695,-0.011041,0.430462,0.560158,-0.529010,-0.470185,100.820591,4.089712,-90.106327
41856,NaN,-0.735707,9.666314,-1.822992,-0.022791,0.031971,0.051422,-0.026066,0.002070,-0.007996,0.430505,0.560113,-0.528949,-0.470268,100.807183,4.093002,-90.107888
41857,NaN,-0.714836,9.659366,-1.812349,-0.030006,0.011068,0.041141,-0.018628,-0.006939,-0.008375,0.430505,0.560068,-0.528918,-0.470356,100.797627,4.097837,-90.113621
41858,NaN,-0.715873,9.659618,-1.810597,-0.030242,0.011240,0.041140,-0.016471,-0.009101,-0.010093,0.430486,0.560023,-0.528898,-0.470449,100.789281,4.103505,-90.121261
