// General information: 
//  MT Manager version: 2019.0.1 
//  XDA version: 2019.0.1 build 2740 rev 84096 built on 2019-01-30
// Device information: 
//  DeviceId: 00B4381A
//  ProductCode: MTW2-3A7G6
//  Firmware Version: 4.3.4
//  Hardware Version: 1.1.0
// Device settings: 
//  Filter Profile: human(46.1)
//  Option Flags: Orientation Smoother Disabled, AHS Disabled, ICC Disabled
// Coordinate system: ENU
PacketCounter,SampleTimeFine,Acc_X,Acc_Y,Acc_Z,FreeAcc_E,FreeAcc_N,FreeAcc_U,Gyr_X,Gyr_Y,Gyr_Z,Quat_q0,Quat_q1,Quat_q2,Quat_q3,Roll,Pitch,Yaw
41132,NaN,-8.115552,0.394014,5.550169,-0.340012,0.065264,0.021026,0.086042,0.082380,0.046048,0.597216,0.371617,0.282358,-0.652309,7.620182,55.293124,-91.053303
41133,NaN,-8.235680,0.875898,5.602058,0.119148,0.024747,0.185405,0.134536,0.051279,0.065307,0.597060,0.372277,0.281940,-0.652257,7.751247,55.316762,-90.992762
41134,NaN,-8.457654,1.251279,5.792443,0.451999,-0.051619,0.504436,0.063929,-0.024620,0.096220,0.597233,0.372530,0.281458,-0.652162,7.860095,55.294794,-90.912625
41135,NaN,-8.110978,1.060441,5.401882,0.311512,0.097425,-0.015428,-0.073247,-0.037829,0.103394,0.597714,0.372332,0.281382,-0.651867,7.893482,55.264833,-90.825880
41136,NaN,-8.052339,0.861124,5.192751,0.137953,0.259189,-0.197068,0.001850,0.078162,0.129174,0.597965,0.372782,0.281348,-0.651394,8.005365,55.298462,-90.698755
41137,NaN,-8.200428,1.127239,5.435760,0.351551,0.103117,0.083318,0.072862,0.158883,0.150026,0.598044,0.373732,0.281292,-0.650801,8.184311,55.376222,-90.538001
41138,NaN,-8.120286,1.201752,5.458862,0.404916,0.016093,0.037093,0.007029,0.166888,0.161617,0.598265,0.374531,0.281445,-0.650072,8.337229,55.457096,-90.364844
41139,NaN,-7.868266,0.960217,5.266600,0.180761,0.043505,-0.297747,-0.050392,0.235208,0.154994,0.598483,0.375363,0.282011,-0.649146,8.459998,55.577172,-90.186494
41140,NaN,-8.159419,0.982638,5.373144,0.172664,0.097141,0.004290,0.025945,0.264063,0.168965,0.598553,0.376544,0.282378,-0.648237,8.643775,55.711977,-89.989557
41141,NaN,-8.282260,1.232621,5.416639,0.396748,0.079567,0.151819,-0.005160,0.208638,0.161405,0.598745,0.377435,0.282699,-0.647401,8.797919,55.815558,-89.805552
41142,NaN,-8.096290,1.147035,5.335698,0.313424,0.035148,-0.053806,-0.105768,0.189951,0.140302,0.599074,0.377939,0.283324,-0.646529,8.874998,55.910373,-89.646860
41143,NaN,-8.176826,0.863866,5.272349,0.035629,0.149693,-0.046383,-0.113181,0.209710,0.131781,0.599370,0.378465,0.284058,-0.645624,8.943291,56.017056,-89.491512
41144,NaN,-8.250675,0.841053,5.324878,-0.002218,0.134300,0.042122,-0.068730,0.167079,0.119008,0.599590,0.378975,0.284535,-0.644911,9.021975,56.100605,-89.356831
41145,NaN,-8.222951,0.860486,5.352329,0.005947,0.080713,0.036080,-0.044383,0.140797,0.098551,0.599749,0.379435,0.284900,-0.644331,9.093938,56.170725,-89.244666
41146,NaN,-8.286034,0.803266,5.474516,-0.074651,0.011884,0.150656,-0.039901,0.095023,0.070241,0.599859,0.379729,0.285160,-0.643940,9.139032,56.217761,-89.170502
41147,NaN,-8.219352,0.644903,5.504987,-0.237929,-0.038854,0.097933,-0.044167,0.068789,0.041520,0.599931,0.379877,0.285417,-0.643672,9.153031,56.252507,-89.128767
41148,NaN,-8.106142,0.538272,5.568633,-0.352746,-0.147382,0.029202,-0.028673,0.058253,0.024400,0.599924,0.380021,0.285618,-0.643504,9.160923,56.282894,-89.107133
41149,NaN,-8.067077,0.519202,5.667925,-0.387303,-0.254391,0.049257,-0.002591,0.069100,0.030288,0.599886,0.380274,0.285768,-0.643324,9.188777,56.318695,-89.076089
41150,NaN,-8.011723,0.477389,5.593835,-0.420874,-0.226719,-0.041401,0.000846,0.098416,0.045963,0.599835,0.380666,0.285953,-0.643057,9.237530,56.369807,-89.025705
41151,NaN,-8.103139,0.423759,5.618795,-0.484712,-0.200801,0.043073,0.029787,0.133243,0.066911,0.599761,0.381278,0.286116,-0.642691,9.325493,56.438196,-88.945721
41152,NaN,-8.335840,0.589682,5.558912,-0.324421,-0.053356,0.218630,0.083302,0.117697,0.081074,0.599638,0.382029,0.286026,-0.642400,9.454593,56.496839,-88.855696
41153,NaN,-8.550673,0.878646,5.675041,-0.070490,-0.069543,0.486938,0.080113,0.010095,0.095631,0.599727,0.382442,0.285603,-0.642259,9.578735,56.493262,-88.767971
41154,NaN,-8.303818,0.863492,5.441844,-0.058026,-0.007987,0.152714,0.009132,-0.050805,0.102563,0.600055,0.382460,0.285205,-0.642118,9.659682,56.454461,-88.684737
41155,NaN,-8.383277,0.889458,5.334657,-0.026515,0.128550,0.162873,0.052236,-0.062648,0.106936,0.600347,0.382563,0.284636,-0.642037,9.765811,56.408129,-88.597479
41156,NaN,-8.315313,1.116746,5.241330,0.202782,0.148577,0.076695,0.066050,-0.055666,0.092436,0.600540,0.382721,0.284060,-0.642017,9.869625,56.367414,-88.525864
41157,NaN,-7.895033,1.132441,5.049375,0.245061,0.072421,-0.376330,0.025964,0.080499,0.056013,0.600518,0.383132,0.284100,-0.641775,9.939017,56.406470,-88.464660
41158,NaN,-7.913236,1.206017,5.052480,0.308094,0.056381,-0.352075,0.080131,0.255966,0.065180,0.600153,0.384294,0.284467,-0.641259,10.074512,56.544173,-88.364792
41159,NaN,-8.170813,1.432517,5.305717,0.475703,-0.061915,0.022693,0.093791,0.278772,0.102506,0.599859,0.385612,0.284795,-0.640597,10.253071,56.690596,-88.220227
41160,NaN,-8.182012,1.387010,5.224605,0.428426,-0.008898,-0.015652,0.008180,0.284875,0.115930,0.599752,0.386721,0.285380,-0.639768,10.397617,56.839074,-88.060583
41161,NaN,-8.372472,1.150360,5.138364,0.192285,0.169505,0.074609,-0.036609,0.275936,0.125700,0.599789,0.387668,0.286071,-0.638850,10.523697,56.980909,-87.889506
41162,NaN,-8.501573,1.031143,5.126081,0.061791,0.240740,0.165031,-0.007939,0.240057,0.126645,0.599809,0.388600,0.286552,-0.638050,10.663522,57.102605,-87.724984
41163,NaN,-8.549653,1.141970,5.255177,0.138579,0.127072,0.285935,-0.003208,0.195492,0.117778,0.599869,0.389378,0.286909,-0.637358,10.790947,57.199482,-87.575630
41164,NaN,-8.358300,1.099564,5.205407,0.099228,0.054247,0.094566,-0.074575,0.161259,0.117483,0.600100,0.389844,0.287382,-0.636642,10.873224,57.277447,-87.434504
41165,NaN,-8.108350,0.716723,5.040711,-0.256594,0.086489,-0.242188,-0.066884,0.172821,0.148048,0.600413,0.390402,0.287814,-0.635809,10.988595,57.357965,-87.256329
41166,NaN,-8.438426,0.683885,5.222262,-0.339020,0.099867,0.128227,0.050560,0.214269,0.162068,0.600465,0.391475,0.287961,-0.635034,11.192250,57.460477,-87.056507
41167,NaN,-8.504193,0.876957,5.328133,-0.184678,0.006983,0.259310,0.073123,0.193121,0.160699,0.600508,0.392536,0.287985,-0.634327,11.403893,57.550732,-86.860157
41168,NaN,-8.493895,0.842849,5.310040,-0.233891,0.002586,0.237109,0.041318,0.211817,0.163332,0.600583,0.393575,0.288150,-0.633537,11.605339,57.650942,-86.657105
41169,NaN,-8.448039,0.764156,5.347266,-0.334611,-0.063749,0.208812,0.056045,0.229896,0.177109,0.600660,0.394717,0.288309,-0.632680,11.829907,57.758886,-86.433233
41170,NaN,-8.282068,0.921671,5.384537,-0.201237,-0.221896,0.104245,0.079180,0.247212,0.212734,0.600763,0.396051,0.288362,-0.631724,12.106435,57.872181,-86.167577
41171,NaN,-8.085509,1.070143,5.338091,-0.065085,-0.327316,-0.070799,0.029124,0.308810,0.259617,0.601038,0.397485,0.288671,-0.630420,12.409714,58.012977,-85.834271
41172,NaN,-8.161931,1.141055,5.448707,-0.042338,-0.416292,0.058092,-0.018601,0.367851,0.332015,0.601532,0.399074,0.289156,-0.628720,12.765963,58.177302,-85.409526
41173,NaN,-8.122640,1.153051,5.435525,-0.055993,-0.457889,0.017816,-0.092341,0.383437,0.386043,0.602343,0.400542,0.289824,-0.626698,13.133829,58.340849,-84.916945
41174,NaN,-8.080772,1.190603,5.397371,-0.041942,-0.483354,-0.034525,-0.131606,0.411182,0.445226,0.603347,0.402085,0.290564,-0.624398,13.545512,58.511405,-84.352652
41175,NaN,-8.055648,1.305747,5.407408,0.038281,-0.549252,-0.038478,-0.183701,0.430014,0.514852,0.604662,0.403606,0.291393,-0.621753,13.998321,58.679668,-83.701623
41176,NaN,-8.271556,1.615858,5.526345,0.277393,-0.603207,0.243608,-0.222173,0.464617,0.580915,0.606179,0.405230,0.292296,-0.618788,14.505714,58.856034,-82.966763
41177,NaN,-7.596180,1.613162,5.192200,0.332183,-0.700168,-0.503423,-0.416627,0.549709,0.640276,0.608156,0.406591,0.293943,-0.615164,14.982910,59.066810,-82.135004
41178,NaN,-7.584632,1.181625,4.930823,-0.088612,-0.492225,-0.703057,-0.465029,0.778522,0.711057,0.610079,0.408618,0.296274,-0.610784,15.568281,59.390202,-81.150988
41179,NaN,-8.062249,1.171419,4.993379,-0.186305,-0.366244,-0.266142,-0.399543,0.807074,0.783705,0.612039,0.411012,0.298340,-0.606194,16.282567,59.711543,-80.061654
41180,NaN,-8.408030,1.492438,4.978712,0.052321,-0.270990,0.068260,-0.407239,0.840514,0.809494,0.614008,0.413522,0.300461,-0.601429,17.047146,60.040492,-78.915249
41181,NaN,-8.928641,1.622126,4.944880,0.084151,-0.062189,0.521345,-0.495947,0.820151,0.771693,0.616078,0.415606,0.302857,-0.596655,17.737980,60.355808,-77.795425
41182,NaN,-9.284405,1.466902,4.880716,-0.140549,0.110842,0.776974,-0.613042,0.710556,0.673427,0.618220,0.416859,0.305454,-0.592225,18.251148,60.624575,-76.809428
41183,NaN,-9.233744,1.155596,4.584587,-0.438468,0.306472,0.547303,-0.644690,0.599911,0.576645,0.620313,0.417507,0.307998,-0.588249,18.627705,60.845173,-75.958305
41184,NaN,-9.070443,0.995366,4.414567,-0.582736,0.336323,0.301617,-0.557245,0.550578,0.499674,0.622037,0.418171,0.310284,-0.584745,18.972968,61.052392,-75.205361
41185,NaN,-8.917697,1.008455,4.385149,-0.569433,0.243861,0.156661,-0.482879,0.537675,0.456341,0.623509,0.418939,0.312392,-0.581495,19.322161,61.256535,-74.495474
41186,NaN,-9.039504,1.098499,4.442476,-0.522641,0.200524,0.303702,-0.413102,0.532412,0.426919,0.624725,0.419871,0.314342,-0.578460,19.687586,61.463349,-73.816628
41187,NaN,-8.885214,1.244261,4.513750,-0.386334,0.018033,0.223216,-0.380304,0.517437,0.431354,0.625925,0.420845,0.316130,-0.575473,20.078327,61.656484,-73.128713
41188,NaN,-8.969281,1.409792,4.696042,-0.271735,-0.152932,0.404499,-0.385942,0.509543,0.427340,0.627103,0.421784,0.317919,-0.572510,20.466189,61.846546,-72.444571
41189,NaN,-8.910472,1.515313,4.754145,-0.184438,-0.272506,0.394474,-0.436301,0.459798,0.457786,0.628569,0.422449,0.319621,-0.569456,20.844158,61.999090,-71.737355
41190,NaN,-8.793182,1.546825,4.779513,-0.158929,-0.381095,0.305902,-0.501077,0.402415,0.524647,0.630419,0.422863,0.321188,-0.566213,21.235034,62.107494,-70.977046
41191,NaN,-8.625008,1.624875,4.853342,-0.085305,-0.547858,0.201223,-0.562621,0.357330,0.613994,0.632714,0.423093,0.322593,-0.562672,21.667470,62.170724,-70.130504
41192,NaN,-8.584072,1.689636,4.784061,-0.037756,-0.524002,0.144837,-0.646012,0.344950,0.712281,0.635467,0.423171,0.323977,-0.558701,22.147930,62.203055,-69.175960
41193,NaN,-8.722053,1.800827,4.780050,0.016659,-0.476830,0.283762,-0.687636,0.345667,0.783450,0.638488,0.423225,0.325321,-0.554419,22.678342,62.216410,-68.138250
41194,NaN,-8.672255,2.021662,4.870593,0.203427,-0.588323,0.317968,-0.775848,0.312769,0.823840,0.641841,0.422957,0.326708,-0.549917,23.184175,62.198893,-67.071117
41195,NaN,-8.630363,2.039574,4.690743,0.205651,-0.453763,0.207184,-0.901211,0.330852,0.830084,0.645424,0.422333,0.328473,-0.545131,23.631925,62.185410,-65.988345
41196,NaN,-8.552759,1.876656,4.447090,0.042582,-0.286930,0.003825,-0.960723,0.371613,0.798965,0.648955,0.421557,0.330584,-0.540242,24.031640,62.196675,-64.921266
41197,NaN,-9.059347,1.736589,4.281033,-0.213667,0.048995,0.354249,-0.945368,0.433594,0.705965,0.652074,0.420830,0.333037,-0.535525,24.377744,62.258996,-63.925133
41198,NaN,-9.646994,1.601565,3.989397,-0.478757,0.525672,0.724826,-0.891572,0.356905,0.527761,0.654708,0.419761,0.335461,-0.531625,24.545285,62.321463,-63.166026
41199,NaN,-9.741802,1.430697,3.572018,-0.671433,0.912616,0.600056,-0.776322,0.222718,0.340561,0.656812,0.418390,0.337523,-0.528797,24.533983,62.358124,-62.683790
41200,NaN,-9.852171,1.391182,3.519306,-0.732241,0.996475,0.668584,-0.592149,0.090973,0.153590,0.658250,0.416952,0.339052,-0.527164,24.381987,62.370677,-62.479533
41201,NaN,-9.617915,1.544256,3.683021,-0.520019,0.771331,0.559789,-0.440332,-0.022179,0.001327,0.659157,0.415456,0.340124,-0.526521,24.114719,62.360412,-62.503637
41202,NaN,-9.323619,1.751897,3.882361,-0.231786,0.504192,0.422728,-0.384497,-0.092821,-0.103706,0.659788,0.413777,0.341033,-0.526464,23.742635,62.337378,-62.682133
41203,NaN,-9.233393,1.788194,3.974801,-0.147802,0.408450,0.388461,-0.403996,-0.169532,-0.183452,0.660378,0.411695,0.341904,-0.526792,23.247285,62.291778,-62.987334
41204,NaN,-9.108906,1.754029,4.003939,-0.120190,0.357390,0.283744,-0.426747,-0.263437,-0.237150,0.661029,0.409194,0.342632,-0.527450,22.646174,62.207116,-63.397431
41205,NaN,-8.789934,1.666759,3.944732,-0.103042,0.307360,-0.040452,-0.464961,-0.345226,-0.256068,0.661843,0.406317,0.343228,-0.528266,21.974537,62.081274,-63.862996
41206,NaN,-8.477787,1.538840,3.854630,-0.130053,0.286279,-0.378709,-0.450261,-0.375405,-0.239292,0.662717,0.403432,0.343646,-0.529110,21.320681,61.933129,-64.318485
41207,NaN,-8.321465,1.359188,3.539798,-0.252520,0.526065,-0.686702,-0.433040,-0.402737,-0.181109,0.663750,0.400629,0.343808,-0.529838,20.730683,61.756286,-64.713497
41208,NaN,-8.430100,1.009023,3.148871,-0.607462,0.926325,-0.825318,-0.349436,-0.448724,-0.124201,0.664839,0.398075,0.343479,-0.530611,20.233501,61.541396,-65.058128
41209,NaN,-8.817745,0.668080,2.751039,-1.019966,1.458309,-0.724238,-0.107762,-0.577869,-0.107469,0.665710,0.396008,0.342041,-0.531993,19.851756,61.252355,-65.429934
41210,NaN,-9.189257,0.953314,2.548212,-0.816400,1.898742,-0.454671,0.326453,-0.791483,-0.179385,0.665883,0.394688,0.338876,-0.534775,19.580782,60.861088,-65.960549
41211,NaN,-9.173138,1.636830,2.892076,-0.130590,1.741689,-0.213798,0.644418,-0.965202,-0.299997,0.665382,0.393749,0.334512,-0.538823,19.329072,60.398132,-66.680416
41212,NaN,-8.865513,2.317432,3.206735,0.609413,1.477273,-0.236847,0.725973,-1.026023,-0.421543,0.664468,0.392695,0.329951,-0.543511,19.004854,59.923035,-67.541000
41213,NaN,-8.395394,2.424931,3.397060,0.821077,1.174391,-0.547204,0.656960,-0.934911,-0.535735,0.663200,0.391458,0.326093,-0.548261,18.582737,59.516094,-68.473054
41214,NaN,-8.088486,2.399587,3.509047,0.876821,0.985101,-0.770810,0.613998,-0.729763,-0.625924,0.661410,0.390476,0.323194,-0.552820,18.131512,59.232981,-69.413586
41215,NaN,-8.435126,2.112284,3.424294,0.562026,1.241483,-0.567065,0.600026,-0.551441,-0.634248,0.659316,0.389919,0.320933,-0.557017,17.728940,59.045463,-70.290470
41216,NaN,-8.581101,1.627481,3.186765,0.093205,1.519853,-0.640958,0.622072,-0.564771,-0.589948,0.657306,0.389455,0.318469,-0.561116,17.382724,58.839594,-71.118066
41217,NaN,-8.865600,1.203752,3.126833,-0.345071,1.722706,-0.499363,0.824083,-0.547673,-0.540921,0.654992,0.389772,0.315393,-0.565323,17.208917,58.633337,-71.881147
41218,NaN,-9.422229,1.150864,3.448673,-0.478615,1.757209,0.121054,1.142001,-0.567934,-0.562624,0.652004,0.391019,0.311378,-0.570122,17.197766,58.418485,-72.668829
41219,NaN,-9.519739,1.498283,3.903718,-0.157861,1.471190,0.479047,1.329245,-0.653229,-0.637027,0.648531,0.392500,0.306682,-0.575585,17.211101,58.170255,-73.555808
41220,NaN,-10.284174,1.477072,4.544046,-0.310874,1.353824,1.441848,1.329088,-0.670137,-0.817222,0.644522,0.393623,0.302260,-0.581628,17.068484,57.941976,-74.628739
41221,NaN,-11.234707,1.312606,5.044342,-0.596092,1.477547,2.469313,1.329777,-0.889697,-1.162650,0.639781,0.393556,0.297789,-0.589165,16.578710,57.648280,-76.115131
41222,NaN,-10.929586,1.512664,5.450235,-0.310927,1.074896,2.442719,1.342063,-1.241307,-1.522132,0.634405,0.391908,0.292822,-0.598493,15.721840,57.208187,-78.051853
41223,NaN,-9.940282,1.894632,5.680474,0.260927,0.470993,1.779304,1.226680,-1.486797,-1.765760,0.628782,0.388742,0.287864,-0.608808,14.577561,56.651796,-80.262778
41224,NaN,-8.810441,2.092362,5.674595,0.676800,-0.023974,0.852306,1.009623,-1.506521,-1.867245,0.623196,0.384619,0.283641,-0.619066,13.278623,56.071669,-82.525297
41225,NaN,-7.683119,2.036802,5.717483,0.808924,-0.578892,-0.072182,0.760590,-1.363829,-1.822547,0.617924,0.380160,0.280514,-0.628458,11.957495,55.538125,-84.655623
41226,NaN,-6.717513,1.702144,5.553256,0.646373,-0.883828,-1.000141,0.518656,-1.105961,-1.635904,0.613261,0.375982,0.278543,-0.636366,10.742261,55.101187,-86.502408
41227,NaN,-6.337197,1.096496,5.276570,0.177391,-0.763954,-1.530847,0.377740,-0.778339,-1.354695,0.609247,0.372778,0.277478,-0.642543,9.752854,54.801152,-87.982813
41228,NaN,-6.326010,0.564546,5.213414,-0.283079,-0.625314,-1.624561,0.421269,-0.510548,-0.964929,0.606003,0.371084,0.276342,-0.647064,9.152352,54.603085,-89.022060
41229,NaN,-5.488358,0.142189,4.481740,-0.560188,-0.445045,-2.761704,0.511227,-0.337443,-0.541581,0.603706,0.370803,0.274651,-0.650086,8.969051,54.461377,-89.614556
41230,NaN,-8.208497,-0.818842,3.351154,-1.342087,2.178564,-1.284335,0.798911,-0.066563,-0.398258,0.600959,0.372455,0.272568,-0.652558,9.099324,54.459183,-90.024769
41231,NaN,-12.024955,-0.997827,3.893482,-1.588281,4.048577,2.096952,1.986113,-0.811797,-0.664812,0.596101,0.374857,0.264852,-0.658787,9.606610,54.062566,-90.809569
41232,NaN,-6.238230,-0.003603,3.994677,-0.691005,0.567732,-2.459427,2.556989,-2.167010,-0.311416,0.593010,0.374883,0.250496,-0.667124,10.538210,52.871087,-91.481370
41233,NaN,-5.882266,2.797364,6.337869,1.448277,-1.862291,-1.036234,3.169739,-0.570957,-0.303358,0.586633,0.381961,0.238749,-0.673028,12.043263,52.585081,-91.880205
41234,NaN,-9.878877,4.171167,6.757223,2.604742,-0.026609,2.591507,2.441060,-0.526725,-0.427987,0.581054,0.386815,0.229766,-0.678202,13.042124,52.343826,-92.392318
41235,NaN,-7.777932,4.092015,7.033584,2.288589,-1.485585,1.108234,2.031052,-0.874931,-0.544393,0.576185,0.389113,0.221358,-0.683815,13.663952,51.929100,-93.086715
41236,NaN,-5.821947,4.414576,7.418451,2.327556,-3.047420,-0.132202,1.661864,-0.356384,-0.610661,0.571174,0.391999,0.215807,-0.688131,14.118214,51.815121,-93.727729
41237,NaN,-6.375626,3.903613,7.435332,1.781410,-2.628892,0.241462,0.968031,0.302144,-0.598858,0.566819,0.395165,0.214491,-0.690330,14.299889,52.068155,-94.209480
41238,NaN,-7.118048,2.673366,6.679592,0.831620,-1.349604,0.183160,0.683061,0.516364,-0.485150,0.563173,0.398367,0.214531,-0.691460,14.435485,52.424036,-94.540974
41239,NaN,-6.800130,2.222453,5.873508,0.598142,-0.880055,-0.617774,0.916867,0.512824,-0.332379,0.559577,0.402373,0.213445,-0.692395,14.814375,52.757383,-94.733353
41240,NaN,-6.325454,2.327145,5.540064,0.723027,-1.000736,-1.175879,1.034212,0.552561,-0.170115,0.556246,0.407000,0.211728,-0.692902,15.388490,53.088829,-94.764402
41241,NaN,-5.997027,2.333290,5.091617,0.792058,-0.922342,-1.697620,0.961249,0.810287,-0.018994,0.553293,0.412466,0.210668,-0.692357,16.091559,53.539685,-94.582428
41242,NaN,-7.442723,2.652150,5.078248,1.087058,-0.223555,-0.486177,0.981970,0.912598,0.060501,0.550441,0.418405,0.209643,-0.691377,16.898975,54.031768,-94.286875
41243,NaN,-7.766005,2.740400,4.729488,1.223290,0.126721,-0.395932,0.904650,0.762596,0.109280,0.548055,0.423651,0.208364,-0.690463,17.677654,54.431573,-93.973881
41244,NaN,-7.698279,2.798561,4.955823,1.110453,-0.164175,-0.305080,0.988776,0.704492,0.177283,0.545766,0.428978,0.206482,-0.689553,18.553103,54.784393,-93.602697
41245,NaN,-8.047535,3.143863,5.300976,1.221312,-0.389306,0.242298,1.108519,0.607943,0.238369,0.543508,0.434350,0.203787,-0.688775,19.530990,55.070528,-93.191728
41246,NaN,-8.091386,3.721386,5.452771,1.595182,-0.712388,0.482883,1.143971,0.422046,0.252869,0.541390,0.439170,0.200422,-0.688373,20.497130,55.249153,-92.820890
41247,NaN,-8.516631,4.248701,6.697588,1.511415,-1.604320,1.614613,0.821685,0.140229,0.297166,0.540400,0.442184,0.197302,-0.688123,21.235641,55.265207,-92.502898
41248,NaN,-8.440916,3.105103,6.251952,0.580278,-0.932932,1.085501,0.100204,0.099718,0.109401,0.540393,0.442915,0.196967,-0.687755,21.403505,55.296802,-92.376217
41249,NaN,-9.101178,1.620415,5.766096,-0.582535,0.305543,1.062621,0.019702,0.001406,-0.037646,0.540155,0.442950,0.196969,-0.687918,21.383359,55.307051,-92.422276
41250,NaN,-8.994969,1.511242,5.650461,-0.631456,0.373780,0.891637,0.252026,-0.195695,-0.248360,0.538870,0.442721,0.196105,-0.689318,21.273810,55.255523,-92.738929
41251,NaN,-8.850023,2.033973,5.800958,-0.202874,0.010371,0.960881,0.335819,-0.217806,-0.318426,0.537178,0.442575,0.195048,-0.691030,21.153278,55.206827,-93.127707
41252,NaN,-8.426383,1.943188,5.543345,-0.182872,0.003013,0.457420,0.188371,-0.201137,-0.199621,0.536203,0.442200,0.194280,-0.692243,21.044428,55.141615,-93.399489
41253,NaN,-8.347830,1.307953,5.515672,-0.751912,0.209006,0.247659,0.154082,-0.046692,-0.016619,0.535787,0.442449,0.193642,-0.692586,21.103264,55.121686,-93.443204
41254,NaN,-8.819063,1.186696,5.736275,-0.950465,0.362354,0.725540,0.313596,0.003414,0.076870,0.535291,0.443383,0.192376,-0.692724,21.339107,55.108715,-93.382446
41255,NaN,-8.856448,1.334215,5.849083,-0.887627,0.268096,0.844172,0.345211,-0.218988,0.229205,0.535465,0.443782,0.190069,-0.692971,21.642960,54.945525,-93.260837
41256,NaN,-7.048263,1.267195,5.665894,-0.958149,-0.557690,-0.748657,0.348698,-0.648160,0.350566,0.536453,0.442808,0.186328,-0.693845,21.908129,54.527359,-93.188512
41257,NaN,-4.914300,1.456260,5.008525,-0.607408,-1.312434,-2.793818,0.503315,-0.751396,0.420931,0.537428,0.441952,0.181615,-0.694885,22.279386,54.039472,-93.094329
41258,NaN,-4.968863,1.687005,5.070406,-0.461126,-1.353813,-2.657355,0.695644,-0.403672,0.496247,0.537912,0.442874,0.176996,-0.695116,22.912643,53.718007,-92.811633
41259,NaN,-6.026289,2.344518,5.676658,-0.155517,-1.356304,-1.317220,0.862545,-0.331060,0.563031,0.538179,0.444549,0.171842,-0.695133,23.704077,53.417971,-92.450173
41260,NaN,-5.934809,3.158804,5.920813,0.396725,-1.826616,-1.051332,0.813495,-0.468419,0.589102,0.538748,0.445620,0.166423,-0.695325,24.433117,53.036760,-92.129815
41261,NaN,-5.579853,3.501632,5.852972,0.665908,-2.056405,-1.269813,0.516205,-0.540516,0.547317,0.539881,0.445596,0.161934,-0.695522,24.931971,52.626309,-91.883018
41262,NaN,-5.427117,3.172111,5.547311,0.465938,-1.753429,-1.627544,0.231530,-0.523252,0.543730,0.541611,0.444849,0.158485,-0.695449,25.263359,52.224292,-91.640257
41263,NaN,-4.973613,2.650484,5.257074,0.090992,-1.583920,-2.270716,0.210854,-0.403125,0.670612,0.543725,0.444561,0.155149,-0.694736,25.699542,51.852385,-91.248428
41264,NaN,-5.215265,2.544566,5.223264,-0.030991,-1.328658,-2.119210,0.367491,-0.120132,0.871624,0.545958,0.445826,0.151589,-0.692958,26.437662,51.572828,-90.584363
41265,NaN,-6.257763,2.749989,5.465974,-0.032568,-0.890206,-1.106115,0.540020,0.228132,1.160634,0.548527,0.448976,0.147731,-0.689720,27.564424,51.389382,-89.547956
41266,NaN,-7.778631,3.349084,5.812132,0.199083,-0.373577,0.450003,0.728616,0.570273,1.408494,0.551244,0.453978,0.143598,-0.685138,29.061628,51.296281,-88.173405
41267,NaN,-9.535966,3.874946,6.230938,0.247237,0.251418,2.214216,0.703888,0.820437,1.448626,0.553933,0.459766,0.140136,-0.679805,30.653954,51.293045,-86.658061
41268,NaN,-11.249907,4.079552,6.335998,0.108321,1.163912,3.677237,0.535106,0.794646,1.242733,0.556289,0.464819,0.137640,-0.674938,32.013344,51.314031,-85.317268
41269,NaN,-11.877057,3.955030,6.204322,-0.144627,1.675622,4.057065,0.290868,0.531298,0.880919,0.558148,0.468038,0.136070,-0.671488,32.914482,51.302565,-84.384544
41270,NaN,-12.065738,3.697389,5.774589,-0.286922,2.174429,3.890876,0.137557,0.307533,0.474602,0.559143,0.469789,0.135340,-0.669582,33.395845,51.303936,-83.876870
41271,NaN,-10.504496,3.225412,5.098102,-0.321506,1.846110,2.155053,0.058155,-0.062143,0.215624,0.559706,0.469907,0.134449,-0.669209,33.531956,51.208922,-83.753372
41272,NaN,-9.596242,2.921812,4.528040,-0.268774,1.801376,1.041379,0.202803,-0.122753,0.080693,0.559517,0.470132,0.133222,-0.669454,33.645779,51.127379,-83.764540
41273,NaN,-8.826341,3.159710,4.621834,-0.064035,1.193126,0.571036,0.304972,-0.259096,0.038768,0.559036,0.470160,0.131370,-0.670201,33.740340,50.994465,-83.875932
41274,NaN,-7.949262,3.158665,4.497144,0.047699,0.760200,-0.178791,0.232150,-0.380313,0.069262,0.558906,0.469594,0.129350,-0.671099,33.763211,50.793883,-84.026022
41275,NaN,-7.190566,2.984265,4.249969,0.061134,0.551253,-0.960312,0.205781,-0.442755,0.142092,0.559119,0.468792,0.127073,-0.671917,33.790570,50.540737,-84.151450
41276,NaN,-6.695770,3.010143,4.214920,0.122059,0.293040,-1.353437,0.257900,-0.419060,0.264185,0.559601,0.468285,0.124400,-0.672369,33.926929,50.259673,-84.174464
41277,NaN,-6.444255,3.204123,4.376254,0.208634,-0.002347,-1.392314,0.230106,-0.433183,0.383743,0.560554,0.467728,0.121500,-0.672493,34.109810,49.933970,-84.116374
41278,NaN,-6.273116,3.250578,4.444935,0.203820,-0.127486,-1.468968,0.166305,-0.437103,0.468462,0.561938,0.467022,0.118604,-0.672346,34.299586,49.578654,-84.000871
41279,NaN,-6.070123,3.265792,4.539237,0.161659,-0.277093,-1.565671,0.103520,-0.454931,0.515732,0.563631,0.466106,0.115758,-0.672061,34.470998,49.199722,-83.861753
41280,NaN,-5.870756,3.181263,4.511133,0.094555,-0.307767,-1.760817,0.065087,-0.407911,0.549182,0.565493,0.465249,0.113093,-0.671544,34.652713,48.831485,-83.678818
41281,NaN,-5.787076,2.993364,4.521433,-0.092310,-0.261306,-1.886981,0.106312,-0.282735,0.575863,0.567271,0.464943,0.110581,-0.670674,34.916276,48.513293,-83.417607
41282,NaN,-5.888521,3.098249,4.856081,-0.212301,-0.420995,-1.588770,0.262202,-0.088675,0.584785,0.568604,0.465727,0.108074,-0.669409,35.341171,48.281742,-83.058757
41283,NaN,-7.951865,3.883585,5.491428,-0.077888,0.264247,0.598548,0.423710,0.319807,0.466714,0.568938,0.468271,0.106463,-0.667606,35.947155,48.277980,-82.580842
41284,NaN,-9.627707,4.240285,6.545393,-0.505336,0.530816,2.555725,0.204252,0.218815,0.225477,0.569030,0.469718,0.105859,-0.666606,36.263245,48.306057,-82.322672
41285,NaN,-9.170132,3.775501,5.972433,-0.597265,0.769067,1.722801,-0.078987,-0.042453,0.123180,0.569583,0.469438,0.105698,-0.666357,36.265413,48.247944,-82.267832
41286,NaN,-8.573570,3.291589,5.553588,-0.747457,0.826551,0.861633,-0.025075,-0.065692,0.022911,0.569688,0.469176,0.105525,-0.666479,36.237053,48.212757,-82.295076
41287,NaN,-8.141559,3.234739,5.430159,-0.696680,0.646736,0.450427,0.136212,-0.025114,-0.028122,0.569222,0.469486,0.105051,-0.666733,36.290751,48.213972,-82.336425
41288,NaN,-7.525485,3.491112,5.382454,-0.410475,0.182519,0.066065,0.261818,0.094875,0.003476,0.568504,0.470565,0.104424,-0.666684,36.477749,48.259497,-82.295319
41289,NaN,-7.301256,3.698409,5.492640,-0.293286,-0.121717,0.038949,0.288449,0.193992,0.052770,0.567833,0.472079,0.103876,-0.666271,36.744324,48.334030,-82.168305
41290,NaN,-7.091066,3.705146,5.295999,-0.200572,-0.147637,-0.221194,0.258872,0.302705,0.165909,0.567551,0.473924,0.103466,-0.665264,37.094495,48.418592,-81.906745
41291,NaN,-7.083568,3.577187,5.228426,-0.318842,-0.085244,-0.315295,0.306896,0.423013,0.309658,0.567567,0.476380,0.102897,-0.663583,37.595182,48.507069,-81.481409
41292,NaN,-7.273930,3.706619,5.344843,-0.345374,-0.106889,-0.061517,0.369375,0.484491,0.374344,0.567611,0.479242,0.102139,-0.661598,38.190642,48.597514,-80.977787
41293,NaN,-7.221085,3.956742,5.386075,-0.213970,-0.278085,0.020224,0.353751,0.489583,0.417920,0.567826,0.482096,0.101343,-0.659459,38.804131,48.671537,-80.439042
41294,NaN,-7.226674,4.065957,5.269528,-0.126285,-0.255582,0.007857,0.278115,0.514853,0.441976,0.568283,0.484821,0.100807,-0.657146,39.398191,48.743993,-79.868892
41295,NaN,-7.203703,4.140876,5.180693,-0.075941,-0.257490,-0.024564,0.216880,0.505733,0.463448,0.568955,0.487350,0.100395,-0.654752,39.966526,48.801090,-79.287053
41296,NaN,-7.608857,4.197055,5.187215,-0.141201,-0.038210,0.306378,0.159864,0.472177,0.470739,0.569801,0.489601,0.100053,-0.652386,40.492392,48.836812,-78.718459
41297,NaN,-7.979115,4.370997,5.175389,-0.090757,0.137677,0.652929,0.114515,0.339627,0.422193,0.570660,0.491265,0.099601,-0.650450,40.912627,48.830329,-78.255984
41298,NaN,-8.013825,4.541645,5.132235,0.030878,0.131558,0.731004,-0.008214,0.153656,0.338860,0.571639,0.491926,0.099220,-0.649147,41.140488,48.772759,-77.955305
41299,NaN,-7.985890,4.473954,4.869277,0.097479,0.325610,0.549987,-0.129014,0.013482,0.211235,0.572569,0.491727,0.099146,-0.648490,41.176046,48.702717,-77.818275
41300,NaN,-7.934240,4.348191,4.678307,0.098684,0.479641,0.361086,-0.158969,-0.113962,0.105000,0.573292,0.490971,0.099063,-0.648437,41.086923,48.617432,-77.824092
41301,NaN,-7.650529,4.331267,4.640162,0.153959,0.347147,0.120958,-0.148614,-0.208306,0.040693,0.573825,0.489910,0.098836,-0.648802,40.932842,48.515868,-77.924673
41302,NaN,-7.223405,4.333651,4.400300,0.354301,0.254973,-0.318997,-0.123708,-0.213521,0.002922,0.574178,0.488881,0.098604,-0.649301,40.772336,48.425675,-78.052845
41303,NaN,-7.088067,4.216589,4.380054,0.296223,0.232966,-0.481924,-0.070986,-0.131143,-0.002143,0.574343,0.488272,0.098451,-0.649637,40.675306,48.373307,-78.136881
41304,NaN,-7.156798,4.310773,4.441200,0.339420,0.212283,-0.359302,-0.001224,-0.049075,0.002959,0.574314,0.488128,0.098294,-0.649794,40.654755,48.354292,-78.171903
41305,NaN,-7.212588,4.371448,4.482026,0.360888,0.203938,-0.270795,0.031555,-0.025933,0.032348,0.574289,0.488171,0.098026,-0.649824,40.677689,48.334721,-78.174091
41306,NaN,-7.256692,4.239786,4.495074,0.232977,0.267677,-0.288239,0.035838,0.006560,0.049041,0.574293,0.488337,0.097795,-0.649732,40.724235,48.322669,-78.147735
41307,NaN,-7.246364,4.182606,4.539822,0.155089,0.247883,-0.298043,0.095588,0.034424,0.052019,0.574146,0.488770,0.097444,-0.649589,40.818795,48.321938,-78.103155
41308,NaN,-7.486906,4.242232,4.739929,0.056377,0.244527,0.008424,0.130348,0.047300,0.042940,0.573878,0.489336,0.097038,-0.649460,40.933640,48.329769,-78.057857
41309,NaN,-7.432374,4.234324,4.747305,0.041224,0.202473,-0.031896,0.150595,0.030990,0.024703,0.573509,0.489902,0.096565,-0.649430,41.045009,48.337715,-78.032976
41310,NaN,-7.556465,4.321385,4.912170,-0.000555,0.139095,0.181541,0.151002,-0.005819,0.017034,0.573131,0.490342,0.096003,-0.649514,41.136681,48.332252,-78.034544
41311,NaN,-7.520311,4.322724,5.001042,-0.050484,0.053012,0.199609,0.134822,-0.019284,-0.000160,0.572743,0.490687,0.095498,-0.649670,41.205685,48.327848,-78.054279
41312,NaN,-7.494263,4.262168,5.029110,-0.118832,0.037044,0.167619,0.112971,-0.050566,-0.008534,0.572397,0.490860,0.094994,-0.649919,41.244201,48.312759,-78.097844
41313,NaN,-7.386472,4.241880,5.119125,-0.174634,-0.086714,0.123153,0.127147,-0.039590,0.001550,0.572043,0.491117,0.094452,-0.650115,41.301013,48.298991,-78.128022
41314,NaN,-7.347219,4.310854,5.201226,-0.162214,-0.190275,0.165054,0.118104,-0.024531,0.005429,0.571716,0.491395,0.093971,-0.650262,41.360265,48.289872,-78.147770
41315,NaN,-7.320517,4.229035,5.201189,-0.233635,-0.181695,0.108980,0.082205,0.010369,0.006587,0.571465,0.491688,0.093705,-0.650300,41.414954,48.295707,-78.146300
41316,NaN,-7.486384,4.148242,5.296806,-0.381259,-0.115628,0.244712,0.097114,0.029534,-0.002291,0.571139,0.492078,0.093466,-0.650325,41.481449,48.312763,-78.140239
41317,NaN,-7.603669,4.238359,5.373155,-0.369706,-0.122996,0.409761,0.117482,-0.031440,-0.000170,0.570798,0.492333,0.092983,-0.650502,41.535261,48.303218,-78.167004
41318,NaN,-7.453066,4.410484,5.339258,-0.194193,-0.251841,0.356241,0.108010,-0.066748,0.025792,0.570581,0.492453,0.092364,-0.650689,41.580486,48.268312,-78.197797
41319,NaN,-7.304469,4.523198,5.378729,-0.106397,-0.403488,0.315055,0.028141,-0.121718,0.085015,0.570778,0.492198,0.091704,-0.650802,41.585563,48.187701,-78.221297
41320,NaN,-6.944271,4.329543,5.167057,-0.106441,-0.417097,-0.144129,-0.079528,-0.080484,0.102152,0.571278,0.491773,0.091469,-0.650718,41.554153,48.117881,-78.210785
41321,NaN,-6.958933,4.045755,4.979885,-0.245462,-0.177285,-0.352114,-0.084449,0.007815,0.124080,0.571819,0.491636,0.091449,-0.650350,41.568357,48.077927,-78.135394
41322,NaN,-6.911019,3.820608,4.830259,-0.353203,-0.033020,-0.562564,-0.002803,0.144926,0.104986,0.572035,0.492164,0.091601,-0.649738,41.677749,48.103566,-77.994745
41323,NaN,-6.892146,3.933043,4.689480,-0.196513,-0.000382,-0.597318,0.105836,0.291605,0.064957,0.571785,0.493465,0.091919,-0.648926,41.893677,48.207226,-77.794979
41324,NaN,-6.947382,4.144405,4.720406,-0.066119,-0.080820,-0.447143,0.163634,0.373796,0.034195,0.571254,0.495178,0.092359,-0.648026,42.164018,48.356761,-77.566880
41325,NaN,-6.960119,4.135582,4.435426,0.053933,0.091918,-0.581881,0.154338,0.457600,0.008529,0.570620,0.497125,0.093133,-0.646982,42.455624,48.551294,-77.304052
41326,NaN,-7.387333,4.230515,4.517463,-0.001310,0.237064,-0.178324,0.255511,0.543938,-0.014179,0.569618,0.499622,0.093880,-0.645832,42.834681,48.789671,-77.002646
41327,NaN,-7.903460,4.639426,4.689558,0.138580,0.264422,0.477673,0.249839,0.480257,-0.065226,0.568489,0.501873,0.094593,-0.644977,43.161533,49.020416,-76.767468
41328,NaN,-8.033785,4.732735,4.768138,0.134500,0.220244,0.656741,0.102466,0.307592,-0.093075,0.567720,0.503129,0.095358,-0.644564,43.314094,49.189033,-76.651679
41329,NaN,-7.960630,4.446329,4.647452,-0.029205,0.328396,0.416270,-0.011792,0.120237,-0.115456,0.567253,0.503448,0.096017,-0.644627,43.306164,49.288586,-76.661772
41330,NaN,-7.771193,4.210637,4.464028,-0.089156,0.404379,0.080592,0.001450,-0.030072,-0.126177,0.566792,0.503312,0.096232,-0.645107,43.231306,49.329289,-76.769936
41331,NaN,-7.523282,4.306780,4.406273,0.068083,0.253750,-0.091867,0.048795,-0.125041,-0.104104,0.566326,0.503017,0.095971,-0.645784,43.151415,49.321934,-76.920669
41332,NaN,-7.378069,4.387261,4.425337,0.152814,0.126614,-0.157213,0.065880,-0.158709,-0.053598,0.565998,0.502683,0.095432,-0.646413,43.090091,49.280233,-77.059687
41333,NaN,-7.232422,4.315217,4.437041,0.109905,0.059624,-0.294247,0.100234,-0.151373,0.010581,0.565785,0.502503,0.094642,-0.646855,43.083736,49.216800,-77.152431
41334,NaN,-7.085899,4.484928,4.499215,0.231524,-0.125659,-0.299640,0.158144,-0.092271,0.068033,0.565586,0.502701,0.093686,-0.647015,43.164729,49.155250,-77.173496
41335,NaN,-7.167923,4.511678,4.677046,0.130424,-0.200762,-0.140471,0.166134,0.015255,0.106348,0.565438,0.503291,0.092914,-0.646797,43.318033,49.123935,-77.105215
41336,NaN,-7.694216,4.540573,4.857729,-0.040597,-0.002528,0.356560,0.158856,0.116296,0.095698,0.565227,0.504177,0.092475,-0.646353,43.507327,49.138369,-76.983621
41337,NaN,-8.040149,4.594062,5.025826,-0.158060,0.073321,0.721919,0.140347,0.138206,0.027648,0.564832,0.505054,0.092332,-0.646034,43.664084,49.188896,-76.891273
41338,NaN,-8.416276,4.456376,5.011217,-0.330030,0.359768,0.937518,0.078058,0.057050,-0.019263,0.564480,0.505467,0.092277,-0.646026,43.725052,49.223897,-76.878174
41339,NaN,-8.176419,4.412309,4.997386,-0.325880,0.229081,0.729490,0.084429,-0.069400,-0.037828,0.564109,0.505484,0.091894,-0.646391,43.723288,49.214257,-76.952935
41340,NaN,-7.773306,4.658770,4.877829,0.003147,-0.025791,0.479103,0.083098,-0.132560,-0.038917,0.563768,0.505290,0.091337,-0.646920,43.690766,49.178505,-77.067156
41341,NaN,-7.323968,4.736817,4.700415,0.233131,-0.209336,0.090527,0.039539,-0.130466,-0.009044,0.563632,0.504996,0.090854,-0.647336,43.649261,49.132130,-77.160521
41342,NaN,-7.112726,4.697198,4.597948,0.287631,-0.254709,-0.135495,0.050161,-0.030947,0.014395,0.563500,0.505061,0.090556,-0.647442,43.670093,49.117347,-77.179346
41343,NaN,-7.250149,4.665092,4.678384,0.193389,-0.214674,-0.008019,0.031857,0.088683,-0.012300,0.563272,0.505453,0.090723,-0.647311,43.722935,49.163058,-77.142169
41344,NaN,-7.310794,4.569136,4.606817,0.141105,-0.106879,-0.039453,0.038971,0.174154,-0.055882,0.562847,0.506118,0.091216,-0.647091,43.797777,49.261019,-77.081166
41345,NaN,-7.415760,4.632475,4.659618,0.143518,-0.122983,0.093349,0.063919,0.279726,-0.114424,0.562120,0.507171,0.092075,-0.646777,43.908515,49.426125,-76.992002
41346,NaN,-7.865087,4.606768,4.655727,0.055499,0.137542,0.421351,0.040326,0.344641,-0.197727,0.561153,0.508324,0.093403,-0.646522,43.995944,49.650683,-76.915774
41347,NaN,-8.128117,4.501555,4.565699,-0.018888,0.358586,0.533653,0.058376,0.355383,-0.265187,0.559913,0.509532,0.094874,-0.646432,44.067358,49.906810,-76.874526
41348,NaN,-8.435110,4.416850,4.630995,-0.163052,0.491769,0.762623,0.044543,0.259611,-0.303314,0.558628,0.510368,0.096218,-0.646685,44.066483,50.138338,-76.917228
41349,NaN,-8.338641,4.238635,4.550146,-0.236555,0.516201,0.573856,0.043417,0.104128,-0.329417,0.557334,0.510687,0.097199,-0.647403,43.977793,50.316547,-77.073404
41350,NaN,-8.143832,4.208462,4.436369,-0.150854,0.461922,0.359743,0.092638,-0.042603,-0.341782,0.555945,0.510657,0.097641,-0.648554,43.839064,50.438534,-77.330630
41351,NaN,-7.896887,4.264897,4.423551,-0.041162,0.283423,0.189107,0.125991,-0.141930,-0.342355,0.554513,0.510398,0.097701,-0.649971,43.670911,50.519597,-77.650579
41352,NaN,-7.688810,4.324042,4.410975,0.065382,0.134235,0.048829,0.097672,-0.185988,-0.318303,0.553253,0.509925,0.097668,-0.651420,43.476052,50.571831,-77.983614
41353,NaN,-7.477951,4.194214,4.402172,0.013292,0.054688,-0.174892,0.090808,-0.201847,-0.271106,0.552169,0.509405,0.097495,-0.652772,43.293579,50.598595,-78.295513
41354,NaN,-7.220947,4.172538,4.379645,0.057749,-0.081033,-0.393370,0.113177,-0.181482,-0.203348,0.551238,0.509042,0.097130,-0.653895,43.167289,50.606329,-78.551040
41355,NaN,-7.125878,4.078207,4.288193,0.052819,-0.041544,-0.550183,0.127431,-0.121134,-0.138719,0.550451,0.508949,0.096722,-0.654690,43.111364,50.614124,-78.726235
41356,NaN,-7.179832,3.967114,4.260760,-0.027541,0.050815,-0.569380,0.166093,-0.048834,-0.089482,0.549692,0.509219,0.096260,-0.655186,43.136549,50.632431,-78.824950
41357,NaN,-7.225137,4.132806,4.384412,0.027178,-0.073892,-0.405268,0.209707,0.025697,-0.050530,0.548912,0.509875,0.095762,-0.655403,43.242728,50.667078,-78.851374
41358,NaN,-7.299474,4.263666,4.484492,0.057200,-0.156605,-0.244824,0.185954,0.117172,-0.034098,0.548203,0.510768,0.095548,-0.655332,43.387087,50.733030,-78.810682
41359,NaN,-7.486497,4.336873,4.657357,-0.016317,-0.206828,0.010956,0.160724,0.230512,-0.091081,0.547316,0.511940,0.095876,-0.655112,43.543600,50.868906,-78.735881
41360,NaN,-7.701728,4.557772,4.711956,0.097788,-0.229079,0.298211,0.108396,0.328335,-0.208395,0.546130,0.513227,0.096940,-0.654937,43.657963,51.091213,-78.676763
41361,NaN,-7.998490,4.459327,5.219426,-0.302601,-0.400810,0.715914,-0.023466,0.305213,-0.321882,0.544919,0.514025,0.098666,-0.655063,43.627996,51.349170,-78.706238
41362,NaN,-8.185729,4.272614,5.021313,-0.343955,-0.115523,0.691749,-0.092243,0.094939,-0.392760,0.543755,0.513905,0.100224,-0.655887,43.416120,51.547304,-78.917670
41363,NaN,-7.540486,4.163171,4.806876,-0.201148,-0.344109,0.043172,-0.151592,-0.014092,-0.402223,0.542763,0.513263,0.101706,-0.656982,43.109543,51.703444,-79.206158
41364,NaN,-7.205550,4.044281,4.612369,-0.117762,-0.387306,-0.358263,-0.093903,0.028018,-0.348016,0.541779,0.512938,0.102972,-0.657851,42.883047,51.854835,-79.434025
41365,NaN,-7.002310,4.031149,4.674401,-0.118250,-0.570604,-0.496418,-0.033117,0.104330,-0.303704,0.540742,0.513052,0.104131,-0.658431,42.752007,52.020966,-79.584534
41366,NaN,-7.030294,3.957391,4.665893,-0.161539,-0.541061,-0.510126,-0.048128,0.112167,-0.230071,0.539982,0.513186,0.105171,-0.658785,42.654490,52.161233,-79.681200
41367,NaN,-6.945952,3.914965,4.284300,0.035468,-0.334708,-0.767518,0.004177,0.238622,-0.171822,0.539212,0.513911,0.106232,-0.658681,42.682004,52.332458,-79.657560
41368,NaN,-7.283131,3.984136,4.423465,-0.028385,-0.285307,-0.410449,0.103983,0.334144,-0.080052,0.538436,0.515263,0.106984,-0.658138,42.865179,52.507785,-79.509584
41369,NaN,-7.814158,4.187006,4.490162,0.026530,-0.122663,0.124003,0.127006,0.267178,-0.016068,0.537844,0.516493,0.107316,-0.657603,43.064326,52.630068,-79.358530
41370,NaN,-7.610436,4.297047,4.549084,0.091027,-0.348799,0.033507,0.101515,0.173249,0.015800,0.537474,0.517359,0.107395,-0.657213,43.218496,52.699992,-79.245740
41371,NaN,-7.308077,4.292771,4.452836,0.163579,-0.473425,-0.251688,0.054911,0.162732,0.035216,0.537292,0.518077,0.107551,-0.656770,43.352118,52.758040,-79.125438
41372,NaN,-7.692163,4.068488,4.458670,-0.078548,-0.171987,-0.036905,0.019073,0.189044,0.058165,0.537264,0.518795,0.107833,-0.656179,43.491310,52.817517,-78.972327
41373,NaN,-7.850444,3.986953,4.449674,-0.171480,-0.049424,0.051034,0.044800,0.140567,0.090112,0.537300,0.519443,0.107820,-0.655639,43.638379,52.844312,-78.828043
41374,NaN,-7.920334,3.980257,4.445471,-0.196050,-0.003461,0.101842,0.021839,0.026766,0.151184,0.537657,0.519685,0.107416,-0.655220,43.745800,52.799306,-78.716864
41375,NaN,-7.329166,3.978643,4.320789,-0.070344,-0.259319,-0.424222,-0.004888,0.030610,0.212153,0.538281,0.519904,0.106953,-0.654611,43.873271,52.731858,-78.561309
41376,NaN,-7.447572,3.943007,4.206592,-0.068636,-0.086315,-0.394788,0.007946,0.096391,0.321793,0.539194,0.520427,0.106338,-0.653543,44.100648,52.647321,-78.289109
41377,NaN,-7.423037,3.999953,4.172612,-0.027767,-0.092401,-0.405116,0.002714,0.175768,0.371648,0.540239,0.521223,0.105826,-0.652127,44.392689,52.574963,-77.931591
41378,NaN,-7.534003,3.998933,4.186102,-0.083673,-0.032786,-0.311744,0.022154,0.254759,0.383598,0.541229,0.522330,0.105430,-0.650482,44.742080,52.528553,-77.515456
41379,NaN,-7.931428,4.069319,4.387937,-0.228811,0.031833,0.120460,0.018184,0.274073,0.351388,0.542111,0.523472,0.105185,-0.648867,45.082014,52.501759,-77.108294
41380,NaN,-8.199749,4.134170,4.272843,-0.180456,0.245681,0.311118,-0.014467,0.194105,0.321920,0.543023,0.524247,0.104904,-0.647523,45.344298,52.453100,-76.775118
41381,NaN,-7.940501,4.332470,4.264558,-0.006699,0.023991,0.187694,-0.015817,0.150148,0.312140,0.543928,0.524871,0.104535,-0.646317,45.577033,52.390168,-76.478127
41382,NaN,-7.951506,4.306025,4.178417,-0.005351,0.105649,0.148047,-0.073526,0.162796,0.283458,0.544884,0.525360,0.104461,-0.645125,45.767294,52.343114,-76.192671
41383,NaN,-8.210382,4.125776,3.815473,-0.006201,0.583769,0.119552,-0.018562,0.201343,0.190318,0.545374,0.526076,0.104560,-0.644111,45.961529,52.349429,-75.942025
41384,NaN,-8.940618,4.189747,3.802667,-0.076419,0.989719,0.721232,0.145315,0.203208,0.061613,0.545016,0.527174,0.104473,-0.643530,46.184066,52.408766,-75.774171
41385,NaN,-9.390173,4.627702,3.989655,0.092328,0.942043,1.350302,0.238150,-0.015507,-0.081372,0.544067,0.527748,0.103870,-0.643960,46.269438,52.440600,-75.846735
41386,NaN,-8.424727,5.111879,4.178084,0.526236,0.048940,0.877700,0.131256,-0.226007,-0.174030,0.543210,0.527302,0.103281,-0.645143,46.132094,52.426947,-76.122865
41387,NaN,-7.657581,4.962449,4.104652,0.579381,-0.292390,0.171870,-0.094181,-0.154455,-0.201558,0.542819,0.526462,0.103688,-0.646092,45.890220,52.452887,-76.368036
41388,NaN,-7.499770,4.308683,4.022661,0.143460,-0.075046,-0.275034,-0.187610,-0.039784,-0.169950,0.542717,0.525751,0.104622,-0.646605,45.671649,52.510736,-76.516057
41389,NaN,-7.611213,3.903483,4.001519,-0.172069,0.157065,-0.372052,-0.085385,0.041060,-0.109918,0.542497,0.525613,0.105290,-0.646794,45.586336,52.576469,-76.570014
41390,NaN,-7.734408,3.901165,4.020732,-0.196690,0.207489,-0.266762,0.026499,0.083232,-0.066019,0.542103,0.525934,0.105592,-0.646814,45.610056,52.640802,-76.567230
41391,NaN,-7.943665,4.129262,4.010396,-0.037881,0.236129,-0.005614,0.095744,0.127511,-0.060267,0.541520,0.526593,0.105778,-0.646736,45.700887,52.720838,-76.530092
41392,NaN,-8.318866,4.217633,4.276694,-0.174263,0.222038,0.444135,0.057568,0.064454,-0.038965,0.541142,0.526951,0.105858,-0.646747,45.746705,52.766558,-76.521915
41393,NaN,-8.006337,4.195916,4.273798,-0.146686,0.045520,0.184757,-0.015396,-0.032842,0.009636,0.541163,0.526827,0.105784,-0.646843,45.724303,52.753764,-76.547061
41394,NaN,-7.417063,4.050556,4.084846,-0.073413,-0.105532,-0.427099,-0.061526,-0.045746,0.076065,0.541528,0.526568,0.105649,-0.646771,45.702949,52.708217,-76.537546
41395,NaN,-7.348566,3.857636,4.152250,-0.263440,-0.112737,-0.536814,-0.055995,0.072264,0.167027,0.542109,0.526756,0.105577,-0.646142,45.796500,52.672853,-76.387683
41396,NaN,-7.347064,3.892843,3.967956,-0.145731,0.006238,-0.600905,0.023789,0.111346,0.242006,0.542702,0.527323,0.105153,-0.645250,45.995190,52.621657,-76.162836
41397,NaN,-7.955400,3.969954,3.619557,-0.002546,0.572571,-0.230301,0.126613,0.383065,0.204367,0.542757,0.529027,0.105236,-0.643794,46.380688,52.693441,-75.777291
41398,NaN,-8.857594,4.178200,4.221781,-0.347753,0.573018,0.831010,0.186403,0.339589,0.195172,0.542645,0.530742,0.105031,-0.642508,46.772766,52.750010,-75.426719
41399,NaN,-8.762531,4.825786,4.264031,0.131625,0.218398,1.058698,0.155314,0.204666,0.141970,0.542513,0.531914,0.104702,-0.641705,47.046697,52.775149,-75.202507
41400,NaN,-8.578056,4.675350,4.258977,0.026020,0.166529,0.843410,-0.103094,0.062787,0.075558,0.542930,0.531890,0.104992,-0.641324,47.059785,52.772061,-75.119831
41401,NaN,-7.914049,4.163529,3.774908,-0.004834,0.322929,-0.111514,-0.197354,0.002668,0.000852,0.543387,0.531382,0.105622,-0.641255,46.947798,52.777195,-75.126554
41402,NaN,-7.839086,3.922130,3.553260,-0.056916,0.525146,-0.369118,-0.066882,0.144676,-0.042695,0.543285,0.531657,0.106332,-0.640996,46.965984,52.855732,-75.063569
41403,NaN,-7.864982,4.288599,3.935197,0.017723,0.114772,-0.028910,0.041627,0.087738,-0.008967,0.543030,0.532065,0.106453,-0.640853,47.032933,52.898241,-75.017597
41404,NaN,-7.101259,4.485558,3.954921,0.281844,-0.426274,-0.542932,-0.017813,0.045183,0.023047,0.543060,0.532189,0.106561,-0.640707,47.058323,52.910307,-74.980901
41405,NaN,-6.346583,4.172791,4.073277,0.079490,-0.827895,-1.234159,-0.125980,0.008583,0.096639,0.543632,0.531944,0.106723,-0.640398,47.039939,52.877591,-74.921526
41406,NaN,-6.117587,3.988751,3.533951,0.264385,-0.507028,-1.719677,0.005664,0.249404,0.140320,0.543866,0.532848,0.106999,-0.639402,47.252640,52.919941,-74.666839
41407,NaN,-7.412834,3.858232,3.784715,-0.213068,0.096769,-0.641798,0.213898,0.414006,0.092254,0.543300,0.534819,0.107187,-0.638204,47.653545,53.045863,-74.326298
41408,NaN,-8.170308,4.423622,3.925773,0.003430,0.183602,0.271958,0.414647,0.371778,0.070081,0.542147,0.537183,0.106676,-0.637285,48.136170,53.163072,-74.027795
41409,NaN,-8.505541,4.902920,4.121398,0.183536,0.022077,0.833178,0.359291,0.210610,0.067854,0.541216,0.538881,0.105912,-0.636769,48.496211,53.218840,-73.843266
41410,NaN,-8.295605,4.887062,3.860168,0.326606,0.080984,0.554957,0.229516,0.073335,0.070073,0.540714,0.539787,0.105181,-0.636549,48.704095,53.220757,-73.755800
41411,NaN,-8.272355,4.547213,3.558675,0.211069,0.413419,0.264896,0.195520,0.025739,0.090449,0.540392,0.540464,0.104377,-0.636381,48.875880,53.196084,-73.689227
41412,NaN,-8.162271,4.571492,3.511372,0.255053,0.373532,0.169613,0.280745,0.020908,0.117593,0.539929,0.541365,0.103213,-0.636198,49.106609,53.157387,-73.609841
41413,NaN,-8.189541,4.755257,3.601821,0.318668,0.251286,0.311018,0.295334,0.028881,0.147620,0.539515,0.542348,0.101944,-0.635916,49.365544,53.108786,-73.505762
41414,NaN,-7.949597,4.606162,3.477173,0.286089,0.262824,0.003247,0.220923,0.034215,0.177233,0.539394,0.543158,0.100844,-0.635503,49.598586,53.048659,-73.380505
41415,NaN,-7.735571,4.508380,3.418697,0.249234,0.221103,-0.234538,0.266077,0.109451,0.230595,0.539280,0.544357,0.099660,-0.634760,49.927432,52.993021,-73.167784
41416,NaN,-7.380559,4.674744,3.610948,0.290711,-0.190493,-0.365791,0.328840,0.222401,0.299543,0.539156,0.546113,0.098392,-0.633554,50.390225,52.947279,-72.832010
41417,NaN,-6.920349,4.905687,3.922825,0.319930,-0.779317,-0.504865,0.323526,0.390411,0.417757,0.539332,0.548444,0.097271,-0.631560,51.004991,52.908543,-72.301941
41418,NaN,-7.033358,4.651183,3.939522,0.025385,-0.641108,-0.527787,0.268967,0.595433,0.506794,0.539833,0.551307,0.096629,-0.628732,51.750333,52.899145,-71.568631
41419,NaN,-7.769266,4.337159,3.707154,-0.302624,0.044941,-0.178317,0.375839,0.736205,0.559032,0.540124,0.554918,0.095885,-0.625410,52.665862,52.909407,-70.698910
41420,NaN,-8.411839,4.596087,3.686655,-0.313363,0.286629,0.448553,0.553638,0.773226,0.584112,0.539968,0.559119,0.094612,-0.621988,53.716760,52.911581,-69.787091
41421,NaN,-9.019195,5.002536,3.791624,-0.295909,0.353969,1.166094,0.591386,0.704001,0.566540,0.539667,0.563184,0.093083,-0.618804,54.739246,52.889084,-68.938069
41422,NaN,-9.141146,5.164673,3.837031,-0.328427,0.293186,1.357028,0.497225,0.540981,0.509256,0.539518,0.566447,0.091562,-0.616177,55.579612,52.831551,-68.249194
41423,NaN,-8.981241,5.199702,3.726076,-0.284407,0.248792,1.207293,0.364501,0.402947,0.425800,0.539541,0.568883,0.090315,-0.614094,56.220700,52.764210,-67.714652
41424,NaN,-8.793896,5.142090,3.690164,-0.328165,0.178773,1.015567,0.231879,0.331521,0.334466,0.539689,0.570692,0.089540,-0.612396,56.700536,52.714414,-67.286637
41425,NaN,-8.764811,4.855590,3.682007,-0.578794,0.273620,0.843103,0.066401,0.236055,0.242959,0.540068,0.571722,0.089275,-0.611139,56.987451,52.677179,-66.981904
41426,NaN,-8.825913,4.575121,3.507086,-0.726482,0.542337,0.689988,0.043275,0.108358,0.128104,0.540220,0.572243,0.089064,-0.610547,57.132638,52.654377,-66.838445
41427,NaN,-8.647665,4.587838,3.434004,-0.641892,0.492317,0.529863,0.067020,-0.044058,0.068926,0.540189,0.572340,0.088539,-0.610560,57.171663,52.612897,-66.845804
41428,NaN,-8.471470,4.497288,3.250838,-0.560986,0.574400,0.282593,0.041985,-0.177642,0.065986,0.540281,0.571956,0.087736,-0.610954,57.110596,52.530960,-66.960962
41429,NaN,-8.012481,4.408847,3.049427,-0.397285,0.516199,-0.194348,0.106939,-0.223312,0.073450,0.540228,0.571615,0.086592,-0.611484,57.062102,52.431527,-67.107515
41430,NaN,-8.139411,4.646342,3.203503,-0.343567,0.398596,0.077913,0.201487,-0.236547,0.073969,0.539912,0.571484,0.085120,-0.612091,57.059679,52.327302,-67.264310
41431,NaN,-8.025637,4.820703,3.123355,-0.137675,0.344211,0.049761,0.167087,-0.362764,0.064860,0.539717,0.570871,0.083440,-0.613066,56.956697,52.188397,-67.523787
41432,NaN,-6.937042,4.712483,2.951659,0.139937,-0.083234,-0.923604,0.165344,-0.275873,0.067630,0.539499,0.570516,0.081989,-0.613784,56.908140,52.074707,-67.713316
41433,NaN,-6.543638,4.750430,2.918877,0.268928,-0.288195,-1.224893,0.257970,-0.040092,0.142922,0.539148,0.571166,0.080678,-0.613661,57.088826,51.998967,-67.679823
41434,NaN,-6.636021,4.850051,3.174740,0.137220,-0.460729,-1.014533,0.297371,0.191116,0.226046,0.538846,0.572661,0.079629,-0.612669,57.466497,51.954256,-67.424715
41435,NaN,-7.017156,4.948995,3.401524,-0.060863,-0.456684,-0.588213,0.376549,0.294231,0.278377,0.538432,0.574706,0.078467,-0.611267,57.973531,51.914927,-67.062959
41436,NaN,-7.195276,5.413734,3.557425,0.093494,-0.673102,-0.154859,0.414323,0.387128,0.312539,0.537974,0.577141,0.077339,-0.609517,58.571697,51.884402,-66.612540
41437,NaN,-7.536045,5.404574,3.671462,-0.124356,-0.577816,0.143789,0.270132,0.428250,0.312752,0.537910,0.579311,0.076761,-0.607585,59.112794,51.863560,-66.129672
41438,NaN,-7.971393,5.226158,3.518813,-0.323532,-0.169551,0.341337,0.256124,0.400853,0.282325,0.537802,0.581341,0.076238,-0.605805,59.616330,51.846647,-65.684049
41439,NaN,-8.070956,5.362403,3.625998,-0.363047,-0.263414,0.523762,0.252087,0.294783,0.249467,0.537641,0.583026,0.075538,-0.604414,60.038662,51.813581,-65.338800
41440,NaN,-7.880963,5.484263,3.498168,-0.185566,-0.341881,0.398701,0.204300,0.260350,0.203711,0.537494,0.584455,0.075022,-0.603228,60.394255,51.791683,-65.043322
41441,NaN,-8.115137,5.540798,3.490464,-0.234037,-0.241262,0.609700,0.174591,0.220632,0.148801,0.537279,0.585665,0.074650,-0.602291,60.688181,51.785280,-64.804778
41442,NaN,-8.131797,5.628849,3.260079,-0.056133,-0.113069,0.599911,0.167440,0.124757,0.102740,0.536984,0.586546,0.074176,-0.601756,60.900213,51.774130,-64.665057
41443,NaN,-7.875600,5.772095,3.251422,0.103329,-0.314885,0.473422,0.152928,0.030482,0.069730,0.536664,0.587093,0.073590,-0.601579,61.032678,51.753363,-64.616187
41444,NaN,-7.882668,5.841840,3.126294,0.217456,-0.250223,0.479414,0.118460,-0.016679,0.080638,0.536497,0.587408,0.072948,-0.601500,61.118711,51.713679,-64.601114
41445,NaN,-7.637973,5.679818,2.812304,0.350154,-0.092095,0.105826,0.065640,0.002360,0.097746,0.536527,0.587647,0.072467,-0.601297,61.192916,51.670961,-64.562705
41446,NaN,-8.058926,5.329938,2.740812,0.017940,0.346308,0.224559,0.059295,-0.067025,0.118956,0.536667,0.587665,0.071755,-0.601240,61.226311,51.598122,-64.571510
41447,NaN,-7.096615,4.992252,2.131807,0.397630,0.389884,-0.895346,0.221477,-0.028360,0.162637,0.536445,0.588252,0.070533,-0.601009,61.392564,51.514277,-64.529511
41448,NaN,-7.360241,5.611931,2.623235,0.436950,-0.070002,-0.202677,0.432109,0.064532,0.239287,0.535800,0.589705,0.068699,-0.600372,61.763460,51.416716,-64.379953
41449,NaN,-7.210333,5.747264,2.474792,0.630601,-0.108047,-0.287189,0.282593,0.130334,0.230286,0.535543,0.590951,0.067518,-0.599509,62.086680,51.341186,-64.181773
41450,NaN,-7.212181,5.587934,2.440026,0.501635,-0.021095,-0.381776,0.219770,0.212694,0.232705,0.535450,0.592273,0.066737,-0.598375,62.425461,51.285386,-63.917179
41451,NaN,-7.434365,5.558337,2.560737,0.308477,0.023440,-0.188423,0.162699,0.208137,0.223745,0.535498,0.593425,0.066143,-0.597255,62.725447,51.232298,-63.660393
41452,NaN,-7.301229,5.262140,2.519965,0.129732,0.095836,-0.468052,0.108654,0.200034,0.188838,0.535605,0.594393,0.065790,-0.596235,62.976790,51.193838,-63.425925
41453,NaN,-7.086049,5.332101,2.605835,0.160290,-0.121248,-0.571836,0.115857,0.186728,0.174419,0.535649,0.595338,0.065424,-0.595293,63.219271,51.158936,-63.208211
41454,NaN,-6.912559,5.360197,2.782977,0.093288,-0.363016,-0.641012,0.094832,0.187427,0.155592,0.535699,0.596218,0.065177,-0.594392,63.443224,51.133027,-62.998525
41455,NaN,-6.976435,5.434723,2.814692,0.086516,-0.388322,-0.540631,0.085688,0.202805,0.145810,0.535741,0.597118,0.065029,-0.593467,63.668928,51.115800,-62.779998
41456,NaN,-7.221245,5.500717,3.034484,-0.096416,-0.443122,-0.252003,0.045654,0.157524,0.133228,0.535881,0.597769,0.064914,-0.592698,63.838150,51.092837,-62.604307
41457,NaN,-7.096642,5.479097,3.105294,-0.135848,-0.558059,-0.341902,0.022456,0.110779,0.109947,0.536034,0.598214,0.064814,-0.592121,63.957379,51.070027,-62.475927
41458,NaN,-7.467350,5.676542,3.479208,-0.349268,-0.698172,0.161273,-0.027606,-0.061808,0.099750,0.536363,0.598007,0.064428,-0.592074,63.934181,51.008731,-62.493555
41459,NaN,-6.840129,5.767598,3.635015,-0.195649,-1.176745,-0.229224,-0.147093,-0.338233,0.089478,0.537107,0.596660,0.063687,-0.592839,63.664902,50.882972,-62.740114
41460,NaN,-5.645162,5.462879,3.554471,0.010282,-1.624715,-1.344803,-0.380740,-0.586957,0.006292,0.538377,0.593914,0.063216,-0.594492,63.080900,50.734583,-63.220318
41461,NaN,-6.477434,5.790736,3.544989,0.048121,-1.230388,-0.509991,-0.142144,-0.823522,0.051784,0.539139,0.591115,0.061265,-0.596790,62.506092,50.498135,-63.866969
41462,NaN,-5.367881,6.491841,3.398333,1.005957,-1.962661,-1.001254,-0.471718,-1.642677,0.024451,0.541022,0.584946,0.058166,-0.601457,61.245703,50.047538,-65.162526
41463,NaN,-3.489786,4.982122,2.146329,1.301319,-1.464527,-3.667156,-0.867464,-1.749724,-0.068011,0.543769,0.577310,0.056234,-0.606519,59.694090,49.592703,-66.551202
41464,NaN,-2.611268,4.926341,1.727201,1.800280,-1.610948,-4.499078,-0.191183,-1.047866,0.139966,0.544964,0.573663,0.053554,-0.609144,59.030092,49.222970,-67.289687
41465,NaN,-2.624820,5.875959,2.282411,2.123471,-2.328087,-3.754914,0.163607,-0.294216,0.717239,0.546687,0.573421,0.050190,-0.608114,59.201307,48.788962,-67.195569
41466,NaN,-3.057119,5.669971,2.122142,1.918018,-1.840765,-3.573273,0.214147,0.693198,1.286347,0.549727,0.576441,0.047739,-0.602692,60.135208,48.358646,-66.122148
41467,NaN,-4.870661,5.273604,2.198348,0.988977,-0.619572,-2.396274,0.564973,1.380979,1.705393,0.552806,0.582547,0.044907,-0.594161,61.761574,47.893849,-64.381458
41468,NaN,-6.479026,5.841936,2.386159,0.611615,-0.009418,-0.789346,1.021065,1.858742,1.904264,0.554948,0.591280,0.041456,-0.583697,63.934248,47.414480,-62.242091
41469,NaN,-8.630143,6.767131,2.783870,0.039043,0.596498,1.485841,1.193824,2.082421,1.890760,0.556375,0.601015,0.038151,-0.572514,66.280580,46.939405,-59.984676
41470,NaN,-11.135401,7.817708,3.395221,-0.837975,1.170001,4.135741,1.110206,1.797122,1.680364,0.557388,0.609535,0.034917,-0.562643,68.320988,46.454339,-58.063820
41471,NaN,-12.571920,8.547777,3.856723,-1.484063,1.345223,5.742823,0.597136,1.110153,1.229176,0.558744,0.614537,0.032581,-0.555957,69.550196,46.031497,-56.844634
41472,NaN,-13.513882,8.247609,3.867508,-2.222777,2.000281,6.208018,-0.076796,0.199802,0.658181,0.560706,0.615003,0.031330,-0.553532,69.754493,45.723732,-56.507559
41473,NaN,-13.138301,7.457841,3.397439,-2.296006,2.506901,5.294211,-0.602717,-0.894945,0.188729,0.563147,0.610881,0.029908,-0.555694,68.961174,45.447687,-57.143764
41474,NaN,-9.990209,6.672628,1.960395,-0.559196,2.128976,2.158995,-0.894058,-1.801946,-0.253862,0.565346,0.603310,0.028091,-0.561794,67.427001,45.205114,-58.589642
41475,NaN,-7.086929,6.518227,1.652377,0.762301,0.794140,-0.105587,-0.868414,-1.637957,-0.425061,0.566908,0.596192,0.027180,-0.567831,65.969270,45.063427,-59.953446
41476,NaN,-6.102219,6.155682,1.438549,1.128096,0.558757,-1.117129,-0.890900,-1.112491,-0.383771,0.568543,0.590462,0.027697,-0.572142,64.789047,45.003477,-60.909019
41477,NaN,-5.493384,5.578764,1.358136,1.078458,0.494916,-1.955464,-0.781052,-0.460552,-0.185316,0.570309,0.586917,0.029166,-0.573956,64.060225,44.991069,-61.316075
41478,NaN,-6.063450,5.165170,1.751020,0.386818,0.739925,-1.700146,-0.535041,0.151882,0.045641,0.571919,0.585854,0.030997,-0.573343,63.845295,45.011390,-61.195447
41479,NaN,-6.907053,5.143815,2.011576,-0.081144,1.085783,-1.036178,-0.302026,0.479626,0.203408,0.573242,0.586420,0.032636,-0.571349,63.973071,45.033282,-60.779415
41480,NaN,-7.442689,5.396380,2.269642,-0.280938,1.130319,-0.415395,-0.138351,0.639055,0.275209,0.574260,0.587912,0.034052,-0.568705,64.294658,45.056754,-60.221906
41481,NaN,-7.829556,5.542231,2.584812,-0.551853,1.066702,0.049206,-0.138442,0.676249,0.260043,0.575220,0.589504,0.035621,-0.565985,64.632887,45.095132,-59.641431
41482,NaN,-8.017345,5.602874,2.663440,-0.661012,1.074641,0.245741,-0.171841,0.629649,0.203787,0.576121,0.590847,0.037314,-0.563553,64.914174,45.148928,-59.114459
41483,NaN,-7.882938,5.673836,2.589785,-0.543631,0.994049,0.175122,-0.204263,0.572017,0.132900,0.576922,0.591918,0.039143,-0.561482,65.131188,45.224181,-58.652820
41484,NaN,-7.797102,5.725884,2.636268,-0.521338,0.864090,0.162880,-0.267524,0.539597,0.075613,0.577751,0.592695,0.041225,-0.559657,65.281636,45.320198,-58.234214
41485,NaN,-7.814426,5.639467,2.574961,-0.556911,0.922728,0.103847,-0.341520,0.479274,0.024319,0.578662,0.593078,0.043492,-0.558137,65.347305,45.428177,-57.876234
41486,NaN,-8.047369,5.585469,2.569851,-0.678357,1.059415,0.236153,-0.336497,0.436164,-0.015204,0.579455,0.593338,0.045735,-0.556857,65.383890,45.545972,-57.563431
41487,NaN,-7.837414,5.620744,2.545864,-0.556075,0.920851,0.104068,-0.333096,0.361757,-0.031723,0.580202,0.593397,0.047804,-0.555842,65.380368,45.654851,-57.310445
41488,NaN,-7.773008,5.548839,2.379749,-0.474937,1.011528,-0.033951,-0.303709,0.330207,-0.055651,0.580802,0.593441,0.049769,-0.554995,65.371041,45.768378,-57.089222
41489,NaN,-7.762517,5.546098,2.509994,-0.543268,0.889761,-0.003044,-0.243465,0.317026,-0.096358,0.581109,0.593614,0.051651,-0.554316,65.380479,45.900316,-56.890782
41490,NaN,-7.646782,5.602397,2.409312,-0.390290,0.857112,-0.077294,-0.193258,0.300865,-0.138658,0.581154,0.593871,0.053471,-0.553821,65.399623,46.050042,-56.718960
41491,NaN,-7.558491,5.717207,2.443452,-0.287076,0.719021,-0.056241,-0.125459,0.289459,-0.149586,0.580966,0.594293,0.055104,-0.553406,65.450125,46.203074,-56.558337
41492,NaN,-7.432541,5.849259,2.512988,-0.178982,0.527081,-0.042237,-0.100842,0.261332,-0.146855,0.580721,0.594703,0.056576,-0.553074,65.500170,46.347494,-56.417888
41493,NaN,-7.422229,5.869087,2.591704,-0.199813,0.431965,-0.013400,-0.091245,0.239423,-0.142975,0.580460,0.595085,0.057949,-0.552795,65.545973,46.485039,-56.291599
41494,NaN,-7.184118,5.879650,2.503475,-0.042087,0.337372,-0.203650,-0.073094,0.215235,-0.124952,0.580203,0.595452,0.059146,-0.552542,65.593231,46.606949,-56.177522
41495,NaN,-7.010818,6.007812,2.512762,0.113440,0.167959,-0.246172,-0.009188,0.263623,-0.112542,0.579772,0.596145,0.060272,-0.552125,65.708210,46.734149,-56.021305
41496,NaN,-7.092404,6.270655,2.704805,0.154886,-0.042376,0.031774,0.032333,0.306562,-0.099044,0.579244,0.597076,0.061365,-0.551553,65.874411,46.863673,-55.827397
41497,NaN,-7.084809,6.395267,2.797600,0.188886,-0.185846,0.129659,-0.023495,0.332911,-0.079443,0.578923,0.597926,0.062632,-0.550826,66.029983,46.989163,-55.605046
41498,NaN,-7.425423,6.290334,2.844121,-0.044336,-0.023380,0.325935,-0.109484,0.344118,-0.094819,0.578815,0.598547,0.064211,-0.550083,66.139112,47.124516,-55.378918
41499,NaN,-7.582679,6.141028,2.855140,-0.213253,0.078644,0.351433,-0.129559,0.285225,-0.112667,0.578732,0.598944,0.065731,-0.549558,66.200650,47.255791,-55.202857
41500,NaN,-7.517580,6.054296,2.777764,-0.196306,0.106258,0.228956,-0.120786,0.243689,-0.146501,0.578545,0.599237,0.067206,-0.549258,66.235143,47.394678,-55.070416
41501,NaN,-7.497824,6.023316,2.737282,-0.176904,0.112723,0.184631,-0.092389,0.236617,-0.166995,0.578214,0.599587,0.068645,-0.549046,66.277998,47.543059,-54.949393
41502,NaN,-7.486738,6.065906,2.767696,-0.150189,0.044314,0.211385,-0.054436,0.242040,-0.166742,0.577771,0.600057,0.069993,-0.548830,66.345704,47.692039,-54.824072
41503,NaN,-7.355432,6.069878,2.679365,-0.037908,0.013487,0.093024,-0.047334,0.236187,-0.146333,0.577359,0.600541,0.071245,-0.548572,66.420619,47.829298,-54.695172
41504,NaN,-7.311724,6.075761,2.728375,-0.039836,-0.074033,0.077363,-0.035035,0.239615,-0.117242,0.576991,0.601075,0.072384,-0.548224,66.511895,47.951493,-54.553605
41505,NaN,-7.364222,6.180412,2.767255,-0.003563,-0.130996,0.190800,-0.047111,0.210066,-0.096379,0.576724,0.601504,0.073410,-0.547899,66.585592,48.056285,-54.427007
41506,NaN,-7.423955,6.251907,2.819083,0.001738,-0.178048,0.292606,-0.112602,0.143930,-0.097951,0.576676,0.601558,0.074427,-0.547754,66.582308,48.146355,-54.353240
41507,NaN,-7.316244,6.224385,2.728158,0.090134,-0.166402,0.171169,-0.213304,0.088819,-0.120839,0.576884,0.601164,0.075632,-0.547801,66.483876,48.236352,-54.330187
41508,NaN,-7.226428,6.096530,2.590688,0.130807,-0.073523,-0.010746,-0.241651,0.111339,-0.141562,0.577115,0.600738,0.077040,-0.547829,66.376331,48.341990,-54.297253
41509,NaN,-7.140200,5.950696,2.542496,0.107164,-0.043714,-0.177124,-0.260866,0.130991,-0.157048,0.577349,0.600307,0.078605,-0.547833,66.265942,48.460736,-54.253819
41510,NaN,-7.173134,5.828310,2.451758,0.076516,0.072941,-0.251153,-0.230004,0.188454,-0.150348,0.577487,0.600119,0.080229,-0.547658,66.208325,48.588858,-54.163274
41511,NaN,-7.259151,5.812007,2.439646,0.053171,0.118338,-0.199691,-0.159361,0.209115,-0.141276,0.577425,0.600198,0.081694,-0.547419,66.206810,48.717443,-54.052454
41512,NaN,-7.285800,5.905014,2.399540,0.144236,0.116744,-0.134082,-0.120884,0.211913,-0.122875,0.577300,0.600398,0.083005,-0.547136,66.233558,48.836599,-53.933217
41513,NaN,-7.259912,5.916797,2.470535,0.132711,0.025393,-0.127645,-0.124390,0.214118,-0.131413,0.577156,0.600593,0.084359,-0.546866,66.258530,48.961117,-53.814255
41514,NaN,-7.345622,5.860487,2.518014,0.042678,0.032941,-0.084331,-0.119922,0.200630,-0.151070,0.576952,0.600751,0.085718,-0.546696,66.272430,49.092396,-53.713219
41515,NaN,-7.317790,5.887886,2.501231,0.095481,0.004558,-0.093417,-0.105057,0.162493,-0.163220,0.576684,0.600845,0.086965,-0.546679,66.269560,49.221656,-53.646166
41516,NaN,-7.270410,5.866002,2.538150,0.091046,-0.057879,-0.132843,-0.123944,0.129566,-0.152472,0.576517,0.600795,0.088135,-0.546722,66.238134,49.337288,-53.602278
41517,NaN,-7.260447,5.852535,2.565435,0.084264,-0.091526,-0.141481,-0.144392,0.092473,-0.123832,0.576503,0.600600,0.089169,-0.546784,66.180787,49.429755,-53.577529
41518,NaN,-7.336799,5.773594,2.598780,-0.008152,-0.058892,-0.121809,-0.157122,0.059436,-0.083769,0.576654,0.600291,0.090021,-0.546824,66.105951,49.493189,-53.565867
41519,NaN,-7.327564,5.700621,2.571917,-0.031609,-0.021163,-0.179226,-0.158581,0.033205,-0.047775,0.576917,0.599926,0.090694,-0.546837,66.024637,49.532083,-53.561985
41520,NaN,-7.355309,5.638146,2.531392,-0.057325,0.045560,-0.205823,-0.123588,0.033475,-0.013811,0.577169,0.599674,0.091169,-0.546768,65.972037,49.552869,-53.546366
41521,NaN,-7.388075,5.595299,2.470623,-0.063954,0.123560,-0.222294,-0.087263,0.066668,0.009096,0.577357,0.599632,0.091574,-0.546548,65.967629,49.569813,-53.495130
41522,NaN,-7.549813,5.574562,2.435170,-0.122684,0.236729,-0.120713,-0.021770,0.133415,0.001717,0.577301,0.599953,0.092012,-0.546181,66.039077,49.605758,-53.393218
41523,NaN,-7.666609,5.740005,2.484099,-0.076664,0.190957,0.079376,0.048224,0.220045,-0.035915,0.576889,0.600700,0.092625,-0.545692,66.194737,49.681785,-53.233863
41524,NaN,-7.931160,5.864930,2.608381,-0.161410,0.163737,0.387872,0.059598,0.312792,-0.072948,0.576300,0.601710,0.093582,-0.545038,66.404262,49.797871,-53.012335
41525,NaN,-8.299781,5.878161,2.692981,-0.345989,0.248940,0.699663,0.031466,0.330383,-0.119471,0.575656,0.602667,0.094809,-0.544448,66.598030,49.942326,-52.791116
41526,NaN,-8.420054,5.862364,2.701524,-0.407168,0.275505,0.785477,-0.013877,0.261754,-0.171650,0.575041,0.603276,0.096117,-0.544194,66.709248,50.097858,-52.643852
41527,NaN,-8.464823,5.776582,2.770348,-0.513922,0.242842,0.787963,-0.042541,0.147810,-0.230650,0.574402,0.603467,0.097355,-0.544437,66.717659,50.258962,-52.609755
41528,NaN,-8.279696,5.656149,2.703901,-0.473396,0.220630,0.559565,-0.071088,0.022851,-0.278126,0.573782,0.603208,0.098453,-0.545180,66.616684,50.416274,-52.696229
41529,NaN,-7.850825,5.602382,2.552628,-0.238084,0.127274,0.160531,-0.063964,-0.021207,-0.295604,0.573111,0.602843,0.099459,-0.546106,66.486826,50.573071,-52.825581
41530,NaN,-7.525842,5.545764,2.434888,-0.064505,0.061515,-0.152747,-0.068652,0.014738,-0.291742,0.572448,0.602559,0.100567,-0.546911,66.376703,50.735447,-52.925296
41531,NaN,-7.444690,5.502755,2.449584,-0.050075,0.006645,-0.236593,-0.062561,0.070850,-0.261137,0.571818,0.602464,0.101730,-0.547460,66.314793,50.895028,-52.967425
41532,NaN,-7.431872,5.517155,2.467243,-0.025891,-0.036788,-0.233703,-0.053216,0.130053,-0.207945,0.571277,0.602580,0.102873,-0.547683,66.310655,51.039848,-52.941643
41533,NaN,-7.523511,5.515946,2.432088,-0.029873,0.019938,-0.172012,-0.080360,0.153993,-0.138929,0.570991,0.602722,0.103953,-0.547621,66.327031,51.154424,-52.869900
41534,NaN,-7.594322,5.374397,2.319083,-0.093343,0.175738,-0.226427,-0.085583,0.184238,-0.104341,0.570802,0.602946,0.105027,-0.547367,66.369633,51.257315,-52.760441
41535,NaN,-7.715907,5.368765,2.280789,-0.118604,0.249982,-0.143962,-0.030135,0.222994,-0.096216,0.570444,0.603441,0.106037,-0.547001,66.472939,51.365198,-52.614410
41536,NaN,-7.849776,5.497725,2.373252,-0.120207,0.177604,0.057989,-0.015906,0.234601,-0.105967,0.570012,0.603998,0.107069,-0.546634,66.589258,51.480216,-52.462055
41537,NaN,-7.971355,5.504831,2.412817,-0.178966,0.179022,0.167455,-0.033087,0.241978,-0.133144,0.569549,0.604515,0.108253,-0.546312,66.694370,51.611494,-52.312038
41538,NaN,-8.043141,5.505635,2.395516,-0.190108,0.203209,0.220515,-0.022427,0.205999,-0.160694,0.569001,0.604944,0.109386,-0.546182,66.773849,51.748508,-52.202418
41539,NaN,-8.126098,5.694191,2.537788,-0.144355,0.045414,0.428148,-0.048573,0.112730,-0.192492,0.568492,0.605029,0.110423,-0.546410,66.768023,51.881627,-52.182807
41540,NaN,-8.051276,5.614452,2.516525,-0.144134,0.037083,0.319232,-0.149408,0.048187,-0.244631,0.568183,0.604618,0.111708,-0.546924,66.645090,52.027091,-52.238240
41541,NaN,-7.816330,5.418913,2.478005,-0.154076,0.009987,0.014633,-0.182126,-0.047524,-0.260184,0.567979,0.603846,0.112859,-0.547752,66.434200,52.159286,-52.381618
41542,NaN,-7.457455,5.210892,2.316651,-0.059381,0.032169,-0.424969,-0.185015,-0.099574,-0.271142,0.567786,0.602911,0.113901,-0.548766,66.181238,52.284399,-52.575549
41543,NaN,-7.107154,4.915803,2.137772,-0.028999,0.099454,-0.911225,-0.129515,-0.018515,-0.269898,0.567377,0.602359,0.115019,-0.549561,66.014866,52.427738,-52.700258
41544,NaN,-7.012621,4.819408,2.017976,0.014227,0.167850,-1.069269,0.062743,0.120169,-0.221640,0.566444,0.602757,0.115854,-0.549912,66.066508,52.577504,-52.688452
41545,NaN,-7.001566,5.016220,1.978799,0.190994,0.103002,-0.977933,0.205593,0.255258,-0.127622,0.565256,0.603987,0.116398,-0.549670,66.322537,52.709707,-52.522828
41546,NaN,-7.225122,5.121629,1.985026,0.170911,0.134531,-0.739303,0.303358,0.407786,-0.031066,0.563950,0.605962,0.116809,-0.548749,66.769991,52.824824,-52.187082
41547,NaN,-7.724721,5.341194,2.145803,0.037269,0.124100,-0.180084,0.390628,0.487704,0.045808,0.562536,0.608446,0.116976,-0.547416,67.348913,52.915894,-51.749941
41548,NaN,-8.215286,5.657881,2.308517,-0.032052,0.068495,0.425757,0.408851,0.462299,0.078841,0.561170,0.610921,0.116916,-0.546072,67.931425,52.980757,-51.321506
41549,NaN,-8.516862,5.907909,2.513392,-0.104781,-0.084878,0.852165,0.320497,0.346681,0.077344,0.560129,0.612831,0.116780,-0.545029,68.383458,53.019922,-50.993687
41550,NaN,-8.604553,5.953868,2.468672,-0.106132,-0.053326,0.937524,0.171754,0.206855,0.034124,0.559509,0.613912,0.116786,-0.544448,68.639049,53.051078,-50.804881
41551,NaN,-8.526058,5.800684,2.375881,-0.153348,0.019914,0.768545,0.065953,0.119409,-0.028670,0.559089,0.614425,0.117032,-0.544247,68.755612,53.097667,-50.714585
41552,NaN,-8.571822,5.760470,2.415469,-0.221819,0.010222,0.791290,0.007301,0.057158,-0.085641,0.558735,0.614567,0.117435,-0.544363,68.777949,53.161215,-50.699799
41553,NaN,-8.513585,5.699404,2.309434,-0.178275,0.082096,0.687754,-0.075199,0.013166,-0.133807,0.558525,0.614334,0.118091,-0.544700,68.708975,53.241837,-50.740357
41554,NaN,-8.323280,5.462021,2.314571,-0.269266,0.068029,0.404491,-0.127525,-0.040343,-0.167069,0.558420,0.613786,0.118838,-0.545263,68.561384,53.328503,-50.841215
41555,NaN,-8.163959,5.246314,2.219702,-0.297749,0.145380,0.136749,-0.138023,-0.074563,-0.188392,0.558305,0.613105,0.119588,-0.545983,68.377338,53.419662,-50.980210
41556,NaN,-8.002420,5.201322,2.180689,-0.226434,0.117234,-0.025817,-0.099885,-0.076832,-0.189940,0.558072,0.612519,0.120228,-0.546737,68.211600,53.510411,-51.123128
41557,NaN,-7.839994,5.151440,2.097733,-0.138290,0.125367,-0.201837,-0.069681,-0.069666,-0.164117,0.557810,0.612055,0.120730,-0.547414,68.075815,53.589245,-51.250486
41558,NaN,-7.755159,5.145622,2.146482,-0.121772,0.045664,-0.262275,-0.032561,-0.026703,-0.118922,0.557534,0.611835,0.121108,-0.547856,68.004262,53.652618,-51.324044
41559,NaN,-7.837590,5.148836,2.117414,-0.125387,0.102286,-0.200425,0.011796,-0.007724,-0.068660,0.557246,0.611825,0.121267,-0.548125,67.987033,53.693852,-51.361987
41560,NaN,-7.786828,5.271713,2.180162,-0.044459,-0.019148,-0.159895,0.062811,-0.004461,-0.017077,0.556944,0.611994,0.121134,-0.548273,68.015736,53.707865,-51.378875
41561,NaN,-7.808720,5.341702,2.246271,-0.036999,-0.095530,-0.089256,0.075320,0.097106,-0.033850,0.556493,0.612469,0.121305,-0.548163,68.120990,53.753062,-51.310015
41562,NaN,-7.796212,5.453379,2.293663,0.022641,-0.199474,-0.027965,0.093758,0.257828,-0.092584,0.555729,0.613396,0.122048,-0.547736,68.336258,53.863031,-51.117679
41563,NaN,-8.038879,5.676680,2.494150,-0.009883,-0.363154,0.333098,0.050116,0.361089,-0.123831,0.554946,0.614467,0.123297,-0.547050,68.595127,54.011412,-50.841101
41564,NaN,-8.429247,5.648456,2.548851,-0.205089,-0.256665,0.644170,-0.092969,0.375230,-0.151921,0.554518,0.615156,0.125059,-0.546308,68.775734,54.176594,-50.560171
41565,NaN,-8.518911,5.299183,2.485693,-0.461035,-0.072346,0.512718,-0.185810,0.284860,-0.169524,0.554378,0.615331,0.126880,-0.545833,68.833516,54.332615,-50.365903
41566,NaN,-8.484942,5.115615,2.305109,-0.476503,0.102937,0.348001,-0.174787,0.168336,-0.189250,0.554227,0.615201,0.128406,-0.545776,68.805183,54.474524,-50.285366
41567,NaN,-8.258463,5.177919,2.123129,-0.228783,0.114532,0.160037,-0.165676,0.073801,-0.197499,0.554080,0.614835,0.129674,-0.546038,68.709553,54.601777,-50.294292
41568,NaN,-7.945292,5.103282,1.957495,-0.062687,0.128141,-0.169941,-0.152533,0.054031,-0.165092,0.553998,0.614468,0.130747,-0.546279,68.615121,54.707092,-50.310674
41569,NaN,-7.823953,4.952340,1.711132,0.009881,0.319670,-0.401758,-0.084510,0.126661,-0.123404,0.553768,0.614518,0.131711,-0.546224,68.627323,54.805848,-50.244484
41570,NaN,-7.920943,4.929622,1.612987,0.011601,0.434080,-0.354589,0.045344,0.214379,-0.079282,0.553206,0.615192,0.132424,-0.545863,68.793234,54.898717,-50.081088
41571,NaN,-7.925364,5.136612,1.681344,0.125960,0.280624,-0.224757,0.144254,0.290017,-0.052272,0.552357,0.616365,0.132997,-0.545259,69.083052,54.992877,-49.836046
41572,NaN,-7.890591,5.383435,1.692019,0.309355,0.135868,-0.117769,0.177745,0.358082,-0.056366,0.551351,0.617809,0.133675,-0.544477,69.443885,55.101708,-49.527775
41573,NaN,-7.833274,5.507713,1.748024,0.382711,-0.018462,-0.086243,0.134708,0.415957,-0.086655,0.550350,0.619272,0.134726,-0.543568,69.818927,55.237740,-49.172924
41574,NaN,-8.009073,5.386417,1.693362,0.244085,0.103771,-0.016988,0.071131,0.437286,-0.153877,0.549350,0.620566,0.136212,-0.542732,70.157272,55.412355,-48.818758
41575,NaN,-7.740134,5.172120,1.545259,0.257640,0.143034,-0.380757,0.036704,0.451624,-0.264176,0.548141,0.621728,0.138176,-0.542128,70.460563,55.648618,-48.484374
41576,NaN,-7.810060,4.958194,1.275604,0.214872,0.418673,-0.486053,0.092673,0.560181,-0.399067,0.546315,0.623236,0.140701,-0.541590,70.848884,55.976755,-48.086775
41577,NaN,-8.059984,5.235828,1.342218,0.309165,0.296751,-0.117602,0.166794,0.607541,-0.472932,0.544014,0.625017,0.143385,-0.541149,71.306300,56.352574,-47.659084
41578,NaN,-8.317572,5.360607,1.373159,0.306117,0.255835,0.169499,0.107175,0.570149,-0.493931,0.541864,0.626507,0.146190,-0.540833,71.701531,56.730721,-47.266538
41579,NaN,-8.347822,5.116278,1.379138,0.123137,0.287348,0.069944,0.009279,0.435982,-0.464615,0.540188,0.627386,0.148805,-0.540778,71.945274,57.068213,-46.989797
41580,NaN,-8.133706,4.732870,1.226298,0.008681,0.421654,-0.332025,-0.002356,0.319370,-0.423212,0.538746,0.627940,0.151002,-0.540964,72.098785,57.361497,-46.813118
41581,NaN,-7.795127,4.485823,0.920023,0.120610,0.592858,-0.792330,0.076213,0.340440,-0.397447,0.537103,0.628781,0.152965,-0.541070,72.326554,57.644595,-46.602665
41582,NaN,-7.839152,4.471273,0.937967,0.094898,0.551914,-0.756721,0.198160,0.404021,-0.336050,0.535194,0.630160,0.154571,-0.540901,72.699361,57.903991,-46.303661
41583,NaN,-7.947150,4.635388,0.953492,0.174349,0.465818,-0.576587,0.278077,0.434929,-0.241570,0.533257,0.631908,0.155748,-0.540437,73.176884,58.116155,-45.936287
41584,NaN,-8.256414,4.664331,0.969639,0.064957,0.505600,-0.294050,0.314381,0.453355,-0.157157,0.531418,0.633859,0.156605,-0.539715,73.718075,58.282719,-45.518894
41585,NaN,-8.640535,4.722030,0.827379,0.024119,0.697636,0.043959,0.342557,0.389707,-0.062381,0.529787,0.635786,0.156919,-0.538960,74.248310,58.385479,-45.134294
41586,NaN,-9.644207,4.990279,0.960272,-0.232916,0.812286,1.055685,0.508111,0.206742,0.006662,0.527960,0.637705,0.156077,-0.538731,74.727654,58.419789,-44.920742
41587,NaN,-9.845736,5.070639,1.008879,-0.278607,0.799101,1.275664,0.329105,-0.299400,-0.083815,0.526846,0.637717,0.154673,-0.540210,74.628542,58.427641,-45.266202
41588,NaN,-8.225436,5.155097,0.563996,0.636366,0.544713,-0.125109,0.313900,-0.471343,-0.194900,0.525615,0.637130,0.153207,-0.542515,74.336959,58.469300,-45.826841
41589,NaN,-8.178256,5.285595,0.453581,0.835183,0.568917,-0.117024,0.319070,-0.286537,-0.212504,0.524169,0.637043,0.152270,-0.544276,74.210031,58.548868,-46.197871
41590,NaN,-8.537286,5.074812,0.538935,0.516985,0.712829,0.094583,0.300045,-0.236851,-0.175131,0.522850,0.637063,0.151392,-0.545765,74.124305,58.614669,-46.507185
41591,NaN,-8.750944,4.882479,0.460784,0.351325,0.931765,0.169212,0.366619,-0.256054,-0.163690,0.521357,0.637213,0.150249,-0.547331,74.062773,58.671521,-46.833020
41592,NaN,-8.499283,4.966584,0.524643,0.484985,0.742890,0.005302,0.473077,-0.301257,-0.174213,0.519530,0.637501,0.148725,-0.549146,74.016616,58.726310,-47.211667
41593,NaN,-8.357376,5.275943,0.640834,0.718828,0.454274,0.054880,0.485728,-0.253629,-0.181157,0.517599,0.637946,0.147315,-0.550830,74.019661,58.792964,-47.541403
41594,NaN,-8.366052,5.539286,2.002132,0.169687,-0.774303,0.388033,0.340473,-0.306743,0.008207,0.516694,0.637999,0.145559,-0.552084,73.939121,58.746219,-47.871124
41595,NaN,-6.184005,5.161251,1.873027,0.709146,-1.328645,-1.681242,0.017707,-0.316397,0.250017,0.517485,0.637370,0.143900,-0.552505,73.731033,58.565017,-48.134450
41596,NaN,-6.346650,4.657131,1.704395,0.344202,-0.896245,-1.815690,0.035450,0.181149,0.443183,0.518398,0.638292,0.142860,-0.550853,74.029564,58.356164,-47.815432
41597,NaN,-9.169387,4.467222,2.221522,-1.126036,-0.138126,0.564286,0.151028,0.241777,0.474465,0.518977,0.639703,0.141561,-0.549002,74.453088,58.138961,-47.426943
41598,NaN,-10.337903,4.555252,2.279566,-1.552859,0.246403,1.604262,0.120720,-0.123283,0.343021,0.519552,0.639932,0.139814,-0.548639,74.498564,57.936996,-47.462324
41599,NaN,-10.472782,4.881836,2.239082,-1.347944,0.233654,1.877190,0.122201,-0.462440,0.166439,0.519868,0.639113,0.137750,-0.549815,74.205689,57.780565,-47.898745
41600,NaN,-10.423754,5.352165,2.628920,-1.177084,-0.243995,2.135785,0.009756,-0.718757,-0.012085,0.520228,0.637163,0.135895,-0.552194,73.582687,57.679246,-48.649643
41601,NaN,-10.154097,5.693268,2.628189,-0.773596,-0.418075,2.089080,-0.187486,-0.976585,-0.119826,0.521080,0.633907,0.134258,-0.555529,72.600986,57.589043,-49.692568
41602,NaN,-10.264576,5.765601,2.785876,-0.760020,-0.430193,2.253799,-0.397932,-1.229150,-0.237996,0.522427,0.629296,0.132913,-0.559813,71.254326,57.506357,-51.025726
41603,NaN,-10.262529,5.514574,2.828090,-0.845830,-0.234353,2.143664,-0.705983,-1.501063,-0.385947,0.524475,0.622988,0.132182,-0.565101,69.464634,57.432249,-52.676486
41604,NaN,-9.887794,5.062231,2.637127,-0.797292,0.091666,1.575928,-0.886606,-1.756011,-0.512433,0.526855,0.615345,0.131672,-0.571347,67.325842,57.340683,-54.619999
41605,NaN,-8.987409,4.914747,2.764838,-0.524292,-0.197019,0.782332,-0.938434,-1.876906,-0.631182,0.529072,0.607076,0.131346,-0.578179,65.029217,57.243617,-56.718125
41606,NaN,-8.219147,4.659391,2.586856,-0.216563,-0.160840,-0.020885,-1.033512,-1.857054,-0.695409,0.531318,0.598492,0.131522,-0.584987,62.682540,57.138036,-58.813078
41607,NaN,-7.477945,4.190391,2.385802,-0.096694,-0.037387,-0.915647,-1.032034,-1.734554,-0.707842,0.533375,0.590195,0.132044,-0.591393,60.442587,57.027535,-60.784728
41608,NaN,-6.777471,3.907524,2.162629,0.130143,0.011983,-1.697211,-0.847581,-1.450326,-0.681124,0.534731,0.583186,0.132684,-0.596952,58.548993,56.947211,-62.471270
41609,NaN,-6.183838,3.961620,2.237684,0.388026,-0.292366,-2.150794,-0.595077,-1.033545,-0.626162,0.535200,0.578098,0.133519,-0.601279,57.143460,56.941648,-63.749192
41610,NaN,-6.004831,4.096864,2.452002,0.498993,-0.568332,-2.178408,-0.456040,-0.530072,-0.550564,0.535144,0.574925,0.135057,-0.604021,56.223297,57.043444,-64.542410
41611,NaN,-6.646394,4.005791,2.621688,0.239226,-0.345103,-1.632367,-0.350434,-0.107105,-0.458439,0.534766,0.573368,0.137145,-0.605364,55.715125,57.232438,-64.916105
41612,NaN,-7.544905,4.070639,2.846508,0.003227,-0.119157,-0.780304,-0.214766,0.073293,-0.388144,0.534089,0.572762,0.139098,-0.606090,55.448333,57.444540,-65.094356
41613,NaN,-8.228979,4.327011,3.047791,-0.021135,-0.062486,-0.028839,-0.140605,0.034463,-0.349268,0.533338,0.572263,0.140614,-0.606872,55.213048,57.625942,-65.285444
41614,NaN,-9.277168,4.558765,3.197015,-0.109347,0.225949,1.004238,-0.141923,-0.135798,-0.406651,0.532537,0.571198,0.141840,-0.608291,54.817679,57.777083,-65.664465
41615,NaN,-10.038433,4.560639,3.152663,-0.181899,0.638629,1.635770,-0.227243,-0.599498,-0.538763,0.531897,0.568399,0.142471,-0.611318,53.956880,57.833534,-66.535471
41616,NaN,-9.364861,4.344975,2.977396,-0.015801,0.575345,0.916320,-0.269715,-1.071288,-0.646928,0.531372,0.563947,0.142276,-0.615926,52.666845,57.768743,-67.884801
41617,NaN,-8.492169,4.241311,2.799779,0.288110,0.385030,0.072235,-0.200421,-1.253495,-0.719529,0.530528,0.559044,0.141585,-0.621260,51.252835,57.656175,-69.429235
41618,NaN,-7.966376,4.253404,2.751562,0.535394,0.213802,-0.389732,-0.123387,-1.244372,-0.740294,0.529373,0.554325,0.140726,-0.626645,49.887616,57.535394,-70.969970
41619,NaN,-7.572057,4.330326,2.790205,0.747556,0.005115,-0.685080,-0.053659,-1.170126,-0.699476,0.528070,0.550027,0.139729,-0.631734,48.648041,57.406686,-72.411360
41620,NaN,-7.279002,4.543220,3.047391,0.915805,-0.381591,-0.761370,-0.013546,-1.045042,-0.611370,0.526830,0.546266,0.138683,-0.636247,47.577398,57.271878,-73.681365
41621,NaN,-7.214535,4.719099,3.298306,1.006218,-0.633672,-0.659345,-0.061776,-0.952591,-0.485979,0.526034,0.542744,0.137692,-0.640123,46.625497,57.109224,-74.779494
41622,NaN,-7.309327,4.748470,3.317014,1.072588,-0.565541,-0.565741,-0.165153,-0.870105,-0.343750,0.525908,0.539294,0.136854,-0.643314,45.763896,56.910274,-75.701440
41623,NaN,-7.425223,4.473177,3.356859,0.868478,-0.371235,-0.565030,-0.280389,-0.813105,-0.194737,0.526519,0.535819,0.136136,-0.645866,44.974752,56.667028,-76.460337
41624,NaN,-7.256673,4.186722,3.514768,0.618980,-0.406741,-0.757714,-0.315917,-0.739884,-0.055708,0.527618,0.532569,0.135347,-0.647821,44.306140,56.391663,-77.052455
41625,NaN,-7.119633,4.058222,3.604076,0.520081,-0.440546,-0.886164,-0.315843,-0.608152,0.086273,0.529076,0.529837,0.134529,-0.649040,43.813430,56.111355,-77.435133
41626,NaN,-7.159007,4.011831,3.699132,0.449615,-0.420795,-0.832135,-0.291183,-0.441029,0.213613,0.530769,0.527790,0.133730,-0.649491,43.516669,55.847799,-77.599519
41627,NaN,-7.163049,3.958348,4.067355,0.216684,-0.623344,-0.697563,-0.292964,-0.309092,0.306444,0.532672,0.526229,0.133045,-0.649340,43.355139,55.602837,-77.599680
41628,NaN,-7.585709,3.961843,4.169600,0.118165,-0.432999,-0.303574,-0.371482,-0.070664,0.300202,0.534603,0.525221,0.133262,-0.648524,43.281619,55.459083,-77.438359
41629,NaN,-8.889800,3.739800,4.420317,-0.353759,0.205619,0.788558,-0.412312,0.061459,0.080776,0.535836,0.524388,0.134543,-0.647916,43.127386,55.457371,-77.346640
41630,NaN,-8.571089,3.290412,4.183384,-0.543069,0.378461,0.254729,-0.378255,0.026019,-0.068701,0.536521,0.523425,0.136007,-0.647823,42.881076,55.498793,-77.390226
41631,NaN,-8.628148,3.067670,4.091654,-0.666678,0.556708,0.179448,-0.139735,0.040518,-0.158481,0.536276,0.523090,0.136976,-0.648092,42.724791,55.581799,-77.490494
41632,NaN,-8.591447,3.320800,4.310101,-0.552875,0.265143,0.338257,0.064080,0.037416,-0.167530,0.535473,0.523281,0.137296,-0.648533,42.677046,55.666289,-77.600489
41633,NaN,-8.419119,3.566361,4.559463,-0.453487,-0.123364,0.393601,0.097941,0.071046,-0.137542,0.534652,0.523695,0.137521,-0.648828,42.686420,55.753929,-77.664860
41634,NaN,-8.151014,3.525711,4.694848,-0.527714,-0.368508,0.212131,0.073741,0.095353,-0.063714,0.534120,0.524171,0.137692,-0.648846,42.741078,55.822475,-77.657505
41635,NaN,-7.895597,3.585841,4.731768,-0.474995,-0.572627,0.037936,0.146939,0.146662,0.009421,0.533595,0.525061,0.137575,-0.648583,42.912988,55.884732,-77.559285
41636,NaN,-7.888880,3.986798,4.923621,-0.258913,-0.888696,0.262736,0.192788,0.154454,0.051939,0.533084,0.526125,0.137215,-0.648218,43.142146,55.932793,-77.423592
41637,NaN,-8.335681,4.462067,4.989525,0.029546,-0.896683,0.840200,0.127558,0.200682,0.009544,0.532572,0.527137,0.137304,-0.647798,43.335412,56.017116,-77.286337
41638,NaN,-8.977756,4.417817,4.749602,0.037501,-0.370596,1.256962,-0.081284,0.143074,-0.091767,0.532323,0.527334,0.138179,-0.647655,43.312900,56.116533,-77.264961
41639,NaN,-9.226631,4.058979,4.365917,-0.072576,0.175114,1.170540,-0.156793,0.038723,-0.177085,0.532067,0.526935,0.139250,-0.647962,43.132984,56.206451,-77.381140
41640,NaN,-8.998386,3.969924,4.272600,-0.043777,0.147672,0.909373,-0.119804,-0.093145,-0.219496,0.531669,0.526173,0.139958,-0.648754,42.869579,56.256864,-77.623038
41641,NaN,-8.487007,4.040615,4.210672,0.139238,-0.111081,0.485556,-0.137122,-0.176942,-0.205123,0.531418,0.525106,0.140464,-0.649714,42.556195,56.266314,-77.913127
41642,NaN,-8.000240,3.986038,4.245453,0.162555,-0.371572,0.074255,-0.195145,-0.214784,-0.160729,0.531492,0.523789,0.140938,-0.650613,42.215558,56.241104,-78.195930
41643,NaN,-7.523541,3.925778,4.198959,0.220185,-0.559568,-0.363614,-0.239737,-0.221470,-0.087971,0.531920,0.522384,0.141352,-0.651303,41.892633,56.184780,-78.426921
41644,NaN,-7.407790,3.821373,4.030463,0.259031,-0.439568,-0.568095,-0.244142,-0.219496,-0.001641,0.532640,0.521030,0.141556,-0.651754,41.624016,56.095131,-78.589563
41645,NaN,-7.404251,3.740521,4.022372,0.214780,-0.382840,-0.603934,-0.243258,-0.226427,0.062100,0.533567,0.519703,0.141576,-0.652052,41.393963,55.978442,-78.706619
41646,NaN,-7.622365,3.616970,4.071295,0.076291,-0.227475,-0.447820,-0.233276,-0.219957,0.102513,0.534596,0.518448,0.141472,-0.652231,41.199787,55.848484,-78.787330
41647,NaN,-7.686788,3.491764,4.065773,-0.021328,-0.113928,-0.442729,-0.207972,-0.234432,0.129501,0.535653,0.517234,0.141179,-0.652390,41.030431,55.702479,-78.855791
41648,NaN,-7.743963,3.408191,4.096462,-0.105266,-0.047090,-0.413093,-0.153401,-0.217519,0.131375,0.536565,0.516218,0.140745,-0.652539,40.903415,55.562476,-78.910852
41649,NaN,-7.879093,3.397455,4.143527,-0.147830,0.019425,-0.285392,-0.095088,-0.175076,0.103913,0.537204,0.515480,0.140309,-0.652691,40.816489,55.451608,-78.957995
41650,NaN,-8.149939,3.449206,4.288429,-0.205998,0.059448,0.019055,-0.038196,-0.107140,0.064953,0.537523,0.515086,0.139967,-0.652813,40.774596,55.384256,-78.989979
41651,NaN,-8.398972,3.572268,4.273254,-0.120279,0.173180,0.263029,0.014012,-0.091668,0.047774,0.537638,0.514874,0.139543,-0.652976,40.760540,55.330545,-79.024607
41652,NaN,-8.534224,3.703763,4.333740,-0.056494,0.161151,0.449036,0.051453,-0.054887,0.023013,0.537553,0.514862,0.139156,-0.653138,40.772112,55.301549,-79.054078
41653,NaN,-8.651717,3.822154,4.446459,-0.029335,0.101821,0.638190,0.067981,-0.044513,-0.015053,0.537291,0.514904,0.138844,-0.653387,40.775145,55.291816,-79.105559
41654,NaN,-8.613557,3.808659,4.486702,-0.056158,0.057949,0.619150,0.030955,-0.054239,-0.036984,0.537062,0.514797,0.138681,-0.653694,40.737765,55.285540,-79.180303
41655,NaN,-8.451139,3.725921,4.382935,-0.050099,0.076860,0.410127,0.020541,-0.056719,-0.044207,0.536835,0.514652,0.138567,-0.654019,40.688780,55.281377,-79.262001
41656,NaN,-8.222409,3.716138,4.301921,0.011363,0.013715,0.183506,0.060866,-0.050156,-0.030011,0.536549,0.514643,0.138298,-0.654317,40.675147,55.274216,-79.328713
41657,NaN,-8.003145,3.715581,4.276959,0.046090,-0.089609,-0.007684,0.085164,-0.025739,-0.003042,0.536269,0.514801,0.137950,-0.654497,40.705726,55.268115,-79.358675
41658,NaN,-7.833092,3.782410,4.193677,0.158276,-0.149263,-0.158489,0.093570,0.008442,0.049576,0.536118,0.515126,0.137527,-0.654453,40.792276,55.256668,-79.326290
41659,NaN,-7.725766,3.772676,4.155983,0.168976,-0.177803,-0.266350,0.114861,0.048467,0.118377,0.536107,0.515690,0.136967,-0.654136,40.955781,55.237237,-79.215177
41660,NaN,-7.699996,3.940433,4.255132,0.240867,-0.329583,-0.181675,0.145486,0.087469,0.184832,0.536210,0.516505,0.136237,-0.653561,41.198912,55.208896,-79.028359
41661,NaN,-7.867294,4.050941,4.406320,0.208814,-0.389945,0.062755,0.141666,0.139441,0.238121,0.536458,0.517517,0.135524,-0.652704,41.501018,55.182725,-78.767092
41662,NaN,-7.957882,4.162356,4.527259,0.197089,-0.471103,0.231629,0.110408,0.151091,0.286402,0.536937,0.518513,0.134816,-0.651665,41.820564,55.141850,-78.462548
41663,NaN,-8.045192,4.162742,4.560217,0.136795,-0.444115,0.318110,0.076537,0.146722,0.331797,0.537651,0.519435,0.134092,-0.650490,42.145467,55.081194,-78.127714
41664,NaN,-7.945969,4.122411,4.678456,0.014929,-0.567680,0.271856,0.111938,0.187048,0.370735,0.538373,0.520605,0.133256,-0.649128,42.535106,55.020942,-77.738313
41665,NaN,-7.961191,4.436699,4.944353,0.089648,-0.875688,0.518644,0.209420,0.246795,0.388637,0.538855,0.522243,0.132220,-0.647623,43.023530,54.977575,-77.296356
41666,NaN,-8.071245,4.840518,5.166111,0.242446,-1.137044,0.860288,0.210137,0.297704,0.401354,0.539341,0.524050,0.131282,-0.645948,43.547135,54.947777,-76.811635
41667,NaN,-8.073893,5.026144,5.175647,0.339349,-1.220506,0.940553,0.097225,0.331660,0.427902,0.540180,0.525678,0.130732,-0.644032,44.040333,54.919400,-76.284963
41668,NaN,-8.248721,5.048234,5.104797,0.322215,-1.085502,1.064015,0.001098,0.373836,0.466378,0.541366,0.527201,0.130501,-0.641834,44.523817,54.889982,-75.702551
41669,NaN,-8.444705,5.137828,5.000930,0.374774,-0.939548,1.218913,-0.052627,0.402149,0.504486,0.542791,0.528691,0.130419,-0.639417,45.014098,54.854161,-75.074034
41670,NaN,-8.486195,5.372693,4.855606,0.593421,-0.903366,1.290909,-0.153248,0.449645,0.506021,0.544451,0.530054,0.130781,-0.636798,45.473809,54.833579,-74.412098
41671,NaN,-8.587073,5.483809,4.703054,0.706600,-0.785191,1.359274,-0.279393,0.564903,0.518699,0.546402,0.531443,0.131824,-0.633747,45.935584,54.851089,-73.659316
41672,NaN,-8.919199,5.531943,4.529957,0.741481,-0.506811,1.583285,-0.402632,0.679092,0.512518,0.548577,0.532841,0.133582,-0.630318,46.391136,54.912762,-72.828091
41673,NaN,-9.312859,5.392620,4.392487,0.591932,-0.161186,1.794513,-0.553673,0.748403,0.467179,0.550950,0.534001,0.136125,-0.626711,46.778901,55.017259,-71.974889
41674,NaN,-9.645854,5.259636,4.429901,0.374498,0.011105,2.027491,-0.669925,0.695701,0.386513,0.553404,0.534606,0.139098,-0.623372,47.026579,55.131977,-71.212367
41675,NaN,-9.462879,5.136146,4.169113,0.432056,0.135582,1.724319,-0.867252,0.504409,0.282747,0.556179,0.533984,0.142430,-0.620677,46.990650,55.214792,-70.658581
41676,NaN,-9.064538,4.564615,3.726503,0.270562,0.453327,0.985904,-1.156165,0.359758,0.170697,0.559464,0.532011,0.146552,-0.618455,46.639295,55.288612,-70.287683
41677,NaN,-8.775277,3.677717,3.253604,-0.154009,0.960911,0.195800,-1.221657,0.269777,0.059278,0.562623,0.529477,0.150915,-0.616712,46.133287,55.374757,-70.059628
41678,NaN,-9.180027,3.198235,3.440718,-0.694379,1.182274,0.407886,-0.876823,0.193446,-0.017177,0.564675,0.527603,0.154198,-0.615630,45.734286,55.462892,-69.941744
41679,NaN,-9.459563,3.740899,3.735229,-0.388948,0.930077,0.976806,-0.534919,-0.031809,-0.066892,0.565838,0.525957,0.155922,-0.615536,45.368066,55.481578,-70.022047
41680,NaN,-9.337732,4.447179,3.952465,0.173797,0.494560,1.247044,-0.483355,-0.210394,0.020823,0.567271,0.523971,0.156749,-0.615701,44.976933,55.392034,-70.168393
41681,NaN,-9.294658,4.444303,3.996827,0.195139,0.476149,1.225972,-0.699689,-0.268876,0.101453,0.569558,0.521251,0.157865,-0.615613,44.477322,55.245725,-70.296338
41682,NaN,-8.803311,3.929099,3.831182,-0.038423,0.537950,0.546991,-0.866233,-0.148297,0.076686,0.572099,0.518397,0.159898,-0.615142,43.938763,55.157982,-70.355485
41683,NaN,-8.651276,3.446305,3.495091,-0.236946,0.878798,0.092297,-0.805390,0.167429,-0.037566,0.573868,0.516591,0.162941,-0.614215,43.548628,55.246195,-70.276566
41684,NaN,-9.077473,3.315727,3.411373,-0.362163,1.184887,0.360641,-0.680756,0.565654,-0.228511,0.574394,0.516197,0.167234,-0.612899,43.341473,55.575252,-70.062092
41685,NaN,-9.614188,3.346249,3.425221,-0.406944,1.377852,0.831425,-0.644458,0.867320,-0.505645,0.573707,0.516590,0.172993,-0.611612,43.161266,56.139754,-69.841623
41686,NaN,-10.118296,3.286873,3.252430,-0.421345,1.690960,1.174725,-0.729856,0.943647,-0.816369,0.572201,0.516676,0.180026,-0.610920,42.779923,56.857857,-69.805031
41687,NaN,-10.323549,2.914313,2.956438,-0.572816,2.021447,1.114015,-0.851079,0.860772,-1.098134,0.570185,0.515881,0.187912,-0.611101,42.085144,57.650503,-70.059089
41688,NaN,-9.804486,2.571161,2.714464,-0.566213,1.936821,0.484536,-0.805917,0.749433,-1.342591,0.567373,0.514605,0.195957,-0.612267,41.154678,58.485959,-70.618798
41689,NaN,-10.074512,2.568951,2.788012,-0.508607,1.897943,0.770535,-0.634688,0.579195,-1.521969,0.563693,0.513081,0.203442,-0.614499,40.048185,59.309110,-71.493961
41690,NaN,-9.763507,2.805261,2.745382,-0.073278,1.620141,0.584413,-0.653336,0.276305,-1.596498,0.560098,0.510456,0.210306,-0.617653,38.632034,60.014724,-72.708366
41691,NaN,-9.143770,2.697802,2.479489,0.184517,1.500792,-0.078944,-0.750033,0.218550,-1.553973,0.556898,0.507391,0.217182,-0.620686,37.098958,60.663484,-73.985698
41692,NaN,-9.208726,2.242054,2.124339,0.047477,1.887012,-0.285096,-0.806365,0.314449,-1.517706,0.553808,0.504464,0.224391,-0.623267,35.560499,61.326771,-75.223705
41693,NaN,-9.263165,1.694152,1.666985,-0.147110,2.378014,-0.551121,-0.823367,0.372379,-1.484182,0.550756,0.501675,0.231710,-0.625540,34.015249,61.990232,-76.451191
41694,NaN,-9.365309,1.093060,1.067868,-0.361450,3.023998,-0.825633,-0.753347,0.463459,-1.412019,0.547610,0.499405,0.238865,-0.627424,32.565757,62.658885,-77.607646
41695,NaN,-9.913149,0.462412,0.645345,-0.731302,3.722577,-0.619939,-0.540985,0.591118,-1.338299,0.543975,0.498179,0.245503,-0.628997,31.324967,63.354793,-78.660004
41696,NaN,-10.402243,0.200446,0.590714,-0.888867,3.962885,-0.215856,-0.140843,0.650508,-1.366886,0.539150,0.498156,0.251101,-0.630956,30.261088,64.078230,-79.763578
41697,NaN,-10.723038,0.523528,1.006442,-0.642417,3.540292,0.352028,0.263992,0.690251,-1.562935,0.532609,0.499082,0.255996,-0.633807,29.189674,64.868338,-81.126769
41698,NaN,-11.170597,1.131866,1.422864,-0.109672,3.055659,1.083860,0.366993,0.688868,-1.866405,0.524806,0.499833,0.261300,-0.637548,27.756890,65.727239,-82.942214
41699,NaN,-11.014106,1.319218,1.645435,0.170227,2.595088,1.095558,0.259543,0.598473,-2.155056,0.516407,0.499586,0.267397,-0.642056,25.752146,66.591619,-85.304113
41700,NaN,-10.517489,0.964607,1.596539,0.075127,2.408638,0.593294,0.152093,0.549726,-2.344299,0.507665,0.498577,0.274153,-0.646945,23.255548,67.437106,-88.117401
41701,NaN,-9.955509,0.527763,1.480348,-0.076283,2.298499,-0.000036,0.147336,0.550152,-2.426695,0.498587,0.497373,0.281091,-0.651935,20.448167,68.249428,-91.246697
41702,NaN,-9.222084,0.199534,1.398106,-0.162987,2.078338,-0.719226,0.213118,0.575183,-2.410461,0.489290,0.496354,0.287790,-0.656814,17.493948,69.011244,-94.556744
41703,NaN,-8.601219,-0.005712,1.268648,-0.151776,1.914984,-1.333487,0.297876,0.698235,-2.298128,0.479897,0.496033,0.294191,-0.661136,14.580660,69.760408,-97.858286
41704,NaN,-8.368172,-0.165453,1.200584,-0.139071,1.827080,-1.558317,0.406564,0.827164,-2.120856,0.470565,0.496590,0.300059,-0.664779,11.825859,70.499798,-101.041737
41705,NaN,-8.205721,-0.373562,1.168647,-0.206041,1.756262,-1.706523,0.528566,0.903624,-1.916728,0.461431,0.497929,0.305162,-0.667850,9.275335,71.210216,-104.068392
41706,NaN,-8.289492,-0.486455,1.126601,-0.183003,1.744541,-1.618621,0.651394,0.894073,-1.700166,0.452680,0.499796,0.309254,-0.670557,6.962365,71.854645,-106.907002
41707,NaN,-8.401132,-0.553192,1.019263,-0.103434,1.790262,-1.523731,0.798753,0.781512,-1.459307,0.444494,0.501947,0.311972,-0.673162,4.969118,72.387247,-109.488801
41708,NaN,-8.359547,-0.552768,0.898786,0.016158,1.794444,-1.580178,0.941859,0.585108,-1.231879,0.436991,0.504068,0.313171,-0.675928,3.326230,72.771778,-111.782850
41709,NaN,-8.084295,-0.418591,0.828665,0.200877,1.656525,-1.848219,1.009510,0.372669,-1.057049,0.430206,0.505865,0.313226,-0.678906,1.951818,73.013284,-113.832510
41710,NaN,-7.848197,-0.372495,0.757992,0.301936,1.586821,-2.086242,0.998279,0.208043,-0.946662,0.424066,0.507220,0.312659,-0.682013,0.733907,73.143879,-115.709994
41711,NaN,-8.072326,-0.539708,0.690305,0.266683,1.742784,-1.886688,0.983022,0.082708,-0.892170,0.418317,0.508182,0.311737,-0.685261,-0.412226,73.192964,-117.502221
41712,NaN,-8.173578,-0.807402,0.797763,0.058017,1.777202,-1.754554,1.005610,-0.098808,-0.891941,0.412784,0.508540,0.310332,-0.688978,-1.537600,73.126076,-119.286608
41713,NaN,-8.164969,-1.068512,0.982958,-0.187191,1.732994,-1.704919,1.123343,-0.249554,-0.893558,0.407150,0.508601,0.308210,-0.693224,-2.575433,72.964862,-121.050833
41714,NaN,-8.106488,-1.082723,1.483250,-0.368772,1.310750,-1.613109,1.366127,-0.289205,-0.835660,0.401145,0.509070,0.304989,-0.697791,-3.332284,72.772871,-122.668506
41715,NaN,-7.834247,-0.774460,2.109955,-0.384947,0.580393,-1.692222,1.560017,-0.207667,-0.771471,0.394707,0.510280,0.301081,-0.702261,-3.850591,72.626297,-124.153906
41716,NaN,-7.878908,-0.317003,2.575335,-0.175197,-0.019027,-1.519381,1.531616,-0.063626,-0.738275,0.388221,0.511944,0.297437,-0.706207,-4.325940,72.557819,-125.578371
41717,NaN,-8.099896,-0.129324,2.800338,-0.065793,-0.252665,-1.245382,1.257925,-0.004883,-0.709623,0.382415,0.513301,0.294795,-0.709491,-4.912663,72.521999,-126.955318
41718,NaN,-8.466708,-0.394979,2.596828,-0.093120,0.132959,-0.949381,0.924941,-0.090157,-0.692718,0.377642,0.513714,0.293101,-0.712444,-5.634595,72.431981,-128.274750
41719,NaN,-8.772609,-0.823046,2.414990,-0.254820,0.583562,-0.698825,0.728875,-0.335605,-0.702158,0.373677,0.512859,0.291670,-0.715730,-6.427814,72.197921,-129.551953
41720,NaN,-8.495928,-0.915766,2.362586,-0.291743,0.633068,-0.974432,0.711717,-0.720202,-0.698332,0.370328,0.510577,0.289550,-0.719951,-7.105599,71.738713,-130.700235
41721,NaN,-7.901914,-0.642337,2.554043,-0.206554,0.238266,-1.489491,0.724922,-1.158448,-0.619317,0.367836,0.506839,0.286368,-0.725124,-7.502955,71.034492,-131.564088
41722,NaN,-7.346627,-0.310532,2.798780,-0.098209,-0.196406,-1.948020,0.735097,-1.554906,-0.463631,0.366435,0.501863,0.281992,-0.730985,-7.511203,70.114164,-132.026139
41723,NaN,-6.553242,-0.158019,3.181031,-0.279595,-0.679818,-2.563746,0.700453,-1.779023,-0.205611,0.366339,0.496331,0.276675,-0.736819,-7.091740,69.087389,-132.013131
41724,NaN,-6.080938,-0.397575,3.458237,-0.679136,-0.766108,-2.881179,0.750734,-1.687166,0.163772,0.367328,0.491690,0.270385,-0.741757,-6.149905,68.135719,-131.470410
41725,NaN,-7.127958,-0.661117,3.667477,-0.723815,-0.352746,-1.809853,1.095669,-1.333950,0.541917,0.368354,0.489468,0.262526,-0.745531,-4.604621,67.403296,-130.485644
41726,NaN,-8.387163,-0.325132,4.345256,-0.526761,-0.540731,-0.391487,1.627660,-1.063399,0.847727,0.368837,0.489582,0.252394,-0.748710,-2.444763,66.823110,-129.160399
41727,NaN,-9.198155,0.639312,5.284454,-0.146294,-1.392293,0.721857,1.980832,-0.847190,0.980106,0.368621,0.491268,0.240997,-0.751462,-0.002475,66.349732,-127.742221
41728,NaN,-10.329389,1.824913,6.488971,0.274075,-2.449969,2.272488,1.970498,-0.718489,0.869712,0.367820,0.493212,0.230101,-0.753992,2.225376,65.927138,-126.547626
41729,NaN,-10.405623,2.740692,7.413574,0.364103,-3.482180,2.776526,1.487601,-0.767160,0.588942,0.367161,0.493717,0.221617,-0.756520,3.760892,65.470987,-125.804557
41730,NaN,-10.310635,2.760636,7.733094,0.113748,-3.608925,2.863763,0.835008,-0.795009,0.266029,0.366910,0.492525,0.216322,-0.758947,4.488941,65.004739,-125.536627
41731,NaN,-11.827750,2.288041,6.705455,0.744929,-1.968888,3.813078,0.377575,-0.857014,-0.050830,0.366631,0.489908,0.213434,-0.761589,4.550373,64.517987,-125.714478
41732,NaN,-7.925991,1.861295,10.407469,-2.650550,-5.479426,1.915398,-0.387570,-1.533915,0.210998,0.369938,0.483564,0.211558,-0.764562,4.426581,63.631440,-125.612244
41733,NaN,-5.134554,2.048126,5.832399,-0.457645,-3.392561,-2.542504,-0.130787,-1.307993,-0.192197,0.370817,0.478110,0.210091,-0.767963,4.014222,62.892357,-125.996763
41734,NaN,-8.560977,2.039374,8.482516,-0.989130,-3.880123,1.735806,-0.451853,-0.662548,-0.427851,0.370876,0.474271,0.211600,-0.769898,3.227343,62.527960,-126.597987
41735,NaN,-5.996493,1.284149,6.471285,-1.001649,-2.963808,-1.464314,-0.909769,-1.251770,-0.439471,0.372577,0.467287,0.213807,-0.772733,2.156670,61.823165,-127.225999
41736,NaN,-5.683582,0.391424,5.676238,-1.221576,-1.951791,-2.107269,-0.704175,-0.939958,-0.335763,0.373853,0.461973,0.215538,-0.774828,1.361114,61.289517,-127.679104
41737,NaN,-5.062227,0.440443,5.511550,-1.205337,-2.082138,-2.712764,-0.275290,-0.707664,-0.047577,0.374989,0.458662,0.215379,-0.776289,1.129836,60.884205,-127.769997
41738,NaN,-5.527836,1.007089,6.013418,-0.885086,-2.572790,-2.045467,0.119982,-0.100213,0.310314,0.375956,0.458830,0.213993,-0.776105,1.508746,60.821408,-127.422104
41739,NaN,-7.010442,1.503517,6.415472,-0.317911,-2.566097,-0.545600,0.214408,0.349510,0.573276,0.377236,0.461199,0.212489,-0.774491,2.225444,61.010259,-126.749491
41740,NaN,-8.345432,1.324164,6.267435,-0.059355,-1.830318,0.547152,0.076951,0.513507,0.695498,0.379133,0.464065,0.211535,-0.772110,3.010059,61.284834,-125.911240
41741,NaN,-9.171445,0.827150,5.741303,-0.006253,-0.845907,1.006088,0.087685,0.578425,0.648308,0.380742,0.467145,0.210774,-0.769666,3.769242,61.593212,-125.111015
41742,NaN,-10.849349,1.235023,4.655120,1.286997,0.282754,1.984206,0.460630,0.568878,0.428651,0.380643,0.470657,0.209062,-0.768040,4.526076,61.899586,-124.558620
41743,NaN,-11.923208,2.461552,4.973221,2.279903,-0.278269,3.136421,0.916825,-0.010832,0.042939,0.378583,0.472400,0.205405,-0.768975,5.087833,61.891035,-124.524220
41744,NaN,-9.222680,3.720505,5.285995,2.332924,-2.307025,0.961206,0.863821,-0.521152,-0.315967,0.375787,0.471699,0.201822,-0.771720,5.190610,61.609020,-124.976581
41745,NaN,-8.037361,4.255042,5.496628,2.308051,-3.244216,0.039489,0.418371,-0.243918,-0.546353,0.372861,0.470990,0.201023,-0.773778,4.824225,61.496844,-125.672875
41746,NaN,-8.080138,2.857685,5.391951,1.344533,-2.289040,-0.041287,-0.214633,-0.118086,-0.660828,0.370856,0.469464,0.203169,-0.775108,3.990415,61.457559,-126.489099
41747,NaN,-7.334556,1.211637,5.146529,0.070416,-1.392147,-0.879204,-0.341524,-0.101918,-0.675050,0.369069,0.467747,0.205872,-0.776285,3.071392,61.422555,-127.319672
41748,NaN,-6.430217,0.456966,4.879212,-0.572432,-1.108608,-1.824799,-0.211465,0.080787,-0.528164,0.367358,0.467122,0.208058,-0.776889,2.392101,61.482085,-127.962250
41749,NaN,-6.871759,0.392461,5.566033,-0.871931,-1.395939,-1.115173,-0.018548,0.371534,-0.332598,0.365649,0.468183,0.209573,-0.776650,2.037134,61.701387,-128.360757
41750,NaN,-7.872192,0.390346,7.026120,-1.414391,-2.044206,0.449408,-0.262097,0.341245,-0.267482,0.364794,0.468745,0.211821,-0.776103,1.606144,61.900439,-128.686571
41751,NaN,-7.220047,-0.810125,6.511500,-2.214140,-1.231303,-0.391121,-0.663392,0.456339,-0.346473,0.364445,0.468933,0.216022,-0.774995,0.855150,62.165083,-129.113532
41752,NaN,-8.803367,-1.962256,5.812040,-2.216312,0.466879,0.675341,-0.553981,0.573077,-0.430215,0.363384,0.469671,0.220200,-0.773869,0.065735,62.494000,-129.653630
41753,NaN,-9.235144,-1.872114,5.151140,-1.630689,0.937855,0.760294,-0.047267,0.348617,-0.492838,0.361129,0.470386,0.222157,-0.773931,-0.515597,62.691324,-130.284945
41754,NaN,-9.706918,-0.411309,5.124357,-0.340191,0.137390,1.165369,0.354753,0.245067,-0.532521,0.357890,0.471377,0.222459,-0.774745,-0.915483,62.826371,-130.970442
41755,NaN,-10.004230,0.905788,4.992644,0.850483,-0.559790,1.358467,0.244399,0.067179,-0.593443,0.354864,0.471408,0.223015,-0.775957,-1.448045,62.856387,-131.733344
41756,NaN,-10.190513,1.311667,4.337581,1.635734,-0.354529,1.213639,-0.099573,-0.088752,-0.663267,0.352552,0.470141,0.224788,-0.777268,-2.248854,62.791618,-132.576502
41757,NaN,-9.882840,1.002809,3.767834,1.701205,0.093453,0.673937,-0.278128,-0.256402,-0.705729,0.350675,0.467853,0.227058,-0.778836,-3.185602,62.624077,-133.458249
41758,NaN,-8.913098,0.614964,3.479452,1.337371,0.189493,-0.320418,-0.234147,-0.258040,-0.666932,0.348846,0.465673,0.229057,-0.780377,-4.042446,62.450538,-134.279840
41759,NaN,-8.371517,0.452980,3.794370,0.918894,-0.124704,-0.657111,-0.160880,-0.140552,-0.549012,0.347165,0.464209,0.230701,-0.781514,-4.730385,62.344413,-134.959109
41760,NaN,-8.252446,0.053642,4.190608,0.396056,-0.198023,-0.567651,-0.244897,-0.065438,-0.395088,0.346194,0.463066,0.232441,-0.782106,-5.300876,62.285208,-135.452043
41761,NaN,-8.126765,-0.776455,4.416027,-0.368780,0.123530,-0.539224,-0.333605,0.006824,-0.268747,0.345834,0.462198,0.234363,-0.782206,-5.791840,62.272323,-135.797741
41762,NaN,-8.354462,-1.504950,4.557412,-0.903872,0.548620,-0.235951,-0.228977,0.105401,-0.194311,0.345409,0.461981,0.235870,-0.782069,-6.152420,62.318626,-136.063973
41763,NaN,-8.640903,-1.789785,4.747849,-1.122091,0.672063,0.122091,-0.037723,0.138595,-0.150299,0.344672,0.462275,0.236588,-0.782003,-6.361494,62.386180,-136.282588
41764,NaN,-8.550765,-1.686524,4.885155,-1.150641,0.463776,0.101222,0.051623,0.164642,-0.117072,0.343830,0.462864,0.236920,-0.781925,-6.486379,62.470186,-136.463976
41765,NaN,-8.238573,-1.746533,4.663441,-1.181572,0.540299,-0.274130,0.024550,0.193038,-0.063146,0.343225,0.463581,0.237286,-0.781655,-6.573374,62.573898,-136.584858
41766,NaN,-8.210503,-1.971531,4.341703,-1.192334,0.884300,-0.434735,0.095694,0.263790,-0.016464,0.342555,0.464750,0.237384,-0.781225,-6.576821,62.720717,-136.657591
41767,NaN,-8.492912,-1.680668,4.278584,-0.864182,0.814531,-0.228840,0.302621,0.308387,0.019502,0.341487,0.466490,0.236669,-0.780872,-6.428878,62.895458,-136.693141
41768,NaN,-9.307266,-0.563974,4.674232,-0.007558,0.056306,0.617479,0.463364,0.320061,-0.003480,0.339943,0.468519,0.235394,-0.780717,-6.213794,63.075288,-136.756817
41769,NaN,-9.926446,0.285842,4.751329,0.765719,-0.374167,1.162959,0.268963,0.163760,-0.081721,0.338726,0.469513,0.234799,-0.780827,-6.179891,63.161465,-136.898502
41770,NaN,-9.862675,0.218139,4.150839,1.036913,0.051842,0.839614,0.081353,-0.009023,-0.176821,0.337785,0.469402,0.234862,-0.781283,-6.338136,63.143070,-137.135197
41771,NaN,-9.609123,0.128697,3.953301,1.015379,0.163230,0.527657,0.168363,-0.123249,-0.221744,0.336594,0.468939,0.234501,-0.782183,-6.483261,63.056665,-137.413024
41772,NaN,-9.325954,0.512330,4.099782,1.144263,-0.274969,0.319397,0.239946,-0.212932,-0.231703,0.335304,0.468231,0.233728,-0.783391,-6.584167,62.918107,-137.687698
41773,NaN,-8.780293,0.445921,4.267784,0.838811,-0.505544,-0.089152,0.116125,-0.239826,-0.222685,0.334366,0.467221,0.233377,-0.784500,-6.741569,62.764786,-137.946321
41774,NaN,-8.662283,-0.253757,4.267714,0.306257,-0.068221,-0.157926,0.040966,-0.234954,-0.206190,0.333665,0.466120,0.233286,-0.785479,-6.920961,62.614793,-138.181751
41775,NaN,-8.428353,-0.783696,4.284869,-0.150306,0.211277,-0.328800,0.106607,-0.248117,-0.178547,0.332930,0.465110,0.232853,-0.786517,-7.029740,62.459198,-138.380141
41776,NaN,-8.469847,-0.934033,4.347449,-0.262147,0.294156,-0.254667,0.211010,-0.187489,-0.156366,0.331972,0.464535,0.232055,-0.787497,-7.060245,62.339295,-138.558125
41777,NaN,-8.682207,-0.876175,4.524329,-0.231612,0.211386,0.011752,0.218918,-0.134470,-0.170151,0.330875,0.464166,0.231349,-0.788384,-7.108542,62.248736,-138.761318
41778,NaN,-8.792950,-0.884978,4.568262,-0.209281,0.227696,0.130778,0.200800,-0.109597,-0.204664,0.329659,0.463823,0.230832,-0.789247,-7.205831,62.169505,-139.008491
41779,NaN,-8.684175,-0.727370,4.388370,-0.012054,0.209802,-0.057813,0.213663,-0.071132,-0.230873,0.328260,0.463622,0.230391,-0.790076,-7.329437,62.110237,-139.293743
41780,NaN,-8.534592,-0.510467,4.389227,0.105132,0.015821,-0.202597,0.202495,-0.042322,-0.179971,0.327057,0.463573,0.229919,-0.790741,-7.406952,62.070624,-139.519909
41781,NaN,-8.452524,-0.413906,4.455916,0.111653,-0.120717,-0.250019,0.176300,0.034409,-0.094999,0.326159,0.463883,0.229482,-0.791057,-7.420075,62.081028,-139.656053
41782,NaN,-8.608802,-0.436674,4.479143,0.133198,-0.076037,-0.099739,0.122134,0.085017,-0.024029,0.325613,0.464384,0.229174,-0.791077,-7.394093,62.125212,-139.712989
41783,NaN,-8.852372,-0.421663,4.634874,0.132214,-0.119242,0.186945,0.078538,0.078942,0.013337,0.325318,0.464834,0.228945,-0.791000,-7.353253,62.168932,-139.724662
41784,NaN,-8.666797,-0.448486,4.745457,-0.023660,-0.231640,0.075672,0.032012,0.023509,0.011404,0.325191,0.464986,0.228810,-0.791002,-7.332283,62.180789,-139.728842
41785,NaN,-8.271778,-0.522479,4.725078,-0.207655,-0.286906,-0.278736,-0.017956,0.006172,0.016868,0.325219,0.464995,0.228836,-0.790978,-7.332774,62.183412,-139.724735
41786,NaN,-7.931210,-0.587623,4.693482,-0.361730,-0.324837,-0.590877,0.018120,0.069544,0.054788,0.325243,0.465357,0.228731,-0.790786,-7.279346,62.224592,-139.683224
41787,NaN,-8.055341,-0.608652,4.577597,-0.276416,-0.196991,-0.533779,0.068982,0.123358,0.100889,0.325266,0.466066,0.228408,-0.790452,-7.155212,62.299846,-139.594603
41788,NaN,-8.192136,-0.556480,4.633066,-0.241233,-0.227960,-0.390593,0.134343,0.154806,0.132127,0.325228,0.467041,0.227801,-0.790067,-6.962156,62.394869,-139.470691
41789,NaN,-8.590357,-0.450809,4.678651,-0.073767,-0.209190,-0.023000,0.158044,0.160298,0.135466,0.325137,0.468079,0.227105,-0.789690,-6.752627,62.493218,-139.343460
41790,NaN,-8.960203,-0.500290,4.569988,0.062047,0.009000,0.257881,0.112558,0.144812,0.114852,0.325091,0.468958,0.226608,-0.789330,-6.587561,62.581013,-139.237240
41791,NaN,-9.091262,-0.582998,4.424228,0.114365,0.201918,0.312076,0.130311,0.134462,0.100817,0.324957,0.469809,0.226060,-0.789037,-6.426743,62.662037,-139.147180
41792,NaN,-9.240946,-0.511427,4.504977,0.151441,0.145331,0.478443,0.127543,0.118744,0.100826,0.324850,0.470593,0.225494,-0.788776,-6.263755,62.733820,-139.053114
41793,NaN,-9.126185,-0.444758,4.612665,0.078348,-0.004601,0.422329,0.083090,0.104429,0.110853,0.324900,0.471259,0.225059,-0.788482,-6.113913,62.798137,-138.945085
41794,NaN,-9.252877,-0.479879,4.618346,0.078722,0.055029,0.539408,0.020514,0.078619,0.096402,0.325072,0.471705,0.224860,-0.788201,-6.011292,62.846577,-138.850050
41795,NaN,-9.207410,-0.669461,4.499472,-0.011831,0.251307,0.454081,-0.004795,0.024286,0.060267,0.325219,0.471855,0.224761,-0.788079,-5.957867,62.862031,-138.793872
41796,NaN,-8.978689,-0.696102,4.389742,-0.047944,0.276230,0.201934,0.048418,-0.004853,0.036002,0.325181,0.471949,0.224458,-0.788124,-5.896413,62.859224,-138.763096
41797,NaN,-8.778447,-0.531920,4.409911,-0.012520,0.094070,0.025116,0.087311,-0.007705,0.023672,0.325003,0.472082,0.224030,-0.788240,-5.827202,62.854255,-138.748480
41798,NaN,-8.792712,-0.416245,4.397085,0.080980,0.031514,0.026614,0.082730,-0.003410,0.018099,0.324812,0.472218,0.223637,-0.788349,-5.766176,62.851203,-138.740275
41799,NaN,-8.964836,-0.398737,4.255243,0.236779,0.168609,0.114541,0.068773,-0.029280,-0.002510,0.324598,0.472206,0.223309,-0.788537,-5.734296,62.832423,-138.755675
41800,NaN,-8.877446,-0.429413,4.257577,0.185922,0.166390,0.039122,0.055784,-0.062932,-0.018186,0.324394,0.472022,0.223011,-0.788816,-5.722375,62.793358,-138.785315
41801,NaN,-8.840289,-0.580312,4.315138,0.034068,0.225714,0.039002,0.036838,-0.051879,-0.017291,0.324222,0.471853,0.222807,-0.789045,-5.722636,62.760868,-138.816289
41802,NaN,-8.931572,-0.875188,4.222370,-0.087868,0.521760,0.091220,0.045286,-0.046066,-0.009928,0.324056,0.471728,0.222558,-0.789258,-5.709399,62.731893,-138.837700
41803,NaN,-8.880333,-1.132885,4.293970,-0.332451,0.643637,0.089692,0.133549,-0.050461,0.005242,0.323744,0.471745,0.221922,-0.789555,-5.629519,62.701511,-138.840858
41804,NaN,-8.874483,-0.870642,4.537528,-0.293967,0.310648,0.183347,0.247549,-0.025180,0.005046,0.323136,0.472046,0.220872,-0.789918,-5.486210,62.685304,-138.846318
41805,NaN,-8.959405,-0.584571,4.741511,-0.186019,0.015429,0.339147,0.238845,-0.037194,-0.006796,0.322512,0.472272,0.219870,-0.790318,-5.361004,62.661846,-138.866355
41806,NaN,-8.912566,-0.583828,4.684594,-0.168515,0.048283,0.271427,0.206239,-0.062796,-0.033721,0.321889,0.472314,0.219014,-0.790784,-5.280363,62.622131,-138.915727
41807,NaN,-8.798502,-0.488009,4.711593,-0.155025,-0.059014,0.178478,0.266957,-0.082813,-0.034063,0.321140,0.472373,0.217890,-0.791364,-5.164585,62.571244,-138.964543
41808,NaN,-8.881960,-0.140511,4.737949,0.107010,-0.279773,0.250482,0.266589,-0.105568,-0.032956,0.320423,0.472341,0.216725,-0.791993,-5.044428,62.507244,-139.008395
41809,NaN,-8.794588,-0.070752,4.541385,0.250373,-0.215211,0.079984,0.168043,-0.131050,-0.046777,0.319908,0.472035,0.215944,-0.792597,-4.994697,62.428255,-139.067840
41810,NaN,-8.786812,-0.206778,4.193016,0.371793,0.112451,-0.082255,0.099795,-0.124806,-0.048729,0.319542,0.471642,0.215445,-0.793114,-4.985485,62.352529,-139.129107
41811,NaN,-8.596439,-0.181446,4.007495,0.443889,0.164642,-0.338114,0.111436,-0.103332,-0.022955,0.319225,0.471380,0.214877,-0.793552,-4.944670,62.290581,-139.162075
41812,NaN,-8.591818,-0.088834,4.135967,0.432201,0.023544,-0.286613,0.087557,-0.048174,0.027871,0.319109,0.471353,0.214368,-0.793752,-4.866359,62.262396,-139.137424
41813,NaN,-8.710118,-0.123566,4.449265,0.255218,-0.110448,-0.035160,0.041847,-0.005618,0.068083,0.319212,0.471466,0.214017,-0.793738,-4.775711,62.260681,-139.069057
41814,NaN,-8.671920,-0.449919,4.588873,-0.078599,0.023473,0.008496,-0.036819,-0.011842,0.086215,0.319582,0.471447,0.213921,-0.793626,-4.708762,62.255973,-138.976723
41815,NaN,-8.593808,-0.708872,4.747533,-0.389821,0.085412,0.022751,-0.010861,-0.018405,0.089619,0.319909,0.471447,0.213709,-0.793552,-4.623822,62.247874,-138.880677
41816,NaN,-8.313452,-0.635852,4.870193,-0.514149,-0.122779,-0.171259,0.022961,-0.051573,0.089525,0.320193,0.471370,0.213305,-0.793592,-4.515696,62.220496,-138.780496
41817,NaN,-8.062489,-0.522754,4.881431,-0.531770,-0.278339,-0.392225,0.001780,-0.025848,0.104489,0.320556,0.471377,0.212995,-0.793524,-4.406989,62.208627,-138.665740
41818,NaN,-8.075003,-0.595183,4.818096,-0.546132,-0.177177,-0.408204,-0.006238,0.030056,0.116850,0.320931,0.471605,0.212773,-0.793297,-4.292952,62.228893,-138.539955
41819,NaN,-8.193565,-0.503890,4.835773,-0.461521,-0.212455,-0.298752,0.061660,0.077431,0.114902,0.321084,0.472128,0.212366,-0.793033,-4.146858,62.276216,-138.421766
41820,NaN,-8.417465,-0.222518,4.779806,-0.163671,-0.302169,-0.136342,0.091985,0.087319,0.103724,0.321114,0.472727,0.211877,-0.792795,-3.994689,62.328388,-138.316571
41821,NaN,-8.562692,-0.101082,4.715255,-0.001282,-0.299018,-0.041602,0.090621,0.081365,0.079235,0.321053,0.473273,0.211446,-0.792608,-3.870317,62.376256,-138.241753
41822,NaN,-8.687618,0.003345,4.533953,0.215745,-0.216626,-0.017895,0.058398,0.070154,0.068716,0.321041,0.473712,0.211146,-0.792431,-3.773609,62.417066,-138.177517
41823,NaN,-8.997148,0.009801,4.303287,0.459381,0.021773,0.150020,0.016320,0.071430,0.063498,0.321104,0.474084,0.211030,-0.792214,-3.707747,62.458541,-138.120744
41824,NaN,-9.253185,-0.232559,4.184811,0.440076,0.347220,0.329991,0.011279,0.054655,0.069750,0.321224,0.474387,0.210888,-0.792022,-3.635416,62.490448,-138.053600
41825,NaN,-9.601948,-0.185852,4.320840,0.500104,0.337583,0.700996,0.072683,0.040571,0.082239,0.321260,0.474746,0.210455,-0.791907,-3.514160,62.514899,-137.970814
41826,NaN,-9.394366,-0.065614,4.553923,0.361891,0.045440,0.621085,0.049472,0.004940,0.085228,0.321403,0.474929,0.210046,-0.791848,-3.399290,62.518792,-137.880411
41827,NaN,-9.181894,-0.181694,4.637236,0.150742,0.014577,0.474256,-0.026549,-0.021606,0.086110,0.321755,0.474887,0.209897,-0.791770,-3.326385,62.507695,-137.788045
41828,NaN,-8.765566,-0.491839,4.618400,-0.201649,0.122372,0.104522,-0.034418,-0.040805,0.086406,0.322150,0.474755,0.209743,-0.791729,-3.255445,62.485338,-137.692963
41829,NaN,-8.521510,-0.509575,4.624625,-0.303419,0.061814,-0.108715,0.013284,-0.028451,0.082848,0.322401,0.474747,0.209433,-0.791714,-3.163063,62.470109,-137.604339
41830,NaN,-8.373184,-0.460685,4.533627,-0.266498,0.045263,-0.283619,0.012329,-0.009229,0.071361,0.322593,0.474800,0.209181,-0.791671,-3.083972,62.465220,-137.530245
41831,NaN,-8.290768,-0.510874,4.524503,-0.328495,0.065122,-0.359814,0.017247,0.005216,0.068193,0.322741,0.474915,0.208944,-0.791604,-3.007519,62.468676,-137.462135
41832,NaN,-8.302851,-0.461078,4.556653,-0.315315,0.017650,-0.335701,0.031893,0.030689,0.100129,0.322958,0.475187,0.208610,-0.791440,-2.887883,62.487371,-137.354969
41833,NaN,-8.382385,-0.381098,4.602377,-0.270189,-0.038531,-0.246236,0.012727,0.060494,0.140549,0.323346,0.475589,0.208308,-0.791119,-2.737347,62.524354,-137.200449
41834,NaN,-8.577644,-0.574210,4.417520,-0.240922,0.280071,-0.154340,-0.046767,0.087136,0.182609,0.324017,0.476043,0.208181,-0.790605,-2.574308,62.577293,-136.993658
41835,NaN,-8.822862,-0.709611,4.234734,-0.159390,0.571840,-0.018456,0.007375,0.119711,0.190042,0.324551,0.476721,0.207878,-0.790057,-2.373959,62.648969,-136.779736
41836,NaN,-9.174841,-0.458295,4.410434,0.007974,0.397954,0.369709,0.093940,0.113116,0.162779,0.324781,0.477485,0.207284,-0.789658,-2.151685,62.715678,-136.597259
41837,NaN,-9.375562,-0.102333,4.610172,0.187915,0.088441,0.633469,0.058214,0.047732,0.102683,0.324922,0.477870,0.206872,-0.789475,-2.014499,62.743664,-136.487383
41838,NaN,-9.118687,0.142536,4.590338,0.282185,-0.148085,0.392233,0.056729,-0.007057,0.017887,0.324793,0.477948,0.206575,-0.789558,-1.968910,62.738278,-136.479777
41839,NaN,-9.556662,-0.256700,3.899647,0.578278,0.712669,0.471310,-0.116655,-0.095457,-0.037193,0.324948,0.477339,0.206955,-0.789763,-2.081531,62.681399,-136.538238
41840,NaN,-8.810081,-1.190284,3.345039,0.025034,1.490835,-0.431838,0.040441,-0.175795,-0.092860,0.324595,0.476609,0.206712,-0.790412,-2.160853,62.577059,-136.660774
41841,NaN,-8.837824,0.082345,4.699604,0.103465,-0.247402,0.193724,0.517876,-0.029407,-0.080577,0.322997,0.477244,0.204794,-0.791183,-1.960090,62.557148,-136.775819
41842,NaN,-8.930738,1.222460,5.307910,0.559284,-1.398786,0.538978,0.141323,-0.105086,-0.064517,0.322440,0.476986,0.204201,-0.791719,-1.953156,62.494014,-136.866397
41843,NaN,-8.383803,-0.049055,4.574631,-0.048408,-0.206555,-0.264245,-0.404571,-0.165643,-0.039544,0.323341,0.475632,0.205614,-0.791800,-2.229762,62.396907,-136.923888
41844,NaN,-7.906120,-1.049966,4.131935,-0.626279,0.626425,-0.874152,-0.142212,-0.060800,-0.006082,0.323646,0.475151,0.206074,-0.791845,-2.322098,62.360225,-136.943277
41845,NaN,-8.599246,-0.470881,4.562196,-0.247113,0.165304,-0.071332,0.140205,0.039571,0.018625,0.323271,0.475549,0.205524,-0.791902,-2.231162,62.381833,-136.938260
41846,NaN,-8.766879,0.128077,5.013799,-0.051513,-0.487844,0.275529,0.066350,0.000553,0.005901,0.323064,0.475660,0.205229,-0.791996,-2.193562,62.380553,-136.945867
41847,NaN,-8.550056,-0.028341,4.868717,-0.142797,-0.353281,0.019071,-0.088202,-0.048251,-0.010909,0.323205,0.475311,0.205512,-0.792075,-2.262014,62.351207,-136.973047
41848,NaN,-8.581546,-0.265291,4.724647,-0.203826,-0.085291,-0.015403,-0.065351,-0.034303,-0.009084,0.323288,0.475055,0.205718,-0.792141,-2.314704,62.329624,-136.997402
41849,NaN,-8.453835,-0.334457,4.655349,-0.248970,-0.032299,-0.159272,-0.013740,-0.034596,0.008899,0.323316,0.474901,0.205680,-0.792232,-2.319333,62.308516,-137.000703
41850,NaN,-8.392825,-0.170949,4.777370,-0.230079,-0.241667,-0.159674,0.033691,0.008011,0.045315,0.323336,0.475029,0.205433,-0.792211,-2.257748,62.312402,-136.960096
41851,NaN,-8.646332,-0.129811,4.831200,-0.154028,-0.221577,0.089008,0.004284,0.038769,0.089162,0.323564,0.475276,0.205252,-0.792017,-2.167600,62.335058,-136.868043
41852,NaN,-8.741200,-0.246945,4.849950,-0.225008,-0.117079,0.183673,-0.014337,0.036843,0.125261,0.323984,0.475523,0.205051,-0.791749,-2.047255,62.357077,-136.730045
41853,NaN,-8.820559,-0.366631,4.718801,-0.211935,0.080293,0.194929,-0.012183,0.043651,0.144355,0.324465,0.475819,0.204812,-0.791436,-1.906022,62.383425,-136.569720
41854,NaN,-8.773592,-0.326773,4.536139,-0.097986,0.158617,0.067822,0.004851,0.042074,0.154748,0.324951,0.476147,0.204474,-0.791126,-1.742105,62.408662,-136.395021
41855,NaN,-8.820613,-0.243392,4.413649,0.040350,0.198808,0.051469,0.005668,0.046166,0.160254,0.325449,0.476499,0.204130,-0.790799,-1.572717,62.436299,-136.214547
41856,NaN,-8.907460,-0.169367,4.254825,0.207434,0.281384,0.054067,0.033873,0.051372,0.144223,0.325814,0.476899,0.203717,-0.790514,-1.403348,62.466229,-136.052542
41857,NaN,-9.042124,-0.007558,4.075569,0.466588,0.328963,0.089049,0.069268,0.050169,0.089252,0.325875,0.477297,0.203297,-0.790356,-1.274997,62.494758,-135.959526
41858,NaN,-9.362088,0.023272,3.874305,0.713504,0.540374,0.279804,0.082244,0.000357,0.006941,0.325634,0.477435,0.202938,-0.790465,-1.227213,62.493438,-135.965911
41859,NaN,-9.270107,0.101756,4.003373,0.660070,0.375815,0.256836,0.122159,-0.050482,-0.076445,0.325016,0.477353,0.202540,-0.790871,-1.248220,62.462235,-136.075476
41860,NaN,-8.917046,0.217032,4.234634,0.488643,0.036447,0.048998,0.079008,-0.090140,-0.117891,0.324381,0.477001,0.202344,-0.791394,-1.337013,62.407462,-136.233839
41861,NaN,-8.521166,-0.031711,4.453110,0.057020,-0.051734,-0.198348,-0.024893,-0.098147,-0.095155,0.324088,0.476472,0.202495,-0.791794,-1.460861,62.348581,-136.364476
41862,NaN,-8.217109,-0.212837,4.736439,-0.339510,-0.199584,-0.334031,-0.038533,-0.041328,-0.031894,0.324023,0.476209,0.202638,-0.791942,-1.523475,62.322793,-136.417385
41863,NaN,-8.274552,-0.267591,5.000431,-0.519730,-0.309701,-0.159807,-0.077671,0.005724,0.035018,0.324266,0.476137,0.202857,-0.791829,-1.537929,62.325245,-136.390409
