// General information: 
//  MT Manager version: 2019.0.1 
//  XDA version: 2019.0.1 build 2740 rev 84096 built on 2019-01-30
// Device information: 
//  DeviceId: 00B4381A
//  ProductCode: MTW2-3A7G6
//  Firmware Version: 4.3.4
//  Hardware Version: 1.1.0
// Device settings: 
//  Filter Profile: human(46.1)
//  Option Flags: Orientation Smoother Disabled, AHS Disabled, ICC Disabled
// Coordinate system: ENU
PacketCounter,SampleTimeFine,Acc_X,Acc_Y,Acc_Z,FreeAcc_E,FreeAcc_N,FreeAcc_U,Gyr_X,Gyr_Y,Gyr_Z,Quat_q0,Quat_q1,Quat_q2,Quat_q3,Roll,Pitch,Yaw
63365,NaN,2.450931,8.589847,-0.118519,0.395872,2.075879,-1.132799,0.304602,-0.158590,0.297058,0.675523,0.415733,-0.532345,-0.295708,84.296080,-28.252048,-72.946449
63366,NaN,2.539838,8.842032,0.047309,0.212162,2.095478,-0.857332,0.259219,-0.266826,0.234510,0.674580,0.415636,-0.534125,-0.294786,84.526097,-28.396685,-73.106856
63367,NaN,2.751462,8.982611,0.088258,0.186261,1.985615,-0.631828,0.207775,-0.347929,0.196633,0.673462,0.415356,-0.536018,-0.294302,84.754457,-28.521900,-73.323326
63368,NaN,2.928697,9.210641,0.208396,0.071285,1.925696,-0.339403,0.184199,-0.378954,0.161955,0.672261,0.415032,-0.537908,-0.294056,84.979895,-28.629551,-73.562533
63369,NaN,3.017256,9.449681,0.359474,-0.094792,1.934878,-0.077354,0.143468,-0.370102,0.092826,0.671057,0.414778,-0.539560,-0.294137,85.182514,-28.695129,-73.800749
63370,NaN,2.865269,9.612425,0.470895,-0.272008,2.112849,0.000165,0.101716,-0.350388,-0.021948,0.669827,0.414712,-0.540847,-0.294669,85.357572,-28.694746,-74.032401
63371,NaN,2.875587,9.768609,0.704293,-0.520688,2.111188,0.160400,0.076316,-0.317540,-0.162586,0.668524,0.414997,-0.541690,-0.295676,85.511850,-28.610760,-74.250117
63372,NaN,2.488566,9.941581,0.660260,-0.591165,2.508380,0.128259,0.081361,-0.291773,-0.253094,0.667149,0.415573,-0.542267,-0.296914,85.661904,-28.474398,-74.454902
63373,NaN,1.968905,10.321282,0.492923,-0.580689,3.135425,0.211293,0.089675,-0.351104,-0.367360,0.665417,0.416404,-0.542812,-0.298636,85.837436,-28.273784,-74.703193
63374,NaN,1.648970,10.716819,0.165352,-0.366273,3.624338,0.401342,0.110388,-0.483477,-0.482673,0.663109,0.417409,-0.543582,-0.300956,86.065643,-28.012519,-75.040996
63375,NaN,1.855134,11.218065,-0.069060,-0.128842,3.675891,0.946590,0.143574,-0.621708,-0.593987,0.660173,0.418618,-0.544621,-0.303841,86.354923,-27.690837,-75.470930
63376,NaN,2.414668,11.765968,-0.099441,-0.019172,3.378754,1.713868,0.156243,-0.704792,-0.699284,0.656812,0.420017,-0.545718,-0.307205,86.673698,-27.310110,-75.955038
63377,NaN,2.910151,11.906503,-0.000519,-0.032507,2.900126,2.096180,0.136737,-0.700763,-0.788500,0.653346,0.421593,-0.546572,-0.310899,86.977181,-26.875595,-76.435850
63378,NaN,3.066780,11.629256,0.171004,-0.164379,2.498945,1.951719,0.102460,-0.621105,-0.872351,0.650022,0.423396,-0.546917,-0.314785,87.233539,-26.388681,-76.863850
63379,NaN,3.102681,11.018449,0.221226,-0.178772,2.077257,1.444923,0.086085,-0.470836,-0.960854,0.646983,0.425613,-0.546546,-0.318675,87.434717,-25.845612,-77.194818
63380,NaN,3.237300,10.541338,0.436722,-0.337179,1.595703,1.101964,0.095966,-0.300405,-1.023854,0.644270,0.428294,-0.545487,-0.322372,87.590833,-25.261054,-77.415744
63381,NaN,3.925269,10.155128,0.756098,-0.488100,0.646732,1.070716,0.081739,-0.095965,-1.035440,0.642108,0.431278,-0.543709,-0.325695,87.681750,-24.664871,-77.505606
63382,NaN,4.579128,9.673885,1.150189,-0.703501,-0.322827,0.923945,0.051967,0.201200,-0.999445,0.640860,0.434541,-0.540988,-0.328337,87.676514,-24.081946,-77.406670
63383,NaN,4.593062,9.039947,1.533171,-1.009089,-0.775488,0.363107,0.018403,0.575215,-0.993056,0.640686,0.438279,-0.537014,-0.330225,87.559397,-23.494068,-77.074909
63384,NaN,4.152677,8.639248,1.809853,-1.300690,-0.699674,-0.170359,0.041734,0.893361,-0.968783,0.641333,0.442536,-0.532089,-0.331264,87.381138,-22.910895,-76.547244
63385,NaN,3.330615,8.593326,2.155233,-1.757268,-0.155541,-0.513762,0.056726,1.087787,-0.945128,0.642470,0.447078,-0.526595,-0.331739,87.171956,-22.334689,-75.902948
63386,NaN,2.715027,8.783075,2.325260,-2.017832,0.330393,-0.553165,0.046405,1.096891,-0.910963,0.643680,0.451489,-0.521100,-0.332098,86.961395,-21.775225,-75.256574
63387,NaN,2.327087,9.164686,2.612621,-2.357690,0.657113,-0.313150,-0.005105,0.898273,-0.827398,0.644597,0.455166,-0.516328,-0.332752,86.773029,-21.268075,-74.734305
63388,NaN,1.975929,9.508754,2.903547,-2.696692,0.943830,-0.087067,-0.119457,0.514199,-0.718353,0.644948,0.457541,-0.512831,-0.334219,86.606603,-20.834017,-74.446577
63389,NaN,2.098871,9.879388,3.105612,-2.834281,0.853046,0.330842,-0.279233,-0.000246,-0.616362,0.644503,0.458273,-0.510957,-0.336933,86.461691,-20.475871,-74.471864
63390,NaN,2.667521,10.305647,3.140360,-2.701387,0.444708,0.943170,-0.440949,-0.619496,-0.498139,0.643040,0.457130,-0.511061,-0.341099,86.352787,-20.206952,-74.870635
63391,NaN,3.427046,10.737776,3.525695,-2.864876,-0.194165,1.642864,-0.695412,-1.071890,-0.425602,0.641100,0.454198,-0.512343,-0.346699,86.191408,-19.997904,-75.542462
63392,NaN,4.357192,10.651388,3.282455,-2.369878,-1.000407,1.874671,-0.976875,-1.369419,-0.305028,0.639214,0.449509,-0.514324,-0.353296,85.925398,-19.871128,-76.389710
63393,NaN,4.556801,10.181736,2.875660,-1.888102,-1.229415,1.484436,-1.093160,-1.575612,-0.227809,0.637136,0.443852,-0.516899,-0.360372,85.634268,-19.801767,-77.359405
63394,NaN,4.487370,9.910572,2.383214,-1.393505,-1.129279,1.179053,-1.086098,-1.779783,-0.143298,0.634611,0.437582,-0.520262,-0.367585,85.385421,-19.793537,-78.448495
63395,NaN,4.447497,9.367274,1.725379,-0.750254,-1.128284,0.611656,-1.042093,-2.003868,0.031282,0.631645,0.430537,-0.524748,-0.374568,85.207809,-19.899944,-79.665889
63396,NaN,4.560862,9.147420,1.789023,-0.813154,-1.269506,0.453963,-0.857402,-2.192186,0.208211,0.628043,0.423197,-0.530475,-0.380871,85.173715,-20.118110,-80.989025
63397,NaN,4.864725,9.583791,1.587576,-0.591935,-1.309120,0.956263,-0.803513,-2.224754,0.331083,0.624378,0.415583,-0.536603,-0.386652,85.183390,-20.408690,-82.328461
63398,NaN,4.936274,9.831498,1.388875,-0.412858,-1.199694,1.202935,-0.821857,-2.153867,0.351561,0.620903,0.407929,-0.542432,-0.392225,85.172276,-20.707356,-83.625454
63399,NaN,4.362563,9.534275,1.315492,-0.431757,-0.702947,0.722206,-0.915444,-2.003123,0.328468,0.617893,0.400298,-0.547502,-0.397758,85.084185,-20.986758,-84.834487
63400,NaN,3.901069,8.931962,1.081035,-0.266110,-0.424623,-0.019036,-0.937002,-1.782789,0.254910,0.615323,0.393185,-0.551629,-0.403098,84.939999,-21.215462,-85.913332
63401,NaN,3.636951,8.402720,0.779920,-0.001433,-0.325045,-0.629243,-0.889747,-1.471775,0.139038,0.613220,0.387138,-0.554628,-0.408010,84.761772,-21.364903,-86.809542
63402,NaN,3.290355,7.947420,0.418599,0.331170,-0.145239,-1.208484,-0.808541,-1.139385,0.030899,0.611634,0.382286,-0.556521,-0.412366,84.557521,-21.437794,-87.507649
63403,NaN,2.887552,7.595773,0.260545,0.469559,0.103580,-1.696633,-0.667406,-0.880646,-0.068077,0.610260,0.378667,-0.557712,-0.416115,84.380914,-21.442032,-88.053798
63404,NaN,2.692838,7.556165,0.236366,0.507223,0.262416,-1.807896,-0.541717,-0.691041,-0.162144,0.608975,0.376071,-0.558384,-0.419438,84.233631,-21.383424,-88.488705
63405,NaN,2.742146,7.533253,0.167630,0.593454,0.192238,-1.818428,-0.424733,-0.542394,-0.230812,0.607721,0.374336,-0.558721,-0.422350,84.123340,-21.277824,-88.837586
63406,NaN,2.910945,7.614409,0.111204,0.674634,0.042319,-1.688143,-0.321729,-0.391557,-0.287346,0.606579,0.373379,-0.558695,-0.424865,84.037226,-21.131772,-89.097020
63407,NaN,2.838283,7.634740,0.071161,0.725800,0.091589,-1.700047,-0.239008,-0.269069,-0.308692,0.605566,0.372998,-0.558439,-0.426976,83.973487,-20.966422,-89.283687
63408,NaN,2.300051,7.694991,0.040868,0.763064,0.589375,-1.839287,-0.157798,-0.243636,-0.303357,0.604490,0.372892,-0.558278,-0.428801,83.948165,-20.802843,-89.453757
63409,NaN,2.093786,7.851012,-0.077210,0.896860,0.808458,-1.777124,-0.089219,-0.296921,-0.311646,0.603107,0.372909,-0.558415,-0.430551,83.975221,-20.637621,-89.657308
63410,NaN,2.142261,7.910484,-0.314425,1.136217,0.748945,-1.724923,-0.040751,-0.349849,-0.335922,0.601439,0.373016,-0.558760,-0.432340,84.039376,-20.461644,-89.893619
63411,NaN,2.294984,7.948378,-0.576049,1.392492,0.579846,-1.657924,0.000811,-0.376760,-0.348441,0.599579,0.373230,-0.559257,-0.434093,84.134259,-20.279750,-90.147173
63412,NaN,2.475684,7.951191,-0.777598,1.580734,0.370568,-1.607875,0.044613,-0.349970,-0.387378,0.597631,0.373733,-0.559684,-0.435792,84.246759,-20.073679,-90.385624
63413,NaN,2.623140,7.959018,-0.930679,1.716856,0.190951,-1.559883,0.102164,-0.283210,-0.451146,0.595611,0.374736,-0.559922,-0.437388,84.380228,-19.826979,-90.587190
63414,NaN,2.578871,8.085107,-1.000855,1.780859,0.230224,-1.458252,0.157872,-0.207909,-0.495883,0.593602,0.376186,-0.559961,-0.438821,84.528486,-19.550111,-90.744311
63415,NaN,2.634224,8.185769,-0.937209,1.705942,0.169164,-1.334171,0.180911,-0.143528,-0.537861,0.591626,0.377966,-0.559784,-0.440185,84.678162,-19.245465,-90.864339
63416,NaN,2.894064,8.089256,-0.833652,1.568004,-0.151239,-1.325939,0.210587,-0.084760,-0.578825,0.589668,0.380069,-0.559410,-0.441475,84.831766,-18.914028,-90.949666
63417,NaN,3.017000,8.091697,-0.526216,1.236472,-0.303138,-1.255016,0.261454,-0.024318,-0.599603,0.587724,0.382514,-0.558930,-0.442561,85.003551,-18.567479,-90.998919
63418,NaN,2.861310,8.172649,-0.192388,0.887103,-0.166072,-1.198659,0.313282,-0.018659,-0.595290,0.585705,0.385104,-0.558545,-0.443477,85.202142,-18.222950,-91.042931
63419,NaN,2.594911,8.363325,0.152210,0.534011,0.110421,-1.071733,0.338369,-0.089958,-0.586147,0.583447,0.387582,-0.558440,-0.444425,85.428605,-17.886840,-91.128219
63420,NaN,2.641604,8.394658,0.226035,0.427654,0.029291,-1.019769,0.327551,-0.194689,-0.557449,0.580979,0.389709,-0.558661,-0.445520,85.665678,-17.571446,-91.273097
63421,NaN,2.779948,8.462054,0.387811,0.232271,-0.122114,-0.901138,0.312571,-0.295205,-0.531175,0.578306,0.391493,-0.559190,-0.446768,85.911581,-17.274725,-91.475668
63422,NaN,2.889096,8.241326,0.443350,0.118665,-0.332505,-1.075526,0.298534,-0.377472,-0.504575,0.575488,0.392970,-0.559966,-0.448137,86.161233,-16.995634,-91.724411
63423,NaN,2.888227,8.140972,0.408118,0.104855,-0.402994,-1.174970,0.352001,-0.420623,-0.483199,0.572479,0.394442,-0.561026,-0.449370,86.448043,-16.729247,-91.996651
63424,NaN,3.020164,8.188324,0.416042,0.049337,-0.553710,-1.092952,0.403324,-0.437737,-0.465954,0.569356,0.395966,-0.562271,-0.450440,86.764387,-16.471986,-92.276402
63425,NaN,3.365100,8.220023,0.549513,-0.145805,-0.904504,-0.960856,0.426412,-0.421491,-0.444341,0.566269,0.397528,-0.563561,-0.451343,87.090229,-16.225042,-92.544155
63426,NaN,3.616976,8.158464,0.759467,-0.422624,-1.185667,-0.945045,0.450356,-0.361852,-0.429255,0.563333,0.399241,-0.564754,-0.452012,87.417325,-15.983776,-92.773914
63427,NaN,3.776402,8.224721,0.879255,-0.600227,-1.346979,-0.840209,0.506486,-0.282569,-0.410926,0.560539,0.401239,-0.565884,-0.452305,87.763056,-15.749659,-92.954518
63428,NaN,4.003648,8.387489,0.689854,-0.470590,-1.566908,-0.637828,0.570771,-0.154957,-0.399472,0.558000,0.403662,-0.566813,-0.452124,88.122997,-15.518704,-93.057061
63429,NaN,4.391848,8.765079,0.944452,-0.784057,-1.859259,-0.172409,0.600299,-0.013205,-0.381767,0.555831,0.406438,-0.567446,-0.451515,88.477523,-15.294573,-93.073706
63430,NaN,4.331114,9.188481,1.777869,-1.649703,-1.675505,0.228148,0.538213,0.022445,-0.359681,0.553938,0.409047,-0.567874,-0.450945,88.789430,-15.083012,-93.067285
63431,NaN,4.280970,9.346709,2.001509,-1.915963,-1.608167,0.357676,0.517834,0.039887,-0.314215,0.552228,0.411513,-0.568298,-0.450266,89.087577,-14.896850,-93.049083
63432,NaN,4.349768,9.516780,1.736218,-1.699101,-1.678215,0.521741,0.520540,0.079498,-0.279081,0.550706,0.413963,-0.568683,-0.449397,89.379807,-14.731300,-93.005898
63433,NaN,4.827334,9.916453,1.362773,-1.391478,-2.087747,1.013261,0.560748,0.130576,-0.233451,0.549335,0.416514,-0.569109,-0.448176,89.688452,-14.591182,-92.931627
63434,NaN,5.083951,10.291563,1.136760,-1.219608,-2.278332,1.429048,0.502751,0.193885,-0.183631,0.548382,0.418891,-0.569327,-0.446849,89.953056,-14.480771,-92.818836
63435,NaN,5.083152,10.454329,0.914251,-1.037369,-2.269027,1.577770,0.484087,0.253756,-0.145343,0.547709,0.421248,-0.569418,-0.445340,90.199586,-14.391915,-92.670467
63436,NaN,5.629422,10.977192,0.809467,-0.995114,-2.690136,2.212998,0.574062,0.361491,-0.111668,0.547234,0.423980,-0.569477,-0.443252,90.480511,-14.324556,-92.457850
63437,NaN,5.086687,11.834511,0.905965,-1.116052,-1.966252,2.901039,0.629950,0.459247,-0.109758,0.546905,0.427082,-0.569390,-0.440785,90.780851,-14.258777,-92.187438
63438,NaN,5.039374,12.827172,0.922009,-1.194107,-1.691288,3.843630,0.679252,0.442639,-0.071608,0.546510,0.430153,-0.569528,-0.438101,91.110501,-14.217572,-91.926623
63439,NaN,5.376632,13.226024,0.867145,-1.214974,-1.933361,4.307282,0.578036,0.452553,-0.029879,0.546432,0.432857,-0.569500,-0.435564,91.382546,-14.200286,-91.660578
63440,NaN,5.375316,12.951974,0.870086,-1.255864,-2.003428,4.036995,0.444653,0.499326,0.045989,0.546949,0.435062,-0.569209,-0.433093,91.569860,-14.229808,-91.367670
63441,NaN,5.037436,12.138304,0.779636,-1.167878,-1.871952,3.166289,0.394137,0.515955,0.132848,0.547790,0.436928,-0.568947,-0.430487,91.727668,-14.308577,-91.066736
63442,NaN,4.902686,11.429863,0.696692,-1.085414,-1.899950,2.450080,0.380793,0.515703,0.230839,0.548881,0.438457,-0.568863,-0.427645,91.875874,-14.446069,-90.767514
63443,NaN,4.608642,10.674639,0.534432,-0.913896,-1.778046,1.653627,0.347982,0.537007,0.301029,0.550231,0.439752,-0.568800,-0.424653,92.003623,-14.623031,-90.457556
63444,NaN,4.331374,9.811093,0.413891,-0.771780,-1.695262,0.757081,0.298086,0.599986,0.358411,0.552002,0.440857,-0.568574,-0.421500,92.090554,-14.836722,-90.111229
63445,NaN,4.231587,9.029352,0.355554,-0.686551,-1.762917,-0.015617,0.290307,0.710282,0.414591,0.554196,0.442024,-0.568143,-0.417965,92.157162,-15.083349,-89.701058
63446,NaN,4.100325,8.547211,0.255637,-0.562083,-1.721314,-0.503884,0.280008,0.885885,0.457955,0.557008,0.443377,-0.567286,-0.413939,92.186708,-15.361137,-89.186978
63447,NaN,4.079983,8.251713,0.306068,-0.584962,-1.741229,-0.787364,0.268754,1.108802,0.483378,0.560493,0.445093,-0.565823,-0.409370,92.174060,-15.656228,-88.540754
63448,NaN,3.937901,8.209010,0.467574,-0.721142,-1.582618,-0.863465,0.234570,1.379771,0.484773,0.564817,0.447223,-0.563507,-0.404268,92.092034,-15.959715,-87.731678
63449,NaN,3.820224,8.291134,0.709743,-0.932276,-1.425204,-0.816013,0.188593,1.684782,0.448598,0.569974,0.449932,-0.560120,-0.398692,91.930825,-16.244640,-86.738649
63450,NaN,3.465894,8.606729,0.822297,-1.030552,-0.978512,-0.607006,0.176867,2.006910,0.389757,0.575911,0.453353,-0.555607,-0.392554,91.700720,-16.500875,-85.549358
63451,NaN,2.986689,8.962220,0.922187,-1.129728,-0.412689,-0.397528,0.114224,2.322246,0.279712,0.582560,0.457484,-0.549748,-0.386147,91.377680,-16.691010,-84.167706
63452,NaN,2.830567,9.299886,0.862820,-1.040634,-0.154964,-0.110259,0.046405,2.609285,0.174847,0.589882,0.462168,-0.542595,-0.379514,90.958799,-16.818206,-82.610067
63453,NaN,3.226294,9.695133,0.767943,-0.838511,-0.406515,0.391490,0.025505,2.938398,0.041890,0.597758,0.467708,-0.534022,-0.372498,90.470679,-16.857415,-80.853354
63454,NaN,1.401794,10.025531,-0.130362,-0.181544,1.550129,0.190178,0.076776,3.201400,-0.186564,0.605671,0.474369,-0.524095,-0.365324,89.964211,-16.753890,-78.938058
63455,NaN,-1.027966,10.588949,-0.079168,-0.704120,3.959388,0.036987,0.030463,3.053196,-0.340640,0.612853,0.480927,-0.514040,-0.359001,89.465496,-16.544232,-77.115126
63456,NaN,-1.116688,10.883038,0.393559,-1.218190,3.984976,0.310468,-0.107338,2.397781,-0.195571,0.618847,0.485402,-0.505992,-0.354097,89.001738,-16.409735,-75.685442
63457,NaN,0.469582,10.673993,0.549500,-0.964873,2.398846,0.568593,-0.336044,1.562255,-0.008716,0.623528,0.487188,-0.500531,-0.351183,88.552656,-16.379908,-74.754752
63458,NaN,2.476221,11.010427,0.746505,-0.618209,0.601035,1.464489,-0.345463,0.813281,0.200558,0.626718,0.487066,-0.497869,-0.349454,88.220010,-16.477105,-74.267094
63459,NaN,3.512292,11.456556,0.461131,-0.043797,-0.109040,2.178441,-0.479584,0.320768,0.395553,0.629320,0.485190,-0.496990,-0.348637,87.894996,-16.691673,-74.069532
63460,NaN,3.819569,11.452418,0.169601,0.367714,-0.248264,2.252893,-0.573569,0.022845,0.497864,0.631599,0.482218,-0.497119,-0.348455,87.562578,-16.971592,-74.045429
63461,NaN,3.027005,11.465768,-0.077442,0.442766,0.628847,2.021175,-0.660658,-0.310439,0.606230,0.633418,0.478133,-0.498409,-0.348940,87.240810,-17.320959,-74.217082
63462,NaN,2.682837,11.116207,-0.312394,0.634405,0.989779,1.566339,-0.736131,-0.703737,0.728626,0.634651,0.472783,-0.501083,-0.350158,86.943300,-17.753786,-74.618616
63463,NaN,3.478724,10.598311,-0.643458,1.201973,0.274669,1.292211,-0.754558,-0.958045,0.835008,0.635428,0.466660,-0.504767,-0.351667,86.687315,-18.256307,-75.169212
63464,NaN,3.855365,10.159198,-0.834870,1.511026,-0.072173,0.979949,-0.777836,-0.999884,0.882039,0.636218,0.460227,-0.508617,-0.353165,86.426984,-18.790633,-75.741786
63465,NaN,4.086637,9.646290,-0.931175,1.685846,-0.339536,0.563271,-0.779307,-0.923808,0.914804,0.637209,0.453831,-0.512277,-0.354365,86.158230,-19.342266,-76.267100
63466,NaN,4.056496,9.280875,-0.912549,1.684298,-0.348465,0.210462,-0.766086,-0.790628,0.936216,0.638531,0.447617,-0.515549,-0.355142,85.871302,-19.904461,-76.708854
63467,NaN,4.180104,8.807759,-1.218707,2.031700,-0.475296,-0.211605,-0.667466,-0.584394,0.926934,0.640101,0.442104,-0.518301,-0.355216,85.604061,-20.453352,-77.024937
63468,NaN,3.777667,8.802893,-0.935615,1.689721,-0.078220,-0.337717,-0.658091,-0.481525,0.950030,0.641949,0.436710,-0.520765,-0.354950,85.319283,-21.013541,-77.274633
63469,NaN,4.026355,8.494316,-1.012030,1.837614,-0.316690,-0.543849,-0.628095,-0.347106,0.898401,0.643951,0.431787,-0.522725,-0.354465,85.026763,-21.537598,-77.443289
63470,NaN,3.930659,8.495701,-0.936815,1.768687,-0.158146,-0.574143,-0.560838,-0.163868,0.902289,0.646289,0.427365,-0.524203,-0.353385,84.729133,-22.056728,-77.496089
63471,NaN,3.587624,8.480578,-0.878226,1.669233,0.219963,-0.717241,-0.533960,-0.003066,0.851796,0.648870,0.423452,-0.525091,-0.352045,84.412102,-22.537174,-77.450624
63472,NaN,3.554187,8.310110,-0.810677,1.624527,0.250012,-0.888271,-0.493518,0.127871,0.773547,0.651602,0.420152,-0.525392,-0.350501,84.085880,-22.964813,-77.312590
63473,NaN,3.485821,8.277768,-0.742139,1.574086,0.358732,-0.946109,-0.436822,0.245755,0.709042,0.654353,0.417349,-0.525319,-0.348830,83.764519,-23.348336,-77.116184
63474,NaN,3.412483,8.248215,-0.675735,1.523733,0.467785,-1.003960,-0.373256,0.328746,0.647537,0.657115,0.415109,-0.524894,-0.346946,83.457232,-23.690144,-76.856410
63475,NaN,3.345629,8.311485,-0.620624,1.486455,0.605914,-0.976279,-0.355295,0.361460,0.598600,0.659786,0.413050,-0.524336,-0.345170,83.152328,-24.001112,-76.590524
63476,NaN,3.323633,8.245618,-0.563603,1.454275,0.645351,-1.047834,-0.354338,0.366924,0.546579,0.662411,0.411188,-0.523599,-0.343483,82.844914,-24.280484,-76.310405
63477,NaN,3.215557,7.957989,-0.544654,1.433369,0.666290,-1.358854,-0.311757,0.348871,0.482721,0.664743,0.409545,-0.522906,-0.341993,82.567722,-24.523954,-76.056920
63478,NaN,3.008327,7.848871,-0.489629,1.354044,0.835891,-1.544543,-0.242234,0.308116,0.424426,0.666759,0.408265,-0.522295,-0.340529,82.340551,-24.735996,-75.819772
63479,NaN,2.940090,7.959977,-0.443036,1.314773,0.973735,-1.474540,-0.228344,0.242664,0.388240,0.668470,0.406958,-0.521897,-0.339347,82.139419,-24.932158,-75.637727
63480,NaN,2.784450,7.799067,-0.494580,1.341149,1.084388,-1.697977,-0.234184,0.150701,0.359902,0.669939,0.405600,-0.521689,-0.338395,81.958722,-25.118598,-75.502852
63481,NaN,2.885266,7.851641,-0.398117,1.284324,1.032552,-1.601977,-0.197198,0.073937,0.350345,0.671076,0.404207,-0.521826,-0.337597,81.820047,-25.305890,-75.428091
63482,NaN,2.921675,7.877401,-0.342128,1.246968,1.031257,-1.561131,-0.151136,0.027473,0.328997,0.671996,0.402999,-0.522106,-0.336778,81.720222,-25.484259,-75.371903
63483,NaN,2.954129,7.660686,-0.352831,1.255443,0.932048,-1.744690,0.052997,-0.055739,0.280535,0.672168,0.402407,-0.522955,-0.335821,81.762079,-25.642465,-75.384264
63484,NaN,2.579249,8.423150,-0.145551,0.983300,1.583279,-1.201678,-0.018610,-0.074654,0.241041,0.672401,0.401700,-0.523624,-0.335158,81.769441,-25.779309,-75.400616
63485,NaN,2.542655,8.572697,-0.302754,1.132829,1.731903,-1.108375,-0.184829,-0.181906,0.220125,0.672618,0.400254,-0.524376,-0.335279,81.712164,-25.913646,-75.498021
63486,NaN,2.739653,8.287366,-0.446793,1.315105,1.474490,-1.299045,-0.227134,-0.269393,0.174451,0.672644,0.398695,-0.525214,-0.335773,81.656779,-26.028712,-75.642925
63487,NaN,2.828178,8.264318,-0.525899,1.418164,1.414261,-1.294309,-0.214749,-0.282316,0.145685,0.672527,0.397173,-0.526101,-0.336421,81.613573,-26.129381,-75.810524
63488,NaN,3.081240,8.314464,-0.506996,1.462690,1.223015,-1.138233,-0.182845,-0.254579,0.098399,0.672367,0.395979,-0.526814,-0.337030,81.583200,-26.200383,-75.954613
63489,NaN,3.138058,8.073431,-0.477424,1.437166,1.063907,-1.323972,-0.026859,-0.186400,0.092660,0.672039,0.395388,-0.527588,-0.337170,81.623515,-26.263057,-76.066707
63490,NaN,3.194968,8.352157,-0.341566,1.318171,1.119588,-1.032485,0.084048,-0.126410,-0.007546,0.671509,0.395591,-0.528107,-0.337173,81.715148,-26.263017,-76.139219
63491,NaN,3.488189,8.865087,-0.294657,1.340947,1.083639,-0.438701,0.147304,-0.047572,-0.096153,0.670883,0.396317,-0.528334,-0.337212,81.824183,-26.206944,-76.181019
63492,NaN,3.558537,9.208210,-0.208379,1.270738,1.148838,-0.088331,0.159700,0.027745,-0.161542,0.670348,0.397439,-0.528160,-0.337229,81.922366,-26.106749,-76.170361
63493,NaN,3.599398,9.274373,-0.183597,1.248744,1.116885,-0.004705,0.141671,0.091468,-0.233344,0.669867,0.398742,-0.527636,-0.337466,81.994761,-25.961577,-76.136333
63494,NaN,3.521301,9.288000,-0.081680,1.126645,1.144873,-0.009982,0.172393,0.154714,-0.290958,0.669420,0.400465,-0.526796,-0.337626,82.070369,-25.777693,-76.056220
63495,NaN,3.320504,9.403781,0.122801,0.880524,1.301049,0.036361,0.217072,0.202081,-0.351833,0.668875,0.402515,-0.525788,-0.337838,82.160323,-25.556663,-75.962539
63496,NaN,3.011449,9.644864,0.344407,0.595116,1.595726,0.152760,0.250896,0.225087,-0.433216,0.668207,0.404991,-0.524553,-0.338122,82.267654,-25.286664,-75.850100
63497,NaN,2.859214,9.934040,0.480697,0.426747,1.780632,0.372513,0.265695,0.205666,-0.483960,0.667340,0.407550,-0.523341,-0.338636,82.389823,-24.990651,-75.764834
63498,NaN,2.643483,10.321176,0.571255,0.288879,2.064616,0.651280,0.263242,0.158093,-0.527583,0.666298,0.410191,-0.522151,-0.339337,82.525811,-24.672407,-75.702123
63499,NaN,2.553650,10.750328,0.605692,0.234162,2.258742,1.017843,0.243534,0.071236,-0.571460,0.664964,0.412669,-0.521160,-0.340469,82.673442,-24.336966,-75.706794
63500,NaN,2.526211,11.195128,0.550613,0.281175,2.413067,1.417335,0.202164,-0.031446,-0.613550,0.663392,0.415002,-0.520307,-0.342000,82.825599,-23.983559,-75.767360
63501,NaN,2.490739,11.500877,0.484727,0.335309,2.509080,1.689505,0.180198,-0.171182,-0.665790,0.661383,0.417093,-0.519806,-0.344105,82.999796,-23.611603,-75.927932
63502,NaN,2.674091,11.690369,0.517702,0.339135,2.335240,1.956533,0.141425,-0.307486,-0.693660,0.659064,0.418949,-0.519583,-0.346626,83.185735,-23.231004,-76.163099
63503,NaN,2.823033,11.384789,0.543816,0.333213,1.986972,1.755328,0.087339,-0.417594,-0.726693,0.656483,0.420453,-0.519591,-0.349678,83.364762,-22.840003,-76.476989
63504,NaN,2.664443,10.700881,0.576933,0.245319,1.762236,1.085694,0.079866,-0.509956,-0.765366,0.653618,0.421926,-0.519756,-0.353009,83.560836,-22.430112,-76.838069
63505,NaN,2.387133,10.286868,0.689109,0.059775,1.744380,0.625029,0.097769,-0.617174,-0.780577,0.650373,0.423235,-0.520300,-0.356615,83.787753,-22.019021,-77.273612
63506,NaN,2.380906,9.980203,0.883928,-0.152076,1.514455,0.372461,0.114258,-0.728745,-0.802480,0.646766,0.424505,-0.521135,-0.360427,84.047235,-21.598433,-77.766294
63507,NaN,2.751227,9.779912,1.035624,-0.251550,0.994373,0.347815,0.149729,-0.783978,-0.815227,0.642876,0.425749,-0.522210,-0.364342,84.333645,-21.173649,-78.299570
63508,NaN,3.196538,9.849756,1.283216,-0.434316,0.489979,0.601384,0.154238,-0.764121,-0.811730,0.639036,0.427086,-0.523174,-0.368129,84.614400,-20.744983,-78.806408
63509,NaN,3.590343,9.862084,1.493031,-0.595648,0.017031,0.771485,0.129684,-0.687990,-0.813883,0.635402,0.428411,-0.523874,-0.371865,84.858741,-20.311208,-79.273732
63510,NaN,3.898999,9.645567,1.669244,-0.744447,-0.453570,0.688029,0.102368,-0.571657,-0.794822,0.632170,0.429865,-0.524138,-0.375307,85.059486,-19.878504,-79.656763
63511,NaN,4.137954,9.434904,1.712528,-0.771097,-0.832449,0.569257,0.098104,-0.404400,-0.755418,0.629426,0.431446,-0.523981,-0.378314,85.218317,-19.461277,-79.943339
63512,NaN,4.233284,9.279516,1.652821,-0.712172,-1.041553,0.442528,0.083395,-0.204998,-0.741249,0.627273,0.433372,-0.523147,-0.380833,85.327088,-19.039924,-80.097371
63513,NaN,3.877649,9.124651,1.541833,-0.666489,-0.819810,0.165085,0.052441,-0.033127,-0.717283,0.625652,0.435401,-0.521802,-0.383025,85.381879,-18.626234,-80.154941
63514,NaN,3.518789,8.908529,1.417308,-0.600565,-0.607613,-0.167882,-0.000819,0.046869,-0.694936,0.624413,0.437411,-0.520103,-0.385061,85.390889,-18.219508,-80.153158
63515,NaN,3.545448,9.012149,1.386591,-0.554282,-0.659351,-0.067464,0.032868,0.079986,-0.620853,0.623300,0.439334,-0.518565,-0.386748,85.411035,-17.855650,-80.137511
63516,NaN,3.746239,9.237716,1.361020,-0.480898,-0.832966,0.202137,0.023321,0.161396,-0.557229,0.622559,0.441271,-0.516847,-0.388034,85.410733,-17.522440,-80.060516
63517,NaN,3.663964,9.447468,1.359573,-0.473949,-0.746424,0.372876,0.015603,0.278806,-0.506322,0.622209,0.443220,-0.514898,-0.388963,85.384023,-17.214850,-79.920462
63518,NaN,2.784774,9.475521,1.344223,-0.590652,0.041338,0.137019,-0.004549,0.242634,-0.428286,0.621978,0.444881,-0.513154,-0.389739,85.352363,-16.951708,-79.790172
63519,NaN,2.224171,9.661409,1.465316,-0.787500,0.566394,0.162073,-0.052795,0.068713,-0.349839,0.621537,0.445801,-0.512067,-0.390820,85.322018,-16.743125,-79.768588
63520,NaN,2.342489,9.780980,1.720535,-1.003431,0.421102,0.332795,-0.129908,-0.132494,-0.274559,0.620920,0.445943,-0.511581,-0.392272,85.281426,-16.585208,-79.854882
63521,NaN,2.975326,9.789668,1.973334,-1.130512,-0.231858,0.543584,-0.225319,-0.218514,-0.221067,0.620377,0.445432,-0.511333,-0.394032,85.199303,-16.463772,-79.998382
63522,NaN,3.044964,9.420890,1.902956,-1.043624,-0.407799,0.206830,-0.277122,-0.245761,-0.167132,0.620004,0.444613,-0.511147,-0.395781,85.091419,-16.372967,-80.147596
63523,NaN,2.313406,9.046311,1.691021,-0.951095,0.197548,-0.373222,-0.249535,-0.326617,-0.162352,0.619350,0.443659,-0.511313,-0.397658,85.012266,-16.290843,-80.352649
63524,NaN,2.104880,9.032670,1.282614,-0.568525,0.440353,-0.477400,-0.227888,-0.417739,-0.177535,0.618398,0.442666,-0.511734,-0.399697,84.960738,-16.203301,-80.605937
63525,NaN,2.420375,8.929745,0.721144,0.040858,0.176696,-0.534450,-0.185743,-0.411164,-0.205278,0.617293,0.441847,-0.512188,-0.401727,84.932113,-16.101306,-80.863452
63526,NaN,2.210477,8.764425,0.240403,0.483576,0.372481,-0.791240,-0.137788,-0.350311,-0.278056,0.616107,0.441520,-0.512352,-0.403692,84.921567,-15.953187,-81.081693
63527,NaN,2.225081,8.697647,0.153769,0.572992,0.323370,-0.857759,-0.075642,-0.314106,-0.337899,0.614733,0.441570,-0.512429,-0.405629,84.940844,-15.770656,-81.288256
63528,NaN,2.491550,8.961932,0.343436,0.435525,0.086892,-0.515124,0.006936,-0.304595,-0.369757,0.613152,0.442011,-0.512538,-0.407401,85.005757,-15.567707,-81.483676
63529,NaN,2.582455,9.344110,0.689424,0.119511,0.027151,-0.094578,-0.003941,-0.324086,-0.384657,0.611492,0.442375,-0.512681,-0.409315,85.066750,-15.358616,-81.697804
63530,NaN,2.619304,9.225708,0.820205,-0.013819,-0.093827,-0.187820,-0.038157,-0.359443,-0.406949,0.609785,0.442653,-0.512779,-0.411434,85.113212,-15.136798,-81.927183
63531,NaN,2.280071,8.920344,0.931449,-0.187316,0.098014,-0.560981,-0.038617,-0.425139,-0.419255,0.607862,0.442786,-0.513075,-0.413761,85.168472,-14.912484,-82.201941
63532,NaN,2.279204,8.789414,1.018516,-0.285039,0.017685,-0.680093,-0.018817,-0.507642,-0.433300,0.605666,0.442875,-0.513596,-0.416231,85.246631,-14.682276,-82.519324
63533,NaN,3.175266,9.023773,1.081858,-0.232854,-0.826658,-0.223972,-0.027721,-0.551206,-0.479124,0.603258,0.442923,-0.514153,-0.418981,85.325087,-14.429040,-82.870187
63534,NaN,3.930395,8.773799,1.138479,-0.223168,-1.664447,-0.278363,-0.019874,-0.443140,-0.463335,0.601152,0.443208,-0.514402,-0.421396,85.390495,-14.178008,-83.150259
63535,NaN,3.587264,8.451434,1.191634,-0.343490,-1.461552,-0.676992,0.023523,-0.284529,-0.456796,0.599350,0.443903,-0.514302,-0.423347,85.456600,-13.924518,-83.341650
63536,NaN,3.219046,8.384262,1.132682,-0.338454,-1.161249,-0.841743,0.073354,-0.136060,-0.519160,0.597699,0.445249,-0.513695,-0.425002,85.530103,-13.627366,-83.442772
63537,NaN,2.908141,8.380625,1.020104,-0.267870,-0.900992,-0.932992,0.098723,-0.022760,-0.579350,0.596133,0.447033,-0.512691,-0.426538,85.602622,-13.291812,-83.484854
63538,NaN,2.580763,8.321831,0.779020,-0.072912,-0.628703,-1.088052,0.123387,0.043457,-0.593029,0.594663,0.449089,-0.511482,-0.427879,85.680146,-12.944545,-83.483213
63539,NaN,2.480764,8.304178,0.672039,0.014841,-0.578162,-1.139136,0.161092,0.079281,-0.563483,0.593242,0.451227,-0.510334,-0.428972,85.774297,-12.613588,-83.463734
63540,NaN,2.275355,8.481714,0.588449,0.075021,-0.381040,-1.019965,0.189690,0.129528,-0.519360,0.591988,0.453464,-0.509171,-0.429726,85.877950,-12.304984,-83.408059
63541,NaN,2.122473,8.635351,0.576094,0.066763,-0.244269,-0.905287,0.210905,0.154066,-0.462256,0.590853,0.455645,-0.508128,-0.430216,85.990495,-12.028912,-83.339475
63542,NaN,2.037813,8.745654,0.425818,0.199269,-0.165393,-0.826406,0.212507,0.153029,-0.409126,0.589821,0.457691,-0.507207,-0.430547,86.103646,-11.783143,-83.268828
63543,NaN,1.985283,8.748424,0.372201,0.233380,-0.145916,-0.838339,0.218933,0.136673,-0.359672,0.588837,0.459592,-0.506460,-0.430748,86.222406,-11.566652,-83.205380
63544,NaN,1.962037,8.693379,0.140413,0.443844,-0.143668,-0.911765,0.229351,0.124169,-0.316435,0.587887,0.461386,-0.505868,-0.430824,86.348225,-11.375264,-83.147136
63545,NaN,1.642703,8.590762,-0.272955,0.795917,0.160903,-1.099782,0.258395,0.129695,-0.289672,0.586939,0.463207,-0.505383,-0.430732,86.490136,-11.199332,-83.084302
63546,NaN,1.609125,8.559508,-0.473066,0.970242,0.182331,-1.146456,0.280974,0.126487,-0.265541,0.585980,0.465024,-0.505009,-0.430518,86.645190,-11.037265,-83.022058
63547,NaN,1.727902,8.561137,-0.356032,0.847964,0.030065,-1.112948,0.279322,0.109182,-0.225520,0.585065,0.466696,-0.504774,-0.430229,86.801134,-10.899030,-82.968155
63548,NaN,1.815105,8.524850,-0.089734,0.571941,-0.113236,-1.115808,0.286517,0.084826,-0.197260,0.584129,0.468265,-0.504689,-0.429895,86.963777,-10.777664,-82.927190
63549,NaN,1.786179,8.605988,0.258746,0.203148,-0.129378,-1.022788,0.282335,0.051240,-0.189454,0.583135,0.469727,-0.504711,-0.429625,87.127613,-10.662078,-82.905200
63550,NaN,1.588729,8.597159,0.561055,-0.143133,0.006197,-1.053156,0.262934,-0.040702,-0.200073,0.581928,0.470962,-0.504932,-0.429650,87.290294,-10.542857,-82.936737
63551,NaN,1.557549,8.567419,0.899405,-0.505693,-0.027985,-1.073181,0.247800,-0.153875,-0.196043,0.580479,0.471896,-0.505458,-0.429966,87.456073,-10.429011,-83.033661
63552,NaN,1.682008,8.666640,1.107508,-0.719601,-0.172769,-0.945973,0.252742,-0.288260,-0.171390,0.578728,0.472493,-0.506441,-0.430514,87.638450,-10.332097,-83.207806
63553,NaN,2.333120,8.852960,1.169158,-0.731031,-0.796876,-0.646677,0.261495,-0.434367,-0.153537,0.576623,0.472751,-0.507904,-0.431330,87.840587,-10.248317,-83.466161
63554,NaN,3.358958,9.114546,1.216680,-0.694952,-1.771797,-0.209798,0.242048,-0.506601,-0.154036,0.574374,0.472796,-0.509528,-0.432365,88.038524,-10.164718,-83.766178
63555,NaN,4.117607,9.219914,1.355852,-0.788415,-2.525400,0.026035,0.213906,-0.411036,-0.180672,0.572373,0.473030,-0.510751,-0.433319,88.210193,-10.063256,-84.010758
63556,NaN,3.877269,9.144819,1.484173,-0.974795,-2.336869,-0.094025,0.246333,-0.209086,-0.234491,0.570693,0.473928,-0.511336,-0.433863,88.379459,-9.926939,-84.138393
63557,NaN,3.019164,9.114569,1.608344,-1.215097,-1.539692,-0.276953,0.309528,-0.116832,-0.266584,0.569026,0.475287,-0.511716,-0.434117,88.575630,-9.770310,-84.212435
63558,NaN,2.618388,9.201281,1.524262,-1.202649,-1.151872,-0.269650,0.341875,-0.136613,-0.261419,0.567243,0.476678,-0.512233,-0.434318,88.791606,-9.616992,-84.297219
63559,NaN,2.747120,9.283917,1.333277,-1.034688,-1.272442,-0.178085,0.358285,-0.150926,-0.225083,0.565456,0.477991,-0.512909,-0.434406,89.018335,-9.483970,-84.389352
63560,NaN,2.879395,9.402733,1.212301,-0.937928,-1.394316,-0.048057,0.371744,-0.087203,-0.178226,0.563904,0.479353,-0.513544,-0.434172,89.245854,-9.377371,-84.443392
63561,NaN,2.735115,9.522526,1.151648,-0.927802,-1.247268,0.039674,0.386226,0.031712,-0.130004,0.562721,0.480893,-0.513988,-0.433478,89.470765,-9.296936,-84.427738
63562,NaN,2.643676,9.606059,1.043107,-0.863845,-1.148977,0.101292,0.389158,0.121554,-0.065589,0.561904,0.482463,-0.514339,-0.432376,89.688234,-9.253730,-84.359208
63563,NaN,2.701709,9.735656,0.899878,-0.750875,-1.181185,0.233850,0.388886,0.184155,-0.006740,0.561367,0.484019,-0.514653,-0.430958,89.900330,-9.243726,-84.254188
63564,NaN,2.462189,9.814225,0.533600,-0.445051,-0.900634,0.269813,0.394163,0.223957,0.052522,0.561052,0.485514,-0.515007,-0.429261,90.110961,-9.268831,-84.125868
63565,NaN,2.007956,9.842458,0.158626,-0.153974,-0.409589,0.224217,0.398570,0.221369,0.100886,0.560814,0.486895,-0.515492,-0.427421,90.325056,-9.321339,-83.999395
63566,NaN,1.998425,9.901315,-0.153825,0.117998,-0.349105,0.282732,0.373253,0.156514,0.165990,0.560613,0.487890,-0.516261,-0.425618,90.529894,-9.412168,-83.910862
63567,NaN,2.235966,9.822543,-0.357019,0.310970,-0.557049,0.247244,0.343337,0.077114,0.237879,0.560424,0.488451,-0.517362,-0.423884,90.725939,-9.543149,-83.869369
63568,NaN,2.924909,9.858769,-0.213579,0.203738,-1.219753,0.398412,0.338692,0.018825,0.291689,0.560214,0.488726,-0.518745,-0.422150,90.924254,-9.705510,-83.862463
63569,NaN,3.669580,10.170465,0.235015,-0.212787,-1.920669,0.828035,0.353187,0.009431,0.311218,0.559975,0.488976,-0.520230,-0.420346,91.132692,-9.878090,-83.861974
63570,NaN,4.028387,10.723760,0.747767,-0.746180,-2.207015,1.428228,0.368873,0.071931,0.313689,0.559870,0.489385,-0.521577,-0.418337,91.343148,-10.053945,-83.825616
63571,NaN,4.071226,11.497586,1.277668,-1.343558,-2.148321,2.186528,0.405744,0.167355,0.291593,0.559866,0.490158,-0.522676,-0.416059,91.565704,-10.217580,-83.734251
63572,NaN,3.931249,12.554848,1.839191,-2.008198,-1.865293,3.185357,0.360985,0.217871,0.290786,0.560108,0.490901,-0.523535,-0.413771,91.756238,-10.383249,-83.613784
63573,NaN,4.387732,12.958930,2.152346,-2.326450,-2.247436,3.654129,0.261859,0.163608,0.308192,0.560474,0.491214,-0.524381,-0.411828,91.896461,-10.556903,-83.525894
63574,NaN,5.097778,12.610132,2.246496,-2.343807,-2.982452,3.441028,0.127211,0.210742,0.287169,0.561261,0.491289,-0.524763,-0.410176,91.952920,-10.721121,-83.410076
63575,NaN,5.200979,11.721933,2.154566,-2.192040,-3.205844,2.597531,0.042279,0.384978,0.248315,0.562620,0.491595,-0.524384,-0.408429,91.942511,-10.864981,-83.192236
63576,NaN,4.637997,10.867801,2.054482,-2.092308,-2.779462,1.665019,-0.034344,0.547245,0.238069,0.564583,0.492025,-0.523364,-0.406506,91.868027,-11.007789,-82.878945
63577,NaN,4.161312,9.906781,2.042791,-2.055702,-2.471838,0.641871,-0.120759,0.607552,0.277789,0.566976,0.492240,-0.522090,-0.404549,91.738102,-11.172000,-82.531171
63578,NaN,3.838759,9.371339,2.104349,-2.095013,-2.242639,0.064947,-0.144107,0.628876,0.359487,0.569658,0.492195,-0.520903,-0.402360,91.589463,-11.384671,-82.171212
63579,NaN,3.393044,9.347392,1.884370,-1.904788,-1.751636,-0.027970,-0.157744,0.600937,0.436273,0.572430,0.491865,-0.519950,-0.400055,91.436829,-11.637826,-81.828396
63580,NaN,3.252392,9.511784,1.493699,-1.518785,-1.482361,0.126066,-0.170992,0.581085,0.540673,0.575404,0.491160,-0.519276,-0.397523,91.275160,-11.951913,-81.497008
63581,NaN,3.279787,10.057466,1.180898,-1.207237,-1.291909,0.683846,-0.186110,0.634685,0.683168,0.578805,0.490158,-0.518758,-0.394487,91.098533,-12.344982,-81.135147
63582,NaN,2.892520,10.443817,0.827031,-0.902058,-0.707523,0.995134,-0.317804,0.693858,0.709953,0.582743,0.488790,-0.517860,-0.391555,90.833566,-12.755027,-80.736055
63583,NaN,2.564482,10.440389,0.345255,-0.436693,-0.234474,0.932130,-0.367058,0.734195,0.694308,0.586838,0.487404,-0.516698,-0.388692,90.534158,-13.152039,-80.311111
63584,NaN,2.521573,10.818876,0.022650,-0.097173,0.030118,1.295674,-0.423010,0.760797,0.709536,0.591172,0.485831,-0.515368,-0.385848,90.192916,-13.557970,-79.866862
63585,NaN,2.384316,11.101711,-0.363929,0.299943,0.386782,1.537412,-0.497487,0.777912,0.735581,0.595741,0.484009,-0.513893,-0.383069,89.805283,-13.973651,-79.409842
63586,NaN,2.217817,10.867624,-0.620928,0.589567,0.633509,1.262488,-0.539301,0.755751,0.729959,0.600343,0.481998,-0.512370,-0.380451,89.390170,-14.385422,-78.961363
63587,NaN,1.978962,10.737978,-0.948101,0.925479,0.988352,1.063199,-0.516170,0.768468,0.766968,0.604951,0.479989,-0.510927,-0.377623,88.984784,-14.812832,-78.501949
63588,NaN,2.059857,10.569137,-1.056810,1.106848,0.992490,0.904363,-0.566042,0.799417,0.796615,0.609811,0.477774,-0.509346,-0.374739,88.538988,-15.255732,-78.018826
63589,NaN,2.046551,10.636634,-0.854956,0.963830,1.088494,0.954956,-0.656765,0.779381,0.828402,0.614851,0.475164,-0.507713,-0.372027,88.041828,-15.711127,-77.543042
63590,NaN,1.480919,10.861418,-0.305425,0.366619,1.678779,1.017947,-0.715461,0.591280,0.894969,0.619671,0.471817,-0.506684,-0.369687,87.533788,-16.206804,-77.171717
63591,NaN,2.149699,10.893654,0.230154,0.046714,1.071659,1.241426,-0.764527,0.239037,1.065992,0.623985,0.467232,-0.507040,-0.367760,87.053437,-16.804746,-77.001138
63592,NaN,2.490094,10.954329,0.500269,-0.082229,0.856937,1.399127,-0.870135,0.016702,1.191758,0.628200,0.461550,-0.508162,-0.366207,86.544665,-17.482173,-76.952688
63593,NaN,2.890557,10.540529,0.056298,0.507522,0.598484,1.088839,-0.982502,-0.163169,1.183500,0.632150,0.455198,-0.509598,-0.365364,86.004418,-18.159268,-77.006705
63594,NaN,2.620252,10.376385,-0.105076,0.674612,0.973536,0.824096,-0.963112,-0.228650,1.198933,0.635897,0.448705,-0.511279,-0.364546,85.483885,-18.850180,-77.092259
63595,NaN,2.449190,10.178106,-0.108884,0.704089,1.207266,0.562715,-0.957392,-0.308537,1.216565,0.639403,0.442029,-0.513236,-0.363818,84.983476,-19.553898,-77.219904
63596,NaN,2.920016,10.114526,-0.243316,0.995971,0.918695,0.630077,-1.015719,-0.370662,1.219633,0.642860,0.435001,-0.515256,-0.363340,84.459670,-20.265340,-77.378112
63597,NaN,3.097085,10.256052,-0.322292,1.175170,0.965535,0.797069,-1.012322,-0.438764,1.284678,0.646193,0.427680,-0.517611,-0.362772,83.952933,-21.017465,-77.568537
63598,NaN,3.727083,10.070660,-0.814184,1.835842,0.552568,0.784233,-0.932161,-0.430007,1.245239,0.649275,0.420692,-0.519962,-0.362077,83.489314,-21.749628,-77.749552
63599,NaN,3.062597,10.383392,0.076661,0.888143,1.277442,0.900714,-0.799259,-0.405052,1.482405,0.652514,0.413550,-0.522937,-0.360192,83.092054,-22.614761,-77.893981
63600,NaN,3.655926,8.872844,-0.100163,1.155075,0.317407,-0.290779,-0.763449,-0.409950,1.289420,0.655288,0.406979,-0.525557,-0.358826,82.720278,-23.372882,-78.050038
63601,NaN,4.587536,9.735157,0.147232,1.157909,-0.067749,0.887467,-0.640081,-0.150913,1.263437,0.658396,0.401336,-0.527471,-0.356678,82.357183,-24.096391,-78.043800
63602,NaN,4.095496,9.577054,0.175297,1.069353,0.436404,0.540487,-0.652311,0.104120,1.165403,0.662007,0.396335,-0.528300,-0.354351,81.920851,-24.745709,-77.880699
63603,NaN,2.979378,9.081720,0.124571,0.925155,1.341260,-0.393894,-0.621047,0.189994,1.130498,0.665681,0.391678,-0.528809,-0.351877,81.478334,-25.365490,-77.661483
63604,NaN,2.241092,8.942515,-0.047017,0.981491,2.069389,-0.882606,-0.582677,0.138594,1.171547,0.669199,0.386922,-0.529615,-0.349246,81.063697,-26.012874,-77.463601
63605,NaN,2.116017,8.858684,-0.278975,1.214978,2.284191,-1.075596,-0.634236,0.064989,1.148445,0.672542,0.381921,-0.530510,-0.346961,80.637829,-26.651185,-77.308875
63606,NaN,2.137616,7.915365,-0.566813,1.477067,1.966530,-1.970888,-0.604667,0.067933,1.120244,0.675769,0.377073,-0.531370,-0.344669,80.223868,-27.273384,-77.148557
63607,NaN,2.411007,7.185542,-0.730146,1.669156,1.491368,-2.534832,-0.438550,0.172344,1.050107,0.678807,0.373150,-0.532014,-0.341967,79.875197,-27.843570,-76.924729
63608,NaN,2.603475,7.213699,-0.897290,1.889753,1.441461,-2.466180,-0.262092,0.320065,0.945731,0.681717,0.370337,-0.532247,-0.338861,79.583804,-28.339655,-76.613349
63609,NaN,2.649094,7.400308,-1.046767,2.069714,1.588786,-2.324725,-0.163925,0.469137,0.829619,0.684621,0.368419,-0.531910,-0.335609,79.306473,-28.752375,-76.216656
63610,NaN,2.427368,7.271647,-1.374068,2.343538,1.826469,-2.613485,-0.082385,0.610235,0.706364,0.687533,0.367330,-0.530989,-0.332290,79.034619,-29.079677,-75.740368
63611,NaN,1.883729,7.224505,-1.668045,2.516031,2.364087,-2.985924,-0.047229,0.698814,0.573001,0.690376,0.366862,-0.529566,-0.329171,78.760426,-29.319428,-75.221175
63612,NaN,1.530354,7.081109,-1.826431,2.585046,2.660885,-3.327552,-0.019893,0.717033,0.463606,0.693025,0.366797,-0.527915,-0.326314,78.500021,-29.494169,-74.701912
63613,NaN,1.869868,7.084061,-1.699291,2.541685,2.396529,-3.152036,0.018405,0.697277,0.366997,0.695381,0.367086,-0.526208,-0.323725,78.272498,-29.614428,-74.206774
63614,NaN,2.457546,7.456098,-1.274039,2.296524,2.059113,-2.481790,0.036605,0.663857,0.262299,0.697436,0.367652,-0.524450,-0.321507,78.072058,-29.678675,-73.746446
63615,NaN,2.773833,7.833499,-0.734941,1.882851,1.921620,-1.915839,0.032921,0.596971,0.167653,0.699163,0.368344,-0.522737,-0.319750,77.896656,-29.696160,-73.341770
63616,NaN,2.922261,7.874623,-0.226347,1.439548,1.742355,-1.719949,0.026205,0.484818,0.103359,0.700499,0.369000,-0.521285,-0.318437,77.758107,-29.690443,-73.018525
63617,NaN,3.000805,7.796234,0.066252,1.179301,1.588735,-1.696306,0.041109,0.339276,0.039180,0.701325,0.369640,-0.520244,-0.317579,77.678569,-29.665777,-72.797872
63618,NaN,3.019180,7.820917,0.348750,0.914626,1.533383,-1.614150,0.085539,0.163295,-0.014375,0.701521,0.370298,-0.519794,-0.317117,77.685198,-29.632595,-72.698571
63619,NaN,2.964477,7.898483,0.590287,0.666383,1.567842,-1.528944,0.121525,-0.029836,-0.064054,0.701072,0.370902,-0.519982,-0.317094,77.776623,-29.595115,-72.730216
63620,NaN,3.155179,8.002520,0.754566,0.550063,1.420997,-1.313098,0.161789,-0.176816,-0.130874,0.700055,0.371591,-0.520628,-0.317472,77.943259,-29.537769,-72.866143
63621,NaN,3.336540,8.063378,0.849129,0.488981,1.265980,-1.150718,0.221681,-0.247476,-0.189135,0.698653,0.372525,-0.521503,-0.318029,78.169280,-29.455825,-73.054713
63622,NaN,3.420235,8.267734,1.052604,0.299936,1.236960,-0.894098,0.295506,-0.232302,-0.302909,0.696964,0.374040,-0.522232,-0.318762,78.440674,-29.307339,-73.248599
63623,NaN,3.675984,8.618229,1.390680,0.028656,1.101885,-0.404950,0.326782,-0.204187,-0.408876,0.695120,0.375979,-0.522707,-0.319727,78.725715,-29.095568,-73.436450
63624,NaN,3.478395,8.642616,1.562163,-0.212841,1.198919,-0.445115,0.319414,-0.234975,-0.494965,0.693060,0.378069,-0.523114,-0.321065,79.021033,-28.837601,-73.653882
63625,NaN,3.179670,8.480912,1.396662,-0.161931,1.345198,-0.748983,0.335062,-0.306234,-0.554695,0.690686,0.380246,-0.523670,-0.322701,79.347723,-28.553029,-73.921617
63626,NaN,3.213067,8.464324,1.084771,0.116628,1.307834,-0.789336,0.390070,-0.356072,-0.620923,0.687953,0.382706,-0.524356,-0.324512,79.723418,-28.234352,-74.226928
63627,NaN,3.195818,8.556986,0.891962,0.268054,1.336880,-0.736829,0.458947,-0.370052,-0.706366,0.684906,0.385590,-0.525025,-0.326455,80.142964,-27.867563,-74.546812
63628,NaN,3.125669,8.812309,0.804431,0.306441,1.460995,-0.547451,0.539644,-0.345772,-0.767834,0.681643,0.388950,-0.525614,-0.328345,80.601911,-27.460868,-74.854130
63629,NaN,3.013848,9.187779,0.694779,0.356139,1.672906,-0.270414,0.612215,-0.260472,-0.809559,0.678383,0.392789,-0.525934,-0.330009,81.074124,-27.021299,-75.105972
63630,NaN,2.864817,9.594058,0.574513,0.404385,1.924051,0.021780,0.659320,-0.148179,-0.827189,0.675269,0.397017,-0.525903,-0.331382,81.539206,-26.559316,-75.283855
63631,NaN,2.742700,9.969498,0.420761,0.488433,2.136114,0.301052,0.669668,-0.048353,-0.852775,0.672343,0.401492,-0.525484,-0.332604,81.978562,-26.074280,-75.395514
63632,NaN,2.450403,10.146711,-0.097605,0.882959,2.467857,0.291702,0.690696,0.043822,-0.898499,0.669511,0.406309,-0.524683,-0.333731,82.404886,-25.554252,-75.449115
63633,NaN,2.106499,10.406569,-0.891340,1.533950,2.931194,0.315604,0.749191,0.168998,-0.986048,0.666726,0.411734,-0.523362,-0.334729,82.830447,-24.976044,-75.426021
63634,NaN,2.373046,10.906388,-1.192301,1.844505,2.858569,0.884370,0.765899,0.252357,-1.058809,0.663964,0.417541,-0.521620,-0.335744,83.246058,-24.349431,-75.352516
63635,NaN,3.047467,11.333997,-1.216460,1.977948,2.322321,1.585518,0.763154,0.282716,-1.101801,0.661195,0.423469,-0.519657,-0.336825,83.650953,-23.698263,-75.257891
63636,NaN,3.789757,11.801305,-0.699042,1.604399,1.608196,2.392203,0.711070,0.270444,-1.118312,0.658432,0.429243,-0.517590,-0.338111,84.030647,-23.037408,-75.168468
63637,NaN,4.276983,11.965313,0.170136,0.838200,0.899678,2.835477,0.628099,0.252667,-1.163568,0.655707,0.434795,-0.515318,-0.339778,84.365638,-22.353958,-75.088003
63638,NaN,4.064094,11.822175,0.972117,-0.018384,0.692994,2.707008,0.584685,0.235062,-1.224264,0.652882,0.440327,-0.512875,-0.341783,84.682747,-21.635547,-75.019049
63639,NaN,3.603577,11.669091,1.641565,-0.800293,0.729879,2.462190,0.543279,0.151678,-1.257069,0.649862,0.445628,-0.510535,-0.344164,84.992630,-20.904820,-74.998219
63640,NaN,3.311749,11.638045,1.986945,-1.228139,0.736107,2.365461,0.510470,0.001464,-1.239985,0.646515,0.450516,-0.508642,-0.346896,85.316358,-20.189407,-75.064701
63641,NaN,3.125797,11.536699,2.230621,-1.531558,0.655319,2.231592,0.432842,-0.188929,-1.186656,0.642938,0.454651,-0.507326,-0.350062,85.629678,-19.514560,-75.238900
63642,NaN,3.350430,11.139695,2.352563,-1.614472,0.141628,1.944207,0.354833,-0.378989,-1.154922,0.639070,0.458119,-0.506536,-0.353748,85.934074,-18.863027,-75.522823
63643,NaN,4.120620,10.964321,2.624047,-1.717133,-0.820576,2.038812,0.295958,-0.462756,-1.147334,0.635127,0.461197,-0.505906,-0.357729,86.214366,-18.219714,-75.851627
63644,NaN,4.157105,10.492154,2.979123,-2.068731,-1.213775,1.610439,0.225590,-0.432791,-1.104721,0.631491,0.464038,-0.505091,-0.361622,86.445120,-17.596316,-76.147162
63645,NaN,3.742821,9.879970,3.186863,-2.371628,-1.179245,0.900035,0.130324,-0.480621,-1.084977,0.627951,0.466366,-0.504324,-0.365839,86.623893,-16.986801,-76.476671
63646,NaN,3.347378,9.049914,3.053831,-2.332181,-1.125950,-0.028805,0.094114,-0.583554,-0.987685,0.624412,0.468187,-0.503979,-0.370022,86.795789,-16.433473,-76.851794
63647,NaN,3.400069,8.556363,2.794663,-2.075977,-1.340671,-0.513524,0.076996,-0.601970,-0.898275,0.620991,0.469624,-0.503897,-0.374047,86.954772,-15.932701,-77.241828
63648,NaN,3.405601,8.405080,2.650123,-1.944549,-1.426351,-0.677560,0.052721,-0.511119,-0.785994,0.618074,0.470914,-0.503693,-0.377516,87.081444,-15.490735,-77.562496
63649,NaN,3.121041,8.347972,2.291906,-1.660995,-1.160861,-0.836296,0.039156,-0.379840,-0.682353,0.615680,0.472086,-0.503336,-0.380429,87.175429,-15.105497,-77.810333
63650,NaN,2.701387,8.249230,1.570595,-1.045037,-0.700262,-1.081628,0.050175,-0.338743,-0.585180,0.613531,0.473128,-0.503092,-0.382921,87.267515,-14.772658,-78.030198
63651,NaN,1.910075,8.573007,1.716403,-1.353838,0.060062,-0.966543,0.038115,-0.450147,-0.492716,0.611309,0.473672,-0.503384,-0.385410,87.366786,-14.497055,-78.312289
63652,NaN,3.261840,9.138769,1.499336,-0.880889,-1.077374,-0.093230,-0.076769,-0.371287,-0.491248,0.609546,0.474017,-0.503206,-0.388001,87.387563,-14.218273,-78.547275
63653,NaN,3.643879,9.294685,0.818277,-0.131853,-1.315842,0.116544,-0.110813,-0.083615,-0.430647,0.608708,0.474651,-0.502231,-0.389801,87.345616,-13.968312,-78.610457
63654,NaN,1.405427,9.007803,0.346278,-0.080626,0.790894,-0.724041,-0.127924,0.044605,-0.450354,0.608185,0.475538,-0.500777,-0.391405,87.275964,-13.702164,-78.598931
63655,NaN,0.541099,8.929993,0.149380,-0.035809,1.596037,-1.008646,-0.130111,-0.199487,-0.394396,0.607168,0.475789,-0.500197,-0.393414,87.238293,-13.476243,-78.729669
63656,NaN,1.379836,9.159020,-0.305645,0.584037,0.901831,-0.607769,-0.134256,-0.509814,-0.331118,0.605498,0.475265,-0.500691,-0.395985,87.239916,-13.293481,-79.041280
63657,NaN,2.754962,9.522745,-0.410923,0.949517,-0.340883,0.057645,-0.161802,-0.657118,-0.307423,0.603571,0.474292,-0.501633,-0.398891,87.244139,-13.129984,-79.438431
63658,NaN,3.593263,9.803933,-0.107659,0.804526,-1.165033,0.533113,-0.221198,-0.681404,-0.312430,0.601732,0.473149,-0.502464,-0.401968,87.216778,-12.962703,-79.839926
63659,NaN,3.623295,9.670425,0.121768,0.587215,-1.294844,0.416618,-0.289151,-0.664030,-0.304396,0.600078,0.471757,-0.503164,-0.405189,87.146616,-12.801541,-80.240694
63660,NaN,3.089262,9.392321,0.280861,0.347983,-0.898779,0.031557,-0.296921,-0.662814,-0.297337,0.598479,0.470371,-0.503808,-0.408353,87.071099,-12.643385,-80.630661
63661,NaN,2.526451,9.335440,0.579331,-0.027050,-0.440456,-0.134142,-0.265151,-0.714039,-0.296039,0.596640,0.468912,-0.504711,-0.411593,87.018834,-12.489414,-81.060388
63662,NaN,2.416523,9.633410,0.875834,-0.323716,-0.333586,0.146888,-0.253218,-0.828951,-0.275651,0.594544,0.467244,-0.505974,-0.414958,86.987028,-12.349455,-81.546841
63663,NaN,2.557480,9.844143,1.026071,-0.442913,-0.462786,0.389778,-0.266478,-0.929801,-0.261919,0.592209,0.465231,-0.507575,-0.418588,86.958550,-12.222062,-82.101589
63664,NaN,3.079852,10.086091,1.368863,-0.704703,-0.976438,0.753222,-0.292381,-0.981263,-0.275867,0.589790,0.463107,-0.509184,-0.422388,86.920676,-12.087220,-82.676825
63665,NaN,3.703986,10.020466,1.532630,-0.791030,-1.628919,0.826819,-0.350833,-0.946712,-0.247631,0.587607,0.460748,-0.510663,-0.426208,86.843327,-11.969389,-83.240680
63666,NaN,2.899921,9.545635,1.375792,-0.739693,-0.942790,0.186586,-0.332011,-0.921141,-0.220372,0.585520,0.458467,-0.512113,-0.429784,86.772560,-11.865847,-83.778711
63667,NaN,2.376897,9.312874,1.193624,-0.619000,-0.473540,-0.158849,-0.274014,-1.006271,-0.197205,0.583085,0.456052,-0.514020,-0.433373,86.744003,-11.779982,-84.375537
63668,NaN,2.708624,9.170434,0.895719,-0.299623,-0.807647,-0.247452,-0.235964,-1.093528,-0.150719,0.580456,0.453475,-0.516310,-0.436869,86.746587,-11.722564,-85.011728
63669,NaN,2.805274,8.949403,0.383936,0.199400,-0.915901,-0.472979,-0.205916,-1.049959,-0.105369,0.577920,0.450899,-0.518671,-0.440089,86.760374,-11.690700,-85.630788
63670,NaN,2.716885,8.637521,0.123527,0.427773,-0.884290,-0.810548,-0.145629,-0.885921,-0.069950,0.575771,0.448806,-0.520715,-0.442625,86.788777,-11.672586,-86.142841
63671,NaN,2.728359,8.457284,-0.097782,0.629608,-0.927160,-0.996617,-0.072850,-0.630858,-0.056938,0.574108,0.447396,-0.522249,-0.444400,86.828512,-11.654476,-86.515386
63672,NaN,2.636628,8.481776,-0.128336,0.644998,-0.838304,-0.992822,-0.003547,-0.363441,-0.063864,0.573005,0.446844,-0.523109,-0.445368,86.876358,-11.622836,-86.721959
63673,NaN,2.299352,8.564523,-0.043786,0.535819,-0.501985,-0.975216,0.048708,-0.179354,-0.046232,0.572269,0.446755,-0.523639,-0.445781,86.932239,-11.596272,-86.830352
63674,NaN,1.742796,8.563982,-0.049377,0.502347,0.038603,-1.087567,0.067746,-0.114076,-0.011011,0.571775,0.446823,-0.524060,-0.445851,86.991211,-11.586989,-86.889554
63675,NaN,0.896318,8.375907,-0.352292,0.742584,0.839659,-1.456441,0.091734,-0.127595,0.000155,0.571181,0.446851,-0.524640,-0.445903,87.065332,-11.585199,-86.966240
63676,NaN,0.519236,8.214544,-0.713950,1.066079,1.189251,-1.706689,0.134990,-0.198235,0.007091,0.570316,0.446830,-0.525531,-0.445982,87.172668,-11.588467,-87.084062
63677,NaN,0.866959,8.366330,-0.866302,1.227230,0.884553,-1.493491,0.140681,-0.334294,0.035257,0.569146,0.446442,-0.526886,-0.446266,87.298936,-11.612206,-87.280514
63678,NaN,1.518314,8.566897,-0.810285,1.192962,0.284672,-1.161135,0.107055,-0.440438,0.039005,0.567811,0.445762,-0.528434,-0.446816,87.418844,-11.639533,-87.529073
63679,NaN,2.290910,8.737964,-0.495838,0.900124,-0.448304,-0.821863,0.079571,-0.475205,0.033340,0.566396,0.444887,-0.530044,-0.447577,87.526943,-11.664937,-87.808064
63680,NaN,2.589749,8.769210,-0.133050,0.531702,-0.746262,-0.714121,0.068760,-0.432714,0.005233,0.565085,0.444200,-0.531404,-0.448302,87.624505,-11.671805,-88.053115
63681,NaN,2.322998,8.705138,0.216618,0.154406,-0.509234,-0.816049,0.069879,-0.371492,-0.023794,0.563834,0.443678,-0.532567,-0.449015,87.715154,-11.661145,-88.272940
63682,NaN,2.046724,8.729140,0.594057,-0.246038,-0.245354,-0.833872,0.095551,-0.343771,-0.043070,0.562587,0.443391,-0.533626,-0.449604,87.817739,-11.637625,-88.467108
63683,NaN,2.041610,8.855348,1.057950,-0.723590,-0.226577,-0.695140,0.125831,-0.371839,-0.055380,0.561136,0.443106,-0.534841,-0.450254,87.940446,-11.608102,-88.687745
63684,NaN,2.665967,8.945194,1.426597,-1.096681,-0.827879,-0.470797,0.127349,-0.411007,-0.056754,0.559604,0.442791,-0.536125,-0.450942,88.068906,-11.577287,-88.921337
63685,NaN,3.257335,8.973567,1.922628,-1.604138,-1.408624,-0.311419,0.114909,-0.368309,-0.070482,0.558148,0.442520,-0.537268,-0.451652,88.184717,-11.538115,-89.140015
63686,NaN,3.158760,8.774911,2.278913,-1.989657,-1.358324,-0.519332,0.125950,-0.290943,-0.101229,0.556839,0.442587,-0.538111,-0.452200,88.297959,-11.478875,-89.303990
63687,NaN,2.616130,8.405569,2.352441,-2.102254,-0.906714,-0.992820,0.188895,-0.253763,-0.132402,0.555383,0.442944,-0.538961,-0.452627,88.442598,-11.401464,-89.456501
63688,NaN,2.609553,8.277043,2.400100,-2.180400,-0.934656,-1.126383,0.275674,-0.270625,-0.151894,0.553680,0.443605,-0.539969,-0.452865,88.638641,-11.312162,-89.608894
63689,NaN,2.873459,8.363926,2.117585,-1.927348,-1.185510,-1.004965,0.326860,-0.231254,-0.148956,0.551937,0.444437,-0.541029,-0.452913,88.859230,-11.224000,-89.747852
63690,NaN,3.099569,8.332725,1.943845,-1.787219,-1.424353,-1.003764,0.347397,-0.104958,-0.122187,0.550587,0.445585,-0.541801,-0.452503,89.076651,-11.148956,-89.802357
63691,NaN,3.213223,8.296390,1.961391,-1.837280,-1.554796,-1.025830,0.392927,0.073942,-0.103817,0.549621,0.447164,-0.542265,-0.451564,89.300158,-11.083136,-89.761985
63692,NaN,3.378477,8.457376,1.910660,-1.813898,-1.701183,-0.845659,0.445385,0.283079,-0.100921,0.549148,0.449395,-0.542233,-0.449960,89.529783,-11.017700,-89.589169
63693,NaN,3.410133,8.765242,1.663106,-1.592911,-1.688934,-0.547999,0.491565,0.451827,-0.073838,0.549044,0.452008,-0.541939,-0.447818,89.767714,-10.968049,-89.327615
63694,NaN,3.256768,9.097481,1.223895,-1.182729,-1.484709,-0.259398,0.500510,0.572321,-0.021565,0.549398,0.454813,-0.541403,-0.445185,89.996767,-10.949249,-88.985367
63695,NaN,2.857779,9.291320,0.595979,-0.590437,-1.052626,-0.148629,0.488831,0.642227,0.023651,0.550017,0.457567,-0.540786,-0.442339,90.212147,-10.957697,-88.612443
63696,NaN,2.168296,9.478131,-0.323239,0.279349,-0.315816,-0.093476,0.505829,0.670254,0.065458,0.550800,0.460353,-0.540173,-0.439214,90.433188,-10.991726,-88.213140
63697,NaN,2.026873,9.654322,-0.835501,0.750271,-0.116057,0.058266,0.473683,0.662312,0.108458,0.551676,0.462865,-0.539643,-0.436114,90.637299,-11.051623,-87.828944
63698,NaN,2.862446,9.985355,-0.918533,0.828205,-0.850136,0.547614,0.424666,0.627578,0.177349,0.552756,0.465016,-0.539210,-0.432983,90.816031,-11.152155,-87.455480
63699,NaN,3.615590,10.306689,-0.786360,0.699080,-1.506658,1.011353,0.376554,0.638064,0.239841,0.554060,0.466837,-0.538824,-0.429824,90.966192,-11.289445,-87.086764
63700,NaN,3.868799,10.898055,-0.315260,0.207115,-1.634956,1.638011,0.371497,0.633786,0.266283,0.555455,0.468601,-0.538449,-0.426562,91.112425,-11.443073,-86.710852
63701,NaN,3.733861,11.780506,0.243104,-0.408060,-1.333244,2.468882,0.392802,0.597173,0.277947,0.556676,0.470264,-0.538284,-0.423337,91.274925,-11.603611,-86.366859
63702,NaN,3.331981,12.803569,0.793668,-1.049195,-0.745354,3.378479,0.376559,0.483980,0.266001,0.557603,0.471663,-0.538363,-0.420449,91.439901,-11.757204,-86.089014
63703,NaN,3.198302,13.288305,1.357801,-1.670973,-0.530410,3.810021,0.259361,0.333942,0.274794,0.558412,0.472398,-0.538631,-0.418203,91.555795,-11.913781,-85.899504
63704,NaN,3.378979,13.061492,1.571284,-1.881714,-0.737620,3.618767,0.115906,0.187823,0.295951,0.559213,0.472361,-0.539053,-0.416627,91.605955,-12.080965,-85.795799
63705,NaN,3.915379,12.505260,1.624914,-1.881272,-1.342855,3.187678,0.022369,0.085037,0.327085,0.560015,0.471769,-0.539641,-0.415458,91.615920,-12.263847,-85.753063
63706,NaN,4.533090,11.976528,1.799395,-1.986594,-2.030656,2.802926,-0.044096,0.098158,0.317347,0.560996,0.471036,-0.540027,-0.414464,91.584839,-12.441990,-85.702136
63707,NaN,4.499210,11.288247,1.947231,-2.096173,-2.120267,2.127560,-0.099205,0.183999,0.304749,0.562302,0.470366,-0.540030,-0.413449,91.512160,-12.613566,-85.600722
63708,NaN,3.684585,10.471902,1.914437,-2.072591,-1.469752,1.162105,-0.118969,0.248553,0.291879,0.563811,0.469798,-0.539775,-0.412372,91.418009,-12.779435,-85.460536
63709,NaN,3.174335,9.869518,1.925815,-2.082189,-1.078307,0.468082,-0.102289,0.224570,0.300142,0.565220,0.469213,-0.539642,-0.411281,91.337515,-12.948635,-85.334562
63710,NaN,3.166155,9.382903,1.701135,-1.825300,-1.129584,0.003089,-0.110656,0.204576,0.335027,0.566677,0.468456,-0.539625,-0.410159,91.252839,-13.138369,-85.220035
63711,NaN,3.097222,9.056394,1.233662,-1.337841,-1.063188,-0.314652,-0.102625,0.329824,0.377800,0.568526,0.467872,-0.539371,-0.408599,91.157197,-13.352951,-85.032363
63712,NaN,2.864940,8.890794,0.794178,-0.894948,-0.801699,-0.515321,-0.098442,0.561467,0.406389,0.571057,0.467679,-0.538524,-0.406401,91.029493,-13.587173,-84.707460
63713,NaN,2.796864,8.749632,0.480071,-0.558291,-0.703402,-0.658326,-0.114851,0.824359,0.399106,0.574296,0.467998,-0.536872,-0.403646,90.856039,-13.817786,-84.227018
63714,NaN,2.906092,8.635634,0.157705,-0.189546,-0.766351,-0.734089,-0.121480,1.075156,0.382551,0.578189,0.468824,-0.534428,-0.400360,90.638965,-14.040328,-83.596595
63715,NaN,2.710398,8.560659,-0.087519,0.074440,-0.530360,-0.848776,-0.120899,1.308208,0.366163,0.582634,0.470155,-0.531258,-0.396557,90.387869,-14.251048,-82.827405
63716,NaN,2.596959,8.768737,-0.453716,0.456768,-0.282741,-0.672014,-0.098319,1.466753,0.364694,0.587428,0.471834,-0.527634,-0.392305,90.121278,-14.459108,-81.962186
63717,NaN,2.221117,9.135767,-1.064318,1.036911,0.303543,-0.412653,-0.133588,1.641329,0.346034,0.592678,0.473783,-0.523356,-0.387764,89.807160,-14.651019,-80.992352
63718,NaN,1.768363,9.098755,-1.380864,1.318391,0.830775,-0.571879,-0.117108,1.722218,0.286264,0.597955,0.476047,-0.518685,-0.383137,89.485088,-14.804270,-79.972401
63719,NaN,2.119727,9.669918,-1.332532,1.344083,0.688069,0.061309,-0.124798,1.704942,0.290536,0.603155,0.478221,-0.514027,-0.378530,89.160198,-14.953431,-78.961643
63720,NaN,2.385565,10.018002,-1.612505,1.697404,0.638265,0.451929,-0.147118,1.802906,0.265601,0.608577,0.480528,-0.508927,-0.373791,88.802941,-15.082442,-77.890957
63721,NaN,1.909335,10.134292,-1.486678,1.519160,1.154026,0.430335,-0.226778,1.889601,0.228126,0.614276,0.482820,-0.503284,-0.369128,88.386139,-15.180834,-76.768460
63722,NaN,1.571764,10.520824,-0.296809,0.317814,1.365083,0.736312,-0.316922,1.518021,0.362076,0.619468,0.483764,-0.498897,-0.365149,87.970543,-15.355647,-75.862096
63723,NaN,1.411168,10.868495,0.298454,-0.260120,1.524559,1.041443,-0.492242,0.952688,0.461320,0.623815,0.482872,-0.496160,-0.362649,87.541369,-15.592696,-75.287536
63724,NaN,2.223639,11.019565,0.216381,0.067495,0.896836,1.395015,-0.564857,0.438798,0.550436,0.627217,0.480579,-0.495092,-0.361284,87.148000,-15.891017,-75.013129
63725,NaN,2.708059,11.130521,0.156837,0.296255,0.571129,1.625490,-0.617775,0.143540,0.596622,0.630077,0.477473,-0.494960,-0.360607,86.771956,-16.222348,-74.911017
63726,NaN,2.575812,11.140851,0.159626,0.312866,0.780775,1.592156,-0.677297,-0.086126,0.630996,0.632569,0.473662,-0.495512,-0.360511,86.397332,-16.581046,-74.941703
63727,NaN,2.582358,11.084553,0.228202,0.297951,0.831040,1.536659,-0.707785,-0.385107,0.687559,0.634471,0.469072,-0.497082,-0.361010,86.057203,-16.983014,-75.146891
63728,NaN,3.405491,11.025094,0.308615,0.465141,0.127207,1.720389,-0.736630,-0.576961,0.715191,0.636002,0.463954,-0.499253,-0.361933,85.733517,-17.410212,-75.463218
63729,NaN,3.732651,10.546537,0.312931,0.579966,-0.228668,1.361860,-0.779744,-0.577309,0.722786,0.637615,0.458670,-0.501352,-0.362926,85.388231,-17.843086,-75.777988
63730,NaN,3.020639,10.002202,0.222718,0.538747,0.365227,0.617726,-0.738961,-0.552845,0.699438,0.639140,0.453596,-0.503371,-0.363824,85.062389,-18.263682,-76.076862
63731,NaN,2.397584,9.536279,-0.020100,0.665218,0.918590,-0.045265,-0.688158,-0.632367,0.657502,0.640244,0.448639,-0.505630,-0.364896,84.784413,-18.665400,-76.424656
63732,NaN,2.698266,9.919316,0.026690,0.719890,0.831821,0.408051,-0.584945,-0.752736,0.665874,0.640814,0.443749,-0.508461,-0.365938,84.589683,-19.080063,-76.843196
63733,NaN,3.634173,8.804002,-0.086875,1.027652,-0.314368,-0.348548,-0.542721,-0.691106,0.690348,0.641464,0.439038,-0.511214,-0.366646,84.410419,-19.506166,-77.223141
63734,NaN,3.794813,8.266051,-0.322532,1.287951,-0.543825,-0.819500,-0.414049,-0.455283,0.584649,0.642232,0.435425,-0.513199,-0.366838,84.260090,-19.860124,-77.465837
63735,NaN,3.797735,8.497242,-0.573189,1.548254,-0.369015,-0.624599,-0.269491,-0.061868,0.509777,0.643543,0.433191,-0.514019,-0.366037,84.114785,-20.148736,-77.474439
63736,NaN,3.344096,8.592246,-0.827134,1.721341,0.174505,-0.718726,-0.195598,0.315556,0.457273,0.645568,0.432010,-0.513640,-0.364395,83.932327,-20.385454,-77.255881
63737,NaN,2.767973,8.578325,-1.099080,1.887117,0.793365,-0.965856,-0.183755,0.555715,0.428188,0.648118,0.431382,-0.512441,-0.362294,83.705967,-20.589540,-76.892357
63738,NaN,2.548271,8.310676,-1.333883,2.083071,0.988095,-1.325963,-0.164971,0.678519,0.427006,0.650936,0.431028,-0.510867,-0.359877,83.461602,-20.784185,-76.452518
63739,NaN,2.464317,7.943647,-1.801202,2.527695,1.069183,-1.757499,-0.093218,0.790960,0.427677,0.653871,0.431107,-0.509049,-0.357027,83.232786,-20.969554,-75.943025
63740,NaN,2.277793,7.688928,-2.148522,2.827059,1.265186,-2.110034,0.032823,0.956226,0.408259,0.656908,0.431927,-0.506863,-0.353554,83.038194,-21.131227,-75.332728
63741,NaN,2.210601,7.675807,-2.253487,2.915710,1.397368,-2.168820,0.141576,1.099610,0.386314,0.660012,0.433405,-0.504335,-0.349558,82.873392,-21.268132,-74.635652
63742,NaN,2.223156,7.797869,-2.274656,2.941091,1.492619,-2.063814,0.176039,1.191357,0.354387,0.663193,0.435220,-0.501478,-0.345367,82.707099,-21.378768,-73.884027
63743,NaN,2.247218,8.043609,-1.740414,2.434968,1.493723,-1.774144,0.194687,1.228951,0.325067,0.666350,0.437219,-0.498443,-0.341133,82.542432,-21.467601,-73.110942
63744,NaN,2.158283,8.436745,-0.824342,1.537079,1.543807,-1.340951,0.148589,1.192318,0.285089,0.669420,0.439085,-0.495348,-0.337212,82.359877,-21.534577,-72.362880
63745,NaN,1.803657,8.527904,-0.105360,0.752692,1.740120,-1.304174,0.076558,1.041523,0.242941,0.672183,0.440545,-0.492524,-0.333932,82.169867,-21.586716,-71.709707
63746,NaN,1.442183,8.401983,0.389558,0.175430,1.898071,-1.494544,0.057736,0.816986,0.190679,0.674330,0.441687,-0.490300,-0.331358,82.021135,-21.625225,-71.197863
63747,NaN,1.159133,8.387784,0.714246,-0.219513,2.064215,-1.572574,0.059866,0.512357,0.154861,0.675659,0.442412,-0.489018,-0.329571,81.942358,-21.666678,-70.874613
63748,NaN,1.401618,8.480599,0.893830,-0.318619,1.844714,-1.375891,0.039312,0.189611,0.102101,0.676152,0.442666,-0.488676,-0.328725,81.926699,-21.703810,-70.753090
63749,NaN,2.396410,8.786772,1.202688,-0.308172,1.009103,-0.686717,0.019679,-0.059571,0.016751,0.675943,0.442650,-0.488953,-0.328767,81.958093,-21.712640,-70.790831
63750,NaN,3.392799,8.887390,1.310327,-0.109011,0.144223,-0.211590,-0.051210,-0.210334,-0.014148,0.675466,0.442225,-0.489556,-0.329420,81.984597,-21.715722,-70.923576
63751,NaN,3.173680,8.497789,1.161463,-0.042711,0.221642,-0.670329,-0.040471,-0.274438,-0.071342,0.674717,0.441866,-0.490264,-0.330381,82.032846,-21.691642,-71.100094
63752,NaN,2.951131,8.235966,1.002976,0.032005,0.344580,-1.013456,0.034965,-0.297184,-0.226706,0.673484,0.442108,-0.490831,-0.331731,82.134727,-21.580683,-71.303839
63753,NaN,2.756008,8.198142,0.761937,0.194845,0.540556,-1.149235,0.117829,-0.277029,-0.329713,0.671946,0.442909,-0.491235,-0.333178,82.281435,-21.409565,-71.503164
63754,NaN,2.351977,8.382069,0.669602,0.153929,0.957249,-1.135183,0.214940,-0.241118,-0.397824,0.670160,0.444265,-0.491529,-0.334535,82.477618,-21.196146,-71.685615
63755,NaN,2.460208,8.845454,0.657973,0.187688,0.997864,-0.664111,0.256983,-0.149967,-0.448450,0.668420,0.446031,-0.491469,-0.335752,82.677620,-20.946970,-71.815233
63756,NaN,2.451615,9.187069,0.417991,0.406359,1.147680,-0.373151,0.245279,0.003708,-0.503327,0.666981,0.448152,-0.490751,-0.336837,82.839025,-20.654678,-71.854872
63757,NaN,2.073708,9.238911,0.183807,0.513187,1.511235,-0.477588,0.257607,0.145464,-0.535736,0.665806,0.450624,-0.489503,-0.337678,82.976977,-20.334282,-71.809727
63758,NaN,2.000697,9.408356,-0.105842,0.762424,1.658614,-0.368189,0.321541,0.252459,-0.572205,0.664674,0.453580,-0.487921,-0.338241,83.130968,-19.985264,-71.702006
63759,NaN,2.038507,9.831536,-0.361095,1.008634,1.784790,0.023055,0.391941,0.331814,-0.586470,0.663549,0.456925,-0.486153,-0.338493,83.308894,-19.623632,-71.546166
63760,NaN,1.534749,10.163969,-0.993115,1.444065,2.464141,0.111540,0.467358,0.413378,-0.570169,0.662458,0.460620,-0.484272,-0.338318,83.514884,-19.265680,-71.339408
63761,NaN,0.935709,10.585770,-1.423726,1.647672,3.206884,0.284923,0.478245,0.415820,-0.537143,0.661400,0.464258,-0.482468,-0.337993,83.725772,-18.927821,-71.127633
63762,NaN,1.145795,10.951345,-1.331757,1.598452,3.057071,0.728532,0.380231,0.296561,-0.512296,0.660304,0.467314,-0.480944,-0.338096,83.905262,-18.611180,-70.985674
63763,NaN,1.666814,11.152797,-1.099497,1.522104,2.529778,1.126012,0.267102,0.115397,-0.504720,0.659051,0.469657,-0.479838,-0.338864,84.053442,-18.311110,-70.950881
63764,NaN,2.018492,11.357045,-0.771017,1.309223,2.121838,1.476008,0.209305,-0.082982,-0.513543,0.657427,0.471503,-0.479265,-0.340266,84.207299,-18.016496,-71.035437
63765,NaN,2.234766,11.930427,-0.206163,0.828290,1.876690,2.152398,0.211014,-0.256046,-0.567773,0.655296,0.473173,-0.479129,-0.342243,84.392576,-17.701804,-71.225260
63766,NaN,1.859605,12.516949,0.398819,0.128645,2.143512,2.664468,0.148890,-0.446255,-0.653858,0.652687,0.474527,-0.479302,-0.345100,84.578300,-17.346492,-71.533017
63767,NaN,1.459088,12.759729,1.180795,-0.736489,2.271672,2.861318,0.048849,-0.739335,-0.700371,0.649531,0.475136,-0.480136,-0.349033,84.754963,-16.980743,-72.015949
63768,NaN,1.974266,12.588981,1.851938,-1.218453,1.482443,2.920228,-0.059557,-1.065525,-0.724201,0.645773,0.474881,-0.481767,-0.354071,84.924302,-16.615116,-72.693125
63769,NaN,2.993184,12.131045,2.280508,-1.336973,0.226515,2.815969,-0.150300,-1.266688,-0.725713,0.641725,0.473941,-0.483860,-0.359788,85.069025,-16.258598,-73.487151
63770,NaN,3.580456,11.514295,2.506345,-1.402880,-0.617426,2.407412,-0.199567,-1.302734,-0.736038,0.637639,0.472793,-0.485927,-0.365730,85.187748,-15.894322,-74.301364
63771,NaN,3.342158,10.792375,2.619486,-1.589592,-0.689839,1.654838,-0.191327,-1.286435,-0.747899,0.633529,0.471687,-0.487903,-0.371623,85.301512,-15.522782,-75.103684
63772,NaN,2.961589,10.126603,2.662234,-1.744352,-0.582847,0.912234,-0.182595,-1.352424,-0.731377,0.629218,0.470432,-0.490112,-0.377583,85.426179,-15.160262,-75.942522
63773,NaN,3.144779,9.359981,2.567801,-1.636840,-0.982163,0.209711,-0.210031,-1.422132,-0.650849,0.624926,0.468719,-0.492650,-0.383492,85.538192,-14.847079,-76.816243
63774,NaN,3.373512,8.611396,2.120286,-1.183492,-1.336982,-0.493672,-0.209077,-1.275775,-0.582623,0.621077,0.467107,-0.494861,-0.388827,85.624186,-14.563115,-77.599014
63775,NaN,3.603593,8.212843,1.723549,-0.773405,-1.616439,-0.857458,-0.170314,-0.937141,-0.573236,0.617980,0.466220,-0.496101,-0.393223,85.677381,-14.270721,-78.179863
63776,NaN,3.330233,8.047594,1.426073,-0.549824,-1.384374,-1.113896,-0.094623,-0.559747,-0.543976,0.615675,0.466235,-0.496376,-0.396459,85.717061,-13.976674,-78.536374
63777,NaN,2.980680,8.257412,1.125536,-0.319227,-0.987066,-1.022932,-0.028023,-0.262414,-0.507217,0.614028,0.466937,-0.495952,-0.398712,85.749966,-13.692432,-78.715370
63778,NaN,2.909069,8.365779,0.681730,0.107440,-0.855074,-0.971258,0.028886,-0.019155,-0.448738,0.612955,0.468161,-0.495023,-0.400079,85.781150,-13.429659,-78.748727
63779,NaN,3.045592,8.579843,0.328436,0.489581,-0.909818,-0.761189,0.077787,0.183692,-0.400503,0.612372,0.469808,-0.493685,-0.400695,85.811558,-13.187469,-78.660454
63780,NaN,2.905104,8.884892,-0.318554,1.110123,-0.622619,-0.546496,0.113211,0.337253,-0.361715,0.612150,0.471783,-0.492033,-0.400747,85.842577,-12.959654,-78.480636
63781,NaN,2.871240,9.841723,0.690459,0.151327,-0.589605,0.444484,0.028876,0.522904,-0.401543,0.612507,0.473955,-0.489548,-0.400681,85.801550,-12.702748,-78.193665
63782,NaN,2.732450,9.400981,0.374669,0.445981,-0.536201,-0.040353,-0.089995,0.620512,-0.342402,0.613487,0.475818,-0.486658,-0.400493,85.681519,-12.473759,-77.847868
63783,NaN,1.100010,8.908913,0.149309,0.338365,0.924725,-0.889046,-0.016350,0.522319,-0.312720,0.614115,0.477624,-0.484284,-0.400260,85.616340,-12.266780,-77.558598
63784,NaN,0.595210,9.342875,0.038897,0.360105,1.498891,-0.578582,0.024758,0.192494,-0.256530,0.613945,0.478766,-0.483134,-0.400545,85.616700,-12.104861,-77.460159
63785,NaN,1.429956,9.852423,0.143766,0.453590,0.770878,0.103745,-0.034076,-0.150723,-0.206644,0.613195,0.478909,-0.483041,-0.401634,85.624122,-11.987789,-77.559758
63786,NaN,2.293477,9.840943,0.182134,0.604130,-0.084135,0.275190,-0.138894,-0.342511,-0.193903,0.612246,0.478324,-0.483352,-0.403401,85.595255,-11.884988,-77.771029
63787,NaN,2.575856,9.654105,0.552270,0.302986,-0.484233,0.178082,-0.178075,-0.442747,-0.183197,0.611177,0.477378,-0.483915,-0.405462,85.554577,-11.794296,-78.040033
63788,NaN,2.352872,9.602040,0.931770,-0.109566,-0.368501,0.109791,-0.166036,-0.555186,-0.172575,0.609814,0.476221,-0.484867,-0.407731,85.534601,-11.713427,-78.374398
63789,NaN,1.901474,9.787044,1.358530,-0.608399,0.017379,0.231066,-0.153177,-0.786861,-0.126796,0.607954,0.474504,-0.486655,-0.410372,85.547650,-11.670436,-78.841478
63790,NaN,2.065829,9.988505,1.590367,-0.799876,-0.137270,0.478498,-0.202463,-1.083122,-0.091419,0.605539,0.471942,-0.489314,-0.413722,85.567709,-11.659288,-79.479957
63791,NaN,2.892299,9.944955,1.714386,-0.785582,-0.952406,0.612397,-0.269257,-1.323034,-0.050111,0.602766,0.468552,-0.492641,-0.417657,85.576643,-11.683573,-80.256269
63792,NaN,3.896222,9.635950,1.743238,-0.682607,-1.975939,0.516910,-0.296194,-1.370049,-0.027349,0.599951,0.464914,-0.496081,-0.421684,85.576642,-11.721537,-81.059294
63793,NaN,3.700063,9.235085,1.686666,-0.703646,-1.848231,0.082308,-0.231474,-1.287510,-0.036787,0.597151,0.461636,-0.499368,-0.425364,85.603789,-11.751629,-81.814470
63794,NaN,2.834353,9.127467,1.482826,-0.655815,-0.997458,-0.214879,-0.105818,-1.205329,-0.096840,0.594108,0.459048,-0.502516,-0.428706,85.694414,-11.741943,-82.524596
63795,NaN,2.981451,9.356396,1.382234,-0.553559,-1.077986,0.029732,-0.079845,-1.133934,-0.114472,0.591132,0.456711,-0.505452,-0.431852,85.790839,-11.719148,-83.193588
63796,NaN,3.463867,9.272707,1.057283,-0.203198,-1.533184,0.021301,-0.129115,-0.893556,-0.112383,0.588860,0.454736,-0.507559,-0.434560,85.830662,-11.685680,-83.722269
63797,NaN,3.678746,8.830029,0.728009,0.107344,-1.810787,-0.392386,-0.038514,-0.477004,-0.116221,0.587428,0.453930,-0.508624,-0.436093,85.872460,-11.633413,-84.007802
63798,NaN,2.724417,8.629646,0.516150,0.197866,-0.914370,-0.796900,0.074462,-0.117973,-0.109302,0.586661,0.454225,-0.508893,-0.436505,85.936899,-11.569321,-84.083600
63799,NaN,2.458757,8.647464,0.252128,0.423557,-0.640448,-0.851767,0.176459,0.145782,-0.117169,0.586321,0.455408,-0.508594,-0.436077,86.028577,-11.490873,-84.005631
63800,NaN,2.412901,8.972748,0.016761,0.658551,-0.522013,-0.559235,0.197335,0.392642,-0.144705,0.586493,0.457265,-0.507551,-0.435116,86.104413,-11.386369,-83.784834
63801,NaN,1.671334,8.901760,-0.363465,0.946116,0.210209,-0.800059,0.187680,0.513028,-0.100062,0.587092,0.459234,-0.506234,-0.433768,86.160483,-11.303706,-83.491912
63802,NaN,0.671058,8.656579,-1.136284,1.579012,1.207557,-1.284714,0.218045,0.517227,-0.053635,0.587722,0.461185,-0.505072,-0.432196,86.233985,-11.247066,-83.194860
63803,NaN,0.440809,8.510077,-1.479434,1.869037,1.439467,-1.491686,0.232900,0.464839,-0.020775,0.588257,0.462975,-0.504169,-0.430605,86.321409,-11.212257,-82.926926
63804,NaN,0.969934,8.539204,-1.372097,1.810228,0.922227,-1.350183,0.208163,0.362162,0.027882,0.588686,0.464352,-0.503625,-0.429170,86.406774,-11.208593,-82.717197
63805,NaN,1.359695,8.639734,-0.919270,1.399164,0.517262,-1.145877,0.169039,0.254063,0.073647,0.589036,0.465259,-0.503419,-0.427948,86.480872,-11.236033,-82.568630
63806,NaN,1.699904,8.775074,-0.114888,0.638019,0.125394,-0.897419,0.125054,0.135679,0.087268,0.589211,0.465756,-0.503500,-0.427071,86.544015,-11.274710,-82.488859
63807,NaN,1.652353,8.749482,0.533789,-0.020944,0.095533,-0.893099,0.071913,0.025982,0.093611,0.589254,0.465838,-0.503804,-0.426564,86.588199,-11.321706,-82.472638
63808,NaN,1.273335,8.620701,1.040222,-0.582807,0.384311,-1.064398,0.030103,-0.107146,0.090643,0.589045,0.465528,-0.504404,-0.426481,86.624699,-11.370676,-82.534451
63809,NaN,1.145162,8.619740,1.368124,-0.930272,0.478934,-1.072649,0.008799,-0.272941,0.097371,0.588488,0.464776,-0.505462,-0.426817,86.667157,-11.429865,-82.692581
63810,NaN,1.734229,8.790849,1.634196,-1.122482,-0.077484,-0.774370,-0.025080,-0.449548,0.095320,0.587550,0.463559,-0.506960,-0.427655,86.711763,-11.492693,-82.954161
63811,NaN,2.275369,9.161261,1.912262,-1.330192,-0.542981,-0.289113,-0.076571,-0.593251,0.087395,0.586354,0.461892,-0.508749,-0.428975,86.743100,-11.556432,-83.299774
63812,NaN,3.048922,9.071785,2.021535,-1.364484,-1.306487,-0.215238,-0.111092,-0.644644,0.100563,0.585122,0.459982,-0.510639,-0.430461,86.761740,-11.628327,-83.675267
63813,NaN,2.761708,8.708019,1.984177,-1.386939,-1.078724,-0.630842,-0.006894,-0.625707,0.098090,0.583694,0.458413,-0.512687,-0.431638,86.837634,-11.698795,-84.039743
63814,NaN,2.163053,8.695817,1.893585,-1.382621,-0.474427,-0.771399,0.142340,-0.660506,0.049222,0.581717,0.457330,-0.515040,-0.432652,87.004393,-11.740843,-84.426464
63815,NaN,2.419417,8.849331,1.816524,-1.310424,-0.673224,-0.577244,0.214717,-0.703408,0.051892,0.579468,0.456346,-0.517675,-0.433563,87.217523,-11.785179,-84.838236
63816,NaN,2.252710,8.921641,1.385149,-0.933499,-0.450415,-0.565279,0.267943,-0.691386,0.052740,0.577119,0.455539,-0.520384,-0.434302,87.460401,-11.827352,-85.243309
63817,NaN,2.241650,9.009083,1.074436,-0.663213,-0.391144,-0.498719,0.276870,-0.596379,0.037618,0.574960,0.454993,-0.522798,-0.434838,87.697024,-11.857633,-85.593308
63818,NaN,2.512252,8.994636,0.866231,-0.473871,-0.640724,-0.467633,0.275640,-0.410090,0.017022,0.573238,0.454902,-0.524622,-0.435011,87.911019,-11.870006,-85.835018
63819,NaN,2.579191,8.961436,0.625399,-0.264255,-0.697477,-0.496341,0.305297,-0.169813,0.008397,0.572061,0.455435,-0.525800,-0.434579,88.112931,-11.872485,-85.936277
63820,NaN,2.520366,8.996474,0.315335,0.010138,-0.615693,-0.484827,0.346336,0.080416,-0.003981,0.571416,0.456664,-0.526321,-0.433506,88.308462,-11.862455,-85.891410
63821,NaN,2.192761,9.013962,0.106077,0.166384,-0.282630,-0.541046,0.374804,0.232885,-0.012431,0.571090,0.458322,-0.526448,-0.432030,88.501831,-11.845903,-85.757351
63822,NaN,1.599051,9.106179,-0.312111,0.509259,0.341473,-0.582258,0.423904,0.293620,0.006231,0.570845,0.460202,-0.526545,-0.430232,88.716183,-11.839121,-85.587499
63823,NaN,1.339466,9.358137,-0.730005,0.871336,0.675514,-0.395355,0.443255,0.289337,-0.002152,0.570526,0.462144,-0.526675,-0.428412,88.941993,-11.828768,-85.420165
63824,NaN,1.543059,9.653799,-0.758326,0.879581,0.538632,-0.061378,0.388447,0.272008,0.000329,0.570285,0.463886,-0.526738,-0.426768,89.138768,-11.820018,-85.263008
63825,NaN,1.935272,9.584841,-0.532457,0.655742,0.124597,-0.042713,0.308733,0.217758,0.041164,0.570174,0.465172,-0.526879,-0.425340,89.296023,-11.836151,-85.137162
63826,NaN,2.353274,9.644905,-0.028325,0.161576,-0.309520,0.109053,0.287664,0.157952,0.062702,0.569995,0.466217,-0.527194,-0.424045,89.448694,-11.864719,-85.046333
63827,NaN,2.479301,9.996245,0.679686,-0.561366,-0.418140,0.485069,0.258976,0.084109,0.042310,0.569647,0.467072,-0.527610,-0.423053,89.593455,-11.882802,-84.998796
63828,NaN,2.462848,10.336636,1.303525,-1.212947,-0.384158,0.817081,0.218302,-0.026122,0.057613,0.569131,0.467541,-0.528288,-0.422383,89.728534,-11.909571,-85.015892
63829,NaN,2.494206,10.616296,1.525840,-1.461664,-0.372189,1.095105,0.212143,-0.135333,0.067943,0.568366,0.467729,-0.529287,-0.421953,89.872981,-11.943005,-85.096888
63830,NaN,2.557841,11.016998,1.788302,-1.754978,-0.367012,1.496604,0.225415,-0.281833,0.074026,0.567191,0.467632,-0.530743,-0.421814,90.043056,-11.979233,-85.263854
63831,NaN,3.068066,11.621912,2.094762,-2.068150,-0.755543,2.188215,0.224527,-0.452641,0.049897,0.565513,0.467230,-0.532623,-0.422141,90.233339,-12.001421,-85.530903
63832,NaN,4.486867,12.181942,2.411448,-2.332931,-2.038935,3.022683,0.207531,-0.493371,0.025500,0.563709,0.466759,-0.534520,-0.422678,90.418851,-12.008158,-85.821834
63833,NaN,4.793232,12.092622,2.400634,-2.346343,-2.348340,2.991586,0.206210,-0.408515,0.011856,0.562105,0.466494,-0.536142,-0.423053,90.593332,-12.007096,-86.062995
63834,NaN,4.090164,11.851378,2.271201,-2.304725,-1.701264,2.602494,0.251956,-0.365639,-0.034860,0.560408,0.466571,-0.537625,-0.423336,90.788314,-11.978561,-86.278642
63835,NaN,4.494969,11.661786,2.089054,-2.137703,-2.124252,2.495186,0.235359,-0.360020,-0.019797,0.558793,0.466571,-0.539093,-0.423605,90.973377,-11.958250,-86.491072
63836,NaN,4.490032,10.858327,1.736265,-1.796787,-2.261735,1.708352,0.141934,-0.169737,0.009140,0.557971,0.466631,-0.539894,-0.423602,91.081204,-11.955902,-86.592199
63837,NaN,4.157382,10.045283,1.240445,-1.314409,-2.074307,0.850324,0.146216,0.082225,-0.006528,0.557783,0.467281,-0.539967,-0.423040,91.161515,-11.947279,-86.545726
63838,NaN,3.944944,9.535415,0.744496,-0.822856,-1.942586,0.315998,0.179649,0.387625,0.022082,0.558405,0.468588,-0.539321,-0.421595,91.223192,-11.958942,-86.320598
63839,NaN,3.505345,9.083972,0.244065,-0.334439,-1.571916,-0.206294,0.187115,0.674058,0.043566,0.559817,0.470461,-0.537940,-0.419393,91.255156,-11.986441,-85.928183
63840,NaN,2.953707,8.732376,-0.222808,0.112328,-1.065613,-0.654071,0.189503,0.885652,0.069462,0.561845,0.472702,-0.536022,-0.416610,91.261618,-12.031947,-85.411940
63841,NaN,2.589860,8.518819,-0.636270,0.511669,-0.708298,-0.929052,0.210504,1.070111,0.094689,0.564349,0.475313,-0.533677,-0.413251,91.258008,-12.093858,-84.788073
63842,NaN,1.963729,8.366844,-1.375677,1.201962,-0.038252,-1.192562,0.257784,1.287739,0.113389,0.567346,0.478433,-0.530839,-0.409182,91.253094,-12.169633,-84.036567
63843,NaN,1.989657,8.486140,-1.695530,1.519104,0.028304,-1.064000,0.242587,1.482317,0.141993,0.570920,0.481814,-0.527462,-0.404586,91.215152,-12.263455,-83.171315
63844,NaN,2.380574,8.649366,-1.454537,1.328727,-0.306382,-0.827434,0.164843,1.621060,0.195669,0.575125,0.485078,-0.523627,-0.399682,91.112985,-12.389063,-82.224696
63845,NaN,2.742698,8.918174,-0.949727,0.887943,-0.629236,-0.497453,0.116927,1.729652,0.213906,0.579721,0.488343,-0.519392,-0.394559,90.968130,-12.523799,-81.213994
63846,NaN,2.467382,9.442029,-0.275526,0.190043,-0.322269,-0.056889,-0.002960,1.825135,0.209727,0.584808,0.491416,-0.514592,-0.389494,90.739243,-12.654237,-80.146078
63847,NaN,1.643743,9.607150,0.780864,-0.957471,0.341938,-0.087711,-0.117443,1.742045,0.178939,0.589850,0.494037,-0.509695,-0.384987,90.453678,-12.761360,-79.125854
63848,NaN,1.394885,9.840150,0.710338,-0.906198,0.651972,0.088445,-0.192044,1.683706,0.097179,0.594733,0.496493,-0.504585,-0.381027,90.130617,-12.816643,-78.138587
63849,NaN,0.899547,9.835736,0.129031,-0.400851,1.251904,-0.022923,-0.173368,1.773241,0.079311,0.599710,0.499187,-0.499164,-0.376823,89.806343,-12.855757,-77.098401
63850,NaN,0.113490,10.091812,1.140042,-1.539256,1.840801,0.056421,-0.309576,1.402687,0.196642,0.604290,0.500445,-0.494855,-0.373507,89.450483,-12.957769,-76.274883
63851,NaN,0.336666,10.450815,1.923504,-2.229606,1.550132,0.466340,-0.462652,0.492160,0.373447,0.607305,0.499090,-0.493440,-0.372301,89.125976,-13.162471,-75.984648
63852,NaN,2.656242,10.951955,1.878725,-1.621414,-0.461882,1.487210,-0.538436,-0.258664,0.487151,0.608864,0.495815,-0.494436,-0.372807,88.857057,-13.438482,-76.133634
63853,NaN,3.772464,11.288753,1.516971,-0.988473,-1.273946,2.077134,-0.671167,-0.624774,0.566860,0.609978,0.491251,-0.496490,-0.374296,88.563962,-13.765515,-76.496327
63854,NaN,3.255005,11.000459,0.703489,-0.268131,-0.585846,1.662690,-0.743755,-0.701832,0.536926,0.611010,0.486375,-0.498550,-0.376237,88.240919,-14.078662,-76.903401
63855,NaN,2.860080,10.781022,0.111313,0.272867,-0.064389,1.338264,-0.760055,-0.682848,0.490584,0.612016,0.481590,-0.500397,-0.378299,87.908825,-14.367025,-77.299126
63856,NaN,3.672163,10.938255,-0.354861,0.942024,-0.633403,1.675007,-0.653410,-0.559368,0.429108,0.612948,0.477500,-0.501902,-0.379977,87.620374,-14.619690,-77.621838
63857,NaN,3.945273,10.871939,-0.626048,1.306782,-0.799392,1.668125,-0.638988,-0.347947,0.405137,0.614312,0.473912,-0.502724,-0.381178,87.310654,-14.854721,-77.819310
63858,NaN,3.429879,10.286418,-0.773382,1.395641,-0.383419,0.961232,-0.587785,-0.144067,0.415920,0.616085,0.470830,-0.503032,-0.381730,86.998539,-15.091453,-77.894326
63859,NaN,3.534250,9.938868,-0.979956,1.664887,-0.484149,0.638424,-0.517730,0.079323,0.374793,0.618163,0.468494,-0.502686,-0.381700,86.693107,-15.297706,-77.837275
63860,NaN,3.908906,9.767485,-1.127010,1.933324,-0.807047,0.558617,-0.474428,0.402882,0.334514,0.620874,0.467001,-0.501321,-0.380925,86.360668,-15.469760,-77.588283
63861,NaN,3.571920,9.613297,-1.269057,2.054455,-0.454030,0.304485,-0.391354,0.741168,0.325646,0.624207,0.466429,-0.499037,-0.379172,86.021888,-15.622085,-77.137895
63862,NaN,3.463067,9.209032,-1.489034,2.297658,-0.368861,-0.137950,-0.336151,1.041629,0.236564,0.627981,0.466805,-0.495699,-0.376848,85.665821,-15.708876,-76.511629
63863,NaN,1.701914,9.422691,-1.430655,1.889461,1.376222,-0.417686,-0.220956,1.096286,0.304190,0.631725,0.467468,-0.492549,-0.373888,85.365347,-15.827909,-75.849138
63864,NaN,1.645053,8.715509,-1.885784,2.331748,1.380109,-1.159337,-0.136796,1.041359,0.320432,0.635150,0.468236,-0.489753,-0.370785,85.119834,-15.956258,-75.217345
63865,NaN,1.947081,8.790132,-2.067358,2.598984,1.216070,-1.032160,-0.111793,1.093367,0.337895,0.638654,0.469126,-0.486863,-0.367433,84.878542,-16.088924,-74.552908
63866,NaN,1.509768,8.521353,-2.186260,2.611045,1.625769,-1.433448,-0.077678,1.090722,0.306745,0.641994,0.470179,-0.483957,-0.364089,84.656057,-16.201765,-73.890743
63867,NaN,1.439181,8.355488,-1.908451,2.329734,1.619875,-1.598324,-0.051521,1.001633,0.270925,0.644973,0.471228,-0.481284,-0.360998,84.462583,-16.296309,-73.282795
63868,NaN,1.775265,8.446819,-1.189394,1.740867,1.189251,-1.358699,-0.063866,0.869564,0.245779,0.647601,0.472049,-0.478947,-0.358319,84.283751,-16.382336,-72.754262
63869,NaN,1.499888,8.656171,-0.460852,0.978398,1.338128,-1.173045,-0.118212,0.696423,0.214384,0.649876,0.472451,-0.476989,-0.356276,84.102234,-16.458610,-72.329953
63870,NaN,1.195834,8.557630,0.101529,0.363856,1.455841,-1.302609,-0.178346,0.437530,0.217606,0.651674,0.472185,-0.475771,-0.354972,83.929697,-16.551138,-72.059008
63871,NaN,1.392185,8.583987,0.346751,0.200505,1.237558,-1.200403,-0.175491,0.197736,0.198609,0.652859,0.471544,-0.475289,-0.354289,83.798827,-16.646629,-71.931308
63872,NaN,1.652158,8.609519,0.555320,0.088125,0.969139,-1.082579,-0.154406,-0.035624,0.178755,0.653402,0.470607,-0.475562,-0.354169,83.720572,-16.745200,-71.943576
63873,NaN,2.394151,8.798723,0.861564,0.022692,0.285477,-0.657922,-0.160351,-0.275473,0.193309,0.653414,0.469189,-0.476638,-0.354582,83.679309,-16.867073,-72.097315
63874,NaN,2.688206,8.635856,0.740497,0.221620,0.021801,-0.740578,-0.187681,-0.413859,0.209303,0.653184,0.467398,-0.478155,-0.355328,83.647020,-17.006911,-72.332573
63875,NaN,1.997709,8.372798,0.523015,0.221224,0.645344,-1.216019,-0.115606,-0.507364,0.138038,0.652433,0.465841,-0.479933,-0.356353,83.673674,-17.112083,-72.628218
63876,NaN,1.618494,8.285570,0.477453,0.147911,0.983557,-1.415730,-0.027482,-0.585238,0.031143,0.651092,0.464688,-0.481873,-0.357692,83.767643,-17.160935,-72.977709
63877,NaN,2.210047,8.339261,0.329594,0.445291,0.495709,-1.205005,0.012672,-0.562180,-0.055378,0.649555,0.463909,-0.483601,-0.359160,83.881752,-17.158498,-73.318984
63878,NaN,3.152264,8.563795,0.158564,0.861005,-0.264661,-0.730337,0.042545,-0.263042,-0.134473,0.648524,0.463956,-0.484228,-0.360117,83.962410,-17.092196,-73.487081
63879,NaN,2.763853,8.774220,0.079103,0.832813,0.158829,-0.652271,0.056606,0.157305,-0.208138,0.648347,0.464980,-0.483343,-0.360304,83.978133,-16.958587,-73.408974
63880,NaN,1.942068,8.823397,-0.341637,1.018084,1.011400,-0.886255,0.114480,0.466037,-0.301434,0.648607,0.466975,-0.481345,-0.359932,83.976423,-16.753202,-73.153196
63881,NaN,1.901209,8.957325,-0.642276,1.303364,1.138884,-0.797983,0.178847,0.746971,-0.393787,0.649222,0.469896,-0.478327,-0.359045,83.965839,-16.478328,-72.736289
63882,NaN,1.644644,9.117543,-0.738048,1.328583,1.413434,-0.723346,0.253942,0.939439,-0.455676,0.649988,0.473547,-0.474665,-0.357717,83.970462,-16.156451,-72.209921
63883,NaN,1.220630,9.478122,-0.694314,1.165368,1.856269,-0.485156,0.328168,1.040259,-0.479744,0.650759,0.477658,-0.470732,-0.356043,84.003783,-15.815105,-71.625800
63884,NaN,0.052341,10.123042,-1.074100,1.165122,3.177607,-0.211775,0.370791,1.029804,-0.425934,0.651471,0.481751,-0.467025,-0.354104,84.066780,-15.505280,-71.045500
63885,NaN,-1.118942,10.518961,-1.489138,1.167777,4.441849,-0.167785,0.321807,0.886359,-0.403442,0.651991,0.485357,-0.463735,-0.352542,84.125738,-15.217561,-70.548785
63886,NaN,-0.864920,10.902560,-1.440728,1.181089,4.265347,0.291830,0.232055,0.575671,-0.363746,0.652058,0.488030,-0.461390,-0.351806,84.184112,-14.970517,-70.233812
63887,NaN,-0.051643,11.551605,-1.351019,1.354593,3.639427,1.150297,0.158523,0.236483,-0.329267,0.651584,0.489774,-0.460098,-0.351951,84.250995,-14.763612,-70.116482
63888,NaN,0.874604,12.574153,-0.879073,1.215567,2.885707,2.428308,0.140208,-0.105772,-0.314929,0.650380,0.490832,-0.459924,-0.352930,84.360251,-14.583589,-70.200281
63889,NaN,1.179849,13.437402,-0.035198,0.525522,2.529873,3.426665,0.018789,-0.455582,-0.331880,0.648646,0.490903,-0.460627,-0.355099,84.449765,-14.414225,-70.490218
63890,NaN,0.845102,13.196175,0.778654,-0.339106,2.479839,3.194802,-0.173325,-0.858794,-0.338582,0.646421,0.489656,-0.462276,-0.358717,84.489015,-14.261805,-71.018008
63891,NaN,0.862697,12.364382,1.227011,-0.740270,2.086026,2.444072,-0.288819,-1.245848,-0.310902,0.643625,0.487248,-0.465018,-0.363448,84.514467,-14.147315,-71.771000
63892,NaN,1.154276,11.646382,1.331760,-0.737129,1.589350,1.835262,-0.328435,-1.626768,-0.270568,0.640063,0.483913,-0.468987,-0.369051,84.571797,-14.074580,-72.745893
63893,NaN,1.906822,11.251807,1.557154,-0.733377,0.729343,1.658758,-0.364311,-1.979310,-0.207033,0.635836,0.479608,-0.474129,-0.375353,84.655491,-14.057363,-73.923756
63894,NaN,3.222177,10.786194,1.463181,-0.313658,-0.587090,1.519664,-0.417412,-2.119596,-0.160075,0.631409,0.474721,-0.479679,-0.381930,84.729821,-14.071119,-75.182044
63895,NaN,3.268102,10.013272,1.520240,-0.405571,-0.837631,0.788777,-0.407272,-2.002105,-0.190875,0.627124,0.470097,-0.484750,-0.388255,84.791941,-14.061379,-76.372395
63896,NaN,2.813192,9.281285,1.508498,-0.545747,-0.594640,-0.031052,-0.310809,-1.762498,-0.265266,0.622976,0.466390,-0.489036,-0.393985,84.876831,-13.993684,-77.426036
63897,NaN,3.104767,9.022049,1.789307,-0.789767,-0.999239,-0.188951,-0.242989,-1.454141,-0.331739,0.619263,0.463619,-0.492307,-0.399004,84.954411,-13.872608,-78.300831
63898,NaN,2.997956,8.686426,1.759054,-0.812106,-0.990573,-0.544720,-0.208573,-1.090996,-0.354227,0.616279,0.461725,-0.494447,-0.403153,85.000271,-13.717946,-78.963138
63899,NaN,2.548281,8.342918,1.509489,-0.671776,-0.623858,-1.007232,-0.167967,-0.693068,-0.360102,0.614170,0.460748,-0.495417,-0.406287,85.011031,-13.541385,-79.391060
63900,NaN,2.518749,7.998646,1.247657,-0.432932,-0.661057,-1.371443,-0.104276,-0.282846,-0.337740,0.612957,0.460753,-0.495301,-0.408249,85.001873,-13.355570,-79.577144
63901,NaN,2.519803,7.980805,0.949971,-0.135438,-0.645722,-1.415681,-0.014866,0.063665,-0.340979,0.612399,0.461732,-0.494298,-0.409195,84.995515,-13.152178,-79.559692
63902,NaN,2.426681,8.224448,0.670268,0.140505,-0.484648,-1.226368,0.066414,0.322121,-0.356573,0.612246,0.463537,-0.492631,-0.409393,85.002993,-12.925499,-79.391987
63903,NaN,1.939473,8.323149,0.466700,0.259970,0.006930,-1.257778,0.177070,0.452577,-0.314103,0.612252,0.465829,-0.490886,-0.408880,85.055888,-12.718149,-79.145416
63904,NaN,1.179655,8.813857,-0.036180,0.627311,0.903301,-0.988436,0.271455,0.469009,-0.289551,0.612111,0.468390,-0.489336,-0.408021,85.162516,-12.522921,-78.888255
63905,NaN,0.293995,9.374293,-0.782551,1.198871,1.980487,-0.690382,0.275950,0.413780,-0.299228,0.611811,0.470859,-0.487938,-0.407303,85.278386,-12.326720,-78.663316
63906,NaN,0.520402,9.668744,-0.836732,1.290919,1.810779,-0.351710,0.177402,0.255322,-0.280714,0.611378,0.472669,-0.486863,-0.407143,85.359242,-12.147337,-78.530277
63907,NaN,0.825049,9.534193,-0.904887,1.402414,1.475480,-0.418194,0.118046,0.033007,-0.229439,0.610658,0.473706,-0.486468,-0.407491,85.431750,-12.009178,-78.524125
63908,NaN,1.306846,9.641222,-0.423741,1.020030,0.925606,-0.171976,0.098797,-0.215553,-0.198956,0.609427,0.474117,-0.486862,-0.408384,85.524467,-11.897994,-78.661897
63909,NaN,1.810408,9.981413,0.390738,0.321078,0.347107,0.328084,0.039668,-0.459781,-0.199749,0.607750,0.473834,-0.487877,-0.409997,85.610787,-11.798634,-78.941613
63910,NaN,1.656748,9.972634,1.061053,-0.374300,0.356142,0.339018,-0.028978,-0.649045,-0.195160,0.605764,0.472954,-0.489332,-0.412212,85.681288,-11.708027,-79.331755
63911,NaN,1.249203,9.806016,1.415731,-0.808685,0.642010,0.119915,-0.063887,-0.907569,-0.171735,0.603280,0.471356,-0.491546,-0.415042,85.759981,-11.643087,-79.871054
63912,NaN,1.124706,9.675734,1.582917,-1.005852,0.706287,-0.020863,-0.087594,-1.202457,-0.132839,0.600177,0.468978,-0.494676,-0.418501,85.860393,-11.610086,-80.580933
63913,NaN,1.679629,9.567317,1.565763,-0.916374,0.156926,-0.017693,-0.105097,-1.473772,-0.097172,0.596504,0.465857,-0.498646,-0.422508,85.980651,-11.608997,-81.447114
63914,NaN,2.958341,9.643748,1.699700,-0.886481,-1.072540,0.321725,-0.158476,-1.628101,-0.091465,0.592533,0.462222,-0.502943,-0.426970,86.089721,-11.613692,-82.403497
63915,NaN,3.737989,9.205397,1.693267,-0.839984,-1.905584,0.048449,-0.159194,-1.627570,-0.054347,0.588618,0.458447,-0.507292,-0.431288,86.196997,-11.639711,-83.357797
63916,NaN,3.041868,8.635602,1.499167,-0.799821,-1.314808,-0.663620,-0.013604,-1.567915,-0.096008,0.584381,0.455318,-0.511649,-0.435201,86.382287,-11.635544,-84.279282
63917,NaN,3.004235,8.791465,1.412721,-0.761423,-1.233572,-0.527787,0.072444,-1.472967,-0.154514,0.580041,0.452757,-0.515754,-0.438818,86.604651,-11.593148,-85.147005
63918,NaN,3.836973,8.936902,1.055119,-0.383679,-1.996089,-0.243360,0.094897,-1.177134,-0.194897,0.576287,0.451006,-0.518933,-0.441809,86.805524,-11.513117,-85.843298
63919,NaN,4.332788,8.694046,0.632575,0.015156,-2.521328,-0.410446,0.175679,-0.580385,-0.250284,0.573774,0.450927,-0.520437,-0.443389,86.981587,-11.382282,-86.192191
63920,NaN,3.698047,8.557367,0.498757,0.068707,-1.946335,-0.682530,0.307904,0.019595,-0.277872,0.572449,0.452636,-0.520444,-0.443352,87.164849,-11.215628,-86.191458
63921,NaN,2.670265,8.873552,0.454679,0.033757,-0.905449,-0.579276,0.380135,0.435798,-0.293987,0.572013,0.455502,-0.519381,-0.442224,87.341777,-11.029736,-85.947641
63922,NaN,2.297867,9.104446,0.416886,0.033814,-0.526301,-0.428303,0.368317,0.677253,-0.297564,0.572206,0.458881,-0.517586,-0.440583,87.486856,-10.834990,-85.563025
63923,NaN,1.876668,8.979862,0.366569,0.031202,-0.165436,-0.633050,0.361505,0.756325,-0.264923,0.572690,0.462312,-0.515615,-0.438674,87.619592,-10.659150,-85.131049
63924,NaN,1.181718,8.809562,0.156396,0.156766,0.472496,-0.936800,0.394020,0.708880,-0.219333,0.573056,0.465615,-0.513946,-0.436655,87.777885,-10.510402,-84.725646
63925,NaN,0.202751,8.818763,-0.372552,0.564275,1.456576,-1.123019,0.431721,0.554116,-0.188035,0.573006,0.468592,-0.512869,-0.434800,87.974012,-10.385273,-84.409162
63926,NaN,0.059572,8.921145,-0.515995,0.659478,1.611822,-1.047778,0.396504,0.293958,-0.141443,0.572456,0.470787,-0.512564,-0.433510,88.178448,-10.291659,-84.243110
63927,NaN,0.633352,9.017561,-0.457306,0.626951,1.048811,-0.844214,0.327594,0.009155,-0.091165,0.571455,0.472027,-0.513041,-0.432918,88.372003,-10.233577,-84.241408
63928,NaN,1.227888,8.957103,-0.092910,0.295752,0.410767,-0.785518,0.231064,-0.221563,-0.057850,0.570150,0.472415,-0.514045,-0.433025,88.534955,-10.196767,-84.373531
63929,NaN,2.049107,9.135622,0.651747,-0.388519,-0.438394,-0.445723,0.171133,-0.373261,-0.049297,0.568623,0.472270,-0.515370,-0.433615,88.678044,-10.168006,-84.593445
63930,NaN,2.072872,9.273114,1.395638,-1.148405,-0.508481,-0.291247,0.103555,-0.471060,-0.061348,0.566964,0.471760,-0.516795,-0.434646,88.793323,-10.131713,-84.870590
63931,NaN,1.724605,9.176776,1.926811,-1.727351,-0.227971,-0.439089,0.051009,-0.618875,-0.038991,0.565102,0.470708,-0.518575,-0.436091,88.892422,-10.110804,-85.233140
63932,NaN,1.738385,9.139915,2.236985,-2.054728,-0.261270,-0.470638,0.036681,-0.880931,0.010277,0.562683,0.468918,-0.521170,-0.438047,89.010758,-10.118838,-85.747831
63933,NaN,2.536753,9.248709,2.461939,-2.246242,-1.018887,-0.223579,-0.006857,-1.111482,0.042982,0.559833,0.466394,-0.524383,-0.440551,89.127068,-10.148070,-86.396210
63934,NaN,3.731741,9.174171,2.679268,-2.425184,-2.189262,-0.086683,-0.056564,-1.147179,0.046965,0.556988,0.463636,-0.527577,-0.443248,89.219437,-10.177413,-87.065621
63935,NaN,3.637256,8.668151,2.727274,-2.518311,-2.159391,-0.604024,-0.042914,-1.019408,0.009698,0.554357,0.461275,-0.530346,-0.445699,89.306223,-10.184736,-87.660849
63936,NaN,2.852729,8.304469,2.756856,-2.617437,-1.431493,-1.106240,0.094643,-0.955297,-0.059147,0.551406,0.459615,-0.533069,-0.447821,89.465396,-10.149884,-88.219292
63937,NaN,3.111505,8.461842,2.949862,-2.842507,-1.646873,-0.913604,0.174075,-0.910218,-0.084775,0.548328,0.458327,-0.535777,-0.449684,89.664819,-10.099514,-88.751314
63938,NaN,3.285088,8.566660,2.729094,-2.662917,-1.783049,-0.792884,0.229712,-0.753083,-0.109265,0.545475,0.457605,-0.538109,-0.451102,89.879468,-10.031943,-89.191721
63939,NaN,3.451923,8.606065,2.434009,-2.408019,-1.934097,-0.737164,0.257723,-0.467399,-0.130489,0.543275,0.457652,-0.539675,-0.451838,90.080799,-9.951501,-89.465526
63940,NaN,3.665854,8.506172,2.083452,-2.088970,-2.166429,-0.808414,0.273462,-0.113357,-0.137417,0.541975,0.458560,-0.540291,-0.451743,90.254888,-9.866084,-89.533055
63941,NaN,3.748041,8.400862,1.636732,-1.664473,-2.275922,-0.904778,0.305214,0.208699,-0.128702,0.541491,0.460255,-0.540128,-0.450793,90.415447,-9.787262,-89.413080
63942,NaN,3.542936,8.554744,1.141964,-1.191826,-2.058462,-0.791471,0.395827,0.446629,-0.100891,0.541501,0.462652,-0.539582,-0.448978,90.604044,-9.725469,-89.154666
63943,NaN,3.276519,8.992643,0.682459,-0.762294,-1.728791,-0.405291,0.464853,0.632649,-0.069938,0.541915,0.465565,-0.538756,-0.446451,90.814775,-9.684095,-88.788225
63944,NaN,2.389878,9.445074,-0.011364,-0.121242,-0.772255,-0.101358,0.501131,0.747976,-0.047277,0.542599,0.468763,-0.537737,-0.443494,91.034589,-9.657842,-88.354783
63945,NaN,2.113353,9.933539,-0.851888,0.666015,-0.392487,0.349469,0.530143,0.800652,-0.009461,0.543425,0.472046,-0.536721,-0.440218,91.266730,-9.655828,-87.891166
63946,NaN,2.974799,10.472951,-1.119906,0.919041,-1.132839,1.034354,0.458691,0.847709,0.026418,0.544615,0.475129,-0.535488,-0.436919,91.452711,-9.676443,-87.400611
63947,NaN,4.013115,11.047778,-1.029321,0.838289,-2.050828,1.776504,0.434163,0.977129,0.056020,0.546259,0.478339,-0.533910,-0.433283,91.612428,-9.717684,-86.835410
63948,NaN,4.221539,12.086771,-0.224148,-0.003470,-2.118240,2.815642,0.452875,1.088347,0.071060,0.548171,0.481783,-0.532084,-0.429278,91.770976,-9.770900,-86.205805
63949,NaN,3.684114,13.238847,0.876688,-1.194285,-1.469233,3.826351,0.329563,0.996488,0.105170,0.550191,0.484588,-0.530314,-0.425714,91.867934,-9.843430,-85.630290
63950,NaN,3.282064,13.695652,1.521128,-1.890391,-1.042705,4.187164,0.144523,0.744820,0.173472,0.552128,0.486154,-0.528994,-0.423054,91.882718,-9.951012,-85.202186
63951,NaN,3.209060,13.464197,1.757097,-2.112151,-1.011358,3.941800,-0.029206,0.458833,0.260889,0.553907,0.486401,-0.528305,-0.421302,91.826830,-10.103094,-84.941931
63952,NaN,3.373673,12.741511,1.745663,-2.032111,-1.258406,3.266372,-0.187061,0.235988,0.371421,0.555715,0.485443,-0.528163,-0.420201,91.702115,-10.314328,-84.812798
63953,NaN,3.443501,11.767010,1.667345,-1.876670,-1.438016,2.332687,-0.272178,0.082962,0.467535,0.557519,0.483675,-0.528501,-0.419426,91.545274,-10.577624,-84.773888
63954,NaN,3.599666,10.780948,1.803154,-1.928483,-1.719935,1.401595,-0.326884,-0.077753,0.543773,0.559193,0.481206,-0.529348,-0.418969,91.373353,-10.882438,-84.828804
63955,NaN,3.890898,9.989167,1.922020,-1.965641,-2.095695,0.692575,-0.350603,-0.145237,0.610512,0.560872,0.478352,-0.530492,-0.418544,91.196747,-11.224471,-84.923289
63956,NaN,3.779194,9.471478,1.855217,-1.867707,-2.012831,0.181950,-0.316698,-0.042102,0.606904,0.562738,0.475807,-0.531400,-0.417790,91.026749,-11.566350,-84.956264
63957,NaN,3.603210,9.310305,1.594146,-1.594046,-1.789697,0.008813,-0.275849,0.160258,0.557490,0.564926,0.473932,-0.531704,-0.416579,90.857255,-11.881434,-84.869628
63958,NaN,3.821136,9.340343,1.147533,-1.100189,-1.900588,0.103809,-0.289150,0.411559,0.546488,0.567795,0.472558,-0.531234,-0.414835,90.647251,-12.192483,-84.634213
63959,NaN,3.993035,9.306312,0.445880,-0.340283,-1.953871,0.127969,-0.289875,0.809758,0.536865,0.571682,0.472034,-0.529603,-0.412170,90.386777,-12.498472,-84.163949
63960,NaN,3.626973,9.338822,-0.052478,0.179389,-1.486733,0.093275,-0.294651,1.321617,0.444227,0.576735,0.472768,-0.526257,-0.408560,90.053562,-12.750952,-83.390443
63961,NaN,2.606870,9.458672,-0.330963,0.406756,-0.389494,-0.011972,-0.314023,1.715922,0.372846,0.582676,0.474419,-0.521536,-0.404247,89.655752,-12.956321,-82.383356
63962,NaN,1.964586,9.768760,-0.546424,0.594985,0.381050,0.141560,-0.339964,1.872612,0.378533,0.589061,0.476245,-0.516270,-0.399580,89.216669,-13.157754,-81.281358
63963,NaN,1.764923,9.739198,-0.787553,0.860279,0.658341,0.057125,-0.268334,1.877198,0.355658,0.595174,0.478316,-0.511035,-0.394746,88.815528,-13.337299,-80.174942
63964,NaN,1.405517,9.733501,-1.390190,1.439058,1.161138,-0.054125,-0.240728,1.878450,0.315158,0.601101,0.480522,-0.505703,-0.389924,88.425107,-13.486943,-79.065980
63965,NaN,1.280641,10.073678,-1.600170,1.652730,1.463915,0.227456,-0.253447,1.780580,0.347671,0.606811,0.482384,-0.500678,-0.385236,88.038952,-13.648866,-78.012730
63966,NaN,1.436202,10.047857,-1.654358,1.774502,1.394898,0.220443,-0.324450,1.666762,0.446126,0.612558,0.483518,-0.496056,-0.380672,87.622387,-13.863053,-77.022048
63967,NaN,1.457693,9.866413,-1.391086,1.565163,1.352817,0.042541,-0.389336,1.474910,0.497770,0.618032,0.483935,-0.491991,-0.376547,87.192547,-14.104060,-76.140923
63968,NaN,1.804605,10.023343,-0.812373,1.127103,1.010446,0.291365,-0.445028,1.277319,0.530779,0.623189,0.483692,-0.488480,-0.372915,86.753664,-14.363903,-75.372274
63969,NaN,1.969143,10.245539,-0.172024,0.598227,0.834559,0.571101,-0.525232,1.079623,0.546153,0.628048,0.482776,-0.485453,-0.369889,86.294874,-14.633101,-74.717172
63970,NaN,1.701705,10.224195,0.188669,0.239023,1.063665,0.496351,-0.608777,0.823681,0.581999,0.632537,0.481013,-0.483140,-0.367559,85.821520,-14.928065,-74.208550
63971,NaN,1.411973,10.107340,0.368864,0.045811,1.331885,0.312097,-0.671066,0.537693,0.613359,0.636516,0.478443,-0.481680,-0.365956,85.353692,-15.249137,-73.864762
63972,NaN,1.417183,9.828500,0.363643,0.105986,1.329806,0.034122,-0.723728,0.226969,0.644384,0.639919,0.475045,-0.481172,-0.365116,84.900450,-15.600600,-73.699941
63973,NaN,1.597178,9.601586,0.268080,0.297137,1.203548,-0.154753,-0.766137,-0.081979,0.667538,0.642701,0.470885,-0.481621,-0.365027,84.471518,-15.980199,-73.714175
63974,NaN,1.989794,9.552846,0.342780,0.379611,0.889909,-0.096885,-0.790581,-0.382025,0.694747,0.644854,0.466015,-0.483037,-0.365608,84.076185,-16.392666,-73.901839
63975,NaN,3.050393,9.416676,0.221496,0.820797,-0.014991,0.054078,-0.864686,-0.584540,0.701626,0.646676,0.460508,-0.484973,-0.366803,83.674167,-16.822564,-74.207114
63976,NaN,3.065078,9.087784,0.023242,1.042171,-0.001346,-0.278729,-0.732243,-0.674523,0.727466,0.648001,0.455180,-0.487481,-0.367788,83.364042,-17.274897,-74.561895
63977,NaN,2.317266,8.934671,-0.008351,0.899215,0.720039,-0.654596,-0.591287,-0.837001,0.715262,0.648559,0.450026,-0.490731,-0.368823,83.167243,-17.732606,-75.013492
63978,NaN,2.349383,8.385621,-0.097555,0.983623,0.595177,-1.179857,-0.462365,-0.917644,0.615956,0.648425,0.445366,-0.494236,-0.370033,83.063857,-18.140589,-75.520085
63979,NaN,3.434187,8.552176,-0.374880,1.516280,-0.239435,-0.717784,-0.348995,-0.739121,0.544257,0.648325,0.441570,-0.497200,-0.370786,82.997530,-18.496000,-75.925667
63980,NaN,3.999848,8.797724,-0.570596,1.844794,-0.592293,-0.327433,-0.254969,-0.294335,0.483905,0.649003,0.439044,-0.498754,-0.370513,82.902863,-18.786473,-76.068862
63981,NaN,3.549182,8.964855,-0.689850,1.875745,-0.053419,-0.330086,-0.246498,0.215446,0.401534,0.650773,0.437695,-0.498486,-0.369364,82.716895,-18.993778,-75.911661
63982,NaN,2.735959,9.012863,-0.888269,1.911197,0.791944,-0.580891,-0.330476,0.560781,0.336625,0.653464,0.436865,-0.496792,-0.367875,82.415470,-19.138166,-75.550733
63983,NaN,2.875043,8.460547,-1.252742,2.308652,0.591507,-1.110043,-0.297732,0.838886,0.319011,0.656728,0.436692,-0.494203,-0.365749,82.077567,-19.248959,-75.023076
63984,NaN,2.809035,8.002948,-1.593052,2.633487,0.608624,-1.616973,-0.125910,1.083523,0.273606,0.660121,0.437630,-0.491013,-0.362803,81.789644,-19.311776,-74.351290
63985,NaN,2.189991,7.904419,-1.968491,2.853999,1.263973,-1.976380,0.054175,1.277390,0.201270,0.663441,0.439678,-0.487333,-0.359217,81.568125,-19.314515,-73.569034
63986,NaN,1.204922,7.837186,-2.447059,3.047796,2.285853,-2.440642,0.220084,1.384049,0.131756,0.666500,0.442616,-0.483424,-0.355205,81.423065,-19.266622,-72.729126
63987,NaN,0.719215,7.954475,-2.590062,3.033991,2.839419,-2.516676,0.322522,1.378942,0.080330,0.669195,0.445989,-0.479574,-0.351112,81.340094,-19.188299,-71.897344
63988,NaN,0.606086,8.053455,-2.608432,2.992810,3.014341,-2.465166,0.361355,1.266808,0.059004,0.671464,0.449328,-0.476101,-0.347229,81.303883,-19.106787,-71.135414
63989,NaN,1.171161,8.405217,-1.982023,2.556055,2.487483,-1.861168,0.328167,1.062326,0.027567,0.673244,0.452256,-0.473165,-0.343979,81.290227,-19.024871,-70.499137
63990,NaN,1.915440,8.833435,-0.871314,1.737479,1.672441,-1.058159,0.251566,0.862287,0.000017,0.674654,0.454641,-0.470700,-0.341444,81.274376,-18.944428,-69.985838
63991,NaN,1.909583,9.013246,0.056900,0.859465,1.470318,-0.757975,0.145069,0.656482,-0.030640,0.675764,0.456375,-0.468667,-0.339728,81.238170,-18.864471,-69.598530
63992,NaN,1.645416,9.057694,0.539550,0.317916,1.570569,-0.731246,0.091934,0.411704,-0.035946,0.676402,0.457529,-0.467359,-0.338709,81.220594,-18.802490,-69.358736
63993,NaN,1.650699,8.998515,0.736449,0.129298,1.478848,-0.755275,0.102932,0.165352,-0.023146,0.676464,0.458265,-0.466927,-0.338184,81.255479,-18.769525,-69.264799
63994,NaN,1.861776,9.123459,0.993903,-0.047724,1.250296,-0.532276,0.125001,-0.074593,-0.032767,0.675892,0.458700,-0.467325,-0.338190,81.350673,-18.751636,-69.315646
63995,NaN,2.746858,9.244434,1.115027,0.124119,0.463236,-0.116396,0.106097,-0.228051,-0.056114,0.674971,0.458858,-0.468151,-0.338670,81.463995,-18.733934,-69.459965
63996,NaN,2.580255,8.978944,1.167782,-0.004740,0.490559,-0.410445,0.142493,-0.266410,-0.097636,0.673798,0.459178,-0.469076,-0.339293,81.607847,-18.695184,-69.631285
63997,NaN,1.688402,8.857040,1.200510,-0.353038,1.211764,-0.804581,0.241513,-0.378173,-0.199487,0.671967,0.459871,-0.470306,-0.340282,81.831205,-18.607835,-69.877744
63998,NaN,2.089122,8.970206,1.282320,-0.323595,0.844032,-0.557628,0.279034,-0.535996,-0.242230,0.669592,0.460525,-0.472031,-0.341686,82.107927,-18.507311,-70.222143
63999,NaN,2.890763,9.122174,0.989719,0.181907,0.234455,-0.196978,0.311843,-0.475190,-0.286219,0.667211,0.461485,-0.473499,-0.343017,82.390959,-18.376062,-70.532562
64000,NaN,3.280262,9.214939,0.869694,0.389305,-0.087797,-0.000852,0.342019,-0.221319,-0.336742,0.665260,0.463104,-0.474053,-0.343856,82.644983,-18.195194,-70.694548
64001,NaN,3.240365,9.371303,0.775727,0.445542,-0.017084,0.123310,0.343944,0.087300,-0.365341,0.663991,0.465317,-0.473512,-0.344068,82.841468,-17.975733,-70.672836
64002,NaN,3.024136,9.453950,0.621417,0.513388,0.202551,0.117265,0.331421,0.436667,-0.396445,0.663510,0.468166,-0.471716,-0.343597,82.968673,-17.713347,-70.444552
64003,NaN,2.567731,9.461213,0.432762,0.542399,0.621911,-0.034451,0.381543,0.726498,-0.432352,0.663530,0.471749,-0.468949,-0.342443,83.072997,-17.411377,-70.045390
64004,NaN,1.909925,9.665326,0.146692,0.592835,1.312720,-0.065230,0.466035,0.869352,-0.449259,0.663632,0.475892,-0.465805,-0.340801,83.204234,-17.090217,-69.562802
64005,NaN,0.986679,10.099725,-0.440243,0.820786,2.407318,0.021060,0.534260,0.880907,-0.452963,0.663580,0.480267,-0.462712,-0.338974,83.373918,-16.767965,-69.073134
64006,NaN,-0.023202,10.514768,-1.218086,1.174059,3.636564,0.058544,0.532895,0.764087,-0.469883,0.663203,0.484474,-0.459952,-0.337477,83.566988,-16.444478,-68.654234
64007,NaN,0.019171,10.958779,-1.485299,1.408483,3.767691,0.488850,0.383722,0.517854,-0.490609,0.662581,0.487797,-0.457695,-0.336981,83.716666,-16.126716,-68.382010
64008,NaN,0.923729,11.066228,-1.387491,1.617592,2.902069,0.873794,0.330956,0.253220,-0.484913,0.661471,0.490493,-0.456235,-0.337228,83.882132,-15.828318,-68.266264
64009,NaN,1.572863,11.768159,-0.578888,1.077509,2.187573,1.821386,0.316008,-0.000378,-0.497075,0.659803,0.492722,-0.455552,-0.338168,84.078478,-15.539560,-68.300023
64010,NaN,1.924018,12.676852,0.633800,0.053169,1.645823,2.918930,0.243583,-0.320563,-0.524803,0.657518,0.494243,-0.455732,-0.340150,84.285469,-15.252322,-68.524240
64011,NaN,1.780991,12.911192,1.469454,-0.789005,1.484466,3.195140,0.118598,-0.671200,-0.534775,0.654729,0.494758,-0.456818,-0.343310,84.471712,-14.979496,-68.954231
64012,NaN,1.480102,12.478784,1.882277,-1.283930,1.438379,2.746615,0.034892,-0.995933,-0.529695,0.651383,0.494431,-0.458826,-0.347442,84.658635,-14.724503,-69.574690
64013,NaN,1.490191,12.091603,2.084538,-1.475265,1.209407,2.399339,0.007581,-1.297614,-0.549938,0.647365,0.493504,-0.461699,-0.352431,84.870078,-14.472985,-70.371899
64014,NaN,1.824384,11.852033,2.355723,-1.635401,0.714576,2.277111,-0.028015,-1.607405,-0.543849,0.642676,0.491885,-0.465498,-0.358229,85.104271,-14.235908,-71.349962
64015,NaN,2.843038,11.456941,2.567455,-1.549853,-0.416819,2.160626,-0.092793,-1.851703,-0.483365,0.637648,0.489424,-0.470077,-0.364551,85.330004,-14.042781,-72.466430
64016,NaN,3.239582,10.688755,2.604317,-1.519044,-1.011217,1.509704,-0.092690,-1.971131,-0.463559,0.632299,0.486666,-0.475038,-0.371071,85.570054,-13.860340,-73.651005
64017,NaN,2.946436,10.011536,2.547606,-1.604212,-0.910508,0.770309,-0.034205,-2.050735,-0.498402,0.626499,0.483962,-0.480224,-0.377711,85.849318,-13.657851,-74.881625
64018,NaN,3.421216,9.613115,2.592471,-1.592145,-1.481307,0.488188,-0.039749,-2.030727,-0.487707,0.620699,0.481211,-0.485307,-0.384247,86.119045,-13.453299,-76.098374
64019,NaN,4.353808,9.218253,2.149279,-1.013131,-2.379992,0.279884,-0.057752,-1.693391,-0.495106,0.615701,0.479012,-0.489248,-0.389995,86.326662,-13.228512,-77.114825
64020,NaN,4.964188,8.803753,1.767536,-0.565202,-3.013939,-0.021372,-0.074761,-1.028932,-0.517148,0.612281,0.478095,-0.491027,-0.394246,86.432710,-12.962862,-77.740678
64021,NaN,4.437316,8.265548,1.597134,-0.537148,-2.646695,-0.687656,-0.029842,-0.344811,-0.524279,0.610416,0.478660,-0.490775,-0.396758,86.471355,-12.669626,-77.964197
64022,NaN,3.294673,8.148370,1.521512,-0.696595,-1.612960,-1.067474,0.037757,0.101241,-0.487166,0.609543,0.480230,-0.489379,-0.397925,86.491429,-12.380569,-77.924936
64023,NaN,3.006589,8.448023,1.393717,-0.616223,-1.288989,-0.851117,0.069411,0.345626,-0.418017,0.609335,0.482201,-0.487465,-0.398210,86.498087,-12.123754,-77.739879
64024,NaN,2.842100,8.839901,1.290187,-0.530075,-1.063974,-0.513610,0.051071,0.461567,-0.322672,0.609630,0.484119,-0.485386,-0.397970,86.480935,-11.916273,-77.484032
64025,NaN,2.016983,9.129950,0.822724,-0.231254,-0.148113,-0.430491,0.042009,0.493058,-0.234246,0.610203,0.485846,-0.483404,-0.397399,86.454254,-11.759260,-77.206612
64026,NaN,0.677882,9.288866,0.081672,0.210624,1.296855,-0.591896,0.037248,0.434695,-0.183227,0.610737,0.487323,-0.481711,-0.396827,86.432804,-11.632341,-76.961852
64027,NaN,0.487469,9.365710,-0.327029,0.571527,1.568925,-0.578353,-0.023771,0.214607,-0.085670,0.611087,0.487933,-0.480806,-0.396635,86.401228,-11.570022,-76.841930
64028,NaN,0.805042,9.429224,-0.395950,0.716068,1.290546,-0.456574,-0.094582,-0.075867,0.006597,0.611087,0.487537,-0.480871,-0.397044,86.363254,-11.569732,-76.888437
64029,NaN,1.569726,9.441385,-0.162610,0.666448,0.516070,-0.277503,-0.154965,-0.296937,0.039930,0.610775,0.486428,-0.481574,-0.398030,86.315577,-11.597782,-77.062496
64030,NaN,2.204451,9.596710,0.358886,0.308128,-0.162215,0.034342,-0.215558,-0.435934,0.037288,0.610260,0.484871,-0.482570,-0.399511,86.250473,-11.628426,-77.318035
64031,NaN,2.171879,9.556441,1.037026,-0.351272,-0.271043,0.032167,-0.276456,-0.521005,0.028362,0.609673,0.482967,-0.483681,-0.401366,86.159845,-11.658760,-77.623303
64032,NaN,1.646316,9.432735,1.503414,-0.907134,0.125201,-0.163413,-0.310697,-0.681281,0.035025,0.608780,0.480624,-0.485221,-0.403669,86.069490,-11.698391,-78.022104
64033,NaN,1.406050,9.491145,1.703406,-1.136809,0.349540,-0.140779,-0.328529,-0.928801,0.062082,0.607380,0.477643,-0.487536,-0.406516,85.997614,-11.765056,-78.564072
64034,NaN,1.807074,9.585064,1.670435,-1.014587,0.017039,0.031070,-0.349438,-1.177992,0.075563,0.605423,0.474054,-0.490579,-0.409961,85.944829,-11.848782,-79.251295
64035,NaN,2.502336,9.596832,1.637561,-0.854452,-0.613281,0.184122,-0.372761,-1.382798,0.097023,0.603044,0.469891,-0.494226,-0.413860,85.903614,-11.954918,-80.057179
64036,NaN,3.426627,9.496142,1.681803,-0.757222,-1.500551,0.282944,-0.399490,-1.471379,0.110585,0.600508,0.465430,-0.498072,-0.417958,85.859956,-12.071539,-80.911249
64037,NaN,3.575042,9.130900,1.566138,-0.655126,-1.675797,-0.046959,-0.363973,-1.444338,0.096038,0.597889,0.461118,-0.501866,-0.421936,85.834537,-12.180725,-81.753670
64038,NaN,2.630190,8.761741,1.378537,-0.637759,-0.794632,-0.617681,-0.264532,-1.400673,0.028890,0.594969,0.457345,-0.505556,-0.425747,85.863058,-12.248598,-82.573868
64039,NaN,2.718360,8.846799,1.261120,-0.526450,-0.831323,-0.524122,-0.209263,-1.417943,-0.007303,0.591779,0.453761,-0.509308,-0.429539,85.926151,-12.296962,-83.405748
64040,NaN,3.342478,8.853139,0.721654,0.054602,-1.373027,-0.422119,-0.171021,-1.205274,-0.011921,0.589001,0.450745,-0.512477,-0.432751,85.985620,-12.332185,-84.113744
64041,NaN,3.861540,8.766962,0.433058,0.367318,-1.870697,-0.414591,-0.124673,-0.707550,-0.044384,0.587315,0.449008,-0.514198,-0.434802,86.009625,-12.329483,-84.531793
64042,NaN,3.324318,8.632515,0.309782,0.424347,-1.372257,-0.669153,-0.078023,-0.199075,-0.053661,0.586803,0.448540,-0.514500,-0.435619,85.997190,-12.300257,-84.652856
64043,NaN,2.611880,8.405495,0.163350,0.493830,-0.723778,-1.052938,0.036327,0.155612,-0.075550,0.586902,0.449230,-0.513963,-0.435407,86.005956,-12.245228,-84.567197
64044,NaN,2.887099,8.435342,-0.028372,0.712103,-0.977712,-0.979334,0.150686,0.483023,-0.081606,0.587567,0.450987,-0.512698,-0.434185,86.040248,-12.172998,-84.290439
64045,NaN,2.005036,8.619836,-0.296936,0.900625,-0.064941,-1.003909,0.203740,0.701810,-0.097647,0.588636,0.453407,-0.510864,-0.432373,86.078236,-12.083915,-83.886324
64046,NaN,0.469080,8.647964,-1.158737,1.587620,1.507994,-1.353645,0.232548,0.733966,-0.116515,0.589669,0.456028,-0.508948,-0.430467,86.130073,-11.982413,-83.464373
64047,NaN,0.154548,8.745694,-1.639705,2.018863,1.881918,-1.352058,0.156831,0.624679,-0.066686,0.590700,0.458053,-0.507299,-0.428847,86.151533,-11.914566,-83.104247
64048,NaN,0.999777,8.660161,-1.511626,1.976592,1.032968,-1.250619,0.125077,0.457805,-0.000319,0.591512,0.459460,-0.506221,-0.427493,86.175296,-11.890375,-82.839231
64049,NaN,1.484710,8.672475,-1.024286,1.546860,0.516124,-1.106013,0.093746,0.357637,0.031938,0.592215,0.460471,-0.505446,-0.426349,86.192328,-11.889358,-82.631299
64050,NaN,1.439541,8.877019,-0.037599,0.565831,0.494003,-0.851049,0.083220,0.183606,0.039328,0.592519,0.461080,-0.505167,-0.425597,86.225078,-11.898187,-82.522140
64051,NaN,1.511735,9.125792,0.937022,-0.386647,0.367306,-0.530499,0.017352,-0.082732,0.070220,0.592365,0.460829,-0.505620,-0.425546,86.251069,-11.935805,-82.570031
64052,NaN,1.678318,9.007602,1.418158,-0.850116,0.134502,-0.581002,-0.070482,-0.303859,0.114327,0.591948,0.459753,-0.506632,-0.426085,86.254103,-12.005848,-82.743327
64053,NaN,1.738831,8.785846,1.570723,-1.004386,0.026562,-0.775416,-0.092346,-0.436942,0.123117,0.591260,0.458286,-0.508019,-0.426968,86.260150,-12.086941,-82.996305
64054,NaN,1.561135,8.707395,1.637289,-1.098993,0.192639,-0.885669,-0.063483,-0.539914,0.128940,0.590252,0.456683,-0.509775,-0.427987,86.296476,-12.174070,-83.307889
64055,NaN,1.486613,8.912713,1.788909,-1.258792,0.314964,-0.693320,-0.023493,-0.701010,0.143497,0.588768,0.454795,-0.512127,-0.429231,86.375358,-12.276145,-83.714881
64056,NaN,2.358742,9.068783,2.010619,-1.396188,-0.494517,-0.344051,-0.029452,-0.855488,0.135392,0.586877,0.452590,-0.514884,-0.430850,86.471589,-12.377387,-84.210799
64057,NaN,3.230149,8.593863,2.072301,-1.417536,-1.424450,-0.617897,0.021744,-0.852378,0.134729,0.584864,0.450517,-0.517742,-0.432333,86.597087,-12.478313,-84.707422
64058,NaN,3.213001,8.227276,2.069413,-1.468001,-1.468164,-0.981877,0.194601,-0.728629,0.057303,0.582604,0.449423,-0.520421,-0.433305,86.807670,-12.528476,-85.133335
64059,NaN,3.169410,8.244108,2.058101,-1.503998,-1.409620,-0.981095,0.305404,-0.609321,0.018592,0.580315,0.448992,-0.522906,-0.433831,87.066705,-12.552101,-85.492070
64060,NaN,3.314447,8.126632,1.520398,-1.006769,-1.535768,-1.096784,0.360347,-0.424376,-0.002379,0.578331,0.449176,-0.524920,-0.433858,87.334145,-12.556196,-85.743221
64061,NaN,3.721517,7.946465,1.231957,-0.735017,-1.955237,-1.201624,0.391183,-0.077468,-0.023687,0.577142,0.450251,-0.525948,-0.433081,87.574903,-12.538924,-85.791395
64062,NaN,3.825086,7.981819,1.095964,-0.618945,-2.048509,-1.154609,0.434238,0.370833,-0.059757,0.576953,0.452520,-0.525687,-0.431282,87.783665,-12.489791,-85.576821
64063,NaN,2.846820,8.195710,1.027190,-0.640208,-1.059183,-1.164140,0.493639,0.689960,-0.069030,0.577441,0.455660,-0.524610,-0.428627,87.986143,-12.429976,-85.175824
64064,NaN,1.848027,8.499766,0.865822,-0.583331,-0.025460,-1.090884,0.559135,0.762163,-0.064503,0.577970,0.459132,-0.523456,-0.425608,88.217510,-12.372334,-84.730763
64065,NaN,1.078061,9.114868,0.204078,-0.023127,0.897787,-0.676058,0.527392,0.727791,-0.076594,0.578441,0.462451,-0.522303,-0.422782,88.435365,-12.310573,-84.307439
64066,NaN,0.763070,9.452337,-0.432316,0.538783,1.324000,-0.427997,0.530853,0.602210,-0.085931,0.578547,0.465539,-0.521483,-0.420254,88.671387,-12.246375,-83.956634
64067,NaN,1.843541,10.060003,-0.728990,0.908168,0.423532,0.391699,0.382305,0.528232,-0.093709,0.578780,0.468047,-0.520545,-0.418304,88.831773,-12.180372,-83.650236
64068,NaN,2.967931,10.349111,-0.596419,0.874513,-0.628937,0.916155,0.303104,0.538863,-0.053948,0.579302,0.470246,-0.519495,-0.416417,88.945791,-12.137169,-83.336563
64069,NaN,3.130118,10.599760,-0.073394,0.358318,-0.798925,1.205083,0.263930,0.561513,-0.057270,0.579963,0.472376,-0.518289,-0.414584,89.034661,-12.092952,-83.010122
64070,NaN,2.876428,11.134962,0.769164,-0.526782,-0.548828,1.688360,0.255079,0.421047,-0.022794,0.580347,0.474102,-0.517546,-0.413001,89.136005,-12.069812,-82.765222
64071,NaN,2.688321,11.502792,1.405369,-1.204690,-0.374041,2.016308,0.222161,0.174740,0.027325,0.580274,0.475087,-0.517570,-0.411941,89.248401,-12.078310,-82.664571
64072,NaN,2.980798,12.123806,1.670109,-1.465348,-0.561213,2.685265,0.223785,-0.032218,0.067559,0.579741,0.475548,-0.518290,-0.411253,89.387156,-12.111059,-82.684883
64073,NaN,3.359120,12.714523,1.988711,-1.776573,-0.838058,3.341745,0.229948,-0.095037,0.105514,0.579110,0.475796,-0.519296,-0.410586,89.537060,-12.166269,-82.741919
64074,NaN,3.386602,13.128527,2.289614,-2.115407,-0.805900,3.749948,0.222530,-0.130548,0.100925,0.578392,0.475961,-0.520377,-0.410038,89.687143,-12.218483,-82.820189
64075,NaN,3.589970,13.035398,2.591432,-2.422974,-1.047032,3.698708,0.169670,-0.198922,0.130600,0.577683,0.475754,-0.521618,-0.409700,89.815602,-12.288042,-82.938378
64076,NaN,4.425851,12.522018,2.652545,-2.404325,-1.952367,3.371866,0.128355,-0.266455,0.190618,0.577015,0.475128,-0.523112,-0.409464,89.928754,-12.391583,-83.097200
64077,NaN,5.359024,11.603417,2.486319,-2.138363,-3.005307,2.674729,0.113879,-0.208150,0.236482,0.576629,0.474462,-0.524514,-0.408986,90.026899,-12.521353,-83.221152
64078,NaN,4.832944,10.432690,2.164062,-1.871328,-2.683915,1.420131,0.105751,-0.025819,0.214386,0.576692,0.474195,-0.525323,-0.408168,90.096841,-12.638374,-83.239376
64079,NaN,4.082201,9.706133,1.785297,-1.575747,-2.052466,0.549023,0.148829,0.123457,0.172856,0.576962,0.474472,-0.525687,-0.406994,90.172813,-12.731804,-83.168966
64080,NaN,4.191925,9.328403,1.295990,-1.072107,-2.170389,0.207837,0.123100,0.341564,0.172788,0.577862,0.475108,-0.525372,-0.405379,90.204863,-12.825869,-82.971830
64081,NaN,4.396354,8.759541,0.930422,-0.655047,-2.436348,-0.296478,0.060330,0.735743,0.175612,0.579949,0.476360,-0.523789,-0.402971,90.149729,-12.922014,-82.541584
64082,NaN,3.853892,8.246283,0.880541,-0.627784,-2.007814,-0.913055,0.057998,1.107029,0.180648,0.583010,0.478315,-0.521131,-0.399671,90.042618,-13.021222,-81.894417
64083,NaN,3.190578,8.274268,0.952969,-0.757530,-1.361021,-1.030597,0.092792,1.323690,0.226786,0.586623,0.480680,-0.517995,-0.395602,89.926103,-13.145184,-81.117624
64084,NaN,2.604516,8.549171,0.762517,-0.636240,-0.691547,-0.892479,0.067890,1.452200,0.269961,0.590683,0.483072,-0.514521,-0.391157,89.775089,-13.292512,-80.266932
64085,NaN,2.384085,8.671447,0.108358,-0.003246,-0.320568,-0.824546,0.045374,1.588502,0.261131,0.595097,0.485677,-0.510538,-0.386430,89.591303,-13.431336,-79.332535
64086,NaN,1.509239,8.706422,-0.574841,0.531804,0.678833,-0.999840,0.036842,1.701212,0.236187,0.599729,0.488484,-0.506119,-0.381514,89.383849,-13.552791,-78.333628
64087,NaN,1.592083,9.042620,-0.977832,0.946517,0.795527,-0.662227,0.016170,1.712535,0.235239,0.604396,0.491237,-0.501576,-0.376581,89.161752,-13.669364,-77.324337
64088,NaN,2.346294,9.623680,-1.051497,1.182702,0.277976,0.074152,-0.053727,1.707866,0.250763,0.609202,0.493673,-0.496930,-0.371781,88.896982,-13.791261,-76.320153
64089,NaN,2.533847,10.192502,-0.655757,0.858747,0.194656,0.673577,-0.138573,1.703113,0.289850,0.614238,0.495730,-0.492187,-0.367036,88.582598,-13.930105,-75.313564
