// General information: 
//  MT Manager version: 2019.0.1 
//  XDA version: 2019.0.1 build 2740 rev 84096 built on 2019-01-30
// Device information: 
//  DeviceId: 00B43876
//  ProductCode: MTW2-3A7G6
//  Firmware Version: 4.3.4
//  Hardware Version: 1.1.0
// Device settings: 
//  Filter Profile: human(46.1)
//  Option Flags: Orientation Smoother Disabled, AHS Disabled, ICC Disabled
// Coordinate system: ENU
PacketCounter,SampleTimeFine,Acc_X,Acc_Y,Acc_Z,FreeAcc_E,FreeAcc_N,FreeAcc_U,Gyr_X,Gyr_Y,Gyr_Z,Quat_q0,Quat_q1,Quat_q2,Quat_q3,Roll,Pitch,Yaw
07510,NaN,0.367427,-9.778419,1.598703,0.205181,0.233788,0.097488,-0.008069,0.152401,0.022015,0.680770,-0.575195,-0.295082,0.344428,-80.551637,-0.317345,53.942206
07511,NaN,0.312945,-9.915298,1.804436,0.029289,0.300370,0.265803,-0.021518,0.159004,0.030322,0.680874,-0.575582,-0.294492,0.344081,-80.563021,-0.282505,53.859101
07512,NaN,0.142729,-9.905540,1.821960,-0.084079,0.179660,0.258076,-0.020927,0.160085,0.033882,0.680989,-0.575951,-0.293911,0.343731,-80.572684,-0.249600,53.776473
07513,NaN,0.090347,-9.884645,1.851530,-0.139010,0.163807,0.241982,-0.030861,0.148722,0.042006,0.681030,-0.576368,-0.293338,0.343438,-80.589551,-0.209155,53.700262
07514,NaN,0.096097,-9.813602,1.855236,-0.146625,0.184962,0.172412,-0.044364,0.131606,0.044509,0.681016,-0.576783,-0.292870,0.343171,-80.613236,-0.173423,53.635171
07515,NaN,0.115227,-9.705462,1.797228,-0.101694,0.185384,0.056182,-0.033243,0.099842,0.056286,0.680953,-0.577145,-0.292426,0.343065,-80.631647,-0.129523,53.587897
07516,NaN,0.194031,-9.591774,1.746395,-0.027999,0.237261,-0.064221,-0.037216,0.081634,0.048035,0.680884,-0.577465,-0.292090,0.342949,-80.651713,-0.096083,53.548730
07517,NaN,0.172542,-9.450147,1.680790,-0.005697,0.201782,-0.214804,-0.022823,0.070534,0.039803,0.680837,-0.577717,-0.291776,0.342886,-80.664234,-0.064257,53.516465
07518,NaN,0.079133,-9.295748,1.539637,0.031954,0.063347,-0.390233,-0.018233,0.059586,0.034844,0.680810,-0.577908,-0.291530,0.342827,-80.673208,-0.040581,53.490264
07519,NaN,-0.037604,-9.158769,1.450576,0.016680,-0.065517,-0.539928,-0.011342,0.042959,0.024552,0.680781,-0.578051,-0.291334,0.342809,-80.679186,-0.019947,53.472164
07520,NaN,-0.140319,-9.165504,1.364896,0.024959,-0.196811,-0.547174,-0.011420,0.021883,0.015684,0.680753,-0.578129,-0.291254,0.342802,-80.684275,-0.010105,53.464858
07521,NaN,-0.015037,-9.176092,1.327228,0.130221,-0.117390,-0.542753,-0.024539,-0.002000,-0.002489,0.680667,-0.578201,-0.291312,0.342802,-80.697825,-0.008932,53.469666
07522,NaN,0.235156,-9.514284,1.351219,0.301855,0.065482,-0.205019,-0.021919,-0.004898,-0.014765,0.680623,-0.578226,-0.291426,0.342752,-80.708820,-0.018691,53.474229
07523,NaN,0.399388,-9.671708,1.465060,0.327287,0.248862,-0.031133,-0.016563,0.004687,-0.030049,0.680617,-0.578242,-0.291527,0.342650,-80.717798,-0.032482,53.472706
07524,NaN,0.473775,-9.820520,1.574200,0.301774,0.356214,0.133529,-0.002635,0.016236,-0.035938,0.680690,-0.578205,-0.291603,0.342501,-80.718075,-0.052214,53.464470
07525,NaN,0.397497,-9.831607,1.578162,0.252476,0.293663,0.145179,-0.005640,0.019504,-0.047151,0.680767,-0.578184,-0.291685,0.342314,-80.720783,-0.074306,53.452990
07526,NaN,0.416065,-9.849484,1.647523,0.207672,0.343474,0.174237,-0.001912,0.018348,-0.058120,0.680885,-0.578114,-0.291823,0.342080,-80.720649,-0.107305,53.441589
07527,NaN,0.413721,-9.783222,1.666552,0.179767,0.354575,0.112128,0.007114,0.019245,-0.069623,0.681037,-0.578016,-0.291948,0.341837,-80.716033,-0.142127,53.428179
07528,NaN,0.287109,-9.570667,1.688690,0.056548,0.280663,-0.094158,0.012424,0.023947,-0.073168,0.681232,-0.577893,-0.292072,0.341550,-80.707868,-0.182105,53.410427
07529,NaN,0.121692,-9.483942,1.625550,-0.006268,0.113994,-0.190352,-0.002912,0.024148,-0.074096,0.681369,-0.577831,-0.292210,0.341262,-80.708968,-0.219000,53.393824
07530,NaN,0.100767,-9.503232,1.616968,-0.013595,0.084981,-0.172731,-0.006757,0.012973,-0.069737,0.681485,-0.577752,-0.292401,0.341003,-80.711157,-0.258028,53.384370
07531,NaN,0.111156,-9.491302,1.576182,0.019414,0.065632,-0.191002,-0.001267,-0.002457,-0.074762,0.681589,-0.577638,-0.292629,0.340792,-80.711364,-0.297762,53.382752
07532,NaN,0.285370,-9.625299,1.551117,0.155534,0.171489,-0.061781,-0.006763,-0.013395,-0.072539,0.681676,-0.577519,-0.292909,0.340579,-80.714461,-0.341296,53.385304
07533,NaN,0.403833,-9.637582,1.644757,0.148585,0.315397,-0.033642,-0.014527,-0.013772,-0.076689,0.681728,-0.577428,-0.293204,0.340375,-80.722303,-0.383165,53.389911
07534,NaN,0.474621,-9.664646,1.640990,0.191842,0.361944,-0.006787,-0.012341,-0.012940,-0.071065,0.681790,-0.577324,-0.293495,0.340177,-80.728048,-0.425093,53.394788
07535,NaN,0.411406,-9.525173,1.689196,0.093514,0.349566,-0.136913,-0.019645,-0.011854,-0.066090,0.681812,-0.577269,-0.293761,0.339995,-80.738828,-0.460790,53.399298
07536,NaN,0.379953,-9.514852,1.568332,0.163543,0.250721,-0.166609,-0.034984,-0.019638,-0.057967,0.681782,-0.577252,-0.294073,0.339816,-80.757723,-0.496671,53.407844
07537,NaN,0.319182,-9.364061,1.573522,0.097888,0.218663,-0.314999,-0.055146,-0.009485,-0.061288,0.681697,-0.577329,-0.294378,0.339592,-80.788841,-0.529431,53.411481
07538,NaN,0.260383,-9.510021,1.473828,0.150632,0.096364,-0.187279,-0.085617,0.010306,-0.076841,0.681597,-0.577507,-0.294728,0.339186,-80.836596,-0.573401,53.401310
07539,NaN,0.272553,-9.669806,1.387910,0.233741,0.039399,-0.042860,-0.115484,0.046132,-0.085265,0.681460,-0.577848,-0.295015,0.338630,-80.901942,-0.614662,53.371357
07540,NaN,0.138855,-9.816090,1.247453,0.269535,-0.165506,0.078267,-0.110966,0.101609,-0.093823,0.681452,-0.578246,-0.295142,0.337855,-80.964004,-0.660292,53.306771
07541,NaN,0.027003,-9.567740,1.256647,0.153071,-0.222776,-0.166524,-0.119737,0.156175,-0.083332,0.681460,-0.578790,-0.295055,0.336981,-81.031013,-0.690660,53.214806
07542,NaN,0.266460,-9.706699,1.016037,0.489262,-0.184560,-0.063334,-0.157777,0.226558,-0.086550,0.681479,-0.579560,-0.294828,0.335818,-81.118806,-0.721103,53.083361
07543,NaN,0.245052,-9.238239,0.992322,0.424472,-0.162626,-0.529199,-0.197139,0.290734,-0.102592,0.681491,-0.580563,-0.294467,0.334373,-81.229067,-0.750829,52.913605
07544,NaN,0.415796,-9.545460,0.730823,0.748094,-0.206998,-0.261758,-0.261479,0.349798,-0.110058,0.681426,-0.581855,-0.294059,0.332616,-81.375194,-0.784371,52.710087
07545,NaN,0.439990,-9.610049,0.867844,0.639283,-0.104648,-0.175254,-0.251139,0.430453,-0.123187,0.681515,-0.583239,-0.293369,0.330613,-81.515079,-0.814661,52.459546
07546,NaN,0.295274,-9.816916,1.092834,0.374365,-0.098551,0.061694,-0.232912,0.470232,-0.138673,0.681746,-0.584583,-0.292585,0.328450,-81.643576,-0.855129,52.186165
07547,NaN,0.033822,-9.593499,1.394960,-0.070266,-0.094034,-0.118955,-0.247732,0.455409,-0.202211,0.682002,-0.585873,-0.292031,0.326105,-81.780785,-0.929330,51.915083
07548,NaN,0.131379,-9.550057,1.674808,-0.263985,0.161867,-0.120946,-0.322610,0.431162,-0.264015,0.682111,-0.587273,-0.291878,0.323484,-81.960377,-1.045097,51.652105
07549,NaN,-0.068883,-9.920168,1.770837,-0.462540,0.028594,0.253864,-0.284063,0.401906,-0.314444,0.682354,-0.588427,-0.291890,0.320854,-82.117765,-1.188773,51.402891
07550,NaN,-0.338220,-9.926613,1.947402,-0.804872,-0.076832,0.276444,-0.252906,0.351560,-0.347819,0.682675,-0.589329,-0.292139,0.318278,-82.256969,-1.359869,51.179380
07551,NaN,-0.583431,-9.928391,1.996167,-1.034581,-0.245997,0.275276,-0.209799,0.262158,-0.398401,0.683056,-0.589874,-0.292753,0.315877,-82.372185,-1.563121,51.003767
07552,NaN,-0.551619,-9.947766,1.955066,-1.021366,-0.264217,0.285404,-0.192370,0.155614,-0.433074,0.683398,-0.590123,-0.293820,0.313674,-82.477697,-1.798213,50.885894
07553,NaN,-0.396770,-9.996183,1.787589,-0.830957,-0.275882,0.312024,-0.135287,0.055652,-0.478925,0.683814,-0.589964,-0.295256,0.311713,-82.552558,-2.063234,50.822315
07554,NaN,-0.156473,-9.982072,1.653894,-0.618724,-0.201877,0.285719,-0.119774,-0.043313,-0.518555,0.684202,-0.589522,-0.297140,0.309903,-82.619802,-2.362309,50.811546
07555,NaN,0.303151,-9.879075,1.322230,-0.122085,-0.075963,0.158038,-0.085647,-0.124950,-0.551650,0.684600,-0.588796,-0.299327,0.308294,-82.669877,-2.682047,50.845928
07556,NaN,0.530325,-9.909390,1.052101,0.188553,-0.110938,0.164086,-0.087257,-0.159052,-0.585612,0.685005,-0.587961,-0.301739,0.306633,-82.721813,-3.027112,50.895293
07557,NaN,0.672393,-9.620364,0.773392,0.429232,-0.177821,-0.149071,-0.125818,-0.171747,-0.599588,0.685276,-0.587218,-0.304283,0.304932,-82.796643,-3.377408,50.953508
07558,NaN,0.588335,-9.804863,0.620741,0.458889,-0.398687,0.010599,-0.117169,-0.179006,-0.589379,0.685554,-0.586439,-0.306817,0.303263,-82.867321,-3.726191,51.014765
07559,NaN,0.849045,-9.857700,0.686959,0.529558,-0.202418,0.089097,-0.062317,-0.151043,-0.600046,0.686031,-0.585497,-0.309189,0.301591,-82.905727,-4.075148,51.061973
07560,NaN,1.131037,-9.795571,0.766033,0.598497,0.031170,0.059486,-0.071711,-0.100078,-0.595459,0.686558,-0.584664,-0.311390,0.299737,-82.947828,-4.420926,51.078371
07561,NaN,1.246578,-9.821977,0.558595,0.792620,-0.052073,0.071946,-0.048044,-0.033476,-0.579187,0.687215,-0.583872,-0.313271,0.297810,-82.973414,-4.749704,51.060475
07562,NaN,1.197943,-10.018988,0.594442,0.706240,-0.136785,0.269517,-0.014287,0.024228,-0.523457,0.687984,-0.583138,-0.314743,0.295915,-82.978118,-5.046142,51.010235
07563,NaN,1.020752,-10.383800,0.653643,0.532182,-0.330965,0.622806,0.013591,0.041886,-0.495123,0.688804,-0.582369,-0.316023,0.294149,-82.964855,-5.321837,50.955273
07564,NaN,0.960163,-10.183536,1.059550,0.142200,-0.138531,0.468818,0.032319,0.034630,-0.473561,0.689639,-0.581551,-0.317253,0.292485,-82.941544,-5.588868,50.905245
07565,NaN,1.201689,-10.374201,1.170962,0.182473,0.052242,0.694598,-0.087442,0.032602,-0.456963,0.690087,-0.581172,-0.318598,0.290714,-82.986450,-5.843508,50.858194
07566,NaN,1.248210,-10.826297,1.082996,0.263659,-0.071306,1.135593,0.037140,0.042475,-0.418671,0.690861,-0.580435,-0.319626,0.289215,-82.960204,-6.078589,50.806529
07567,NaN,1.005120,-10.351475,1.257580,-0.061365,-0.111578,0.662448,0.037732,0.036141,-0.399088,0.691589,-0.579716,-0.320606,0.287831,-82.933214,-6.300057,50.761432
07568,NaN,0.872205,-10.266438,1.333971,-0.229121,-0.185729,0.572535,0.013292,0.016548,-0.374955,0.692183,-0.579089,-0.321628,0.286521,-82.922203,-6.511824,50.727741
07569,NaN,0.841255,-10.024128,1.577707,-0.466429,-0.048080,0.358843,-0.005420,-0.003963,-0.359435,0.692659,-0.578521,-0.322692,0.285318,-82.922559,-6.713556,50.708286
07570,NaN,0.811173,-9.578416,1.770797,-0.668412,0.098508,-0.061625,-0.051125,-0.013806,-0.322086,0.692940,-0.578163,-0.323746,0.284167,-82.950892,-6.896908,50.694196
07571,NaN,0.747339,-9.478658,1.954693,-0.878069,0.162587,-0.146935,-0.119045,-0.030362,-0.287944,0.692939,-0.578064,-0.324855,0.283103,-83.018702,-7.059854,50.695112
07572,NaN,0.711410,-9.273281,2.174696,-1.101605,0.294268,-0.329600,-0.157489,-0.030731,-0.247992,0.692779,-0.578145,-0.325923,0.282099,-83.108374,-7.203645,50.699506
07573,NaN,0.718165,-9.082883,2.300479,-1.223763,0.405333,-0.504370,-0.208650,-0.033819,-0.184092,0.692364,-0.578518,-0.326869,0.281258,-83.228747,-7.307742,50.710066
07574,NaN,0.464415,-9.084263,2.274211,-1.388210,0.196164,-0.541987,-0.247152,-0.022451,-0.126174,0.691784,-0.579117,-0.327680,0.280506,-83.370115,-7.381507,50.718472
07575,NaN,-0.023950,-9.123042,2.109174,-1.589396,-0.278334,-0.589056,-0.263893,-0.025625,-0.052243,0.691035,-0.579906,-0.328292,0.280006,-83.522744,-7.409967,50.733535
07576,NaN,-0.412987,-9.045378,1.963726,-1.741708,-0.640055,-0.735112,-0.278922,-0.063044,0.006024,0.690110,-0.580773,-0.328901,0.279777,-83.686270,-7.410777,50.774095
07577,NaN,-0.665453,-9.168801,1.860324,-1.836970,-0.900520,-0.659267,-0.281751,-0.082276,0.068106,0.689045,-0.581739,-0.329383,0.279826,-83.854308,-7.374126,50.829403
07578,NaN,-0.828773,-9.407794,1.841173,-1.938547,-1.055592,-0.447269,-0.279228,-0.086025,0.130762,0.687903,-0.582778,-0.329706,0.280095,-84.020459,-7.304655,50.890708
07579,NaN,-0.894764,-9.603945,1.889848,-2.029056,-1.080898,-0.256412,-0.286403,-0.081705,0.189959,0.686651,-0.583959,-0.329836,0.280553,-84.191870,-7.198203,50.952680
07580,NaN,-0.521681,-9.751201,1.929926,-1.835883,-0.760659,-0.059046,-0.279678,-0.065208,0.233125,0.685395,-0.585194,-0.329784,0.281112,-84.357104,-7.068399,51.007416
07581,NaN,-0.454558,-9.789713,1.700812,-1.620100,-0.820363,-0.033115,-0.266305,-0.045933,0.285094,0.684123,-0.586510,-0.329483,0.281823,-84.514783,-6.905356,51.053507
07582,NaN,-0.553645,-9.825413,1.505152,-1.530484,-0.983404,-0.024882,-0.272247,-0.031284,0.339257,0.682789,-0.587938,-0.328988,0.282658,-84.673591,-6.712531,51.093707
07583,NaN,-0.523703,-9.532359,1.341106,-1.381612,-0.975215,-0.321710,-0.256232,-0.004139,0.370454,0.681488,-0.589413,-0.328276,0.283552,-84.822845,-6.498347,51.119367
07584,NaN,-0.483166,-9.138816,1.173330,-1.221020,-0.947603,-0.716583,-0.261937,0.029626,0.399907,0.680192,-0.590986,-0.327374,0.284430,-84.971709,-6.267256,51.126600
07585,NaN,-0.499516,-8.759219,1.056681,-1.135237,-0.934367,-1.099018,-0.282218,0.070400,0.435471,0.678836,-0.592755,-0.326250,0.285279,-85.131289,-6.012142,51.111535
07586,NaN,-0.445862,-8.778142,0.787215,-0.886674,-1.013884,-1.091454,-0.324819,0.138328,0.468145,0.677424,-0.594800,-0.324860,0.285963,-85.309889,-5.736563,51.058306
07587,NaN,-0.337742,-8.782199,0.463466,-0.563392,-1.078301,-1.096295,-0.371781,0.219310,0.492898,0.675951,-0.597168,-0.323183,0.286414,-85.512708,-5.441925,50.958839
07588,NaN,-0.329730,-8.594844,0.219034,-0.367133,-1.145468,-1.293245,-0.408943,0.289911,0.503678,0.674468,-0.599761,-0.321287,0.286625,-85.732032,-5.139535,50.818302
07589,NaN,-0.414870,-8.326003,0.148765,-0.367853,-1.166762,-1.565285,-0.450068,0.322222,0.508780,0.672887,-0.602552,-0.319318,0.286689,-85.975486,-4.832331,50.658279
07590,NaN,-0.264006,-8.183586,0.157635,-0.282362,-0.972392,-1.686182,-0.462438,0.303231,0.506696,0.671241,-0.605334,-0.317435,0.286778,-86.226240,-4.528641,50.507813
07591,NaN,-0.187517,-7.839383,0.183483,-0.257677,-0.806908,-2.014802,-0.469615,0.217854,0.481777,0.669455,-0.607981,-0.315918,0.287027,-86.486871,-4.242089,50.404096
07592,NaN,0.041037,-7.437128,0.145016,-0.089327,-0.565453,-2.396107,-0.527013,0.025727,0.439617,0.667252,-0.610461,-0.315251,0.287625,-86.787248,-3.987335,50.407769
07593,NaN,0.339080,-7.119032,0.110496,0.116570,-0.280493,-2.691218,-0.553608,-0.189424,0.413671,0.664650,-0.612681,-0.315415,0.288748,-87.112361,-3.753252,50.532625
07594,NaN,0.327404,-7.105695,-2.045700,1.762179,-1.597468,-2.803732,-0.703155,-0.467082,0.390150,0.661182,-0.614941,-0.316785,0.290403,-87.531400,-3.539915,50.814538
07595,NaN,4.568066,-10.116911,-1.053149,3.595371,2.171787,0.516059,-0.866091,-1.291831,0.211012,0.656130,-0.616241,-0.321655,0.293730,-88.072765,-3.444257,51.563716
07596,NaN,15.489018,-13.833151,-0.212310,9.475184,11.126002,4.943103,-0.830054,-1.494586,-0.349419,0.651649,-0.616174,-0.328845,0.295879,-88.600027,-3.666999,52.419084
07597,NaN,17.477473,-17.458475,-0.845068,10.813245,12.186957,8.775392,-0.705411,-0.856424,-0.825427,0.649257,-0.615831,-0.335214,0.294700,-89.036769,-4.146660,52.904523
07598,NaN,10.027557,-12.939782,1.432461,4.421098,7.928692,3.885071,-0.621602,-0.032255,-1.059990,0.648836,-0.615995,-0.339514,0.290332,-89.392835,-4.754744,52.918487
07599,NaN,-1.729273,-10.020427,1.940840,-3.059142,-0.950712,0.031234,-0.578844,0.409723,-1.054678,0.649250,-0.616664,-0.342266,0.284699,-89.703103,-5.353821,52.681486
07600,NaN,-7.116559,-7.123479,1.242491,-5.685422,-5.445539,-3.413115,-0.425242,-0.014267,-0.823022,0.649079,-0.616588,-0.345475,0.281359,-89.946289,-5.826465,52.692019
07601,NaN,-3.360915,-7.144982,-0.078987,-2.422475,-3.301790,-3.061227,-0.542668,-0.479000,-0.762042,0.647626,-0.616349,-0.350138,0.279460,-90.286214,-6.259154,52.972307
07602,NaN,1.929754,-8.740369,-1.395328,1.617626,-0.057318,-0.899536,-0.467110,-0.563692,-0.881044,0.646417,-0.615504,-0.355341,0.277547,-90.590008,-6.761362,53.304862
07603,NaN,3.741343,-9.501602,-1.647374,2.743064,1.139101,0.095339,-0.457800,-0.466681,-0.922254,0.645433,-0.614687,-0.360317,0.275223,-90.885988,-7.282880,53.584494
07604,NaN,2.749755,-9.869506,-1.083069,1.572946,0.618490,0.350171,-0.535173,-0.377922,-0.868363,0.644288,-0.614305,-0.364955,0.272636,-91.221673,-7.776488,53.815730
07605,NaN,1.666785,-8.943287,-0.026111,0.081219,0.440128,-0.726426,-0.577440,-0.456039,-0.846392,0.642810,-0.613989,-0.369805,0.270291,-91.590935,-8.251430,54.094892
07606,NaN,2.659084,-8.535022,0.164370,0.451755,1.366721,-0.988203,-0.627910,-0.555974,-0.791148,0.640908,-0.613766,-0.374882,0.268311,-91.999634,-8.694749,54.434760
07607,NaN,2.680929,-8.986363,-0.332055,0.717493,1.031750,-0.513642,-0.644653,-0.405458,-0.748570,0.639149,-0.613877,-0.379338,0.265983,-92.407947,-9.110905,54.689737
07608,NaN,0.244331,-10.270459,-0.060623,-1.149525,-0.925918,0.354229,-0.619284,-0.211893,-0.698624,0.637764,-0.614226,-0.382999,0.263242,-92.785047,-9.505656,54.834585
07609,NaN,-1.536943,-12.109631,0.242006,-2.752851,-2.407107,1.835940,-0.594458,-0.211375,-0.719390,0.636456,-0.614459,-0.386660,0.260495,-93.150029,-9.907477,54.982211
07610,NaN,0.387917,-11.742216,0.714205,-2.102462,-0.570313,1.754225,-0.610031,-0.374336,-0.753421,0.634826,-0.614433,-0.390972,0.258087,-93.541624,-10.325745,55.228763
07611,NaN,3.524254,-10.344510,0.179199,0.193734,1.785887,0.968467,-0.635007,-0.451988,-0.761072,0.632948,-0.614369,-0.395558,0.255853,-93.958894,-10.740355,55.523851
07612,NaN,4.258345,-9.121117,-1.040053,1.686750,1.807977,0.000325,-0.645423,-0.489319,-0.638379,0.630802,-0.614500,-0.399903,0.254079,-94.386977,-11.084505,55.839100
07613,NaN,3.933176,-8.562566,-1.894206,2.205466,1.126090,-0.526002,-0.692586,-0.519892,-0.533717,0.628288,-0.614950,-0.404057,0.252643,-94.847712,-11.361704,56.170080
07614,NaN,3.701386,-9.217380,-2.233501,2.153415,0.682905,0.114283,-0.595646,-0.513774,-0.417824,0.625936,-0.615307,-0.407721,0.251724,-95.252213,-11.574349,56.494177
07615,NaN,3.146939,-9.333533,-1.882502,1.467042,0.432808,0.098006,-0.573225,-0.525253,-0.351695,0.623522,-0.615719,-0.411164,0.251107,-95.646537,-11.742693,56.822751
07616,NaN,2.906661,-9.343215,-1.574164,1.011122,0.427755,0.037011,-0.557729,-0.575169,-0.291457,0.620977,-0.616116,-0.414570,0.250838,-96.037931,-11.875545,57.178458
07617,NaN,2.791238,-9.149669,-1.653238,0.989322,0.332894,-0.161225,-0.484839,-0.566122,-0.244609,0.618595,-0.616402,-0.417686,0.250854,-96.387161,-11.976058,57.526621
07618,NaN,3.124106,-8.999966,-1.552641,1.053682,0.701264,-0.243581,-0.473748,-0.480025,-0.208084,0.616383,-0.616812,-0.420423,0.250716,-96.719585,-12.063455,57.823311
07619,NaN,3.355454,-9.252726,-0.960947,0.575718,1.211964,-0.014993,-0.505352,-0.361469,-0.140548,0.614221,-0.617620,-0.422601,0.250372,-97.055367,-12.114818,58.046509
07620,NaN,2.952618,-9.491345,-0.539690,-0.089567,1.106621,0.079829,-0.575383,-0.273218,-0.100634,0.611984,-0.618815,-0.424490,0.249705,-97.419965,-12.152776,58.216186
07621,NaN,3.028749,-9.491831,-0.782483,0.093542,1.067283,0.123723,-0.611853,-0.237751,-0.058545,0.609638,-0.620265,-0.426159,0.249000,-97.800701,-12.164198,58.361848
07622,NaN,2.947311,-9.413901,-0.962294,0.161943,0.943780,0.052244,-0.635180,-0.194214,-0.006573,0.607254,-0.621927,-0.427580,0.248242,-98.188375,-12.153008,58.478456
07623,NaN,2.887678,-9.294151,-1.218731,0.317687,0.805415,-0.042567,-0.661968,-0.132791,0.041261,0.604840,-0.623859,-0.428673,0.247402,-98.583207,-12.114699,58.554865
07624,NaN,2.745460,-9.765797,-1.387974,0.220827,0.587841,0.406907,-0.669976,-0.023605,0.059484,0.602618,-0.625965,-0.429406,0.246232,-98.968667,-12.079571,58.566517
07625,NaN,2.114086,-10.070181,-1.380400,-0.232152,0.075390,0.566306,-0.626694,0.067716,0.057543,0.600711,-0.628060,-0.429789,0.244885,-99.318525,-12.049323,58.524882
07626,NaN,1.928856,-10.060286,-1.712539,-0.099735,-0.225279,0.570070,-0.573521,0.082549,0.024807,0.599050,-0.629919,-0.430184,0.243481,-99.636469,-12.043671,58.478031
07627,NaN,1.674797,-9.899709,-2.152262,0.127398,-0.634135,0.435379,-0.491930,0.037052,0.008247,0.597552,-0.631456,-0.430643,0.242368,-99.913776,-12.038726,58.458668
07628,NaN,1.544599,-9.541011,-2.578092,0.462225,-0.922729,0.137087,-0.409247,-0.024955,-0.032697,0.596239,-0.632562,-0.431335,0.241482,-100.151790,-12.055118,58.479606
07629,NaN,1.473399,-9.367483,-2.836903,0.649879,-1.093133,0.003182,-0.318880,-0.046822,-0.064493,0.595190,-0.633319,-0.432061,0.240788,-100.341625,-12.082791,58.516140
07630,NaN,1.480256,-9.376223,-2.512453,0.356818,-0.901627,-0.041463,-0.266646,-0.036818,-0.091558,0.594370,-0.633857,-0.432800,0.240071,-100.500903,-12.130834,58.550266
07631,NaN,1.617964,-9.619670,-2.084375,-0.013057,-0.568068,0.146105,-0.216999,-0.020976,-0.121622,0.593765,-0.634216,-0.433506,0.239345,-100.630615,-12.193201,58.578218
07632,NaN,1.702522,-9.502782,-1.682267,-0.292398,-0.268935,-0.021181,-0.193746,-0.009487,-0.151171,0.593303,-0.634440,-0.434264,0.238521,-100.746382,-12.277412,58.603314
07633,NaN,1.752218,-9.549791,-1.586036,-0.383052,-0.181094,0.016082,-0.202855,-0.008343,-0.173325,0.592831,-0.634658,-0.435078,0.237631,-100.867788,-12.370119,58.629959
07634,NaN,1.702239,-9.448827,-1.406548,-0.554391,-0.121634,-0.125886,-0.196823,-0.013945,-0.208508,0.592416,-0.634759,-0.436032,0.236645,-100.987376,-12.485888,58.664345
07635,NaN,1.884085,-9.335476,-1.666306,-0.249242,-0.107869,-0.148133,-0.272511,0.007462,-0.236926,0.591830,-0.635061,-0.437081,0.235363,-101.148473,-12.615977,58.689508
07636,NaN,2.133848,-9.399778,-1.753490,-0.105245,0.040680,-0.016208,-0.293596,0.056166,-0.265285,0.591324,-0.635403,-0.438119,0.233774,-101.316308,-12.771200,58.690626
07637,NaN,2.065056,-9.317885,-1.857210,-0.070061,-0.075229,-0.090240,-0.291447,0.094560,-0.282035,0.590917,-0.635760,-0.439073,0.232039,-101.478564,-12.936344,58.671648
07638,NaN,2.115644,-9.514524,-1.899150,-0.105377,-0.084184,0.116590,-0.301658,0.122106,-0.304308,0.590570,-0.636112,-0.440045,0.230106,-101.643682,-13.120980,58.640258
07639,NaN,2.097406,-9.503511,-1.831946,-0.207207,-0.075506,0.087972,-0.304237,0.156463,-0.342058,0.590322,-0.636439,-0.441017,0.227967,-101.806844,-13.327107,58.593728
07640,NaN,2.009146,-9.614242,-1.706194,-0.430292,-0.107771,0.146451,-0.305676,0.176622,-0.395551,0.590180,-0.636658,-0.442117,0.225580,-101.969518,-13.569438,58.542980
07641,NaN,1.897443,-9.746673,-1.541489,-0.707261,-0.143532,0.209938,-0.321694,0.188333,-0.456624,0.590068,-0.636811,-0.443374,0.222959,-102.141557,-13.843830,58.493310
07642,NaN,1.935799,-10.041418,-1.625113,-0.762249,-0.213528,0.511624,-0.310763,0.189350,-0.533638,0.590083,-0.636742,-0.444874,0.220110,-102.309306,-14.165204,58.453780
07643,NaN,2.020464,-10.173963,-1.716414,-0.744931,-0.243056,0.671749,-0.320550,0.223917,-0.619697,0.590222,-0.636556,-0.446534,0.216892,-102.480566,-14.535509,58.405797
07644,NaN,2.021030,-10.410053,-1.700050,-0.896780,-0.301421,0.885362,-0.324713,0.251516,-0.702391,0.590500,-0.636203,-0.448389,0.213311,-102.652561,-14.959085,58.353856
07645,NaN,2.280131,-10.528835,-1.752500,-0.833387,-0.183288,1.068384,-0.340273,0.281388,-0.799847,0.590879,-0.635713,-0.450459,0.209328,-102.832457,-15.437604,58.298325
07646,NaN,2.295661,-10.695545,-1.651977,-1.040179,-0.195575,1.199694,-0.349930,0.331750,-0.900966,0.591443,-0.635046,-0.452716,0.204841,-103.013165,-15.982506,58.228696
07647,NaN,2.577729,-11.130927,-1.892062,-0.944997,-0.225527,1.727534,-0.411875,0.369048,-1.065992,0.592035,-0.634223,-0.455421,0.199619,-103.229718,-16.621281,58.161266
07648,NaN,2.463118,-11.454586,-1.819799,-1.282981,-0.407499,1.967466,-0.470811,0.463103,-1.201842,0.592776,-0.633318,-0.458332,0.193538,-103.468945,-17.351616,58.060385
07649,NaN,2.076491,-12.071937,-1.760258,-1.868717,-0.870761,2.389317,-0.456733,0.581377,-1.345101,0.593930,-0.632138,-0.461295,0.186696,-103.685166,-18.174892,57.913007
07650,NaN,1.697022,-12.989591,-1.229362,-2.951853,-1.117988,2.960472,-0.482149,0.698563,-1.503341,0.595393,-0.630723,-0.464414,0.178928,-103.899214,-19.105607,57.722211
07651,NaN,0.237053,-14.639918,-0.772147,-4.832367,-2.396161,3.821106,-0.541975,0.666231,-1.705045,0.596714,-0.628950,-0.468270,0.170523,-104.162535,-20.141836,57.583140
07652,NaN,0.985965,-15.862437,-0.734491,-5.175290,-2.136541,5.079291,-0.709320,0.571472,-1.932798,0.597431,-0.626985,-0.473226,0.161317,-104.552138,-21.293967,57.540057
07653,NaN,1.497866,-16.618370,-0.158074,-5.930704,-1.716003,5.689199,-0.757439,0.642443,-2.197851,0.598290,-0.624527,-0.478772,0.150972,-104.972480,-22.601345,57.504879
07654,NaN,1.158245,-17.178578,0.857998,-7.407534,-1.695137,5.660530,-0.871907,0.815652,-2.430178,0.599298,-0.621871,-0.484534,0.139088,-105.433762,-24.064828,57.413446
07655,NaN,0.148792,-18.729354,1.672523,-9.539391,-2.509705,6.196275,-1.017452,1.028172,-2.688454,0.600409,-0.619057,-0.490462,0.125393,-105.947507,-25.702951,57.250093
07656,NaN,-1.975100,-20.314570,2.413604,-12.251217,-4.230703,6.136715,-1.165938,1.216479,-2.965438,0.601558,-0.615955,-0.496639,0.109891,-106.515929,-27.525250,57.034108
07657,NaN,-4.115525,-22.611411,2.734048,-15.099483,-6.362763,6.532135,-1.426979,1.380078,-3.289501,0.602272,-0.612733,-0.503311,0.092222,-107.220231,-29.554127,56.797890
07658,NaN,-5.915845,-24.573932,2.761040,-17.537621,-8.348522,6.593013,-1.622079,1.432894,-3.633131,0.602458,-0.609002,-0.510738,0.072847,-108.055891,-31.780700,56.621608
07659,NaN,-4.496675,-25.013471,2.241557,-17.399625,-8.033487,7.025636,-1.910218,1.584759,-3.965220,0.601954,-0.605052,-0.518594,0.051219,-109.062003,-34.219147,56.460033
07660,NaN,-2.536887,-22.999166,-0.306776,-14.332987,-8.131309,6.430338,-2.111584,1.777261,-4.200788,0.601077,-0.600794,-0.526290,0.027786,-110.157951,-36.819360,56.272039
07661,NaN,-2.471617,-23.261145,-2.333453,-13.851466,-9.853043,6.422421,-2.003453,1.403797,-4.307800,0.599153,-0.595504,-0.535128,0.005382,-111.404165,-39.407950,56.431799
07662,NaN,-2.231852,-20.291235,-1.520879,-12.997668,-8.598165,3.457302,-1.000942,0.890476,-4.229996,0.598543,-0.587091,-0.544898,-0.012528,-112.338315,-41.835892,56.993440
07663,NaN,-3.086561,-14.332704,-3.073536,-8.785377,-8.703486,-1.360551,-0.630890,0.044936,-3.900859,0.596440,-0.578248,-0.556068,-0.026012,-113.486809,-43.900258,58.150762
07664,NaN,-1.350276,-12.881741,-2.778062,-7.548959,-7.155037,-1.610114,-1.023780,-0.588024,-3.447776,0.591322,-0.571737,-0.567504,-0.037330,-115.173979,-45.548360,59.722097
07665,NaN,0.030868,-11.388436,-2.648636,-6.309977,-5.863963,-1.906905,-0.806175,-0.387386,-2.928553,0.587290,-0.565832,-0.576805,-0.047127,-116.611242,-46.956495,61.072800
07666,NaN,-2.747688,-10.429921,-0.660192,-7.918854,-5.859395,-5.371702,-0.605631,0.115653,-2.367762,0.585334,-0.560762,-0.582914,-0.056036,-117.557926,-48.180227,61.892623
07667,NaN,-0.736084,-7.263367,-1.994312,-4.235315,-4.559432,-5.505973,0.106639,0.677001,-1.645860,0.587109,-0.555458,-0.585556,-0.062402,-117.603560,-49.191107,62.035399
07668,NaN,-7.597653,-7.016748,1.499670,-8.360834,-5.878377,-11.991582,-0.169213,1.578597,-0.594493,0.591081,-0.553759,-0.582431,-0.068904,-116.928225,-49.892824,61.027504
07669,NaN,-12.970266,-7.471545,2.561492,-11.135254,-8.128313,-16.179968,0.094371,2.216026,0.400843,0.597884,-0.553866,-0.574769,-0.073540,-115.393057,-50.241998,59.096726
07670,NaN,-12.540065,-6.496191,2.408529,-10.399826,-7.415724,-16.300852,0.462274,2.375119,1.082669,0.606362,-0.554740,-0.564713,-0.075415,-113.318676,-50.220502,56.749327
07671,NaN,-9.445748,-6.596103,2.386475,-9.563023,-5.643850,-13.700466,0.837348,2.076102,1.737580,0.615129,-0.556285,-0.553861,-0.073497,-111.080743,-49.743700,54.454450
07672,NaN,-7.622293,-3.870926,3.583383,-7.819306,-2.651336,-14.025428,0.750690,1.819626,2.111791,0.622994,-0.559171,-0.542521,-0.069835,-109.016019,-48.944548,52.306280
07673,NaN,-5.691652,-4.598756,3.480021,-7.596988,-1.903901,-11.888762,0.298864,1.509172,2.553191,0.628734,-0.564592,-0.530729,-0.065246,-107.407370,-47.820801,50.384440
07674,NaN,-5.859271,-6.672589,3.106001,-8.925487,-2.923240,-10.344656,0.561555,1.432244,3.177055,0.635084,-0.570775,-0.517262,-0.057653,-105.673737,-46.288127,48.462350
07675,NaN,-6.171198,-7.223846,3.128106,-9.487663,-3.165704,-9.855135,0.857133,1.197266,3.742178,0.641565,-0.577285,-0.502926,-0.046921,-103.958539,-44.386427,46.742422
07676,NaN,-5.418810,-6.958631,3.077421,-8.927041,-2.654590,-9.102886,1.034843,0.849624,4.155338,0.647535,-0.584149,-0.488223,-0.033276,-102.399623,-42.156529,45.340586
07677,NaN,-4.109255,-6.862627,2.791212,-7.970280,-2.099990,-7.857056,1.068355,0.361803,4.513070,0.652103,-0.591500,-0.473919,-0.017066,-101.155868,-39.663435,44.377251
07678,NaN,-2.585663,-7.439117,2.277064,-7.035298,-1.786062,-6.003193,1.176098,-0.019735,4.861820,0.655768,-0.599068,-0.459438,0.001798,-100.077567,-36.899586,43.733299
07679,NaN,-1.358255,-8.082244,1.885851,-6.229857,-1.488973,-4.364730,1.149298,-0.272288,5.150659,0.658298,-0.606929,-0.444735,0.022178,-99.178623,-33.960066,43.319795
07680,NaN,-0.626168,-9.295388,1.054801,-5.593082,-1.876798,-2.526940,1.162610,-0.410619,5.405878,0.660079,-0.614901,-0.429254,0.043961,-98.352499,-30.838475,43.032707
07681,NaN,-0.868709,-9.769747,0.056955,-4.965505,-2.701688,-1.798744,1.299180,-0.526262,5.670722,0.661404,-0.622413,-0.413090,0.067101,-97.525099,-27.575102,42.864087
07682,NaN,-1.062400,-9.935310,-0.338003,-4.474595,-2.928282,-1.367240,1.372243,-0.660574,5.907030,0.662034,-0.629612,-0.396103,0.091664,-96.709657,-24.144635,42.812903
07683,NaN,-0.546714,-11.133558,-0.847306,-3.751141,-2.946532,0.295666,1.277536,-0.847142,6.093740,0.661246,-0.636757,-0.378946,0.117023,-96.017481,-20.617195,42.919319
07684,NaN,0.739816,-12.773637,-1.531208,-2.345066,-2.523452,2.602319,1.050335,-0.997047,6.328286,0.658656,-0.644391,-0.361136,0.143222,-95.477460,-16.926704,43.134523
07685,NaN,2.246247,-15.449158,-3.194267,-0.159677,-2.587712,5.906932,1.033694,-1.137980,6.604594,0.654812,-0.651729,-0.342660,0.170458,-94.967077,-13.095258,43.453304
07686,NaN,5.255786,-16.585524,-4.820286,3.754473,-1.187073,7.802656,1.128031,-1.280871,6.780557,0.650111,-0.658186,-0.323440,0.198832,-94.394022,-9.137627,43.875040
07687,NaN,9.528776,-16.719306,-6.271752,8.769945,1.457137,8.366086,1.224318,-1.481365,6.680032,0.644699,-0.663137,-0.304861,0.227315,-93.764706,-5.255960,44.457007
07688,NaN,15.223325,-17.676012,-8.466943,15.236323,4.707440,9.196293,1.284867,-1.633410,6.419397,0.638794,-0.666557,-0.287064,0.255417,-93.062626,-1.504154,45.174012
07689,NaN,21.464299,-18.315154,-10.578289,22.009886,8.580503,8.887473,1.515422,-1.800243,5.898959,0.633392,-0.667546,-0.271074,0.282339,-92.190355,1.922968,46.052626
07690,NaN,27.458172,-19.159444,-12.527710,28.306415,12.514588,8.070127,1.187120,-1.686016,5.041663,0.627699,-0.667992,-0.257684,0.305582,-91.450850,4.862074,46.929730
07691,NaN,27.882698,-21.537136,-19.620541,34.448793,9.029014,9.102687,0.731017,-1.150620,3.919095,0.622521,-0.668840,-0.247031,0.322639,-90.966858,7.124412,47.548141
07692,NaN,30.476856,-18.801586,-13.791730,32.040631,15.242946,4.798723,0.632941,-1.224934,2.622853,0.618802,-0.668058,-0.240932,0.335760,-90.504165,8.652211,48.239834
07693,NaN,41.358052,-12.226595,-18.678639,42.290050,19.689768,-4.094955,0.902225,-0.940872,0.994212,0.618978,-0.664856,-0.238996,0.343093,-89.901693,9.227138,48.786930
07694,NaN,35.160772,-5.570957,-17.275029,36.412986,15.486201,-9.902083,-0.047108,-0.539245,-0.487706,0.618989,-0.663488,-0.242317,0.343394,-89.876273,8.956950,49.102375
07695,NaN,31.318826,-7.950439,-9.861286,28.414440,17.976726,-6.536063,-1.112828,-0.800711,-1.692704,0.617182,-0.663461,-0.252304,0.339482,-90.444119,7.991763,49.572380
07696,NaN,37.544139,-14.064910,-1.955658,26.441790,28.706982,-0.444289,-1.128846,-1.326379,-3.280395,0.617208,-0.660439,-0.269143,0.332320,-90.993191,6.126319,50.365058
07697,NaN,21.932365,-25.409372,-1.340600,15.855883,18.027765,13.678787,-1.655395,0.304439,-4.480251,0.619404,-0.659831,-0.285667,0.315207,-91.950220,3.559171,50.259566
07698,NaN,-3.850109,-25.397271,1.439734,-3.512466,-0.621843,15.665238,0.172315,1.173774,-3.603177,0.627210,-0.655870,-0.293619,0.300384,-91.877693,1.472844,49.659524
07699,NaN,-7.825311,-6.933738,0.542237,-5.594802,-5.427230,-2.824110,0.165961,-0.205429,-3.199318,0.632162,-0.650257,-0.304466,0.291269,-91.780331,-0.352068,49.838971
07700,NaN,4.318078,-1.112119,-2.870830,4.910056,1.519853,-8.507976,-0.977897,-2.518039,-3.008703,0.629394,-0.644957,-0.323586,0.288420,-92.371578,-2.022270,51.347082
07701,NaN,11.461421,-7.829892,-5.750422,11.045661,5.367490,-1.158194,-1.104336,-1.677816,-3.001789,0.627329,-0.641049,-0.340083,0.282590,-93.056016,-3.691240,52.393255
07702,NaN,8.346559,-9.484002,1.316058,3.140623,7.171901,0.189042,-0.623402,-0.817506,-2.385947,0.627248,-0.637729,-0.351173,0.276657,-93.455471,-5.030228,52.943855
07703,NaN,4.819797,-11.058872,0.482500,1.280636,3.693793,1.609741,-0.625031,-0.774153,-2.002986,0.626612,-0.635061,-0.360829,0.271768,-93.863871,-6.143633,53.465414
07704,NaN,5.908723,-12.011765,-2.683656,4.123492,2.507292,2.958490,-0.465658,-0.531640,-1.730077,0.626489,-0.632635,-0.368636,0.267194,-94.174695,-7.112647,53.845085
07705,NaN,5.624540,-10.008724,-1.002366,2.714636,3.290499,0.893182,-0.372553,0.043553,-1.456651,0.627304,-0.631157,-0.373593,0.261838,-94.393012,-7.943169,53.886042
07706,NaN,3.180135,-9.744543,-0.840899,1.077622,1.362373,0.324258,-0.532922,0.209421,-1.196380,0.627557,-0.630840,-0.377436,0.256429,-94.689739,-8.638137,53.823939
07707,NaN,2.142970,-10.844973,-0.548207,-0.046656,0.568635,1.240788,-0.606241,0.077435,-1.032565,0.627088,-0.630882,-0.381219,0.251835,-95.038007,-9.227743,53.833114
07708,NaN,1.748824,-10.772722,-0.691240,-0.267713,0.130716,1.118819,-0.621271,-0.168767,-0.873709,0.625889,-0.630928,-0.385316,0.248445,-95.418587,-9.719667,53.980905
07709,NaN,3.799420,-10.489059,-1.125319,1.201153,1.505464,1.233213,-0.717979,-0.230632,-0.751421,0.624088,-0.631433,-0.389293,0.245473,-95.860402,-10.131446,54.160462
07710,NaN,4.147531,-9.801994,-1.434608,1.673448,1.639647,0.668233,-0.558433,-0.028157,-0.611695,0.623008,-0.631929,-0.392029,0.242569,-96.190947,-10.480554,54.218063
07711,NaN,3.443543,-9.289208,-1.763530,1.550949,0.913371,0.087680,-0.610931,0.136765,-0.454538,0.621876,-0.633104,-0.393776,0.239560,-96.531855,-10.744342,54.171253
07712,NaN,2.926032,-9.813049,-1.915041,1.196643,0.361091,0.529567,-0.613972,0.272468,-0.376313,0.620908,-0.634578,-0.394889,0.236320,-96.859782,-10.979165,54.042890
07713,NaN,2.128293,-9.939274,-1.824132,0.568180,-0.232663,0.495992,-0.605320,0.346164,-0.386574,0.620106,-0.636100,-0.395751,0.232863,-97.173368,-11.219469,53.872885
07714,NaN,1.628190,-10.241368,-1.968512,0.254853,-0.748385,0.712814,-0.561127,0.332116,-0.418528,0.619453,-0.637379,-0.396739,0.229399,-97.464269,-11.484036,53.715443
07715,NaN,1.452201,-9.895585,-1.723667,-0.028768,-0.721481,0.310594,-0.426253,0.283904,-0.422140,0.619123,-0.638186,-0.397691,0.226379,-97.682002,-11.741448,53.586365
07716,NaN,1.549134,-9.711053,-1.598631,-0.091609,-0.567431,0.133631,-0.498996,0.283577,-0.455725,0.618598,-0.639127,-0.398864,0.223072,-97.942727,-12.024537,53.462023
07717,NaN,1.701246,-10.253116,-1.508970,-0.265999,-0.455717,0.676296,-0.430091,0.336425,-0.517842,0.618452,-0.639797,-0.399954,0.219575,-98.157033,-12.341499,53.312242
07718,NaN,1.431775,-9.620571,-1.290783,-0.508609,-0.503020,-0.027018,-0.445857,0.341468,-0.579919,0.618331,-0.640372,-0.401274,0.215799,-98.381344,-12.700609,53.166721
07719,NaN,1.299965,-9.809821,-1.540643,-0.510767,-0.802861,0.156770,-0.471747,0.350276,-0.632105,0.618185,-0.640937,-0.402719,0.211814,-98.618604,-13.084633,53.020962
07720,NaN,1.214652,-9.666067,-1.730713,-0.453907,-1.006151,0.020148,-0.435452,0.362137,-0.689519,0.618233,-0.641259,-0.404299,0.207647,-98.835030,-13.508557,52.875637
07721,NaN,1.075146,-9.430025,-1.423301,-0.787384,-0.932754,-0.293420,-0.501998,0.315254,-0.731886,0.617999,-0.641654,-0.406186,0.203396,-99.095217,-13.947066,52.762163
07722,NaN,1.671949,-10.005194,-1.453828,-0.658792,-0.574772,0.397488,-0.624126,0.259064,-0.782966,0.617301,-0.642235,-0.408558,0.198881,-99.435304,-14.415410,52.689342
07723,NaN,2.093573,-10.164477,-1.256903,-0.700397,-0.178292,0.615937,-0.471917,0.297391,-0.865614,0.617230,-0.642214,-0.410883,0.194326,-99.683489,-14.928896,52.603688
07724,NaN,2.089205,-9.926322,-1.119751,-0.829825,-0.120724,0.358173,-0.429001,0.305081,-0.925743,0.617361,-0.641912,-0.413355,0.189612,-99.908227,-15.482816,52.522446
07725,NaN,2.319569,-9.667367,-0.757791,-0.982931,0.258562,0.105911,-0.453117,0.311029,-1.018181,0.617489,-0.641494,-0.416084,0.184570,-100.147229,-16.084402,52.448524
07726,NaN,2.385216,-10.101748,-0.771856,-1.167329,0.192731,0.527973,-0.471435,0.273960,-1.090097,0.617532,-0.640911,-0.419190,0.179349,-100.405816,-16.728315,52.407363
07727,NaN,2.334639,-10.266946,-1.171700,-1.062727,-0.186436,0.726185,-0.524795,0.284474,-1.204467,0.617498,-0.640252,-0.422632,0.173654,-100.696428,-17.432669,52.374792
07728,NaN,1.877854,-11.903060,-2.001487,-1.383263,-1.339408,2.249860,-0.598150,0.348198,-1.298697,0.617422,-0.639628,-0.426249,0.167269,-101.022279,-18.202194,52.319867
07729,NaN,1.696920,-12.611112,-1.886189,-1.980913,-1.577366,2.799280,-0.710509,0.452141,-1.414281,0.617260,-0.639168,-0.429955,0.159976,-101.397226,-19.043455,52.220780
07730,NaN,2.087412,-13.146723,-0.818162,-2.920672,-0.758802,3.177785,-0.772688,0.607255,-1.574182,0.617320,-0.638617,-0.433736,0.151520,-101.784393,-19.997653,52.054978
07731,NaN,1.721478,-13.410761,0.830867,-4.638298,-0.088355,2.914271,-0.836435,0.737428,-1.757368,0.617532,-0.637917,-0.437680,0.141958,-102.187647,-21.066343,51.839745
07732,NaN,0.249016,-14.318932,2.191203,-7.045703,-0.506756,2.835984,-0.922399,0.755834,-2.012307,0.617623,-0.636844,-0.442410,0.131319,-102.647241,-22.285710,51.654746
07733,NaN,-1.166159,-15.997703,2.247597,-8.840181,-1.881883,3.627369,-0.919991,0.610770,-2.309169,0.617497,-0.634933,-0.448444,0.120237,-103.155590,-23.649456,51.607895
07734,NaN,-2.199231,-16.397063,2.111481,-9.808203,-2.941112,3.351276,-0.966507,0.486490,-2.637253,0.617039,-0.632222,-0.455861,0.108392,-103.745701,-25.183135,51.698979
07735,NaN,-2.626351,-17.659175,1.445964,-10.499854,-4.110784,4.103570,-1.125191,0.528006,-3.003231,0.616218,-0.629059,-0.464275,0.094918,-104.452626,-26.921618,51.841720
07736,NaN,-3.343493,-19.573861,1.195837,-12.054139,-5.372950,5.071239,-1.258407,0.806955,-3.373823,0.615630,-0.625374,-0.472920,0.079078,-105.197903,-28.906394,51.897743
07737,NaN,-4.298089,-21.554434,0.933420,-13.901127,-6.862562,5.792959,-1.441465,1.262444,-3.738211,0.615437,-0.621343,-0.481188,0.060238,-105.954444,-31.159624,51.759999
07738,NaN,-5.347147,-23.846676,1.927854,-16.950993,-7.605654,6.177656,-1.610676,1.880093,-4.116771,0.616023,-0.616783,-0.488527,0.037882,-106.638826,-33.721566,51.320279
07739,NaN,-6.150234,-26.649740,2.564159,-20.063584,-8.546115,6.887126,-1.652234,2.301399,-4.437311,0.617164,-0.611267,-0.495266,0.013110,-107.220072,-36.533542,50.685956
07740,NaN,-6.949462,-28.293029,-0.395126,-20.401788,-11.900750,7.242713,-1.706629,1.980244,-4.839765,0.616947,-0.604461,-0.503843,-0.012043,-108.004746,-39.512668,50.377704
07741,NaN,-5.398232,-27.625274,0.343904,-20.523574,-10.544710,6.305765,-1.803991,1.090836,-5.180739,0.613679,-0.596686,-0.515830,-0.035820,-109.351884,-42.520537,50.855683
07742,NaN,-2.590661,-20.480545,-2.236014,-13.703697,-9.178239,2.798141,-1.723976,0.699017,-4.927387,0.609262,-0.588965,-0.527853,-0.057374,-110.907299,-45.298666,51.679212
07743,NaN,-2.917995,-16.821372,-4.033744,-10.782387,-9.900959,-0.148173,-1.283890,0.077171,-4.501164,0.604216,-0.580829,-0.540360,-0.074647,-112.608932,-47.706032,53.011122
07744,NaN,-2.169024,-13.546775,-2.146047,-9.483993,-7.199626,-2.669774,-0.568101,-0.268979,-3.877108,0.600297,-0.572102,-0.552063,-0.087003,-114.089546,-49.672040,54.553776
07745,NaN,-1.388433,-10.947236,-2.527625,-7.225767,-6.388285,-3.885943,-0.598167,-0.296067,-3.236077,0.596268,-0.565032,-0.561874,-0.097471,-115.564134,-51.279220,56.021594
07746,NaN,-2.176133,-10.997828,-3.558445,-7.079655,-7.727791,-4.473895,-0.525915,-0.051097,-2.640077,0.593322,-0.559210,-0.569120,-0.106562,-116.740883,-52.610338,57.138241
07747,NaN,4.709075,-8.103727,-5.481457,-1.629141,-4.832826,-0.227379,0.468809,0.239782,-2.179061,0.594105,-0.551473,-0.574718,-0.112320,-117.065099,-53.781369,57.879242
07748,NaN,5.906973,-5.168912,-5.273647,0.822280,-3.143209,-0.932170,0.305732,1.042936,-1.172516,0.597290,-0.546654,-0.574947,-0.117687,-116.559843,-54.635704,57.476858
07749,NaN,-4.127419,-8.291072,-0.049357,-7.663053,-5.121603,-8.904038,0.029994,2.657704,-0.369521,0.604730,-0.543907,-0.567988,-0.125922,-114.710463,-55.481021,55.242531
07750,NaN,-9.786152,-6.119000,3.522704,-9.884958,-3.951830,-15.494711,1.299731,2.772687,0.649948,0.616494,-0.540077,-0.558524,-0.127678,-111.607770,-55.747640,52.389169
07751,NaN,-9.156858,-1.660969,2.821936,-6.059207,-2.374176,-17.038603,1.188687,2.265519,1.353529,0.626820,-0.538708,-0.548590,-0.126254,-108.758330,-55.463199,49.762191
07752,NaN,-5.894447,-3.061483,1.459678,-5.311493,-2.520697,-13.230229,0.620805,1.767542,1.881056,0.634494,-0.540829,-0.538257,-0.123288,-106.543279,-54.725867,47.498408
07753,NaN,-3.881666,-3.924041,1.109063,-5.044327,-2.240415,-10.921239,0.693133,1.288513,2.400169,0.641243,-0.544258,-0.528057,-0.117244,-104.652308,-53.595538,45.656477
07754,NaN,-3.653519,-3.408129,1.057287,-4.588234,-1.972238,-10.879367,0.576935,0.756070,2.884849,0.646447,-0.549590,-0.517984,-0.108393,-103.235468,-52.077503,44.296681
07755,NaN,-3.416578,-4.383000,0.613574,-4.955591,-2.587468,-9.879011,0.493419,0.349676,3.289352,0.650391,-0.556263,-0.508014,-0.097392,-102.196900,-50.279084,43.327328
07756,NaN,-2.945709,-5.695308,0.200408,-5.400510,-3.174067,-8.431004,0.553210,0.128128,3.643663,0.653938,-0.563631,-0.497565,-0.084351,-101.297849,-48.231195,42.562585
07757,NaN,-3.188897,-6.163144,0.025059,-5.681424,-3.563673,-8.032493,0.824791,-0.060170,3.981063,0.657646,-0.570760,-0.486791,-0.069058,-100.401869,-45.980536,41.985536
07758,NaN,-2.129888,-7.135520,-0.291772,-5.475770,-3.619417,-6.285075,0.959726,-0.238136,4.279785,0.661141,-0.578032,-0.475486,-0.051822,-99.559115,-43.522149,41.573678
07759,NaN,-1.245819,-7.233058,-0.570340,-4.720623,-3.386308,-5.292418,1.143850,-0.431981,4.613918,0.664416,-0.585179,-0.463743,-0.032550,-98.745956,-40.869002,41.339764
07760,NaN,-0.300272,-7.246322,-1.249858,-3.564573,-3.371631,-4.328515,1.180806,-0.447960,4.853483,0.667426,-0.592461,-0.450981,-0.012231,-97.941724,-38.059904,41.143965
07761,NaN,0.577393,-7.506796,-0.990273,-3.061871,-2.653636,-3.391134,1.043160,-0.488368,5.037819,0.669489,-0.600181,-0.437604,0.008421,-97.267825,-35.158029,41.017278
07762,NaN,0.690542,-8.856186,-1.348622,-3.133875,-3.077189,-1.975724,1.040537,-0.518477,5.244769,0.671022,-0.607991,-0.423296,0.029946,-96.621796,-32.118200,40.933626
07763,NaN,0.213867,-8.192980,-1.054138,-2.937209,-2.743037,-2.593743,1.102349,-0.598654,5.363792,0.672037,-0.615332,-0.408677,0.052121,-95.993257,-29.022190,40.940946
07764,NaN,0.784227,-9.297248,-1.206735,-2.542950,-2.583146,-1.132466,1.184890,-0.686219,5.606416,0.672541,-0.622421,-0.393146,0.075612,-95.348349,-25.765484,41.023205
07765,NaN,1.314340,-8.873460,-0.769202,-1.851198,-1.593566,-1.148479,1.107544,-0.627147,5.645848,0.672327,-0.629302,-0.377105,0.098731,-94.747339,-22.507945,41.106921
07766,NaN,1.616863,-10.538686,-1.307821,-1.385654,-1.844677,0.676916,0.919905,-0.661997,5.828677,0.670795,-0.636636,-0.360256,0.122242,-94.259956,-19.127318,41.230497
07767,NaN,1.691398,-11.176905,-1.615393,-0.771317,-1.783034,1.438065,0.972637,-0.724816,5.941620,0.668634,-0.643343,-0.343017,0.146210,-93.758288,-15.698731,41.418508
07768,NaN,1.686789,-12.397408,-1.976834,-0.224093,-1.811744,2.719857,0.872050,-0.900577,6.082885,0.665115,-0.649924,-0.325540,0.171011,-93.328385,-12.166629,41.727281
07769,NaN,3.725672,-14.601212,-2.612605,1.963537,-0.665367,5.337371,0.830357,-1.243110,6.208679,0.660130,-0.655874,-0.308625,0.196998,-92.947080,-8.572102,42.255505
07770,NaN,5.453914,-17.018406,-5.543105,5.697363,-1.168174,7.967754,0.764594,-1.432569,6.450792,0.653692,-0.661552,-0.291156,0.224198,-92.579398,-4.819379,42.902170
07771,NaN,8.893908,-17.753432,-7.162069,10.165578,0.784447,8.666203,0.517579,-1.501114,6.351339,0.645737,-0.667066,-0.274319,0.250591,-92.319068,-1.143349,43.610044
07772,NaN,15.157065,-17.949630,-7.830412,16.000930,5.510803,8.260790,0.299719,-1.272883,6.041315,0.637088,-0.672484,-0.257658,0.274766,-92.136252,2.364085,44.205610
07773,NaN,19.211591,-18.724937,-8.991305,20.431472,8.420876,7.850482,0.233626,-1.224871,5.502722,0.628470,-0.676874,-0.242633,0.296641,-91.960925,5.543497,44.798876
07774,NaN,19.908069,-22.667035,-12.654686,24.284016,7.621575,10.736527,-0.322439,-1.473395,4.518071,0.618684,-0.680996,-0.232285,0.315466,-92.050872,8.177484,45.559427
07775,NaN,28.583098,-25.309951,-11.015198,29.704642,16.208953,11.011575,0.197013,-1.966305,3.121330,0.612029,-0.680788,-0.227386,0.332030,-91.766268,10.005936,46.642706
07776,NaN,42.481980,-17.059881,-15.413854,41.593318,22.685408,-0.398932,1.405399,-1.619521,1.440510,0.612501,-0.675382,-0.225018,0.343612,-90.790423,10.864759,47.569901
07777,NaN,39.029694,-9.031259,-15.214567,38.131468,19.481878,-8.137071,0.975122,-0.677391,-0.205545,0.615360,-0.670982,-0.226104,0.346400,-90.156277,10.753595,47.969443
07778,NaN,34.895197,-9.315493,-10.883336,32.117404,19.557467,-6.838836,-0.786132,-0.331024,-1.484798,0.614874,-0.671126,-0.233435,0.342093,-90.570272,9.910510,48.170753
07779,NaN,34.567835,-14.681728,-4.881045,27.721453,24.146130,-0.719348,-0.861594,-0.650673,-2.833473,0.615985,-0.669272,-0.246387,0.334560,-90.999618,8.295720,48.574194
07780,NaN,40.392269,-18.494852,0.153310,27.395819,32.308432,3.563009,-1.360257,-1.066568,-4.307276,0.617143,-0.666188,-0.266308,0.323121,-91.696660,5.843900,49.251715
07781,NaN,12.807155,-25.927326,-0.187108,9.203482,11.589287,15.028987,-0.676101,1.378469,-4.782415,0.624244,-0.663920,-0.278989,0.302812,-92.137818,3.082337,48.555275
07782,NaN,-11.370785,-13.543297,1.483865,-8.706196,-6.815837,4.066523,0.300284,0.940592,-3.534973,0.631794,-0.659350,-0.287329,0.289027,-91.983132,1.035631,48.093273
07783,NaN,-9.830521,-3.211914,-2.037780,-5.043729,-8.644444,-6.506408,-0.039687,-1.826831,-3.157866,0.633483,-0.652186,-0.303517,0.285009,-92.002424,-0.732774,49.205500
07784,NaN,11.386668,-3.630025,-7.433120,12.825173,3.938503,-5.562651,-0.811123,-2.496623,-3.359731,0.631682,-0.645941,-0.323500,0.281223,-92.512032,-2.601604,50.715145
07785,NaN,10.623575,-8.892956,-2.123950,7.638968,6.770440,-0.208191,-0.984194,-1.043274,-2.922534,0.630827,-0.642769,-0.337573,0.273772,-93.116274,-4.241209,51.398817
07786,NaN,7.641940,-9.263071,2.718780,1.686100,7.381112,-0.103754,-0.871178,-0.628450,-2.414213,0.630202,-0.640515,-0.348521,0.266682,-93.655458,-5.603790,51.845772
07787,NaN,4.906606,-11.558360,-2.141621,3.306819,2.008559,2.323277,-0.477730,-0.402616,-2.083533,0.630696,-0.637814,-0.357077,0.260597,-93.962588,-6.776022,52.160251
07788,NaN,5.770722,-11.638748,-1.098263,2.802737,3.186467,2.514264,-0.449659,-0.075036,-1.866866,0.631520,-0.635759,-0.363884,0.254131,-94.237610,-7.843533,52.284917
07789,NaN,4.135633,-10.640960,-0.337937,1.192398,2.309239,1.308930,-0.401558,0.182273,-1.600223,0.632571,-0.634325,-0.368892,0.247798,-94.462591,-8.762059,52.253136
07790,NaN,1.987570,-10.074795,0.125604,-0.517160,0.854971,0.408233,-0.446126,0.072117,-1.467999,0.633078,-0.633084,-0.373912,0.242089,-94.724591,-9.607878,52.284083
07791,NaN,2.951392,-9.946505,-0.221153,0.223853,1.326755,0.477128,-0.639828,-0.162198,-1.291334,0.632280,-0.632483,-0.379276,0.237352,-95.118662,-10.333410,52.445694
07792,NaN,2.887273,-10.143845,-0.994426,0.617568,0.730313,0.737502,-0.701869,-0.240847,-1.077318,0.630858,-0.632344,-0.384319,0.233364,-95.559533,-10.939263,52.648374
07793,NaN,3.679536,-10.345618,-1.145725,1.038585,1.201189,1.112533,-0.708531,-0.141680,-0.982542,0.629465,-0.632515,-0.388691,0.229386,-95.992832,-11.487498,52.791579
07794,NaN,4.242706,-10.445494,-1.239322,1.300088,1.537921,1.349216,-0.680083,0.079375,-0.899943,0.628479,-0.632971,-0.392111,0.224969,-96.386876,-12.009211,52.806646
07795,NaN,3.535112,-10.250584,-1.442993,0.971880,0.844299,1.049879,-0.624895,0.228409,-0.795562,0.627820,-0.633626,-0.394608,0.220557,-96.728143,-12.473265,52.729945
07796,NaN,2.918799,-10.248592,-1.403330,0.478433,0.357458,0.918803,-0.590870,0.244520,-0.724914,0.627212,-0.634295,-0.396834,0.216328,-97.048854,-12.906751,52.642921
07797,NaN,2.588184,-10.142982,-1.605296,0.374238,-0.043837,0.770937,-0.502673,0.197572,-0.693951,0.626739,-0.634705,-0.398954,0.212565,-97.322471,-13.311627,52.581707
07798,NaN,1.915596,-10.016954,-2.264611,0.429067,-0.991767,0.578126,-0.517380,0.167177,-0.651371,0.626106,-0.635182,-0.401093,0.208950,-97.610058,-13.698421,52.538394
07799,NaN,1.818412,-10.440859,-1.970673,-0.043693,-0.951133,0.924839,-0.513709,0.137803,-0.643468,0.625402,-0.635641,-0.403238,0.205505,-97.897562,-14.070588,52.512053
07800,NaN,2.256436,-10.395285,-1.865411,0.062199,-0.572283,0.971616,-0.427441,0.204087,-0.672905,0.625129,-0.635809,-0.405222,0.201879,-98.129125,-14.472785,52.452525
07801,NaN,2.142429,-9.772748,-1.464987,-0.223765,-0.372407,0.289465,-0.408007,0.228292,-0.694713,0.624975,-0.635905,-0.407125,0.198192,-98.344172,-14.881640,52.380641
07802,NaN,2.332807,-9.492387,-1.265770,-0.261396,-0.105186,0.039704,-0.388504,0.219620,-0.726934,0.624889,-0.635836,-0.409179,0.194421,-98.552180,-15.316080,52.319594
07803,NaN,2.310308,-9.321578,-1.154125,-0.382820,-0.069288,-0.147830,-0.353074,0.190507,-0.747923,0.624863,-0.635592,-0.411300,0.190793,-98.742676,-15.752309,52.277435
07804,NaN,2.285290,-9.168095,-1.243388,-0.357808,-0.166051,-0.290798,-0.358126,0.125251,-0.771254,0.624700,-0.635223,-0.413744,0.187239,-98.949494,-16.203834,52.278846
07805,NaN,2.471907,-9.309328,-1.412050,-0.234497,-0.188042,-0.082484,-0.351322,0.078209,-0.787676,0.624462,-0.634762,-0.416326,0.183841,-99.159007,-16.652707,52.309710
07806,NaN,2.544688,-9.209530,-1.545308,-0.137214,-0.246696,-0.138053,-0.352774,0.083201,-0.819182,0.624250,-0.634213,-0.419032,0.180275,-99.372285,-17.127332,52.344004
07807,NaN,2.603417,-9.172614,-1.603854,-0.124491,-0.276606,-0.148615,-0.380196,0.094983,-0.840448,0.623979,-0.633721,-0.421738,0.176591,-99.598521,-17.607377,52.373849
07808,NaN,2.756586,-9.280795,-1.495277,-0.232052,-0.149515,-0.020300,-0.398376,0.127353,-0.865116,0.623729,-0.633230,-0.424474,0.172639,-99.833099,-18.111844,52.390666
07809,NaN,2.745464,-9.552981,-1.239714,-0.601283,-0.076895,0.185595,-0.399591,0.140107,-0.900810,0.623516,-0.632682,-0.427228,0.168575,-100.065818,-18.630174,52.404240
07810,NaN,2.703388,-9.281883,-0.879540,-0.894981,0.115252,-0.147281,-0.482558,0.141409,-0.962901,0.623081,-0.632225,-0.430277,0.164085,-100.351034,-19.190951,52.427796
07811,NaN,2.816601,-9.615657,-1.221352,-0.789897,-0.116519,0.249474,-0.586882,0.165686,-1.040679,0.622410,-0.631944,-0.433524,0.159093,-100.693258,-19.790594,52.447195
07812,NaN,2.715546,-10.148587,-1.590044,-0.876542,-0.564363,0.761240,-0.588133,0.228011,-1.101759,0.621896,-0.631540,-0.436797,0.153659,-101.029306,-20.438444,52.441689
07813,NaN,2.467061,-10.915227,-1.910831,-1.189866,-1.135271,1.419994,-0.713175,0.313303,-1.182137,0.621207,-0.631406,-0.440092,0.147472,-101.421654,-21.133780,52.397263
07814,NaN,2.641459,-12.015443,-1.892132,-1.667172,-1.240052,2.459574,-0.683331,0.450870,-1.267622,0.620945,-0.631039,-0.443225,0.140598,-101.773466,-21.900174,52.286619
07815,NaN,2.289003,-11.970437,-0.914665,-2.725102,-0.925538,2.065093,-0.764124,0.556683,-1.372739,0.620697,-0.630745,-0.446349,0.132921,-102.150692,-22.731724,52.128394
07816,NaN,1.744034,-12.621884,0.379226,-4.404093,-0.652348,2.131851,-0.831040,0.646625,-1.534533,0.620500,-0.630289,-0.449752,0.124256,-102.554697,-23.672432,51.943601
07817,NaN,0.473350,-13.834281,1.564800,-6.668708,-1.068008,2.370988,-0.890160,0.646838,-1.761647,0.620196,-0.629464,-0.453825,0.114783,-103.003276,-24.734718,51.794941
07818,NaN,-0.951595,-16.445286,2.153151,-9.252370,-2.261765,3.798188,-0.938290,0.577575,-2.065065,0.619686,-0.627963,-0.459072,0.104427,-103.518669,-25.964151,51.742844
07819,NaN,-2.360996,-16.938326,2.635386,-10.888311,-3.151022,3.261156,-0.982023,0.535258,-2.465182,0.619048,-0.625577,-0.465624,0.092884,-104.101883,-27.404884,51.789683
07820,NaN,-3.339018,-18.788499,1.928938,-12.147243,-4.855249,4.213022,-1.073460,0.597342,-2.849362,0.618324,-0.622457,-0.473151,0.079697,-104.758328,-29.071757,51.878611
07821,NaN,-3.820911,-18.803282,1.002947,-12.186826,-6.026285,3.762883,-1.201750,0.863904,-3.267427,0.617817,-0.618696,-0.481051,0.064091,-105.453614,-31.004011,51.892949
07822,NaN,-3.446519,-20.204867,0.514686,-12.862754,-6.647284,4.702428,-1.393157,1.299452,-3.641512,0.617666,-0.614521,-0.488655,0.045482,-106.158944,-33.213005,51.720722
07823,NaN,-2.659957,-21.790019,0.575280,-13.946135,-6.694493,5.770082,-1.677373,1.884189,-4.011140,0.617842,-0.610168,-0.495405,0.023234,-106.859005,-35.719041,51.260254
07824,NaN,-3.787468,-25.836551,0.702064,-17.660947,-8.562930,7.421023,-1.932615,2.150935,-4.317607,0.617568,-0.605490,-0.501986,-0.001422,-107.630060,-38.443509,50.705736
07825,NaN,-6.563394,-29.827403,1.164434,-22.637164,-11.122214,7.442582,-2.274983,1.915551,-4.658492,0.615209,-0.600590,-0.509966,-0.027274,-108.760284,-41.317561,50.435995
07826,NaN,-5.593784,-27.613114,-0.704634,-20.519047,-11.529043,5.683453,-2.103117,1.177677,-4.832489,0.611021,-0.594374,-0.520360,-0.050969,-110.228580,-44.146169,50.827477
07827,NaN,-1.641750,-19.755555,-3.952083,-12.187011,-9.853871,2.950326,-1.128592,0.545954,-4.698849,0.607699,-0.585297,-0.532215,-0.069828,-111.555550,-46.768661,51.782312
07828,NaN,-1.687902,-14.308222,-2.839794,-9.364603,-7.625427,-1.460145,-0.538287,0.078712,-4.178442,0.604752,-0.575687,-0.543863,-0.084098,-112.813001,-48.993303,53.065315
07829,NaN,-1.336588,-11.337256,-1.969478,-7.756561,-5.983477,-3.630510,-0.634518,-0.217655,-3.473682,0.600768,-0.568178,-0.554169,-0.095650,-114.257050,-50.763888,54.478739
07830,NaN,-1.308686,-11.646075,-1.956281,-8.137805,-6.175707,-3.746564,-0.783570,-0.265402,-2.865901,0.596383,-0.562694,-0.562631,-0.105583,-115.744429,-52.177125,55.809725
07831,NaN,4.861929,-10.305773,-6.255319,-2.780009,-6.105839,1.321068,0.015085,-0.100395,-2.426936,0.594807,-0.555851,-0.569727,-0.112450,-116.613179,-53.395168,56.912013
07832,NaN,8.694416,-6.954251,-6.631427,1.101045,-3.489115,2.618642,-0.150819,1.318676,-1.617891,0.597217,-0.550967,-0.570143,-0.121263,-116.330560,-54.549924,56.459176
07833,NaN,-2.903325,-10.601985,-2.061360,-8.043240,-6.886092,-6.211857,-0.231418,2.818489,-0.778848,0.604066,-0.547688,-0.563674,-0.131963,-114.650772,-55.643392,54.250075
07834,NaN,-9.870250,-8.533006,3.778274,-11.970538,-4.460188,-14.429629,0.962232,3.186211,0.145383,0.615705,-0.543068,-0.554164,-0.137427,-111.559194,-56.270404,51.187393
07835,NaN,-8.788582,-3.595695,3.341866,-7.685992,-2.311560,-15.888302,1.157051,2.711791,0.791933,0.626823,-0.539792,-0.544399,-0.139093,-108.474633,-56.371613,48.278203
07836,NaN,-5.333456,-3.592684,2.063588,-5.842245,-1.814036,-12.673966,0.598553,2.151213,1.362702,0.635203,-0.540143,-0.534296,-0.138888,-106.024181,-55.976903,45.743800
07837,NaN,-3.927386,-4.258241,1.287557,-5.444922,-2.085272,-10.916182,0.422283,1.563787,1.906108,0.641786,-0.542783,-0.524437,-0.135882,-104.109173,-55.150981,43.716009
07838,NaN,-3.989425,-4.382199,1.262057,-5.589170,-2.139601,-10.757777,0.301161,0.939613,2.429496,0.646678,-0.547563,-0.514929,-0.129731,-102.744091,-53.906623,42.254026
07839,NaN,-3.717143,-4.749119,1.238544,-5.754863,-2.159470,-10.160295,0.200859,0.471571,2.866332,0.650224,-0.553945,-0.505636,-0.121186,-101.814173,-52.355303,41.236246
07840,NaN,-3.525904,-5.648083,1.080273,-6.234430,-2.512175,-9.250118,0.310818,0.179602,3.315266,0.653473,-0.561192,-0.495922,-0.109994,-101.034381,-50.497638,40.469091
07841,NaN,-3.561739,-5.972166,0.952066,-6.391252,-2.724402,-8.821106,0.451931,-0.069234,3.639826,0.656451,-0.568698,-0.486104,-0.096730,-100.370689,-48.437125,39.937342
07842,NaN,-3.205557,-6.265022,0.662398,-6.207676,-2.891735,-8.063157,0.548799,-0.395938,3.963158,0.658848,-0.576665,-0.476229,-0.081128,-99.862683,-46.144830,39.676857
07843,NaN,-2.044625,-6.725149,0.192331,-5.542172,-2.879051,-6.582721,0.568862,-0.751717,4.308602,0.660276,-0.585228,-0.466401,-0.063356,-99.547321,-43.635018,39.692629
07844,NaN,-0.575111,-7.551949,-0.284180,-4.813454,-2.760982,-4.651264,0.590685,-0.910494,4.673839,0.661185,-0.594353,-0.455703,-0.043746,-99.275048,-40.889998,39.794780
07845,NaN,0.140660,-7.984236,-0.270046,-4.421381,-2.395995,-3.604771,0.797034,-0.908650,4.871276,0.662330,-0.602839,-0.444265,-0.023075,-98.880837,-38.047925,39.893953
07846,NaN,0.701984,-8.680291,0.098422,-4.380281,-1.836052,-2.513698,0.863398,-0.967189,5.094058,0.663152,-0.611250,-0.431973,-0.001239,-98.462213,-35.060596,40.026789
07847,NaN,0.748864,-9.289477,0.088187,-4.312212,-1.780188,-1.745598,0.983434,-1.017224,5.293725,0.663734,-0.619208,-0.419014,0.021584,-97.994567,-31.971517,40.201432
07848,NaN,0.307508,-9.260369,0.227325,-4.274972,-1.697860,-1.767760,1.110249,-1.097324,5.430903,0.664028,-0.626580,-0.405461,0.045450,-97.473924,-28.784587,40.437093
07849,NaN,0.913558,-9.425107,0.476276,-3.680681,-0.972235,-1.130635,1.143056,-1.124945,5.560288,0.663776,-0.633546,-0.391349,0.069770,-96.942854,-25.539324,40.709791
07850,NaN,1.776034,-10.551393,0.241937,-2.929338,-0.590851,0.462667,1.070979,-1.070341,5.723694,0.662789,-0.640576,-0.376125,0.094353,-96.425119,-22.191478,40.957693
07851,NaN,2.265949,-11.749505,-0.519526,-1.979654,-0.746741,1.974386,1.173149,-0.966322,5.912481,0.661620,-0.647057,-0.359665,0.119240,-95.823996,-18.760447,41.162723
07852,NaN,2.079758,-12.300329,-0.982913,-1.343290,-0.916514,2.592717,1.272572,-0.890214,6.093808,0.660175,-0.652981,-0.341854,0.144641,-95.142866,-15.216752,41.344517
07853,NaN,2.244489,-13.660930,-1.812011,-0.320784,-1.156950,4.095331,1.168254,-0.850783,6.296239,0.657625,-0.658932,-0.323085,0.170159,-94.516871,-11.577416,41.534765
07854,NaN,3.976114,-15.465192,-3.494143,2.518326,-0.905777,6.309663,1.107609,-0.762834,6.512893,0.654131,-0.664814,-0.302908,0.195914,-93.904450,-7.804362,41.699448
07855,NaN,7.083510,-16.741214,-5.297683,6.773379,0.364040,7.861139,1.132656,-0.642457,6.639156,0.650033,-0.670153,-0.281660,0.221402,-93.268426,-3.981276,41.832742
07856,NaN,11.858563,-17.738921,-6.771566,12.229940,3.119580,8.671556,0.963704,-0.445832,6.546444,0.645016,-0.675386,-0.259848,0.245534,-92.713116,-0.203493,41.893445
07857,NaN,16.231558,-19.692846,-8.567194,17.637170,5.462939,9.771106,0.859335,-0.289187,6.232529,0.639559,-0.680018,-0.238552,0.267642,-92.219663,3.374804,41.908575
07858,NaN,20.577977,-19.939130,-9.824039,22.662941,8.088387,8.579243,0.915888,-0.399540,5.587858,0.634441,-0.682946,-0.219418,0.287967,-91.679787,6.598807,42.030978
07859,NaN,24.774746,-19.929358,-9.347940,26.169561,11.785457,6.752802,0.690404,-0.616696,4.513715,0.629443,-0.684633,-0.204907,0.305110,-91.243319,9.196599,42.324317
07860,NaN,26.268453,-22.743760,-12.256343,30.013240,11.519957,8.184503,0.197340,-0.765741,3.268950,0.624237,-0.686093,-0.195730,0.318269,-91.054909,11.090587,42.734502
07861,NaN,32.357364,-17.310545,-12.238064,33.923109,15.265990,0.795728,0.865298,-1.169540,1.736163,0.623245,-0.683179,-0.192032,0.328566,-90.423072,12.097314,43.408824
07862,NaN,36.512253,-11.695667,-14.307775,37.441413,16.078398,-6.037011,0.669442,-1.157874,0.227229,0.624013,-0.679390,-0.193728,0.333926,-89.894558,12.236899,44.090245
07863,NaN,33.268564,-6.793473,-12.137666,32.767699,15.048637,-10.074505,-0.025475,-0.953961,-1.074926,0.624769,-0.676811,-0.200390,0.333819,-89.792795,11.622874,44.650660
07864,NaN,25.826924,-8.115451,-7.996524,24.682861,13.361311,-6.808059,-0.878603,-1.153729,-1.938089,0.623812,-0.675636,-0.212012,0.330794,-90.167087,10.514300,45.327191
07865,NaN,23.191067,-13.033984,-0.169293,17.517029,17.909622,-0.864792,-1.054824,-1.690390,-2.909255,0.623159,-0.672935,-0.228821,0.326300,-90.603196,8.857322,46.324457
07866,NaN,21.377089,-19.453155,0.155424,15.938446,17.673071,6.585956,-1.387845,-1.653454,-3.973572,0.622909,-0.669838,-0.249581,0.317821,-91.265984,6.594677,47.321494
07867,NaN,7.676858,-24.552862,1.255758,5.379551,8.632081,13.847823,-0.749619,-0.093308,-3.789203,0.626174,-0.667167,-0.263703,0.305377,-91.684153,4.429176,47.434660
07868,NaN,4.690033,-11.654308,-2.923755,5.560553,2.228984,1.609513,0.308779,-0.346309,-3.227579,0.631585,-0.661314,-0.275097,0.296791,-91.493119,2.582001,47.688842
07869,NaN,-0.401599,-5.643644,-6.360185,4.445496,-4.316526,-3.975931,-0.694031,-0.983005,-3.250974,0.632654,-0.657473,-0.289937,0.288816,-91.872287,0.740123,48.310054
07870,NaN,9.851180,-7.562675,0.257769,6.085658,7.744526,-2.244433,-0.938903,-1.237333,-3.025174,0.632039,-0.654166,-0.305163,0.281904,-92.414041,-0.969844,49.087525
07871,NaN,7.482412,-10.147863,-1.104609,5.186046,4.990207,0.597804,-0.346035,-0.085241,-2.743893,0.634570,-0.650888,-0.314864,0.272996,-92.615509,-2.534809,49.208606
07872,NaN,3.900861,-7.916526,1.219957,1.041674,3.670877,-1.762054,-0.566845,-0.257882,-2.155325,0.635210,-0.648886,-0.323511,0.266073,-92.954191,-3.766618,49.420994
07873,NaN,2.750543,-11.943411,-0.816385,1.319127,1.295776,2.330325,-0.583802,-0.333030,-1.937598,0.635307,-0.647128,-0.331614,0.260081,-93.307374,-4.861155,49.676089
07874,NaN,4.012906,-10.639333,-1.387897,2.507156,1.810917,1.217125,-0.420079,-0.365458,-1.627043,0.635424,-0.645250,-0.338635,0.255373,-93.575300,-5.784948,49.946813
07875,NaN,3.687509,-10.361706,-0.043907,1.155344,2.360706,0.866943,-0.517395,-0.220680,-1.418479,0.635159,-0.644191,-0.344562,0.250734,-93.890991,-6.584139,50.130147
07876,NaN,3.076795,-10.321988,-0.999558,1.357553,1.216409,0.849624,-0.573655,-0.205820,-1.190598,0.634424,-0.643672,-0.349827,0.246604,-94.242530,-7.262335,50.302077
07877,NaN,2.525397,-10.118460,-0.629979,0.628492,0.997675,0.568354,-0.588346,-0.205772,-1.066910,0.633459,-0.643407,-0.354631,0.242887,-94.601395,-7.859101,50.471364
07878,NaN,2.761292,-10.373123,-1.163264,1.024044,0.787460,0.906901,-0.662056,-0.188410,-0.914707,0.632085,-0.643625,-0.359033,0.239399,-95.005146,-8.378526,50.629103
07879,NaN,3.273771,-10.191525,-1.221040,1.306357,1.127722,0.821990,-0.593797,-0.063837,-0.827925,0.631027,-0.643931,-0.362604,0.235958,-95.357329,-8.843991,50.712395
07880,NaN,3.159009,-9.966709,-1.088497,1.070533,1.113579,0.585032,-0.577306,0.054890,-0.740138,0.630123,-0.644450,-0.365555,0.232376,-95.692541,-9.275442,50.726827
07881,NaN,2.613290,-10.152689,-1.524812,0.938904,0.383276,0.732565,-0.526832,0.142694,-0.651915,0.629423,-0.645079,-0.367814,0.228936,-95.987169,-9.651646,50.685989
07882,NaN,2.169704,-10.126747,-1.554047,0.606540,0.005127,0.642227,-0.467857,0.178584,-0.610502,0.628925,-0.645610,-0.369819,0.225555,-96.247034,-10.016762,50.625375
07883,NaN,1.821890,-9.968907,-1.564499,0.353914,-0.279082,0.431454,-0.412050,0.173809,-0.602796,0.628577,-0.645984,-0.371679,0.222374,-96.472238,-10.367322,50.566748
07884,NaN,1.508103,-9.814534,-1.550304,0.107608,-0.522884,0.223122,-0.380535,0.139465,-0.596732,0.628255,-0.646204,-0.373653,0.219317,-96.685832,-10.722481,50.530675
07885,NaN,1.651851,-9.890784,-1.693645,0.221415,-0.536237,0.340520,-0.383241,0.122231,-0.611093,0.627896,-0.646397,-0.375661,0.216324,-96.900062,-11.074693,50.505070
07886,NaN,1.909771,-9.599895,-1.615071,0.316660,-0.296405,0.098170,-0.356206,0.145851,-0.624215,0.627677,-0.646479,-0.377667,0.213201,-97.099445,-11.446079,50.469776
07887,NaN,2.114818,-9.389901,-1.572779,0.394764,-0.128313,-0.068787,-0.321187,0.198467,-0.646330,0.627684,-0.646475,-0.379471,0.209962,-97.269877,-11.823947,50.404896
07888,NaN,1.614676,-9.492271,-1.336441,-0.183052,-0.391849,-0.101407,-0.341540,0.217979,-0.661552,0.627670,-0.646499,-0.381345,0.206510,-97.452723,-12.222013,50.332769
07889,NaN,0.926591,-9.820572,-1.113426,-0.924972,-0.820113,0.036842,-0.386246,0.173414,-0.702890,0.627458,-0.646546,-0.383467,0.203045,-97.664132,-12.630525,50.289160
07890,NaN,1.292795,-10.402499,-1.261428,-0.806898,-0.723311,0.689671,-0.399206,0.107057,-0.766528,0.627132,-0.646414,-0.386072,0.199506,-97.895760,-13.079910,50.292658
07891,NaN,1.874265,-9.822614,-0.947031,-0.616537,-0.069682,0.212671,-0.369893,0.087067,-0.832305,0.626913,-0.646050,-0.388853,0.195938,-98.111896,-13.555279,50.313113
07892,NaN,2.032879,-9.607933,-0.721979,-0.716174,0.175940,0.006761,-0.449154,0.085426,-0.882327,0.626471,-0.645802,-0.391931,0.192000,-98.378354,-14.068336,50.342737
07893,NaN,2.162209,-9.722533,-0.669871,-0.796547,0.255926,0.134706,-0.452578,0.079231,-0.944064,0.626049,-0.645439,-0.395159,0.187937,-98.646877,-14.606172,50.382004
07894,NaN,2.331653,-9.707136,-0.613498,-0.828286,0.375364,0.147909,-0.477018,0.074715,-1.014917,0.625587,-0.644970,-0.398701,0.183554,-98.935720,-15.192968,50.435032
07895,NaN,2.238208,-9.606616,-0.874241,-0.770073,0.097256,0.059359,-0.539494,0.069424,-1.076068,0.624948,-0.644568,-0.402441,0.178925,-99.261249,-15.804180,50.498385
07896,NaN,2.349871,-9.919755,-1.255083,-0.631036,-0.152813,0.437956,-0.601615,0.057746,-1.123609,0.624104,-0.644207,-0.406469,0.173995,-99.630154,-16.450087,50.579218
07897,NaN,2.349797,-9.851468,-1.569474,-0.501487,-0.405033,0.415664,-0.564176,0.080461,-1.180214,0.623449,-0.643630,-0.410500,0.168942,-99.974760,-17.120379,50.654925
07898,NaN,2.443759,-10.429907,-2.097826,-0.374221,-0.812452,1.066363,-0.608988,0.141856,-1.248833,0.622807,-0.643051,-0.414637,0.163320,-100.341366,-17.844258,50.708188
07899,NaN,2.269940,-11.341082,-2.306432,-0.774410,-1.258944,1.887961,-0.609335,0.252838,-1.336686,0.622432,-0.642371,-0.418632,0.157116,-100.690009,-18.619767,50.708269
07900,NaN,2.334894,-12.067310,-2.008924,-1.363548,-1.185668,2.509623,-0.658139,0.326582,-1.378691,0.622051,-0.641753,-0.422602,0.150377,-101.058358,-19.435769,50.676391
07901,NaN,2.650436,-12.089001,-0.900424,-2.155424,-0.297776,2.403759,-0.751121,0.414750,-1.468710,0.621585,-0.641280,-0.426573,0.142925,-101.464349,-20.303514,50.606170
07902,NaN,2.087617,-12.479978,0.594997,-3.889210,0.164971,2.241562,-0.792698,0.509994,-1.599763,0.621233,-0.640651,-0.430717,0.134606,-101.883475,-21.264879,50.503290
07903,NaN,0.898844,-14.248303,1.367801,-6.030977,-0.508811,3.189432,-0.853228,0.508349,-1.788743,0.620752,-0.639764,-0.435418,0.125616,-102.345023,-22.324047,50.431058
07904,NaN,-0.315270,-14.884355,1.880475,-7.605056,-1.227700,3.064685,-0.861291,0.445456,-2.047888,0.620202,-0.638200,-0.441145,0.115941,-102.844013,-23.528819,50.442979
07905,NaN,-1.078488,-15.526927,2.013935,-8.687665,-1.903874,3.117568,-0.974244,0.375301,-2.347200,0.619217,-0.636216,-0.447998,0.105346,-103.446235,-24.883273,50.551517
07906,NaN,-1.847506,-17.099512,1.322157,-9.673424,-3.341998,4.072211,-1.056930,0.433496,-2.669004,0.618157,-0.633654,-0.455692,0.093321,-104.112837,-26.430555,50.692124
07907,NaN,-2.518442,-18.151278,0.333292,-10.259373,-4.869796,4.572124,-1.209715,0.643250,-3.024207,0.617103,-0.630724,-0.463786,0.079206,-104.846223,-28.196293,50.780867
07908,NaN,-2.732892,-20.516862,-0.243725,-11.631262,-6.087607,6.189697,-1.387568,1.098726,-3.334775,0.616480,-0.627581,-0.471405,0.062226,-105.583245,-30.206555,50.662995
07909,NaN,-3.247987,-21.571696,0.053967,-13.234884,-6.649609,6.201233,-1.560407,1.774706,-3.638334,0.616741,-0.624230,-0.477725,0.041791,-106.230669,-32.485854,50.189752
07910,NaN,-4.391588,-22.736157,1.178824,-15.851484,-7.001454,5.589668,-1.675342,2.412912,-3.955963,0.617911,-0.620255,-0.482849,0.018067,-106.734557,-35.050876,49.371487
07911,NaN,-4.289725,-23.703869,1.046595,-16.955986,-7.429004,5.633009,-1.574820,2.576499,-4.312679,0.619412,-0.614738,-0.488239,-0.007014,-107.126594,-37.840480,48.513342
07912,NaN,-5.348419,-26.715727,1.995827,-20.640928,-8.245288,6.066154,-1.687376,2.026725,-4.571637,0.618799,-0.608521,-0.495780,-0.031482,-107.830191,-40.684377,48.100425
07913,NaN,-5.411493,-24.336882,1.284139,-19.458193,-8.367431,3.395096,-1.995031,1.319102,-4.661795,0.615043,-0.602735,-0.505399,-0.054812,-109.091281,-43.452952,48.276950
07914,NaN,-2.051471,-18.377450,-2.255548,-12.443569,-7.918282,1.563396,-1.655827,0.636911,-4.584064,0.610231,-0.595902,-0.516627,-0.074941,-110.580325,-46.041105,49.047813
07915,NaN,-1.716030,-14.757661,-2.604469,-9.974752,-7.190967,-1.079004,-1.122471,0.256410,-4.095762,0.605866,-0.588532,-0.527511,-0.091045,-111.996386,-48.276712,50.102301
07916,NaN,-1.606529,-12.298106,-2.023040,-8.689983,-6.107722,-3.098406,-0.533910,-0.022000,-3.439360,0.602601,-0.580978,-0.537396,-0.102675,-113.187960,-50.083055,51.285992
07917,NaN,-1.338874,-10.530959,-2.492546,-7.151950,-5.947081,-4.122240,-0.296285,-0.325523,-2.825386,0.599344,-0.574403,-0.546379,-0.110991,-114.368452,-51.484889,52.591078
07918,NaN,0.716767,-10.168148,-3.833651,-5.497034,-6.014099,-2.587012,-0.133209,-0.335534,-2.453230,0.596661,-0.568228,-0.554329,-0.117608,-115.422474,-52.669388,53.843867
07919,NaN,9.680729,-6.259440,-7.138191,2.348242,-3.153704,3.163732,0.710250,0.138636,-1.952679,0.597873,-0.560602,-0.559852,-0.121816,-115.564837,-53.708956,54.530592
07920,NaN,5.644326,-5.747326,-6.470970,0.908696,-4.549170,-0.580158,-0.173620,1.638499,-1.081837,0.601308,-0.557059,-0.557867,-0.129994,-114.847481,-54.659384,53.536305
07921,NaN,-4.926229,-8.603188,0.751943,-8.811102,-4.595901,-9.514807,0.154434,2.926243,-0.219456,0.609682,-0.554039,-0.549723,-0.138322,-112.637108,-55.445253,50.948446
07922,NaN,-9.636880,-5.771581,3.403913,-9.760311,-3.350755,-15.404699,1.291711,2.696958,0.711598,0.621116,-0.550125,-0.540369,-0.139922,-109.578770,-55.610104,48.149041
07923,NaN,-7.223871,-2.398587,2.032473,-5.677232,-2.146794,-14.835240,1.049744,2.115010,1.199255,0.630493,-0.548595,-0.531192,-0.139130,-106.993992,-55.333591,45.742432
07924,NaN,-4.131224,-3.689731,1.410266,-5.190724,-1.804057,-11.384461,0.609881,1.616163,1.677917,0.637605,-0.549968,-0.521884,-0.136500,-104.991643,-54.651951,43.736802
07925,NaN,-3.173074,-4.294961,1.242022,-5.187128,-1.747767,-10.121318,0.633741,1.044228,2.199376,0.643513,-0.552947,-0.512902,-0.130658,-103.402563,-53.572848,42.224321
07926,NaN,-2.910572,-3.634804,1.123574,-4.538909,-1.494270,-10.143862,0.384129,0.455297,2.673354,0.647453,-0.558224,-0.504247,-0.122170,-102.392519,-52.124678,41.245624
07927,NaN,-2.416220,-5.266976,0.162055,-4.982024,-2.654505,-8.495209,0.313076,0.023829,3.095302,0.650190,-0.564947,-0.495664,-0.111374,-101.737226,-50.389204,40.636192
07928,NaN,-2.284374,-5.896883,0.060808,-5.259249,-2.872369,-7.792555,0.708947,-0.090359,3.457130,0.653806,-0.571222,-0.486454,-0.098009,-100.932982,-48.422873,40.114726
07929,NaN,-2.486950,-6.130806,0.101716,-5.467997,-2.975417,-7.571140,0.710855,-0.183101,3.781889,0.657113,-0.578094,-0.476513,-0.083338,-100.208525,-46.269598,39.684314
07930,NaN,-1.951060,-7.202444,-0.332273,-5.546302,-3.399868,-6.143434,0.765421,-0.386276,4.125614,0.659990,-0.585489,-0.466008,-0.066723,-99.578443,-43.888097,39.417038
07931,NaN,-0.768252,-7.488500,-0.833253,-4.621341,-3.288154,-4.794377,0.826140,-0.502616,4.464468,0.662545,-0.593192,-0.454755,-0.048539,-98.988962,-41.313327,39.246377
07932,NaN,0.505840,-7.776384,-1.090521,-3.669815,-2.863039,-3.469120,0.821002,-0.453948,4.706762,0.664908,-0.601159,-0.442298,-0.029612,-98.389744,-38.592567,39.049709
07933,NaN,1.212069,-8.410625,-1.044900,-3.318682,-2.503481,-2.329183,1.049206,-0.346027,4.936919,0.667805,-0.608458,-0.428626,-0.009792,-97.639915,-35.760108,38.804786
07934,NaN,0.961124,-8.262296,-0.500936,-3.353034,-1.986531,-2.448221,1.123020,-0.284794,5.083511,0.670638,-0.615452,-0.413947,0.010570,-96.853410,-32.833960,38.555831
07935,NaN,0.710086,-8.634334,-0.050606,-3.595466,-1.672945,-2.111107,1.076215,-0.339089,5.267275,0.672716,-0.622511,-0.398671,0.031536,-96.147492,-29.809724,38.385383
07936,NaN,0.768628,-9.338134,0.167321,-3.597735,-1.430079,-1.279914,1.127971,-0.435083,5.446871,0.674240,-0.629301,-0.382768,0.053562,-95.461886,-26.663044,38.308759
07937,NaN,1.275362,-9.712177,0.335502,-3.043606,-0.870012,-0.538028,1.124949,-0.494417,5.596217,0.675048,-0.635833,-0.366371,0.076151,-94.815740,-23.440522,38.306595
07938,NaN,1.775970,-10.346938,-0.031397,-2.193533,-0.734352,0.426058,1.053069,-0.568749,5.771066,0.674862,-0.642387,-0.349299,0.099451,-94.234576,-20.101541,38.375885
07939,NaN,1.843242,-10.682412,-0.537300,-1.399534,-0.850398,0.914968,0.996975,-0.667012,5.933236,0.673629,-0.648762,-0.331839,0.123346,-93.712176,-16.680154,38.532728
07940,NaN,1.583852,-11.737878,-1.118898,-0.920391,-1.254046,1.980248,0.911480,-0.751830,6.085173,0.671256,-0.655035,-0.313822,0.147850,-93.244425,-13.156758,38.759532
07941,NaN,1.881241,-13.326893,-1.956504,0.167272,-1.477688,3.703945,0.953381,-0.895065,6.215563,0.668030,-0.660596,-0.295609,0.173101,-92.763572,-9.569984,39.094774
07942,NaN,3.474076,-14.925100,-3.045364,2.608268,-0.937331,5.560445,0.864109,-1.133525,6.390924,0.663309,-0.665834,-0.277289,0.199491,-92.330311,-5.865864,39.586467
07943,NaN,6.816242,-16.377790,-4.663328,6.923027,0.517925,7.161419,0.691746,-1.313886,6.457717,0.656975,-0.670815,-0.259307,0.226168,-91.976455,-2.136671,40.204384
07944,NaN,12.254034,-17.694045,-6.457594,13.063765,3.423414,8.142412,0.442079,-1.256154,6.314639,0.649330,-0.675785,-0.241531,0.251690,-91.722299,1.519113,40.808689
07945,NaN,16.272179,-19.188971,-8.415797,18.239889,5.469102,8.653713,0.375411,-1.260738,5.934585,0.641297,-0.679830,-0.224988,0.275591,-91.471022,4.941679,41.440236
07946,NaN,20.622904,-19.917208,-9.386189,22.908334,8.513741,7.867930,0.420281,-1.422080,5.193744,0.633715,-0.682117,-0.211159,0.297548,-91.142181,7.949244,42.194079
07947,NaN,26.153468,-20.172968,-9.530474,27.612241,12.866388,6.112811,0.550324,-1.352093,4.034613,0.628004,-0.682458,-0.200813,0.315494,-90.707491,10.276561,42.944125
07948,NaN,28.444204,-16.674794,-11.016158,30.163924,13.371217,1.129019,1.040727,-0.969566,2.917708,0.625876,-0.680497,-0.192186,0.329041,-90.001337,11.961431,43.502706
07949,NaN,24.118805,-13.363200,-13.728930,28.621635,8.302533,-2.027278,0.608939,-0.727524,1.801340,0.624240,-0.679083,-0.187319,0.337761,-89.558036,12.995269,43.937189
07950,NaN,26.677138,-12.873565,-14.933736,31.206340,9.329271,-3.525280,0.423784,-0.924845,0.681902,0.623630,-0.676823,-0.187157,0.343467,-89.189154,13.385318,44.489021
07951,NaN,30.383832,-8.050169,-11.323935,30.369541,13.908609,-9.139648,0.410035,-0.617487,-0.391390,0.625094,-0.674104,-0.189698,0.344756,-88.870349,13.158416,44.852127
07952,NaN,27.733769,-5.487541,-7.491143,25.328597,14.595345,-10.714355,-0.294000,-0.555389,-1.442159,0.626024,-0.672679,-0.196816,0.341849,-88.971647,12.326733,45.165681
07953,NaN,20.866729,-6.711603,-1.734615,16.607669,14.222734,-7.499536,-0.904181,-0.753875,-2.151719,0.625859,-0.672045,-0.207941,0.336774,-89.402610,11.091200,45.592410
07954,NaN,7.969097,-13.350222,9.890159,0.104986,14.170993,1.964445,-0.884523,-0.805007,-2.785495,0.626654,-0.670483,-0.221332,0.329802,-89.829872,9.488838,46.053954
07955,NaN,-4.700141,-26.650576,3.432999,-2.881485,1.868369,17.247967,-0.307766,-0.955582,-2.932607,0.629312,-0.666540,-0.234636,0.323476,-89.922449,7.810745,46.607520
07956,NaN,3.669290,-31.651778,-1.341701,5.981536,4.672903,21.161470,-1.344348,-2.007294,-2.847576,0.626964,-0.664058,-0.252624,0.319569,-90.552352,6.179993,47.776967
07957,NaN,18.451035,-16.756225,-6.398957,17.875903,10.719333,5.274955,-0.070409,-2.119171,-3.611797,0.629673,-0.656181,-0.271313,0.315164,-90.480705,4.124931,49.018094
07958,NaN,6.316120,-5.893106,-3.237962,6.736420,2.951150,-4.243963,0.029697,-1.211287,-3.575056,0.633637,-0.649201,-0.286825,0.307851,-90.427855,2.076199,49.733636
07959,NaN,1.159315,-2.218443,1.162457,-0.128519,1.685466,-7.631182,-0.381753,-0.723454,-2.862646,0.635682,-0.645117,-0.298963,0.300588,-90.636564,0.443335,50.166827
07960,NaN,9.348221,-4.329409,-1.550646,7.098245,6.220291,-5.402152,-0.965077,-0.274226,-2.739266,0.636196,-0.643597,-0.310158,0.291273,-91.193768,-1.129823,50.353528
07961,NaN,6.101820,-9.580283,-2.790434,5.657935,2.848572,0.019263,-0.953873,-0.118226,-2.227223,0.636125,-0.642956,-0.319066,0.283107,-91.743005,-2.400316,50.457310
07962,NaN,3.361398,-12.301190,0.248413,1.219769,2.517830,2.631061,-0.638959,0.081142,-1.982977,0.636960,-0.641890,-0.326146,0.275478,-92.112301,-3.544838,50.453846
07963,NaN,2.684916,-11.002734,-0.897693,1.569751,1.172921,1.378006,-0.484391,-0.024691,-1.685051,0.637647,-0.640625,-0.332286,0.269430,-92.393228,-4.505501,50.509339
07964,NaN,3.386546,-10.343901,-0.743280,1.794845,1.735711,0.807144,-0.539096,0.024752,-1.484800,0.637928,-0.639874,-0.337756,0.263685,-92.707865,-5.363711,50.538046
07965,NaN,2.149760,-10.003040,-0.213080,0.500391,1.065730,0.352930,-0.597956,-0.068066,-1.273156,0.637548,-0.639525,-0.342825,0.258864,-93.057870,-6.086758,50.617310
07966,NaN,1.421940,-10.330432,-1.066652,0.526661,-0.104484,0.655718,-0.737854,-0.182967,-1.138475,0.636320,-0.639657,-0.348074,0.254520,-93.500398,-6.739846,50.765193
07967,NaN,2.076088,-10.520466,-0.366945,0.242035,0.796988,0.884491,-0.716355,-0.213858,-1.062590,0.634980,-0.639801,-0.353056,0.250610,-93.930691,-7.335865,50.931352
07968,NaN,2.759184,-10.746566,-0.778526,0.823697,1.014939,1.232578,-0.660416,-0.212303,-0.949889,0.633658,-0.639927,-0.357667,0.247073,-94.334454,-7.877725,51.098382
07969,NaN,3.141545,-10.045728,-1.243117,1.406238,1.026924,0.641893,-0.557402,-0.105319,-0.852983,0.632717,-0.640030,-0.361413,0.243747,-94.667810,-8.356583,51.201054
07970,NaN,2.786347,-9.577276,-1.273760,1.186084,0.734613,0.145389,-0.505401,-0.008029,-0.740380,0.631966,-0.640257,-0.364497,0.240483,-94.967484,-8.786811,51.246836
07971,NaN,2.344554,-9.736349,-1.752630,1.174600,0.055249,0.285919,-0.442962,0.082021,-0.656476,0.631467,-0.640555,-0.366868,0.237376,-95.219143,-9.161976,51.236386
07972,NaN,2.102462,-9.896950,-1.859238,1.005107,-0.237656,0.422523,-0.378130,0.151398,-0.626298,0.631257,-0.640757,-0.368920,0.234185,-95.431224,-9.535291,51.187774
07973,NaN,1.831138,-9.954239,-1.393116,0.401721,-0.182471,0.394446,-0.367388,0.187615,-0.620256,0.631133,-0.640989,-0.370742,0.230987,-95.629282,-9.895699,51.117079
07974,NaN,1.747615,-9.807557,-1.351114,0.276447,-0.237796,0.233927,-0.363369,0.131486,-0.602889,0.630889,-0.641148,-0.372754,0.227954,-95.834557,-10.254853,51.081194
07975,NaN,1.857012,-9.512787,-1.416593,0.387125,-0.200219,-0.027084,-0.325760,0.105764,-0.591356,0.630697,-0.641192,-0.374684,0.225181,-96.016598,-10.594422,51.058566
07976,NaN,1.823473,-9.306416,-1.192462,0.173303,-0.092067,-0.256667,-0.367927,0.084105,-0.590295,0.630319,-0.641320,-0.376800,0.222326,-96.229492,-10.943687,51.051753
07977,NaN,1.864013,-9.708173,-1.197647,0.056611,-0.120647,0.144186,-0.359568,0.104090,-0.624379,0.630037,-0.641390,-0.378870,0.219385,-96.431693,-11.302104,51.034617
07978,NaN,1.717424,-9.767527,-1.017190,-0.250025,-0.152022,0.152389,-0.304679,0.102784,-0.655851,0.629953,-0.641198,-0.381057,0.216378,-96.607416,-11.689882,51.023711
07979,NaN,1.601703,-9.875800,-0.848242,-0.538703,-0.173726,0.212058,-0.316233,0.069330,-0.694814,0.629804,-0.640943,-0.383405,0.213402,-96.790194,-12.086157,51.033907
07980,NaN,1.763507,-9.781141,-0.735842,-0.574739,-0.006083,0.136747,-0.327281,0.029076,-0.740882,0.629579,-0.640561,-0.386108,0.210315,-96.989583,-12.517175,51.074377
07981,NaN,2.038808,-9.718449,-0.730514,-0.469868,0.176515,0.131461,-0.374989,0.030533,-0.773880,0.629230,-0.640276,-0.388880,0.207094,-97.213063,-12.955577,51.115816
07982,NaN,1.879939,-9.766227,-0.772465,-0.629757,-0.011017,0.142846,-0.453959,0.048817,-0.807486,0.628684,-0.640160,-0.391851,0.203481,-97.484873,-13.425455,51.153397
07983,NaN,1.904069,-10.123818,-0.703944,-0.844213,-0.018275,0.478028,-0.488636,0.064495,-0.857705,0.628096,-0.640076,-0.394885,0.199658,-97.772003,-13.913653,51.185856
07984,NaN,1.998253,-10.259726,-0.981499,-0.710932,-0.182484,0.660068,-0.456982,0.090884,-0.936664,0.627722,-0.639726,-0.398120,0.195489,-98.043761,-14.459647,51.214107
07985,NaN,1.966282,-10.212699,-1.255450,-0.613980,-0.427810,0.636260,-0.474373,0.118941,-1.013487,0.627408,-0.639307,-0.401444,0.191020,-98.319808,-15.040304,51.232801
07986,NaN,2.137962,-10.141372,-1.477434,-0.433318,-0.490213,0.635842,-0.477048,0.138873,-1.079132,0.627164,-0.638740,-0.404977,0.186200,-98.600807,-15.670636,51.250834
07987,NaN,2.331054,-10.001558,-1.518306,-0.360899,-0.412225,0.554019,-0.568329,0.155673,-1.134560,0.626693,-0.638361,-0.408632,0.181029,-98.929874,-16.322846,51.265150
07988,NaN,2.636634,-10.906381,-1.689240,-0.446860,-0.464107,1.515927,-0.611240,0.226346,-1.182172,0.626242,-0.638033,-0.412308,0.175320,-99.278198,-17.019024,51.248712
07989,NaN,2.525750,-11.733698,-1.551002,-1.012213,-0.629017,2.230654,-0.611752,0.337829,-1.244886,0.626048,-0.637666,-0.415747,0.169118,-99.605933,-17.750502,51.174189
07990,NaN,2.401568,-12.221517,-0.864094,-1.905174,-0.411543,2.519296,-0.659199,0.415309,-1.320838,0.625889,-0.637298,-0.419269,0.162256,-99.953271,-18.543329,51.068082
07991,NaN,2.360871,-11.857736,0.199211,-2.754426,0.233119,1.959099,-0.781003,0.443283,-1.462245,0.625479,-0.637018,-0.423159,0.154663,-100.366050,-19.408883,50.962908
07992,NaN,1.722446,-13.230359,0.941457,-4.332225,-0.017033,2.841283,-0.749318,0.440236,-1.557974,0.625186,-0.636361,-0.427370,0.146771,-100.769049,-20.338934,50.878647
07993,NaN,0.357116,-13.185958,1.841247,-5.974842,-0.494369,2.080105,-0.807616,0.413435,-1.849089,0.624810,-0.635210,-0.432530,0.137981,-101.220689,-21.420160,50.848926
07994,NaN,-0.372405,-14.579229,1.825904,-7.155899,-1.361544,2.952761,-0.883875,0.262039,-2.119382,0.623975,-0.633506,-0.439081,0.128586,-101.769097,-22.645656,50.956370
07995,NaN,-1.101654,-15.118496,1.450802,-7.804191,-2.367444,3.046722,-0.937739,0.182737,-2.414610,0.622892,-0.631201,-0.446724,0.118443,-102.387736,-24.016401,51.162995
07996,NaN,-1.527412,-16.796919,-0.251534,-7.877806,-4.297698,4.469561,-1.044489,0.262039,-2.708691,0.621706,-0.628473,-0.455075,0.106820,-103.079566,-25.567785,51.383269
07997,NaN,-1.906593,-17.915016,-1.180515,-8.339184,-5.614997,5.183199,-1.229007,0.540334,-3.028254,0.620592,-0.625613,-0.463505,0.092937,-103.835628,-27.323181,51.500799
07998,NaN,-2.657602,-20.522937,-1.538005,-10.228773,-7.138423,6.769978,-1.413983,1.080687,-3.326076,0.620096,-0.622668,-0.471168,0.075938,-104.577014,-29.325490,51.354676
07999,NaN,-3.947622,-23.074840,-0.322334,-13.638181,-7.949294,7.475080,-1.565080,1.793869,-3.668229,0.620681,-0.619421,-0.477507,0.055315,-105.208145,-31.616655,50.831797
08000,NaN,-5.439799,-26.473019,1.784110,-18.341011,-8.402349,8.256250,-1.694335,2.336822,-3.948200,0.621909,-0.615705,-0.482833,0.031773,-105.736805,-34.154752,50.017773
08001,NaN,-6.486488,-27.001459,1.053734,-19.540006,-9.882305,7.293973,-1.918252,2.429049,-4.320478,0.622322,-0.611419,-0.488715,0.006260,-106.370874,-36.914375,49.218414
08002,NaN,-4.504464,-25.986566,0.930394,-18.679570,-8.674011,6.683914,-2.051929,1.935578,-4.655317,0.620692,-0.606221,-0.496864,-0.019073,-107.318885,-39.786116,48.863138
08003,NaN,-1.623943,-20.865109,1.477286,-15.085340,-5.405271,3.726120,-1.888400,1.503703,-4.596919,0.618045,-0.600328,-0.505784,-0.042541,-108.391567,-42.552973,48.849483
08004,NaN,-1.004590,-16.250868,-3.499836,-9.426109,-7.911134,1.406203,-1.103817,0.936003,-4.306698,0.616031,-0.592461,-0.515493,-0.061339,-109.300607,-45.056321,49.261563
08005,NaN,-1.525573,-12.901458,-2.723447,-8.165416,-6.813803,-1.871304,-0.839871,0.356582,-4.036784,0.613082,-0.584422,-0.525986,-0.076942,-110.401733,-47.296893,50.121238
08006,NaN,-1.305502,-10.577112,-2.531862,-6.747209,-5.987497,-3.599489,-0.639630,0.057682,-3.375969,0.609986,-0.577372,-0.535382,-0.089020,-111.505671,-49.108158,51.122747
08007,NaN,-1.721992,-9.018699,-1.398384,-6.543708,-4.894279,-5.399298,-0.613706,-0.106739,-2.785425,0.606617,-0.571792,-0.543422,-0.098803,-112.636740,-50.559804,52.143266
08008,NaN,2.481216,-8.466766,-3.769944,-3.310611,-4.595224,-2.068309,-0.055645,-0.209310,-2.367228,0.604690,-0.565574,-0.550785,-0.105412,-113.462489,-51.752641,53.174882
08009,NaN,9.847910,-4.328287,-6.258497,3.786784,-1.699077,1.919878,0.420706,1.111127,-1.631204,0.608038,-0.559212,-0.552234,-0.112285,-112.942540,-52.858049,52.823084
08010,NaN,-0.685026,-5.919235,-4.353282,-2.378861,-5.922546,-6.108653,-0.314868,2.677618,-0.744786,0.614086,-0.556542,-0.545973,-0.122776,-111.428685,-53.823990,50.723101
08011,NaN,-10.855841,-7.084483,2.635329,-10.918747,-5.130453,-15.237909,0.415026,3.402615,0.153952,0.624523,-0.553535,-0.535274,-0.130583,-108.619258,-54.404536,47.549956
08012,NaN,-10.400889,-3.886027,3.633085,-9.016062,-2.712523,-16.728151,1.081952,2.768372,0.952570,0.635474,-0.550872,-0.524608,-0.132286,-105.658689,-54.340364,44.671997
08013,NaN,-6.316985,-2.822934,2.403240,-6.028249,-1.534529,-13.679392,0.761652,2.209457,1.415669,0.644235,-0.550669,-0.514147,-0.131826,-103.251543,-53.866723,42.240012
08014,NaN,-4.210206,-4.225724,1.503266,-5.747483,-1.889592,-10.924660,0.527111,1.650447,1.924066,0.651148,-0.552828,-0.503803,-0.128728,-101.386862,-52.980266,40.295688
08015,NaN,-4.243387,-4.838624,0.943674,-5.954694,-2.555685,-10.375604,0.425277,1.024229,2.435950,0.656404,-0.556887,-0.493967,-0.122508,-100.062215,-51.714134,38.931113
08016,NaN,-4.007588,-5.466475,0.727865,-6.193248,-2.840575,-9.602031,0.351931,0.491330,2.884101,0.660298,-0.562539,-0.484445,-0.113443,-99.178452,-50.119951,38.053918
08017,NaN,-3.516876,-5.953044,0.520230,-6.164845,-2.965928,-8.685087,0.319927,0.107176,3.242913,0.663200,-0.569217,-0.475091,-0.102210,-98.594993,-48.289824,37.526113
08018,NaN,-3.018636,-6.861502,0.255160,-6.326603,-3.259934,-7.446632,0.450604,-0.144046,3.605190,0.665878,-0.576312,-0.465412,-0.088667,-98.100158,-46.221140,37.205620
08019,NaN,-2.421801,-7.515678,0.005669,-6.190752,-3.389060,-6.272751,0.605345,-0.373672,3.931403,0.668354,-0.583509,-0.455507,-0.073037,-97.658655,-43.956730,37.072761
08020,NaN,-1.853289,-7.286759,-0.198735,-5.463544,-3.188350,-5.744944,0.664577,-0.592053,4.189844,0.670326,-0.590959,-0.445344,-0.055680,-97.299062,-41.518404,37.106130
08021,NaN,-0.664112,-8.305041,-0.937620,-4.766747,-3.483687,-3.860908,0.651723,-0.730317,4.470793,0.671685,-0.598789,-0.434650,-0.037035,-97.008925,-38.920899,37.235948
08022,NaN,0.307143,-8.672917,-0.985760,-4.066098,-3.037744,-2.705672,0.877904,-0.779652,4.697443,0.673294,-0.606062,-0.423177,-0.016903,-96.600534,-36.180629,37.393979
08023,NaN,0.869264,-8.340071,-0.548572,-3.444782,-2.158103,-2.459131,0.902285,-0.821869,4.867045,0.674478,-0.613210,-0.411141,0.003924,-96.194214,-33.353196,37.589043
08024,NaN,0.751991,-8.731748,-0.442369,-3.433098,-2.053380,-2.003385,0.841280,-0.902482,5.026334,0.674877,-0.620523,-0.398551,0.025477,-95.842707,-30.419501,37.839846
08025,NaN,0.730847,-8.790898,-0.190258,-3.254234,-1.680532,-1.786598,0.878787,-0.983503,5.167258,0.674735,-0.627516,-0.385587,0.047745,-95.488602,-27.414029,38.150014
08026,NaN,1.142692,-9.839266,-0.229293,-2.975620,-1.480950,-0.480052,0.867976,-1.043954,5.326889,0.673915,-0.634406,-0.371969,0.070757,-95.140903,-24.303711,38.498495
08027,NaN,1.734950,-10.522326,-0.455122,-2.208260,-1.184442,0.561711,0.894286,-1.009266,5.443251,0.672673,-0.640914,-0.357643,0.093972,-94.757790,-21.143052,38.834695
08028,NaN,1.971273,-10.896272,-1.018674,-1.302689,-1.246626,1.158537,0.879100,-0.982942,5.582663,0.670826,-0.647244,-0.342420,0.117544,-94.360444,-17.893514,39.161496
08029,NaN,1.872401,-11.699041,-1.668705,-0.640325,-1.581603,2.028142,0.913695,-1.020813,5.732597,0.668363,-0.653115,-0.326609,0.141626,-93.937872,-14.571666,39.524786
08030,NaN,1.971167,-12.233629,-2.212454,0.268241,-1.617195,2.665562,0.937253,-1.059528,5.873487,0.665218,-0.658549,-0.310074,0.166292,-93.486545,-11.157795,39.923862
08031,NaN,2.725671,-13.382586,-3.247772,1.955514,-1.585624,3.995644,0.802715,-1.103914,6.027893,0.660809,-0.663991,-0.293084,0.191177,-93.098328,-7.669878,40.366053
08032,NaN,4.955546,-15.306891,-4.956074,5.247278,-0.992476,6.150043,0.700167,-1.155068,6.164314,0.655202,-0.669292,-0.275537,0.216420,-92.743616,-4.092611,40.851095
08033,NaN,8.952324,-16.722700,-6.538495,10.010359,1.080555,7.537849,0.470445,-1.147109,6.126166,0.648236,-0.674620,-0.258152,0.240907,-92.493736,-0.552677,41.350865
08034,NaN,14.257504,-17.962608,-7.754900,15.583936,4.454532,8.165089,0.278914,-0.807107,5.909041,0.640705,-0.680079,-0.240308,0.263137,-92.324709,2.864545,41.672656
08035,NaN,17.472985,-18.341874,-8.554174,19.288045,6.710587,7.440514,0.373728,-0.510133,5.423638,0.633977,-0.684470,-0.222918,0.282635,-92.096433,5.984517,41.848637
08036,NaN,20.594349,-18.122279,-8.912233,22.463564,9.063971,5.841846,0.269822,-0.486407,4.557621,0.627723,-0.687832,-0.208362,0.299059,-91.915902,8.616297,42.039753
08037,NaN,24.379569,-17.444775,-9.464343,26.004746,11.497903,3.592796,0.376539,-0.394031,3.514791,0.623241,-0.689608,-0.196913,0.311829,-91.671478,10.639674,42.208032
08038,NaN,24.309926,-15.067892,-11.593900,27.411925,9.756121,0.472658,0.544491,-0.083088,2.452409,0.621137,-0.690146,-0.187818,0.320331,-91.356614,12.053717,42.221505
08039,NaN,22.384652,-13.958940,-12.646487,26.745534,7.644727,-0.753064,0.377383,-0.278877,1.439399,0.619842,-0.689852,-0.183104,0.326148,-91.107732,12.885115,42.370362
08040,NaN,28.148267,-11.174312,-9.865038,28.635284,13.116128,-5.069788,0.355154,-0.426763,0.231292,0.620271,-0.688271,-0.183046,0.328696,-90.849608,13.025657,42.621761
08041,NaN,28.203236,-8.356646,-7.795638,26.776705,14.318835,-7.812300,-0.020212,-0.516721,-0.738970,0.620924,-0.686794,-0.187220,0.328200,-90.791182,12.609953,42.935016
08042,NaN,22.873513,-6.648262,-4.889337,20.620084,12.767382,-8.054131,-0.390994,-0.721474,-1.621215,0.621520,-0.685285,-0.195692,0.325272,-90.925845,11.686391,43.375134
08043,NaN,15.696105,-8.591610,4.103032,9.356004,14.861396,-4.464530,-0.937901,-1.181279,-2.302981,0.620824,-0.683954,-0.208758,0.321254,-91.325063,10.383848,44.094364
08044,NaN,8.677380,-17.576976,11.827239,-0.512270,16.758334,5.774777,-0.911595,-1.862669,-3.008370,0.620476,-0.680539,-0.226309,0.317271,-91.663618,8.684400,45.225226
08045,NaN,6.445913,-29.240545,0.950942,5.829420,8.736632,18.241791,-1.008945,-2.133621,-3.280438,0.619693,-0.676429,-0.245641,0.313187,-92.065805,6.849024,46.523357
08046,NaN,12.455604,-29.322178,-1.714879,10.932817,10.883555,18.112088,-0.701943,-1.637971,-3.284603,0.620333,-0.671878,-0.262942,0.307617,-92.365471,4.999012,47.543242
08047,NaN,8.228749,-11.215279,-4.916440,9.365782,3.664819,0.980883,0.590722,-1.017698,-3.583788,0.626368,-0.663646,-0.277179,0.300682,-91.980203,2.972709,48.208623
08048,NaN,-3.752782,-0.699181,-0.665913,-1.984961,-3.215292,-8.954643,-0.294735,-1.086158,-3.131438,0.628496,-0.658492,-0.291452,0.294002,-92.127317,1.194375,48.899620
08049,NaN,9.533047,-1.835485,0.064954,6.129227,7.318881,-8.048707,-1.126802,-0.920157,-2.804523,0.627475,-0.656509,-0.305195,0.286580,-92.768234,-0.385014,49.498230
08050,NaN,8.928211,-8.096688,-5.114757,9.241752,3.643496,-1.284209,-1.005720,-0.188456,-2.481599,0.627374,-0.655535,-0.315422,0.277822,-93.351604,-1.806938,49.686523
08051,NaN,3.438694,-9.955888,-0.289489,1.691854,2.518229,0.277870,-0.906895,0.075708,-2.147181,0.627446,-0.655052,-0.323459,0.269429,-93.872307,-3.033894,49.723956
08052,NaN,3.605646,-12.382781,-0.430054,1.481862,2.443894,2.770825,-0.623421,-0.010690,-1.909052,0.627915,-0.653858,-0.330652,0.262416,-94.238843,-4.133226,49.812366
08053,NaN,3.532641,-10.935318,-1.531157,2.225798,1.575328,1.455235,-0.582188,-0.039359,-1.604786,0.628014,-0.652957,-0.336772,0.256574,-94.579639,-5.044628,49.908985
08054,NaN,2.551571,-10.376119,-0.984190,1.087126,1.107416,0.804867,-0.614597,0.022058,-1.428770,0.627846,-0.652473,-0.342230,0.250934,-94.941316,-5.870498,49.969507
08055,NaN,1.248903,-10.231087,-1.173775,0.274000,-0.067887,0.557035,-0.652204,-0.072994,-1.271673,0.627158,-0.652236,-0.347416,0.246097,-95.326498,-6.588790,50.080105
08056,NaN,2.164749,-10.358730,-0.666853,0.314206,0.903422,0.747490,-0.710344,-0.208546,-1.211364,0.625940,-0.652069,-0.352969,0.241698,-95.760503,-7.277081,50.272461
08057,NaN,2.122292,-10.482768,-0.693008,0.150258,0.812178,0.873240,-0.702981,-0.275562,-1.044183,0.624396,-0.652080,-0.358077,0.238122,-96.192303,-7.851962,50.496768
08058,NaN,2.718700,-10.465466,-1.410451,0.942029,0.777464,1.023061,-0.675125,-0.235209,-0.950430,0.622880,-0.652177,-0.362791,0.234668,-96.611356,-8.387091,50.698439
08059,NaN,3.304165,-10.094639,-1.538595,1.354706,1.133017,0.773456,-0.626587,-0.111390,-0.883282,0.621647,-0.652386,-0.366746,0.231180,-96.989028,-8.878313,50.826167
08060,NaN,3.191702,-9.786543,-1.667552,1.336392,0.949125,0.485688,-0.532878,0.060782,-0.786785,0.620908,-0.652644,-0.369819,0.227514,-97.302389,-9.339037,50.853084
08061,NaN,2.574037,-9.808304,-1.636772,0.832508,0.469508,0.414398,-0.579111,0.187821,-0.713160,0.620155,-0.653331,-0.372216,0.223653,-97.625162,-9.754386,50.801690
08062,NaN,2.102058,-10.448636,-1.627608,0.303977,0.061581,0.964362,-0.575622,0.207767,-0.683289,0.619404,-0.654051,-0.374527,0.219738,-97.948235,-10.167595,50.740965
08063,NaN,1.951497,-9.549707,-1.609782,0.306140,-0.021657,0.061616,-0.491815,0.175944,-0.686756,0.618860,-0.654477,-0.376763,0.216152,-98.221910,-10.567534,50.698708
08064,NaN,1.752122,-9.217468,-1.725861,0.264551,-0.256007,-0.279891,-0.484767,0.142202,-0.662613,0.618237,-0.654858,-0.379095,0.212677,-98.499530,-10.964119,50.678041
08065,NaN,1.798163,-9.778446,-1.912547,0.224318,-0.392299,0.301879,-0.487256,0.109522,-0.649604,0.617520,-0.655246,-0.381397,0.209425,-98.777553,-11.337680,50.674705
08066,NaN,1.917661,-10.024400,-1.798764,0.073576,-0.264293,0.547127,-0.442809,0.079494,-0.653360,0.616884,-0.655426,-0.383834,0.206257,-99.038690,-11.723563,50.693166
08067,NaN,2.052685,-9.755434,-1.953682,0.260277,-0.271904,0.338993,-0.462766,0.091775,-0.689059,0.616234,-0.655622,-0.386281,0.202980,-99.306250,-12.117834,50.707321
08068,NaN,2.136456,-9.900295,-1.941776,0.185379,-0.238845,0.495502,-0.402685,0.176167,-0.697335,0.615940,-0.655671,-0.388511,0.199431,-99.534352,-12.537381,50.677590
08069,NaN,1.697396,-9.782099,-1.699178,-0.310165,-0.438828,0.245566,-0.361525,0.204459,-0.725321,0.615856,-0.655576,-0.390614,0.195863,-99.731215,-12.962816,50.633339
08070,NaN,1.655724,-9.586685,-1.394486,-0.586834,-0.292080,-0.006555,-0.456706,0.183560,-0.738025,0.615417,-0.655695,-0.392991,0.192051,-99.990463,-13.406160,50.606578
08071,NaN,2.130676,-10.028765,-1.382584,-0.509640,0.012190,0.520115,-0.478289,0.216766,-0.776555,0.614999,-0.655845,-0.395323,0.188049,-100.253974,-13.862085,50.564075
08072,NaN,2.010998,-9.718022,-1.263517,-0.671126,-0.014108,0.168754,-0.465073,0.228671,-0.832430,0.614684,-0.655818,-0.397860,0.183775,-100.514491,-14.363380,50.525128
08073,NaN,2.077731,-9.689853,-1.355147,-0.644140,-0.061280,0.168652,-0.472606,0.233384,-0.878847,0.614384,-0.655732,-0.400452,0.179406,-100.775459,-14.879022,50.488259
08074,NaN,2.208177,-9.646392,-1.332347,-0.666061,0.014245,0.150205,-0.576043,0.225049,-0.937549,0.613760,-0.655796,-0.403421,0.174590,-101.103601,-15.439273,50.468011
08075,NaN,2.433701,-10.062469,-1.515258,-0.628940,-0.016056,0.631223,-0.482229,0.246631,-0.979297,0.613507,-0.655509,-0.406288,0.169840,-101.371909,-16.013185,50.440411
08076,NaN,2.315876,-9.975322,-1.617619,-0.712282,-0.212045,0.528171,-0.644785,0.236114,-1.049051,0.612735,-0.655524,-0.409616,0.164494,-101.742515,-16.637353,50.433095
08077,NaN,2.527603,-10.679321,-1.933129,-0.716707,-0.378740,1.301037,-0.576094,0.294448,-1.121088,0.612346,-0.655226,-0.412852,0.158950,-102.062946,-17.296680,50.401775
08078,NaN,2.227290,-11.016736,-1.865713,-1.199809,-0.648451,1.498730,-0.602062,0.356717,-1.192584,0.612025,-0.654855,-0.416208,0.152844,-102.395092,-18.015735,50.349381
08079,NaN,2.047594,-11.556400,-1.585722,-1.846651,-0.709791,1.863835,-0.657625,0.400895,-1.270012,0.611646,-0.654518,-0.419629,0.146312,-102.750362,-18.771924,50.282781
08080,NaN,1.991803,-12.593712,-1.001381,-2.845724,-0.531299,2.644754,-0.756320,0.466496,-1.375828,0.611118,-0.654243,-0.423313,0.138948,-103.159163,-19.607683,50.199424
08081,NaN,1.838407,-13.063381,0.100723,-4.075977,-0.017317,2.734182,-0.782035,0.504184,-1.508996,0.610638,-0.653769,-0.427234,0.131066,-103.578032,-20.511577,50.115743
08082,NaN,1.156354,-13.267584,1.229366,-5.551697,0.160465,2.353876,-0.840937,0.515768,-1.700033,0.610060,-0.652990,-0.431811,0.122353,-104.043154,-21.535105,50.062609
08083,NaN,0.073482,-13.981150,1.826838,-7.123293,-0.378718,2.349697,-0.821610,0.469946,-1.961895,0.609543,-0.651516,-0.437259,0.113092,-104.521063,-22.686768,50.082946
08084,NaN,-0.877741,-14.579522,1.634013,-8.061688,-1.377992,2.398097,-0.907230,0.348863,-2.207277,0.608541,-0.649582,-0.443924,0.103209,-105.100446,-23.966799,50.229450
08085,NaN,-1.677986,-15.993017,0.423889,-8.641714,-3.116964,3.391918,-0.983587,0.364960,-2.501823,0.607379,-0.647158,-0.451404,0.092258,-105.747192,-25.400074,50.429797
08086,NaN,-1.551136,-17.428436,-0.651647,-8.889736,-4.171797,4.683020,-1.104690,0.620236,-2.836765,0.606430,-0.644297,-0.459201,0.079112,-106.436683,-27.065186,50.555863
08087,NaN,-2.049387,-19.706210,-0.763293,-10.676113,-5.159731,6.076828,-1.268911,1.060987,-3.103613,0.605899,-0.641348,-0.466412,0.063397,-107.128025,-28.938995,50.480804
08088,NaN,-2.976648,-21.767460,0.041882,-13.332529,-5.769566,6.667087,-1.471112,1.706105,-3.380920,0.606099,-0.638311,-0.472490,0.044232,-107.769888,-31.083280,50.078659
08089,NaN,-4.887750,-24.218518,1.641892,-17.355067,-6.477453,6.615441,-1.524515,2.284716,-3.677181,0.607273,-0.634591,-0.477514,0.022225,-108.269608,-33.487513,49.379768
08090,NaN,-5.517876,-26.418382,1.171990,-19.376682,-7.834027,7.298847,-1.508667,2.326603,-4.060310,0.608306,-0.629534,-0.483373,-0.001084,-108.769686,-36.117495,48.743227
08091,NaN,-4.512757,-25.340104,-0.729448,-17.803470,-8.692271,6.630346,-1.523300,1.720660,-4.372959,0.607450,-0.623409,-0.491748,-0.023441,-109.560449,-38.803483,48.608981
08092,NaN,-3.140546,-22.030582,0.182726,-16.163004,-6.695264,3.938001,-1.522022,1.233815,-4.427804,0.605046,-0.616818,-0.501478,-0.044439,-110.606098,-41.426334,48.881198
08093,NaN,-1.366372,-15.785407,-0.913293,-11.007553,-5.283215,0.324226,-1.606173,1.138520,-4.233907,0.601832,-0.610654,-0.510598,-0.064734,-111.775536,-43.919568,49.249253
08094,NaN,-1.428347,-13.122006,-2.407929,-8.754911,-5.997021,-1.603817,-1.453051,0.453792,-3.988237,0.597135,-0.604568,-0.520808,-0.081770,-113.240615,-46.125282,50.146626
08095,NaN,0.149659,-13.164363,-2.230236,-8.487095,-5.148517,-0.882923,-1.092407,0.036395,-3.356344,0.592453,-0.598996,-0.530317,-0.094695,-114.685315,-47.886650,51.266550
08096,NaN,-0.263835,-11.951278,-2.358406,-7.920782,-5.267267,-2.198752,-0.628161,0.035671,-2.794443,0.589293,-0.593387,-0.538207,-0.104681,-115.795225,-49.337148,52.269544
08097,NaN,-1.044615,-11.211145,-2.566619,-7.706342,-5.745137,-3.412054,-0.299264,0.108508,-2.363859,0.587408,-0.587825,-0.544707,-0.112729,-116.613356,-50.575303,53.114848
08098,NaN,6.643863,-7.527683,-5.772086,-0.413505,-3.530934,1.209205,0.374890,0.337229,-1.897489,0.588343,-0.581364,-0.549451,-0.118203,-116.785092,-51.625421,53.614949
08099,NaN,3.590837,-7.148916,-4.663836,-1.900738,-4.180316,-1.771396,-0.182575,1.546049,-1.109329,0.591367,-0.577931,-0.547995,-0.126419,-116.237246,-52.585082,52.788835
08100,NaN,-5.790259,-9.868990,0.582864,-10.173146,-5.235933,-9.217156,0.389810,2.732899,-0.359551,0.599707,-0.574041,-0.541119,-0.134233,-114.245966,-53.430636,50.578424
08101,NaN,-10.202540,-6.137631,4.096663,-10.748853,-3.068911,-15.607854,1.465821,2.509782,0.547842,0.610997,-0.569398,-0.532948,-0.135776,-111.447768,-53.695331,48.145044
08102,NaN,-8.471280,-2.412947,2.657582,-6.596225,-2.211336,-15.833017,1.053935,1.796806,1.130614,0.619524,-0.567969,-0.524881,-0.134542,-109.226547,-53.435222,46.137825
08103,NaN,-5.024321,-4.021953,1.248692,-5.788407,-2.368438,-11.778082,0.686129,1.174069,1.560512,0.625561,-0.569135,-0.517248,-0.131197,-107.608771,-52.795127,44.607419
08104,NaN,-3.351611,-4.391831,1.030192,-5.266663,-1.942574,-10.077608,0.775666,0.623331,2.023308,0.630684,-0.571537,-0.509973,-0.124545,-106.281193,-51.778716,43.494222
08105,NaN,-3.061539,-4.260954,1.213665,-5.135736,-1.619896,-9.826669,0.724511,0.211547,2.535436,0.634808,-0.575551,-0.502470,-0.115258,-105.235073,-50.409344,42.684094
08106,NaN,-2.736563,-5.014835,0.926801,-5.371342,-1.953537,-8.903832,0.748244,0.013077,2.999888,0.638663,-0.580676,-0.494117,-0.103792,-104.279607,-48.736761,41.995726
08107,NaN,-3.036370,-5.588021,0.581737,-5.710078,-2.544066,-8.507911,0.902060,-0.061659,3.410915,0.642791,-0.586179,-0.484805,-0.090438,-103.289521,-46.826223,41.357565
08108,NaN,-3.262753,-6.280453,0.415091,-6.153810,-2.980929,-7.941767,0.965895,-0.218557,3.746365,0.646682,-0.592183,-0.474817,-0.075304,-102.367813,-44.692212,40.847754
08109,NaN,-2.516493,-6.539240,0.199984,-5.716051,-2.863212,-6.939341,0.889114,-0.452484,4.034326,0.649610,-0.598941,-0.464569,-0.058755,-101.644385,-42.373350,40.537958
08110,NaN,-0.790450,-8.112178,-0.543953,-5.176008,-3.016423,-4.260445,0.832296,-0.558884,4.307365,0.651925,-0.606299,-0.453553,-0.041041,-101.014072,-39.876318,40.309786
08111,NaN,0.840034,-8.495121,-0.735890,-4.078531,-2.355449,-2.656000,1.322324,-0.381550,4.498405,0.655801,-0.612111,-0.441309,-0.022174,-100.053468,-37.298473,39.985473
08112,NaN,1.310346,-7.926219,-0.428997,-3.310090,-1.600640,-2.657688,1.418639,-0.224790,4.745610,0.659984,-0.617803,-0.427474,-0.002681,-99.002180,-34.580565,39.585599
08113,NaN,1.010147,-8.270580,-0.491611,-3.302758,-1.759591,-2.353140,1.369223,-0.138719,4.956050,0.663754,-0.623683,-0.412502,0.017067,-97.995914,-31.756574,39.181619
08114,NaN,0.574606,-8.569792,-0.580730,-3.318499,-1.981664,-2.121646,1.261810,-0.163281,5.124400,0.666693,-0.629864,-0.396738,0.037290,-97.097709,-28.818087,38.842147
08115,NaN,0.619131,-9.283202,-0.620252,-3.186737,-1.959359,-1.272778,1.232948,-0.194415,5.295266,0.668946,-0.635995,-0.380336,0.058023,-96.266988,-25.788048,38.572743
08116,NaN,1.172343,-10.268850,-0.818701,-2.613143,-1.778586,0.060180,1.267900,-0.228828,5.497560,0.670686,-0.641914,-0.363020,0.079640,-95.450422,-22.625170,38.363416
08117,NaN,1.740252,-10.831400,-1.161519,-1.662122,-1.573201,0.977355,1.308040,-0.180272,5.660206,0.672009,-0.647462,-0.344787,0.101578,-94.631526,-19.381948,38.171730
08118,NaN,1.647992,-11.330695,-1.534171,-1.068049,-1.717507,1.559397,1.268756,-0.158957,5.826223,0.672585,-0.652894,-0.325578,0.123926,-93.850508,-16.029776,38.008670
08119,NaN,1.138435,-12.239144,-2.153302,-0.675728,-2.300018,2.432094,1.115919,-0.286075,6.009300,0.671713,-0.658442,-0.306082,0.146865,-93.198981,-12.579588,37.962354
08120,NaN,1.954183,-13.707607,-3.277488,1.049665,-2.438688,4.163905,0.902402,-0.556973,6.169327,0.668968,-0.664133,-0.286743,0.170843,-92.703789,-9.016497,38.102765
08121,NaN,4.462262,-16.101481,-5.271686,4.695237,-2.104233,6.931971,0.758056,-0.905660,6.311736,0.664440,-0.669530,-0.268021,0.195997,-92.314693,-5.377375,38.468926
08122,NaN,8.182098,-17.778100,-7.549325,9.793489,-0.942716,8.708942,0.570019,-1.345449,6.246230,0.658070,-0.674350,-0.250798,0.222028,-92.023624,-1.755632,39.106773
08123,NaN,13.951106,-18.180670,-9.157005,16.196298,2.267250,8.663464,0.434605,-1.495967,6.019612,0.650648,-0.678478,-0.234821,0.247352,-91.774233,1.723381,39.852319
08124,NaN,19.085604,-17.130461,-9.338175,21.024311,6.201056,6.442828,0.300775,-1.385340,5.526412,0.642923,-0.682001,-0.220039,0.270383,-91.557825,4.925849,40.557191
08125,NaN,22.913210,-17.989373,-10.139009,25.039001,8.939669,5.819772,-0.063540,-1.436958,4.730811,0.634522,-0.685254,-0.208544,0.290376,-91.510582,7.660970,41.315454
08126,NaN,27.830652,-18.784015,-12.131226,30.464697,11.493305,4.822885,0.053203,-1.214935,3.695787,0.627930,-0.687045,-0.199571,0.306342,-91.379187,9.805724,41.968331
08127,NaN,27.941628,-14.729571,-13.636342,31.364767,10.355948,-0.191122,0.736842,-0.475607,2.641920,0.625867,-0.686566,-0.190838,0.317015,-90.910664,11.328006,42.218100
08128,NaN,23.318787,-12.279884,-15.849971,29.334286,5.457335,-2.364426,0.648874,-0.224130,1.605886,0.625290,-0.685688,-0.184979,0.323462,-90.514221,12.254663,42.340679
08129,NaN,29.808058,-8.531682,-11.831097,30.818552,12.144266,-7.809166,0.696528,-0.023522,0.451356,0.626909,-0.683877,-0.182374,0.325635,-90.111235,12.516722,42.356500
08130,NaN,30.445476,-4.410482,-7.952035,28.039248,14.788796,-11.981186,0.003684,0.128057,-0.690176,0.628136,-0.683447,-0.184349,0.323049,-90.127104,12.121265,42.285323
08131,NaN,24.608665,-6.106981,-4.335354,21.641070,13.865913,-8.782359,-0.634508,0.008587,-1.610688,0.628542,-0.683937,-0.190841,0.317404,-90.489439,11.201779,42.288829
08132,NaN,14.280306,-11.116491,10.509808,4.645859,18.687081,-1.618071,-0.864657,-0.610716,-2.369068,0.628693,-0.683371,-0.202274,0.311182,-90.920087,9.844186,42.665062
08133,NaN,4.457822,-26.036992,5.511028,2.098117,10.098340,15.121570,-0.364725,-1.290686,-3.235531,0.631067,-0.679126,-0.217920,0.305045,-91.007012,8.006454,43.448442
08134,NaN,2.083070,-38.075039,-1.325767,5.186855,4.413050,27.727821,-1.447986,-1.729119,-3.048910,0.628797,-0.677606,-0.235964,0.299644,-91.709698,6.276940,44.492218
08135,NaN,13.548890,-21.675403,-4.049097,13.386981,8.513124,10.633378,0.107880,-1.448904,-3.578335,0.632684,-0.670743,-0.252434,0.293414,-91.565174,4.254682,45.387667
08136,NaN,1.966294,-1.697037,1.646501,0.225691,2.652831,-8.273913,-0.159375,-0.797109,-3.737555,0.636503,-0.665227,-0.267756,0.283979,-91.630870,2.118471,45.908920
08137,NaN,1.496242,1.798529,0.450550,0.721644,1.321558,-11.658998,-1.186700,-1.601140,-2.905353,0.634425,-0.662734,-0.284156,0.278465,-92.288107,0.489617,46.886193
08138,NaN,11.442749,-5.337906,-6.985688,12.692869,3.781928,-4.085591,-1.416511,-0.668992,-2.864578,0.632675,-0.662125,-0.297784,0.269513,-93.105790,-1.140180,47.350697
08139,NaN,7.243461,-9.994236,-3.230645,6.626629,3.301424,0.578139,-0.836092,0.004954,-2.388429,0.633069,-0.661165,-0.306776,0.260715,-93.586900,-2.502921,47.430986
08140,NaN,2.855799,-11.880281,0.136833,0.819742,2.244589,2.170613,-0.554256,0.062104,-2.088309,0.634005,-0.659745,-0.314278,0.252990,-93.911230,-3.708995,47.478509
08141,NaN,3.699799,-11.853937,-2.038516,2.776542,1.264447,2.395803,-0.445318,-0.245115,-1.850261,0.634448,-0.657908,-0.321705,0.247262,-94.182008,-4.752967,47.697163
08142,NaN,4.740425,-10.623944,-0.758251,2.495633,2.799394,1.225742,-0.272863,-0.064241,-1.619754,0.635415,-0.656051,-0.327655,0.241842,-94.352639,-5.685797,47.808281
08143,NaN,2.063718,-9.919077,-0.589772,0.539256,0.863862,0.284649,-0.285610,-0.068106,-1.334796,0.635952,-0.654674,-0.332586,0.237390,-94.526528,-6.441647,47.910091
08144,NaN,1.304773,-10.657115,-1.583113,0.544132,-0.461500,1.016537,-0.407574,-0.083776,-1.233363,0.635915,-0.653788,-0.337460,0.233012,-94.777315,-7.152466,48.021050
08145,NaN,1.613889,-10.712149,-0.068725,-0.491595,0.722753,0.985180,-0.426381,-0.212297,-1.168885,0.635498,-0.652911,-0.342444,0.229305,-95.044950,-7.805673,48.204239
08146,NaN,2.296074,-10.447199,-0.479107,0.179195,0.912141,0.854086,-0.512832,-0.366665,-1.025636,0.634346,-0.652335,-0.347631,0.226313,-95.380987,-8.382042,48.474628
08147,NaN,3.300670,-10.190775,-1.159230,1.264976,1.184328,0.821512,-0.574735,-0.349747,-0.894422,0.632851,-0.652198,-0.352301,0.223654,-95.748035,-8.868984,48.729715
08148,NaN,3.371951,-9.850730,-1.413227,1.450848,1.064122,0.539413,-0.517855,-0.177299,-0.789621,0.631711,-0.652221,-0.356104,0.220770,-96.073350,-9.318829,48.884434
08149,NaN,3.150817,-9.323657,-1.592878,1.449363,0.788810,0.019507,-0.488193,-0.004334,-0.681732,0.630844,-0.652540,-0.358875,0.217799,-96.360562,-9.703154,48.932891
08150,NaN,3.038981,-9.918388,-1.735039,1.286244,0.558959,0.610978,-0.471987,0.178495,-0.601239,0.630258,-0.653120,-0.360877,0.214420,-96.625169,-10.067441,48.874560
08151,NaN,1.981594,-9.693915,-1.672677,0.527752,-0.192211,0.206326,-0.434028,0.294172,-0.588650,0.629984,-0.653738,-0.362334,0.210859,-96.850784,-10.418419,48.747715
08152,NaN,1.459077,-9.536439,-1.353150,-0.086770,-0.374238,-0.078442,-0.512126,0.224039,-0.584545,0.629311,-0.654503,-0.364168,0.207305,-97.133158,-10.776946,48.664885
08153,NaN,1.548459,-9.946979,-1.437402,-0.132483,-0.400235,0.347429,-0.527099,0.106458,-0.584356,0.628366,-0.655205,-0.366287,0.204196,-97.431732,-11.113020,48.649495
08154,NaN,1.812741,-9.750051,-1.506487,0.056602,-0.255897,0.214771,-0.408376,0.061367,-0.593037,0.627726,-0.655441,-0.368542,0.201331,-97.672855,-11.464767,48.664817
08155,NaN,1.785318,-9.612286,-1.552420,0.036191,-0.317067,0.081310,-0.376008,0.053027,-0.586895,0.627164,-0.655591,-0.370674,0.198661,-97.891559,-11.798257,48.683552
08156,NaN,2.312256,-9.389133,-1.482999,0.309602,0.112770,-0.035538,-0.436240,0.067133,-0.582422,0.626416,-0.655923,-0.372893,0.195754,-98.148542,-12.144197,48.697562
08157,NaN,1.829304,-9.618981,-1.456831,-0.147758,-0.257163,0.082011,-0.417496,0.128311,-0.644433,0.625898,-0.656152,-0.375009,0.192574,-98.383572,-12.516346,48.680385
08158,NaN,1.862354,-9.340591,-1.499502,-0.101681,-0.268257,-0.175225,-0.424249,0.107839,-0.703528,0.625362,-0.656240,-0.377473,0.189171,-98.631586,-12.934159,48.684254
08159,NaN,1.892598,-9.762879,-1.393642,-0.345273,-0.230119,0.220517,-0.414027,0.154475,-0.745342,0.624981,-0.656270,-0.379822,0.185590,-98.863700,-13.365860,48.664048
08160,NaN,1.512881,-9.759513,-1.429270,-0.645584,-0.561672,0.129488,-0.433980,0.126383,-0.746679,0.624465,-0.656300,-0.382363,0.181966,-99.116509,-13.809576,48.664652
08161,NaN,1.889717,-10.003021,-1.552830,-0.464358,-0.422159,0.465843,-0.361514,0.147169,-0.814934,0.624282,-0.656001,-0.384901,0.178285,-99.321731,-14.280111,48.658877
08162,NaN,1.948420,-10.079800,-1.504518,-0.570671,-0.394094,0.540115,-0.379286,0.154192,-0.857692,0.624073,-0.655645,-0.387652,0.174322,-99.542626,-14.788963,48.657482
08163,NaN,2.164500,-9.873827,-1.495864,-0.468336,-0.260874,0.391568,-0.360868,0.203512,-0.945918,0.624087,-0.655110,-0.390425,0.170041,-99.743126,-15.338922,48.635344
08164,NaN,2.114635,-10.169325,-1.504947,-0.681443,-0.380839,0.653505,-0.426067,0.247389,-1.016353,0.624009,-0.654636,-0.393422,0.165177,-99.981367,-15.946304,48.599386
08165,NaN,2.226571,-10.349184,-1.455723,-0.807045,-0.338693,0.836961,-0.425277,0.279566,-1.084333,0.624038,-0.654053,-0.396442,0.160078,-100.211098,-16.582133,48.551444
08166,NaN,2.330178,-10.567699,-1.374905,-0.987770,-0.290006,1.047097,-0.536654,0.325143,-1.157785,0.623821,-0.653659,-0.399715,0.154289,-100.504373,-17.277319,48.490084
08167,NaN,2.387015,-11.246037,-1.296937,-1.362908,-0.326151,1.671531,-0.552081,0.387487,-1.234393,0.623715,-0.653201,-0.402956,0.148105,-100.793224,-18.009485,48.401129
08168,NaN,2.384561,-11.469094,-0.898578,-1.866339,-0.145943,1.785878,-0.608845,0.430522,-1.328090,0.623539,-0.652704,-0.406468,0.141281,-101.114764,-18.812290,48.303834
08169,NaN,2.373766,-11.834640,-0.293777,-2.579518,0.154093,1.981345,-0.640422,0.455308,-1.438627,0.623357,-0.652081,-0.410181,0.134043,-101.449124,-19.667705,48.206509
08170,NaN,2.021308,-12.003079,0.442371,-3.543501,0.325424,1.835896,-0.735514,0.440899,-1.573299,0.622874,-0.651395,-0.414488,0.126146,-101.851488,-20.610068,48.142385
08171,NaN,1.026201,-12.821330,0.582631,-4.766832,-0.451943,2.139186,-0.732878,0.399847,-1.755850,0.622381,-0.650266,-0.419403,0.117890,-102.266558,-21.637757,48.130344
08172,NaN,0.313422,-13.808292,0.663434,-5.879331,-1.117167,2.652696,-0.744418,0.309036,-1.969858,0.621717,-0.648574,-0.425330,0.109149,-102.726676,-22.785841,48.212775
08173,NaN,-0.224452,-15.261734,0.746460,-7.130934,-1.748175,3.589214,-0.845263,0.271753,-2.214841,0.620706,-0.646601,-0.432097,0.099617,-103.269515,-24.053312,48.361280
08174,NaN,-0.881027,-16.029937,0.337665,-7.903318,-2.748256,3.891993,-0.940939,0.383689,-2.516630,0.619675,-0.644193,-0.439532,0.088492,-103.870104,-25.513329,48.503655
08175,NaN,-1.690673,-18.573179,-0.501999,-9.376596,-4.470157,5.683879,-1.068273,0.634048,-2.820931,0.618789,-0.641515,-0.447073,0.075392,-104.504693,-27.165242,48.555446
08176,NaN,-2.774658,-21.231845,-0.770612,-11.612722,-6.033613,7.151305,-1.305977,1.091235,-3.165343,0.618120,-0.638768,-0.454319,0.059146,-105.181622,-29.083637,48.401744
08177,NaN,-4.393210,-24.976593,-0.099291,-15.504294,-7.477741,8.808786,-1.397220,1.701280,-3.514102,0.618416,-0.635479,-0.460599,0.039705,-105.748989,-31.279939,47.938826
08178,NaN,-6.544386,-27.194637,1.670809,-19.750151,-8.131260,8.321969,-1.473344,2.234709,-3.871047,0.619469,-0.631373,-0.466186,0.017229,-106.199819,-33.767207,47.206987
08179,NaN,-6.351897,-26.495870,1.476749,-19.891358,-8.185474,6.972930,-1.521487,2.368927,-4.280759,0.620342,-0.626116,-0.472340,-0.007019,-106.644579,-36.499398,46.465823
08180,NaN,-4.028564,-23.583221,-0.167000,-16.650297,-7.685548,5.550009,-1.516629,1.892352,-4.507432,0.619699,-0.619900,-0.480384,-0.030482,-107.293702,-39.285007,46.109570
08181,NaN,-1.435244,-20.811462,1.481121,-15.103838,-4.480289,3.938160,-1.825791,1.571643,-4.568686,0.616902,-0.614150,-0.489236,-0.053843,-108.291978,-42.048349,46.036672
08182,NaN,-0.730445,-15.656663,-1.449802,-10.274473,-5.402169,0.816350,-1.423742,1.219350,-4.168027,0.614233,-0.607863,-0.497757,-0.073874,-109.206682,-44.530510,46.183528
08183,NaN,-1.584385,-12.286670,-3.196951,-7.816764,-6.571510,-2.106609,-1.175979,0.546720,-3.928748,0.610428,-0.601380,-0.507478,-0.090473,-110.359908,-46.750387,46.854566
08184,NaN,-0.320376,-11.699140,-2.709251,-7.317906,-5.500275,-2.034867,-0.845218,0.069792,-3.288633,0.606493,-0.595512,-0.516684,-0.102804,-111.540282,-48.518752,47.799156
08185,NaN,-0.359987,-10.443387,-2.297423,-6.803122,-4.945963,-3.200552,-0.419442,0.039379,-2.677553,0.603905,-0.589808,-0.524275,-0.112077,-112.424119,-49.945432,48.649419
08186,NaN,-0.045935,-9.734697,-2.443798,-6.181638,-4.820789,-3.545185,-0.040109,-0.096721,-2.370174,0.602169,-0.583752,-0.531478,-0.118988,-113.146050,-51.168882,49.557007
08187,NaN,7.030519,-5.326837,-5.527363,1.517999,-2.843784,0.084861,0.610239,0.442040,-1.780866,0.604027,-0.576909,-0.535684,-0.123976,-113.009492,-52.202436,49.829233
08188,NaN,-0.093020,-6.530541,-3.709214,-3.216258,-5.127083,-5.364978,-0.291219,2.011252,-0.865687,0.608005,-0.574216,-0.531873,-0.133103,-112.028204,-53.094109,48.387182
08189,NaN,-10.685364,-8.067623,1.125980,-11.114510,-6.200517,-14.119313,0.642369,2.848945,0.205005,0.617488,-0.570868,-0.522996,-0.138899,-109.556735,-53.559503,45.765497
08190,NaN,-12.636234,-3.604602,2.870930,-9.511154,-3.953415,-18.461951,1.405687,2.345352,1.065511,0.628311,-0.567661,-0.513607,-0.138543,-106.768665,-53.388743,43.300351
08191,NaN,-8.895182,-2.837083,1.640646,-6.877999,-3.094191,-15.555583,0.889970,1.579475,1.475345,0.635864,-0.567537,-0.505041,-0.136058,-104.795040,-52.817204,41.470806
08192,NaN,-5.189979,-4.621757,1.032577,-6.323411,-2.655983,-11.336244,0.787742,0.921434,1.900369,0.641686,-0.569210,-0.497187,-0.130554,-103.335520,-51.878295,40.199489
08193,NaN,-3.680591,-5.096868,1.286093,-6.103379,-1.980246,-9.748925,0.764404,0.444174,2.378496,0.646458,-0.572350,-0.489455,-0.122238,-102.215718,-50.601471,39.325837
08194,NaN,-3.615828,-6.012364,1.077876,-6.612664,-2.418517,-8.915871,0.690997,0.164497,2.894395,0.650544,-0.577078,-0.480966,-0.111562,-101.309144,-48.985103,38.659504
08195,NaN,-4.108221,-6.598104,0.802182,-7.103654,-3.034685,-8.638442,0.801377,-0.011162,3.308163,0.654571,-0.582363,-0.471837,-0.098789,-100.461152,-47.118605,38.137512
08196,NaN,-4.482440,-7.012895,0.594429,-7.428950,-3.494500,-8.323596,0.856627,-0.178072,3.629598,0.658333,-0.588152,-0.462142,-0.084259,-99.694928,-45.040043,37.757951
08197,NaN,-4.057526,-7.617410,0.309334,-7.354680,-3.728564,-7.247487,0.946089,-0.495372,3.947157,0.661487,-0.594256,-0.452470,-0.067568,-99.069665,-42.758608,37.638833
08198,NaN,-2.520101,-8.034519,-0.207465,-6.301435,-3.572286,-5.515389,1.028177,-0.757049,4.206256,0.664099,-0.600527,-0.442654,-0.048962,-98.531445,-40.296119,37.719040
08199,NaN,-0.710867,-8.231749,-0.536297,-4.925046,-2.994994,-3.869936,1.126257,-0.833744,4.442250,0.666533,-0.606671,-0.432242,-0.029165,-97.974849,-37.704880,37.860936
08200,NaN,0.171616,-8.557971,-0.625063,-4.216002,-2.619271,-2.812025,1.136136,-0.833963,4.680540,0.668667,-0.612981,-0.420793,-0.008463,-97.405710,-34.967816,38.003488
08201,NaN,0.476336,-9.182264,-0.702837,-3.957056,-2.547930,-1.883863,1.269433,-0.779647,4.889507,0.670896,-0.618866,-0.408333,0.012984,-96.744839,-32.128908,38.124905
08202,NaN,0.061465,-8.956950,-0.565306,-3.821863,-2.446593,-2.070634,1.238556,-0.748102,5.060476,0.672643,-0.624817,-0.394887,0.034912,-96.092737,-29.183547,38.243661
08203,NaN,-0.084057,-9.102850,-0.394471,-3.697631,-2.250867,-1.796119,1.164509,-0.824440,5.260491,0.673474,-0.630917,-0.380879,0.057503,-95.513057,-26.133518,38.433603
08204,NaN,0.674380,-10.491479,-0.518272,-3.206332,-1.985258,0.012987,1.054203,-0.912683,5.456770,0.673226,-0.637279,-0.366204,0.080860,-95.012763,-22.955435,38.691409
08205,NaN,1.431132,-11.567979,-0.927638,-2.271779,-1.782431,1.516519,1.055358,-0.894977,5.623970,0.672383,-0.643398,-0.350719,0.104578,-94.503809,-19.698082,38.956354
08206,NaN,1.507986,-11.866679,-1.280825,-1.497415,-1.733380,1.995929,1.074659,-0.825314,5.776754,0.671071,-0.649226,-0.334107,0.128612,-93.958547,-16.345171,39.196387
08207,NaN,1.410595,-12.584839,-1.725356,-0.844917,-1.865712,2.800794,0.996019,-0.828098,5.930522,0.668787,-0.654961,-0.316843,0.152840,-93.454308,-12.920101,39.461959
08208,NaN,2.235054,-14.014035,-2.876327,0.909415,-1.951813,4.503658,0.909049,-0.909832,6.085458,0.665339,-0.660568,-0.299020,0.177656,-92.993677,-9.392197,39.793909
08209,NaN,4.733298,-15.219104,-4.209423,4.260441,-0.946196,6.080905,0.841874,-1.094895,6.215345,0.660613,-0.665751,-0.281237,0.203153,-92.571611,-5.801277,40.254824
08210,NaN,8.796952,-17.117143,-6.141465,9.277487,0.788813,8.111302,0.758823,-1.165695,6.223169,0.654826,-0.670485,-0.263370,0.228669,-92.169389,-2.194063,40.777746
08211,NaN,13.739321,-17.587679,-7.600952,14.841033,3.648645,8.135277,0.613201,-0.986662,6.035279,0.648362,-0.674976,-0.245543,0.252473,-91.820985,1.284974,41.225561
08212,NaN,16.821551,-18.120949,-8.886120,18.830475,5.454924,7.673619,0.586752,-0.794148,5.633347,0.641967,-0.678717,-0.228188,0.274136,-91.463181,4.539307,41.590790
08213,NaN,19.368272,-18.538898,-9.715787,22.002380,7.200662,6.833622,0.540746,-0.827454,4.868360,0.635976,-0.681187,-0.213511,0.293141,-91.109622,7.342059,42.007673
08214,NaN,24.105951,-18.553948,-11.022977,26.899777,9.935513,5.167418,0.556787,-0.845471,3.836857,0.631194,-0.682143,-0.202219,0.308840,-90.721857,9.559208,42.464680
08215,NaN,24.459604,-16.667319,-12.187173,28.079229,9.462110,2.293267,0.661592,-0.472340,2.765652,0.628625,-0.682045,-0.193232,0.319855,-90.294761,11.149541,42.728913
08216,NaN,24.300121,-14.291485,-14.092667,29.124979,7.871915,-0.697669,0.664590,-0.716193,1.662404,0.627485,-0.680390,-0.188722,0.328202,-89.829593,12.108895,43.149837
08217,NaN,30.772599,-9.616939,-12.177368,31.740380,13.128561,-7.000207,0.399774,-0.619300,0.426393,0.627543,-0.678508,-0.188554,0.332060,-89.522063,12.354532,43.517825
08218,NaN,30.811323,-7.049513,-9.509638,29.457616,14.886316,-9.486069,-0.196991,-0.473196,-0.656121,0.627487,-0.677725,-0.192607,0.331437,-89.579359,11.977622,43.795169
08219,NaN,24.293817,-6.475552,-5.843501,22.138796,13.190907,-8.354794,-0.485175,-0.625563,-1.564973,0.627798,-0.676671,-0.200667,0.328207,-89.784040,11.082323,44.159374
08220,NaN,16.331436,-9.840129,4.202033,9.778090,15.504979,-3.092314,-0.764255,-1.333547,-2.192492,0.627395,-0.674629,-0.213559,0.325030,-90.085080,9.821389,44.938091
08221,NaN,12.823881,-18.190363,4.860137,7.314850,14.504118,6.156606,-0.878760,-2.102681,-3.259755,0.627346,-0.670348,-0.232533,0.320934,-90.397860,7.962092,46.168825
08222,NaN,6.426917,-32.407935,-0.269875,6.941903,7.640634,21.571135,-1.697147,-1.578979,-3.380547,0.625075,-0.669042,-0.251617,0.313613,-91.259375,6.031877,47.122093
