// General information: 
//  MT Manager version: 2019.0.1 
//  XDA version: 2019.0.1 build 2740 rev 84096 built on 2019-01-30
// Device information: 
//  DeviceId: 00B43876
//  ProductCode: MTW2-3A7G6
//  Firmware Version: 4.3.4
//  Hardware Version: 1.1.0
// Device settings: 
//  Filter Profile: human(46.1)
//  Option Flags: Orientation Smoother Disabled, AHS Disabled, ICC Disabled
// Coordinate system: ENU
PacketCounter,SampleTimeFine,Acc_X,Acc_Y,Acc_Z,FreeAcc_E,FreeAcc_N,FreeAcc_U,Gyr_X,Gyr_Y,Gyr_Z,Quat_q0,Quat_q1,Quat_q2,Quat_q3,Roll,Pitch,Yaw
53325,NaN,0.012600,9.614696,-2.224783,0.030988,-0.070678,0.055760,-0.009609,0.015437,-0.025404,0.273753,0.350007,0.699502,0.559689,102.921981,-0.504744,127.238401
53326,NaN,-0.002264,9.611104,-2.244403,0.022281,-0.093480,0.056530,-0.010480,0.010143,-0.028533,0.273822,0.349903,0.699524,0.559693,102.917020,-0.491981,127.243350
53327,NaN,0.021456,9.595306,-2.227116,0.016481,-0.065519,0.037482,-0.014285,0.007144,-0.022363,0.273888,0.349825,0.699521,0.559713,102.910027,-0.482548,127.245913
53328,NaN,0.003394,9.581951,-2.213617,0.033612,-0.072918,0.021307,-0.010154,0.005169,-0.021974,0.273956,0.349758,0.699525,0.559716,102.905288,-0.472811,127.247204
53329,NaN,0.046148,9.613284,-2.216632,0.009484,-0.035905,0.052881,-0.011581,0.001322,-0.019893,0.274031,0.349709,0.699517,0.559720,102.899874,-0.464012,127.246197
53330,NaN,0.040843,9.603764,-2.182448,0.035672,-0.020646,0.035933,-0.014857,-0.001472,-0.017235,0.274117,0.349670,0.699491,0.559734,102.892476,-0.456061,127.243235
53331,NaN,0.055130,9.617730,-2.193388,0.019281,-0.013550,0.052107,-0.013899,-0.001136,-0.019203,0.274203,0.349627,0.699472,0.559743,102.885745,-0.447333,127.240765
53332,NaN,0.066879,9.598187,-2.196463,0.004388,-0.008218,0.033836,-0.015816,-0.001811,-0.015269,0.274287,0.349596,0.699440,0.559762,102.877801,-0.440446,127.237302
53333,NaN,0.023282,9.600949,-2.198717,0.027741,-0.043777,0.036700,-0.015780,0.001566,-0.016928,0.274360,0.349550,0.699415,0.559786,102.869983,-0.433335,127.236048
53334,NaN,0.031721,9.571538,-2.169001,0.038688,-0.023051,0.001480,-0.011679,0.001244,-0.014839,0.274424,0.349517,0.699397,0.559797,102.864401,-0.427078,127.234206
53335,NaN,-0.021615,9.603953,-2.199847,0.051432,-0.079482,0.039558,-0.015846,-0.000163,-0.013572,0.274495,0.349488,0.699364,0.559822,102.856554,-0.421622,127.231557
53336,NaN,-0.029912,9.584576,-2.132581,0.103465,-0.048850,0.005653,-0.014492,-0.003073,-0.012337,0.274572,0.349473,0.699329,0.559838,102.849377,-0.416214,127.226989
53337,NaN,-0.027281,9.594708,-2.164239,0.078008,-0.064407,0.022600,-0.011451,-0.008838,-0.003265,0.274636,0.349510,0.699278,0.559847,102.844093,-0.415410,127.218179
53338,NaN,-0.054746,9.634766,-2.153736,0.108837,-0.075515,0.059128,-0.018831,-0.016345,-0.002741,0.274740,0.349559,0.699195,0.559869,102.834492,-0.413666,127.205003
53339,NaN,-0.023839,9.581665,-2.218900,0.028576,-0.097274,0.022052,-0.020782,-0.020402,0.002850,0.274844,0.349637,0.699092,0.559898,102.823914,-0.414810,127.188954
53340,NaN,-0.023783,9.582118,-2.216941,0.028916,-0.097415,0.022050,-0.019989,-0.026901,0.009251,0.274954,0.349755,0.698970,0.559922,102.813703,-0.418423,127.168366
53341,NaN,0.017572,9.603803,-2.186270,0.030682,-0.045008,0.036686,-0.017642,-0.026094,0.006859,0.275061,0.349868,0.698860,0.559936,102.804952,-0.421089,127.148628
53342,NaN,0.049880,9.631599,-2.208961,-0.002514,-0.030603,0.069051,-0.022767,-0.027844,0.010092,0.275176,0.349988,0.698728,0.559969,102.793160,-0.425059,127.127371
53343,NaN,0.063914,9.612272,-2.211161,-0.017366,-0.025280,0.050788,-0.026493,-0.019064,0.012997,0.275257,0.350090,0.698593,0.560035,102.779318,-0.432054,127.110784
53344,NaN,0.104234,9.576899,-2.197156,-0.038428,0.008213,0.013492,-0.026915,-0.009135,0.011544,0.275310,0.350158,0.698472,0.560116,102.765082,-0.439208,127.099796
53345,NaN,0.066578,9.589719,-2.231550,-0.040955,-0.042738,0.033299,-0.019072,-0.003147,0.010866,0.275328,0.350218,0.698383,0.560181,102.755425,-0.447034,127.092376
53346,NaN,0.091683,9.621367,-2.163094,0.001891,0.019577,0.049245,-0.025423,0.001476,0.006159,0.275357,0.350239,0.698290,0.560269,102.741994,-0.452533,127.087986
53347,NaN,0.077128,9.584573,-2.173640,-0.005281,-0.005020,0.015570,-0.022680,-0.000967,0.006966,0.275385,0.350275,0.698201,0.560345,102.730258,-0.458459,127.082281
53348,NaN,0.051849,9.601158,-2.187529,0.001225,-0.033301,0.034601,-0.021320,0.001152,0.008245,0.275401,0.350309,0.698116,0.560421,102.719177,-0.465084,127.077517
53349,NaN,0.093602,9.622818,-2.156548,0.003034,0.019104,0.049245,-0.022581,0.004146,0.001957,0.275425,0.350313,0.698043,0.560498,102.707470,-0.468857,127.075304
53350,NaN,0.051941,9.625749,-2.158001,0.026303,-0.016460,0.052086,-0.023999,0.005324,0.004081,0.275444,0.350318,0.697963,0.560585,102.694838,-0.473684,127.073326
53351,NaN,0.049841,9.592678,-2.148129,0.028210,-0.018410,0.017637,-0.021256,0.002881,0.004887,0.275461,0.350337,0.697887,0.560659,102.683900,-0.478937,127.070039
53352,NaN,0.041182,9.599423,-2.199289,-0.006390,-0.056556,0.035371,-0.026748,0.002734,0.003220,0.275496,0.350343,0.697797,0.560750,102.669703,-0.482954,127.066761
53353,NaN,0.054217,9.603700,-2.176283,0.003097,-0.034079,0.034598,-0.023573,0.000419,0.005571,0.275524,0.350368,0.697710,0.560829,102.657450,-0.488280,127.062013
53354,NaN,0.037836,9.614109,-2.136471,0.044547,-0.024365,0.035888,-0.024927,0.003330,0.004341,0.275551,0.350378,0.697624,0.560916,102.644298,-0.492998,127.058922
53355,NaN,0.080888,9.588598,-2.155676,-0.002311,-0.006237,0.015570,-0.022990,-0.002663,-0.001350,0.275608,0.350389,0.697546,0.560979,102.632388,-0.494071,127.053321
53356,NaN,0.060587,9.588937,-2.083249,0.064999,0.018824,-0.000107,-0.020341,-0.005194,0.004512,0.275656,0.350430,0.697462,0.561035,102.621906,-0.497826,127.045397
53357,NaN,0.054220,9.629229,-2.142363,0.028931,-0.017561,0.052077,-0.021211,-0.010480,0.001366,0.275730,0.350475,0.697373,0.561081,102.611056,-0.499441,127.035086
53358,NaN,0.087055,9.633550,-2.190047,-0.028576,-0.020255,0.066985,-0.022139,-0.012471,0.001628,0.275814,0.350524,0.697278,0.561127,102.599570,-0.500676,127.023517
53359,NaN,0.100119,9.614175,-2.192568,-0.043430,-0.014909,0.048734,-0.022046,-0.012383,-0.003430,0.275909,0.350556,0.697193,0.561166,102.588245,-0.499376,127.012742
53360,NaN,0.125525,9.598438,-2.174778,-0.049220,0.013106,0.029712,-0.016484,-0.005470,-0.005059,0.275978,0.350570,0.697135,0.561194,102.579969,-0.497743,127.005875
53361,NaN,0.152621,9.639769,-2.139596,-0.032103,0.059995,0.062619,-0.017341,-0.000693,-0.008092,0.276037,0.350559,0.697088,0.561231,102.571278,-0.495298,127.002219
53362,NaN,0.111461,9.595534,-2.191994,-0.057582,-0.009831,0.030488,-0.019115,0.012154,-0.010749,0.276065,0.350500,0.697057,0.561292,102.561402,-0.492687,127.005923
53363,NaN,0.097377,9.615790,-2.185599,-0.041937,-0.015512,0.048740,-0.016786,0.024677,-0.011316,0.276045,0.350408,0.697052,0.561367,102.552903,-0.491599,127.016856
53364,NaN,0.067331,9.622292,-2.167036,-0.009590,-0.028464,0.050790,-0.017212,0.029579,-0.012805,0.276014,0.350295,0.697054,0.561449,102.544033,-0.490009,127.030568
53365,NaN,0.040816,9.638843,-2.181290,-0.003062,-0.056787,0.069810,-0.017668,0.036126,-0.012590,0.275958,0.350165,0.697064,0.561545,102.534973,-0.489630,127.048063
53366,NaN,0.050556,9.609346,-2.151307,0.007898,-0.036069,0.034588,-0.019118,0.038943,-0.008762,0.275887,0.350038,0.697067,0.561656,102.524971,-0.491460,127.066526
53367,NaN,0.105199,9.610932,-2.125464,-0.005461,0.021851,0.030999,-0.011235,0.053348,-0.011008,0.275756,0.349873,0.697116,0.561762,102.519515,-0.494100,127.093457
53368,NaN,0.087687,9.644465,-2.061599,0.060380,0.048628,0.049745,-0.010787,0.073585,-0.009235,0.275551,0.349658,0.697191,0.561904,102.514114,-0.499963,127.131379
53369,NaN,0.112671,9.571457,-2.062076,0.031764,0.057733,-0.021196,-0.013100,0.076142,-0.008508,0.275336,0.349436,0.697261,0.562059,102.507476,-0.506826,127.170750
53370,NaN,0.009725,9.552638,-2.023850,0.120450,-0.005299,-0.048753,-0.003442,0.077697,-0.008095,0.275101,0.349224,0.697360,0.562184,102.506259,-0.513827,127.210787
53371,NaN,-0.012960,9.602385,-2.047443,0.125485,-0.031860,0.004707,0.003422,0.058201,-0.007070,0.274915,0.349080,0.697450,0.562253,102.509170,-0.519265,127.239944
53372,NaN,-0.049843,9.591275,-2.109796,0.098449,-0.099900,0.007017,0.004271,0.048395,-0.004096,0.274757,0.348974,0.697523,0.562305,102.512508,-0.524874,127.263134
53373,NaN,-0.003709,9.598806,-2.139348,0.050116,-0.079934,0.021183,0.008434,0.039754,-0.005464,0.274623,0.348895,0.697599,0.562326,102.518382,-0.528924,127.281773
53374,NaN,0.082391,9.650932,-2.114574,0.027658,0.009726,0.067487,0.007472,0.039406,-0.003503,0.274489,0.348820,0.697668,0.562352,102.523597,-0.533745,127.299892
53375,NaN,0.095930,9.550318,-2.162813,-0.034492,-0.020867,-0.020144,0.007943,0.052963,-0.003498,0.274304,0.348710,0.697757,0.562400,102.529120,-0.540540,127.325674
53376,NaN,0.081208,9.616993,-2.108566,0.029890,0.007646,0.033035,0.010726,0.058927,-0.004282,0.274098,0.348582,0.697863,0.562448,102.536100,-0.547349,127.354766
53377,NaN,0.116380,9.597185,-2.184495,-0.051953,-0.012084,0.030517,0.014476,0.070259,-0.006978,0.273851,0.348420,0.698000,0.562499,102.545262,-0.554356,127.390653
53378,NaN,0.141203,9.627788,-2.119151,-0.008930,0.050121,0.046443,0.014444,0.081943,-0.005179,0.273562,0.348230,0.698149,0.562572,102.554235,-0.563553,127.432685
53379,NaN,0.168133,9.611364,-2.104213,-0.014643,0.078122,0.027434,0.013633,0.085059,-0.009937,0.273273,0.348015,0.698309,0.562648,102.562818,-0.570760,127.477216
53380,NaN,0.110790,9.599682,-2.097596,0.025282,0.035197,0.014021,0.018269,0.089967,-0.011300,0.272965,0.347786,0.698491,0.562713,102.573918,-0.577542,127.524563
53381,NaN,0.111256,9.599250,-2.099548,0.025682,0.035032,0.014021,0.024371,0.082013,-0.016582,0.272687,0.347570,0.698688,0.562737,102.588654,-0.580671,127.568218
53382,NaN,0.173230,9.620135,-2.142680,-0.039389,0.062380,0.044424,0.027656,0.079783,-0.019279,0.272421,0.347354,0.698896,0.562740,102.605179,-0.581736,127.610835
53383,NaN,0.129652,9.645484,-2.124217,0.008248,0.043813,0.064684,0.028201,0.074967,-0.022848,0.272178,0.347142,0.699105,0.562729,102.622139,-0.580504,127.651332
53384,NaN,0.043376,9.592524,-2.152697,0.031326,-0.046136,0.018355,0.023688,0.070127,-0.026569,0.271973,0.346922,0.699301,0.562720,102.636431,-0.576320,127.689494
53385,NaN,0.079666,9.605909,-2.237336,-0.051998,-0.064045,0.050309,0.029295,0.070358,-0.029934,0.271765,0.346699,0.699518,0.562688,102.654040,-0.570571,127.728303
53386,NaN,0.073068,9.618869,-2.181998,-0.001369,-0.031806,0.050784,0.027484,0.064729,-0.031123,0.271584,0.346484,0.699726,0.562650,102.670527,-0.563198,127.764087
53387,NaN,-0.015940,9.612972,-2.160141,0.070541,-0.087647,0.039370,0.021700,0.066039,-0.021022,0.271379,0.346294,0.699901,0.562649,102.683827,-0.561909,127.799365
53388,NaN,0.013218,9.606421,-2.178740,0.038915,-0.074915,0.037352,0.023130,0.074895,-0.023063,0.271148,0.346072,0.700095,0.562654,102.697784,-0.560330,127.839795
53389,NaN,0.052177,9.650761,-2.126432,0.065319,-0.005457,0.069484,0.027633,0.079717,-0.019363,0.270879,0.345857,0.700302,0.562658,102.714412,-0.561709,127.882510
53390,NaN,0.049942,9.616709,-2.120977,0.067131,-0.007363,0.035031,0.018628,0.089990,-0.009921,0.270566,0.345633,0.700482,0.562723,102.725721,-0.569399,127.929709
53391,NaN,0.004947,9.608574,-2.094612,0.116213,-0.027730,0.020819,0.023683,0.095022,-0.009734,0.270224,0.345403,0.700682,0.562780,102.740002,-0.578113,127.979760
53392,NaN,0.018293,9.611771,-2.076520,0.125725,-0.005257,0.020042,0.033207,0.081449,-0.004311,0.269900,0.345242,0.700881,0.562787,102.759697,-0.587887,128.021489
53393,NaN,0.010056,9.640799,-2.108388,0.115506,-0.026277,0.055260,0.037339,0.079479,-0.003892,0.269572,0.345095,0.701088,0.562776,102.781883,-0.597930,128.062110
53394,NaN,0.105470,9.631734,-2.193548,-0.005924,-0.003046,0.066231,0.036164,0.085707,0.004843,0.269201,0.344957,0.701285,0.562792,102.803241,-0.613370,128.105144
53395,NaN,0.139079,9.601189,-2.238443,-0.061919,-0.007365,0.046770,0.038994,0.090004,0.002342,0.268816,0.344804,0.701500,0.562803,102.826301,-0.628264,128.150845
53396,NaN,0.112699,9.582774,-2.250900,-0.054028,-0.037434,0.031320,0.037839,0.101347,-0.005631,0.268417,0.344588,0.701740,0.562825,102.848488,-0.639886,128.203894
53397,NaN,0.176098,9.577466,-2.175069,-0.032211,0.058433,0.010008,0.035760,0.110700,-0.013348,0.268008,0.344317,0.702000,0.562861,102.869524,-0.648691,128.263146
53398,NaN,0.174375,9.543180,-2.170526,-0.030409,0.056543,-0.024442,0.034472,0.106919,-0.016351,0.267626,0.344043,0.702257,0.562891,102.889718,-0.655082,128.320632
53399,NaN,0.120772,9.540832,-2.199403,-0.016392,-0.001732,-0.020897,0.036542,0.104285,-0.023679,0.267268,0.343755,0.702528,0.562899,102.911215,-0.657339,128.377617
53400,NaN,0.082827,9.552134,-2.240475,-0.019129,-0.052652,-0.001127,0.038058,0.091425,-0.027537,0.266965,0.343490,0.702793,0.562874,102.933544,-0.655545,128.427875
53401,NaN,0.050355,9.581074,-2.202953,0.037664,-0.048669,0.018321,0.038644,0.081595,-0.031103,0.266704,0.343243,0.703052,0.562825,102.956382,-0.650788,128.473140
53402,NaN,0.119191,9.595673,-2.192609,0.007710,0.016663,0.031008,0.036905,0.074324,-0.033972,0.266481,0.343002,0.703301,0.562765,102.978170,-0.643234,128.514608
53403,NaN,0.215965,9.627862,-2.173556,-0.029710,0.111916,0.059156,0.047586,0.079582,-0.037100,0.266228,0.342751,0.703593,0.562674,103.006147,-0.634907,128.559526
53404,NaN,0.165833,9.692299,-2.219072,-0.018623,0.057181,0.131599,0.040540,0.088882,-0.033363,0.265946,0.342476,0.703870,0.562627,103.029929,-0.629619,128.609098
53405,NaN,0.137734,9.650200,-2.256429,-0.035149,0.010054,0.098693,0.029768,0.093612,-0.041919,0.265688,0.342144,0.704139,0.562615,103.047615,-0.620453,128.662477
53406,NaN,0.132273,9.558760,-2.268724,-0.056374,-0.010618,0.012342,0.032645,0.106261,-0.046099,0.265394,0.341764,0.704439,0.562610,103.066756,-0.610329,128.723533
53407,NaN,0.142369,9.561970,-2.250968,-0.046791,0.011843,0.011572,0.037615,0.117930,-0.044217,0.265042,0.341366,0.704765,0.562608,103.088809,-0.603069,128.790788
53408,NaN,0.101483,9.596851,-2.267133,-0.025101,-0.022048,0.048785,0.033063,0.124722,-0.046259,0.264683,0.340934,0.705090,0.562632,103.108108,-0.595305,128.862099
53409,NaN,0.141733,9.594142,-2.264740,-0.047469,0.013334,0.046028,0.028057,0.128018,-0.048179,0.264323,0.340481,0.705409,0.562676,103.124638,-0.587192,128.935503
53410,NaN,0.107297,9.566091,-2.243601,-0.013736,-0.001476,0.013561,0.026697,0.135878,-0.049490,0.263943,0.339996,0.705737,0.562737,103.140210,-0.579129,129.013664
53411,NaN,0.075400,9.571596,-2.230148,0.018614,-0.014551,0.015544,0.023471,0.126414,-0.048588,0.263598,0.339539,0.706040,0.562793,103.154143,-0.570617,129.086231
53412,NaN,-0.092281,9.555289,-2.278863,0.085536,-0.173829,0.009112,0.026857,0.109167,-0.051247,0.263317,0.339124,0.706336,0.562805,103.169993,-0.558123,129.149631
53413,NaN,-0.003924,9.593933,-2.311422,0.013101,-0.116412,0.055064,0.028350,0.084614,-0.051667,0.263120,0.338781,0.706603,0.562768,103.186973,-0.542474,129.199284
53414,NaN,0.051261,9.605307,-2.319562,-0.025994,-0.073651,0.068549,0.009961,0.075049,-0.051395,0.262988,0.338439,0.706805,0.562781,103.193367,-0.525449,129.243644
53415,NaN,-0.005945,9.545752,-2.363835,-0.035095,-0.150701,0.020175,0.004455,0.071507,-0.051492,0.262877,0.338101,0.706987,0.562807,103.196750,-0.508197,129.285967
53416,NaN,-0.039538,9.551550,-2.348869,-0.002808,-0.163763,0.022150,0.008214,0.064420,-0.052566,0.262789,0.337782,0.707173,0.562807,103.202199,-0.489147,129.324657
53417,NaN,-0.058863,9.594861,-2.320861,0.037310,-0.152496,0.057802,0.007514,0.057514,-0.045684,0.262706,0.337508,0.707335,0.562806,103.207434,-0.473310,129.358417
53418,NaN,-0.098942,9.614804,-2.247623,0.119953,-0.133314,0.060199,-0.007931,0.045618,-0.037909,0.262670,0.337272,0.707426,0.562850,103.203758,-0.459980,129.384680
53419,NaN,-0.124881,9.549533,-2.306113,0.078871,-0.197422,0.009845,-0.009029,0.038579,-0.032575,0.262645,0.337076,0.707494,0.562893,103.199627,-0.448976,129.406161
53420,NaN,-0.084648,9.547812,-2.299938,0.056468,-0.161995,0.007097,-0.004481,0.031810,-0.018836,0.262599,0.336952,0.707544,0.562926,103.198050,-0.444442,129.422139
53421,NaN,-0.076067,9.633107,-2.236143,0.113601,-0.103798,0.075649,-0.010111,0.026569,-0.015549,0.262571,0.336849,0.707565,0.562975,103.193373,-0.441362,129.434692
53422,NaN,-0.062527,9.613659,-2.238826,0.098680,-0.098324,0.057434,-0.014262,0.028528,-0.004359,0.262512,0.336772,0.707559,0.563056,103.186218,-0.444485,129.446918
53423,NaN,-0.034058,9.574533,-2.245231,0.068536,-0.087273,0.021009,-0.012360,0.030867,0.005105,0.262414,0.336727,0.707544,0.563147,103.180252,-0.453487,129.459169
53424,NaN,-0.035047,9.598590,-2.219068,0.093359,-0.070407,0.038442,-0.013409,0.027181,0.008749,0.262321,0.336701,0.707517,0.563241,103.173574,-0.463751,129.469035
53425,NaN,-0.033381,9.598914,-2.217691,0.093751,-0.070559,0.038437,-0.015459,0.023162,0.014348,0.262229,0.336706,0.707468,0.563342,103.165874,-0.476901,129.475783
53426,NaN,0.029078,9.587456,-2.247229,0.030216,-0.044762,0.034509,-0.014087,0.015286,0.015646,0.262161,0.336737,0.707411,0.563427,103.158864,-0.489476,129.478068
53427,NaN,0.024508,9.593613,-2.299313,-0.004500,-0.082737,0.052300,-0.023091,0.017251,0.021536,0.262082,0.336774,0.707321,0.563555,103.146825,-0.505863,129.480585
53428,NaN,0.029204,9.570345,-2.322227,-0.028645,-0.099835,0.034866,-0.019352,0.015178,0.020476,0.262010,0.336816,0.707240,0.563664,103.136834,-0.521078,129.482149
53429,NaN,0.082852,9.596647,-2.268756,-0.017255,-0.024841,0.048795,-0.016771,0.016061,0.024745,0.261916,0.336876,0.707161,0.563771,103.128424,-0.539099,129.483590
53430,NaN,0.068961,9.583217,-2.255409,-0.000234,-0.032322,0.032546,-0.018931,0.010317,0.022032,0.261856,0.336939,0.707073,0.563873,103.118700,-0.554579,129.482153
53431,NaN,0.119635,9.575966,-2.193927,0.012571,0.040918,0.012022,-0.021511,0.009432,0.017760,0.261813,0.336986,0.706983,0.563976,103.107601,-0.567841,129.480809
53432,NaN,0.149228,9.594185,-2.182580,0.005489,0.070756,0.027499,-0.016668,0.001053,0.013066,0.261807,0.337046,0.706904,0.564043,103.099221,-0.577092,129.475413
53433,NaN,0.185708,9.598418,-2.229215,-0.051935,0.068368,0.042572,-0.015717,0.011380,0.011107,0.261766,0.337072,0.706844,0.564120,103.091422,-0.586894,129.476024
53434,NaN,0.179938,9.612596,-2.170224,-0.001179,0.100450,0.042979,-0.010236,0.019907,0.011205,0.261688,0.337081,0.706811,0.564193,103.086627,-0.597563,129.481326
53435,NaN,0.130405,9.644361,-2.203413,0.011303,0.043892,0.080930,-0.017872,0.018981,0.006697,0.261636,0.337067,0.706763,0.564285,103.077543,-0.605890,129.486753
53436,NaN,0.057249,9.553772,-2.312799,-0.040965,-0.095243,0.016663,-0.021768,0.024340,0.011126,0.261562,0.337048,0.706704,0.564406,103.066105,-0.617084,129.494601
53437,NaN,0.074487,9.575932,-2.211488,0.028302,-0.018030,0.015515,-0.005441,0.021518,0.006507,0.261481,0.337042,0.706694,0.564459,103.064125,-0.625632,129.501471
53438,NaN,0.062251,9.653045,-2.189826,0.067051,-0.005061,0.085594,-0.006073,0.026313,0.010012,0.261377,0.337035,0.706683,0.564526,103.061677,-0.636478,129.510437
53439,NaN,0.052307,9.649275,-2.210013,0.058213,-0.027796,0.086365,-0.013470,0.028812,0.010431,0.261273,0.337012,0.706653,0.564624,103.055055,-0.648159,129.520871
53440,NaN,0.148889,9.592380,-2.193378,-0.000691,0.047128,0.028278,-0.012547,0.030790,0.010165,0.261163,0.336984,0.706630,0.564722,103.048868,-0.659646,129.532372
53441,NaN,0.125099,9.608329,-2.209778,0.005742,0.018774,0.047250,-0.005566,0.033146,0.008187,0.261036,0.336951,0.706632,0.564796,103.046739,-0.670634,129.545519
53442,NaN,0.096132,9.614306,-2.194078,0.038027,0.005656,0.049189,0.000100,0.033388,0.004919,0.260911,0.336913,0.706656,0.564847,103.047767,-0.679533,129.559143
53443,NaN,0.090824,9.620140,-2.248068,0.003283,-0.032279,0.066994,0.002835,0.030979,0.005817,0.260785,0.336890,0.706683,0.564885,103.050458,-0.688918,129.571386
53444,NaN,0.119903,9.580793,-2.255118,-0.026904,-0.021131,0.030602,-0.014754,0.035036,0.007431,0.260672,0.336837,0.706663,0.564994,103.042970,-0.699436,129.585553
53445,NaN,0.104469,9.509930,-2.259930,-0.033000,-0.047344,-0.037533,-0.003522,0.042156,0.002586,0.260526,0.336762,0.706693,0.565069,103.041932,-0.708460,129.604455
53446,NaN,0.073250,9.596751,-2.202523,0.046949,-0.024831,0.033697,0.008909,0.044689,0.002413,0.260353,0.336695,0.706760,0.565104,103.047918,-0.717439,129.624644
53447,NaN,0.044502,9.659838,-2.170288,0.102421,-0.019305,0.087502,-0.000455,0.036529,0.006726,0.260210,0.336655,0.706784,0.565164,103.048678,-0.728048,129.639868
53448,NaN,0.045779,9.602714,-2.186964,0.079624,-0.038112,0.035624,-0.011630,0.032756,0.009871,0.260092,0.336621,0.706766,0.565261,103.042984,-0.739626,129.652505
53449,NaN,0.058378,9.492383,-2.199381,0.042961,-0.053050,-0.068901,-0.007972,0.032325,0.010509,0.259966,0.336596,0.706756,0.565346,103.039467,-0.751802,129.664895
53450,NaN,0.107665,9.614658,-2.191996,0.041075,0.004603,0.049178,0.015885,0.037053,0.012136,0.259781,0.336594,0.706817,0.565356,103.049511,-0.765209,129.679573
53451,NaN,0.132612,9.679655,-2.133009,0.083163,0.068289,0.099499,-0.001026,0.026336,0.010232,0.259665,0.336594,0.706820,0.565406,103.050014,-0.776458,129.688654
53452,NaN,0.076513,9.602775,-2.255490,0.014056,-0.063386,0.051498,-0.014712,0.025041,0.007404,0.259588,0.336570,0.706787,0.565497,103.042609,-0.785675,129.697196
53453,NaN,0.126813,9.529857,-2.323754,-0.081814,-0.078719,-0.003447,-0.001335,0.024557,0.006989,0.259488,0.336563,0.706792,0.565541,103.042939,-0.794881,129.705704
53454,NaN,0.187905,9.583144,-2.225492,-0.036502,0.035787,0.027137,0.003310,0.029453,0.005677,0.259368,0.336543,0.706819,0.565574,103.045798,-0.803707,129.717044
53455,NaN,0.094096,9.583241,-2.258227,-0.000069,-0.058143,0.033305,-0.009615,0.033420,0.005951,0.259254,0.336497,0.706814,0.565661,103.041310,-0.813481,129.730633
53456,NaN,0.067485,9.565713,-2.266963,0.007659,-0.088217,0.017811,-0.010603,0.028091,0.007903,0.259157,0.336471,0.706795,0.565743,103.036241,-0.823377,129.740765
53457,NaN,0.066204,9.589587,-2.241190,0.032600,-0.071435,0.035222,-0.005363,0.019857,0.004789,0.259087,0.336465,0.706786,0.565790,103.034292,-0.830748,129.746935
53458,NaN,0.150731,9.585730,-2.228562,-0.012324,-0.000319,0.029837,-0.008611,0.015430,0.005704,0.259038,0.336469,0.706761,0.565842,103.030455,-0.837751,129.750407
53459,NaN,0.102203,9.544585,-2.192994,0.037979,-0.022636,-0.018974,-0.015249,0.023192,0.009207,0.258960,0.336456,0.706721,0.565935,103.022821,-0.848017,129.757869
53460,NaN,0.136362,9.572378,-2.215023,0.005071,-0.007962,0.013566,-0.002956,0.020662,0.002449,0.258891,0.336441,0.706724,0.565972,103.022165,-0.853886,129.764702
53461,NaN,0.146237,9.600063,-2.168496,0.039303,0.031381,0.030200,-0.002669,0.027427,0.005685,0.258787,0.336420,0.706731,0.566023,103.021694,-0.862732,129.774984
53462,NaN,0.091805,9.621970,-2.170040,0.077577,-0.010008,0.051069,-0.011057,0.024602,0.008028,0.258703,0.336404,0.706707,0.566101,103.016392,-0.872232,129.783175
53463,NaN,0.111750,9.555100,-2.222643,0.013586,-0.038319,-0.001933,-0.012824,0.019006,0.006865,0.258643,0.336398,0.706672,0.566176,103.010174,-0.880649,129.788605
53464,NaN,0.071000,9.557340,-2.227689,0.036568,-0.074051,0.000750,-0.007344,0.009199,0.008689,0.258605,0.336432,0.706637,0.566216,103.007122,-0.888517,129.788192
53465,NaN,0.160702,9.563291,-2.247694,-0.034188,-0.018111,0.012433,-0.005390,0.006522,0.006484,0.258577,0.336469,0.706608,0.566243,103.005270,-0.895111,129.786702
53466,NaN,0.158923,9.587144,-2.221901,-0.009260,-0.001311,0.029840,-0.010833,0.006349,0.004669,0.258567,0.336494,0.706566,0.566286,103.000254,-0.900380,129.785083
53467,NaN,0.151015,9.616972,-2.249902,-0.019489,-0.022279,0.065072,-0.007732,0.009064,0.007131,0.258532,0.336523,0.706533,0.566326,102.997039,-0.907663,129.784930
53468,NaN,0.202043,9.585487,-2.214131,-0.031107,0.034067,0.027162,-0.009285,0.008529,0.000903,0.258522,0.336529,0.706504,0.566362,102.992848,-0.911131,129.785135
53469,NaN,0.207587,9.595563,-2.245931,-0.056613,0.018767,0.044217,-0.008377,0.015495,0.000637,0.258483,0.336517,0.706488,0.566407,102.989193,-0.915616,129.789410
53470,NaN,0.180211,9.635173,-2.237933,-0.025689,0.007326,0.080576,-0.000394,0.023174,-0.003263,0.258418,0.336478,0.706512,0.566431,102.989958,-0.918623,129.798405
53471,NaN,0.161062,9.587898,-2.218491,-0.007325,-0.001956,0.029841,-0.006374,0.021157,-0.003263,0.258367,0.336438,0.706515,0.566474,102.987391,-0.921660,129.806344
53472,NaN,0.072441,9.582156,-2.197623,0.064160,-0.058188,0.018132,0.000012,0.018317,-0.001703,0.258314,0.336419,0.706530,0.566490,102.988447,-0.924932,129.812316
53473,NaN,0.075104,9.615697,-2.205345,0.063223,-0.056598,0.052585,0.001616,0.005530,-0.005455,0.258312,0.336426,0.706540,0.566475,102.990594,-0.924733,129.811811
53474,NaN,0.119156,9.590009,-2.224230,0.016405,-0.037961,0.032512,-0.002778,-0.005931,0.000783,0.258342,0.336481,0.706511,0.566464,102.990263,-0.926260,129.803998
53475,NaN,0.179767,9.578147,-2.254451,-0.046985,-0.011935,0.028726,-0.000285,-0.006763,-0.003239,0.258380,0.336528,0.706496,0.566438,102.991436,-0.925715,129.796345
53476,NaN,0.168316,9.574246,-2.275640,-0.055920,-0.034601,0.029503,-0.001029,0.004652,0.001942,0.258367,0.336561,0.706484,0.566439,102.992040,-0.929262,129.794147
53477,NaN,0.185802,9.572139,-2.200711,-0.010997,0.025526,0.010893,0.006198,0.007076,-0.005065,0.258350,0.336570,0.706508,0.566411,102.996799,-0.929479,129.794455
53478,NaN,0.157714,9.611547,-2.193637,0.019935,0.014058,0.047239,0.003534,0.012833,-0.007667,0.258327,0.336551,0.706536,0.566398,102.999910,-0.928722,129.798134
53479,NaN,0.126541,9.560204,-2.196122,0.028970,-0.017789,-0.002728,0.003080,0.009350,-0.007534,0.258315,0.336542,0.706558,0.566382,103.002857,-0.927854,129.800030
53480,NaN,0.145276,9.607513,-2.215454,0.011396,-0.008755,0.048015,0.002693,0.009216,-0.009092,0.258310,0.336526,0.706582,0.566364,103.005500,-0.925818,129.801992
53481,NaN,0.169796,9.591663,-2.198114,0.005827,0.019341,0.029067,0.000841,0.005262,-0.008570,0.258318,0.336521,0.706594,0.566347,103.007199,-0.923846,129.801740
53482,NaN,0.173916,9.544341,-2.248101,-0.042997,-0.014518,-0.005721,-0.001265,0.007872,-0.012986,0.258336,0.336491,0.706611,0.566337,103.007569,-0.919491,129.803415
53483,NaN,0.105750,9.562171,-2.271766,-0.014052,-0.078552,0.015885,0.002949,0.004296,-0.014149,0.258360,0.336472,0.706638,0.566304,103.010473,-0.914279,129.803343
53484,NaN,0.124442,9.593675,-2.204425,0.029534,-0.016691,0.031724,0.000863,0.001916,-0.018561,0.258411,0.336441,0.706663,0.566268,103.012108,-0.906026,129.802458
53485,NaN,0.158500,9.597656,-2.252259,-0.027869,-0.018859,0.046910,-0.000621,0.003085,-0.016487,0.258452,0.336413,0.706681,0.566242,103.012971,-0.899353,129.802011
53486,NaN,0.168133,9.601616,-2.231011,-0.018185,0.003589,0.046134,0.000993,0.008613,-0.021944,0.258489,0.336352,0.706721,0.566213,103.014665,-0.890058,129.805134
53487,NaN,0.161236,9.649002,-2.180938,0.031430,0.037170,0.080915,-0.001824,0.012658,-0.021172,0.258512,0.336279,0.706756,0.566201,103.014747,-0.882005,129.810637
53488,NaN,0.178520,9.639301,-2.216866,-0.009409,0.027622,0.079816,-0.007739,0.013986,-0.022866,0.258547,0.336187,0.706780,0.566211,103.011358,-0.872886,129.817051
53489,NaN,0.159856,9.568464,-2.222013,-0.015701,0.001470,0.011678,-0.008599,0.015356,-0.024297,0.258580,0.336086,0.706805,0.566224,103.007532,-0.863435,129.824463
53490,NaN,0.130026,9.608081,-2.213940,0.015234,-0.010032,0.048008,-0.003048,0.008905,-0.024157,0.258629,0.336011,0.706837,0.566206,103.006872,-0.852964,129.828133
53491,NaN,0.121979,9.614174,-2.267393,-0.019612,-0.047846,0.065856,-0.006365,0.019442,-0.023264,0.258641,0.335905,0.706872,0.566220,103.004296,-0.844616,129.837692
53492,NaN,0.086994,9.586644,-2.244026,0.013937,-0.062809,0.033267,-0.005417,0.016430,-0.023521,0.258665,0.335807,0.706906,0.566224,103.002223,-0.835452,129.845539
53493,NaN,0.035586,9.602330,-2.192510,0.087424,-0.066659,0.036223,0.006001,0.018634,-0.021695,0.258655,0.335725,0.706972,0.566195,103.006745,-0.827876,129.854444
53494,NaN,0.122741,9.608348,-2.213198,0.016764,-0.010541,0.048005,0.000947,0.018586,-0.021962,0.258656,0.335635,0.707025,0.566183,103.008295,-0.819856,129.863354
53495,NaN,0.171743,9.634053,-2.160859,0.028577,0.064385,0.061969,0.001693,0.023842,-0.018852,0.258626,0.335542,0.707081,0.566181,103.010314,-0.814539,129.874801
53496,NaN,0.084130,9.604239,-2.165807,0.075329,-0.008821,0.032791,0.004515,0.019798,-0.019624,0.258611,0.335461,0.707141,0.566161,103.013897,-0.808001,129.884071
53497,NaN,0.120926,9.584586,-2.238885,-0.006693,-0.027782,0.030620,0.002346,0.019055,-0.022354,0.258607,0.335371,0.707198,0.566144,103.016324,-0.800113,129.893298
53498,NaN,0.185840,9.582774,-2.302003,-0.096009,-0.016726,0.043976,0.003860,0.024581,-0.016128,0.258565,0.335288,0.707257,0.566139,103.019507,-0.796129,129.904817
53499,NaN,0.145760,9.545052,-2.247083,-0.036510,-0.016619,-0.005698,0.006846,0.023886,-0.030278,0.258559,0.335162,0.707347,0.566104,103.024463,-0.784442,129.917765
53500,NaN,0.137744,9.550872,-2.301640,-0.071418,-0.054379,0.012160,0.007022,0.032285,-0.025358,0.258512,0.335029,0.707440,0.566089,103.029395,-0.776319,129.934697
53501,NaN,0.102734,9.580250,-2.262093,-0.014516,-0.050829,0.031398,0.004854,0.031539,-0.028091,0.258476,0.334886,0.707530,0.566077,103.033161,-0.766845,129.951637
53502,NaN,0.100643,9.637404,-2.245160,0.009181,-0.032390,0.083236,0.004408,0.028054,-0.027959,0.258454,0.334751,0.707615,0.566061,103.036598,-0.756732,129.966688
53503,NaN,0.065440,9.552415,-2.239851,0.019400,-0.065962,-0.001208,-0.002873,0.023909,-0.029270,0.258462,0.334616,0.707675,0.566061,103.035996,-0.745614,129.979522
53504,NaN,0.057718,9.542544,-2.207121,0.045688,-0.050975,-0.018292,0.001383,0.015356,-0.030417,0.258498,0.334506,0.707738,0.566031,103.037835,-0.732489,129.987585
53505,NaN,0.104632,9.584179,-2.241449,-0.003652,-0.028797,0.030619,0.004780,0.008172,-0.032996,0.258559,0.334412,0.707806,0.565974,103.041729,-0.717258,129.992116
53506,NaN,0.129536,9.659240,-2.214544,0.012835,0.019614,0.097981,0.003640,0.014458,-0.029375,0.258590,0.334310,0.707874,0.565935,103.044841,-0.704592,129.999754
53507,NaN,0.096557,9.665061,-2.199392,0.045107,0.006310,0.099828,-0.005640,0.017965,-0.028497,0.258621,0.334191,0.707917,0.565937,103.042707,-0.693138,130.009170
53508,NaN,0.078118,9.536882,-2.222004,0.015319,-0.038334,-0.020148,-0.009390,0.020022,-0.027473,0.258649,0.334062,0.707952,0.565957,103.038309,-0.682233,130.019777
53509,NaN,0.050982,9.552660,-2.239180,0.021650,-0.066732,-0.001218,0.000469,0.020068,-0.021862,0.258644,0.333968,0.708004,0.565949,103.039675,-0.674755,130.029509
53510,NaN,-0.009282,9.597744,-2.216670,0.084453,-0.091463,0.036927,-0.002733,0.010650,-0.020945,0.258676,0.333899,0.708034,0.565938,103.039195,-0.666319,130.033773
53511,NaN,0.033411,9.572419,-2.235117,0.037694,-0.072716,0.016929,-0.002638,0.009009,-0.022632,0.258717,0.333830,0.708065,0.565921,103.038854,-0.656981,130.037431
53512,NaN,0.103689,9.679450,-2.209073,0.030436,0.013111,0.116130,0.001535,0.008800,-0.013785,0.258729,0.333797,0.708093,0.565901,103.040835,-0.652281,130.039836
53513,NaN,0.069954,9.594485,-2.203301,0.040602,-0.020460,0.031677,-0.011117,0.014494,-0.010325,0.258729,0.333745,0.708086,0.565940,103.035620,-0.650522,130.044964
53514,NaN,0.085823,9.551385,-2.231165,0.001010,-0.031654,-0.003844,-0.005777,0.009632,-0.015108,0.258754,0.333694,0.708096,0.565945,103.033396,-0.645187,130.048070
53515,NaN,0.120398,9.612894,-2.261200,-0.033001,-0.015172,0.063240,0.000982,0.020273,-0.013678,0.258723,0.333630,0.708137,0.565947,103.035073,-0.642302,130.056859
53516,NaN,0.139356,9.644581,-2.193492,0.010760,0.046579,0.079051,-0.002005,0.022601,-0.009535,0.258680,0.333568,0.708165,0.565967,103.034952,-0.641772,130.066345
53517,NaN,0.086099,9.585169,-2.238002,0.000892,-0.030329,0.030615,-0.007823,0.022267,-0.012933,0.258655,0.333489,0.708182,0.566004,103.031572,-0.639560,130.076150
53518,NaN,0.071409,9.547722,-2.251135,-0.006846,-0.054686,-0.003066,-0.003437,0.020413,-0.017464,0.258645,0.333405,0.708217,0.566015,103.030682,-0.634294,130.085283
53519,NaN,0.089370,9.595340,-2.269700,-0.024281,-0.045651,0.047708,-0.004032,0.015226,-0.013949,0.258642,0.333347,0.708237,0.566025,103.029518,-0.630605,130.091288
53520,NaN,0.099318,9.599514,-2.247722,-0.014550,-0.023239,0.046929,-0.009331,0.008403,-0.017465,0.258683,0.333287,0.708240,0.566039,103.025245,-0.623813,130.094068
53521,NaN,0.100623,9.576112,-2.271782,-0.038821,-0.040170,0.029565,-0.010210,0.001439,-0.017196,0.258748,0.333248,0.708230,0.566043,103.020622,-0.616531,130.092796
53522,NaN,0.079147,9.586086,-2.234326,0.002769,-0.030950,0.030613,-0.013914,-0.008188,-0.024471,0.258875,0.333205,0.708210,0.566036,103.013849,-0.603676,130.087080
53523,NaN,0.051737,9.602048,-2.250560,0.009083,-0.059359,0.049535,-0.015662,-0.007092,-0.017333,0.258980,0.333184,0.708174,0.566046,103.006151,-0.595218,130.081061
53524,NaN,0.063682,9.582803,-2.252695,-0.005858,-0.053731,0.031391,-0.016766,-0.012487,-0.022008,0.259120,0.333157,0.708136,0.566044,102.997755,-0.583166,130.072776
53525,NaN,0.052986,9.596874,-2.193350,0.045155,-0.022025,0.031654,-0.018983,-0.016584,-0.023052,0.259280,0.333137,0.708088,0.566043,102.988198,-0.570294,130.062192
53526,NaN,0.078388,9.615264,-2.181583,0.038343,0.007846,0.047192,-0.017400,-0.012693,-0.018504,0.259412,0.333122,0.708043,0.566048,102.979448,-0.560169,130.053328
53527,NaN,0.028883,9.623326,-2.239915,0.025881,-0.065617,0.067671,-0.023141,-0.016310,-0.013582,0.259551,0.333130,0.707968,0.566073,102.967514,-0.552623,130.041674
53528,NaN,0.024706,9.590263,-2.230066,0.027490,-0.067455,0.033208,-0.024004,-0.014945,-0.015018,0.259692,0.333126,0.707895,0.566103,102.954969,-0.544186,130.031139
53529,NaN,0.037257,9.571144,-2.231715,0.012590,-0.061851,0.015067,-0.019201,-0.014948,-0.009673,0.259809,0.333149,0.707826,0.566122,102.945288,-0.539002,130.019741
53530,NaN,0.091374,9.607585,-2.209675,-0.001369,-0.001988,0.046151,-0.022377,-0.016041,-0.010464,0.259938,0.333166,0.707748,0.566149,102.933723,-0.532957,130.007854
53531,NaN,0.109767,9.598534,-2.243729,-0.042205,-0.011434,0.045117,-0.025508,-0.007096,-0.004633,0.260023,0.333176,0.707663,0.566210,102.920391,-0.531598,130.000192
53532,NaN,0.067459,9.600657,-2.247866,-0.019394,-0.047283,0.047711,-0.019582,-0.000064,-0.004618,0.260076,0.333174,0.707604,0.566261,102.910374,-0.530862,129.996378
53533,NaN,-0.027287,9.584273,-2.193343,0.077780,-0.088810,0.018684,-0.019920,-0.005186,-0.006177,0.260149,0.333180,0.707540,0.566304,102.900232,-0.528889,129.989980
53534,NaN,-0.008660,9.575188,-2.227609,0.036894,-0.098226,0.017650,-0.023586,-0.013109,-0.005148,0.260255,0.333207,0.707454,0.566347,102.887950,-0.526207,129.979086
53535,NaN,0.090802,9.586419,-2.224430,-0.024138,-0.019407,0.028796,-0.015944,-0.017142,-0.000571,0.260349,0.333272,0.707376,0.566363,102.880154,-0.525839,129.965293
53536,NaN,0.043187,9.635540,-2.178894,0.048060,-0.021753,0.066092,-0.019030,-0.013186,0.005267,0.260418,0.333342,0.707285,0.566404,102.870499,-0.528973,129.953004
53537,NaN,0.018421,9.594555,-2.211590,0.030897,-0.068648,0.033189,-0.031353,-0.017421,0.003663,0.260526,0.333403,0.707157,0.566479,102.853882,-0.530941,129.938516
53538,NaN,-0.011792,9.543525,-2.211703,0.039630,-0.100465,-0.016823,-0.018888,-0.019811,0.003573,0.260623,0.333485,0.707060,0.566505,102.844367,-0.532262,129.922695
53539,NaN,0.032147,9.633005,-2.193932,0.039817,-0.044680,0.066866,-0.011288,-0.018861,0.008147,0.260690,0.333593,0.706979,0.566513,102.839260,-0.536556,129.906832
53540,NaN,0.085465,9.635671,-2.164848,0.027156,0.013472,0.063501,-0.020435,-0.022003,0.007335,0.260787,0.333693,0.706869,0.566547,102.828862,-0.539715,129.889345
53541,NaN,0.114083,9.596920,-2.170456,-0.003039,0.024856,0.027238,-0.020663,-0.005409,0.009032,0.260820,0.333753,0.706777,0.566611,102.818315,-0.546219,129.880887
53542,NaN,0.137306,9.605197,-2.126001,0.016148,0.069765,0.025677,-0.017433,-0.000968,0.008134,0.260835,0.333800,0.706702,0.566670,102.809519,-0.552523,129.875047
53543,NaN,0.101516,9.617223,-2.163450,0.013029,0.018825,0.045369,-0.011410,0.004430,0.006466,0.260824,0.333835,0.706653,0.566715,102.804220,-0.558846,129.872413
53544,NaN,0.104524,9.651115,-2.169685,0.012163,0.020420,0.079831,-0.014490,0.001701,0.003984,0.260838,0.333864,0.706597,0.566762,102.797110,-0.563159,129.868534
53545,NaN,0.135766,9.588719,-2.200982,-0.042750,0.015074,0.026227,-0.014821,0.004917,0.000736,0.260847,0.333873,0.706549,0.566812,102.789847,-0.566342,129.866901
53546,NaN,0.135770,9.588979,-2.199851,-0.042385,0.014961,0.026229,-0.008657,0.003693,-0.002625,0.260862,0.333881,0.706522,0.566834,102.786057,-0.567222,129.864963
53547,NaN,0.135424,9.589178,-2.199003,-0.041982,0.014819,0.026231,-0.008944,0.001922,-0.005878,0.260891,0.333883,0.706498,0.566850,102.782169,-0.566330,129.862495
53548,NaN,0.098400,9.601113,-2.237065,-0.045158,-0.036083,0.045921,-0.007111,0.005885,-0.006388,0.260907,0.333873,0.706485,0.566864,102.779264,-0.565364,129.862300
53549,NaN,0.078243,9.610829,-2.199690,-0.003507,-0.026979,0.046930,-0.013218,0.003778,-0.013041,0.260957,0.333838,0.706463,0.566889,102.772908,-0.560706,129.861777
53550,NaN,0.052290,9.569623,-2.233794,-0.020768,-0.073816,0.014030,-0.009178,0.003501,-0.010818,0.260997,0.333817,0.706449,0.566901,102.768834,-0.556975,129.860705
53551,NaN,0.046047,9.559674,-2.200503,0.005578,-0.058940,-0.003090,-0.005468,0.006441,-0.011842,0.261021,0.333790,0.706450,0.566904,102.766905,-0.553324,129.861517
53552,NaN,0.111769,9.599693,-2.158281,0.001174,0.023447,0.027242,-0.010557,0.019692,-0.013796,0.261015,0.333710,0.706458,0.566944,102.761950,-0.549956,129.869949
53553,NaN,0.096926,9.619455,-2.153716,0.016881,0.017520,0.045365,-0.004677,0.031714,-0.013763,0.260954,0.333605,0.706498,0.566985,102.760337,-0.548430,129.885128
53554,NaN,0.037891,9.664172,-2.130988,0.079674,-0.007440,0.083391,0.003740,0.036281,-0.007748,0.260847,0.333518,0.706558,0.567010,102.763453,-0.550572,129.902203
53555,NaN,0.013333,9.663451,-2.062265,0.147285,0.016649,0.067263,0.001322,0.027119,-0.003738,0.260764,0.333469,0.706592,0.567035,102.765313,-0.554067,129.913544
53556,NaN,0.027872,9.586748,-2.083714,0.108828,0.003891,-0.002665,-0.001718,0.011070,-0.004547,0.260747,0.333459,0.706598,0.567041,102.765501,-0.554783,129.915840
53557,NaN,0.140879,9.594316,-2.172702,-0.028702,0.036066,0.025466,0.003248,0.006100,-0.010902,0.260756,0.333447,0.706622,0.567014,102.768569,-0.551614,129.916343
53558,NaN,0.145239,9.604377,-2.205627,-0.054287,0.020947,0.042593,0.004217,0.011430,-0.012843,0.260751,0.333414,0.706659,0.566989,102.772116,-0.547755,129.919995
53559,NaN,0.194283,9.589295,-2.257541,-0.126960,0.024876,0.039829,0.007459,0.032539,-0.017103,0.260676,0.333311,0.706740,0.566984,102.777449,-0.544470,129.936059
53560,NaN,0.135226,9.576749,-2.253058,-0.087700,-0.018510,0.026044,0.002748,0.045918,-0.017506,0.260566,0.333162,0.706825,0.567015,102.779995,-0.542369,129.959440
53561,NaN,0.040144,9.559610,-2.200896,0.009358,-0.060226,-0.003101,0.004344,0.043123,-0.021276,0.260471,0.333010,0.706918,0.567033,102.783485,-0.538097,129.981946
53562,NaN,-0.005864,9.584561,-2.182711,0.056834,-0.079434,0.016785,0.007767,0.035958,-0.023868,0.260404,0.332871,0.707016,0.567023,102.788878,-0.531204,130.000977
53563,NaN,0.009129,9.598513,-2.194407,0.040720,-0.072083,0.033129,0.002223,0.020721,-0.020655,0.260390,0.332782,0.707072,0.567011,102.791273,-0.524440,130.010888
53564,NaN,0.002375,9.588355,-2.161996,0.067033,-0.057199,0.015996,0.001154,0.017026,-0.017022,0.260382,0.332713,0.707116,0.567002,102.793028,-0.518938,130.018330
53565,NaN,0.001314,9.588288,-2.162295,0.067430,-0.057348,0.015993,0.005089,0.018390,-0.013101,0.260350,0.332661,0.707164,0.566986,102.797087,-0.516100,130.025981
53566,NaN,0.005922,9.598290,-2.195392,0.041831,-0.072459,0.033122,0.005899,0.013675,-0.009978,0.260326,0.332633,0.707205,0.566963,102.801580,-0.514117,130.030679
53567,NaN,0.005643,9.598115,-2.196160,0.042227,-0.072607,0.033119,0.010112,0.016811,-0.002802,0.260262,0.332628,0.707249,0.566940,102.808537,-0.516833,130.036140
53568,NaN,0.033688,9.615952,-2.186798,0.035532,-0.042727,0.048685,0.006582,0.025605,0.001471,0.260162,0.332606,0.707288,0.566950,102.813343,-0.522779,130.046156
53569,NaN,0.021256,9.578288,-2.201064,0.027671,-0.067071,0.015001,0.001120,0.032073,0.007943,0.260028,0.332585,0.707308,0.566999,102.815081,-0.533439,130.058778
53570,NaN,0.036180,9.615753,-2.187634,0.036296,-0.042990,0.048681,0.009020,0.036453,0.005775,0.259874,0.332553,0.707361,0.567023,102.821275,-0.543173,130.074033
53571,NaN,0.108116,9.574883,-2.189463,-0.016269,0.004285,0.009916,0.008886,0.044764,0.015785,0.259661,0.332533,0.707406,0.567075,102.827399,-0.559831,130.092746
53572,NaN,0.062805,9.623259,-2.146553,0.055979,0.001737,0.047111,0.008886,0.044761,0.015781,0.259449,0.332512,0.707453,0.567127,102.833478,-0.576195,130.111429
53573,NaN,0.059807,9.612961,-2.114796,0.082342,0.016572,0.029970,0.008452,0.041277,0.015905,0.259249,0.332502,0.707493,0.567175,102.839362,-0.592479,130.128175
53574,NaN,0.076158,9.609445,-2.205801,0.006013,-0.030181,0.046919,0.008445,0.032947,0.017596,0.259074,0.332520,0.707519,0.567210,102.845257,-0.608338,130.140051
53575,NaN,0.112111,9.580225,-2.246416,-0.050164,-0.033679,0.027842,0.005857,0.028715,0.014978,0.258925,0.332539,0.707537,0.567245,102.849719,-0.622507,130.149895
53576,NaN,0.114107,9.580019,-2.247193,-0.049803,-0.033785,0.027843,0.011013,0.027150,0.013581,0.258778,0.332562,0.707570,0.567257,102.857087,-0.635403,130.159115
53577,NaN,0.132397,9.593839,-2.259215,-0.065896,-0.026409,0.044203,0.007509,0.020940,0.011219,0.258664,0.332592,0.707589,0.567269,102.862535,-0.646484,130.165092
53578,NaN,0.087071,9.528102,-2.251100,-0.040833,-0.065731,-0.022193,-0.000980,0.026331,0.005175,0.258565,0.332574,0.707600,0.567310,102.863050,-0.654608,130.174648
53579,NaN,0.065791,9.561009,-2.190248,0.025618,-0.040044,-0.003908,0.011116,0.025510,0.011890,0.258426,0.332598,0.707634,0.567317,102.870535,-0.666647,130.183090
53580,NaN,0.052409,9.637519,-2.169918,0.064900,-0.027599,0.065981,0.008737,0.018010,0.005898,0.258339,0.332620,0.707661,0.567311,102.876711,-0.674081,130.187801
53581,NaN,0.040029,9.599836,-2.184310,0.057004,-0.051930,0.032297,0.001149,0.010427,0.011310,0.258272,0.332671,0.707647,0.567327,102.878581,-0.683871,130.187890
53582,NaN,0.086091,9.574624,-2.203101,0.010266,-0.032880,0.012449,0.005330,0.003537,0.011867,0.258225,0.332751,0.707636,0.567317,102.882881,-0.692838,130.183732
53583,NaN,0.167693,9.594753,-2.165704,-0.009178,0.055298,0.024718,0.012757,0.009409,0.009835,0.258147,0.332815,0.707656,0.567289,102.891406,-0.701674,130.183439
53584,NaN,0.220998,9.653982,-2.121279,0.001973,0.131860,0.073194,0.011913,0.019099,0.006697,0.258046,0.332838,0.707693,0.567276,102.899315,-0.709704,130.189099
53585,NaN,0.258819,9.601137,-2.186956,-0.078994,0.111753,0.036824,0.004619,0.028241,0.003641,0.257932,0.332816,0.707726,0.567300,102.903036,-0.717490,130.200115
53586,NaN,0.143175,9.592281,-2.265162,-0.062455,-0.027470,0.044222,0.012046,0.034110,0.001607,0.257793,0.332778,0.707791,0.567304,102.910904,-0.724614,130.214799
53587,NaN,0.082451,9.603107,-2.236877,0.001533,-0.054312,0.047694,0.015534,0.030293,-0.002653,0.257671,0.332743,0.707867,0.567285,102.920852,-0.729151,130.227766
53588,NaN,0.107940,9.587133,-2.220582,-0.003924,-0.026101,0.028810,0.016075,0.032135,-0.004474,0.257551,0.332696,0.707950,0.567263,102.931100,-0.732618,130.241746
53589,NaN,0.080403,9.568816,-2.232282,0.003467,-0.056248,0.013227,0.013955,0.018082,-0.005510,0.257484,0.332684,0.708011,0.567225,102.940225,-0.733998,130.248258
53590,NaN,0.076912,9.592126,-2.208331,0.028629,-0.039723,0.030540,0.009159,0.009762,-0.009175,0.257465,0.332672,0.708054,0.567186,102.946543,-0.732033,130.250864
53591,NaN,0.110107,9.562772,-2.249107,-0.027565,-0.043147,0.011496,0.011414,0.008875,-0.008115,0.257441,0.332673,0.708101,0.567139,102.954273,-0.730778,130.252569
53592,NaN,0.075643,9.591690,-2.210268,0.029394,-0.039974,0.030537,0.008738,0.014604,-0.010748,0.257412,0.332643,0.708151,0.567106,102.960391,-0.728513,130.257759
53593,NaN,0.069480,9.581443,-2.178639,0.055763,-0.025168,0.013380,0.010887,0.015353,-0.008003,0.257367,0.332625,0.708204,0.567071,102.967774,-0.728153,130.263067
53594,NaN,0.066027,9.604774,-2.154677,0.080936,-0.008648,0.030689,0.011684,0.010646,-0.004867,0.257329,0.332630,0.708248,0.567030,102.975569,-0.728686,130.265524
53595,NaN,0.102099,9.609034,-2.202891,0.023583,-0.010365,0.046118,0.007534,0.004232,-0.003718,0.257316,0.332655,0.708270,0.566994,102.981117,-0.729289,130.264072
53596,NaN,0.079877,9.600865,-2.246574,0.004948,-0.055427,0.047687,0.009789,0.003346,-0.002657,0.257301,0.332686,0.708296,0.566950,102.987912,-0.730091,130.262073
53597,NaN,0.094104,9.581021,-2.251270,-0.009967,-0.049724,0.029593,0.013184,0.011189,0.001384,0.257240,0.332716,0.708335,0.566913,102.996656,-0.734438,130.263847
53598,NaN,0.080320,9.600309,-2.248930,0.005710,-0.055670,0.047685,0.013244,0.014531,-0.000314,0.257174,0.332729,0.708381,0.566877,103.005380,-0.737970,130.267708
53599,NaN,0.089391,9.570390,-2.221290,0.016766,-0.035027,0.012433,0.014804,0.018418,0.004240,0.257076,0.332751,0.708428,0.566850,103.015004,-0.744844,130.273148
53600,NaN,0.112514,9.594112,-2.266245,-0.025308,-0.042538,0.045967,0.011960,0.022440,0.004985,0.256968,0.332759,0.708472,0.566839,103.022911,-0.752399,130.280748
53601,NaN,0.094294,9.546220,-2.248715,-0.007295,-0.051904,-0.004875,0.012564,0.027622,0.001465,0.256850,0.332742,0.708529,0.566831,103.031178,-0.758914,130.291683
53602,NaN,0.147201,9.605507,-2.204495,0.003983,0.024636,0.043610,0.017509,0.029326,0.003451,0.256712,0.332730,0.708601,0.566811,103.042204,-0.766469,130.303535
53603,NaN,0.061666,9.631897,-2.194499,0.073749,-0.030608,0.065910,0.014650,0.025029,0.005907,0.256587,0.332739,0.708653,0.566797,103.051690,-0.775133,130.312446
53604,NaN,0.096549,9.602475,-2.235159,0.017510,-0.033949,0.046893,0.006052,0.023731,0.003234,0.256490,0.332730,0.708685,0.566807,103.056205,-0.781891,130.320912
53605,NaN,0.073077,9.560696,-2.271123,0.000023,-0.080717,0.013998,0.007763,0.021003,0.006117,0.256390,0.332742,0.708712,0.566811,103.061774,-0.790152,130.327546
53606,NaN,0.110646,9.564882,-2.319183,-0.057365,-0.082347,0.029454,0.009954,0.016776,0.008879,0.256295,0.332777,0.708736,0.566803,103.068611,-0.799126,130.331401
53607,NaN,0.119477,9.592329,-2.273425,-0.022614,-0.043399,0.045969,0.004637,0.014934,0.005325,0.256223,0.332799,0.708749,0.566806,103.072433,-0.806160,130.334748
53608,NaN,0.140017,9.582661,-2.309719,-0.063537,-0.052573,0.045051,-0.000307,0.013228,0.003335,0.256175,0.332813,0.708748,0.566821,103.073398,-0.811634,130.337180
53609,NaN,0.131711,9.596250,-2.252303,-0.012321,-0.021177,0.045184,0.003454,0.011182,0.002336,0.256127,0.332834,0.708757,0.566819,103.076566,-0.816513,130.338821
53610,NaN,0.190273,9.608564,-2.257008,-0.050653,0.022142,0.059077,0.005133,0.011725,-0.003111,0.256092,0.332836,0.708781,0.566804,103.080660,-0.818151,130.341368
53611,NaN,0.179180,9.604595,-2.278275,-0.059772,-0.000457,0.059866,-0.008578,0.007021,-0.004394,0.256098,0.332829,0.708762,0.566829,103.076955,-0.818736,130.341559
53612,NaN,0.134652,9.572724,-2.276948,-0.036024,-0.038120,0.027888,-0.002981,0.008930,-0.005908,0.256095,0.332819,0.708763,0.566834,103.076431,-0.818461,130.342812
53613,NaN,0.086727,9.564415,-2.250827,0.012595,-0.059221,0.013202,-0.004645,0.006679,-0.008777,0.256109,0.332803,0.708762,0.566839,103.074974,-0.816555,130.343379
53614,NaN,0.060413,9.637282,-2.250970,0.042468,-0.069373,0.083832,-0.002518,-0.000888,-0.004312,0.256134,0.332825,0.708750,0.566829,103.074771,-0.815895,130.339124
53615,NaN,0.046501,9.599836,-2.264178,0.034464,-0.093663,0.050149,-0.011721,-0.007365,-0.003467,0.256194,0.332859,0.708702,0.566843,103.069381,-0.815132,130.331165
53616,NaN,0.051382,9.594096,-2.209152,0.070341,-0.056409,0.032186,-0.009593,-0.014932,0.000997,0.256266,0.332931,0.708643,0.566841,103.065221,-0.815650,130.318386
53617,NaN,0.106989,9.573093,-2.205186,0.033190,-0.014795,0.011623,-0.005459,-0.016841,0.001561,0.256335,0.333017,0.708593,0.566823,103.063504,-0.816468,130.304486
53618,NaN,0.176114,9.589602,-2.187739,0.004424,0.051007,0.024744,-0.001370,-0.013772,0.002109,0.256386,0.333100,0.708557,0.566796,103.064090,-0.817700,130.292216
53619,NaN,0.156362,9.599224,-2.151510,0.046132,0.059899,0.025647,-0.001524,-0.007159,0.003778,0.256408,0.333172,0.708526,0.566782,103.064555,-0.821009,130.283433
53620,NaN,0.206994,9.584058,-2.202195,-0.026556,0.064201,0.023056,-0.000436,-0.003477,0.000136,0.256427,0.333221,0.708509,0.566766,103.065601,-0.822479,130.277033
53621,NaN,0.182109,9.599617,-2.220186,-0.020369,0.035732,0.041923,0.002536,0.009205,0.002596,0.256387,0.333247,0.708513,0.566764,103.068259,-0.827248,130.277537
53622,NaN,0.122022,9.569516,-2.295129,-0.041732,-0.061764,0.028684,0.003143,0.014386,-0.000925,0.256340,0.333246,0.708531,0.566764,103.071187,-0.830453,130.281389
53623,NaN,0.062807,9.598200,-2.187280,0.082579,-0.034846,0.031374,0.006859,0.017318,-0.001940,0.256277,0.333239,0.708565,0.566754,103.076248,-0.833742,130.287008
53624,NaN,0.066326,9.574422,-2.213025,0.058085,-0.051540,0.014083,0.009004,0.018068,0.000808,0.256203,0.333243,0.708600,0.566741,103.082517,-0.838450,130.292343
53625,NaN,0.022146,9.599446,-2.195529,0.105563,-0.071007,0.033836,0.005489,0.013569,0.006769,0.256131,0.333275,0.708611,0.566741,103.086839,-0.846113,130.294740
53626,NaN,0.015714,9.571739,-2.242347,0.071505,-0.110151,0.017333,0.002301,0.014184,0.014277,0.256043,0.333327,0.708601,0.566763,103.089302,-0.857796,130.296465
53627,NaN,0.017544,9.571614,-2.242866,0.071899,-0.110293,0.017329,0.008580,0.013025,0.017591,0.255937,0.333403,0.708601,0.566765,103.095420,-0.871428,130.297152
53628,NaN,0.064126,9.603452,-2.244245,0.048955,-0.072820,0.049327,0.004890,0.006823,0.026936,0.255835,0.333526,0.708568,0.566781,103.099468,-0.889232,130.292947
53629,NaN,0.066683,9.603364,-2.244545,0.049354,-0.072960,0.049324,0.001390,0.000619,0.024582,0.255765,0.333653,0.708520,0.566797,103.101589,-0.905155,130.285800
53630,NaN,0.186566,9.570766,-2.270906,-0.051301,-0.004355,0.025439,0.007187,0.000957,0.028015,0.255678,0.333798,0.708484,0.566796,103.107035,-0.922764,130.278176
53631,NaN,0.188720,9.627748,-2.254214,-0.027119,0.013755,0.077191,0.008063,0.007909,0.027738,0.255562,0.333924,0.708459,0.566805,103.112925,-0.941395,130.274685
53632,NaN,0.225516,9.598299,-2.294354,-0.083381,0.010559,0.058240,0.003450,0.011320,0.027290,0.255445,0.334032,0.708427,0.566834,103.116124,-0.959931,130.273125
53633,NaN,0.264151,9.586600,-2.255024,-0.079176,0.061220,0.038597,-0.001360,0.016298,0.021895,0.255332,0.334101,0.708397,0.566883,103.116524,-0.976392,130.275073
53634,NaN,0.213824,9.584196,-2.283352,-0.066175,0.002757,0.041847,0.002507,0.012612,0.019216,0.255235,0.334177,0.708377,0.566907,103.119152,-0.990625,130.275135
53635,NaN,0.212463,9.607739,-2.258538,-0.040880,0.019180,0.059128,0.001498,0.010566,0.012844,0.255163,0.334234,0.708362,0.566924,103.121224,-1.001289,130.275061
53636,NaN,0.202953,9.603766,-2.279772,-0.050078,-0.003368,0.059919,-0.005805,0.011392,0.011468,0.255105,0.334272,0.708331,0.566967,103.119051,-1.011007,130.275847
53637,NaN,0.198824,9.536617,-2.264439,-0.047484,-0.006857,-0.009016,0.002398,0.015812,0.004256,0.255037,0.334285,0.708339,0.566979,103.121567,-1.017561,130.279818
53638,NaN,0.177063,9.585796,-2.290084,-0.042448,-0.033633,0.044309,0.000665,0.010224,0.003089,0.254998,0.334307,0.708338,0.566985,103.123097,-1.022530,130.280716
53639,NaN,0.188478,9.589774,-2.268644,-0.032473,-0.011320,0.043521,0.000225,0.006748,0.003227,0.254968,0.334340,0.708331,0.566988,103.124455,-1.027332,130.279762
53640,NaN,0.141969,9.597477,-2.329289,-0.045491,-0.084654,0.063955,-0.005130,0.009890,-0.000348,0.254950,0.334344,0.708318,0.567010,103.122712,-1.030286,130.280790
53641,NaN,0.139794,9.563979,-2.321330,-0.044002,-0.086463,0.029487,-0.002585,0.019089,0.002243,0.254885,0.334334,0.708320,0.567042,103.122334,-1.036143,130.286851
53642,NaN,0.128795,9.544056,-2.256181,0.008352,-0.056838,-0.004903,0.002193,0.030669,-0.002431,0.254787,0.334282,0.708358,0.567070,103.124573,-1.040664,130.299650
53643,NaN,0.152974,9.626713,-2.117591,0.112204,0.059965,0.044544,0.014926,0.040058,0.007412,0.254603,0.334254,0.708428,0.567082,103.134025,-1.052135,130.316740
53644,NaN,0.191007,9.630703,-2.165898,0.054858,0.058473,0.060083,0.011383,0.038833,0.005036,0.254439,0.334216,0.708490,0.567100,103.141410,-1.061942,130.333218
53645,NaN,0.154134,9.608531,-2.198677,0.052515,0.005867,0.045254,0.008326,0.046127,0.009130,0.254240,0.334168,0.708546,0.567148,103.147015,-1.075167,130.353468
53646,NaN,0.198309,9.549339,-2.210223,0.006903,0.023481,-0.008929,0.016619,0.050610,0.008548,0.254014,0.334114,0.708632,0.567173,103.157247,-1.088431,130.376457
53647,NaN,0.191979,9.578512,-2.240877,-0.003356,0.002582,0.026330,0.018499,0.049581,0.008049,0.253789,0.334065,0.708723,0.567189,103.168632,-1.101511,130.398771
53648,NaN,0.130513,9.571796,-2.292424,-0.000010,-0.078339,0.030350,0.015698,0.048628,0.008796,0.253571,0.334016,0.708804,0.567214,103.178380,-1.114629,130.420521
53649,NaN,0.135521,9.547857,-2.318495,-0.024528,-0.094997,0.013081,0.008953,0.038006,0.007334,0.253405,0.333986,0.708854,0.567243,103.184410,-1.125805,130.436466
53650,NaN,0.134242,9.514046,-2.311785,-0.023080,-0.096778,-0.021388,0.010575,0.035207,0.003595,0.253259,0.333952,0.708912,0.567257,103.191364,-1.134334,130.451077
53651,NaN,0.124076,9.567072,-2.316662,-0.008428,-0.101152,0.031138,0.005305,0.025134,0.008387,0.253142,0.333957,0.708933,0.567279,103.195445,-1.144418,130.459700
53652,NaN,0.101974,9.600332,-2.256161,0.058184,-0.075817,0.049255,0.003684,0.017913,0.005544,0.253062,0.333969,0.708947,0.567291,103.198602,-1.151747,130.464782
53653,NaN,0.153585,9.584881,-2.306610,-0.014471,-0.071365,0.046759,-0.002656,0.002460,0.005673,0.253046,0.334018,0.708922,0.567300,103.198366,-1.157351,130.461109
53654,NaN,0.176031,9.592948,-2.263311,0.005096,-0.026598,0.045177,-0.002878,0.005732,0.009033,0.253011,0.334070,0.708895,0.567319,103.197959,-1.165029,130.458641
53655,NaN,0.129605,9.584764,-2.237638,0.053627,-0.047842,0.030399,-0.001219,0.007978,0.011901,0.252956,0.334128,0.708870,0.567340,103.198502,-1.174829,130.457232
53656,NaN,0.172727,9.582998,-2.230692,0.031865,-0.011996,0.027968,0.004163,0.013146,0.013759,0.252868,0.334182,0.708866,0.567353,103.202020,-1.186075,130.458714
53657,NaN,0.184636,9.644164,-2.191981,0.065739,0.028482,0.078907,-0.000519,0.013223,0.015000,0.252784,0.334237,0.708845,0.567385,103.202911,-1.198289,130.459825
53658,NaN,0.193583,9.539677,-2.258839,-0.007623,-0.022815,-0.007347,-0.006678,0.009490,0.018320,0.252715,0.334304,0.708797,0.567435,103.200287,-1.211618,130.458469
53659,NaN,0.147271,9.588652,-2.216190,0.064772,-0.025897,0.029597,0.010062,0.011837,0.015528,0.252616,0.334378,0.708803,0.567427,103.207258,-1.223946,130.458737
53660,NaN,0.171260,9.669522,-2.243095,0.046631,-0.015058,0.114953,0.004860,0.005106,0.018615,0.252543,0.334474,0.708782,0.567430,103.211320,-1.236839,130.454903
53661,NaN,0.190714,9.568974,-2.288674,-0.017114,-0.043933,0.027914,-0.007234,-0.002362,0.013564,0.252529,0.334560,0.708725,0.567457,103.208548,-1.246213,130.447505
53662,NaN,0.222611,9.563306,-2.302671,-0.048457,-0.030510,0.026286,-0.001962,-0.005577,0.010528,0.252530,0.334651,0.708683,0.567456,103.208792,-1.253298,130.438399
53663,NaN,0.270248,9.555581,-2.241599,-0.034550,0.042581,0.005863,0.003312,0.001223,0.014067,0.252484,0.334741,0.708659,0.567452,103.212022,-1.263421,130.432935
53664,NaN,0.218531,9.610509,-2.253028,0.002216,0.002263,0.060801,0.000218,0.003477,0.011548,0.252446,0.334813,0.708634,0.567459,103.213478,-1.272145,130.428818
53665,NaN,0.205861,9.572997,-2.266657,-0.005938,-0.021965,0.027123,-0.006305,0.002879,0.004973,0.252436,0.334854,0.708600,0.567480,103.211153,-1.277413,130.425469
53666,NaN,0.215811,9.559366,-2.323594,-0.056504,-0.053367,0.027084,-0.004723,0.001786,0.009546,0.252420,0.334919,0.708561,0.567498,103.209816,-1.284851,130.420296
53667,NaN,0.196609,9.569134,-2.287505,-0.014766,-0.044615,0.027915,0.001917,0.004015,0.006110,0.252389,0.334972,0.708550,0.567494,103.212191,-1.290901,130.417432
53668,NaN,0.167874,9.592661,-2.193901,0.077910,-0.004551,0.028778,-0.005716,-0.000257,0.003177,0.252398,0.335019,0.708516,0.567505,103.210215,-1.294603,130.412112
53669,NaN,0.188176,9.582978,-2.229526,0.036979,-0.013560,0.027949,-0.001111,-0.003675,0.003642,0.252407,0.335080,0.708492,0.567496,103.210945,-1.298270,130.405281
53670,NaN,0.222600,9.553584,-2.268748,-0.019316,-0.016582,0.009079,-0.002144,-0.004012,0.005579,0.252416,0.335148,0.708460,0.567491,103.211109,-1.302695,130.397868
53671,NaN,0.222889,9.553632,-2.268517,-0.018911,-0.016712,0.009079,-0.002881,-0.004283,0.002454,0.252433,0.335205,0.708432,0.567486,103.210831,-1.305619,130.390853
53672,NaN,0.270073,9.618974,-2.276670,-0.042700,0.022508,0.075613,0.004127,-0.001918,0.000581,0.252438,0.335259,0.708429,0.567455,103.214556,-1.307559,130.385095
53673,NaN,0.250593,9.571470,-2.258198,-0.024873,0.013100,0.024716,-0.001357,0.007837,-0.001355,0.252421,0.335270,0.708426,0.567460,103.214985,-1.309946,130.385340
53674,NaN,0.233721,9.557655,-2.246831,-0.008110,0.005394,0.008287,-0.005819,0.004647,-0.003474,0.252433,0.335279,0.708409,0.567470,103.212947,-1.310488,130.383558
53675,NaN,0.216681,9.543797,-2.235656,0.008669,-0.002352,-0.008143,0.002513,0.004148,-0.004016,0.252429,0.335296,0.708417,0.567451,103.215633,-1.310907,130.382094
53676,NaN,0.215784,9.600905,-2.218848,0.032983,0.015682,0.043574,0.009075,0.003040,-0.005747,0.252427,0.335319,0.708445,0.567404,103.222099,-1.309978,130.379973
53677,NaN,0.187689,9.582978,-2.229568,0.040127,-0.014488,0.027935,-0.004753,0.000011,-0.005386,0.252454,0.335333,0.708430,0.567403,103.220670,-1.309091,130.376380
53678,NaN,0.173098,9.602695,-2.225979,0.055846,-0.020545,0.045972,0.001298,0.005376,-0.007026,0.252460,0.335336,0.708441,0.567385,103.222653,-1.307760,130.375634
53679,NaN,0.178635,9.612517,-2.258949,0.030245,-0.035477,0.063196,0.008041,0.002703,-0.003810,0.252452,0.335365,0.708462,0.567345,103.228525,-1.308104,130.373337
53680,NaN,0.206494,9.573047,-2.266389,-0.000051,-0.023672,0.027121,0.004760,0.003256,-0.002945,0.252447,0.335390,0.708474,0.567317,103.232481,-1.308792,130.371123
53681,NaN,0.223256,9.586885,-2.277680,-0.016012,-0.016181,0.043555,0.001291,0.002109,0.001305,0.252438,0.335431,0.708467,0.567306,103.234508,-1.311911,130.367823
53682,NaN,0.165492,9.517467,-2.291331,-0.001163,-0.078027,-0.022198,0.003171,0.001082,0.000814,0.252434,0.335475,0.708464,0.567285,103.237599,-1.314430,130.363772
53683,NaN,0.164798,9.574556,-2.274593,0.023194,-0.060042,0.029513,0.009476,-0.001797,-0.004158,0.252440,0.335517,0.708485,0.567232,103.244351,-1.313989,130.359010
53684,NaN,0.233828,9.590598,-2.257364,-0.005198,0.005897,0.042762,-0.001402,-0.000473,0.000375,0.252450,0.335558,0.708468,0.567224,103.244870,-1.316010,130.354166
53685,NaN,0.209461,9.549107,-2.292530,-0.023065,-0.040721,0.009880,-0.004572,-0.001555,-0.000439,0.252469,0.335595,0.708443,0.567225,103.243580,-1.317675,130.349050
53686,NaN,0.213087,9.468255,-2.334662,-0.071642,-0.075378,-0.059068,0.001512,-0.001163,-0.002054,0.252484,0.335634,0.708438,0.567202,103.245766,-1.318295,130.343994
53687,NaN,0.233477,9.590502,-2.257811,-0.003996,0.005530,0.042763,0.016664,-0.000996,-0.001084,0.252467,0.335694,0.708474,0.567128,103.256635,-1.319673,130.339274
53688,NaN,0.272367,9.685189,-2.296145,-0.038363,0.024002,0.144586,0.006529,0.003865,-0.001757,0.252454,0.335725,0.708489,0.567097,103.261603,-1.321135,130.337113
53689,NaN,0.283673,9.631931,-2.292050,-0.052273,0.028181,0.092086,-0.004084,0.010226,-0.002314,0.252435,0.335723,0.708483,0.567114,103.260436,-1.323301,130.338816
53690,NaN,0.314962,9.569024,-2.323435,-0.107558,0.023585,0.038792,-0.002529,0.017372,-0.006101,0.252403,0.335690,0.708496,0.567131,103.260063,-1.324105,130.344575
53691,NaN,0.267188,9.560784,-2.298432,-0.059102,0.002223,0.023942,0.012787,0.037492,-0.010302,0.252282,0.335603,0.708586,0.567124,103.268187,-1.325401,130.362537
53692,NaN,0.274581,9.588214,-2.252998,-0.024056,0.040967,0.040382,0.011028,0.050160,-0.013256,0.252130,0.335469,0.708692,0.567140,103.275140,-1.326504,130.387661
53693,NaN,0.194046,9.625078,-2.275768,0.019401,-0.029536,0.079616,0.009480,0.056290,-0.011237,0.251951,0.335321,0.708797,0.567175,103.281122,-1.329757,130.416231
53694,NaN,0.122288,9.575228,-2.286339,0.049503,-0.097356,0.031872,0.001661,0.050312,-0.010793,0.251807,0.335182,0.708872,0.567227,103.282713,-1.332236,130.441208
53695,NaN,0.094925,9.557255,-2.297118,0.056585,-0.127532,0.016220,0.003786,0.037778,-0.006276,0.251689,0.335097,0.708930,0.567257,103.285686,-1.335821,130.458799
53696,NaN,0.116658,9.565220,-2.254260,0.076299,-0.082826,0.014624,0.001897,0.025526,-0.004023,0.251615,0.335055,0.708962,0.567274,103.287783,-1.338846,130.468726
53697,NaN,0.139728,9.588972,-2.297965,0.034338,-0.090086,0.048310,0.003178,0.014359,-0.000951,0.251566,0.335055,0.708980,0.567274,103.290727,-1.342317,130.472553
53698,NaN,0.117278,9.565090,-2.254777,0.077082,-0.083067,0.014616,0.003429,0.016131,0.002290,0.251505,0.335065,0.708994,0.567278,103.293847,-1.347637,130.476268
53699,NaN,0.187096,9.581215,-2.237182,0.048800,-0.017131,0.027891,0.001992,0.020627,0.002632,0.251426,0.335058,0.709010,0.567297,103.296040,-1.353932,130.483118
53700,NaN,0.213036,9.565462,-2.219340,0.043510,0.011139,0.009070,0.006587,0.027226,0.009672,0.251296,0.335062,0.709036,0.567320,103.300737,-1.364842,130.492729
53701,NaN,0.203676,9.561302,-2.241396,0.034241,-0.011393,0.009864,0.004934,0.024979,0.006802,0.251184,0.335061,0.709059,0.567341,103.304568,-1.374038,130.501456
53702,NaN,0.212343,9.588714,-2.196028,0.069315,0.027314,0.026292,0.019127,0.028145,0.008025,0.251035,0.335072,0.709125,0.567318,103.316460,-1.384103,130.511837
53703,NaN,0.271055,9.582724,-2.279928,-0.029337,0.017298,0.041194,0.008354,0.027832,0.010857,0.250896,0.335082,0.709154,0.567337,103.322221,-1.395939,130.521617
53704,NaN,0.255677,9.568526,-2.270071,-0.012613,0.009536,0.024743,0.016039,0.030393,0.005495,0.250752,0.335076,0.709217,0.567326,103.332274,-1.404993,130.533289
53705,NaN,0.260153,9.544391,-2.296706,-0.037231,-0.006997,0.007521,0.022208,0.034116,0.002181,0.250592,0.335055,0.709308,0.567296,103.345857,-1.412825,130.547717
53706,NaN,0.253342,9.573490,-2.327577,-0.047519,-0.027831,0.042793,0.014683,0.038220,0.004117,0.250429,0.335022,0.709378,0.567299,103.355119,-1.422074,130.563619
53707,NaN,0.245382,9.529650,-2.289067,-0.020104,-0.014864,-0.008930,0.021563,0.037170,-0.002662,0.250273,0.334974,0.709480,0.567270,103.368269,-1.427617,130.580387
53708,NaN,0.218039,9.568569,-2.284145,0.010958,-0.026960,0.027106,0.015324,0.043382,0.000574,0.250096,0.334909,0.709566,0.567277,103.377710,-1.435572,130.600385
53709,NaN,0.210913,9.597731,-2.314786,0.000687,-0.047828,0.062376,0.016117,0.041941,-0.004604,0.249938,0.334834,0.709661,0.567273,103.387663,-1.440671,130.620070
53710,NaN,0.205489,9.587472,-2.283937,0.027087,-0.033181,0.045121,0.020456,0.046764,-0.000808,0.249747,0.334764,0.709768,0.567265,103.400055,-1.448288,130.641805
53711,NaN,0.175500,9.592773,-2.271716,0.059167,-0.046965,0.046678,0.022338,0.045734,-0.001294,0.249555,0.334697,0.709880,0.567249,103.413525,-1.455743,130.663162
53712,NaN,0.207423,9.586492,-2.287873,0.027867,-0.033410,0.045118,0.020852,0.041927,0.000786,0.249374,0.334645,0.709980,0.567234,103.426170,-1.463614,130.682247
53713,NaN,0.194376,9.605663,-2.286635,0.043619,-0.039541,0.063131,0.022650,0.037567,0.002016,0.249202,0.334613,0.710076,0.567207,103.439941,-1.471838,130.698608
53714,NaN,0.163750,9.593045,-2.353160,0.014904,-0.106820,0.065524,0.014509,0.031543,0.007516,0.249050,0.334608,0.710133,0.567205,103.449123,-1.482124,130.710779
53715,NaN,0.207310,9.533673,-2.364163,-0.030734,-0.088929,0.011482,0.014266,0.029767,0.004276,0.248913,0.334596,0.710193,0.567198,103.458206,-1.490573,130.722487
53716,NaN,0.149531,9.578451,-2.345026,0.032010,-0.114715,0.049059,0.016667,0.027321,0.010312,0.248766,0.334618,0.710245,0.567184,103.468708,-1.501917,130.731566
53717,NaN,0.120192,9.583952,-2.332078,0.064078,-0.128511,0.050606,0.008228,0.011230,0.014334,0.248676,0.334687,0.710247,0.567180,103.474634,-1.513499,130.731596
53718,NaN,0.173342,9.568088,-2.382468,-0.008587,-0.123659,0.048304,0.003814,0.008123,0.018833,0.248594,0.334776,0.710226,0.567191,103.478084,-1.526961,130.729153
53719,NaN,0.210651,9.556494,-2.342474,-0.004123,-0.072997,0.028695,-0.003117,0.009097,0.018968,0.248518,0.334853,0.710186,0.567229,103.477558,-1.540841,130.727375
53720,NaN,0.189665,9.532796,-2.299079,0.038603,-0.066034,-0.005033,0.003524,0.003099,0.023937,0.248441,0.334976,0.710148,0.567238,103.480969,-1.556497,130.721119
53721,NaN,0.174686,9.576115,-2.271350,0.079410,-0.055803,0.030183,0.002754,-0.000427,0.029150,0.248359,0.335124,0.710095,0.567252,103.483990,-1.574778,130.712670
53722,NaN,0.222035,9.607791,-2.271611,0.056879,-0.018202,0.062311,-0.001183,-0.005031,0.033538,0.248292,0.335298,0.710017,0.567276,103.484826,-1.594762,130.700561
53723,NaN,0.142582,9.554161,-2.303236,0.077088,-0.108485,0.015308,-0.010024,-0.016288,0.035953,0.248269,0.335499,0.709897,0.567317,103.480805,-1.614714,130.682361
53724,NaN,0.107509,9.532275,-2.335171,0.074349,-0.161035,0.000436,0.001419,-0.024019,0.038025,0.248251,0.335745,0.709796,0.567307,103.483445,-1.634644,130.659245
53725,NaN,0.138295,9.550126,-2.324401,0.068150,-0.131112,0.016099,-0.003535,-0.033923,0.044387,0.248255,0.336034,0.709658,0.567306,103.483470,-1.656939,130.630088
53726,NaN,0.176568,9.595822,-2.266886,0.096725,-0.062417,0.048169,-0.006016,-0.047994,0.048484,0.248307,0.336377,0.709488,0.567293,103.482364,-1.679449,130.591954
53727,NaN,0.211014,9.589987,-2.280442,0.065473,-0.048855,0.046629,-0.008322,-0.055406,0.049149,0.248382,0.336738,0.709302,0.567278,103.480041,-1.701529,130.550186
53728,NaN,0.231743,9.546609,-2.307759,0.025441,-0.059287,0.011418,-0.010152,-0.064318,0.049702,0.248495,0.337127,0.709097,0.567254,103.476877,-1.722538,130.502746
53729,NaN,0.268781,9.574287,-2.328972,-0.006766,-0.044065,0.044357,-0.006869,-0.064889,0.048838,0.248602,0.337516,0.708904,0.567217,103.475576,-1.743182,130.455734
53730,NaN,0.251681,9.584313,-2.292558,0.035003,-0.035476,0.045088,-0.010107,-0.074272,0.049759,0.248750,0.337933,0.708687,0.567175,103.472660,-1.762864,130.402753
53731,NaN,0.250594,9.532951,-2.362882,-0.024472,-0.090681,0.011484,-0.013389,-0.073719,0.050600,0.248894,0.338344,0.708460,0.567149,103.467816,-1.783317,130.350585
53732,NaN,0.250584,9.556936,-2.336732,0.000995,-0.074428,0.028685,-0.017711,-0.073498,0.053377,0.249042,0.338764,0.708216,0.567140,103.460569,-1.805179,130.297396
53733,NaN,0.267774,9.537367,-2.338894,-0.013952,-0.068522,0.010683,-0.010199,-0.077641,0.051423,0.249193,0.339193,0.707992,0.567097,103.457663,-1.825578,130.242934
53734,NaN,0.237095,9.567194,-2.299052,0.043175,-0.066005,0.029407,-0.008172,-0.075278,0.055832,0.249324,0.339638,0.707767,0.567053,103.455913,-1.848666,130.188342
53735,NaN,0.257604,9.581037,-2.309302,0.027282,-0.058453,0.045880,-0.011436,-0.079695,0.056712,0.249469,0.340091,0.707527,0.567017,103.452401,-1.871742,130.132030
53736,NaN,0.264285,9.614693,-2.316036,0.026735,-0.056903,0.080353,-0.012473,-0.080040,0.058630,0.249617,0.340555,0.707279,0.566983,103.448422,-1.895673,130.074211
53737,NaN,0.348404,9.577054,-2.293204,-0.015731,0.013510,0.041231,-0.010242,-0.075982,0.059653,0.249739,0.341008,0.707042,0.566952,103.445586,-1.920890,130.019578
53738,NaN,0.355435,9.610503,-2.300592,-0.016271,0.015058,0.075706,-0.000991,-0.069590,0.058804,0.249829,0.341457,0.706839,0.566896,103.448014,-1.946326,129.967686
53739,NaN,0.353835,9.657802,-2.250944,0.034331,0.047596,0.110097,-0.001308,-0.059720,0.063783,0.249866,0.341890,0.706641,0.566866,103.450056,-1.976009,129.921567
53740,NaN,0.378502,9.590429,-2.303602,-0.030795,0.020881,0.057712,-0.013293,-0.053777,0.063593,0.249910,0.342298,0.706413,0.566885,103.445260,-2.006241,129.877374
53741,NaN,0.352594,9.539256,-2.305691,-0.022900,-0.010946,0.007561,-0.004514,-0.040912,0.062828,0.249888,0.342670,0.706230,0.566897,103.445139,-2.037901,129.841869
53742,NaN,0.357462,9.539068,-2.305718,-0.022494,-0.011035,0.007562,0.002229,-0.035389,0.057675,0.249857,0.343024,0.706079,0.566885,103.448886,-2.067256,129.808887
53743,NaN,0.345444,9.582354,-2.277961,0.018372,-0.000883,0.042748,0.006346,-0.037339,0.058243,0.249817,0.343383,0.705939,0.566859,103.454930,-2.096833,129.775981
53744,NaN,0.371762,9.589898,-2.235395,0.038294,0.043773,0.041142,-0.000752,-0.039733,0.053505,0.249820,0.343734,0.705781,0.566843,103.457169,-2.123251,129.740618
53745,NaN,0.381557,9.542210,-2.285277,-0.011505,0.011009,0.006762,-0.000654,-0.046350,0.051852,0.249842,0.344087,0.705621,0.566818,103.459389,-2.148062,129.703537
53746,NaN,0.388158,9.518206,-2.310575,-0.036199,-0.005396,-0.010426,0.005527,-0.042666,0.048518,0.249857,0.344434,0.705485,0.566769,103.465216,-2.171355,129.667467
53747,NaN,0.427406,9.563063,-2.254599,-0.007446,0.063219,0.021641,0.006378,-0.050719,0.041696,0.249911,0.344773,0.705356,0.566699,103.471535,-2.189918,129.629299
53748,NaN,0.452451,9.528921,-2.316104,-0.073523,0.038213,0.003754,0.001711,-0.047335,0.034625,0.249991,0.345082,0.705227,0.566637,103.475296,-2.204840,129.592045
53749,NaN,0.507441,9.587346,-2.271625,-0.061030,0.114522,0.052308,0.016880,-0.039039,0.027205,0.250027,0.345350,0.705168,0.566532,103.487328,-2.216880,129.562322
53750,NaN,0.512620,9.677693,-2.263607,-0.037364,0.134023,0.138447,0.010247,-0.032972,0.022310,0.250068,0.345574,0.705106,0.566454,103.495414,-2.226745,129.536563
53751,NaN,0.474417,9.598837,-2.313166,-0.064387,0.063529,0.071911,-0.000875,-0.025083,0.015292,0.250119,0.345737,0.705035,0.566421,103.496918,-2.234006,129.516212
53752,NaN,0.502449,9.558983,-2.320242,-0.094706,0.075560,0.035940,0.002884,-0.013940,0.005935,0.250152,0.345840,0.705004,0.566381,103.500290,-2.237296,129.503256
53753,NaN,0.553171,9.599600,-2.354618,-0.143110,0.098545,0.085412,0.015808,-0.004735,-0.002551,0.250153,0.345904,0.705036,0.566302,103.510819,-2.237336,129.496638
53754,NaN,0.483622,9.641629,-2.355281,-0.090143,0.050212,0.123690,-0.001490,0.004449,-0.006258,0.250163,0.345906,0.705037,0.566294,103.511224,-2.236297,129.495569
53755,NaN,0.454510,9.566965,-2.382455,-0.107435,0.002092,0.056352,-0.004383,0.008435,-0.012138,0.250180,0.345874,0.705045,0.566297,103.509847,-2.232758,129.497578
53756,NaN,0.405768,9.559765,-2.356341,-0.059150,-0.019470,0.041359,-0.002691,0.013940,-0.017597,0.250191,0.345808,0.705075,0.566296,103.509300,-2.226678,129.503321
53757,NaN,0.409924,9.569640,-2.388674,-0.084782,-0.034244,0.058657,-0.001852,0.005889,-0.024413,0.250247,0.345743,0.705108,0.566270,103.509366,-2.215960,129.505554
53758,NaN,0.387888,9.580053,-2.351951,-0.042996,-0.025750,0.059346,-0.012332,0.000748,-0.026555,0.250346,0.345671,0.705109,0.566269,103.503537,-2.203125,129.505142
53759,NaN,0.376907,9.552816,-2.397060,-0.077497,-0.064517,0.042975,-0.013452,0.000350,-0.031231,0.250461,0.345582,0.705114,0.566266,103.497041,-2.187867,129.505198
53760,NaN,0.343277,9.559425,-2.381434,-0.045491,-0.078386,0.044465,-0.008400,0.000366,-0.030926,0.250567,0.345501,0.705133,0.566244,103.493453,-2.172547,129.505157
53761,NaN,0.371366,9.610871,-2.377638,-0.052474,-0.046807,0.094631,-0.015695,0.006231,-0.032324,0.250668,0.345389,0.705141,0.566258,103.485542,-2.157466,129.508635
53762,NaN,0.369971,9.572000,-2.314341,-0.015355,-0.011540,0.042051,-0.016625,0.007536,-0.040379,0.250791,0.345244,0.705162,0.566266,103.477047,-2.137837,129.513852
53763,NaN,0.355745,9.568671,-2.333989,-0.024728,-0.034019,0.042857,-0.020280,0.014655,-0.032807,0.250871,0.345101,0.705168,0.566310,103.466335,-2.123611,129.522086
53764,NaN,0.377382,9.553299,-2.314054,-0.029915,-0.005684,0.024073,-0.018965,0.015052,-0.039799,0.250969,0.344933,0.705191,0.566340,103.456352,-2.105306,129.531410
53765,NaN,0.315815,9.542456,-2.307990,0.008585,-0.049668,0.009862,-0.017947,0.027034,-0.033502,0.251004,0.344756,0.705221,0.566396,103.446725,-2.092339,129.546635
53766,NaN,0.283493,9.564894,-2.377975,-0.021298,-0.115180,0.046755,-0.023561,0.025171,-0.031996,0.251052,0.344581,0.705230,0.566469,103.433947,-2.079728,129.560555
53767,NaN,0.281368,9.622733,-2.358605,0.003359,-0.097400,0.098402,-0.018606,0.026828,-0.030014,0.251079,0.344415,0.705252,0.566531,103.423970,-2.068672,129.575196
53768,NaN,0.284199,9.617435,-2.302252,0.039582,-0.060515,0.080288,-0.027873,0.030379,-0.029222,0.251108,0.344230,0.705250,0.566632,103.408639,-2.058292,129.591646
53769,NaN,0.323737,9.558781,-2.309452,-0.006089,-0.042399,0.026359,-0.036391,0.029216,-0.025289,0.251143,0.344052,0.705216,0.566767,103.388452,-2.050179,129.606985
53770,NaN,0.325304,9.535966,-2.330926,-0.030860,-0.058758,0.009191,-0.034069,0.033344,-0.017638,0.251140,0.343892,0.705181,0.566910,103.369572,-2.046637,129.623545
53771,NaN,0.266262,9.582462,-2.306405,0.031879,-0.084861,0.046611,-0.027818,0.042078,-0.014373,0.251085,0.343727,0.705168,0.567050,103.354095,-2.046302,129.644606
53772,NaN,0.262788,9.606939,-2.278202,0.057422,-0.068698,0.063776,-0.037907,0.032070,-0.014963,0.251085,0.343575,0.705116,0.567207,103.333056,-2.044073,129.660100
53773,NaN,0.287067,9.534697,-2.273698,0.027995,-0.058290,-0.006650,-0.040549,0.039506,-0.009324,0.251046,0.343419,0.705055,0.567395,103.310360,-2.046198,129.679059
53774,NaN,0.276136,9.531734,-2.291470,0.018576,-0.080732,-0.005844,-0.035490,0.034557,-0.008990,0.251016,0.343283,0.705003,0.567555,103.290684,-2.047613,129.695150
53775,NaN,0.321058,9.621117,-2.271069,0.020572,-0.025181,0.077998,-0.035691,0.037820,-0.005639,0.250964,0.343151,0.704947,0.567727,103.270821,-2.051558,129.712684
53776,NaN,0.304730,9.608265,-2.256160,0.037207,-0.033004,0.061491,-0.042910,0.038745,-0.000417,0.250908,0.343025,0.704864,0.567931,103.246850,-2.058293,129.729987
53777,NaN,0.256184,9.584002,-2.305413,0.024441,-0.107892,0.047405,-0.044508,0.036565,0.003327,0.250850,0.342917,0.704767,0.568143,103.221998,-2.067060,129.745647
53778,NaN,0.271432,9.565177,-2.304677,0.009494,-0.101877,0.029434,-0.041619,0.032574,0.009209,0.250794,0.342855,0.704659,0.568339,103.199159,-2.078397,129.756503
53779,NaN,0.297460,9.607324,-2.264952,0.028643,-0.055692,0.062293,-0.043551,0.023608,0.003117,0.250781,0.342784,0.704548,0.568525,103.175112,-2.085340,129.764966
53780,NaN,0.332435,9.578685,-2.300059,-0.027722,-0.058194,0.043673,-0.045824,0.026190,0.010337,0.250749,0.342736,0.704419,0.568728,103.149924,-2.096467,129.772566
53781,NaN,0.314004,9.589520,-2.259606,0.014105,-0.049814,0.044322,-0.045722,0.024556,0.008653,0.250721,0.342679,0.704293,0.568930,103.124637,-2.106615,129.780842
53782,NaN,0.340157,9.574471,-2.237227,0.008970,-0.021444,0.025547,-0.043016,0.027118,0.009584,0.250683,0.342629,0.704175,0.569123,103.101081,-2.117348,129.789178
53783,NaN,0.346327,9.569132,-2.179106,0.045256,0.015367,0.007417,-0.040576,0.027922,0.007277,0.250637,0.342564,0.704071,0.569311,103.078663,-2.127158,129.799521
53784,NaN,0.370672,9.593797,-2.218515,0.003379,0.008429,0.041249,-0.040576,0.027919,0.007273,0.250598,0.342505,0.703966,0.569494,103.056465,-2.136676,129.808766
53785,NaN,0.358183,9.614440,-2.211115,0.019160,0.002193,0.059213,-0.038333,0.027010,0.008340,0.250549,0.342449,0.703865,0.569674,103.035352,-2.146954,129.818469
53786,NaN,0.373418,9.595481,-2.210756,0.004221,0.008211,0.041249,-0.040111,0.031383,0.007133,0.250499,0.342383,0.703763,0.569861,103.013322,-2.156961,129.829198
53787,NaN,0.374409,9.539191,-2.224708,-0.019687,-0.009775,-0.010382,-0.036060,0.029402,0.001097,0.250459,0.342298,0.703684,0.570027,102.993424,-2.163496,129.841180
53788,NaN,0.389298,9.577241,-2.207166,-0.010300,0.014126,0.023286,-0.031215,0.032685,0.004788,0.250396,0.342232,0.703614,0.570181,102.976528,-2.172255,129.852928
53789,NaN,0.407103,9.591683,-2.215087,-0.026111,0.021738,0.039803,-0.027535,0.035551,-0.002817,0.250330,0.342126,0.703574,0.570323,102.961361,-2.177388,129.868853
53790,NaN,0.393673,9.555050,-2.226333,-0.034665,-0.002310,0.006137,-0.032115,0.034017,-0.003276,0.250284,0.342022,0.703517,0.570475,102.943743,-2.181869,129.882965
53791,NaN,0.363112,9.561734,-2.208920,-0.002659,-0.016296,0.007580,-0.028634,0.035168,-0.007508,0.250235,0.341900,0.703481,0.570615,102.927929,-2.184324,129.899281
53792,NaN,0.387773,9.603352,-2.170368,0.016568,0.029921,0.040437,-0.024884,0.033102,-0.008487,0.250196,0.341790,0.703453,0.570732,102.914511,-2.185712,129.913456
53793,NaN,0.335310,9.602475,-2.196833,0.028901,-0.028734,0.043497,-0.021611,0.037507,-0.009353,0.250132,0.341663,0.703443,0.570848,102.902661,-2.187429,129.931317
53794,NaN,0.373638,9.567141,-2.179918,0.008424,0.005761,0.006770,-0.025250,0.032972,-0.010056,0.250098,0.341548,0.703417,0.570964,102.889049,-2.187902,129.945569
53795,NaN,0.321059,9.623313,-2.188755,0.045100,-0.035060,0.061451,-0.017860,0.035440,-0.010332,0.250038,0.341428,0.703417,0.571063,102.879388,-2.188800,129.962400
53796,NaN,0.323981,9.600263,-2.212081,0.020308,-0.051338,0.044304,-0.017488,0.030594,-0.008765,0.249996,0.341335,0.703407,0.571149,102.870288,-2.189688,129.975081
53797,NaN,0.334316,9.604365,-2.188706,0.030567,-0.029143,0.043491,-0.017178,0.030686,-0.013820,0.249961,0.341217,0.703409,0.571233,102.861102,-2.188026,129.989700
53798,NaN,0.358346,9.588684,-2.168877,0.025471,-0.000765,0.024723,-0.016813,0.030809,-0.012260,0.249929,0.341114,0.703406,0.571311,102.852397,-2.187013,130.002629
53799,NaN,0.422618,9.553756,-2.220950,-0.062490,0.010665,0.004719,-0.015772,0.031152,-0.014191,0.249890,0.340995,0.703413,0.571390,102.844006,-2.185199,130.017555
53800,NaN,0.384664,9.606984,-2.154792,0.019944,0.029107,0.040434,-0.014170,0.038308,-0.017938,0.249841,0.340850,0.703439,0.571467,102.836573,-2.181942,130.035883
53801,NaN,0.342260,9.552521,-2.178640,0.017715,-0.025053,-0.008946,-0.011831,0.040745,-0.018553,0.249775,0.340694,0.703476,0.571543,102.830216,-2.178908,130.056727
53802,NaN,0.347333,9.563040,-2.209716,-0.007939,-0.039693,0.008391,-0.012813,0.038744,-0.024926,0.249742,0.340524,0.703518,0.571607,102.823505,-2.171792,130.076323
53803,NaN,0.342721,9.586743,-2.183641,0.017700,-0.023633,0.025530,-0.003755,0.038467,-0.022304,0.249681,0.340371,0.703583,0.571646,102.821809,-2.166368,130.096370
53804,NaN,0.338114,9.610354,-2.157942,0.043336,-0.007521,0.042667,-0.005051,0.036370,-0.023625,0.249638,0.340221,0.703642,0.571680,102.819600,-2.159664,130.114556
53805,NaN,0.353600,9.624451,-2.167877,0.027549,0.000107,0.059193,-0.009256,0.029989,-0.022527,0.249617,0.340085,0.703680,0.571724,102.814936,-2.153036,130.129890
53806,NaN,0.335179,9.553776,-2.174233,0.019769,-0.025537,-0.008952,-0.005875,0.032773,-0.025067,0.249592,0.339939,0.703735,0.571754,102.812314,-2.145051,130.146422
53807,NaN,0.333505,9.553942,-2.173762,0.020183,-0.025667,-0.008953,-0.001758,0.030840,-0.024471,0.249560,0.339802,0.703799,0.571770,102.811922,-2.137444,130.162479
53808,NaN,0.296265,9.623463,-2.195529,0.040632,-0.058717,0.062233,0.001163,0.030156,-0.026884,0.249538,0.339666,0.703874,0.571769,102.813374,-2.128134,130.177728
53809,NaN,0.257446,9.619252,-2.148606,0.098685,-0.058204,0.046302,-0.006754,0.025858,-0.018205,0.249514,0.339559,0.703907,0.571802,102.810257,-2.123394,130.190202
53810,NaN,0.279825,9.586466,-2.208961,0.032411,-0.082860,0.028564,-0.005349,0.026328,-0.018570,0.249492,0.339454,0.703945,0.571827,102.808119,-2.118190,130.202399
53811,NaN,0.275556,9.610020,-2.183368,0.058064,-0.066821,0.045693,-0.002486,0.022333,-0.012671,0.249458,0.339383,0.703976,0.571846,102.807549,-2.116094,130.212199
53812,NaN,0.226694,9.659077,-2.140393,0.130649,-0.070777,0.082178,0.000129,0.016589,-0.010017,0.249437,0.339344,0.704003,0.571845,102.808827,-2.114417,130.217681
53813,NaN,0.284999,9.613857,-2.161190,0.068756,-0.044707,0.044873,-0.006521,0.009390,-0.006630,0.249438,0.339325,0.703996,0.571864,102.806240,-2.114052,130.219476
53814,NaN,0.298740,9.594242,-2.164176,0.053782,-0.038638,0.026926,-0.003103,0.012207,-0.002546,0.249415,0.339318,0.703996,0.571878,102.805707,-2.116010,130.222008
53815,NaN,0.308635,9.581098,-2.221363,0.002880,-0.069474,0.027146,-0.002855,0.013955,0.000700,0.249373,0.339317,0.703993,0.571901,102.805160,-2.120319,130.225424
53816,NaN,0.309106,9.581096,-2.221305,0.003282,-0.069559,0.027145,0.002554,0.014121,0.002621,0.249320,0.339332,0.704002,0.571905,102.807842,-2.125489,130.227979
53817,NaN,0.289421,9.590612,-2.185422,0.045138,-0.061304,0.027733,-0.002608,0.015703,0.003944,0.249262,0.339338,0.703996,0.571934,102.807415,-2.131833,130.231960
53818,NaN,0.341146,9.575388,-2.234747,-0.027455,-0.055818,0.025741,-0.010685,0.003038,0.001083,0.249277,0.339366,0.703955,0.571961,102.802872,-2.134656,130.228067
53819,NaN,0.310412,9.581409,-2.219774,0.004519,-0.069877,0.027142,-0.006109,0.004578,0.001559,0.249271,0.339390,0.703930,0.571980,102.800660,-2.138255,130.226132
53820,NaN,0.348989,9.602775,-2.186583,0.008504,-0.017568,0.042050,-0.004442,0.001831,0.004451,0.249267,0.339437,0.703900,0.571990,102.799584,-2.142873,130.221771
53821,NaN,0.355516,9.613094,-2.218463,-0.017151,-0.032227,0.059406,-0.005409,-0.000166,-0.001923,0.249286,0.339464,0.703877,0.571995,102.797856,-2.143924,130.217625
53822,NaN,0.352455,9.579608,-2.210645,-0.015939,-0.033930,0.024927,-0.007499,-0.000860,0.001930,0.249304,0.339506,0.703840,0.572008,102.795063,-2.146784,130.212192
53823,NaN,0.324876,9.619195,-2.203113,0.015225,-0.046379,0.060801,-0.004442,0.001831,0.004451,0.249296,0.339550,0.703811,0.572020,102.793877,-2.151650,130.208354
53824,NaN,0.354078,9.596677,-2.130447,0.046125,0.018843,0.023872,-0.004344,0.005174,0.002761,0.249288,0.339586,0.703788,0.572032,102.792882,-2.155738,130.205503
53825,NaN,0.343848,9.593145,-2.151424,0.036650,-0.003594,0.024687,-0.009866,0.006630,0.002519,0.249278,0.339603,0.703752,0.572069,102.788480,-2.160134,130.204594
53826,NaN,0.330567,9.555986,-2.165212,0.027963,-0.027587,-0.008977,-0.004344,0.005174,0.002761,0.249268,0.339635,0.703731,0.572081,102.787447,-2.164156,130.202306
53827,NaN,0.358419,9.573621,-2.153868,0.022099,0.002370,0.006750,-0.002352,0.002524,0.000598,0.249265,0.339666,0.703715,0.572083,102.787428,-2.166958,130.199345
53828,NaN,0.372277,9.610920,-2.139360,0.031607,0.026202,0.040411,0.002125,0.000721,0.002766,0.249260,0.339720,0.703705,0.572065,102.790138,-2.170523,130.194377
53829,NaN,0.313775,9.599178,-2.136262,0.069851,-0.017975,0.026067,-0.001292,-0.002094,-0.001320,0.249277,0.339760,0.703690,0.572053,102.790815,-2.171667,130.189076
53830,NaN,0.317086,9.575801,-2.161300,0.044990,-0.034182,0.008949,-0.001504,-0.003815,0.002052,0.249298,0.339823,0.703665,0.572038,102.791648,-2.174221,130.181146
53831,NaN,0.340494,9.599928,-2.204307,0.003157,-0.041033,0.042860,0.000946,-0.002996,-0.000236,0.249312,0.339872,0.703653,0.572017,102.793633,-2.175856,130.175204
53832,NaN,0.330743,9.613090,-2.146869,0.054928,-0.010469,0.042606,0.000374,-0.004841,0.001572,0.249333,0.339936,0.703633,0.571993,102.795545,-2.177970,130.167085
53833,NaN,0.333995,9.589678,-2.172075,0.030061,-0.026725,0.025492,0.000028,-0.009931,0.000015,0.249372,0.340004,0.703610,0.571965,102.797153,-2.178865,130.157232
53834,NaN,0.305483,9.555261,-2.262277,-0.024553,-0.109838,0.010833,-0.000756,-0.013497,0.005195,0.249414,0.340103,0.703570,0.571937,102.798471,-2.182022,130.144117
53835,NaN,0.357222,9.613753,-2.215334,-0.011362,-0.033665,0.059409,0.004272,-0.018449,-0.001058,0.249479,0.340197,0.703550,0.571877,102.802686,-2.181236,130.129638
53836,NaN,0.391897,9.601306,-2.175790,-0.006504,0.017035,0.039845,0.001087,-0.014551,-0.001905,0.249542,0.340277,0.703527,0.571831,102.805165,-2.180175,130.116736
53837,NaN,0.422336,9.595487,-2.189965,-0.037624,0.030884,0.038471,-0.002098,-0.010653,-0.002751,0.249595,0.340335,0.703501,0.571805,102.805556,-2.179431,130.106831
53838,NaN,0.352572,9.580135,-2.208340,-0.009345,-0.035565,0.024930,-0.001053,-0.010306,-0.004678,0.249655,0.340390,0.703481,0.571770,102.806652,-2.177426,130.096645
53839,NaN,0.372024,9.570614,-2.244386,-0.050387,-0.044004,0.024377,0.004221,-0.013511,-0.007685,0.249722,0.340447,0.703478,0.571711,102.810700,-2.173562,130.085769
53840,NaN,0.378090,9.597630,-2.198038,-0.014765,-0.005697,0.040666,0.005003,-0.009945,-0.012866,0.249793,0.340479,0.703490,0.571646,102.815161,-2.167064,130.076987
53841,NaN,0.428983,9.599090,-2.169386,-0.026038,0.052745,0.037659,0.004876,-0.003356,-0.011191,0.249832,0.340495,0.703508,0.571598,102.819350,-2.162530,130.072235
53842,NaN,0.427801,9.599025,-2.169906,-0.025615,0.052663,0.037661,0.005905,0.001957,-0.013125,0.249863,0.340497,0.703536,0.571548,102.824175,-2.157386,130.069572
53843,NaN,0.384780,9.601137,-2.177803,-0.003584,0.016252,0.039848,0.003041,0.005951,-0.019026,0.249895,0.340456,0.703574,0.571512,102.827080,-2.149659,130.071022
53844,NaN,0.383325,9.544100,-2.196054,-0.027705,-0.001539,-0.011735,0.003612,0.007796,-0.020835,0.249930,0.340408,0.703618,0.571471,102.830412,-2.140902,130.073059
53845,NaN,0.308788,9.609042,-2.171866,0.050382,-0.034242,0.043393,0.006766,0.013830,-0.020005,0.249931,0.340347,0.703677,0.571434,102.835282,-2.133630,130.079038
53846,NaN,0.285793,9.601543,-2.215965,0.030921,-0.078915,0.045031,0.009609,0.004842,-0.020716,0.249964,0.340314,0.703734,0.571369,102.842042,-2.124609,130.079601
53847,NaN,0.305075,9.608812,-2.173406,0.051201,-0.034473,0.043388,0.006913,0.002273,-0.021674,0.250010,0.340280,0.703783,0.571309,102.847230,-2.114934,130.079334
53848,NaN,0.337554,9.579530,-2.213305,-0.005241,-0.036659,0.024929,0.005281,0.005047,-0.017947,0.250042,0.340251,0.703823,0.571263,102.851506,-2.107503,130.079624
53849,NaN,0.346592,9.583147,-2.192246,0.005110,-0.014503,0.024108,0.008072,0.010957,-0.018682,0.250048,0.340204,0.703880,0.571218,102.857194,-2.100606,130.083832
53850,NaN,0.393937,9.607992,-2.139021,0.019191,0.060076,0.038208,0.015816,0.013571,-0.017369,0.250032,0.340169,0.703959,0.571148,102.867415,-2.094565,130.088405
53851,NaN,0.398623,9.674925,-2.155177,0.018085,0.063167,0.107169,0.021301,0.022050,-0.017149,0.249971,0.340112,0.704066,0.571078,102.880464,-2.089943,130.098619
53852,NaN,0.396734,9.657710,-2.235793,-0.042839,0.010254,0.108280,0.010594,0.030043,-0.016078,0.249904,0.340030,0.704148,0.571055,102.887420,-2.086719,130.111927
53853,NaN,0.351639,9.568930,-2.254828,-0.044641,-0.045473,0.024398,0.008924,0.032784,-0.018975,0.249832,0.339920,0.704235,0.571044,102.893152,-2.082451,130.128375
53854,NaN,0.298517,9.567062,-2.285011,-0.032610,-0.104138,0.027392,0.013478,0.039291,-0.018512,0.249731,0.339801,0.704343,0.571026,102.901469,-2.079027,130.147969
53855,NaN,0.255533,9.625961,-2.275653,0.013944,-0.122884,0.081135,0.008925,0.032779,-0.018981,0.249659,0.339692,0.704431,0.571014,102.907204,-2.074759,130.164415
53856,NaN,0.296408,9.566798,-2.286391,-0.031815,-0.104361,0.027392,0.001564,0.025321,-0.018724,0.249625,0.339594,0.704488,0.571016,102.908884,-2.069462,130.176680
53857,NaN,0.243835,9.581999,-2.236886,0.041584,-0.110264,0.029260,0.007922,0.022501,-0.017032,0.249585,0.339520,0.704557,0.570993,102.914263,-2.064969,130.187133
53858,NaN,0.266607,9.623020,-2.201265,0.061132,-0.064201,0.062094,0.003870,0.009528,-0.017603,0.249603,0.339478,0.704598,0.570960,102.917644,-2.058320,130.189844
53859,NaN,0.323713,9.634980,-2.204379,0.023848,-0.020202,0.076496,-0.002225,0.009132,-0.016039,0.249625,0.339432,0.704619,0.570951,102.917484,-2.052670,130.192699
53860,NaN,0.337052,9.558337,-2.225397,-0.015721,-0.031754,0.007014,-0.003366,0.005445,-0.012418,0.249654,0.339411,0.704626,0.570943,102.916836,-2.048353,130.192591
53861,NaN,0.346336,9.562127,-2.203701,-0.005350,-0.009606,0.006192,0.003870,0.009528,-0.017604,0.249668,0.339366,0.704667,0.570912,102.920153,-2.041880,130.195869
53862,NaN,0.316792,9.601504,-2.197043,0.025818,-0.022131,0.042011,0.000609,0.005113,-0.016751,0.249704,0.339335,0.704693,0.570884,102.921767,-2.035107,130.196145
53863,NaN,0.335606,9.592093,-2.232762,-0.015241,-0.030493,0.041496,-0.001512,0.004384,-0.019521,0.249751,0.339292,0.704716,0.570860,102.922095,-2.026904,130.196795
53864,NaN,0.299731,9.564253,-2.211437,0.017409,-0.046236,0.008350,0.001440,-0.001257,-0.021913,0.249822,0.339259,0.704745,0.570813,102.924261,-2.016397,130.194523
53865,NaN,0.383477,9.593987,-2.203646,-0.026016,0.027883,0.038517,0.002512,-0.005876,-0.023828,0.249910,0.339235,0.704774,0.570752,102.927077,-2.004474,130.189992
53866,NaN,0.297885,9.597933,-2.219114,0.017469,-0.044855,0.042829,0.002154,-0.006004,-0.025395,0.250005,0.339204,0.704806,0.570690,102.929706,-1.991424,130.185607
53867,NaN,0.336956,9.596064,-2.211521,-0.003659,-0.008662,0.040674,-0.002086,-0.002463,-0.024323,0.250091,0.339162,0.704827,0.570651,102.929817,-1.979662,130.183048
53868,NaN,0.351467,9.610140,-2.222097,-0.019385,-0.000919,0.057250,0.000338,0.003321,-0.026627,0.250161,0.339099,0.704867,0.570609,102.931265,-1.967103,130.183868
53869,NaN,0.342549,9.600008,-2.189802,0.007124,0.013391,0.039850,0.001356,0.008631,-0.028569,0.250214,0.339015,0.704919,0.570571,102.933116,-1.954393,130.188052
53870,NaN,0.318991,9.592569,-2.233152,-0.012422,-0.031271,0.041498,-0.001481,0.012645,-0.027860,0.250257,0.338920,0.704966,0.570551,102.933210,-1.942498,130.194190
53871,NaN,0.271641,9.617968,-2.215642,0.034884,-0.051691,0.060725,0.002043,0.013850,-0.025454,0.250282,0.338833,0.705021,0.570523,102.935371,-1.932196,130.200891
53872,NaN,0.239254,9.566609,-2.219517,0.042157,-0.083490,0.010487,0.000070,0.011530,-0.023282,0.250315,0.338760,0.705064,0.570499,102.936547,-1.922583,130.205563
53873,NaN,0.271335,9.594620,-2.240902,0.010332,-0.067951,0.043644,0.002100,0.008922,-0.018817,0.250338,0.338711,0.705102,0.570472,102.938864,-1.915356,130.208659
53874,NaN,0.307847,9.616146,-2.208445,0.014573,-0.015670,0.058575,0.004756,0.016460,-0.017873,0.250330,0.338649,0.705154,0.570446,102.942668,-1.909389,130.215342
53875,NaN,0.344207,9.637683,-2.176028,0.018836,0.036568,0.073506,0.003237,0.012606,-0.022442,0.250348,0.338578,0.705206,0.570416,102.945553,-1.900611,130.220963
53876,NaN,0.335929,9.610498,-2.222952,-0.016109,-0.001811,0.057256,0.000268,0.023245,-0.013440,0.250312,0.338506,0.705248,0.570424,102.946697,-1.897976,130.230860
53877,NaN,0.321676,9.573079,-2.237525,-0.024954,-0.025806,0.023600,0.003734,0.029377,-0.017674,0.250257,0.338405,0.705314,0.570426,102.949578,-1.894014,130.245239
53878,NaN,0.333896,9.610501,-2.223248,-0.015295,-0.002033,0.057257,0.002509,0.035577,-0.020708,0.250192,0.338274,0.705390,0.570438,102.951683,-1.888932,130.263262
53879,NaN,0.350534,9.567448,-2.251902,-0.055643,-0.011944,0.022289,0.003311,0.039171,-0.019275,0.250108,0.338138,0.705470,0.570457,102.954137,-1.885335,130.283319
53880,NaN,0.287597,9.578631,-2.224226,0.007744,-0.040194,0.024913,0.006832,0.040378,-0.016867,0.250008,0.338011,0.705558,0.570467,102.958674,-1.882973,130.303624
53881,NaN,0.286684,9.578554,-2.224673,0.008156,-0.040323,0.024912,0.004750,0.034679,-0.019627,0.249938,0.337889,0.705637,0.570472,102.962036,-1.878604,130.321217
53882,NaN,0.271282,9.598089,-2.221847,0.023934,-0.046660,0.042807,0.008642,0.031014,-0.022261,0.249883,0.337771,0.705728,0.570454,102.967720,-1.872049,130.337141
53883,NaN,0.342197,9.590616,-2.228622,-0.028646,0.003651,0.039366,0.004323,0.026205,-0.026112,0.249861,0.337650,0.705806,0.570438,102.970968,-1.862973,130.350835
53884,NaN,0.340494,9.590587,-2.229012,-0.028239,0.003557,0.039367,0.005922,0.033396,-0.023244,0.249808,0.337523,0.705892,0.570431,102.975095,-1.856254,130.367488
53885,NaN,0.335032,9.613897,-2.204699,-0.002436,0.019440,0.056434,0.012802,0.037358,-0.029995,0.249744,0.337367,0.706014,0.570399,102.982987,-1.846447,130.387913
53886,NaN,0.347046,9.594123,-2.209084,-0.017422,0.025594,0.038542,0.011575,0.043552,-0.033039,0.249672,0.337182,0.706146,0.570377,102.990121,-1.835543,130.411817
53887,NaN,0.315102,9.559493,-2.134892,0.051293,0.046428,-0.012882,0.014093,0.052711,-0.030422,0.249554,0.336981,0.706292,0.570366,102.998484,-1.827482,130.440875
53888,NaN,0.278057,9.571258,-2.176132,0.047075,-0.004430,0.006661,0.011666,0.046879,-0.034751,0.249473,0.336779,0.706432,0.570348,103.005598,-1.816022,130.467134
53889,NaN,0.188921,9.597898,-2.168045,0.115848,-0.061282,0.027972,0.017676,0.043951,-0.034606,0.249391,0.336593,0.706585,0.570304,103.016162,-1.804503,130.491842
53890,NaN,0.217899,9.592078,-2.183333,0.084746,-0.047284,0.026671,0.013159,0.037471,-0.028450,0.249322,0.336440,0.706707,0.570274,103.024262,-1.795374,130.512357
53891,NaN,0.260056,9.606772,-2.262816,0.001469,-0.062104,0.060214,0.008282,0.030815,-0.030490,0.249291,0.336295,0.706809,0.570246,103.029699,-1.784463,130.529199
53892,NaN,0.221712,9.544834,-2.235401,0.034739,-0.079506,-0.007459,0.014085,0.039483,-0.022073,0.249195,0.336159,0.706926,0.570223,103.038360,-1.779119,130.549997
53893,NaN,0.208804,9.597851,-2.240415,0.049838,-0.084297,0.044909,0.009298,0.036161,-0.025817,0.249129,0.336016,0.707030,0.570207,103.044309,-1.771512,130.569223
53894,NaN,0.200919,9.570382,-2.288034,0.014806,-0.122636,0.028675,0.008862,0.032741,-0.019053,0.249058,0.335905,0.707118,0.570195,103.050118,-1.767002,130.585757
53895,NaN,0.137680,9.581210,-2.261308,0.078173,-0.151004,0.031252,0.011847,0.027158,-0.014796,0.248989,0.335830,0.707200,0.570168,103.057730,-1.764385,130.598530
53896,NaN,0.216246,9.601148,-2.221378,0.061032,-0.062365,0.044072,0.010049,0.018303,-0.007646,0.248935,0.335802,0.707254,0.570141,103.064546,-1.764348,130.605437
53897,NaN,0.244456,9.561838,-2.228612,0.030656,-0.049967,0.008299,0.005266,0.015030,-0.004757,0.248890,0.335788,0.707285,0.570130,103.068636,-1.765767,130.610137
53898,NaN,0.219737,9.577409,-2.247688,0.036418,-0.078577,0.027010,0.007109,0.005721,-0.003496,0.248874,0.335808,0.707308,0.570097,103.073975,-1.766457,130.609448
53899,NaN,0.257320,9.599072,-2.215361,0.040783,-0.026349,0.041950,0.007328,0.007478,-0.000248,0.248840,0.335835,0.707327,0.570072,103.079394,-1.769413,130.609347
53900,NaN,0.247040,9.595046,-2.237763,0.031154,-0.048697,0.042777,0.006056,0.005375,-0.001569,0.248822,0.335861,0.707343,0.570045,103.084141,-1.771165,130.608041
53901,NaN,0.250919,9.571450,-2.263390,0.006147,-0.064802,0.025722,0.006451,0.000548,0.000025,0.248813,0.335908,0.707351,0.570011,103.089179,-1.773375,130.604035
53902,NaN,0.278213,9.589311,-2.252511,0.000476,-0.034776,0.041494,0.000921,0.001971,-0.000248,0.248810,0.335940,0.707347,0.569998,103.091066,-1.775335,130.601025
53903,NaN,0.257717,9.581449,-2.296446,-0.019167,-0.079391,0.043152,0.007153,0.000812,0.003162,0.248790,0.335998,0.707352,0.569967,103.096515,-1.779329,130.596758
53904,NaN,0.274680,9.612561,-2.228339,0.026695,-0.019036,0.058543,0.002721,-0.002378,0.000989,0.248796,0.336049,0.707345,0.569943,103.099435,-1.781493,130.591215
53905,NaN,0.281288,9.622699,-2.260823,0.001002,-0.033539,0.075976,0.000483,-0.001494,-0.000111,0.248805,0.336093,0.707334,0.569926,103.101089,-1.783361,130.586086
53906,NaN,0.282390,9.582747,-2.199523,0.038213,0.001393,0.023227,0.001141,-0.009522,0.004758,0.248830,0.336179,0.707307,0.569899,103.103331,-1.786672,130.575654
53907,NaN,0.293057,9.569441,-2.256932,-0.012909,-0.029071,0.023614,-0.000614,-0.010131,0.003548,0.248861,0.336259,0.707275,0.569877,103.104522,-1.789459,130.565226
53908,NaN,0.213862,9.566366,-2.218991,0.066494,-0.065332,0.009549,0.005003,-0.008222,0.002115,0.248882,0.336338,0.707265,0.569834,103.108965,-1.791468,130.555702
53909,NaN,0.282740,9.582551,-2.200331,0.039438,0.001043,0.023223,0.005354,-0.008090,0.003683,0.248896,0.336420,0.707253,0.569795,103.113541,-1.794594,130.546396
53910,NaN,0.302628,9.630150,-2.218565,0.023091,0.010409,0.074312,0.002063,-0.007551,0.004510,0.248913,0.336501,0.707231,0.569767,103.116259,-1.798056,130.537033
53911,NaN,0.355848,9.575251,-2.206727,-0.012643,0.051369,0.019856,0.000746,-0.004695,0.003163,0.248923,0.336566,0.707211,0.569749,103.118135,-1.801333,130.529690
53912,NaN,0.345589,9.571300,-2.228767,-0.022284,0.029033,0.020688,0.004608,-0.003395,0.000519,0.248933,0.336625,0.707207,0.569714,103.122218,-1.803124,130.523075
53913,NaN,0.335388,9.567250,-2.251211,-0.031912,0.006672,0.021521,0.009480,0.003259,0.002553,0.248902,0.336676,0.707223,0.569677,103.128956,-1.807094,130.520251
53914,NaN,0.296583,9.602304,-2.267405,-0.010770,-0.028233,0.058099,0.010488,0.008512,-0.006033,0.248878,0.336683,0.707263,0.569634,103.136168,-1.806744,130.521410
53915,NaN,0.328239,9.556673,-2.220731,-0.004996,0.020812,0.004080,0.009303,0.009742,-0.009059,0.248858,0.336675,0.707306,0.569595,103.142643,-1.805079,130.523717
53916,NaN,0.350974,9.580633,-2.264822,-0.046784,0.014229,0.038137,0.016456,0.010501,-0.012532,0.248832,0.336657,0.707377,0.569528,103.153128,-1.801383,130.527280
53917,NaN,0.298029,9.595328,-2.216662,0.026598,0.007996,0.039822,0.010049,0.018245,-0.014291,0.248796,0.336607,0.707442,0.569493,103.159860,-1.797908,130.535017
53918,NaN,0.290479,9.567727,-2.264523,-0.008512,-0.030278,0.023615,0.013472,0.016078,-0.016797,0.248769,0.336557,0.707518,0.569439,103.168583,-1.792547,130.541931
53919,NaN,0.289202,9.567449,-2.265857,-0.008101,-0.030403,0.023615,0.015360,0.015061,-0.017267,0.248743,0.336512,0.707599,0.569377,103.178403,-1.786998,130.548280
53920,NaN,0.280308,9.596888,-2.296296,-0.018425,-0.051156,0.058931,0.013472,0.016076,-0.016800,0.248717,0.336463,0.707675,0.569324,103.187089,-1.781694,130.555135
53921,NaN,0.299846,9.604437,-2.254092,0.002098,-0.006818,0.057267,0.015578,0.016819,-0.014023,0.248675,0.336425,0.707752,0.569267,103.197017,-1.778187,130.562043
53922,NaN,0.289768,9.543125,-2.294787,-0.032376,-0.046671,0.006580,0.011976,0.025513,-0.016505,0.248616,0.336346,0.707836,0.569236,103.204691,-1.774232,130.574412
53923,NaN,0.297557,9.603893,-2.256710,0.002898,-0.007047,0.057266,0.017947,0.027499,-0.023006,0.248558,0.336248,0.707949,0.569178,103.215757,-1.767115,130.588457
53924,NaN,0.286067,9.599668,-2.279883,-0.006764,-0.029376,0.058099,0.012762,0.029108,-0.015082,0.248484,0.336170,0.708035,0.569150,103.223894,-1.764468,130.601958
53925,NaN,0.271893,9.579168,-2.216368,0.045874,-0.000822,0.023195,0.012896,0.027479,-0.016762,0.248417,0.336088,0.708124,0.569118,103.232093,-1.760836,130.615176
53926,NaN,0.247628,9.537423,-2.253707,0.026785,-0.046957,-0.009625,0.011976,0.025507,-0.016514,0.248359,0.336011,0.708207,0.569085,103.239842,-1.756854,130.627193
53927,NaN,0.249272,9.570763,-2.262394,0.026545,-0.045498,0.024857,0.017071,0.020622,-0.016096,0.248308,0.335956,0.708297,0.569027,103.250555,-1.752697,130.636499
53928,NaN,0.248035,9.570438,-2.263901,0.026937,-0.045598,0.024856,0.015453,0.018381,-0.018985,0.248277,0.335897,0.708385,0.568967,103.260394,-1.746454,130.644700
53929,NaN,0.256996,9.574129,-2.243385,0.037415,-0.023499,0.024021,0.012073,0.015588,-0.016452,0.248253,0.335849,0.708455,0.568918,103.268330,-1.741440,130.651245
53930,NaN,0.301079,9.548888,-2.261322,-0.009047,-0.003070,0.004919,0.010977,0.020141,-0.021195,0.248229,0.335768,0.708537,0.568874,103.275604,-1.734095,130.661061
53931,NaN,0.294609,9.611932,-2.299068,-0.019991,-0.022248,0.074722,0.015539,0.021708,-0.020702,0.248189,0.335692,0.708632,0.568818,103.285406,-1.727518,130.671581
53932,NaN,0.276119,9.597644,-2.289611,-0.003561,-0.030236,0.058098,0.008255,0.022511,-0.022196,0.248163,0.335598,0.708711,0.568786,103.291030,-1.719988,130.682862
53933,NaN,0.255039,9.549778,-2.272551,0.013528,-0.039841,0.006988,0.010841,0.021765,-0.019524,0.248128,0.335520,0.708790,0.568749,103.298148,-1.714078,130.693260
53934,NaN,0.225019,9.588649,-2.267310,0.044713,-0.052582,0.042705,0.012297,0.017285,-0.019846,0.248106,0.335453,0.708870,0.568698,103.306094,-1.707239,130.701559
53935,NaN,0.213332,9.584407,-2.290335,0.035042,-0.074930,0.043537,0.014049,0.017898,-0.018636,0.248077,0.335393,0.708953,0.568644,103.315119,-1.701317,130.709684
53936,NaN,0.239184,9.602242,-2.280196,0.029464,-0.044921,0.059327,0.010237,0.011641,-0.015957,0.248067,0.335353,0.709013,0.568596,103.322010,-1.695891,130.714283
53937,NaN,0.227718,9.598111,-2.302703,0.019791,-0.067267,0.060160,0.005138,0.016518,-0.016386,0.248051,0.335294,0.709065,0.568573,103.325963,-1.691043,130.721343
53938,NaN,0.248402,9.548812,-2.277340,0.015493,-0.040426,0.006983,0.010237,0.011640,-0.015958,0.248045,0.335258,0.709123,0.568524,103.332888,-1.685683,130.725346
53939,NaN,0.260033,9.586190,-2.264100,0.025357,-0.016751,0.040631,0.014797,0.013211,-0.015462,0.248021,0.335224,0.709197,0.568463,103.342433,-1.680915,130.730441
53940,NaN,0.275958,9.600044,-2.275752,0.009708,-0.008953,0.057260,0.009474,0.016388,-0.012503,0.247987,0.335182,0.709255,0.568430,103.348841,-1.678028,130.737238
53941,NaN,0.274946,9.599918,-2.276408,0.010119,-0.009078,0.057260,0.005138,0.016514,-0.016392,0.247971,0.335123,0.709307,0.568407,103.352795,-1.673179,130.744298
53942,NaN,0.292381,9.556706,-2.305184,-0.030396,-0.018742,0.022389,0.011309,0.020329,-0.013007,0.247921,0.335070,0.709376,0.568373,103.360218,-1.670507,130.753308
53943,NaN,0.211286,9.592928,-2.329977,0.012072,-0.090179,0.060986,0.011309,0.020328,-0.013008,0.247871,0.335020,0.709445,0.568339,103.367660,-1.668052,130.762049
53944,NaN,0.228306,9.567122,-2.279939,0.033259,-0.047438,0.024828,0.010392,0.018356,-0.012758,0.247829,0.334973,0.709508,0.568306,103.374555,-1.665300,130.769969
53945,NaN,0.192852,9.578436,-2.321216,0.028881,-0.098320,0.044349,0.006095,0.013593,-0.009970,0.247803,0.334946,0.709548,0.568283,103.379131,-1.663647,130.774552
53946,NaN,0.206544,9.558767,-2.324980,0.013856,-0.092084,0.026496,0.008416,0.016042,-0.010580,0.247767,0.334912,0.709600,0.568255,103.385006,-1.661754,130.780685
53947,NaN,0.202247,9.582112,-2.300916,0.039763,-0.076328,0.043508,0.010007,0.018354,-0.001056,0.247693,0.334908,0.709642,0.568237,103.391781,-1.665703,130.786740
53948,NaN,0.202373,9.581936,-2.301637,0.040139,-0.076425,0.043506,0.005645,0.010196,-0.003188,0.247660,0.334911,0.709667,0.568218,103.396154,-1.667144,130.788969
53949,NaN,0.178796,9.557604,-2.259480,0.082686,-0.070166,0.009393,0.009061,0.008102,0.000955,0.247618,0.334942,0.709690,0.568189,103.402560,-1.670853,130.789039
53950,NaN,0.196160,9.571510,-2.270769,0.067030,-0.062372,0.026026,0.007431,0.005926,0.004705,0.247571,0.334983,0.709703,0.568170,103.407924,-1.676169,130.788510
53951,NaN,0.255237,9.584061,-2.273640,0.030096,-0.018125,0.040616,0.004969,0.005105,0.006989,0.247529,0.335040,0.709700,0.568157,103.412058,-1.682843,130.786106
53952,NaN,0.235665,9.575851,-2.317782,0.010271,-0.062648,0.042288,0.005886,0.007076,0.006736,0.247480,0.335089,0.709704,0.568145,103.416655,-1.689463,130.784942
53953,NaN,0.267867,9.570272,-2.331885,-0.020746,-0.048515,0.041081,0.005259,0.010197,0.008515,0.247416,0.335137,0.709707,0.568142,103.420879,-1.697664,130.785173
53954,NaN,0.251985,9.555962,-2.322157,-0.004352,-0.056535,0.024441,0.011709,0.010755,0.008552,0.247337,0.335187,0.709729,0.568118,103.428731,-1.705771,130.786094
53955,NaN,0.254957,9.606891,-2.251404,0.057201,-0.002722,0.057616,0.006578,0.007349,0.009875,0.247276,0.335250,0.709730,0.568107,103.433762,-1.714351,130.784555
53956,NaN,0.266945,9.593226,-2.309130,0.005943,-0.032981,0.058088,0.004341,0.008226,0.008766,0.247220,0.335300,0.709727,0.568105,103.437445,-1.722261,130.783868
53957,NaN,0.258052,9.589026,-2.331478,-0.003761,-0.055308,0.058925,0.007214,0.012577,0.012970,0.247130,0.335359,0.709731,0.568105,103.442766,-1.733262,130.784831
53958,NaN,0.262874,9.582805,-2.278059,0.032856,-0.018927,0.040605,0.008759,0.011426,0.010939,0.247047,0.335413,0.709742,0.568095,103.448910,-1.742793,130.785899
53959,NaN,0.260817,9.588608,-2.332890,-0.002976,-0.055537,0.058924,0.005950,0.010470,0.011652,0.246971,0.335471,0.709741,0.568094,103.453537,-1.752779,130.785860
53960,NaN,0.255304,9.578445,-2.300936,0.023536,-0.041375,0.041440,0.002363,0.005914,0.010944,0.246920,0.335535,0.709726,0.568098,103.456101,-1.761669,130.783434
53961,NaN,0.273676,9.592352,-2.311970,0.007938,-0.033575,0.058085,0.008931,0.004911,0.015945,0.246847,0.335629,0.709720,0.568082,103.462549,-1.773306,130.779722
53962,NaN,0.285314,9.596185,-2.290822,0.018441,-0.011463,0.057245,0.005518,0.007006,0.011799,0.246783,0.335694,0.709715,0.568077,103.466987,-1.782662,130.778078
53963,NaN,0.304934,9.552973,-2.318988,-0.022092,-0.021082,0.022406,-0.000305,0.003329,0.009983,0.246748,0.335760,0.709691,0.568084,103.468147,-1.790765,130.774279
53964,NaN,0.316217,9.556880,-2.297554,-0.011577,0.001029,0.021568,0.008814,0.006468,0.010982,0.246685,0.335831,0.709695,0.568065,103.474512,-1.799639,130.771975
53965,NaN,0.307118,9.552649,-2.320037,-0.021293,-0.021291,0.022407,0.005314,0.005239,0.008555,0.246638,0.335893,0.709691,0.568053,103.478853,-1.807201,130.769429
53966,NaN,0.306403,9.609698,-2.303106,0.004045,-0.003972,0.073891,0.005109,0.003473,0.005312,0.246607,0.335947,0.709691,0.568035,103.483091,-1.812532,130.766377
53967,NaN,0.294229,9.571935,-2.317876,-0.005085,-0.027863,0.040244,0.003652,0.007949,0.005623,0.246561,0.335988,0.709690,0.568031,103.486420,-1.818821,130.765733
53968,NaN,0.309300,9.552258,-2.321355,-0.020106,-0.021602,0.022409,0.005888,0.007071,0.006732,0.246513,0.336039,0.709694,0.568017,103.491052,-1.825444,130.764354
53969,NaN,0.281454,9.591175,-2.315919,0.011127,-0.034443,0.058078,0.008301,0.012842,0.004402,0.246445,0.336068,0.709715,0.568003,103.496953,-1.831707,130.766600
53970,NaN,0.275183,9.581016,-2.284123,0.037645,-0.020300,0.040585,0.003448,0.006182,0.002379,0.246416,0.336103,0.709717,0.567993,103.500105,-1.835866,130.765440
53971,NaN,0.269736,9.553270,-2.331222,0.002371,-0.058449,0.024431,0.005491,0.011888,0.005115,0.246354,0.336134,0.709728,0.567988,103.504416,-1.842399,130.767058
53972,NaN,0.315382,9.545718,-2.269182,0.017754,0.014376,0.004077,0.003945,0.013040,0.007143,0.246285,0.336165,0.709733,0.567993,103.507723,-1.850134,130.769244
53973,NaN,0.301337,9.604720,-2.328152,-0.003268,-0.026992,0.074729,0.004482,0.006594,0.007088,0.246238,0.336217,0.709731,0.567985,103.511559,-1.857058,130.767645
53974,NaN,0.309530,9.575033,-2.299285,0.007840,-0.006457,0.039403,0.005147,0.011750,0.003544,0.246184,0.336242,0.709743,0.567978,103.515706,-1.862482,130.769305
53975,NaN,0.285878,9.590449,-2.318380,0.013522,-0.035139,0.058073,0.001621,0.010594,0.007752,0.246126,0.336281,0.709737,0.567988,103.517833,-1.870312,130.769846
53976,NaN,0.332354,9.565299,-2.335169,-0.032903,-0.014553,0.039070,0.004086,0.011410,0.005470,0.246068,0.336311,0.709743,0.567987,103.521359,-1.876772,130.771212
53977,NaN,0.295142,9.560716,-2.289573,0.025037,-0.014732,0.022744,0.002055,0.014054,0.007600,0.245998,0.336341,0.709743,0.568001,103.523671,-1.884981,130.773702
53978,NaN,0.323893,9.561079,-2.357489,-0.042252,-0.036954,0.039913,0.003923,0.017920,0.000458,0.245931,0.336335,0.709765,0.568005,103.526938,-1.889543,130.779423
53979,NaN,0.330710,9.588620,-2.311101,-0.006131,0.000932,0.056059,0.003844,0.022945,0.007043,0.245828,0.336339,0.709782,0.568027,103.530108,-1.898633,130.786942
53980,NaN,0.335795,9.564925,-2.336209,-0.031312,-0.015008,0.039074,0.002862,0.017579,0.002382,0.245756,0.336337,0.709797,0.568039,103.532636,-1.904333,130.792643
53981,NaN,0.302336,9.536782,-2.315413,0.001059,-0.031013,0.005755,0.002124,0.022258,-0.000807,0.245680,0.336313,0.709821,0.568056,103.534797,-1.908960,130.800831
53982,NaN,0.299451,9.542693,-2.369702,-0.034840,-0.067557,0.024099,0.001781,0.022120,-0.002378,0.245610,0.336283,0.709847,0.568073,103.536676,-1.912594,130.809301
53983,NaN,0.305730,9.570292,-2.323166,0.001292,-0.029681,0.040240,0.003136,0.027548,-0.002784,0.245519,0.336238,0.709884,0.568093,103.539308,-1.916829,130.820703
53984,NaN,0.274708,9.575787,-2.309748,0.033078,-0.044111,0.041401,-0.000453,0.022997,-0.003492,0.245454,0.336200,0.709905,0.568116,103.539961,-1.919925,130.829492
53985,NaN,0.296252,9.566296,-2.344731,-0.008063,-0.052087,0.041082,-0.005338,0.016412,0.001118,0.245406,0.336191,0.709898,0.568152,103.537961,-1.924840,130.834164
53986,NaN,0.293917,9.532825,-2.336685,-0.007113,-0.053771,0.006595,-0.005589,0.019598,-0.002174,0.245358,0.336161,0.709898,0.568191,103.535671,-1.928286,130.840969
53987,NaN,0.258581,9.562060,-2.297869,0.050261,-0.052426,0.024730,-0.004133,0.015121,-0.002479,0.245322,0.336144,0.709898,0.568216,103.534370,-1.931025,130.845404
53988,NaN,0.282598,9.586228,-2.340125,0.008544,-0.058820,0.058902,-0.005974,0.011184,-0.001973,0.245304,0.336137,0.709887,0.568241,103.532044,-1.933408,130.847550
53989,NaN,0.317191,9.574932,-2.298662,0.013866,-0.008190,0.039395,-0.008785,0.010231,-0.001264,0.245290,0.336132,0.709866,0.568276,103.528175,-1.936167,130.849096
53990,NaN,0.365597,9.583704,-2.321575,-0.033113,0.013994,0.054909,-0.011019,0.011109,-0.002378,0.245277,0.336112,0.709844,0.568321,103.522882,-1.938247,130.852143
53991,NaN,0.297065,9.567379,-2.340204,-0.005682,-0.052780,0.041080,-0.013252,0.011987,-0.003493,0.245271,0.336090,0.709816,0.568372,103.516410,-1.940000,130.854967
53992,NaN,0.321362,9.552117,-2.320296,-0.010546,-0.024309,0.022418,-0.007629,0.013893,-0.004911,0.245253,0.336060,0.709810,0.568405,103.513080,-1.941035,130.859362
53993,NaN,0.295748,9.585458,-2.259260,0.057006,-0.000811,0.039697,-0.009955,0.011448,-0.004304,0.245245,0.336040,0.709792,0.568443,103.508502,-1.942263,130.861996
53994,NaN,0.306825,9.572137,-2.315410,0.005676,-0.030919,0.040235,-0.010533,0.009616,-0.002482,0.245242,0.336031,0.709767,0.568480,103.503644,-1.944110,130.863212
53995,NaN,0.285361,9.581890,-2.279203,0.047641,-0.023214,0.040536,-0.007920,0.008804,-0.006432,0.245247,0.336013,0.709755,0.568503,103.500272,-1.943799,130.864657
53996,NaN,0.292061,9.592097,-2.310778,0.021898,-0.037546,0.058049,-0.006843,0.004262,-0.001672,0.245253,0.336027,0.709733,0.568521,103.497588,-1.945429,130.862844
53997,NaN,0.289317,9.558658,-2.302648,0.022850,-0.039228,0.023561,-0.007329,0.005754,-0.001571,0.245254,0.336036,0.709711,0.568543,103.494635,-1.947417,130.861938
53998,NaN,0.303646,9.539265,-2.304993,0.007820,-0.032935,0.005745,-0.006016,0.002907,-0.000204,0.245259,0.336058,0.709687,0.568557,103.492459,-1.949648,130.859357
53999,NaN,0.320734,9.553469,-2.314812,-0.007729,-0.025093,0.022418,-0.006501,0.004399,-0.000102,0.245259,0.336077,0.709664,0.568575,103.490013,-1.952274,130.857499
54000,NaN,0.289526,9.559130,-2.300662,0.024035,-0.039556,0.023557,-0.008393,0.005413,0.000353,0.245258,0.336091,0.709636,0.568603,103.486445,-1.955113,130.856321
54001,NaN,0.323856,9.587425,-2.320750,-0.007466,-0.023749,0.056906,-0.007224,0.004194,0.003392,0.245250,0.336122,0.709604,0.568627,103.483605,-1.959659,130.853882
54002,NaN,0.287045,9.565491,-2.353336,-0.011495,-0.076138,0.041920,-0.008093,-0.002726,0.003692,0.245267,0.336170,0.709562,0.568644,103.480441,-1.963189,130.847730
54003,NaN,0.324482,9.587800,-2.319112,-0.006666,-0.023949,0.056906,-0.010811,-0.000356,0.002679,0.245283,0.336207,0.709515,0.568673,103.475630,-1.966730,130.842850
54004,NaN,0.307797,9.573964,-2.307714,0.009675,-0.032019,0.040228,-0.009549,0.001748,0.003997,0.245286,0.336242,0.709473,0.568703,103.471466,-1.971130,130.839189
54005,NaN,0.308373,9.574172,-2.306774,0.010085,-0.032139,0.040227,-0.009744,0.008327,0.005621,0.245261,0.336267,0.709436,0.568746,103.467114,-1.977470,130.838758
54006,NaN,0.336133,9.592447,-2.294380,0.004726,-0.002092,0.056060,-0.009165,0.010160,0.003799,0.245237,0.336281,0.709405,0.568787,103.463104,-1.982858,130.839272
54007,NaN,0.309625,9.574585,-2.304891,0.010894,-0.032350,0.040226,-0.010086,0.008191,0.004050,0.245218,0.336300,0.709368,0.568830,103.458551,-1.988305,130.838976
54008,NaN,0.300179,9.570837,-2.325619,0.001094,-0.054608,0.041071,-0.013383,0.008728,0.004858,0.245202,0.336316,0.709322,0.568885,103.452149,-1.994085,130.838662
54009,NaN,0.320768,9.579096,-2.280746,0.021897,-0.010394,0.039378,-0.009363,0.008396,0.000556,0.245190,0.336323,0.709294,0.568921,103.447990,-1.997612,130.838947
54010,NaN,0.342551,9.569811,-2.315123,-0.019278,-0.018288,0.039100,-0.009353,0.003510,0.007237,0.245177,0.336364,0.709249,0.568958,103.443875,-2.004102,130.835941
54011,NaN,0.343062,9.570014,-2.314207,-0.018865,-0.018407,0.039100,-0.009362,0.008396,0.000555,0.245165,0.336370,0.709221,0.568994,103.439716,-2.007628,130.836226
54012,NaN,0.333381,9.566281,-2.334956,-0.028663,-0.040654,0.039948,-0.013724,0.008591,0.003286,0.245157,0.336384,0.709175,0.569047,103.433165,-2.012521,130.835679
54013,NaN,0.348126,9.547019,-2.336717,-0.043675,-0.034351,0.022145,-0.011739,0.010901,0.001112,0.245139,0.336382,0.709143,0.569096,103.427598,-2.016691,130.837287
54014,NaN,0.285703,9.558259,-2.308761,0.019437,-0.063235,0.024382,-0.011595,0.009274,-0.000561,0.245132,0.336377,0.709112,0.569140,103.422151,-2.019503,130.838360
54015,NaN,0.302834,9.572619,-2.317931,0.003909,-0.055378,0.041066,-0.013342,0.008661,-0.001780,0.245133,0.336370,0.709077,0.569188,103.415696,-2.021764,130.839106
54016,NaN,0.298740,9.596448,-2.291782,0.029931,-0.039733,0.058020,-0.012174,0.007440,0.001259,0.245129,0.336377,0.709039,0.569233,103.409969,-2.025360,130.838788
54017,NaN,0.323316,9.581185,-2.271594,0.025129,-0.011269,0.039369,-0.014842,0.004859,0.000290,0.245140,0.336386,0.708992,0.569282,103.402739,-2.028268,130.837139
54018,NaN,0.327723,9.557985,-2.295107,-0.000109,-0.027084,0.022416,-0.013921,0.006827,0.000040,0.245146,0.336390,0.708950,0.569329,103.396075,-2.031065,130.836433
54019,NaN,0.313595,9.577821,-2.290868,0.015727,-0.033632,0.040215,-0.011204,0.004457,0.001053,0.245150,0.336407,0.708911,0.569366,103.390942,-2.034347,130.834459
54020,NaN,0.345409,9.572588,-2.303187,-0.015242,-0.019338,0.039105,-0.010622,0.014628,0.004105,0.245107,0.336404,0.708882,0.569422,103.385856,-2.040569,130.838163
54021,NaN,0.314516,9.578352,-2.288517,0.016526,-0.033870,0.040213,-0.015327,0.006349,0.000390,0.245114,0.336408,0.708834,0.569476,103.378319,-2.043732,130.837332
54022,NaN,0.314885,9.578684,-2.287076,0.016920,-0.033978,0.040212,-0.014210,0.010078,0.003384,0.245098,0.336413,0.708790,0.569535,103.371337,-2.048935,130.838161
54023,NaN,0.305431,9.575059,-2.307489,0.007113,-0.056255,0.041060,-0.016102,0.011091,0.003838,0.245079,0.336415,0.708740,0.569604,103.363278,-2.054648,130.839519
54024,NaN,0.298917,9.565276,-2.273757,0.033647,-0.042198,0.023517,-0.014065,0.008452,0.001710,0.245071,0.336417,0.708698,0.569659,103.356358,-2.058692,130.840027
54025,NaN,0.309398,9.569517,-2.250594,0.044280,-0.020165,0.022666,-0.011929,0.004247,0.004543,0.245068,0.336446,0.708650,0.569702,103.350831,-2.063892,130.837476
54026,NaN,0.292540,9.595536,-2.300416,0.023734,-0.063014,0.058851,-0.015081,0.003157,0.003674,0.245078,0.336473,0.708594,0.569752,103.343573,-2.068280,130.834132
54027,NaN,0.348663,9.574828,-2.293366,-0.012403,-0.020116,0.039107,-0.017409,0.000711,0.004273,0.245097,0.336505,0.708527,0.569808,103.334976,-2.072862,130.829645
54028,NaN,0.334891,9.594686,-2.288959,0.003421,-0.026644,0.056901,-0.011103,0.002888,0.006010,0.245094,0.336544,0.708479,0.569846,103.330007,-2.078504,130.825958
54029,NaN,0.379795,9.587241,-2.225017,0.019096,0.046131,0.036558,-0.014986,0.006482,0.001957,0.245095,0.336554,0.708430,0.569901,103.322672,-2.082559,130.824997
54030,NaN,0.377107,9.593816,-2.277547,-0.016889,0.009705,0.054955,-0.018188,0.010344,0.001046,0.245090,0.336543,0.708379,0.569973,103.313327,-2.086504,130.826711
54031,NaN,0.371705,9.566793,-2.322701,-0.052365,-0.028270,0.038865,-0.016345,0.014280,0.000550,0.245069,0.336524,0.708338,0.570044,103.305046,-2.090803,130.830288
54032,NaN,0.337872,9.538981,-2.300496,-0.020141,-0.044334,0.005470,-0.014794,0.013133,-0.001475,0.245057,0.336502,0.708305,0.570104,103.297734,-2.093557,130.833566
54033,NaN,0.309399,9.578417,-2.292979,0.011126,-0.057345,0.041050,-0.014309,0.011642,-0.001579,0.245049,0.336485,0.708270,0.570160,103.290664,-2.096321,130.835953
54034,NaN,0.316284,9.589020,-2.323422,-0.014623,-0.071590,0.058599,-0.022747,0.000444,-0.004358,0.245105,0.336482,0.708202,0.570222,103.279037,-2.095901,130.832033
54035,NaN,0.313216,9.555879,-2.314134,-0.013729,-0.073257,0.024110,-0.019159,0.004991,-0.003631,0.245134,0.336472,0.708148,0.570282,103.269314,-2.096645,130.830980
54036,NaN,0.343140,9.568059,-2.246599,0.017390,-0.006894,0.021557,-0.017898,0.007092,-0.002307,0.245153,0.336463,0.708099,0.570341,103.260390,-2.098158,130.830575
54037,NaN,0.328594,9.588021,-2.241800,0.033234,-0.013468,0.039343,-0.018092,0.005336,-0.005554,0.245184,0.336445,0.708053,0.570395,103.251262,-2.097875,130.829967
54038,NaN,0.342580,9.568911,-2.243055,0.018204,-0.007116,0.021555,-0.019159,0.004990,-0.003633,0.245215,0.336434,0.708000,0.570454,103.241550,-2.098461,130.828831
54039,NaN,0.332336,9.565439,-2.263165,0.008373,-0.029381,0.022406,-0.018238,0.006958,-0.003880,0.245236,0.336418,0.707952,0.570514,103.232313,-2.099324,130.828909
54040,NaN,0.334832,9.599492,-2.268729,0.008297,-0.027916,0.056894,-0.016346,0.005945,-0.004334,0.245262,0.336407,0.707909,0.570563,103.224268,-2.099572,130.828220
54041,NaN,0.331842,9.566249,-2.259814,0.009185,-0.029584,0.022405,-0.018238,0.006957,-0.003881,0.245283,0.336391,0.707861,0.570622,103.215031,-2.100435,130.828298
54042,NaN,0.348628,9.580760,-2.268460,-0.006316,-0.021653,0.039110,-0.015861,0.004454,-0.004439,0.245314,0.336384,0.707818,0.570666,103.207330,-2.100398,130.826711
54043,NaN,0.324019,9.596767,-2.285834,-0.000723,-0.050374,0.057745,-0.014504,0.009882,-0.004826,0.245321,0.336361,0.707786,0.570717,103.200168,-2.101116,130.828545
54044,NaN,0.341129,9.571240,-2.233317,0.020651,-0.007732,0.021550,-0.015086,0.008045,-0.003010,0.245332,0.336348,0.707748,0.570767,103.192758,-2.102419,130.829025
54045,NaN,0.306534,9.583391,-2.272486,0.015986,-0.058596,0.041035,-0.018091,0.005333,-0.005560,0.245364,0.336331,0.707701,0.570821,103.183630,-2.102133,130.828416
54046,NaN,0.257813,9.575051,-2.247326,0.063621,-0.081152,0.025397,-0.013194,0.007032,-0.003464,0.245381,0.336327,0.707666,0.570860,103.177469,-2.103008,130.827557
54047,NaN,0.284691,9.593356,-2.234404,0.058395,-0.051130,0.041250,-0.013239,-0.001246,-0.001717,0.245417,0.336348,0.707619,0.570891,103.171275,-2.104007,130.822774
54048,NaN,0.316027,9.588237,-2.246530,0.027474,-0.036743,0.040178,-0.012561,-0.000983,0.001426,0.245445,0.336384,0.707568,0.570921,103.165575,-2.106616,130.817160
54049,NaN,0.357467,9.586993,-2.236718,0.006826,-0.000249,0.038256,-0.013386,0.000376,-0.000041,0.245471,0.336406,0.707519,0.570957,103.159271,-2.108762,130.813063
54050,NaN,0.325976,9.592668,-2.222215,0.038545,-0.014802,0.039321,-0.010427,-0.000288,-0.002415,0.245501,0.336424,0.707484,0.570977,103.154772,-2.109183,130.808970
54051,NaN,0.340143,9.573336,-2.224468,0.023528,-0.008455,0.021543,-0.006840,0.004261,-0.001679,0.245507,0.336437,0.707461,0.570995,103.152132,-2.110922,130.807256
54052,NaN,0.366983,9.591504,-2.212107,0.018308,0.021617,0.037401,-0.007518,0.003999,-0.004823,0.245526,0.336440,0.707443,0.571008,103.149205,-2.110614,130.805542
54053,NaN,0.356758,9.587783,-2.233442,0.008457,-0.000639,0.038255,-0.004513,0.006709,-0.002271,0.245520,0.336447,0.707431,0.571021,103.147845,-2.112342,130.805272
54054,NaN,0.377978,9.578634,-2.268273,-0.032720,-0.008347,0.038049,-0.004321,0.013366,-0.005692,0.245506,0.336428,0.707433,0.571036,103.146625,-2.112779,130.808343
54055,NaN,0.375047,9.545102,-2.260579,-0.031852,-0.010008,0.003561,-0.005293,0.016346,-0.005483,0.245477,0.336395,0.707436,0.571064,103.144604,-2.113971,130.813872
54056,NaN,0.350475,9.560880,-2.278980,-0.026295,-0.038703,0.022191,-0.002819,0.017173,-0.007752,0.245449,0.336354,0.707452,0.571080,103.144018,-2.113794,130.820109
54057,NaN,0.304303,9.585922,-2.262086,0.020868,-0.059803,0.041019,-0.005919,0.011134,-0.008594,0.245448,0.336325,0.707452,0.571097,103.141730,-2.112571,130.823133
54058,NaN,0.301080,9.552413,-2.254330,0.021704,-0.061431,0.006528,-0.005581,0.011264,-0.007023,0.245442,0.336298,0.707453,0.571115,103.139674,-2.111989,130.826304
