// General information: 
//  MT Manager version: 2019.0.1 
//  XDA version: 2019.0.1 build 2740 rev 84096 built on 2019-01-30
// Device information: 
//  DeviceId: 00B4381A
//  ProductCode: MTW2-3A7G6
//  Firmware Version: 4.3.4
//  Hardware Version: 1.1.0
// Device settings: 
//  Filter Profile: human(46.1)
//  Option Flags: Orientation Smoother Disabled, AHS Disabled, ICC Disabled
// Coordinate system: ENU
PacketCounter,SampleTimeFine,Acc_X,Acc_Y,Acc_Z,FreeAcc_E,FreeAcc_N,FreeAcc_U,Gyr_X,Gyr_Y,Gyr_Z,Quat_q0,Quat_q1,Quat_q2,Quat_q3,Roll,Pitch,Yaw
53325,NaN,-5.537380,7.911656,1.123829,0.252273,-0.119274,-0.094561,-0.042239,0.179183,0.090930,-0.069130,-0.418045,0.504228,0.752472,80.136819,34.015608,-140.644884
53326,NaN,-5.612763,7.915143,1.110013,0.308172,-0.081426,-0.051380,-0.029398,0.161130,0.090132,-0.069806,-0.418389,0.504311,0.752162,80.192437,33.985688,-140.537090
53327,NaN,-5.703352,7.931026,1.182270,0.310096,0.018624,0.022486,-0.019818,0.129305,0.087284,-0.070436,-0.418663,0.504394,0.751895,80.240011,33.954000,-140.442207
53328,NaN,-5.685001,7.916774,1.203144,0.288785,0.039171,0.003482,-0.011496,0.088503,0.089242,-0.070953,-0.418787,0.504530,0.751686,80.278059,33.917399,-140.374085
53329,NaN,-5.685229,7.943359,1.265029,0.239182,0.077546,0.033929,-0.007650,0.056532,0.086408,-0.071371,-0.418794,0.504682,0.751541,80.304762,33.879071,-140.328947
53330,NaN,-5.629728,7.948898,1.285803,0.190038,0.066605,0.010324,-0.005810,0.031454,0.075624,-0.071681,-0.418740,0.504832,0.751441,80.323449,33.844629,-140.301322
53331,NaN,-5.614842,7.944657,1.343372,0.144587,0.106321,0.006500,-0.006286,0.017923,0.070640,-0.071939,-0.418641,0.504970,0.751379,80.335219,33.811467,-140.284331
53332,NaN,-5.578458,7.930428,1.406920,0.084395,0.142955,-0.016630,-0.006937,0.010054,0.065986,-0.072161,-0.418531,0.505102,0.751330,80.344501,33.780416,-140.272406
53333,NaN,-5.573520,7.933934,1.406723,0.083384,0.142840,-0.016620,-0.009331,0.020158,0.063881,-0.072406,-0.418457,0.505214,0.751273,80.354906,33.751282,-140.254703
53334,NaN,-5.509962,7.929941,1.486879,-0.010164,0.171784,-0.044123,-0.000802,0.033941,0.061993,-0.072661,-0.418448,0.505352,0.751160,80.376425,33.724786,-140.227056
53335,NaN,-5.499603,7.953707,1.496273,-0.029941,0.167167,-0.029177,0.002869,0.061562,0.063195,-0.072982,-0.418535,0.505493,0.750985,80.409349,33.699987,-140.181351
53336,NaN,-5.573438,8.005570,1.449883,0.032836,0.156130,0.047792,0.006586,0.085624,0.060286,-0.073345,-0.418728,0.505636,0.750746,80.454389,33.679360,-140.118868
53337,NaN,-5.610276,7.999947,1.479749,0.035387,0.206768,0.067596,0.006950,0.101296,0.061418,-0.073751,-0.418970,0.505774,0.750478,80.504428,33.659273,-140.046455
53338,NaN,-5.591243,8.033276,1.465412,0.020967,0.178459,0.082294,0.005160,0.094100,0.064131,-0.074153,-0.419184,0.505916,0.750223,80.551986,33.637196,-139.977871
53339,NaN,-5.621630,8.065722,1.428964,0.054649,0.160931,0.120673,-0.005376,0.089046,0.060033,-0.074549,-0.419379,0.506009,0.750012,80.590187,33.616646,-139.914004
53340,NaN,-5.618018,8.068832,1.425606,0.053480,0.160904,0.120679,-0.020311,0.067333,0.057161,-0.074910,-0.419500,0.506051,0.749880,80.612567,33.595942,-139.864455
53341,NaN,-5.689025,8.091369,1.428937,0.090723,0.194111,0.178870,-0.040710,0.048018,0.048651,-0.075234,-0.419557,0.506003,0.749849,80.614351,33.577952,-139.829753
53342,NaN,-5.664370,8.083281,1.436445,0.074958,0.190898,0.159566,-0.057632,0.019714,0.036919,-0.075477,-0.419537,0.505880,0.749918,80.596175,33.564248,-139.814813
53343,NaN,-5.637417,8.105409,1.491429,0.016264,0.202388,0.170361,-0.075244,0.002388,0.027585,-0.075679,-0.419463,0.505675,0.750078,80.559740,33.553904,-139.813430
53344,NaN,-5.545619,8.055307,1.487173,-0.018967,0.170364,0.077922,-0.087079,-0.003141,0.017194,-0.075852,-0.419395,0.505409,0.750277,80.514879,33.549225,-139.816205
53345,NaN,-5.460724,8.044118,1.469604,-0.052751,0.113160,0.019479,-0.089528,0.007310,0.009253,-0.076027,-0.419380,0.505110,0.750469,80.470963,33.549708,-139.813548
53346,NaN,-5.441472,8.062216,1.434944,-0.042921,0.065560,0.018989,-0.096156,0.039512,0.009002,-0.076296,-0.419490,0.504776,0.750605,80.436355,33.553707,-139.788370
53347,NaN,-5.432412,8.070593,1.419393,-0.038454,0.041665,0.018744,-0.093679,0.063121,-0.000180,-0.076585,-0.419707,0.504420,0.750694,80.410382,33.564842,-139.748954
53348,NaN,-5.381120,8.100736,1.490823,-0.130660,0.045613,0.025085,-0.091908,0.089221,0.004086,-0.076952,-0.420017,0.504073,0.750716,80.396530,33.576383,-139.690658
53349,NaN,-5.447774,8.110819,1.556311,-0.137797,0.118723,0.079362,-0.102648,0.093445,0.004334,-0.077354,-0.420332,0.503681,0.750762,80.377093,33.587890,-139.630159
53350,NaN,-5.500806,8.138007,1.490718,-0.065457,0.085107,0.121936,-0.116053,0.091805,0.007082,-0.077789,-0.420635,0.503248,0.750838,80.350567,33.598013,-139.569754
53351,NaN,-5.446189,8.156941,1.532028,-0.133245,0.069696,0.113095,-0.139457,0.079842,0.003578,-0.078231,-0.420886,0.502721,0.751004,80.304905,33.608690,-139.518567
53352,NaN,-5.459167,8.174176,1.515272,-0.114357,0.049040,0.132171,-0.174016,0.058208,0.001153,-0.078681,-0.421054,0.502070,0.751298,80.232172,33.618983,-139.481656
53353,NaN,-5.479139,8.151630,1.569958,-0.126351,0.096511,0.132638,-0.221186,0.016858,-0.009209,-0.079089,-0.421068,0.501233,0.751806,80.115209,33.630834,-139.474695
53354,NaN,-5.489343,8.197316,1.609721,-0.150548,0.090704,0.181768,-0.271997,-0.021851,-0.009246,-0.079440,-0.420878,0.500259,0.752524,79.955561,33.639178,-139.503313
53355,NaN,-5.440313,8.132258,1.660120,-0.181941,0.109397,0.109080,-0.313210,-0.070809,-0.016399,-0.079794,-0.420543,0.499094,0.753447,79.752444,33.646268,-139.556693
53356,NaN,-5.408586,8.066197,1.677409,-0.174573,0.112035,0.040582,-0.349658,-0.108033,-0.005692,-0.080106,-0.419987,0.497867,0.754535,79.516158,33.643604,-139.643350
53357,NaN,-5.310214,8.049613,1.635207,-0.178613,0.011775,-0.033301,-0.379294,-0.114833,-0.002022,-0.080543,-0.419421,0.496497,0.755705,79.259654,33.637591,-139.724754
53358,NaN,-5.211603,7.973595,1.594291,-0.165167,-0.058805,-0.156087,-0.400237,-0.094733,0.006813,-0.081041,-0.418861,0.495096,0.756881,79.000264,33.628753,-139.800710
53359,NaN,-5.166159,7.947623,1.640896,-0.195293,-0.065191,-0.194790,-0.406367,-0.064364,0.014157,-0.081720,-0.418431,0.493633,0.758000,78.748373,33.618616,-139.845808
53360,NaN,-5.172835,7.892522,1.617210,-0.134494,-0.075608,-0.239726,-0.409919,-0.038103,0.022171,-0.082435,-0.418040,0.492201,0.759069,78.505815,33.607043,-139.881430
53361,NaN,-5.269635,7.866927,1.683276,-0.089316,0.009561,-0.195887,-0.415274,-0.019112,0.032825,-0.083314,-0.417730,0.490721,0.760101,78.267205,33.591329,-139.893334
53362,NaN,-5.375683,7.869481,1.848594,-0.117031,0.152846,-0.106667,-0.424513,-0.023769,0.040014,-0.084162,-0.417341,0.489260,0.761163,78.023081,33.571253,-139.916618
53363,NaN,-5.434645,7.841418,1.991892,-0.149461,0.270433,-0.071268,-0.424845,-0.044720,0.037413,-0.085016,-0.416914,0.487760,0.762264,77.769935,33.549809,-139.944909
53364,NaN,-5.377436,7.825277,2.018502,-0.174170,0.240373,-0.110219,-0.435624,-0.066228,0.048224,-0.085813,-0.416334,0.486287,0.763431,77.504474,33.519814,-139.995353
53365,NaN,-5.424260,7.813452,1.910291,-0.034421,0.172217,-0.112643,-0.461014,-0.083062,0.048078,-0.086688,-0.415716,0.484683,0.764688,77.217466,33.487381,-140.047488
53366,NaN,-5.403140,7.740260,1.863636,0.036183,0.139194,-0.191989,-0.476386,-0.108415,0.046855,-0.087462,-0.414957,0.483065,0.766035,76.913172,33.452415,-140.125962
53367,NaN,-5.474984,7.642813,1.942227,0.084631,0.250725,-0.216330,-0.495542,-0.144309,0.048821,-0.088262,-0.414083,0.481351,0.767494,76.584205,33.411062,-140.218448
53368,NaN,-5.573201,7.655090,2.011044,0.130991,0.310738,-0.138426,-0.507708,-0.198484,0.049418,-0.088891,-0.412954,0.479651,0.769092,76.229521,33.361906,-140.356079
53369,NaN,-5.623176,7.673840,2.140559,0.105225,0.379418,-0.069246,-0.516725,-0.262436,0.053761,-0.089469,-0.411599,0.477911,0.770832,75.846205,33.300521,-140.525633
53370,NaN,-5.600474,7.668645,2.143382,0.133896,0.336153,-0.084569,-0.515300,-0.321039,0.056481,-0.089846,-0.409971,0.476243,0.772686,75.443954,33.228639,-140.742505
53371,NaN,-5.532611,7.703222,2.160116,0.115766,0.257089,-0.089739,-0.505564,-0.344486,0.071760,-0.090273,-0.408254,0.474611,0.774547,75.040098,33.143344,-140.961923
53372,NaN,-5.454851,7.749718,2.156796,0.102936,0.154256,-0.095145,-0.502866,-0.325049,0.075689,-0.090686,-0.406565,0.473023,0.776357,74.646728,33.057846,-141.176371
53373,NaN,-5.356978,7.752453,2.073977,0.142968,0.013916,-0.164981,-0.492925,-0.271476,0.092318,-0.091339,-0.405081,0.471441,0.778017,74.279901,32.969920,-141.342131
53374,NaN,-5.271487,7.812531,2.043653,0.135428,-0.112722,-0.170619,-0.478474,-0.180291,0.092369,-0.092107,-0.403920,0.469908,0.779456,73.955315,32.895780,-141.456742
53375,NaN,-5.289508,7.844445,1.883423,0.291198,-0.252581,-0.173562,-0.483108,-0.087303,0.099322,-0.093199,-0.403137,0.468287,0.780706,73.661476,32.831842,-141.499036
53376,NaN,-5.407882,7.810320,1.940589,0.369818,-0.160067,-0.125085,-0.495281,-0.055158,0.090210,-0.094285,-0.402456,0.466620,0.781924,73.372130,32.778317,-141.531142
53377,NaN,-5.765997,7.785374,2.139739,0.503040,0.143290,0.095062,-0.506281,-0.121118,0.070880,-0.095232,-0.401591,0.464861,0.783300,73.050584,32.724018,-141.600239
53378,NaN,-5.832638,8.118660,2.489273,0.261482,0.185317,0.484193,-0.582533,-0.246313,0.001091,-0.095697,-0.400323,0.462758,0.785136,72.634905,32.686813,-141.773856
53379,NaN,-6.417971,8.056242,2.690302,0.570409,0.602343,0.800620,-0.679374,-0.450348,-0.036322,-0.095806,-0.398324,0.460253,0.787608,72.087673,32.633033,-142.077553
53380,NaN,-6.681684,7.962194,2.922277,0.669842,0.873772,0.928261,-0.726504,-0.712623,-0.064933,-0.095221,-0.395293,0.457658,0.790712,71.420498,32.545511,-142.565254
53381,NaN,-6.296844,7.864647,2.908292,0.527212,0.644340,0.640385,-0.748424,-0.919294,-0.090121,-0.094173,-0.391515,0.454974,0.794258,70.667436,32.427738,-143.179946
53382,NaN,-5.667988,7.573221,2.814901,0.315286,0.352257,0.045246,-0.723675,-0.965671,-0.104082,-0.092841,-0.387548,0.452402,0.797822,69.914279,32.302223,-143.834272
53383,NaN,-5.337966,7.682526,2.925780,0.070033,0.122747,-0.011954,-0.688472,-0.890294,-0.115985,-0.091632,-0.383946,0.449862,0.801133,69.207204,32.190757,-144.431234
53384,NaN,-5.609621,7.562366,2.714810,0.499993,0.119371,-0.026860,-0.616229,-0.813426,-0.110821,-0.090403,-0.380628,0.447607,0.804113,68.570869,32.086986,-144.985691
53385,NaN,-5.376092,7.546739,2.803804,0.342264,0.010172,-0.138023,-0.531930,-0.728843,-0.119956,-0.089236,-0.377734,0.445590,0.806724,68.010871,32.000690,-145.477868
53386,NaN,-5.055599,7.747326,3.056639,-0.042285,-0.151362,-0.071123,-0.462734,-0.595531,-0.115391,-0.088178,-0.375360,0.443828,0.808917,67.537295,31.937765,-145.893774
53387,NaN,-5.258101,7.911248,3.126485,0.065199,-0.154558,0.186408,-0.423445,-0.495097,-0.101689,-0.087397,-0.373406,0.442166,0.810814,67.121197,31.886442,-146.233135
53388,NaN,-4.933616,7.970682,3.049423,-0.084582,-0.436460,0.034821,-0.389543,-0.404369,-0.087155,-0.086739,-0.371767,0.440659,0.812456,66.757563,31.846466,-146.521315
53389,NaN,-4.708657,8.002899,2.967767,-0.163507,-0.652807,-0.087853,-0.377564,-0.287350,-0.084628,-0.086398,-0.370633,0.439117,0.813844,66.438934,31.829777,-146.726450
53390,NaN,-4.884407,8.013615,2.989118,-0.030613,-0.598774,0.018420,-0.363429,-0.196698,-0.078119,-0.086183,-0.369826,0.437638,0.815030,66.159824,31.830220,-146.883299
53391,NaN,-5.221721,8.094055,3.087879,0.150436,-0.460687,0.290782,-0.348307,-0.211655,-0.077996,-0.085981,-0.368994,0.436191,0.816203,65.883665,31.825932,-147.039745
53392,NaN,-5.504410,8.174180,3.244056,0.259124,-0.313584,0.554277,-0.368143,-0.329036,-0.070618,-0.085516,-0.367626,0.434760,0.817632,65.560158,31.789993,-147.275770
53393,NaN,-5.526326,8.150728,3.282318,0.291589,-0.306189,0.558867,-0.406132,-0.498770,-0.069524,-0.084828,-0.365573,0.433209,0.819445,65.159873,31.711173,-147.605477
53394,NaN,-5.329208,8.117265,3.312013,0.185812,-0.403308,0.437300,-0.436940,-0.662875,-0.062050,-0.083798,-0.362783,0.431644,0.821614,64.692453,31.587083,-148.041504
53395,NaN,-5.108218,7.948071,3.258327,0.150166,-0.483535,0.168572,-0.459543,-0.757895,-0.046186,-0.082741,-0.359584,0.430012,0.823980,64.185441,31.427643,-148.519152
53396,NaN,-4.797313,7.801262,3.407387,-0.088013,-0.483932,-0.053501,-0.458126,-0.796432,-0.043051,-0.081535,-0.356182,0.428433,0.826397,63.671019,31.253887,-149.026009
53397,NaN,-4.594537,7.761783,3.527365,-0.247207,-0.518076,-0.144837,-0.460112,-0.773761,-0.031884,-0.080500,-0.352873,0.426813,0.828753,63.166075,31.075824,-149.503744
53398,NaN,-4.513125,7.578118,3.714345,-0.338852,-0.361842,-0.255160,-0.447370,-0.724928,-0.011345,-0.079556,-0.349690,0.425288,0.830974,62.690157,30.897061,-149.952917
53399,NaN,-4.384963,7.432577,3.905629,-0.477276,-0.241188,-0.355484,-0.416823,-0.649205,0.014372,-0.078899,-0.346804,0.423864,0.832971,62.260293,30.721769,-150.337451
53400,NaN,-4.229701,7.289036,4.033865,-0.600864,-0.166712,-0.490490,-0.364936,-0.562127,0.046960,-0.078398,-0.344196,0.422707,0.834687,61.894425,30.551555,-150.667930
53401,NaN,-4.077086,7.259522,4.107383,-0.712030,-0.190280,-0.557932,-0.305375,-0.458191,0.082963,-0.078236,-0.341997,0.421781,0.836073,61.600048,30.389270,-150.915068
53402,NaN,-3.954940,7.285718,4.168429,-0.807996,-0.235693,-0.571989,-0.240554,-0.347153,0.124957,-0.078300,-0.340166,0.421186,0.837113,61.384306,30.235598,-151.092394
53403,NaN,-4.011828,7.292010,4.113856,-0.698013,-0.261209,-0.558691,-0.175198,-0.252146,0.161854,-0.078680,-0.338710,0.420854,0.837834,61.239566,30.088719,-151.192444
53404,NaN,-4.034906,7.264832,4.034203,-0.598281,-0.288307,-0.599006,-0.115919,-0.158270,0.202367,-0.079253,-0.337554,0.420835,0.838256,61.163830,29.947682,-151.234152
53405,NaN,-4.005091,7.295862,3.972574,-0.564432,-0.355355,-0.614492,-0.056589,-0.056120,0.239285,-0.080169,-0.336803,0.421052,0.838363,61.156666,29.815889,-151.195320
53406,NaN,-4.095753,7.358393,3.979727,-0.492915,-0.339935,-0.517484,-0.012855,0.054696,0.278647,-0.081337,-0.336418,0.421507,0.838176,61.213282,29.695264,-151.089486
53407,NaN,-4.085702,7.412149,3.971994,-0.492938,-0.364870,-0.483513,0.020842,0.179187,0.306282,-0.082899,-0.336541,0.422065,0.837693,61.327938,29.594550,-150.893778
53408,NaN,-4.107916,7.415387,3.876004,-0.412162,-0.396367,-0.508962,0.053452,0.312118,0.327635,-0.084702,-0.337156,0.422772,0.836908,61.502901,29.519324,-150.624413
53409,NaN,-4.173676,7.654540,3.967030,-0.457820,-0.433209,-0.254886,0.039949,0.430426,0.315942,-0.086803,-0.338315,0.423317,0.835949,61.700738,29.481221,-150.281144
53410,NaN,-4.763563,7.616388,4.112698,-0.108602,-0.034181,0.066693,0.023256,0.447011,0.284699,-0.088763,-0.339567,0.423762,0.835010,61.889537,29.462553,-149.947691
53411,NaN,-4.989071,7.658953,4.191460,-0.005069,0.112204,0.242464,-0.006888,0.389681,0.258244,-0.090614,-0.340653,0.424026,0.834234,62.039654,29.440766,-149.646379
53412,NaN,-5.095628,7.559100,4.241609,0.048605,0.274307,0.238135,-0.012618,0.331254,0.234627,-0.092180,-0.341509,0.424285,0.833581,62.166893,29.414835,-149.395909
53413,NaN,-5.174205,7.619972,4.297446,0.057439,0.325585,0.345811,-0.011071,0.275497,0.218201,-0.093628,-0.342199,0.424512,0.833020,62.275597,29.381682,-149.173581
53414,NaN,-5.095370,7.613615,4.299024,-0.005845,0.312553,0.302340,-0.003332,0.245609,0.204328,-0.094870,-0.342764,0.424794,0.832504,62.378740,29.347410,-148.982537
53415,NaN,-5.080692,7.541346,4.101714,0.117780,0.241023,0.159143,0.014356,0.224230,0.196023,-0.096073,-0.343298,0.425112,0.831983,62.483704,29.311216,-148.797113
53416,NaN,-5.275423,7.691058,4.246480,0.146251,0.345240,0.428136,0.013987,0.167105,0.171440,-0.096981,-0.343613,0.425446,0.831577,62.569155,29.272335,-148.662105
53417,NaN,-5.813545,7.656257,4.288989,0.525641,0.650674,0.680707,0.001439,0.034817,0.127707,-0.097520,-0.343498,0.425683,0.831441,62.602320,29.220484,-148.608012
53418,NaN,-5.390101,7.612968,4.185406,0.291300,0.427591,0.398110,0.012327,-0.066808,0.120194,-0.097792,-0.342986,0.426003,0.831456,62.612339,29.145946,-148.614954
53419,NaN,-5.009429,7.693802,4.128474,0.044327,0.175607,0.252125,0.019843,-0.076634,0.099804,-0.097945,-0.342476,0.426323,0.831484,62.620218,29.078895,-148.634280
53420,NaN,-5.215159,7.709422,4.090200,0.229898,0.240418,0.348619,0.005457,-0.088924,0.065368,-0.097954,-0.341985,0.426532,0.831578,62.612083,29.026401,-148.670691
53421,NaN,-4.879354,7.708440,4.025238,0.029425,0.048911,0.158643,-0.004849,-0.082967,0.036493,-0.097873,-0.341571,0.426644,0.831700,62.594821,28.989882,-148.712750
53422,NaN,-4.808588,7.628145,3.961673,0.032619,0.026011,0.036385,-0.006352,-0.031001,0.011614,-0.097801,-0.341429,0.426684,0.831746,62.588447,28.980002,-148.731657
53423,NaN,-4.915062,7.740246,3.942641,0.109993,-0.007977,0.167368,-0.016820,0.021917,-0.016232,-0.097745,-0.341558,0.426604,0.831741,62.586199,28.997957,-148.728610
53424,NaN,-4.980978,7.672372,3.933159,0.170080,0.055551,0.142872,-0.027722,0.070198,-0.024467,-0.097776,-0.341904,0.426443,0.831678,62.590772,29.033173,-148.699496
53425,NaN,-5.102355,7.657584,3.972891,0.230606,0.143343,0.206432,-0.025511,0.096140,-0.016006,-0.097894,-0.342337,0.426291,0.831564,62.604556,29.070585,-148.653185
53426,NaN,-5.002682,7.540824,3.955299,0.175599,0.157961,0.060482,-0.023935,0.115570,-0.005455,-0.098094,-0.342833,0.426157,0.831405,62.627017,29.108085,-148.591907
53427,NaN,-4.918096,7.552684,3.962493,0.098552,0.116839,0.031534,-0.022481,0.138967,0.004031,-0.098382,-0.343402,0.426030,0.831201,62.657706,29.146546,-148.514541
53428,NaN,-4.923328,7.551937,3.957417,0.097609,0.117001,0.031541,-0.033667,0.153506,0.010764,-0.098746,-0.344016,0.425865,0.830988,62.687911,29.185667,-148.426236
53429,NaN,-4.908006,7.484413,3.973734,0.076509,0.163101,-0.021718,-0.034390,0.156805,0.028211,-0.099192,-0.344601,0.425721,0.830766,62.720541,29.216430,-148.331084
53430,NaN,-4.940264,7.482128,3.987840,0.084888,0.190086,-0.002083,-0.034378,0.141418,0.037979,-0.099645,-0.345107,0.425605,0.830562,62.751020,29.238480,-148.241546
53431,NaN,-4.943194,7.585280,4.028645,0.042204,0.155403,0.095678,-0.038641,0.115670,0.040125,-0.100060,-0.345493,0.425484,0.830413,62.771332,29.252304,-148.166754
53432,NaN,-4.957316,7.613188,4.042812,0.036735,0.154308,0.129886,-0.050628,0.089084,0.033613,-0.100412,-0.345782,0.425318,0.830335,62.776922,29.262806,-148.109049
53433,NaN,-4.886971,7.641719,4.124448,-0.074120,0.155526,0.150231,-0.058795,0.070807,0.034132,-0.100742,-0.345985,0.425126,0.830309,62.772031,29.267908,-148.062239
53434,NaN,-4.785275,7.625494,4.122123,-0.146778,0.115774,0.087008,-0.060185,0.077167,0.027425,-0.101058,-0.346233,0.424915,0.830275,62.767872,29.278499,-148.013347
53435,NaN,-4.796781,7.605643,4.072173,-0.104512,0.100420,0.057292,-0.056528,0.098883,0.033550,-0.101441,-0.346555,0.424717,0.830196,62.772233,29.291262,-147.950305
53436,NaN,-4.988256,7.663673,4.040584,0.048198,0.132662,0.183361,-0.050780,0.093128,0.032438,-0.101796,-0.346861,0.424547,0.830111,62.778866,29.303280,-147.890726
53437,NaN,-4.897085,7.680740,4.121402,-0.077128,0.130971,0.184215,-0.044866,0.088854,0.033621,-0.102137,-0.347147,0.424402,0.830024,62.787083,29.313367,-147.833504
53438,NaN,-4.976388,7.688979,4.192727,-0.069128,0.207393,0.257864,-0.055182,0.083774,0.028672,-0.102464,-0.347422,0.424210,0.829966,62.787919,29.325181,-147.780360
53439,NaN,-5.054288,7.803247,4.154312,-0.001339,0.146461,0.369323,-0.077690,0.068851,0.026530,-0.102790,-0.347623,0.423927,0.829987,62.770582,29.333641,-147.736949
53440,NaN,-4.933977,7.715934,4.141988,-0.070014,0.133095,0.237846,-0.088120,0.040417,0.023925,-0.103063,-0.347710,0.423613,0.830077,62.739419,29.336237,-147.710684
53441,NaN,-4.802313,7.649463,4.214758,-0.205814,0.154863,0.150963,-0.078447,0.054462,0.021103,-0.103338,-0.347862,0.423325,0.830126,62.716733,29.343717,-147.677318
53442,NaN,-4.829456,7.703083,4.248583,-0.215859,0.152566,0.219347,-0.067333,0.094935,0.022804,-0.103685,-0.348188,0.423067,0.830078,62.712902,29.361230,-147.619533
53443,NaN,-4.812636,7.790667,4.258071,-0.249054,0.095341,0.282658,-0.045121,0.136078,0.034449,-0.104130,-0.348667,0.422897,0.829907,62.734698,29.383346,-147.534441
53444,NaN,-4.701779,7.954826,4.359130,-0.425309,0.007186,0.395499,-0.018070,0.191705,0.045393,-0.104690,-0.349373,0.422831,0.829574,62.790148,29.414844,-147.413108
53445,NaN,-4.738860,8.157143,4.423454,-0.476813,-0.054935,0.595595,0.010503,0.247954,0.066469,-0.105407,-0.350278,0.422888,0.829072,62.880843,29.449757,-147.252819
53446,NaN,-4.975313,8.351337,4.489981,-0.385630,-0.012164,0.888229,0.046016,0.254392,0.082859,-0.106070,-0.351158,0.423151,0.828480,62.996901,29.477912,-147.093537
53447,NaN,-5.119675,8.611346,4.477919,-0.316810,-0.098984,1.155809,0.075681,0.195132,0.088355,-0.106652,-0.351831,0.423544,0.827919,63.113136,29.487398,-146.957482
53448,NaN,-5.097938,8.608073,4.462462,-0.332322,-0.101684,1.136315,0.102372,0.118189,0.079520,-0.106913,-0.352184,0.424106,0.827448,63.221711,29.481472,-146.878999
53449,NaN,-5.010215,8.721663,4.370153,-0.355238,-0.256082,1.145237,0.127045,0.033099,0.058788,-0.106939,-0.352275,0.424745,0.827078,63.316202,29.463887,-146.846911
53450,NaN,-4.653299,8.509185,4.243028,-0.510433,-0.360742,0.754811,0.161706,-0.030753,0.002823,-0.106535,-0.352242,0.425467,0.826773,63.404544,29.458650,-146.868762
53451,NaN,-4.481234,8.264014,3.982767,-0.440657,-0.442646,0.377881,0.214247,-0.037881,-0.055055,-0.105785,-0.352328,0.426303,0.826402,63.511934,29.481153,-146.912010
53452,NaN,-4.690016,8.246770,3.799110,-0.178381,-0.436455,0.395954,0.261114,-0.062031,-0.111250,-0.104595,-0.352425,0.427280,0.826008,63.631684,29.526659,-146.995697
53453,NaN,-4.663984,8.105716,3.686223,-0.122919,-0.423173,0.229693,0.288333,-0.081904,-0.162601,-0.103175,-0.352596,0.428254,0.825609,63.753184,29.593374,-147.096266
53454,NaN,-4.768984,7.926491,3.492773,0.085312,-0.377423,0.067705,0.326793,-0.125354,-0.195966,-0.101384,-0.352642,0.429384,0.825224,63.879806,29.666520,-147.241946
53455,NaN,-5.074121,7.837975,3.350724,0.394457,-0.261913,0.096080,0.383218,-0.235694,-0.220063,-0.099230,-0.352346,0.430722,0.824914,64.002172,29.724481,-147.450092
53456,NaN,-5.133322,7.895121,3.228484,0.495023,-0.340391,0.124421,0.424373,-0.421549,-0.243431,-0.096433,-0.351316,0.432313,0.824853,64.090656,29.748294,-147.784971
53457,NaN,-4.661084,7.745859,2.886114,0.385402,-0.684373,-0.355585,0.447821,-0.557370,-0.265128,-0.093283,-0.349816,0.433987,0.824974,64.148705,29.749602,-148.196994
53458,NaN,-4.436425,7.547923,2.695694,0.364606,-0.785916,-0.692975,0.485361,-0.592766,-0.253425,-0.089965,-0.348119,0.435881,0.825062,64.220225,29.736463,-148.636335
53459,NaN,-4.804013,7.427314,2.680007,0.658451,-0.549547,-0.609948,0.561809,-0.676479,-0.231124,-0.086495,-0.346093,0.438123,0.825098,64.313619,29.691509,-149.109252
53460,NaN,-5.195528,7.411804,2.608885,0.996594,-0.404270,-0.454376,0.629850,-0.819993,-0.215977,-0.082580,-0.343426,0.440758,0.825210,64.407321,29.603932,-149.672554
53461,NaN,-5.287757,7.542395,2.565050,1.078333,-0.462636,-0.323181,0.656213,-0.971144,-0.165039,-0.078566,-0.340059,0.443603,0.825472,64.479464,29.453248,-150.301035
53462,NaN,-5.225983,7.749306,2.473410,1.070157,-0.664499,-0.226575,0.646026,-1.100638,-0.077570,-0.074568,-0.335911,0.446622,0.825913,64.523416,29.226160,-150.990150
53463,NaN,-5.295855,8.007690,2.377459,1.167673,-0.844745,-0.027786,0.570703,-1.272360,0.007124,-0.070732,-0.330856,0.449483,0.826739,64.489239,28.912754,-151.745656
53464,NaN,-4.890981,7.992320,2.411855,0.884350,-0.977537,-0.227386,0.433862,-1.487461,0.062314,-0.066790,-0.324687,0.451954,0.828164,64.329937,28.516740,-152.618676
53465,NaN,-4.426608,7.642857,2.496189,0.598219,-0.909389,-0.699302,0.287830,-1.687050,0.068367,-0.062728,-0.317642,0.453832,0.830184,64.039396,28.064569,-153.592124
53466,NaN,-4.195637,7.419734,2.545818,0.499628,-0.853021,-0.971917,0.144767,-1.759998,0.045998,-0.058557,-0.310240,0.455101,0.832589,63.655311,27.600722,-154.616636
53467,NaN,-3.924227,7.390276,2.881273,0.171863,-0.721666,-0.994151,0.048686,-1.707368,0.013465,-0.054587,-0.303116,0.455837,0.835077,63.235541,27.160463,-155.602867
53468,NaN,-4.175831,7.401326,3.206962,0.269722,-0.427980,-0.743770,-0.021022,-1.639215,-0.019460,-0.050664,-0.296276,0.456213,0.837570,62.800191,26.748580,-156.561587
53469,NaN,-4.467962,7.522050,3.343201,0.494182,-0.332621,-0.465747,-0.099906,-1.628299,-0.036813,-0.046879,-0.289516,0.456167,0.840175,62.328252,26.341348,-157.502735
53470,NaN,-4.475895,7.469381,3.356534,0.588815,-0.337085,-0.505142,-0.197407,-1.623967,-0.024666,-0.043220,-0.282670,0.455728,0.842936,61.813507,25.922301,-158.439898
53471,NaN,-4.312733,7.303890,3.425927,0.534312,-0.297016,-0.685320,-0.284075,-1.601638,-0.030562,-0.039780,-0.275928,0.454850,0.845809,61.262074,25.504183,-159.349321
53472,NaN,-4.013685,7.164443,3.565101,0.321712,-0.264851,-0.869850,-0.370103,-1.537857,-0.076771,-0.036330,-0.269493,0.453530,0.848743,60.680469,25.119467,-160.239321
53473,NaN,-3.686804,7.083039,3.857373,-0.010559,-0.158562,-0.946159,-0.439780,-1.320780,-0.161701,-0.033179,-0.264178,0.451706,0.851511,60.104603,24.829891,-161.020420
53474,NaN,-3.889096,7.218029,4.442704,-0.079660,0.198863,-0.489807,-0.462959,-1.089844,-0.217966,-0.030265,-0.259924,0.449680,0.853997,59.566722,24.628313,-161.698111
53475,NaN,-4.226815,7.278923,4.676592,0.144367,0.368758,-0.191784,-0.478442,-0.932906,-0.256080,-0.027634,-0.256449,0.447471,0.856295,59.052241,24.485339,-162.290661
53476,NaN,-4.430384,7.340440,4.639252,0.374341,0.291751,-0.075788,-0.483388,-0.850351,-0.247572,-0.025154,-0.253267,0.445257,0.858469,58.557777,24.358443,-162.843428
53477,NaN,-3.762875,7.627066,4.522206,-0.164151,-0.217736,-0.184249,-0.542218,-0.777679,-0.276842,-0.022859,-0.250482,0.442704,0.860668,58.042085,24.262852,-163.355793
53478,NaN,-2.094277,7.377842,4.752879,-1.655397,-0.396559,-0.952077,-0.631384,-0.450000,-0.359087,-0.020970,-0.249244,0.439645,0.862641,57.537347,24.303964,-163.729822
53479,NaN,-2.844980,7.323326,5.028078,-1.111504,-0.036336,-0.551514,-0.703898,-0.041380,-0.436894,-0.019811,-0.249957,0.436098,0.864261,57.067487,24.505325,-163.905213
53480,NaN,-3.372431,7.676361,5.347280,-0.881099,0.033404,0.092614,-0.812170,0.263883,-0.486414,-0.019162,-0.252051,0.432009,0.865720,56.595067,24.825448,-163.948203
53481,NaN,-3.471311,7.789656,5.794385,-1.059189,0.219601,0.440721,-0.973081,0.518709,-0.514636,-0.019220,-0.255317,0.427124,0.867184,56.080484,25.239042,-163.860659
53482,NaN,-4.153448,7.821641,6.090914,-0.662847,0.474081,0.904719,-1.121046,0.659525,-0.517349,-0.019680,-0.259144,0.421585,0.868748,55.511703,25.700553,-163.713523
53483,NaN,-4.285030,7.865880,6.371249,-0.749611,0.555203,1.139683,-1.220061,0.754471,-0.492156,-0.020652,-0.263338,0.415594,0.870350,54.910733,26.182119,-163.502837
53484,NaN,-4.144874,7.714004,6.448943,-0.942132,0.542193,1.008187,-1.277970,0.819800,-0.429528,-0.022031,-0.267632,0.409432,0.871925,54.302594,26.658377,-163.249197
53485,NaN,-5.140036,7.692708,6.163421,0.006232,0.487120,1.293480,-1.172982,0.488189,-0.291115,-0.023268,-0.270227,0.403899,0.873671,53.698854,26.960973,-163.110806
53486,NaN,-5.682787,7.309381,4.651387,1.276307,-0.268638,0.466154,-0.971518,-0.161400,-0.195498,-0.023264,-0.269775,0.399462,0.875848,53.074231,26.999211,-163.283859
53487,NaN,-3.769039,6.955193,3.866653,0.112877,-1.146621,-1.083239,-0.935516,-0.240701,-0.235786,-0.022951,-0.269086,0.395103,0.878043,52.444030,27.026445,-163.504256
53488,NaN,-3.341969,7.515082,3.914278,-0.359059,-1.692546,-0.869955,-0.999391,0.085691,-0.297259,-0.023020,-0.269908,0.390362,0.879907,51.842173,27.194710,-163.593024
53489,NaN,-3.154008,7.586247,4.333265,-0.742960,-1.597184,-0.692800,-1.017628,0.382468,-0.342465,-0.023571,-0.272143,0.385406,0.881388,51.288194,27.487674,-163.542580
53490,NaN,-2.634515,7.147046,5.354238,-1.647652,-0.834466,-0.687080,-1.031727,0.721047,-0.408400,-0.024426,-0.275957,0.380271,0.882409,50.792717,27.932895,-163.360787
53491,NaN,-3.539770,7.118029,6.261461,-1.395904,-0.089338,0.209501,-1.016658,1.088208,-0.426498,-0.025953,-0.281441,0.375086,0.882852,50.388795,28.520489,-162.995701
53492,NaN,-4.036573,6.820609,6.831998,-1.321889,0.522921,0.553996,-0.957012,1.469592,-0.376244,-0.028256,-0.288480,0.370184,0.882579,50.125104,29.228410,-162.428620
53493,NaN,-4.272313,6.589053,7.003714,-1.309005,0.775100,0.599024,-0.892807,1.837841,-0.265331,-0.031710,-0.296944,0.365614,0.881558,50.020385,30.023753,-161.617616
53494,NaN,-4.543652,6.366701,6.675880,-1.022511,0.735768,0.393081,-0.834704,2.118013,-0.174306,-0.035912,-0.306424,0.361380,0.879897,50.055174,30.883112,-160.628148
53495,NaN,-4.565262,6.262731,6.160307,-0.859905,0.447290,0.039764,-0.790768,2.393769,-0.096241,-0.040959,-0.316967,0.357327,0.877594,50.224735,31.807428,-159.442610
53496,NaN,-5.015874,6.170901,5.503823,-0.271264,0.219810,-0.147972,-0.740894,2.601846,-0.004162,-0.046618,-0.328193,0.353567,0.874704,50.528568,32.763874,-158.101366
53497,NaN,-5.248886,6.043213,4.808221,0.183243,-0.034640,-0.477104,-0.701136,2.758844,0.073607,-0.052898,-0.339936,0.349973,0.871300,50.949462,33.734607,-156.611864
53498,NaN,-5.493978,6.032953,4.294011,0.527537,-0.237915,-0.610427,-0.689448,2.912723,0.129083,-0.059582,-0.352163,0.346439,0.867416,51.474171,34.726579,-154.997741
53499,NaN,-5.799904,6.109466,3.964745,0.790684,-0.359113,-0.543000,-0.714468,2.984233,0.152934,-0.066600,-0.364591,0.342709,0.863243,52.053835,35.719119,-153.293289
53500,NaN,-5.818739,6.154990,4.045265,0.574463,-0.328782,-0.449712,-0.752754,2.974862,0.168388,-0.073650,-0.376834,0.338786,0.858950,52.655188,36.688235,-151.563181
53501,NaN,-5.414943,6.145146,4.387195,-0.115831,-0.293571,-0.526678,-0.784906,2.985984,0.174263,-0.080860,-0.389034,0.334632,0.854480,53.288806,37.642054,-149.779803
53502,NaN,-5.348566,6.061503,4.894782,-0.691678,-0.012106,-0.387907,-0.798406,3.082045,0.184078,-0.088203,-0.401514,0.330337,0.849638,53.997953,38.609497,-147.907978
53503,NaN,-6.061876,6.196072,5.207162,-0.658535,0.315278,0.272734,-0.799031,3.075795,0.232858,-0.095799,-0.413798,0.326038,0.844567,54.768406,39.530717,-145.968688
53504,NaN,-6.123872,6.139346,5.354464,-0.922690,0.436263,0.327274,-0.804737,2.965634,0.284659,-0.103349,-0.425409,0.321827,0.839508,55.555710,40.371990,-144.043280
53505,NaN,-5.649379,6.029790,5.043537,-1.143700,0.145440,-0.201265,-0.805986,2.897446,0.323471,-0.111005,-0.436592,0.317623,0.834375,56.371209,41.151105,-142.096135
53506,NaN,-5.633744,5.880480,4.632673,-0.977069,0.055731,-0.494920,-0.762239,2.867332,0.349963,-0.118527,-0.447521,0.313618,0.829048,57.248710,41.888918,-140.129217
53507,NaN,-5.610639,5.766057,4.205960,-0.791064,-0.054864,-0.769129,-0.684950,2.835783,0.335576,-0.125817,-0.458303,0.309839,0.823486,58.198917,42.597627,-138.140953
53508,NaN,-6.036437,5.824642,3.809268,-0.389679,-0.050157,-0.608391,-0.588521,2.762579,0.303703,-0.132534,-0.468795,0.306379,0.817801,59.204931,43.278889,-136.185523
53509,NaN,-6.571597,5.963207,3.532820,-0.045287,0.017076,-0.261668,-0.511424,2.663811,0.288950,-0.138914,-0.478869,0.303194,0.812072,60.248153,43.909113,-134.256325
53510,NaN,-7.203019,6.069104,3.181477,0.404001,0.154438,0.119581,-0.470775,2.528459,0.305964,-0.144956,-0.488309,0.300281,0.806457,61.292761,44.470810,-132.388717
53511,NaN,-7.460225,6.049413,2.913674,0.604550,0.243679,0.202948,-0.434871,2.345021,0.337528,-0.150821,-0.496916,0.297652,0.801081,62.307812,44.939195,-130.600049
53512,NaN,-6.904117,5.999444,2.769157,0.335448,-0.032564,-0.262125,-0.404329,2.231034,0.356421,-0.156421,-0.504979,0.295259,0.795833,63.313220,45.348003,-128.871209
53513,NaN,-6.387033,5.869121,2.585165,0.147845,-0.241969,-0.766030,-0.355675,2.282043,0.390075,-0.162161,-0.513180,0.293044,0.790238,64.407589,45.727454,-127.060685
53514,NaN,-5.873698,5.859475,2.336072,0.027266,-0.562792,-1.211992,-0.282829,2.525265,0.433550,-0.168154,-0.522232,0.291025,0.783774,65.709362,46.116491,-125.039895
53515,NaN,-5.656504,5.952903,2.043546,0.064765,-0.803600,-1.389074,-0.220661,2.842271,0.479370,-0.174658,-0.532442,0.289010,0.776191,67.263228,46.518624,-122.724738
53516,NaN,-5.406415,6.013065,1.939793,-0.089491,-0.983188,-1.556049,-0.201249,3.215061,0.478531,-0.181536,-0.543974,0.286713,0.767419,69.075269,46.954807,-120.095651
53517,NaN,-5.801399,6.111600,1.682269,0.106434,-0.846544,-1.262442,-0.176593,3.529203,0.477582,-0.188810,-0.556594,0.284103,0.757522,71.128193,47.390282,-117.166884
53518,NaN,-6.321757,6.265856,1.476592,0.249556,-0.646652,-0.817076,-0.149717,3.740235,0.499615,-0.196263,-0.569802,0.281411,0.746736,73.375463,47.775933,-114.025513
53519,NaN,-6.893750,6.383329,1.240019,0.393068,-0.372289,-0.351734,-0.133698,3.837323,0.526072,-0.203901,-0.583161,0.278607,0.735340,75.738043,48.075665,-110.747799
53520,NaN,-7.048499,6.410886,1.076095,0.335195,-0.260455,-0.233918,-0.152208,3.834406,0.538659,-0.211500,-0.596230,0.275726,0.723708,78.123509,48.276016,-107.447924
53521,NaN,-7.792105,6.494398,0.845738,0.445598,0.180616,0.354506,-0.195112,3.675458,0.527532,-0.218952,-0.608504,0.272671,0.712343,80.402415,48.376376,-104.255544
53522,NaN,-8.188922,6.556839,0.636737,0.455192,0.428916,0.678224,-0.246584,3.334311,0.484735,-0.225817,-0.619350,0.269649,0.701927,82.437797,48.391035,-101.362288
53523,NaN,-8.231873,6.537888,0.387421,0.474024,0.506490,0.683617,-0.304481,2.912542,0.447947,-0.232164,-0.628569,0.266661,0.692743,84.164631,48.335932,-98.826410
53524,NaN,-7.698420,6.336095,0.208826,0.406264,0.346151,0.145619,-0.360354,2.554391,0.416255,-0.238000,-0.636379,0.263803,0.684680,85.620895,48.233058,-96.617001
53525,NaN,-7.356752,6.319216,0.038023,0.391035,0.169730,-0.123930,-0.374182,2.351515,0.414038,-0.243623,-0.643404,0.261031,0.677157,86.928856,48.089124,-94.581659
53526,NaN,-6.984920,6.292952,-0.275652,0.543324,-0.023186,-0.422859,-0.366100,2.278295,0.437601,-0.249116,-0.650047,0.258477,0.669754,88.182986,47.898744,-92.629706
53527,NaN,-6.379924,6.311978,-0.544563,0.661583,-0.396260,-0.854748,-0.355450,2.379066,0.492526,-0.254907,-0.656899,0.255912,0.661827,89.491042,47.649610,-90.596306
53528,NaN,-5.784817,6.325792,-0.774165,0.755774,-0.749205,-1.271918,-0.343821,2.665019,0.570910,-0.261190,-0.664479,0.253300,0.652753,90.962438,47.320954,-88.351115
53529,NaN,-5.602651,6.372043,-0.835203,0.678441,-0.839324,-1.355553,-0.348795,3.039396,0.654482,-0.268233,-0.673048,0.250342,0.642173,92.627874,46.896976,-85.813434
53530,NaN,-5.796609,6.379320,-0.908765,0.577934,-0.636910,-1.188334,-0.379519,3.383293,0.720716,-0.275900,-0.682391,0.247045,0.630231,94.436684,46.369815,-83.044663
53531,NaN,-6.589190,6.417675,-0.928531,0.335277,-0.042345,-0.574315,-0.358216,3.492869,0.800077,-0.283844,-0.691820,0.243792,0.617563,96.258901,45.732287,-80.237081
53532,NaN,-7.341366,6.549050,-1.165500,0.260026,0.485261,0.078519,-0.344020,3.294559,0.813648,-0.291404,-0.700406,0.240904,0.605376,97.907320,45.041326,-77.663137
53533,NaN,-7.695773,6.899408,-1.343229,0.164070,0.586520,0.591906,-0.391555,2.970687,0.809479,-0.298700,-0.707785,0.238200,0.594205,99.284104,44.333867,-75.394927
53534,NaN,-8.122302,6.917743,-1.380437,-0.078949,0.958920,0.901939,-0.484353,2.563121,0.766367,-0.305602,-0.713694,0.235693,0.584549,100.336706,43.655580,-73.498565
53535,NaN,-8.403637,6.947965,-1.542741,-0.149931,1.240915,1.128540,-0.569502,2.120637,0.724993,-0.312164,-0.718137,0.233361,0.576520,101.069428,43.027391,-71.964244
53536,NaN,-8.273166,7.181594,-1.679234,-0.117247,1.096422,1.215582,-0.609792,1.709132,0.739479,-0.318351,-0.721212,0.231648,0.569952,101.535494,42.424776,-70.781094
53537,NaN,-8.030545,7.332897,-1.706231,-0.127878,0.919428,1.155867,-0.680561,1.403723,0.798843,-0.324627,-0.723194,0.230347,0.564401,101.779419,41.819675,-69.844873
53538,NaN,-7.876935,7.335265,-1.756357,-0.113576,0.921852,1.053452,-0.736476,1.183880,0.881021,-0.331017,-0.724298,0.229592,0.559560,101.858771,41.191571,-69.107296
53539,NaN,-7.446945,7.356914,-1.636917,-0.167453,0.688381,0.758854,-0.760674,1.015695,0.978692,-0.337597,-0.724753,0.229320,0.555133,101.821342,40.529034,-68.507356
53540,NaN,-6.734811,7.295078,-1.731240,0.075220,0.365030,0.258697,-0.754997,0.964440,1.065826,-0.344275,-0.724909,0.229519,0.550730,101.745524,39.823378,-67.973518
53541,NaN,-5.915014,7.515930,-1.749694,0.297017,-0.237072,-0.097127,-0.729877,1.088054,1.154153,-0.351267,-0.725316,0.229810,0.545633,101.724045,39.054811,-67.358341
53542,NaN,-5.776048,8.020052,-1.986696,0.539218,-0.467208,0.243150,-0.766669,1.289423,1.273806,-0.358876,-0.725988,0.230129,0.539619,101.749467,38.194936,-66.633401
53543,NaN,-5.993234,8.069883,-2.186828,0.602895,-0.134327,0.455709,-0.884893,1.447776,1.381066,-0.367392,-0.726695,0.230143,0.532890,101.751379,37.256971,-65.811352
53544,NaN,-5.421036,7.735004,-2.337590,0.847256,-0.133529,-0.120220,-0.968550,1.560911,1.433845,-0.376394,-0.727377,0.229956,0.525710,101.731195,36.275565,-64.937867
53545,NaN,-4.534071,8.007409,-2.174067,0.957953,-0.831964,-0.443025,-1.036372,1.550738,1.456046,-0.385681,-0.727799,0.229592,0.518503,101.647980,35.284266,-64.074706
53546,NaN,-4.760008,8.480924,-2.330156,1.015021,-0.726957,0.109606,-1.190171,1.419960,1.392779,-0.395121,-0.727540,0.228888,0.512031,101.414944,34.344589,-63.308914
53547,NaN,-5.386848,8.384254,-2.326928,0.750754,-0.035534,0.393245,-1.354351,1.204232,1.251769,-0.404541,-0.726494,0.227580,0.506715,101.005787,33.512602,-62.662282
53548,NaN,-6.568705,8.351311,-2.364456,0.326036,1.044874,1.017006,-1.472057,0.868429,1.184771,-0.413751,-0.724333,0.226452,0.502863,100.404699,32.757950,-62.239913
53549,NaN,-7.517336,8.599814,-2.145412,-0.201861,1.707047,1.681326,-1.492379,0.372973,1.105409,-0.422274,-0.720923,0.225920,0.500913,99.618675,32.102760,-62.122170
53550,NaN,-8.559838,9.013366,-1.736996,-0.878551,2.289651,2.496276,-1.490721,-0.271664,1.034666,-0.429809,-0.715902,0.226546,0.501424,98.616384,31.546976,-62.424652
53551,NaN,-9.429570,9.415916,-1.557996,-1.205819,2.865381,3.238469,-1.490652,-1.063674,1.017241,-0.436402,-0.708865,0.228723,0.504727,97.351264,31.060058,-63.227098
53552,NaN,-9.237170,9.474452,-1.499405,-0.965868,2.886151,3.151356,-1.490555,-1.859759,0.982641,-0.441894,-0.699742,0.232547,0.510893,95.831919,30.628174,-64.546591
53553,NaN,-7.609808,8.846837,-1.517539,-0.174911,2.153833,1.754522,-1.391799,-2.405078,0.927806,-0.446226,-0.689395,0.237528,0.518842,94.205913,30.224704,-66.194167
53554,NaN,-5.318455,7.958577,-1.427154,0.636875,0.908418,-0.198815,-1.077526,-2.434536,0.893826,-0.449213,-0.679552,0.243285,0.526525,92.771512,29.803674,-67.849734
53555,NaN,-2.727658,8.086258,-1.701027,1.892068,-1.028981,-1.381719,-0.733020,-1.901589,0.824837,-0.451471,-0.671882,0.248416,0.532014,91.727637,29.379673,-69.125025
53556,NaN,-1.474594,8.114365,-1.607534,2.257788,-2.023817,-1.976383,-0.489715,-0.898068,0.703050,-0.453751,-0.667507,0.251562,0.534098,91.159468,28.995142,-69.737655
53557,NaN,-1.937853,8.251568,-0.967625,1.554321,-1.864451,-1.634206,-0.337217,0.211813,0.602598,-0.456685,-0.666572,0.252194,0.532464,91.034302,28.653066,-69.608780
53558,NaN,-3.387809,8.370082,0.052044,0.156413,-1.021818,-0.842214,-0.258995,1.001489,0.608224,-0.460313,-0.667875,0.251307,0.528110,91.198964,28.298405,-68.975607
53559,NaN,-4.766419,8.390117,0.888413,-1.101714,-0.151008,-0.186412,-0.293149,1.311696,0.641199,-0.464557,-0.669867,0.249651,0.522628,91.432783,27.919311,-68.135395
53560,NaN,-5.412728,8.429740,1.045148,-1.510244,0.338876,0.139921,-0.327940,1.256702,0.679595,-0.468879,-0.671530,0.248211,0.517293,91.623121,27.515770,-67.345794
53561,NaN,-5.830857,8.475853,0.813186,-1.487854,0.787405,0.368967,-0.314279,1.049749,0.709689,-0.473000,-0.672640,0.247317,0.512504,91.752261,27.097072,-66.684660
53562,NaN,-6.738345,8.987974,0.184391,-1.204426,1.602873,1.241838,-0.230899,0.707324,0.720376,-0.476384,-0.673014,0.247537,0.508759,91.824233,26.676896,-66.256720
53563,NaN,-7.773575,9.632353,-0.555672,-0.843625,2.530275,2.287103,-0.100668,0.201331,0.650160,-0.478560,-0.672506,0.248990,0.506676,91.823149,26.306369,-66.143099
53564,NaN,-7.980667,10.028960,-1.572650,0.065066,2.995793,2.747766,0.023151,-0.465172,0.441107,-0.478911,-0.670837,0.251707,0.507213,91.706992,26.067209,-66.460443
53565,NaN,-7.629209,10.616514,-2.369371,1.072824,2.809571,3.128853,-0.051171,-1.333386,0.047896,-0.477452,-0.667286,0.254927,0.511645,91.308775,26.065341,-67.313415
53566,NaN,-8.258430,10.924762,-2.630638,1.325733,3.297661,3.671918,-0.270761,-2.430292,-0.481193,-0.473879,-0.660992,0.258473,0.521267,90.475669,26.368190,-68.872413
53567,NaN,-8.833000,11.107571,-2.339612,1.236252,3.548357,4.070373,-0.525321,-3.556994,-1.023312,-0.468205,-0.651712,0.262108,0.536055,89.155248,26.953428,-71.157175
53568,NaN,-8.982632,10.873247,-1.919914,1.241543,3.548884,3.914654,-0.709672,-4.524068,-1.404074,-0.460575,-0.639588,0.266206,0.554916,87.403028,27.685591,-74.112662
53569,NaN,-8.144337,10.284830,-1.285466,1.288035,2.795218,3.003746,-0.783965,-5.232081,-1.610372,-0.451411,-0.625193,0.270833,0.576203,85.332494,28.422024,-77.571594
53570,NaN,-6.441735,9.801113,-0.481549,1.264732,1.236119,1.790848,-0.818441,-5.650243,-1.597057,-0.441397,-0.608967,0.276176,0.598377,83.053122,29.010958,-81.362163
53571,NaN,-3.646903,8.498384,-0.263067,1.545692,-0.722952,-0.720235,-0.586475,-5.763293,-1.299125,-0.431080,-0.591983,0.283072,0.619352,80.839026,29.290523,-85.228518
53572,NaN,-3.448405,8.090551,-0.018055,1.491992,-0.828795,-1.185368,-0.290396,-5.766876,-1.312654,-0.419397,-0.575106,0.290652,0.639438,78.772115,29.451821,-89.126006
53573,NaN,-5.979368,7.693475,-0.054421,1.715278,1.464551,-0.334015,-0.180764,-5.841063,-1.587696,-0.406097,-0.558122,0.297635,0.659543,76.708975,29.635092,-93.110828
53574,NaN,-7.577403,8.709549,-0.142728,2.514411,2.193243,1.238894,-0.263815,-6.099721,-1.845431,-0.391334,-0.539943,0.303909,0.680411,74.479987,29.795567,-97.324762
53575,NaN,-7.558614,9.182598,-0.063059,3.034607,1.715411,1.557327,-0.372419,-6.581009,-1.921110,-0.375510,-0.519453,0.310168,0.702109,72.021624,29.767563,-101.854566
53576,NaN,-6.945803,9.179752,0.350789,3.040677,0.972855,1.251446,-0.494812,-7.129820,-1.940103,-0.358536,-0.496157,0.316624,0.724589,69.340949,29.470659,-106.726235
53577,NaN,-5.760164,9.193195,0.885645,2.716513,-0.201171,0.724730,-0.568145,-7.466568,-1.953166,-0.340720,-0.470835,0.322886,0.746973,66.567961,28.906079,-111.754074
53578,NaN,-4.087293,8.794680,1.820064,1.612134,-1.368783,-0.175182,-0.552124,-7.405336,-1.840806,-0.322803,-0.444873,0.328930,0.767914,63.923433,28.092020,-116.655507
53579,NaN,-2.209388,7.736219,2.594336,0.221732,-2.160491,-1.643187,-0.506308,-6.850018,-1.671082,-0.305984,-0.420249,0.334142,0.786202,61.580848,27.149724,-121.093224
53580,NaN,-0.492364,6.642575,3.051377,-1.041928,-2.704359,-3.083854,-0.335344,-5.843812,-1.497627,-0.290757,-0.399076,0.338529,0.800997,59.713542,26.260804,-124.845658
53581,NaN,0.569480,5.888887,3.260163,-1.856939,-2.921128,-4.011798,-0.082464,-4.497240,-1.316018,-0.277896,-0.383082,0.342045,0.811805,58.407066,25.586244,-127.739015
53582,NaN,0.220074,5.503935,3.530041,-1.941639,-2.290619,-4.000133,0.184934,-3.103769,-1.090249,-0.267624,-0.372558,0.345035,0.818858,57.645578,25.180075,-129.789439
53583,NaN,-0.483499,5.523924,3.550405,-1.539397,-1.771815,-3.660958,0.340565,-1.975340,-0.901757,-0.259810,-0.366476,0.347401,0.823108,57.267488,25.010305,-131.154882
53584,NaN,-1.225590,5.446333,3.697459,-1.227076,-1.145335,-3.330535,0.416265,-1.290766,-0.812775,-0.253309,-0.363102,0.349356,0.825798,57.103438,25.005705,-132.133952
53585,NaN,-2.096777,5.447222,3.978159,-0.918569,-0.447445,-2.823376,0.407504,-1.091729,-0.853066,-0.247069,-0.360607,0.350893,0.828127,56.971252,25.078955,-133.011791
53586,NaN,-2.893012,5.485287,4.369191,-0.716258,0.205295,-2.263348,0.378203,-1.251740,-0.981918,-0.239974,-0.357597,0.352287,0.830922,56.767037,25.162690,-134.029580
53587,NaN,-3.297030,5.315279,4.878015,-0.849081,0.773478,-1.964231,0.377284,-1.616708,-1.130437,-0.231680,-0.353321,0.353785,0.834461,56.455761,25.197189,-135.283147
53588,NaN,-3.005963,4.995713,5.407633,-1.430217,1.014512,-2.056373,0.467009,-2.017271,-1.284052,-0.221770,-0.347681,0.355836,0.838640,56.083499,25.171627,-136.811785
53589,NaN,-2.265625,4.794307,5.718506,-2.116866,0.840931,-2.354061,0.618928,-2.272043,-1.422840,-0.210601,-0.341353,0.358474,0.842984,55.721282,25.120317,-138.512618
53590,NaN,-1.759828,5.125998,5.579823,-2.278324,0.290530,-2.380871,0.744072,-2.275447,-1.542644,-0.198587,-0.335266,0.361396,0.847085,55.413210,25.116526,-140.267338
53591,NaN,-1.814258,5.493734,5.289258,-1.977570,-0.027492,-2.227355,0.816699,-2.087479,-1.557582,-0.186767,-0.330032,0.364313,0.850572,55.184833,25.172685,-141.919968
53592,NaN,-1.962438,5.822720,4.915556,-1.585686,-0.328026,-2.112304,0.815050,-1.775187,-1.494739,-0.175675,-0.325927,0.367000,0.853358,55.031393,25.297600,-143.399074
53593,NaN,-2.501966,6.588452,4.403260,-0.815013,-0.811732,-1.582681,0.639149,-1.352056,-1.336188,-0.166380,-0.323167,0.368750,0.855514,54.891621,25.483005,-144.592884
53594,NaN,-2.836538,6.564640,4.086332,-0.384785,-0.805927,-1.624839,0.476895,-0.926119,-1.130991,-0.158917,-0.321663,0.369779,0.857054,54.781848,25.711291,-145.502983
53595,NaN,-2.860412,6.490575,3.725998,-0.161860,-0.960579,-1.860109,0.337329,-0.507559,-0.927353,-0.153396,-0.321476,0.370162,0.857964,54.715169,25.980660,-146.112832
53596,NaN,-2.910112,6.523345,3.947560,-0.310488,-0.865210,-1.703383,0.234950,-0.150904,-0.791951,-0.149199,-0.322455,0.370067,0.858378,54.690101,26.305014,-146.498802
53597,NaN,-2.881632,6.757374,4.308972,-0.609712,-0.873993,-1.362996,0.061799,0.055411,-0.715179,-0.146068,-0.324071,0.369167,0.858695,54.623887,26.660930,-146.739947
53598,NaN,-3.426345,6.585294,4.934181,-0.659275,-0.192320,-0.925609,-0.103797,0.087636,-0.707693,-0.143217,-0.325658,0.367567,0.859262,54.469617,27.024254,-146.973003
53599,NaN,-3.583421,6.302511,5.109784,-0.693041,0.125013,-0.970955,-0.146902,0.011290,-0.717509,-0.140330,-0.326928,0.365788,0.860014,54.268583,27.365440,-147.241650
53600,NaN,-3.275581,6.156154,5.371247,-1.128265,0.171024,-1.084832,-0.120497,0.069069,-0.724965,-0.137394,-0.328446,0.364092,0.860630,54.092887,27.729175,-147.495010
53601,NaN,-4.125606,6.277229,5.899792,-0.883792,0.729314,-0.330152,-0.041632,0.165337,-0.681086,-0.134768,-0.330377,0.362710,0.860889,53.991657,28.103926,-147.672907
53602,NaN,-5.150629,6.652027,5.997714,-0.232910,0.964240,0.471608,0.069471,0.191374,-0.572997,-0.132392,-0.332266,0.361989,0.860834,53.978581,28.437678,-147.806866
53603,NaN,-5.917041,6.849703,5.987718,0.294007,1.154681,0.974464,0.217404,0.163457,-0.453248,-0.130311,-0.333942,0.362094,0.860459,54.064667,28.706100,-147.899680
53604,NaN,-6.856898,7.353670,5.781671,1.079574,1.116747,1.681160,0.278903,0.030948,-0.344115,-0.128279,-0.334859,0.362755,0.860129,54.171958,28.879995,-148.030707
53605,NaN,-7.141253,7.625573,5.434638,1.490419,0.867482,1.836701,0.275348,-0.129477,-0.238323,-0.126494,-0.334920,0.363653,0.859991,54.255674,28.950650,-148.196076
53606,NaN,-6.738789,7.666143,5.001860,1.469446,0.420794,1.450673,0.258174,-0.243827,-0.151363,-0.124825,-0.334291,0.364720,0.860028,54.315896,28.943473,-148.399131
53607,NaN,-5.821554,7.912577,4.625155,1.025961,-0.374494,0.990025,0.211447,-0.213313,-0.141332,-0.123410,-0.333772,0.365556,0.860078,54.359330,28.941285,-148.571941
53608,NaN,-5.618013,7.708332,4.440014,0.997011,-0.425888,0.652434,0.130515,-0.129539,-0.162373,-0.122114,-0.333574,0.365983,0.860159,54.373846,28.977717,-148.718377
53609,NaN,-5.215297,7.690088,4.437786,0.687564,-0.603709,0.443701,0.067507,-0.036959,-0.192244,-0.121043,-0.333817,0.366005,0.860206,54.370680,29.058191,-148.816827
53610,NaN,-4.892154,7.623399,4.536949,0.365416,-0.660383,0.289966,0.015659,0.085348,-0.229631,-0.120042,-0.334596,0.365694,0.860176,54.362280,29.197734,-148.874580
53611,NaN,-4.660888,7.407843,4.588586,0.141925,-0.598816,0.050189,-0.001647,0.224130,-0.230264,-0.119400,-0.335988,0.365198,0.859934,54.380043,29.383054,-148.848429
53612,NaN,-4.216794,7.130683,4.671679,-0.268375,-0.569580,-0.322904,0.049406,0.418053,-0.212668,-0.119023,-0.338186,0.364860,0.859268,54.481737,29.625612,-148.721478
53613,NaN,-4.066089,7.088120,4.842999,-0.541055,-0.519054,-0.343434,0.139410,0.589938,-0.199117,-0.118943,-0.341174,0.364800,0.858123,54.684592,29.917767,-148.485716
53614,NaN,-4.005215,7.225665,4.848925,-0.654849,-0.639097,-0.277151,0.186536,0.696335,-0.156346,-0.119081,-0.344537,0.364975,0.856684,54.953635,30.224916,-148.184000
53615,NaN,-4.258748,7.211946,4.719936,-0.444009,-0.576527,-0.226394,0.237461,0.728781,-0.122537,-0.119412,-0.348030,0.365374,0.855054,55.270076,30.524681,-147.838957
53616,NaN,-4.816896,7.601075,4.620881,-0.051603,-0.634956,0.283114,0.261774,0.618094,-0.089662,-0.119559,-0.350973,0.366025,0.853551,55.578799,30.771989,-147.549326
53617,NaN,-4.721638,8.055899,4.508110,-0.119305,-1.046044,0.502632,0.177947,0.460253,-0.060625,-0.119766,-0.353162,0.366431,0.852444,55.802364,30.952708,-147.323786
53618,NaN,-4.663847,7.599920,4.302772,-0.032516,-0.851892,0.051249,0.137146,0.372158,-0.005457,-0.120040,-0.354822,0.366842,0.851539,55.989333,31.078866,-147.135174
53619,NaN,-4.924523,7.805719,4.430696,0.027984,-0.794750,0.394113,0.126045,0.236704,0.010730,-0.120231,-0.355894,0.367285,0.850874,56.134665,31.152899,-147.005132
53620,NaN,-5.383489,8.139948,4.564490,0.235464,-0.738140,0.933241,0.022602,-0.095933,-0.032982,-0.119733,-0.355542,0.367440,0.851024,56.117041,31.141932,-147.086057
53621,NaN,-5.306613,8.163222,4.501071,0.242478,-0.835329,0.878489,-0.110697,-0.547873,-0.101053,-0.118428,-0.353338,0.367145,0.852251,55.880365,31.017801,-147.433115
53622,NaN,-4.362275,8.868229,4.276252,-0.278762,-1.919177,0.779758,-0.286816,-0.923831,-0.224571,-0.116139,-0.349621,0.366128,0.854533,55.414226,30.829254,-148.042422
53623,NaN,-4.490183,8.320923,4.681330,-0.366818,-1.313230,0.649355,-0.522169,-1.101467,-0.439191,-0.113092,-0.345417,0.363791,0.857644,54.724572,30.677537,-148.817589
53624,NaN,-4.353822,8.137045,5.211112,-0.745657,-1.033631,0.708604,-0.625564,-0.972232,-0.484749,-0.110182,-0.341750,0.360875,0.860718,54.005858,30.582429,-149.547050
53625,NaN,-5.169899,7.671617,5.897168,-0.508098,-0.053105,1.146158,-0.575321,-0.775716,-0.449821,-0.107764,-0.338910,0.358083,0.863310,53.377783,30.530167,-150.145708
53626,NaN,-5.075491,7.457846,6.018033,-0.596749,0.056950,1.014918,-0.405154,-0.517442,-0.322697,-0.105989,-0.337014,0.356125,0.865080,52.944016,30.503902,-150.565134
53627,NaN,-5.163102,7.596957,6.204754,-0.632815,0.048482,1.253812,-0.262957,-0.230183,-0.190099,-0.105136,-0.336225,0.354819,0.866027,52.695731,30.514130,-150.769074
53628,NaN,-5.044196,8.070170,6.033698,-0.622418,-0.471618,1.428627,-0.247491,-0.089253,-0.133066,-0.104677,-0.335924,0.353632,0.866685,52.506176,30.547056,-150.885375
53629,NaN,-5.455655,8.189369,5.924000,-0.232289,-0.478891,1.660772,-0.297187,-0.178072,-0.122585,-0.104265,-0.335220,0.352262,0.867564,52.265974,30.543535,-151.034599
53630,NaN,-4.088060,8.020007,5.809113,-1.154505,-1.029363,0.788530,-0.423797,-0.274311,-0.192263,-0.103517,-0.334126,0.350305,0.868867,51.913575,30.537191,-151.272555
53631,NaN,-5.310692,7.991285,5.944050,-0.290426,-0.486349,1.460046,-0.547176,-0.216837,-0.253833,-0.102884,-0.333351,0.347645,0.870307,51.492328,30.577390,-151.496099
53632,NaN,-5.422407,7.587598,5.636922,0.049137,-0.372608,1.078010,-0.587159,-0.324734,-0.190778,-0.102328,-0.331945,0.344999,0.871962,51.033336,30.549360,-151.759501
53633,NaN,-4.617239,7.065813,5.464440,-0.388380,-0.465688,0.224079,-0.583867,-0.190582,-0.151426,-0.102243,-0.331082,0.342329,0.873351,50.619508,30.550625,-151.927138
53634,NaN,-4.919956,6.663325,5.426890,-0.092692,-0.114383,0.088581,-0.546102,0.026514,-0.095775,-0.102634,-0.331060,0.339834,0.874287,50.296427,30.605645,-151.969558
53635,NaN,-4.635263,6.233585,5.436286,-0.287493,0.054178,-0.335835,-0.481333,0.186940,-0.056950,-0.103435,-0.331733,0.337570,0.874815,50.059996,30.702223,-151.903968
53636,NaN,-5.057040,6.236138,5.146734,0.218861,0.043691,-0.278428,-0.282683,0.215764,0.006253,-0.104155,-0.332498,0.336295,0.874930,49.959225,30.781896,-151.806577
53637,NaN,-5.019206,6.452865,4.848308,0.373138,-0.300442,-0.320138,-0.086016,0.070765,0.034569,-0.104504,-0.332711,0.335971,0.874932,49.938989,30.795730,-151.761380
53638,NaN,-5.023374,6.816929,4.918285,0.316680,-0.535908,-0.039927,0.054446,-0.069263,0.009237,-0.104197,-0.332400,0.336324,0.874951,49.957636,30.769128,-151.808253
53639,NaN,-5.618351,7.419997,5.198594,0.566636,-0.599464,0.815913,0.085263,-0.246683,-0.043145,-0.103388,-0.331444,0.336785,0.875232,49.935671,30.700003,-151.958391
53640,NaN,-5.689281,7.628374,5.265441,0.585645,-0.697076,1.025021,0.042578,-0.452452,-0.137351,-0.101814,-0.329696,0.337040,0.875979,49.816179,30.596114,-152.263181
53641,NaN,-5.202591,7.543000,5.438707,0.130128,-0.749470,0.815795,0.043243,-0.518833,-0.213922,-0.099867,-0.327811,0.337171,0.876859,49.663304,30.500421,-152.624337
53642,NaN,-4.822269,7.564274,5.841527,-0.397272,-0.717402,0.860803,0.080444,-0.586249,-0.269888,-0.097423,-0.325714,0.337436,0.877813,49.503829,30.403351,-153.052681
53643,NaN,-4.744852,7.561866,6.086859,-0.588129,-0.627259,0.957915,0.099885,-0.626751,-0.275362,-0.094929,-0.323481,0.337761,0.878787,49.344280,30.292464,-153.493434
53644,NaN,-4.235085,7.298179,5.854152,-0.798760,-0.756945,0.398064,0.082934,-0.510810,-0.230829,-0.092778,-0.321643,0.338057,0.879577,49.215927,30.204648,-153.865458
53645,NaN,-4.091482,7.232885,5.164033,-0.460486,-1.139047,-0.106370,0.027192,-0.269344,-0.170613,-0.091465,-0.320765,0.338059,0.880034,49.129384,30.180561,-154.080278
53646,NaN,-4.054632,6.813993,4.409342,0.005986,-1.249014,-0.826434,-0.030497,0.046062,-0.091899,-0.091048,-0.321086,0.337822,0.880051,49.107324,30.240403,-154.112398
53647,NaN,-4.233025,6.545181,3.963525,0.425369,-1.222481,-1.164451,-0.064885,0.365383,-0.023706,-0.091601,-0.322710,0.337363,0.879576,49.160514,30.390485,-153.945084
53648,NaN,-4.845031,6.244364,4.025506,0.848127,-0.729328,-1.013839,-0.060897,0.662022,0.020060,-0.092765,-0.325536,0.336889,0.878594,49.303320,30.632197,-153.618181
53649,NaN,-5.711763,6.046946,4.470649,1.202143,-0.004424,-0.446198,-0.014736,0.696190,0.042204,-0.094082,-0.328521,0.336600,0.877453,49.487393,30.876306,-153.253265
53650,NaN,-6.333999,5.990833,4.632061,1.538967,0.372214,-0.068019,0.007850,0.412148,-0.008384,-0.094587,-0.330325,0.336493,0.876762,49.601843,31.036013,-153.062580
53651,NaN,-6.141963,6.135210,4.830861,1.233606,0.293906,0.040919,0.025734,0.071633,-0.115170,-0.094096,-0.330851,0.336413,0.876647,49.612571,31.115743,-153.081815
53652,NaN,-5.344395,6.387362,5.265104,0.324874,0.013936,0.034978,0.012993,-0.168823,-0.201498,-0.092768,-0.330436,0.336282,0.876995,49.534388,31.143888,-153.270502
53653,NaN,-4.959116,6.632387,5.650449,-0.227285,-0.131834,0.209283,-0.028239,-0.263930,-0.235115,-0.091275,-0.329666,0.335923,0.877579,49.398739,31.150859,-153.512906
53654,NaN,-4.354922,6.579332,5.473702,-0.567923,-0.433327,-0.236465,-0.073610,-0.183245,-0.200325,-0.090070,-0.329145,0.335420,0.878092,49.267238,31.172472,-153.708599
53655,NaN,-4.207042,6.550841,5.485280,-0.688811,-0.477639,-0.325940,-0.104294,0.069984,-0.123156,-0.089754,-0.329617,0.334759,0.878199,49.200853,31.254941,-153.732799
53656,NaN,-4.359722,6.439553,5.619205,-0.665506,-0.275580,-0.245473,-0.100141,0.339454,-0.021481,-0.090253,-0.331078,0.334198,0.877812,49.232261,31.394184,-153.585035
53657,NaN,-4.658597,6.435276,5.572200,-0.434832,-0.187415,-0.120401,-0.075284,0.554960,0.069235,-0.091545,-0.333368,0.333762,0.876977,49.355447,31.574334,-153.277894
53658,NaN,-5.287897,6.551517,5.514298,0.034192,-0.060690,0.251441,-0.060890,0.705567,0.121807,-0.093218,-0.336208,0.333440,0.875838,49.542138,31.786943,-152.878847
53659,NaN,-5.592390,6.589145,5.324478,0.339449,-0.058674,0.332403,-0.032492,0.739732,0.166229,-0.095169,-0.339159,0.333261,0.874558,49.765689,31.991627,-152.431634
53660,NaN,-5.656993,6.517123,5.292558,0.365202,0.020585,0.304210,-0.015988,0.741174,0.160326,-0.096992,-0.342102,0.333176,0.873243,50.001319,32.197871,-151.993635
53661,NaN,-5.950864,6.484301,5.207911,0.596955,0.133653,0.395491,-0.006543,0.618897,0.116237,-0.098477,-0.344612,0.333075,0.872127,50.199243,32.377156,-151.627157
53662,NaN,-6.093444,6.368366,5.062042,0.771742,0.213737,0.319888,-0.021164,0.377394,0.040633,-0.099180,-0.346159,0.332934,0.871489,50.306227,32.500443,-151.427722
53663,NaN,-5.820863,6.293229,5.009228,0.588800,0.135299,0.097637,-0.039846,0.185350,-0.020844,-0.099402,-0.346987,0.332663,0.871237,50.333444,32.580379,-151.345671
53664,NaN,-5.499570,6.255709,5.232025,0.191451,0.143224,0.020729,-0.058073,0.127965,-0.052997,-0.099345,-0.347585,0.332322,0.871136,50.327867,32.653568,-151.316873
53665,NaN,-5.117157,6.323705,5.297096,-0.148707,-0.036794,-0.106489,-0.064899,0.121039,-0.050593,-0.099374,-0.348170,0.331921,0.871052,50.315802,32.723094,-151.281310
53666,NaN,-4.877218,6.391132,5.296921,-0.340122,-0.191789,-0.192983,-0.059657,0.155202,-0.042387,-0.099487,-0.348896,0.331547,0.870890,50.319635,32.801581,-151.223574
53667,NaN,-5.034486,6.466543,5.359235,-0.283858,-0.158743,-0.026072,-0.042915,0.205241,-0.019528,-0.099752,-0.349807,0.331254,0.870606,50.351601,32.888193,-151.130201
53668,NaN,-5.289870,6.404599,5.364184,-0.113281,-0.006616,0.074839,-0.008614,0.262015,0.003623,-0.100078,-0.350917,0.331160,0.870158,50.426385,32.985281,-151.006031
53669,NaN,-5.460856,6.373471,5.277499,0.050305,0.045678,0.101414,0.008602,0.336810,0.031160,-0.100691,-0.352341,0.331113,0.869529,50.538240,33.097255,-150.820769
53670,NaN,-5.494165,6.360282,5.149775,0.135310,0.011311,0.043311,0.026564,0.392029,0.048101,-0.101363,-0.353959,0.331183,0.868767,50.682235,33.221472,-150.607727
53671,NaN,-5.406522,6.507419,5.267323,-0.046151,-0.069454,0.152986,0.039081,0.382233,0.042013,-0.102044,-0.355575,0.331263,0.867997,50.828649,33.344354,-150.392501
53672,NaN,-5.236708,6.472184,5.447148,-0.318070,-0.015453,0.131267,0.032211,0.335197,0.028251,-0.102525,-0.356980,0.331349,0.867330,50.955999,33.455959,-150.216963
53673,NaN,-5.203008,6.664413,5.280270,-0.264133,-0.253892,0.148873,0.020013,0.326312,0.027207,-0.103083,-0.358366,0.331347,0.866693,51.072855,33.564462,-150.036780
53674,NaN,-5.079588,6.716193,4.989839,-0.179433,-0.485218,-0.038217,-0.009703,0.344643,0.049281,-0.103745,-0.359753,0.331283,0.866064,51.185150,33.669372,-149.846090
53675,NaN,-5.255553,6.727278,4.905196,-0.016995,-0.458388,0.022332,-0.041411,0.368272,0.064129,-0.104642,-0.361226,0.331057,0.865429,51.289250,33.775847,-149.626493
53676,NaN,-5.483375,6.711115,5.042928,0.029167,-0.278652,0.210238,-0.075913,0.396252,0.078995,-0.105638,-0.362749,0.330731,0.864795,51.387427,33.885291,-149.394212
53677,NaN,-5.433853,6.862190,5.363990,-0.260578,-0.254519,0.446751,-0.130504,0.408847,0.096998,-0.106905,-0.364294,0.330155,0.864210,51.461842,33.990941,-149.137582
53678,NaN,-4.477651,10.119757,6.882355,-2.190565,-2.401857,2.807062,-0.386681,0.268012,0.123344,-0.108446,-0.365021,0.328634,0.864291,51.354929,34.034433,-148.954763
53679,NaN,4.228599,3.841669,6.040430,-7.436997,-1.807937,-6.564868,-0.556602,0.480950,0.411813,-0.111965,-0.366124,0.326746,0.864091,51.283474,34.025484,-148.523150
53680,NaN,-14.597754,5.500556,4.866180,6.551933,4.530419,4.455266,0.011648,1.269353,0.323045,-0.115275,-0.371056,0.326740,0.861551,51.758799,34.335443,-147.710901
53681,NaN,-7.869029,5.501505,2.244527,3.630307,0.376196,-0.652706,-0.008402,0.573855,0.150296,-0.116810,-0.373283,0.326679,0.860405,51.970098,34.473819,-147.338888
53682,NaN,-9.313225,5.902462,3.632344,3.587645,1.392652,1.139865,0.100045,0.230403,0.001732,-0.116868,-0.374311,0.327047,0.859810,52.103275,34.557245,-147.227000
53683,NaN,-7.679256,6.455794,4.240903,1.979892,0.534761,0.884395,0.115549,-0.134363,-0.154778,-0.115701,-0.374060,0.327361,0.859957,52.092657,34.583017,-147.372812
53684,NaN,-6.388277,6.010372,4.661300,0.802999,0.495628,0.075281,0.215004,-0.238205,-0.152690,-0.114187,-0.373422,0.328173,0.860128,52.108464,34.571560,-147.574017
53685,NaN,-6.921507,5.913787,6.095904,0.150457,1.493446,1.040292,0.256381,-0.205668,-0.184274,-0.112513,-0.372992,0.329077,0.860190,52.149138,34.585657,-147.771597
53686,NaN,-7.896547,5.929527,6.319825,0.683078,2.021153,1.715678,0.330029,-0.505641,-0.188790,-0.110112,-0.371296,0.330494,0.860691,52.138900,34.496701,-148.145078
53687,NaN,-6.113404,5.907075,5.492503,0.054817,0.865763,0.271072,0.380902,-0.666159,-0.193139,-0.107407,-0.368962,0.332167,0.861392,52.106695,34.352798,-148.598550
53688,NaN,-5.557857,6.134972,5.475438,-0.312443,0.460677,0.096811,0.458928,-0.605962,-0.151615,-0.104758,-0.366831,0.334253,0.861821,52.150197,34.211842,-149.010063
53689,NaN,-4.512672,6.376479,5.532650,-1.095088,-0.109674,-0.303610,0.512139,-0.421137,-0.026451,-0.102935,-0.365333,0.336659,0.861741,52.310609,34.079133,-149.257588
53690,NaN,-4.526265,6.660816,5.721961,-1.235877,-0.184022,-0.013044,0.450436,-0.173374,0.065575,-0.101961,-0.364690,0.338873,0.861261,52.534649,33.992357,-149.340228
53691,NaN,-4.818075,6.736467,5.567522,-0.925745,-0.158780,0.122543,0.372931,-0.197253,0.108735,-0.101350,-0.363852,0.340806,0.860925,52.716011,33.877377,-149.408699
53692,NaN,-4.427954,6.582718,4.943355,-0.754232,-0.496112,-0.508890,0.309269,-0.205307,0.135837,-0.100881,-0.362874,0.342553,0.860699,52.865656,33.747709,-149.480109
53693,NaN,-5.159032,6.727984,4.473652,0.089670,-0.508675,-0.240432,0.292061,-0.135367,0.152197,-0.100708,-0.362184,0.344183,0.860360,53.029472,33.634541,-149.497118
53694,NaN,-5.371183,6.859648,4.280246,0.367363,-0.587728,-0.130517,0.278464,-0.055629,0.169387,-0.100697,-0.361774,0.345780,0.859893,53.214446,33.541221,-149.473029
53695,NaN,-5.888307,6.959185,4.287878,0.723575,-0.408806,0.227111,0.253169,0.013542,0.165828,-0.100910,-0.361680,0.347190,0.859339,53.403955,33.472860,-149.403211
53696,NaN,-6.046774,7.014645,4.342553,0.791023,-0.324769,0.380213,0.232728,0.026763,0.166391,-0.101110,-0.361605,0.348543,0.858799,53.586739,33.408858,-149.335628
53697,NaN,-5.985366,7.012226,4.479140,0.648918,-0.249093,0.413525,0.210999,0.035894,0.171023,-0.101460,-0.361574,0.349769,0.858272,53.759570,33.345318,-149.251969
53698,NaN,-5.843108,6.988052,4.822660,0.308269,-0.082182,0.489302,0.206479,0.038272,0.199178,-0.101868,-0.361477,0.351061,0.857737,53.937706,33.269683,-149.165310
53699,NaN,-5.498366,7.048344,5.122154,-0.152452,-0.082457,0.488647,0.223192,0.071449,0.278219,-0.102718,-0.361415,0.352513,0.857066,54.151390,33.167935,-149.019479
53700,NaN,-5.518148,7.141100,5.417877,-0.351978,0.057029,0.707357,0.249466,0.145664,0.372065,-0.103978,-0.361493,0.354245,0.856167,54.423613,33.047180,-148.805041
53701,NaN,-5.308597,7.113222,5.487248,-0.552100,0.075187,0.607403,0.285711,0.245362,0.487526,-0.105917,-0.361834,0.356249,0.854953,54.769513,32.904239,-148.481154
53702,NaN,-5.353621,7.191282,5.450325,-0.510289,0.081943,0.666546,0.324546,0.412885,0.588312,-0.108440,-0.362702,0.358545,0.853307,55.209331,32.767481,-148.035394
53703,NaN,-5.629326,7.417093,5.361489,-0.284740,0.066991,0.927987,0.325612,0.489768,0.641314,-0.111397,-0.363823,0.360857,0.851473,55.680962,32.627388,-147.518635
53704,NaN,-5.361832,7.582640,5.065527,-0.295838,-0.254528,0.758615,0.312655,0.495467,0.668155,-0.114427,-0.364879,0.363190,0.849625,56.151139,32.473049,-147.000124
53705,NaN,-5.220327,7.648183,4.987812,-0.361361,-0.338513,0.693466,0.261809,0.482729,0.558406,-0.117132,-0.366071,0.365071,0.847936,56.562933,32.363366,-146.522830
53706,NaN,-6.169815,8.048849,4.757664,0.433238,-0.240746,1.378381,0.225842,0.238300,0.484135,-0.119066,-0.366309,0.366840,0.846800,56.864774,32.210040,-146.222620
53707,NaN,-5.502900,8.291310,4.391170,0.216059,-0.866106,1.027656,0.218370,-0.075791,0.437999,-0.120316,-0.365323,0.368639,0.846267,57.055924,31.979478,-146.109468
53708,NaN,-5.067134,8.640208,4.369377,-0.074690,-1.283265,1.039406,0.160211,-0.225761,0.370347,-0.121035,-0.363762,0.370195,0.846158,57.156087,31.734714,-146.116450
53709,NaN,-5.590017,8.947536,4.623529,0.130552,-1.081967,1.654475,0.024502,-0.351049,0.282111,-0.121469,-0.361778,0.371051,0.846571,57.123223,31.493306,-146.217204
53710,NaN,-5.829428,8.953027,4.680194,0.310524,-0.930454,1.809733,-0.137603,-0.532597,0.195474,-0.121419,-0.359057,0.371211,0.847666,56.929885,31.236877,-146.460294
53711,NaN,-5.226225,8.960522,4.707577,-0.076430,-1.212165,1.513834,-0.235410,-0.620817,0.128974,-0.121170,-0.356051,0.370849,0.849127,56.642992,30.983687,-146.765943
53712,NaN,-5.434904,8.864390,4.650344,0.185483,-1.095914,1.523335,-0.305896,-0.653136,0.088481,-0.120741,-0.352908,0.370168,0.850796,56.302566,30.738213,-147.111364
53713,NaN,-5.925158,8.556926,4.687879,0.603909,-0.658708,1.567361,-0.340927,-0.739618,0.059928,-0.120163,-0.349451,0.369296,0.852681,55.913639,30.476824,-147.503190
53714,NaN,-6.169371,8.347863,4.556554,0.964894,-0.501501,1.471234,-0.329696,-0.877361,0.075297,-0.119300,-0.345351,0.368614,0.854765,55.500807,30.161336,-147.970791
53715,NaN,-5.538192,8.129976,4.163312,0.866323,-0.882666,0.797259,-0.290450,-0.965940,0.071790,-0.118262,-0.340922,0.368098,0.856907,55.088563,29.815767,-148.474440
53716,NaN,-4.321888,8.042151,3.637239,0.398858,-1.690839,-0.139739,-0.307102,-0.934244,-0.027461,-0.116808,-0.336766,0.367352,0.859067,54.662904,29.524106,-149.003333
53717,NaN,-3.970499,8.088546,3.529288,0.264145,-1.982276,-0.344548,-0.440527,-0.855712,-0.270851,-0.114749,-0.333335,0.365530,0.861457,54.137697,29.368163,-149.570277
53718,NaN,-5.045809,8.457552,3.810538,0.919227,-1.687515,0.570803,-0.632934,-0.852340,-0.554418,-0.111718,-0.330290,0.362433,0.864332,53.453018,29.339231,-150.252271
53719,NaN,-6.748708,8.269102,4.227043,2.000944,-0.707837,1.469335,-0.790151,-0.993399,-0.801758,-0.107691,-0.327007,0.358270,0.867820,52.592384,29.367022,-151.096456
53720,NaN,-7.704252,8.083578,4.870930,2.399499,0.017369,2.131526,-0.874920,-1.285609,-0.973951,-0.102448,-0.322672,0.353631,0.871970,51.576555,29.357926,-152.171271
53721,NaN,-7.788413,7.671292,5.198973,2.379457,0.336137,2.051454,-0.917021,-1.633812,-1.114441,-0.096110,-0.317038,0.348682,0.876739,50.420178,29.268004,-153.472054
53722,NaN,-7.305269,7.015866,5.359428,2.058575,0.512612,1.448189,-0.916498,-1.871781,-1.212832,-0.088834,-0.310470,0.343689,0.881813,49.192365,29.110138,-154.938844
53723,NaN,-6.549700,6.413318,5.266558,1.672937,0.433568,0.616838,-0.872361,-1.913247,-1.275271,-0.081208,-0.303821,0.338719,0.886774,47.971315,28.935652,-156.437489
53724,NaN,-5.606957,5.887460,4.987230,1.214259,0.171205,-0.354037,-0.816997,-1.705133,-1.301774,-0.073642,-0.298102,0.333859,0.891207,46.833179,28.827134,-157.850176
53725,NaN,-5.088391,5.439381,4.576669,1.124808,-0.034629,-1.143414,-0.725907,-1.296398,-1.334487,-0.066546,-0.294275,0.329129,0.894789,45.833528,28.869953,-159.072197
53726,NaN,-4.758561,5.204045,4.338966,1.031422,-0.218686,-1.600523,-0.661649,-0.833633,-1.377013,-0.059841,-0.292569,0.324479,0.897516,44.964440,29.100135,-160.109220
53727,NaN,-5.239769,4.770986,4.421719,1.407469,0.185921,-1.581509,-0.585740,-0.417550,-1.420614,-0.053580,-0.292819,0.319921,0.899465,44.212237,29.503596,-160.972496
53728,NaN,-5.837157,4.392573,4.689915,1.750617,0.682498,-1.337390,-0.462223,-0.123995,-1.442075,-0.047424,-0.294431,0.315828,0.900730,43.584281,30.029741,-161.730133
53729,NaN,-6.177928,4.002957,4.996929,1.849472,1.141619,-1.185133,-0.304172,0.034292,-1.440162,-0.041376,-0.296781,0.312354,0.901468,43.069658,30.612543,-162.415981
53730,NaN,-6.459688,3.791746,5.131800,1.971533,1.357241,-1.054255,-0.120872,0.064994,-1.434552,-0.035041,-0.299278,0.309729,0.901816,42.659979,31.203650,-163.103808
53731,NaN,-6.544553,3.584129,5.064774,2.047176,1.419026,-1.145301,0.044433,-0.009418,-1.449125,-0.028362,-0.301481,0.307788,0.901982,42.310904,31.762695,-163.832270
53732,NaN,-6.640339,3.408108,4.989237,2.140595,1.458549,-1.216673,0.202484,-0.141221,-1.478395,-0.021021,-0.303136,0.306556,0.902048,42.005548,32.275949,-164.652227
53733,NaN,-6.681191,3.210415,4.815987,2.257693,1.453095,-1.390725,0.331000,-0.264099,-1.500292,-0.013284,-0.304270,0.305826,0.902061,41.725417,32.739137,-165.537371
53734,NaN,-6.558760,3.020738,4.633009,2.254172,1.404721,-1.654756,0.449993,-0.323429,-1.513498,-0.005125,-0.305144,0.305639,0.901912,41.488424,33.181496,-166.472322
53735,NaN,-6.364912,2.920775,4.517677,2.142836,1.314809,-1.867157,0.566472,-0.315824,-1.523739,0.003156,-0.306052,0.305899,0.901526,41.304581,33.625211,-167.406541
53736,NaN,-6.232433,2.875474,4.521523,2.002406,1.268768,-1.942750,0.678420,-0.243300,-1.524215,0.011591,-0.307267,0.306678,0.900778,41.195698,34.101989,-168.323639
53737,NaN,-6.284341,2.943597,4.514920,1.986851,1.166993,-1.860812,0.776774,-0.142978,-1.518171,0.019905,-0.308893,0.307856,0.899674,41.158547,34.615154,-169.188533
53738,NaN,-6.414346,3.008374,4.637064,1.954226,1.160461,-1.656072,0.851648,-0.038884,-1.494952,0.028159,-0.310925,0.309432,0.898212,41.191113,35.168282,-170.008316
53739,NaN,-6.611403,3.094355,4.694127,1.996749,1.116144,-1.440876,0.917650,0.031561,-1.468047,0.036192,-0.313195,0.311294,0.896490,41.277073,35.738429,-170.776758
53740,NaN,-6.728080,3.109476,4.736370,1.994344,1.114752,-1.318658,0.975065,0.065489,-1.417680,0.044124,-0.315505,0.313509,0.894551,41.414037,36.308774,-171.516140
53741,NaN,-6.645109,3.212081,4.682921,1.858206,0.970481,-1.326849,1.016603,0.086274,-1.357914,0.051728,-0.317781,0.315952,0.892476,41.590259,36.863505,-172.207652
53742,NaN,-6.329966,3.205490,4.635657,1.565223,0.902227,-1.532071,1.089196,0.110097,-1.303579,0.059252,-0.320033,0.318821,0.890180,41.827147,37.412933,-172.870693
53743,NaN,-6.033637,3.270010,4.679469,1.219093,0.850215,-1.640435,1.174230,0.147795,-1.248178,0.066512,-0.322317,0.322112,0.887655,42.134845,37.956430,-173.477584
53744,NaN,-5.677163,3.357272,4.650889,0.856918,0.746867,-1.822715,1.252546,0.184198,-1.194302,0.073686,-0.324626,0.325854,0.884877,42.512581,38.501162,-174.047674
53745,NaN,-5.288033,3.506177,4.627191,0.445529,0.611508,-1.996389,1.309858,0.235222,-1.156079,0.080605,-0.327052,0.329876,0.881885,42.947340,39.051878,-174.561260
53746,NaN,-4.906884,3.688212,4.686655,-0.018069,0.517421,-2.107071,1.324470,0.272366,-1.156375,0.087570,-0.329609,0.333978,0.878720,43.399950,39.625066,-175.064589
53747,NaN,-5.035381,3.882573,4.742725,-0.096500,0.455031,-1.893983,1.315013,0.276230,-1.157383,0.094422,-0.332163,0.337984,0.875511,43.844713,40.199474,-175.554915
53748,NaN,-5.309276,4.096567,4.824137,-0.090395,0.404821,-1.562239,1.298959,0.215822,-1.138709,0.101348,-0.334400,0.341923,0.872350,44.264215,40.747974,-176.075051
53749,NaN,-5.558008,4.289747,4.917016,-0.101730,0.376702,-1.250116,1.292527,0.118517,-1.089559,0.108119,-0.336108,0.345814,0.869341,44.660302,41.236122,-176.609222
53750,NaN,-5.870003,4.594233,4.982741,-0.095654,0.252036,-0.850629,1.305222,-0.023839,-1.016575,0.114921,-0.337037,0.349809,0.866506,45.036785,41.643229,-177.189849
53751,NaN,-5.889581,4.807152,4.908937,-0.191523,0.089172,-0.765667,1.312667,-0.186712,-0.924656,0.121526,-0.337076,0.353846,0.863947,45.388665,41.946359,-177.799240
53752,NaN,-5.681522,5.020321,4.810837,-0.435060,-0.094689,-0.844468,1.327486,-0.338691,-0.823263,0.128067,-0.336242,0.358028,0.861601,45.727830,42.153289,-178.447638
53753,NaN,-5.597127,5.230015,4.812371,-0.623528,-0.197080,-0.789831,1.345449,-0.447352,-0.711664,0.134255,-0.334713,0.362356,0.859442,46.075592,42.270299,-179.086209
53754,NaN,-5.694816,5.370459,4.898643,-0.674666,-0.180661,-0.605006,1.364435,-0.534520,-0.576203,0.140130,-0.332522,0.366937,0.857409,46.449861,42.303140,-179.710922
53755,NaN,-5.820991,5.631368,5.103321,-0.803698,-0.152240,-0.274834,1.418337,-0.593055,-0.415213,0.145416,-0.329733,0.371926,0.855454,46.890661,42.245644,179.727502
53756,NaN,-5.337401,6.098494,5.081478,-1.372315,-0.408785,-0.354890,1.459227,-0.568616,-0.238532,0.150045,-0.326660,0.377400,0.853434,47.427378,42.130277,179.262654
53757,NaN,-4.419901,6.489723,5.095900,-2.241861,-0.560330,-0.741882,1.430982,-0.493551,-0.148344,0.154006,-0.323746,0.382909,0.851382,48.008177,42.005618,178.896978
53758,NaN,-4.042479,6.776065,5.094356,-2.658188,-0.645348,-0.827929,1.357351,-0.364410,-0.126275,0.157583,-0.321368,0.388244,0.849209,48.603941,41.926702,178.605667
53759,NaN,-4.228983,7.170997,5.124902,-2.733942,-0.781559,-0.459292,1.257066,-0.236604,-0.129582,0.160673,-0.319614,0.393205,0.847007,49.190101,41.896340,178.396083
53760,NaN,-4.749017,7.442505,5.092123,-2.480420,-0.893673,0.032204,1.141005,-0.137906,-0.126125,0.163446,-0.318337,0.397770,0.844823,49.749469,41.905568,178.235553
53761,NaN,-4.955951,7.476415,5.122921,-2.364348,-0.802851,0.210643,1.056398,-0.045683,-0.078328,0.165610,-0.317428,0.402090,0.842696,50.312320,41.926062,178.163201
53762,NaN,-5.214028,7.521608,5.255898,-2.256209,-0.639154,0.477376,1.019601,0.023424,0.001546,0.167317,-0.316654,0.406456,0.840553,50.908137,41.939267,178.161350
53763,NaN,-5.493551,7.667988,5.336102,-2.158222,-0.576517,0.792032,0.983852,0.026009,0.102383,0.168453,-0.315724,0.410795,0.838564,51.516794,41.905892,178.219778
53764,NaN,-5.561828,7.773469,5.215268,-2.106221,-0.642080,0.850828,0.951112,-0.034270,0.207491,0.169296,-0.314326,0.415130,0.836783,52.115808,41.805571,178.281371
53765,NaN,-5.344841,8.395628,5.282318,-2.611908,-0.865448,1.113659,0.825250,-0.076921,0.237651,0.169820,-0.312806,0.418912,0.835360,52.633271,41.673934,178.339526
53766,NaN,-6.005515,8.150023,5.350064,-1.981809,-0.600722,1.448898,0.701072,-0.145815,0.295882,0.170126,-0.310954,0.422230,0.834318,53.068922,41.493401,178.371200
53767,NaN,-6.043685,8.468333,5.273225,-2.057699,-0.785036,1.641343,0.606702,-0.263186,0.333605,0.170295,-0.308631,0.425078,0.833700,53.412585,41.253209,178.356275
53768,NaN,-5.402159,8.108215,5.570554,-2.406944,-0.264738,1.146038,0.503943,-0.223452,0.367804,0.170154,-0.306459,0.427608,0.833236,53.723099,41.012446,178.369704
53769,NaN,-5.216740,7.885205,5.448319,-2.335579,-0.177949,0.845079,0.497063,-0.074993,0.438863,0.169309,-0.304781,0.430311,0.832632,54.107908,40.787171,178.513425
53770,NaN,-5.016457,7.878731,5.384536,-2.419457,-0.163464,0.692147,0.475695,0.023216,0.475040,0.168144,-0.303421,0.433087,0.831925,54.528823,40.578474,178.721190
53771,NaN,-5.091438,7.924022,5.079660,-2.239045,-0.382946,0.644628,0.441443,0.043665,0.464464,0.166848,-0.302222,0.435689,0.831263,54.932231,40.378957,178.943887
53772,NaN,-4.687054,7.800777,4.787436,-2.343419,-0.493173,0.187563,0.411021,0.114630,0.425390,0.165589,-0.301395,0.438189,0.830501,55.334354,40.220924,179.181553
53773,NaN,-4.818706,7.830278,4.624730,-2.177426,-0.591947,0.228699,0.366849,0.252150,0.390409,0.164029,-0.301280,0.440533,0.829611,55.753939,40.121591,179.496992
53774,NaN,-5.802719,7.862509,4.516719,-1.386680,-0.651952,0.842977,0.322258,0.255257,0.355283,0.162614,-0.301257,0.442669,0.828761,56.139352,40.038941,179.788812
53775,NaN,-6.037488,7.783167,4.452589,-1.122979,-0.613560,0.921220,0.269783,0.150149,0.335761,0.161358,-0.300914,0.444439,0.828183,56.445531,39.930084,-179.984460
53776,NaN,-5.972720,7.684253,4.380849,-1.071883,-0.579913,0.790500,0.217686,0.063338,0.324234,0.160337,-0.300245,0.445935,0.827820,56.684080,39.799083,-179.827033
53777,NaN,-5.952262,7.535038,4.380731,-0.983153,-0.467343,0.685499,0.175879,0.029010,0.313701,0.159300,-0.299523,0.447183,0.827609,56.880355,39.661296,-179.686868
53778,NaN,-5.838942,7.466315,4.277980,-0.972859,-0.488860,0.529202,0.151187,0.046206,0.318693,0.158238,-0.298845,0.448379,0.827411,57.070886,39.526580,-179.544188
53779,NaN,-5.667771,7.363776,4.373173,-1.063170,-0.328022,0.396890,0.115955,0.137082,0.297222,0.156936,-0.298653,0.449437,0.827154,57.269898,39.429570,-179.344967
53780,NaN,-5.943185,7.184249,4.361970,-0.737008,-0.206528,0.452581,0.123908,0.255798,0.311800,0.155390,-0.298875,0.450673,0.826693,57.524668,39.361854,-179.075815
53781,NaN,-6.056163,7.109502,4.322861,-0.586595,-0.159813,0.460553,0.141452,0.352864,0.323109,0.153532,-0.299494,0.452039,0.826070,57.829092,39.317060,-178.732765
53782,NaN,-5.848240,7.050685,4.112437,-0.636440,-0.263627,0.204871,0.166595,0.458201,0.333307,0.151501,-0.300467,0.453634,0.825217,58.193050,39.297935,-178.329347
53783,NaN,-5.707288,7.005155,4.075996,-0.709244,-0.223620,0.071938,0.178342,0.556072,0.310796,0.149287,-0.301919,0.455282,0.824183,58.596043,39.316848,-177.863831
53784,NaN,-6.109571,7.007922,4.082610,-0.408834,-0.156526,0.331950,0.158878,0.573180,0.266925,0.147253,-0.303516,0.456823,0.823108,58.985665,39.359942,-177.413222
53785,NaN,-6.444807,7.059562,3.999952,-0.156591,-0.195088,0.546358,0.105375,0.503110,0.202321,0.145493,-0.305046,0.457958,0.822225,59.300296,39.411938,-177.021850
53786,NaN,-6.565788,6.921182,4.059260,-0.023446,-0.027583,0.554979,0.062630,0.404723,0.162243,0.144127,-0.306254,0.458815,0.821538,59.542751,39.453650,-176.717099
53787,NaN,-6.783409,6.821607,4.099360,0.173208,0.099026,0.642639,0.049390,0.302201,0.134168,0.143020,-0.307152,0.459466,0.821032,59.728343,39.478547,-176.478938
53788,NaN,-6.829718,6.730687,4.084982,0.258225,0.161087,0.605643,0.052675,0.183537,0.132763,0.142266,-0.307525,0.460076,0.820682,59.868379,39.469494,-176.326565
53789,NaN,-6.539007,6.673131,4.211826,0.019265,0.300931,0.431229,0.035924,0.092931,0.131906,0.141629,-0.307578,0.460518,0.820524,59.960365,39.434511,-176.223502
53790,NaN,-6.488291,6.594981,4.129658,0.058132,0.282826,0.314622,0.030458,0.044661,0.140133,0.141130,-0.307379,0.460948,0.820443,60.032520,39.381568,-176.157792
53791,NaN,-6.111498,6.539440,4.150598,-0.203936,0.321285,0.046183,0.023974,0.072871,0.142442,0.140477,-0.307334,0.461342,0.820351,60.111662,39.335400,-176.063980
53792,NaN,-6.146462,6.468877,4.157840,-0.138441,0.380481,0.023422,0.022551,0.163795,0.155968,0.139555,-0.307633,0.461821,0.820127,60.231090,39.308377,-175.906243
53793,NaN,-6.076897,6.486553,4.087972,-0.174608,0.326693,-0.036272,0.021596,0.271054,0.161670,0.138361,-0.308356,0.462372,0.819747,60.393837,39.308572,-175.678206
53794,NaN,-5.930435,6.365701,4.072151,-0.225438,0.394825,-0.217489,0.029164,0.429931,0.185680,0.136783,-0.309630,0.463132,0.819102,60.632545,39.341036,-175.348280
53795,NaN,-5.867525,6.339128,3.905598,-0.210065,0.299267,-0.339977,0.051090,0.610327,0.200776,0.134688,-0.311629,0.464093,0.818147,60.960789,39.415027,-174.886362
53796,NaN,-5.686918,6.332848,3.843116,-0.343250,0.281689,-0.484336,0.047866,0.814477,0.218313,0.132111,-0.314382,0.465231,0.816867,61.377956,39.534287,-174.293553
53797,NaN,-5.603453,6.412980,3.708277,-0.426025,0.172040,-0.535574,0.052611,1.034768,0.229209,0.128911,-0.318037,0.466508,0.815233,61.894024,39.704238,-173.540819
53798,NaN,-5.702245,6.498951,3.542386,-0.367327,0.057299,-0.476643,0.037317,1.216968,0.236517,0.125297,-0.322377,0.467870,0.813309,62.485360,39.913506,-172.670599
53799,NaN,-5.933034,6.513831,3.468432,-0.215765,0.078326,-0.346558,0.002861,1.333891,0.232067,0.121298,-0.327252,0.469105,0.811254,63.111464,40.148550,-171.708940
53800,NaN,-6.414493,6.596951,3.501270,0.041721,0.187163,0.030429,-0.041032,1.330898,0.233795,0.117290,-0.332081,0.470176,0.809259,63.719536,40.373924,-170.751617
53801,NaN,-6.867326,6.662886,3.603739,0.255288,0.363645,0.402163,-0.098454,1.199968,0.235414,0.113414,-0.336438,0.470887,0.807597,64.243085,40.558333,-169.867117
53802,NaN,-7.102030,6.700765,3.651526,0.348592,0.474794,0.595263,-0.153676,0.984867,0.228047,0.110046,-0.339923,0.471261,0.806384,64.643402,40.687857,-169.136938
53803,NaN,-7.155336,6.717742,3.768281,0.297019,0.615436,0.678247,-0.200277,0.753609,0.222901,0.107094,-0.342547,0.471267,0.805667,64.914208,40.760387,-168.555038
53804,NaN,-7.184520,6.740123,3.771235,0.287532,0.638923,0.712419,-0.239373,0.535329,0.201915,0.104741,-0.344316,0.470991,0.805384,65.062148,40.789180,-168.138232
53805,NaN,-7.070087,6.740151,3.650937,0.249282,0.535724,0.598651,-0.261201,0.363849,0.182006,0.102765,-0.345492,0.470465,0.805442,65.115965,40.786510,-167.835807
53806,NaN,-6.827641,6.730174,3.546464,0.120877,0.420427,0.399950,-0.283924,0.282856,0.154343,0.101120,-0.346377,0.469790,0.805665,65.115321,40.778560,-167.607380
53807,NaN,-6.645997,6.789796,3.397159,0.025122,0.235405,0.274693,-0.295688,0.306656,0.132324,0.099418,-0.347453,0.469005,0.805870,65.113368,40.787821,-167.360058
53808,NaN,-6.449162,6.821266,3.232895,-0.065123,0.051377,0.115358,-0.307223,0.421181,0.106260,0.097601,-0.349016,0.468217,0.805875,65.151512,40.838095,-167.051870
53809,NaN,-6.302872,6.747057,3.168003,-0.122030,0.019796,-0.052058,-0.312060,0.616836,0.089037,0.095317,-0.351447,0.467436,0.805545,65.271521,40.944068,-166.604448
53810,NaN,-6.198213,6.736553,3.094703,-0.186686,-0.037644,-0.151436,-0.309369,0.857680,0.076239,0.092594,-0.354831,0.466786,0.804756,65.501891,41.113140,-166.003018
53811,NaN,-6.221729,6.643167,3.006139,-0.122961,-0.028337,-0.228208,-0.301944,1.115471,0.070156,0.089235,-0.359293,0.466227,0.803479,65.856190,41.343875,-165.211922
53812,NaN,-6.240815,6.591806,2.923992,-0.098539,-0.024464,-0.276513,-0.280471,1.359639,0.071765,0.085405,-0.364669,0.465883,0.801671,66.343077,41.626024,-164.253825
53813,NaN,-6.354210,6.585516,2.839319,-0.037325,-0.016024,-0.231226,-0.265583,1.551007,0.077480,0.081059,-0.370812,0.465630,0.799448,66.938091,41.941841,-163.141368
53814,NaN,-6.569090,6.589260,2.815560,0.050693,0.069734,-0.092072,-0.245087,1.667392,0.084597,0.076515,-0.377330,0.465527,0.796901,67.614295,42.270408,-161.943143
53815,NaN,-6.725791,6.635262,2.783975,0.074522,0.121976,0.035769,-0.232399,1.704359,0.090183,0.071813,-0.383991,0.465428,0.794211,68.328825,42.593083,-160.695568
53816,NaN,-6.798449,6.693650,2.599936,0.115110,0.029001,0.075109,-0.233577,1.662764,0.072239,0.067339,-0.390462,0.465277,0.791531,69.032245,42.905347,-159.481224
53817,NaN,-7.015431,6.788491,2.554590,0.164842,0.059812,0.276626,-0.252776,1.546727,0.049961,0.063113,-0.396546,0.464902,0.789072,69.674002,43.195443,-158.337637
53818,NaN,-7.202439,6.904063,2.564355,0.157812,0.107524,0.486830,-0.289014,1.350133,0.023691,0.059440,-0.401866,0.464282,0.787028,70.201156,43.452567,-157.347046
53819,NaN,-7.368558,6.861737,2.503095,0.260208,0.170537,0.557819,-0.343603,1.121170,-0.001575,0.056218,-0.406383,0.463273,0.785538,70.581980,43.673453,-156.517365
53820,NaN,-7.397860,6.748247,2.478469,0.294409,0.249388,0.495606,-0.372350,0.896580,-0.033913,0.053651,-0.410050,0.462047,0.784534,70.829998,43.866077,-155.869429
53821,NaN,-7.352417,6.689463,2.404955,0.293889,0.225042,0.407569,-0.390008,0.713813,-0.051466,0.051470,-0.413076,0.460619,0.783932,70.972244,44.032248,-155.351013
53822,NaN,-7.231023,6.604128,2.318166,0.274070,0.173704,0.245680,-0.394887,0.577661,-0.059511,0.049690,-0.415543,0.459153,0.783603,71.041372,44.176536,-154.945294
53823,NaN,-7.026761,6.534119,2.240396,0.195540,0.089968,0.038357,-0.388042,0.503600,-0.055983,0.048013,-0.417744,0.457659,0.783411,71.077112,44.305029,-154.583868
53824,NaN,-6.803899,6.419468,2.142471,0.142254,0.009850,-0.217250,-0.368065,0.493699,-0.044309,0.046421,-0.419833,0.456300,0.783183,71.122852,44.425136,-154.235662
53825,NaN,-6.627221,6.437960,2.081269,0.036168,-0.102483,-0.342354,-0.337405,0.553527,-0.030619,0.044636,-0.422153,0.455060,0.782761,71.221231,44.548596,-153.827834
53826,NaN,-6.320333,6.529409,1.918827,-0.126540,-0.369880,-0.533204,-0.320621,0.678228,-0.039111,0.042703,-0.424933,0.453930,0.782020,71.396726,44.698885,-153.335345
53827,NaN,-6.297536,6.698430,1.925912,-0.255349,-0.461347,-0.434048,-0.332936,0.873026,-0.050533,0.040278,-0.428534,0.452722,0.780884,71.670319,44.889316,-152.684676
53828,NaN,-6.852888,6.808758,1.922730,0.001294,-0.329951,0.031550,-0.301693,1.030651,-0.054359,0.037644,-0.432703,0.451688,0.779313,72.051865,45.107265,-151.919343
53829,NaN,-7.157505,7.063308,1.981312,-0.016487,-0.309089,0.431805,-0.282051,1.108527,-0.052846,0.034802,-0.437195,0.450695,0.777511,72.493043,45.334075,-151.078484
53830,NaN,-7.192675,7.159357,1.985437,-0.101781,-0.320696,0.522656,-0.282081,1.159224,-0.055870,0.031923,-0.441837,0.449731,0.775567,72.969096,45.566333,-150.202398
53831,NaN,-7.274639,7.175304,1.979893,-0.120338,-0.274155,0.590929,-0.279688,1.194685,-0.065289,0.028939,-0.446659,0.448703,0.773514,73.471451,45.804393,-149.284618
53832,NaN,-7.390795,7.163634,1.972626,-0.108423,-0.198898,0.664954,-0.287504,1.204352,-0.068859,0.025994,-0.451474,0.447661,0.771424,73.982200,46.040335,-148.362705
53833,NaN,-7.389100,7.159496,1.889824,-0.120200,-0.225063,0.644992,-0.294946,1.193034,-0.082117,0.023041,-0.456296,0.446503,0.769349,74.487354,46.276027,-147.436227
53834,NaN,-7.230015,7.118698,1.752032,-0.167516,-0.329226,0.477198,-0.310325,1.166887,-0.096769,0.020233,-0.460998,0.445274,0.767335,74.974307,46.510238,-146.536554
53835,NaN,-7.091671,7.038211,1.677604,-0.224383,-0.360858,0.309645,-0.319410,1.160280,-0.109828,0.017402,-0.465725,0.443922,0.765330,75.457179,46.745471,-145.628652
53836,NaN,-6.910021,7.102327,1.693694,-0.430035,-0.436864,0.221449,-0.341925,1.181458,-0.116069,0.014560,-0.470494,0.442502,0.763293,75.947334,46.981572,-144.707383
53837,NaN,-6.854546,7.123140,1.537328,-0.423421,-0.558992,0.167051,-0.352611,1.222407,-0.129506,0.011587,-0.475469,0.440948,0.761157,76.460837,47.225455,-143.738738
53838,NaN,-6.719296,7.132984,1.470071,-0.519005,-0.644943,0.061714,-0.369585,1.285185,-0.136925,0.008528,-0.480642,0.439345,0.758872,77.011080,47.475175,-142.721459
53839,NaN,-6.669693,7.141044,1.331399,-0.515626,-0.742887,0.007383,-0.392716,1.360710,-0.131539,0.005162,-0.486106,0.437602,0.756425,77.603446,47.724869,-141.622608
53840,NaN,-6.585146,7.039997,1.254005,-0.527986,-0.743938,-0.134589,-0.401285,1.434978,-0.114494,0.001613,-0.491753,0.435891,0.753774,78.249723,47.965939,-140.458965
53841,NaN,-6.486153,6.933214,1.305081,-0.640076,-0.659767,-0.273430,-0.398781,1.497510,-0.077797,-0.002270,-0.497563,0.434212,0.750924,78.950655,48.184160,-139.217750
53842,NaN,-6.524939,6.805273,1.269037,-0.608684,-0.556846,-0.335559,-0.400243,1.522205,-0.051081,-0.006249,-0.503338,0.432614,0.747969,79.679682,48.379061,-137.951921
53843,NaN,-6.525664,6.672793,1.279730,-0.628178,-0.436111,-0.423175,-0.414573,1.481378,-0.020101,-0.010353,-0.508902,0.430969,0.745102,80.386213,48.542317,-136.698567
53844,NaN,-6.489368,6.592384,1.150464,-0.575299,-0.453437,-0.519784,-0.429249,1.418247,0.010724,-0.014409,-0.514099,0.429374,0.742383,81.054858,48.672183,-135.497738
53845,NaN,-6.419301,6.712419,1.170221,-0.730253,-0.523155,-0.494631,-0.472688,1.343979,-0.002263,-0.018432,-0.519055,0.427520,0.739912,81.654218,48.794285,-134.347905
53846,NaN,-6.877005,6.895526,1.223811,-0.688411,-0.371701,-0.028674,-0.521424,1.197130,-0.021867,-0.022132,-0.523443,0.425476,0.737894,82.133619,48.908260,-133.332276
53847,NaN,-7.408716,6.988697,1.273865,-0.568727,-0.136496,0.434825,-0.568722,0.954697,-0.035416,-0.025451,-0.526979,0.423186,0.736586,82.430151,49.006937,-132.514920
53848,NaN,-7.640278,6.989230,1.271030,-0.489263,-0.028467,0.608372,-0.622143,0.646103,-0.036471,-0.028198,-0.529318,0.420773,0.736191,82.495613,49.080349,-131.973322
53849,NaN,-7.567544,6.861590,1.193111,-0.410907,-0.042673,0.463594,-0.666208,0.361279,-0.032782,-0.030531,-0.530629,0.418193,0.736624,82.350860,49.131373,-131.667678
53850,NaN,-7.479167,6.714487,1.161128,-0.349487,-0.034435,0.299041,-0.694901,0.136955,-0.021776,-0.032455,-0.531036,0.415606,0.737712,82.041594,49.158885,-131.566130
53851,NaN,-7.321609,6.533489,1.224207,-0.370459,0.012665,0.069294,-0.681194,0.010613,-0.003455,-0.034204,-0.530978,0.413094,0.739085,81.660761,49.166792,-131.561438
53852,NaN,-7.128392,6.397134,1.167704,-0.322139,-0.054274,-0.169350,-0.643977,-0.049788,0.038996,-0.035827,-0.530570,0.410882,0.740532,81.264970,49.144984,-131.613822
53853,NaN,-6.827103,6.377429,1.058883,-0.322747,-0.275213,-0.420024,-0.594824,-0.021190,0.071596,-0.037557,-0.530245,0.408885,0.741784,80.920390,49.107626,-131.626629
53854,NaN,-6.546597,6.385684,0.876893,-0.269173,-0.538442,-0.645279,-0.554421,0.084422,0.099071,-0.039441,-0.530215,0.407132,0.742670,80.669578,49.063393,-131.554628
53855,NaN,-6.217952,6.562789,0.757868,-0.358563,-0.894230,-0.791643,-0.533724,0.272797,0.109259,-0.041748,-0.530907,0.405398,0.742999,80.555948,49.032151,-131.308012
53856,NaN,-6.302529,6.664921,0.653455,-0.262788,-0.980925,-0.672732,-0.527497,0.506075,0.108273,-0.044447,-0.532425,0.403684,0.742689,80.598069,49.022537,-130.870102
53857,NaN,-6.674143,6.798092,0.593499,-0.104236,-0.913131,-0.311856,-0.533283,0.726846,0.097517,-0.047626,-0.534813,0.401812,0.741791,80.778933,49.039814,-130.233736
53858,NaN,-6.904261,6.777664,0.657840,-0.067886,-0.737120,-0.143650,-0.552453,0.902375,0.082053,-0.051093,-0.537825,0.399823,0.740456,81.061557,49.079161,-129.457619
53859,NaN,-7.092975,6.687864,0.748207,-0.060112,-0.515346,-0.049066,-0.547076,1.050885,0.087151,-0.054918,-0.541402,0.397770,0.738680,81.446731,49.126419,-128.541199
53860,NaN,-7.238631,6.649860,0.558603,0.136117,-0.490786,0.019447,-0.532662,1.159851,0.104427,-0.058928,-0.545288,0.395827,0.736553,81.914549,49.166776,-127.536814
53861,NaN,-7.174657,6.458139,0.471442,0.207973,-0.407466,-0.158882,-0.508400,1.243646,0.130188,-0.063184,-0.549457,0.393947,0.734105,82.455153,49.194870,-126.445374
53862,NaN,-7.160201,6.370477,0.442412,0.209434,-0.333530,-0.226669,-0.486721,1.300115,0.147774,-0.067498,-0.553740,0.392209,0.731428,83.046880,49.208846,-125.312312
53863,NaN,-7.203490,6.317599,0.438661,0.196346,-0.237182,-0.226260,-0.483090,1.303488,0.160128,-0.071906,-0.558027,0.390449,0.728687,83.645075,49.209411,-124.164426
53864,NaN,-7.189007,6.176462,0.428443,0.197360,-0.114167,-0.327870,-0.480070,1.250859,0.178990,-0.076208,-0.562025,0.388795,0.726057,84.210022,49.188708,-123.071240
53865,NaN,-7.133374,6.068143,0.535350,0.074242,0.017910,-0.432500,-0.484525,1.160419,0.186957,-0.080432,-0.565688,0.387123,0.723646,84.713334,49.151458,-122.046985
53866,NaN,-7.204206,5.929864,0.592185,0.054915,0.212019,-0.465687,-0.491175,1.025331,0.198615,-0.084398,-0.568779,0.385549,0.721609,85.121632,49.094711,-121.151458
53867,NaN,-7.339983,5.831884,0.642506,0.057843,0.408604,-0.425003,-0.484208,0.851083,0.223645,-0.088152,-0.571218,0.384085,0.720013,85.419678,49.012448,-120.397394
53868,NaN,-7.371459,5.743513,0.676938,0.047867,0.529893,-0.458466,-0.475701,0.652438,0.260257,-0.091572,-0.572825,0.382877,0.718951,85.589764,48.898394,-119.826350
53869,NaN,-7.478523,5.688892,0.507454,0.246817,0.578868,-0.423691,-0.459748,0.470329,0.300861,-0.094800,-0.573737,0.381880,0.718336,85.651844,48.752343,-119.401772
53870,NaN,-7.109719,5.807147,0.291696,0.292549,0.215783,-0.635328,-0.431356,0.350479,0.330629,-0.097768,-0.574129,0.381163,0.718006,85.649464,48.583828,-119.091344
53871,NaN,-6.826047,6.054123,0.013062,0.391724,-0.214891,-0.699631,-0.419699,0.330380,0.325661,-0.100701,-0.574497,0.380439,0.717689,85.641634,48.417399,-118.788623
53872,NaN,-6.600470,6.470643,-0.027263,0.247896,-0.627710,-0.594193,-0.443194,0.397295,0.279988,-0.103609,-0.575137,0.379506,0.717257,85.657886,48.279649,-118.443050
53873,NaN,-6.963369,6.752236,-0.000606,0.268081,-0.578680,-0.134132,-0.507503,0.489580,0.209573,-0.106678,-0.576240,0.378044,0.716694,85.693757,48.186316,-118.013028
53874,NaN,-7.606955,6.791627,0.136919,0.338843,-0.154749,0.379071,-0.572800,0.554725,0.132187,-0.109730,-0.577635,0.376126,0.716119,85.725882,48.139002,-117.544338
53875,NaN,-8.187528,6.923701,0.323784,0.311304,0.183091,0.908677,-0.618926,0.562725,0.077795,-0.112784,-0.579170,0.373834,0.715604,85.737028,48.123804,-117.061107
53876,NaN,-8.558021,7.031689,0.430384,0.297196,0.375302,1.261627,-0.658642,0.543635,0.068624,-0.115826,-0.580582,0.371406,0.715239,85.708244,48.113816,-116.606733
53877,NaN,-8.642140,7.045037,0.542151,0.219367,0.463009,1.338570,-0.700801,0.517203,0.086630,-0.119059,-0.581871,0.368860,0.714978,85.643570,48.091917,-116.162123
53878,NaN,-8.499589,6.908786,0.568635,0.196759,0.484693,1.142860,-0.730146,0.480623,0.108172,-0.122325,-0.582926,0.366317,0.714875,85.536238,48.057704,-115.758823
53879,NaN,-8.063395,6.653830,0.626168,0.093540,0.424617,0.651290,-0.745203,0.457167,0.123277,-0.125704,-0.583884,0.363741,0.714822,85.409138,48.013212,-115.363484
53880,NaN,-7.679650,6.472283,0.675925,-0.003707,0.340024,0.247566,-0.748865,0.461002,0.129223,-0.129062,-0.584795,0.361195,0.714769,85.279267,47.966546,-114.975875
53881,NaN,-7.458530,6.307266,0.809899,-0.139176,0.373336,-0.019402,-0.705578,0.475609,0.147194,-0.132439,-0.585780,0.358805,0.714549,85.187006,47.910381,-114.563587
53882,NaN,-7.392653,6.204219,0.889656,-0.198580,0.439415,-0.132676,-0.642890,0.476670,0.179253,-0.135694,-0.586700,0.356750,0.714212,85.126653,47.837163,-114.160970
53883,NaN,-7.397044,6.029132,0.820863,-0.086873,0.551670,-0.250857,-0.584019,0.445670,0.212189,-0.138889,-0.587525,0.354993,0.713796,85.087248,47.743040,-113.770388
53884,NaN,-7.198314,5.994829,0.672948,0.013036,0.416244,-0.430092,-0.536779,0.411229,0.245530,-0.141939,-0.588157,0.353543,0.713394,85.049400,47.630395,-113.419113
53885,NaN,-6.961550,5.976900,0.424653,0.194752,0.217763,-0.632194,-0.486425,0.410039,0.295274,-0.145077,-0.588761,0.352395,0.712833,85.045934,47.487354,-113.054163
53886,NaN,-6.854796,5.919208,0.313214,0.291031,0.180214,-0.756965,-0.440400,0.421396,0.345729,-0.148224,-0.589303,0.351579,0.712140,85.072891,47.316310,-112.688861
53887,NaN,-6.738562,5.923053,0.184418,0.387076,0.093541,-0.847973,-0.412467,0.446124,0.392726,-0.151551,-0.589904,0.350946,0.711254,85.135856,47.119157,-112.289130
53888,NaN,-6.539168,5.887130,0.039654,0.483652,-0.017384,-1.027117,-0.392133,0.491293,0.433533,-0.154979,-0.590570,0.350509,0.710177,85.236467,46.901087,-111.861089
53889,NaN,-6.202009,5.967645,-0.079045,0.496505,-0.285774,-1.224578,-0.376701,0.553181,0.460241,-0.158624,-0.591444,0.350111,0.708841,85.383199,46.669423,-111.371716
53890,NaN,-5.673158,5.958573,-0.123104,0.405968,-0.590505,-1.615687,-0.358188,0.664818,0.449934,-0.162309,-0.592704,0.349687,0.707162,85.601360,46.448884,-110.804176
53891,NaN,-5.405426,5.978764,-0.027970,0.237413,-0.708886,-1.787352,-0.342807,0.817189,0.417134,-0.166157,-0.594592,0.349055,0.704992,85.916427,46.250418,-110.105462
53892,NaN,-5.589681,6.131088,0.079999,0.131105,-0.625892,-1.540321,-0.316050,0.988167,0.375542,-0.170005,-0.597135,0.348271,0.702307,86.340286,46.081604,-109.282554
53893,NaN,-6.239899,6.415859,0.157672,0.120890,-0.336769,-0.868633,-0.286080,1.133895,0.341779,-0.173961,-0.600281,0.347327,0.699117,86.863707,45.929916,-108.335368
53894,NaN,-6.674873,6.567669,0.210485,0.089254,-0.098115,-0.447086,-0.259879,1.245618,0.321158,-0.177891,-0.603825,0.346347,0.695553,87.461961,45.787718,-107.311701
53895,NaN,-7.037694,6.729682,0.191043,0.092004,0.071335,-0.074100,-0.231282,1.359371,0.315616,-0.181966,-0.607799,0.345288,0.691553,88.138270,45.642243,-106.190138
53896,NaN,-7.351362,6.981746,0.064040,0.157074,0.124788,0.323897,-0.205906,1.455897,0.330512,-0.186104,-0.612051,0.344297,0.687181,88.879878,45.481957,-105.004281
53897,NaN,-7.384377,7.091858,-0.114449,0.232271,0.083298,0.423266,-0.189307,1.535046,0.341972,-0.190426,-0.616556,0.343264,0.682471,89.669418,45.302550,-103.751244
53898,NaN,-7.279177,7.191243,-0.350077,0.336378,-0.052828,0.419907,-0.193463,1.623550,0.343667,-0.194838,-0.621293,0.342154,0.677469,90.499118,45.111669,-102.443449
53899,NaN,-6.914453,7.256554,-0.585854,0.405287,-0.339005,0.213785,-0.204164,1.770553,0.338734,-0.199571,-0.626501,0.340785,0.671962,91.397674,44.906255,-101.015888
53900,NaN,-6.497555,7.268084,-0.830056,0.485679,-0.623607,-0.060444,-0.222773,1.997359,0.317456,-0.204599,-0.632404,0.339072,0.665758,92.403390,44.693103,-99.424660
53901,NaN,-6.044920,7.323361,-1.070549,0.552093,-0.958871,-0.320951,-0.236885,2.309833,0.290711,-0.210148,-0.639330,0.336825,0.658516,93.565823,44.463336,-97.583623
53902,NaN,-5.623103,7.331337,-1.258368,0.575853,-1.225574,-0.586863,-0.230882,2.710337,0.274358,-0.216210,-0.647477,0.334120,0.649916,94.938915,44.197308,-95.446927
53903,NaN,-5.606266,7.340618,-1.448620,0.620030,-1.196686,-0.560968,-0.190102,3.143841,0.261632,-0.222830,-0.656985,0.330916,0.639697,96.553148,43.873329,-92.976634
53904,NaN,-6.009273,7.393458,-1.518184,0.520644,-0.867836,-0.218344,-0.139786,3.515771,0.261605,-0.229779,-0.667535,0.327418,0.628010,98.367394,43.469661,-90.252530
53905,NaN,-6.393224,7.500285,-1.542036,0.317345,-0.575942,0.140604,-0.110137,3.770614,0.260926,-0.237027,-0.678718,0.323557,0.615200,100.290367,42.977459,-87.361475
53906,NaN,-6.723515,7.518650,-1.574602,0.094620,-0.261068,0.391825,-0.092715,3.875672,0.270845,-0.244277,-0.689956,0.319600,0.601785,102.224410,42.397363,-84.450004
53907,NaN,-6.899638,7.539889,-1.656753,-0.096071,-0.064555,0.540099,-0.077381,3.826605,0.273030,-0.251366,-0.700830,0.315579,0.588271,104.080955,41.751687,-81.622455
53908,NaN,-6.881081,7.503551,-1.826713,-0.175785,0.023594,0.529088,-0.084778,3.648876,0.268647,-0.258055,-0.710904,0.311702,0.575209,105.784681,41.068767,-78.992422
53909,NaN,-6.617043,7.355257,-2.053417,-0.132879,0.004862,0.290734,-0.088964,3.450001,0.248431,-0.264355,-0.720236,0.307831,0.562687,107.335603,40.374536,-76.546293
53910,NaN,-6.814436,7.668905,-2.325673,-0.172113,0.020701,0.705059,-0.130633,3.212551,0.214464,-0.270228,-0.728669,0.304018,0.550992,108.705123,39.692937,-74.320046
53911,NaN,-6.435455,7.564922,-2.539152,-0.075226,-0.114397,0.437601,-0.152387,2.937673,0.148084,-0.275558,-0.736271,0.300134,0.540271,109.904579,39.062083,-72.301277
53912,NaN,-6.073379,7.432853,-2.818145,0.120166,-0.213249,0.187948,-0.179343,2.720434,0.128568,-0.280514,-0.743103,0.296414,0.530329,110.959519,38.453707,-70.471157
53913,NaN,-6.164299,7.542330,-3.001495,0.096090,-0.145043,0.378574,-0.226932,2.531406,0.102352,-0.285289,-0.749305,0.292615,0.521085,111.879942,37.875127,-68.780844
53914,NaN,-6.293202,7.540172,-3.133033,0.038386,0.018321,0.496090,-0.301405,2.320328,0.059722,-0.289845,-0.754773,0.288793,0.512743,112.650827,37.344059,-67.254109
53915,NaN,-6.304403,7.458106,-3.143716,-0.071866,0.127457,0.445435,-0.350138,2.076405,0.038582,-0.294179,-0.759512,0.285012,0.505340,113.278476,36.865238,-65.891000
53916,NaN,-6.457343,7.382516,-3.139060,-0.224850,0.329498,0.477718,-0.417379,1.818910,0.050244,-0.298368,-0.763381,0.281529,0.498966,113.747225,36.427480,-64.724239
53917,NaN,-6.364238,7.218850,-3.035916,-0.353859,0.388678,0.264776,-0.445757,1.500621,0.042968,-0.302212,-0.766396,0.278328,0.493799,114.066981,36.062255,-63.761452
53918,NaN,-6.174118,7.101802,-3.106094,-0.268614,0.374651,0.086318,-0.448387,1.187574,0.062200,-0.305628,-0.768542,0.275726,0.489806,114.254606,35.755894,-63.022816
53919,NaN,-5.979853,7.036357,-3.068870,-0.265143,0.301637,-0.090267,-0.434387,0.905184,0.090476,-0.308696,-0.769981,0.273617,0.486795,114.335465,35.500985,-62.466909
53920,NaN,-6.010434,6.989237,-3.163126,-0.209138,0.405431,-0.077602,-0.414164,0.637497,0.116283,-0.311342,-0.770723,0.272138,0.484761,114.320777,35.294404,-62.102115
53921,NaN,-5.948283,6.946770,-3.278767,-0.085246,0.443526,-0.107744,-0.384157,0.407524,0.139010,-0.313645,-0.770941,0.271101,0.483509,114.234023,35.131523,-61.881102
53922,NaN,-5.946472,6.973033,-3.382544,0.007287,0.477401,-0.055778,-0.347493,0.237023,0.161057,-0.315593,-0.770743,0.270576,0.482851,114.100968,34.996363,-61.785743
53923,NaN,-5.811682,7.033877,-3.507648,0.173299,0.397093,-0.047091,-0.299949,0.119328,0.186672,-0.317293,-0.770325,0.270376,0.482515,113.948539,34.876564,-61.762140
53924,NaN,-5.704511,7.113566,-3.548802,0.251940,0.306720,-0.036153,-0.260180,0.071133,0.235082,-0.318856,-0.769759,0.270607,0.482258,113.793127,34.741602,-61.792979
53925,NaN,-5.626886,7.048042,-3.641361,0.381685,0.345724,-0.100276,-0.224024,0.025257,0.273752,-0.320345,-0.769113,0.271073,0.482041,113.636505,34.597906,-61.853064
53926,NaN,-5.536436,7.124470,-3.738661,0.505262,0.284819,-0.063262,-0.190987,-0.014880,0.285845,-0.321646,-0.768377,0.271802,0.481938,113.482337,34.455924,-61.951859
53927,NaN,-5.643548,7.183830,-3.716672,0.445268,0.349403,0.033645,-0.149103,-0.066791,0.281562,-0.322739,-0.767614,0.272625,0.481958,113.335173,34.328813,-62.071619
53928,NaN,-5.704678,7.219834,-3.876345,0.574121,0.435760,0.146019,-0.113780,-0.152267,0.284279,-0.323550,-0.766671,0.273754,0.482276,113.177335,34.218348,-62.256250
53929,NaN,-5.487489,7.344567,-3.891030,0.672481,0.224880,0.121720,-0.101257,-0.255629,0.267163,-0.324165,-0.765545,0.274941,0.482976,112.993217,34.140694,-62.491240
53930,NaN,-5.115002,7.397992,-3.973517,0.903889,-0.043148,-0.021700,-0.106635,-0.297325,0.233692,-0.324625,-0.764327,0.276125,0.483919,112.796350,34.088370,-62.753538
53931,NaN,-5.093655,7.313849,-3.962210,0.929448,0.008502,-0.103268,-0.092659,-0.239724,0.186196,-0.325031,-0.763360,0.276996,0.484674,112.635848,34.048739,-62.955837
53932,NaN,-5.178436,7.288596,-3.787349,0.751685,0.060814,-0.132032,-0.080287,-0.087238,0.138509,-0.325448,-0.762822,0.277538,0.484931,112.544104,33.999351,-63.058073
53933,NaN,-5.623790,7.448707,-3.611985,0.408718,0.262597,0.183345,-0.104401,0.096186,0.124608,-0.326215,-0.762734,0.277598,0.484520,112.506263,33.918026,-63.029316
53934,NaN,-5.983505,7.563558,-3.319021,-0.012653,0.407610,0.378451,-0.163301,0.213974,0.151791,-0.327440,-0.762796,0.277432,0.483691,112.472448,33.795474,-62.932705
53935,NaN,-6.037577,7.389711,-3.113199,-0.209157,0.533012,0.208504,-0.202289,0.216784,0.180393,-0.328881,-0.762759,0.277270,0.482863,112.412949,33.658264,-62.841767
53936,NaN,-5.938566,7.362160,-3.198031,-0.093581,0.521173,0.158017,-0.171926,0.140350,0.183459,-0.330070,-0.762557,0.277390,0.482302,112.343311,33.535199,-62.810296
53937,NaN,-5.802401,7.529907,-3.314095,0.049106,0.363272,0.247937,-0.142425,0.023767,0.154928,-0.330953,-0.762186,0.277592,0.482167,112.253851,33.453641,-62.835247
53938,NaN,-5.753693,7.608015,-3.454779,0.197679,0.329141,0.325109,-0.144560,-0.087540,0.140430,-0.331616,-0.761538,0.277990,0.482507,112.126396,33.402884,-62.937059
53939,NaN,-5.740322,7.565514,-3.414674,0.186447,0.351740,0.271447,-0.153406,-0.175229,0.129454,-0.332202,-0.760702,0.278397,0.483186,111.964890,33.377558,-63.081559
53940,NaN,-5.638723,7.536561,-3.423060,0.256960,0.310326,0.194805,-0.171687,-0.214572,0.118478,-0.332737,-0.759730,0.278855,0.484083,111.780816,33.365209,-63.258226
53941,NaN,-5.545667,7.539412,-3.343165,0.242824,0.234568,0.120079,-0.188828,-0.245914,0.130437,-0.333360,-0.758660,0.279297,0.485077,111.574302,33.353545,-63.447785
53942,NaN,-5.489697,7.429347,-3.263902,0.229276,0.258053,-0.021580,-0.209866,-0.278608,0.139547,-0.333999,-0.757436,0.279847,0.486232,111.343195,33.342402,-63.670424
53943,NaN,-5.322893,7.341037,-3.021941,0.106057,0.147221,-0.256374,-0.218297,-0.300168,0.139966,-0.334678,-0.756167,0.280342,0.487453,111.099578,33.335640,-63.896873
53944,NaN,-5.299723,7.247397,-2.824652,-0.028726,0.157097,-0.401796,-0.178545,-0.352023,0.145378,-0.335107,-0.754802,0.281111,0.488829,110.859963,33.334967,-64.167786
53945,NaN,-5.319750,7.215054,-2.848079,0.019080,0.210585,-0.409311,-0.118266,-0.431801,0.146895,-0.335238,-0.753362,0.282094,0.490391,110.626356,33.349627,-64.480279
53946,NaN,-5.220306,7.279317,-2.941531,0.164925,0.127489,-0.386706,-0.044939,-0.489473,0.150800,-0.334979,-0.751869,0.283437,0.492082,110.413882,33.371928,-64.840871
53947,NaN,-5.207831,7.339247,-3.072393,0.310682,0.117307,-0.309250,0.031436,-0.470785,0.146045,-0.334485,-0.750577,0.284847,0.493575,110.252031,33.392936,-65.178505
53948,NaN,-5.126797,7.443925,-3.078379,0.351929,-0.002486,-0.270749,0.103939,-0.409855,0.158342,-0.333794,-0.749509,0.286448,0.494737,110.151836,33.393816,-65.489853
53949,NaN,-5.248966,7.604933,-3.005609,0.234855,-0.019012,-0.098533,0.141710,-0.337201,0.181419,-0.333161,-0.748673,0.288037,0.495508,110.095887,33.368431,-65.749859
53950,NaN,-5.392740,7.681813,-2.956052,0.135148,0.040792,0.026530,0.136915,-0.280308,0.202679,-0.332639,-0.747910,0.289667,0.496059,110.055080,33.319400,-65.988003
53951,NaN,-5.351451,7.646829,-2.963600,0.160467,0.043030,-0.021501,0.136866,-0.237963,0.227928,-0.332281,-0.747239,0.291250,0.496384,110.025976,33.249180,-66.194701
53952,NaN,-5.335001,7.696327,-2.997773,0.190673,0.020240,0.018159,0.131450,-0.199241,0.236201,-0.331977,-0.746615,0.292855,0.496581,110.007007,33.166015,-66.388114
53953,NaN,-5.509554,7.856593,-3.100331,0.208690,0.091563,0.269045,0.096499,-0.178610,0.225505,-0.331848,-0.746024,0.294229,0.496744,109.976661,33.085327,-66.555640
53954,NaN,-5.628066,7.987607,-3.242958,0.288841,0.145850,0.477553,0.054925,-0.173207,0.195581,-0.331766,-0.745394,0.295448,0.497021,109.928820,33.018778,-66.722403
53955,NaN,-5.665826,8.193135,-3.266682,0.281233,0.067566,0.666653,-0.013899,-0.171287,0.150569,-0.331872,-0.744745,0.296254,0.497443,109.847807,32.976783,-66.867392
53956,NaN,-5.835723,8.316456,-3.230336,0.189590,0.127465,0.845734,-0.088596,-0.171629,0.100537,-0.332089,-0.744019,0.296759,0.498083,109.730707,32.960808,-67.010755
53957,NaN,-6.005426,8.372806,-3.078405,0.005644,0.202639,0.939263,-0.154231,-0.208962,0.053317,-0.332418,-0.743186,0.296916,0.499013,109.568457,32.978042,-67.157385
53958,NaN,-6.123455,8.355978,-2.959009,-0.112983,0.286261,0.956712,-0.211983,-0.279178,0.015383,-0.332721,-0.742110,0.296974,0.500375,109.353462,33.027973,-67.350584
53959,NaN,-5.994712,8.394942,-2.760865,-0.220670,0.126813,0.862941,-0.245884,-0.414242,-0.020521,-0.332899,-0.740716,0.296967,0.502323,109.075024,33.122930,-67.613470
53960,NaN,-5.823219,8.416138,-2.612637,-0.252297,-0.048221,0.746707,-0.325989,-0.578064,-0.061472,-0.332983,-0.738807,0.296947,0.505084,108.696949,33.268437,-67.984270
53961,NaN,-5.591546,8.084342,-2.418098,-0.261111,-0.069011,0.306393,-0.383835,-0.673365,-0.099860,-0.333079,-0.736632,0.296725,0.508317,108.253892,33.450710,-68.400801
53962,NaN,-5.396892,7.877935,-2.180528,-0.335908,-0.147489,-0.024530,-0.361566,-0.652105,-0.144624,-0.332964,-0.734580,0.296423,0.511529,107.834355,33.650235,-68.806313
53963,NaN,-5.671927,7.865883,-1.957517,-0.564378,0.021325,0.064328,-0.311919,-0.591385,-0.168199,-0.332733,-0.732815,0.295987,0.514453,107.465197,33.850546,-69.159737
53964,NaN,-5.819053,7.849207,-1.791909,-0.702772,0.102903,0.095772,-0.283233,-0.593458,-0.179997,-0.332318,-0.731077,0.295650,0.517380,107.111026,34.055089,-69.524351
53965,NaN,-5.478284,7.788803,-1.680607,-0.646458,-0.158524,-0.166021,-0.265405,-0.584014,-0.179090,-0.331892,-0.729408,0.295276,0.520215,106.767801,34.256480,-69.875357
53966,NaN,-5.311022,7.685326,-1.627819,-0.586999,-0.248460,-0.351479,-0.258983,-0.520863,-0.185229,-0.331474,-0.727890,0.294855,0.522839,106.450629,34.448532,-70.195296
53967,NaN,-5.266714,7.722283,-1.646014,-0.511776,-0.315088,-0.340628,-0.247364,-0.454389,-0.165645,-0.331203,-0.726556,0.294356,0.525143,106.160976,34.618453,-70.466665
53968,NaN,-5.069319,7.719341,-1.673510,-0.388495,-0.472801,-0.447205,-0.235261,-0.362236,-0.145769,-0.331031,-0.725424,0.293874,0.527083,105.909905,34.761081,-70.691600
53969,NaN,-5.068043,7.744451,-1.724758,-0.304682,-0.489673,-0.415684,-0.238289,-0.256784,-0.127878,-0.331113,-0.724562,0.293205,0.528588,105.694443,34.877377,-70.840195
53970,NaN,-5.012138,7.743599,-1.793797,-0.192607,-0.527148,-0.432522,-0.247671,-0.154909,-0.096959,-0.331416,-0.723880,0.292521,0.529710,105.509004,34.959756,-70.936721
53971,NaN,-4.991818,7.758967,-1.870302,-0.088954,-0.541678,-0.415003,-0.275224,-0.037439,-0.060917,-0.332128,-0.723435,0.291632,0.530362,105.348964,35.004837,-70.951129
53972,NaN,-5.005455,7.706465,-1.953467,0.012486,-0.482154,-0.430388,-0.320900,0.082242,-0.023949,-0.333235,-0.723150,0.290624,0.530610,105.205083,35.010596,-70.901796
53973,NaN,-4.930077,7.588074,-2.068954,0.168232,-0.439971,-0.542132,-0.335987,0.198921,0.027181,-0.334744,-0.723099,0.289498,0.530345,105.092338,34.971506,-70.773016
53974,NaN,-4.965346,7.456132,-2.114078,0.219904,-0.311374,-0.616353,-0.321372,0.308686,0.055765,-0.336390,-0.723293,0.288397,0.529638,105.027352,34.899560,-70.585401
53975,NaN,-5.082992,7.452168,-2.223574,0.295897,-0.182696,-0.528565,-0.305796,0.379894,0.070065,-0.338161,-0.723703,0.287199,0.528599,104.996913,34.810132,-70.342431
53976,NaN,-5.107699,7.391626,-2.226831,0.293402,-0.109786,-0.561454,-0.292638,0.430708,0.071611,-0.339918,-0.724237,0.286023,0.527377,104.992849,34.711490,-70.075844
53977,NaN,-5.218877,7.330502,-2.260644,0.291132,0.035891,-0.539211,-0.263442,0.473575,0.073338,-0.341674,-0.724953,0.284787,0.525926,105.021181,34.606370,-69.771002
53978,NaN,-5.463578,7.281035,-2.261047,0.212832,0.270432,-0.439426,-0.220488,0.471123,0.074609,-0.343230,-0.725703,0.283739,0.524442,105.072448,34.499830,-69.478515
53979,NaN,-5.702411,7.359848,-2.330744,0.192418,0.435696,-0.226743,-0.174495,0.403287,0.084361,-0.344589,-0.726362,0.282893,0.523094,105.122476,34.398705,-69.223788
53980,NaN,-5.839616,7.425692,-2.423736,0.225564,0.534115,-0.077168,-0.140669,0.295596,0.076685,-0.345609,-0.726781,0.282361,0.522127,105.151491,34.316939,-69.050200
53981,NaN,-5.872492,7.479361,-2.570176,0.346021,0.569065,0.015294,-0.135641,0.183727,0.070240,-0.346478,-0.726949,0.281943,0.521543,105.141496,34.256314,-68.940480
53982,NaN,-5.975770,7.615473,-2.645936,0.381130,0.593360,0.197751,-0.146460,0.083672,0.063179,-0.347183,-0.726822,0.281712,0.521375,105.088538,34.213813,-68.906360
53983,NaN,-6.045273,7.610071,-2.680321,0.400823,0.667285,0.239013,-0.149996,-0.022115,0.064815,-0.347799,-0.726435,0.281593,0.521568,104.993337,34.186963,-68.933354
53984,NaN,-6.101885,7.702617,-2.668594,0.382653,0.662592,0.341091,-0.141076,-0.133221,0.073471,-0.348252,-0.725760,0.281727,0.522133,104.860786,34.170851,-69.036196
53985,NaN,-6.243594,7.907770,-2.620361,0.307059,0.649439,0.573142,-0.148415,-0.249676,0.098243,-0.348628,-0.724733,0.282129,0.523091,104.677716,34.158614,-69.221295
53986,NaN,-6.206381,7.861614,-2.551735,0.284742,0.647027,0.499230,-0.171790,-0.369563,0.135848,-0.348972,-0.723272,0.282881,0.524475,104.432909,34.141665,-69.503021
53987,NaN,-5.865000,7.734294,-2.516129,0.392318,0.465898,0.196173,-0.179861,-0.466529,0.149465,-0.349287,-0.721544,0.283762,0.526168,104.145465,34.130371,-69.842145
53988,NaN,-5.455936,7.700614,-2.365034,0.405481,0.151697,-0.092991,-0.180840,-0.502742,0.149032,-0.349505,-0.719690,0.284767,0.528016,103.844382,34.122257,-70.215247
53989,NaN,-5.245921,7.609279,-2.238635,0.385997,0.029321,-0.310987,-0.165038,-0.511670,0.120892,-0.349621,-0.717898,0.285658,0.529893,103.551189,34.130096,-70.579845
53990,NaN,-5.246931,7.558474,-2.115579,0.307257,0.045456,-0.376592,-0.170456,-0.475285,0.088776,-0.349676,-0.716211,0.286421,0.531725,103.271976,34.148884,-70.924641
53991,NaN,-5.120376,7.531936,-1.966805,0.233562,-0.059682,-0.498266,-0.138535,-0.414082,0.065727,-0.349686,-0.714795,0.287011,0.533304,103.035492,34.171911,-71.214968
53992,NaN,-5.248396,7.535128,-1.879440,0.143229,0.026893,-0.440664,-0.099406,-0.342861,0.046147,-0.349559,-0.713638,0.287576,0.534630,102.850380,34.195216,-71.464193
53993,NaN,-5.269789,7.694000,-1.851681,0.126856,-0.051923,-0.305942,-0.058154,-0.276639,0.042474,-0.349415,-0.712758,0.288055,0.535640,102.713790,34.212255,-71.658422
53994,NaN,-5.136019,7.875602,-1.747110,0.070025,-0.280903,-0.253798,-0.049539,-0.199116,0.038360,-0.349295,-0.712081,0.288473,0.536392,102.612481,34.220963,-71.809409
53995,NaN,-5.119848,8.120466,-1.774164,0.103131,-0.429189,-0.060374,-0.063681,-0.115079,0.048482,-0.349418,-0.711614,0.288676,0.536823,102.533557,34.213906,-71.895391
53996,NaN,-5.073801,8.238687,-1.788356,0.134815,-0.526342,0.011894,-0.118614,-0.059375,0.060505,-0.349851,-0.711184,0.288681,0.537108,102.443873,34.192469,-71.945250
53997,NaN,-4.938525,8.187617,-1.786315,0.179761,-0.594300,-0.105396,-0.170202,0.035248,0.072204,-0.350634,-0.710899,0.288419,0.537116,102.359141,34.153426,-71.933013
53998,NaN,-5.069381,8.161914,-1.666494,0.039043,-0.487990,-0.073437,-0.193112,0.141078,0.075892,-0.351662,-0.710853,0.287929,0.536767,102.301749,34.098506,-71.849508
53999,NaN,-5.243382,8.252658,-1.598669,-0.069036,-0.405177,0.086111,-0.208457,0.183748,0.086571,-0.352833,-0.710877,0.287353,0.536275,102.250162,34.033352,-71.738935
54000,NaN,-5.283815,8.288826,-1.575035,-0.098082,-0.385534,0.134462,-0.237545,0.184998,0.091807,-0.354077,-0.710820,0.286784,0.535835,102.182438,33.964326,-71.638079
54001,NaN,-5.447145,8.450547,-1.481173,-0.226853,-0.354884,0.341108,-0.273964,0.149045,0.103143,-0.355474,-0.710608,0.286153,0.535528,102.078693,33.894300,-71.553318
54002,NaN,-5.942168,8.575483,-1.599086,-0.229782,0.004847,0.739679,-0.345719,0.053942,0.142422,-0.357048,-0.709932,0.285703,0.535618,101.895348,33.813140,-71.548000
54003,NaN,-5.949286,8.326305,-1.619994,-0.178602,0.184475,0.544902,-0.384891,-0.088409,0.183901,-0.358713,-0.708767,0.285482,0.536166,101.632690,33.726004,-71.634435
54004,NaN,-5.715028,8.243773,-1.602569,-0.096832,0.072953,0.344805,-0.403725,-0.196639,0.220117,-0.360340,-0.707198,0.285598,0.537084,101.316860,33.629765,-71.808066
54005,NaN,-5.633010,8.203789,-1.537832,-0.096744,0.048894,0.256368,-0.388048,-0.283035,0.231780,-0.361863,-0.705429,0.285885,0.538233,100.977190,33.536503,-72.030878
54006,NaN,-5.485731,8.044261,-1.615149,0.059836,0.068063,0.056642,-0.310563,-0.381488,0.206559,-0.362858,-0.703539,0.286536,0.539689,100.647856,33.465842,-72.326153
54007,NaN,-5.324071,8.125367,-1.764264,0.283516,-0.056968,0.056264,-0.207803,-0.423690,0.116724,-0.363230,-0.701872,0.287155,0.541278,100.368319,33.450031,-72.627949
54008,NaN,-5.611469,8.360205,-1.832366,0.312166,0.060894,0.416580,-0.130746,-0.455253,0.044889,-0.363042,-0.700336,0.287851,0.543021,100.126573,33.476184,-72.951940
54009,NaN,-5.513833,8.475776,-1.815042,0.354765,-0.083850,0.453885,-0.102773,-0.501572,0.001641,-0.362617,-0.698806,0.288488,0.544934,99.885518,33.530856,-73.292678
54010,NaN,-5.166710,8.355202,-1.613326,0.277881,-0.332343,0.133134,-0.081528,-0.489701,-0.020207,-0.362026,-0.697351,0.289151,0.546837,99.662666,33.594671,-73.633054
54011,NaN,-5.232034,8.414391,-1.424593,0.110307,-0.351998,0.190786,-0.064446,-0.463087,-0.020556,-0.361458,-0.696019,0.289742,0.548595,99.458289,33.656010,-73.946123
54012,NaN,-5.608779,8.477727,-1.353557,-0.013558,-0.100611,0.441675,-0.102591,-0.464963,-0.002183,-0.361021,-0.694558,0.290362,0.550403,99.230383,33.705181,-74.272769
54013,NaN,-5.575450,8.383578,-1.356587,0.035171,-0.070300,0.346251,-0.166964,-0.484966,0.024887,-0.360898,-0.692907,0.290865,0.552296,98.955289,33.740661,-74.606614
54014,NaN,-5.125077,8.231559,-1.275742,0.096599,-0.351985,-0.039299,-0.211264,-0.469021,0.067027,-0.361021,-0.691126,0.291427,0.554147,98.658174,33.748475,-74.944424
54015,NaN,-4.782913,8.104758,-1.113332,0.051080,-0.572555,-0.353707,-0.242988,-0.413838,0.088244,-0.361434,-0.689434,0.291807,0.555784,98.362479,33.739198,-75.236758
54016,NaN,-4.755996,7.940507,-1.072512,0.052812,-0.496639,-0.508286,-0.239662,-0.364063,0.078506,-0.361831,-0.687873,0.292136,0.557284,98.089053,33.729504,-75.503633
54017,NaN,-4.618704,7.865079,-0.972982,0.016097,-0.572124,-0.657857,-0.216011,-0.307893,0.056414,-0.362214,-0.686564,0.292287,0.558569,97.850798,33.727580,-75.720472
54018,NaN,-4.605300,7.940450,-0.954977,0.028328,-0.621812,-0.604864,-0.200357,-0.208335,0.028250,-0.362564,-0.685574,0.292273,0.559564,97.661240,33.732025,-75.876646
54019,NaN,-4.751987,8.033559,-0.945509,0.010359,-0.554154,-0.447528,-0.174173,-0.073185,-0.002694,-0.362980,-0.685081,0.291912,0.560087,97.538942,33.744720,-75.927812
54020,NaN,-5.023188,8.038188,-0.886780,-0.090457,-0.347409,-0.299414,-0.132974,0.072040,-0.025306,-0.363354,-0.685079,0.291392,0.560118,97.497635,33.758402,-75.887236
54021,NaN,-5.106532,8.019118,-0.819830,-0.172024,-0.283606,-0.276178,-0.069598,0.200848,-0.044594,-0.363694,-0.685602,0.290682,0.559625,97.541384,33.774291,-75.747416
54022,NaN,-5.347357,8.140070,-0.717539,-0.328357,-0.182150,-0.054162,-0.019043,0.249575,-0.073935,-0.363854,-0.686393,0.289932,0.558940,97.634253,33.801643,-75.571717
54023,NaN,-5.959181,8.445716,-0.817406,-0.363911,0.144555,0.548623,-0.033327,0.189752,-0.096472,-0.363907,-0.687026,0.289165,0.558526,97.697417,33.847541,-75.434566
54024,NaN,-6.512253,8.790288,-0.902214,-0.392068,0.398531,1.149978,-0.113854,0.017861,-0.096871,-0.363941,-0.687006,0.288551,0.558845,97.649455,33.905732,-75.424743
54025,NaN,-6.812081,8.778987,-1.132924,-0.206976,0.682434,1.334058,-0.220005,-0.224471,-0.032737,-0.364215,-0.686047,0.288235,0.560007,97.444407,33.946837,-75.576872
54026,NaN,-6.443705,8.500539,-1.209538,-0.013190,0.562726,0.907684,-0.307987,-0.502180,0.012782,-0.364471,-0.684054,0.288400,0.562189,97.080163,33.980298,-75.933759
54027,NaN,-5.849697,8.219464,-1.143480,0.102888,0.241567,0.337027,-0.374552,-0.732276,0.022049,-0.364689,-0.681299,0.288757,0.565202,96.588597,34.023286,-76.439597
54028,NaN,-5.400329,7.844165,-1.086292,0.201673,0.090685,-0.230146,-0.363568,-0.889300,0.001530,-0.364532,-0.678108,0.289424,0.568788,96.043073,34.082771,-77.062691
54029,NaN,-5.017925,7.652901,-1.033906,0.289336,-0.114454,-0.608438,-0.283505,-0.922808,-0.029277,-0.364004,-0.675024,0.290201,0.572387,95.530338,34.158349,-77.697716
54030,NaN,-4.862039,7.634420,-1.097580,0.440413,-0.220795,-0.708540,-0.157532,-0.855983,-0.042369,-0.363053,-0.672342,0.291227,0.575617,95.115341,34.233143,-78.296674
54031,NaN,-4.745375,7.717384,-1.199906,0.609849,-0.352110,-0.701137,-0.049221,-0.717102,-0.066028,-0.361915,-0.670303,0.292168,0.578229,94.815359,34.311954,-78.789796
54032,NaN,-4.716501,7.832925,-1.226401,0.674601,-0.446288,-0.623027,0.034251,-0.515703,-0.080834,-0.360699,-0.668985,0.293002,0.580090,94.641719,34.386515,-79.153678
54033,NaN,-4.952186,7.844401,-1.046783,0.477761,-0.298031,-0.494027,0.087873,-0.334080,-0.082924,-0.359608,-0.668318,0.293585,0.581241,94.568837,34.454792,-79.382143
54034,NaN,-4.960981,7.907202,-0.774137,0.213170,-0.375274,-0.455968,0.134452,-0.173627,-0.086899,-0.358537,-0.668179,0.294074,0.581814,94.586462,34.516220,-79.509268
54035,NaN,-5.114316,8.056139,-0.480727,-0.102463,-0.387406,-0.266583,0.163277,-0.019256,-0.088652,-0.357638,-0.668569,0.294292,0.581810,94.680162,34.573289,-79.519433
54036,NaN,-5.664706,8.371902,-0.301398,-0.367636,-0.156787,0.292199,0.143347,0.030712,-0.065446,-0.356894,-0.669013,0.294510,0.581645,94.783424,34.613570,-79.505363
54037,NaN,-6.033251,8.520276,-0.299363,-0.430255,0.049650,0.622698,0.068237,-0.037276,-0.019200,-0.356489,-0.669077,0.294715,0.581717,94.813364,34.631874,-79.531886
54038,NaN,-5.815322,8.413453,-0.280883,-0.416431,-0.067964,0.410082,-0.015454,-0.121514,0.038790,-0.356410,-0.668661,0.295025,0.582086,94.760433,34.620408,-79.620017
54039,NaN,-5.476929,8.272605,-0.329647,-0.309571,-0.248004,0.106185,-0.093171,-0.175090,0.091714,-0.356663,-0.667873,0.295377,0.582658,94.640002,34.581809,-79.748503
54040,NaN,-5.127125,8.029501,-0.332588,-0.243310,-0.380605,-0.290776,-0.145925,-0.188294,0.117108,-0.357153,-0.666909,0.295696,0.583300,94.483749,34.527215,-79.887682
54041,NaN,-4.864548,7.782966,-0.281020,-0.243972,-0.447445,-0.644394,-0.144935,-0.151509,0.118821,-0.357692,-0.666054,0.295944,0.583819,94.342505,34.471562,-80.000880
54042,NaN,-4.896788,7.761955,-0.267955,-0.249444,-0.399496,-0.643367,-0.092751,-0.073063,0.107789,-0.358097,-0.665507,0.296238,0.584046,94.262449,34.416797,-80.069363
54043,NaN,-5.041506,7.873393,-0.399851,-0.132108,-0.319202,-0.461344,-0.036804,0.013532,0.084968,-0.358421,-0.665378,0.296394,0.583916,94.249058,34.373214,-80.066208
54044,NaN,-4.980450,7.937613,-0.569595,0.043649,-0.376758,-0.432327,-0.003003,0.085436,0.064512,-0.358685,-0.665546,0.296461,0.583527,94.283919,34.336796,-80.012296
54045,NaN,-5.116189,7.980659,-0.636350,0.083052,-0.278265,-0.316009,0.031718,0.145488,0.045819,-0.358862,-0.665982,0.296450,0.582927,94.362375,34.309877,-79.915872
54046,NaN,-5.029210,8.169198,-0.698435,0.148889,-0.446861,-0.205675,0.047327,0.190229,0.006211,-0.358942,-0.666633,0.296275,0.582222,94.468230,34.302734,-79.786372
54047,NaN,-5.521262,8.510395,-0.569821,-0.057454,-0.259835,0.344331,0.007844,0.266060,-0.016297,-0.359196,-0.667468,0.295770,0.581365,94.581804,34.305563,-79.603318
